#timestamp [ns], temperature [degC], w_RS_S_x [rad s^-1], w_RS_S_y [rad s^-1], w_RS_S_z [rad s^-1], a_RS_S_x [m s^-2], a_RS_S_y [m s^-2], a_RS_S_z [m s^-2]
0.0,21.9,0.0,0.0,0.0,0.72594,-0.92214,9.81
5000000.0,21.9,0.0,0.0,0.0,0.755075700291357,-0.893004299708643,9.751728599417286
10000000.0,21.9,0.0,0.0,0.0,0.75537,-0.921551400582714,9.741526199805762
15000000.0,21.9,0.0,0.0,0.0,0.745854299708643,-0.92214,9.769877100874071
20000000.0,21.9,0.0,0.0,0.0,0.773812801165428,-0.893887198834572,9.77076
25000000.0,21.9,0.0,0.0,0.0,0.765670499514405,-0.902029500485595,9.798718501456786
30000000.0,21.9,0.0,0.0,0.0,0.7559585994172859,-0.893298599417286,9.772525798251857
35000000.0,21.9,0.0,0.0,0.0,0.75537,-0.883586699320167,9.7981299020395
40000000.0,21.9,0.0,0.0,0.0,0.7643952007769521,-0.900950401553904,9.764089196892192
45000000.0,21.9,0.0,0.0,0.0,0.756252899125929,-0.90252,9.752022899125928
50000000.0,21.9,0.0,0.0,0.0,0.75537,-0.88486199805762,9.75114
55000000.0,21.9,0.0,0.0,0.0,0.737908197863382,-0.909092703204927,9.786063604273236
60000000.0,21.9,0.0,0.0,0.0,0.7616484034962842,-0.903697198834572,9.781747198834573
65000000.0,21.9,0.0,0.0,0.0,0.7651800000000001,-0.90252,9.78057
70000000.0,21.9,0.0,0.0,0.0,0.773616601359666,-0.90252,9.78057
75000000.0,21.9,0.0,0.0,0.0,0.75831299708643,-0.90252,9.772231498543215
80000000.0,21.9,0.0,0.0,0.0,0.763610401553904,-0.910760401553904,9.787240803107808
85000000.0,21.9,0.0,0.0,0.0,0.748895396697954,-0.91233,9.774095396697954
90000000.0,21.9,0.0,0.0,0.0,0.737515798251858,-0.904285798251858,9.778804201748143
95000000.0,21.9,0.0,0.0,0.0,0.73575,-0.894573898154739,9.78057
100000000.0,21.9,0.0,0.0,0.0,0.7592940058271401,-0.90840600388476,9.78057
105000000.0,21.9,0.0,0.0,0.0,0.7651800000000001,-0.896830195921002,9.772820097960501
110000000.0,21.9,0.0,0.0,0.0,0.7651800000000001,-0.89271,9.778411802136619
115000000.0,21.9,0.0,0.0,0.0,0.7651800000000001,-0.89271,9.78057
120000000.0,21.9,0.0,0.0,0.0,0.772635602330856,-0.877798795338288,9.773114397669143
125000000.0,21.9,0.0,0.0,0.0,0.7529174927160749,-0.9025200097119,9.763402497572024
130000000.0,21.9,0.0,0.0,0.0,0.7745976101003761,-0.919589402525094,9.753690597474906
135000000.0,21.9,0.0,0.0,0.0,0.777638697377787,-0.9078173947555739,9.801269118355492
140000000.0,21.9,0.0,0.0,0.0,0.7608635945613359,-0.8883935945613359,9.805683594561337
145000000.0,21.9,0.0,0.0,0.0,0.741439794367098,-0.868969794367098,9.779294691550646
150000000.0,21.9,0.0,0.0,0.0,0.74948400582714,-0.8838810087407101,9.76389299708643
155000000.0,21.9,0.0,0.0,0.0,0.75537,-0.9130167090320671,9.75418109698931
160000000.0,21.9,0.0,0.0,0.0,0.7687116062156161,-0.92214,9.777823212431233
165000000.0,21.9,0.0,0.0,0.0,0.761844593590146,-0.92214,9.803525406409854
170000000.0,21.9,0.0,0.0,0.0,0.75537,-0.8962415867918159,9.784101586791815
175000000.0,21.9,0.0,0.0,0.0,0.761746503399165,-0.8829,9.75800699320167
180000000.0,21.9,0.0,0.0,0.0,0.7714584034962841,-0.895456806992568,9.744861596503716
185000000.0,21.9,0.0,0.0,0.0,0.762629392813194,-0.8963396964065969,9.766051214373613
190000000.0,21.9,0.0,0.0,0.0,0.7675344073810441,-0.9048744073810441,9.78057
195000000.0,21.9,0.0,0.0,0.0,0.769005896212359,-0.91233,9.762617688637077
200000000.0,21.9,0.0,0.0,0.0,0.7769520077695201,-0.91821600388476,9.75114
205000000.0,21.9,0.0,0.0,0.0,0.7616483840724839,-0.9047762880543628,9.768503711945637
210000000.0,21.9,0.0,0.0,0.0,0.751249804078998,-0.9040896081579961,9.774880195921002
215000000.0,21.9,0.0,0.0,0.0,0.7385948874716489,-0.91233,9.776351704176117
220000000.0,21.9,0.0,0.0,0.0,0.7479144170929443,-0.91233,9.775076395726764
225000000.0,21.9,0.0,0.0,0.0,0.759784495629645,-0.9069344956296449,9.74917798251858
230000000.0,21.9,0.0,0.0,0.0,0.760667404467474,-0.9184122134024221,9.752709617869895
235000000.0,21.9,0.0,0.0,0.0,0.754781390870814,-0.93195,9.775959304564593
240000000.0,21.9,0.0,0.0,0.0,0.750661204661712,-0.9115451813531518,9.785671204661712
245000000.0,21.9,0.0,0.0,0.0,0.7653762095176622,-0.887706895241169,9.780373790482338
250000000.0,21.9,0.0,0.0,0.0,0.7602749854321499,-0.8927100097119001,9.75604498543215
255000000.0,21.9,0.0,0.0,0.0,0.7599807148592072,-0.897713095046931,9.750943809906138
260000000.0,21.9,0.0,0.0,0.0,0.7514459747490598,-0.9068364151505641,9.775076415150565
265000000.0,21.9,0.0,0.0,0.0,0.7351614102946141,-0.917529294852693,9.781158589705386
270000000.0,21.9,0.0,0.0,0.0,0.7545852104888522,-0.9033047895111479,9.77076
275000000.0,21.9,0.0,0.0,0.0,0.7563509893169099,-0.8971245053415451,9.77076
280000000.0,21.9,0.0,0.0,0.0,0.7498764054386641,-0.90252,9.779392810877328
285000000.0,21.9,0.0,0.0,0.0,0.7469333889284339,-0.8983016944642169,9.79038
290000000.0,21.9,0.0,0.0,0.0,0.7481106168987062,-0.9050706168987062,9.79038
295000000.0,21.9,0.0,0.0,0.0,0.7651800000000001,-0.9181178942699789,9.78635789426998
300000000.0,21.9,0.0,0.0,0.0,0.7612559941728599,-0.9084059941728599,9.77664599417286
305000000.0,21.9,0.0,0.0,0.0,0.7477181881514818,-0.9101718118485181,9.782237717772777
310000000.0,21.9,0.0,0.0,0.0,0.7543890301068903,-0.92214,9.796462193978623
315000000.0,21.9,0.0,0.0,0.0,0.7739108816445088,-0.92214,9.79038
320000000.0,21.9,0.0,0.0,0.0,0.75537,-0.9186083937843839,9.786848393784386
325000000.0,21.9,0.0,0.0,0.0,0.75537,-0.91233,9.77370298737453
330000000.0,21.9,0.0,0.0,0.0,0.7453637807704379,-0.9089945935901459,9.757614593590146
335000000.0,21.9,0.0,0.0,0.0,0.7388892260278923,-0.90252,9.757614613013946
340000000.0,21.9,0.0,0.0,0.0,0.7651800000000001,-0.90252,9.77076
345000000.0,21.9,0.0,0.0,0.0,0.7651800000000001,-0.8994788932987889,9.767718893298788
350000000.0,21.9,0.0,0.0,0.0,0.7651800000000001,-0.89565300679833,9.76095
355000000.0,21.9,0.0,0.0,0.0,0.7708698137908983,-0.8968301862091018,9.766639813790897
360000000.0,21.9,0.0,0.0,0.0,0.7710659650371597,-0.8938872279702723,9.777823193007432
365000000.0,21.9,0.0,0.0,0.0,0.7383987070896871,-0.92214,9.765462585820625
370000000.0,21.9,0.0,0.0,0.0,0.7379081784395818,-0.9170387856263879,9.761342428747223
375000000.0,21.9,0.0,0.0,0.0,0.7234875218517752,-0.9000674927160749,9.778117463580376
380000000.0,21.9,0.0,0.0,0.0,0.7502688147620882,-0.8950644073810441,9.746038814762088
385000000.0,21.9,0.0,0.0,0.0,0.7651800000000001,-0.90252,9.772231537390814
390000000.0,21.9,0.0,0.0,0.0,0.760863584849436,-0.9068364151505641,9.805683584849437
395000000.0,21.9,0.0,0.0,0.0,0.74556,-0.9180197846551978,9.7883198923276
400000000.0,21.9,0.0,0.0,0.0,0.7553700388476003,-0.9005579922304799,9.77860799223048
405000000.0,21.9,0.0,0.0,0.0,0.7852904606668046,-0.8964378157332782,9.767032184266721
410000000.0,21.9,0.0,0.0,0.0,0.74556,-0.910564192036242,9.75996903981879
415000000.0,21.9,0.0,0.0,0.0,0.7438922919391229,-0.9041877080608771,9.793519167756491
420000000.0,21.9,0.0,0.0,0.0,0.7388892163159921,-0.9154692163159921,9.767228432631985
425000000.0,21.9,0.0,0.0,0.0,0.7568415082551151,-0.9245924587244245,9.79430396697954
430000000.0,21.9,0.0,0.0,0.0,0.7651800000000001,-0.8856468167044682,9.765070225056702
435000000.0,21.9,0.0,0.0,0.0,0.7651800000000001,-0.90252,9.79038
440000000.0,21.9,0.0,0.0,0.0,0.7651800000000001,-0.9001655829070558,9.786848374360584
445000000.0,21.9,0.0,0.0,0.0,0.7662591086435911,-0.8882955432179555,9.758791782712818
450000000.0,21.9,0.0,0.0,0.0,0.7700849562964496,-0.9299879825185797,9.74525403496284
455000000.0,21.9,0.0,0.0,0.0,0.7321203618648037,-0.91233,9.778804182324343
460000000.0,21.9,0.0,0.0,0.0,0.7922555731951558,-0.9107603821301038,9.761734808934948
465000000.0,21.9,0.0,0.0,0.0,0.7651800000000001,-0.89271,9.768699872903799
470000000.0,21.9,0.0,0.0,0.0,0.764591390870814,-0.8932986091291861,9.740741390870813
475000000.0,21.9,0.0,0.0,0.0,0.7558605092263051,-0.9020294907736949,9.733972546131525
480000000.0,21.9,0.0,0.0,0.0,0.7663572279702724,-0.8946720466171205,9.780177590676576
485000000.0,21.9,0.0,0.0,0.0,0.7934327623178277,-0.9399941434767415,9.77164292826163
490000000.0,21.9,0.0,0.0,0.0,0.7561548380706483,-0.8832924190353242,9.799012742894028
495000000.0,21.9,0.0,0.0,0.0,0.7942175615408756,-0.9028143288443433,9.741526219229561
500000000.0,21.9,0.0,0.0,0.0,0.7553700291357003,-0.9319499611523996,9.7609500097119
505000000.0,21.9,0.0,0.0,0.0,0.7845057294270573,-0.8931023607639236,9.770661909809018
510000000.0,21.9,0.0,0.0,0.0,0.7463447603754476,-0.89271,9.78037380990614
515000000.0,21.9,0.0,0.0,0.0,0.7645914200065143,-0.9022257100032571,9.790085710003257
520000000.0,21.9,0.0,0.0,0.0,0.7557623898996239,-0.8931023898996239,9.762127169698871
525000000.0,21.9,0.0,0.0,0.0,0.7646895101974952,-0.9020295101974951,9.732991469407514
530000000.0,21.9,0.0,0.0,0.0,0.7375157691161577,-0.90252,9.786848461767685
535000000.0,21.9,0.0,0.0,0.0,0.7448733103917331,-0.9207666207834662,9.781256689608268
540000000.0,21.9,0.0,0.0,0.0,0.7545852104888521,-0.9040895790222958,9.78057
545000000.0,21.9,0.0,0.0,0.0,0.7464428894140289,-0.8935928894140289,9.771642889414029
550000000.0,21.9,0.0,0.0,0.0,0.73673098931691,-0.9191970320492703,9.753101978633818
555000000.0,21.9,0.0,0.0,0.0,0.7532118215604182,-0.9134090892197909,9.768601821560418
560000000.0,21.9,0.0,0.0,0.0,0.75537,-0.9036971891226718,9.77939281087733
565000000.0,21.9,0.0,0.0,0.0,0.7639047109744472,-0.90252,9.78057
570000000.0,21.9,0.0,0.0,0.0,0.7736166110715662,-0.90252,9.746823555713735
575000000.0,21.9,0.0,0.0,0.0,0.7499744664939447,-0.9191970223373702,9.75800702233737
580000000.0,21.9,0.0,0.0,0.0,0.7785216450632165,-0.9056591774683918,9.769190411265804
585000000.0,21.9,0.0,0.0,0.0,0.7848,-0.9106623113629231,9.787044622725846
590000000.0,21.9,0.0,0.0,0.0,0.7526231541598316,-0.8962415770799158,9.798424211460043
595000000.0,21.9,0.0,0.0,0.0,0.7535061115571611,-0.9006561115571611,9.752513330657033
600000000.0,21.9,0.0,0.0,0.0,0.8024580699256808,-0.8946719883457199,9.74133
605000000.0,21.9,0.0,0.0,0.0,0.7677305294916053,-0.9082098235027982,9.780079558756997
610000000.0,21.9,0.0,0.0,0.0,0.7630218118485181,-0.8970263763029638,9.775076376302962
615000000.0,21.9,0.0,0.0,0.0,0.7651800000000001,-0.9078174238912742,9.778313711945637
620000000.0,21.9,0.0,0.0,0.0,0.7651800000000001,-0.9197856120427561,9.750747551828976
625000000.0,21.9,0.0,0.0,0.0,0.7578224878601248,-0.9294975121398751,9.778117560699377
630000000.0,21.9,0.0,0.0,0.0,0.7626294122369942,-0.8956529388150294,9.783120587763007
635000000.0,21.9,0.0,0.0,0.0,0.7723413123341132,-0.8900613123341131,9.766247375331773
640000000.0,21.9,0.0,0.0,0.0,0.7608635751375358,-0.9068364248624642,9.775076424862466
645000000.0,21.9,0.0,0.0,0.0,0.7623351125283512,-0.9053648874716489,9.766639774943297
650000000.0,21.9,0.0,0.0,0.0,0.7514459747490597,-0.8956529873745299,9.78841805050188
655000000.0,21.9,0.0,0.0,0.0,0.7590978254451783,-0.8859410872774108,9.773114349109644
660000000.0,21.9,0.0,0.0,0.0,0.7518383743605838,-0.8762291871802919,9.76095
665000000.0,21.9,0.0,0.0,0.0,0.7521327129168272,-0.8862354258336542,9.76095
670000000.0,21.9,0.0,0.0,0.0,0.7424207739721077,-0.9121338390418383,9.76095
675000000.0,21.9,0.0,0.0,0.0,0.7548795393331954,-0.9093869737778697,9.773703026222131
680000000.0,21.9,0.0,0.0,0.0,0.7651800000000001,-0.90252,9.786848413208185
685000000.0,21.9,0.0,0.0,0.0,0.7589996866946969,-0.90252,9.77183906008409
690000000.0,21.9,0.0,0.0,0.0,0.75537,-0.8903555731951558,9.754867786597577
695000000.0,21.9,0.0,0.0,0.0,0.7673382269990823,-0.9128205674977057,9.75712411349954
700000000.0,21.9,0.0,0.0,0.0,0.7749900000000001,-0.9084059456133594,9.778608040789981
705000000.0,21.9,0.0,0.0,0.0,0.7518383452248835,-0.8984979136937792,9.77880417261244
710000000.0,21.9,0.0,0.0,0.0,0.7528194413726945,-0.8968301862091018,9.782139627581797
715000000.0,21.9,0.0,0.0,0.0,0.7707717138880172,-0.9038934277760342,9.76801314444793
720000000.0,21.9,0.0,0.0,0.0,0.7585091580445916,-0.9068363860148638,9.762127227970272
725000000.0,21.9,0.0,0.0,0.0,0.7563510281645103,-0.9133110281645103,9.786946542246765
730000000.0,21.9,0.0,0.0,0.0,0.7651800000000001,-0.9168425858206258,9.773702929103129
735000000.0,21.9,0.0,0.0,0.0,0.7703793142764932,-0.9175293142764931,9.761538628552985
740000000.0,21.9,0.0,0.0,0.0,0.7647875712527757,-0.9119375712527756,9.775861214373613
745000000.0,21.9,0.0,0.0,0.0,0.7603731144707312,-0.9125262289414623,9.775566885529269
750000000.0,21.9,0.0,0.0,0.0,0.7504649562964496,-0.8927099125928991,9.780570029135701
755000000.0,21.9,0.0,0.0,0.0,0.7501707439949075,-0.8728938293299383,9.761538512010185
760000000.0,21.9,0.0,0.0,0.0,0.7557623704758237,-0.8876088147620882,9.740937629524176
765000000.0,21.9,0.0,0.0,0.0,0.74556,-0.9065421445776214,9.764972144577621
770000000.0,21.9,0.0,0.0,0.0,0.7500726149563262,-0.92214,9.776057385043673
775000000.0,21.9,0.0,0.0,0.0,0.7597845150534451,-0.9133109698931097,9.77076
780000000.0,21.9,0.0,0.0,0.0,0.7651800000000001,-0.90252,9.788025660602257
785000000.0,21.9,0.0,0.0,0.0,0.7651800000000001,-0.9067383152476831,9.793126739009267
790000000.0,21.9,0.0,0.0,0.0,0.7569395693103957,-0.91233,9.774880215344803
795000000.0,21.9,0.0,0.0,0.0,0.7495821154419211,-0.91233,9.768503653674237
800000000.0,21.9,0.0,0.0,0.0,0.7632180310780803,-0.91233,9.75114
805000000.0,21.9,0.0,0.0,0.0,0.7749900000000001,-0.9046781687276817,9.770269578180796
810000000.0,21.9,0.0,0.0,0.0,0.7749900000000001,-0.9076212629331126,9.792734368533445
815000000.0,21.9,0.0,0.0,0.0,0.7677305683392057,-0.9210608525088085,9.776940284169603
820000000.0,21.9,0.0,0.0,0.0,0.75537,-0.8954567681449677,9.767228384072483
825000000.0,21.9,0.0,0.0,0.0,0.7450694519260945,-0.8897670320492703,9.77468406409854
830000000.0,21.9,0.0,0.0,0.0,0.7292754161217542,-0.90252,9.790183751634737
835000000.0,21.9,0.0,0.0,0.0,0.7422246324377463,-0.90252,9.773997316218873
840000000.0,21.9,0.0,0.0,0.0,0.7490915673680156,-0.9087984326319843,9.783709216315993
845000000.0,21.9,0.0,0.0,0.0,0.7448733492393336,-0.9130166507606665,9.781256650760668
850000000.0,21.9,0.0,0.0,0.0,0.7651800000000001,-0.9015390495306905,9.77272206604092
855000000.0,21.9,0.0,0.0,0.0,0.7623350833926509,-0.9136052501779525,9.788810333570604
860000000.0,21.9,0.0,0.0,0.0,0.7526231832955318,-0.8899631832955318,9.771937266817872
865000000.0,21.9,0.0,0.0,0.0,0.74556,-0.8908461504047616,9.789595132793652
870000000.0,21.9,0.0,0.0,0.0,0.7430093831012938,-0.9072287662025876,9.758399383101294
875000000.0,21.9,0.0,0.0,0.0,0.7382025169958252,-0.8976150339916503,9.763402584979126
880000000.0,21.9,0.0,0.0,0.0,0.7432055829070559,-0.91233,9.793126748721168
885000000.0,21.9,0.0,0.0,0.0,0.7425189515701895,-0.9100736828099368,9.775272634380126
890000000.0,21.9,0.0,0.0,0.0,0.7630217827128178,-0.8982035654256356,9.781747130851272
895000000.0,21.9,0.0,0.0,0.0,0.75537,-0.8870202347686024,9.744959647847097
900000000.0,21.9,0.0,0.0,0.0,0.75537,-0.9064440349628403,9.7315200874071
905000000.0,21.9,0.0,0.0,0.0,0.75537,-0.9202760824214608,9.774487835157078
910000000.0,21.9,0.0,0.0,0.0,0.7589016353513164,-0.9105641823243418,9.792145817675658
915000000.0,21.9,0.0,0.0,0.0,0.7733222822272229,-0.9075231533183316,9.790183693363337
920000000.0,21.9,0.0,0.0,0.0,0.7636103821301039,-0.9256715285204152,9.744469235739793
925000000.0,21.9,0.0,0.0,0.0,0.7568415179670152,-0.89271,9.762421517967015
930000000.0,21.9,0.0,0.0,0.0,0.7665534180641342,-0.8954568361282683,9.772133418064133
935000000.0,21.9,0.0,0.0,0.0,0.7724393636774937,-0.9097793636774936,9.78057
940000000.0,21.9,0.0,0.0,0.0,0.75537,-0.8915327817416279,9.778215563483256
945000000.0,21.9,0.0,0.0,0.0,0.7564491183554912,-0.8872164734219647,9.759870881644508
950000000.0,21.9,0.0,0.0,0.0,0.7661610184526103,-0.92214,9.75310203690522
955000000.0,21.9,0.0,0.0,0.0,0.7732241629005416,-0.9203741629005416,9.771642918549729
960000000.0,21.9,0.0,0.0,0.0,0.7545851813531518,-0.90252,9.781354818646848
965000000.0,21.9,0.0,0.0,0.0,0.7448732812560328,-0.9011465625120656,9.789006562512066
970000000.0,21.9,0.0,0.0,0.0,0.7363386188410862,-0.8846658565232586,9.770171381158914
975000000.0,21.9,0.0,0.0,0.0,0.74556,-0.91233,9.761440518938205
980000000.0,21.9,0.0,0.0,0.0,0.7467372571059726,-0.9115451619293516,9.77076
985000000.0,21.9,0.0,0.0,0.0,0.7744013617351136,-0.8930043191324432,9.770465680867556
990000000.0,21.9,0.0,0.0,0.0,0.75537,-0.90252,9.76095
995000000.0,21.9,0.0,0.0,0.0,0.75537,-0.9027162386533624,9.761146238653362
1000000000.0,21.9,0.0,0.0,0.0,0.75537,-0.9221399805761997,9.78057
1005000000.0,21.9,0.0,0.0,0.0,0.75537,-0.9124280804790807,9.78057
1010000000.0,21.9,0.0,0.0,0.0,0.7649838196180383,-0.9027161803819618,9.761342360763923
1015000000.0,21.9,0.0,0.0,0.0,0.7556642802848428,-0.8930042802848428,9.79901287886063
1020000000.0,21.9,0.0,0.0,0.0,0.7647876198122763,-0.9021276198122762,9.771937140563171
1025000000.0,21.9,0.0,0.0,0.0,0.7465409601812096,-0.8932004800906048,9.742801440271814
1030000000.0,21.9,0.0,0.0,0.0,0.7640028400130284,-0.9203742600195426,9.768994260019541
1035000000.0,21.9,0.0,0.0,0.0,0.7651800000000001,-0.9130166798963668,9.761636679896366
1040000000.0,21.9,0.0,0.0,0.0,0.7651800000000001,-0.91233,9.742899559598495
1045000000.0,21.9,0.0,0.0,0.0,0.7562528797021288,-0.8944757594042576,9.785965601489357
1050000000.0,21.9,0.0,0.0,0.0,0.7730280407899804,-0.8838809796050098,9.772721959210019
1055000000.0,21.9,0.0,0.0,0.0,0.7662590795078909,-0.9003618409842185,9.753298159015781
1060000000.0,21.9,0.0,0.0,0.0,0.7565471794107718,-0.8938871794107718,9.785671282356914
1065000000.0,21.9,0.0,0.0,0.0,0.75537,-0.9183141620590416,9.764775837940958
1070000000.0,21.9,0.0,0.0,0.0,0.7638066207834663,-0.8968301376496014,9.794696483133865
1075000000.0,21.9,0.0,0.0,0.0,0.7651800000000001,-0.89271,9.766835916477659
1080000000.0,21.9,0.0,0.0,0.0,0.7651800000000001,-0.89271,9.77743084195541
1085000000.0,21.9,0.0,0.0,0.0,0.7733223210748232,-0.9334216053741161,9.764285357850353
1090000000.0,21.9,0.0,0.0,0.0,0.7669457788280579,-0.9176273364841734,9.752905778828056
1095000000.0,21.9,0.0,0.0,0.0,0.7810722425381225,-0.9202761212690612,9.774978363807184
1100000000.0,21.9,0.0,0.0,0.0,0.7612559359014593,-0.9064439572676396,9.788418021366182
1105000000.0,21.9,0.0,0.0,0.0,0.75537,-0.9180198429265984,9.767130235610102
1110000000.0,21.9,0.0,0.0,0.0,0.7630218215604183,-0.92214,9.76095
1115000000.0,21.9,0.0,0.0,0.0,0.7349651133698512,-0.92214,9.783611164972612
1120000000.0,21.9,0.0,0.0,0.0,0.7557624870186249,-0.9072287564906876,9.782924378245344
1125000000.0,21.9,0.0,0.0,0.0,0.7651800000000001,-0.90252,9.773212478148224
1130000000.0,21.9,0.0,0.0,0.0,0.7579205780511058,-0.9170388438977884,9.778019421948894
1135000000.0,21.9,0.0,0.0,0.0,0.7482086779539868,-0.8934947118159471,9.773408677953986
1140000000.0,21.9,0.0,0.0,0.0,0.7526232221431323,-0.8758367778568678,9.749570333570603
1145000000.0,21.9,0.0,0.0,0.0,0.75537,-0.9009504889610049,9.74829512224025
1150000000.0,21.9,0.0,0.0,0.0,0.75537,-0.8917289329878894,9.75800702233737
1155000000.0,21.9,0.0,0.0,0.0,0.7486010775655108,-0.8964378448689785,9.774487844868979
1160000000.0,21.9,0.0,0.0,0.0,0.7388891774683918,-0.90252,9.773899177468392
1165000000.0,21.9,0.0,0.0,0.0,0.7554681678861818,-0.9090927226287272,9.757614554742545
1170000000.0,21.9,0.0,0.0,0.0,0.7522307545483076,-0.9188046227258462,9.757614622725846
1175000000.0,21.9,0.0,0.0,0.0,0.7391834771770348,-0.9285165228229652,9.780079568468896
1180000000.0,21.9,0.0,0.0,0.0,0.7483068458401685,-0.9256715770799158,9.784101577079916
1185000000.0,21.9,0.0,0.0,0.0,0.7615503230172033,-0.9097793539655935,9.76202903094839
1190000000.0,21.9,0.0,0.0,0.0,0.7530155537713555,-0.8903555537713556,9.763304446228643
1195000000.0,21.9,0.0,0.0,0.0,0.7515441232114413,-0.906836492845765,9.764775876788558
1200000000.0,21.9,0.0,0.0,0.0,0.7612560233085602,-0.9103679533828795,9.778608069925681
1205000000.0,21.9,0.0,0.0,0.0,0.7593920765943208,-0.90252,9.784592076594322
1210000000.0,21.9,0.0,0.0,0.0,0.7724394705083947,-0.90252,9.78057
1215000000.0,21.9,0.0,0.0,0.0,0.7736165528001656,-0.8969282764000828,9.763794829200249
1220000000.0,21.9,0.0,0.0,0.0,0.7596863763029638,-0.9036972473940724,9.756633623697036
1225000000.0,21.9,0.0,0.0,0.0,0.75537,-0.8961434286175343,9.78253209517662
1230000000.0,21.9,0.0,0.0,0.0,0.75537,-0.8881974238912742,9.805487423891275
1235000000.0,21.9,0.0,0.0,0.0,0.7657686479767865,-0.8979093239883932,9.784003380058033
1240000000.0,21.9,0.0,0.0,0.0,0.7545851036579511,-0.90252,9.755848775914487
1245000000.0,21.9,0.0,0.0,0.0,0.755762496730525,-0.8975168758173687,9.75614312418263
1250000000.0,21.9,0.0,0.0,0.0,0.7700849757202498,-0.9123300971190009,9.780570097119002
1255000000.0,21.9,0.0,0.0,0.0,0.7603730756231308,-0.9223361512462614,9.785769226869393
1260000000.0,21.9,0.0,0.0,0.0,0.7506611755260117,-0.9029123510520235,9.780177648947976
1265000000.0,21.9,0.0,0.0,0.0,0.7547814491422146,-0.89271,9.776547826286679
1270000000.0,21.9,0.0,0.0,0.0,0.7696926246682263,-0.89271,9.756437375331773
1275000000.0,21.9,0.0,0.0,0.0,0.7794045247653453,-0.9015390495306905,9.764383574296035
1280000000.0,21.9,0.0,0.0,0.0,0.7718507254126072,-0.9080135751375358,9.767620725412607
1285000000.0,21.9,0.0,0.0,0.0,0.7511516750404167,-0.9067383249595833,9.768013299838334
1290000000.0,21.9,0.0,0.0,0.0,0.74556,-0.9040895498865955,9.778019324829893
1295000000.0,21.9,0.0,0.0,0.0,0.7495821251538213,-0.8886878748461787,9.768994250307642
1300000000.0,21.9,0.0,0.0,0.0,0.75537,-0.8946720757528207,9.77272194949812
1305000000.0,21.9,0.0,0.0,0.0,0.7591959253480592,-0.91233,9.764775925348058
1310000000.0,21.9,0.0,0.0,0.0,0.7651800000000001,-0.9160578254451782,9.778215650890356
1315000000.0,21.9,0.0,0.0,0.0,0.750661097830811,-0.9148805489154055,9.797639451084596
1320000000.0,21.9,0.0,0.0,0.0,0.7365348769182488,-0.90252,9.802936748721168
1325000000.0,21.9,0.0,0.0,0.0,0.7588035257365353,-0.8990864742634648,9.776645897053859
1330000000.0,21.9,0.0,0.0,0.0,0.7685154258336543,-0.8960454258336542,9.764481703334617
1335000000.0,21.9,0.0,0.0,0.0,0.7717526740692268,-0.8992826740692267,9.783905348138454
1340000000.0,21.9,0.0,0.0,0.0,0.7589015479442155,-0.9021276780836768,9.767620773972107
1345000000.0,21.9,0.0,0.0,0.0,0.7486011261250113,-0.9190988738749887,9.76399112612501
1350000000.0,21.9,0.0,0.0,0.0,0.7524269737778697,-0.91233,9.77076
1355000000.0,21.9,0.0,0.0,0.0,0.7512498526384985,-0.9151749263192492,9.77360492631925
1360000000.0,21.9,0.0,0.0,0.0,0.7651800000000001,-0.9138995207508952,9.788810479249106
1365000000.0,21.9,0.0,0.0,0.0,0.7678287265134873,-0.8900612734865128,9.807351273486514
1370000000.0,21.9,0.0,0.0,0.0,0.7724393733893938,-0.8880012532212126,9.792538120168182
1375000000.0,21.9,0.0,0.0,0.0,0.7676325267077253,-0.9074250534154505,9.768307473292275
1380000000.0,21.9,0.0,0.0,0.0,0.7726355731951559,-0.9174311463903114,9.758595573195155
1385000000.0,21.9,0.0,0.0,0.0,0.7629236730980368,-0.90252,9.760165307607853
1390000000.0,21.9,0.0,0.0,0.0,0.7575282269990823,-0.90252,9.788221773000918
1395000000.0,21.9,0.0,0.0,0.0,0.7693002541924027,-0.9004598729037987,9.78057
1400000000.0,21.9,0.0,0.0,0.0,0.7789139184200392,-0.8907479728066797,9.77468391842004
1405000000.0,21.9,0.0,0.0,0.0,0.7535060727095607,-0.8866278545808786,9.747412145419121
1410000000.0,21.9,0.0,0.0,0.0,0.7437941726124417,-0.9042858273875582,9.735051654775116
1415000000.0,21.9,0.0,0.0,0.0,0.7374177274846773,-0.91233,9.757810909938708
1420000000.0,21.9,0.0,0.0,0.0,0.7471296275817962,-0.9138996275817962,9.788810372418205
1425000000.0,21.9,0.0,0.0,0.0,0.7583130553578306,-0.92214,9.77468388928434
1430000000.0,21.9,0.0,0.0,0.0,0.7749900000000001,-0.9166462888958629,9.745450283328102
1435000000.0,21.9,0.0,0.0,0.0,0.7724393442536935,-0.8841753278731533,9.766934016380539
1440000000.0,21.9,0.0,0.0,0.0,0.7541927720297277,-0.8962416839108168,9.744861683910816
1445000000.0,21.9,0.0,0.0,0.0,0.7466391280673913,-0.9189026157978262,9.769680871932607
1450000000.0,21.9,0.0,0.0,0.0,0.75537,-0.8917289718354897,9.76095
1455000000.0,21.9,0.0,0.0,0.0,0.7580187847848878,-0.8837829282616293,9.762715856523258
1460000000.0,21.9,0.0,0.0,0.0,0.7832303432825035,-0.8950644850762448,9.779785171641253
1465000000.0,21.9,0.0,0.0,0.0,0.7651800000000001,-0.9214532715441327,9.772133456911734
1470000000.0,21.9,0.0,0.0,0.0,0.7640027428940275,-0.91233,9.789791371447015
1475000000.0,21.9,0.0,0.0,0.0,0.7465410573002106,-0.9118394713498947,9.781551057300211
1480000000.0,21.9,0.0,0.0,0.0,0.7643951425055515,-0.9009502850111029,9.799012713758328
1485000000.0,21.9,0.0,0.0,0.0,0.7452656711556567,-0.8644573153773732,9.770171342311313
1490000000.0,21.9,0.0,0.0,0.0,0.7363386868243869,-0.9023237710585377,9.751924915765848
1495000000.0,21.9,0.0,0.0,0.0,0.7649837419228375,-0.89271,9.79038
1500000000.0,21.9,0.0,0.0,0.0,0.7455600582714006,-0.8927100874071009,9.7903799708643
1505000000.0,21.9,0.0,0.0,0.0,0.7649838584656387,-0.9218457876984578,9.780668070767181
1510000000.0,21.9,0.0,0.0,0.0,0.7459523413401234,-0.9125261706700617,9.78057
1515000000.0,21.9,0.0,0.0,0.0,0.7645914588541147,-0.8932985411458854,9.761538541145885
1520000000.0,21.9,0.0,0.0,0.0,0.7745976295241763,-0.9021276295241762,9.770367629524175
1525000000.0,21.9,0.0,0.0,0.0,0.7563509407574094,-0.90252,9.78939905924259
1530000000.0,21.9,0.0,0.0,0.0,0.7461485702815857,-0.90252,9.79038
1535000000.0,21.9,0.0,0.0,0.0,0.7273133403689335,-0.90252,9.799503329815535
1540000000.0,21.9,0.0,0.0,0.0,0.7349652299126523,-0.9205704598253046,9.737013390611434
1545000000.0,21.9,0.0,0.0,0.0,0.73575,-0.9042857399804574,9.776155650048857
1550000000.0,21.9,0.0,0.0,0.0,0.762237090320671,-0.90252,9.77174096989311
1555000000.0,21.9,0.0,0.0,0.0,0.7477181395919814,-0.8850581395919814,9.796952790612028
1560000000.0,21.9,0.0,0.0,0.0,0.7714584909033849,-0.9001656606022566,9.774291509096614
1565000000.0,21.9,0.0,0.0,0.0,0.7579205392035054,-0.9110547303982472,9.745155808805258
1570000000.0,21.9,0.0,0.0,0.0,0.780679891486099,-0.91233,9.758203260990731
1575000000.0,21.9,0.0,0.0,0.0,0.7514458776300588,-0.8956529388150294,9.76095
1580000000.0,21.9,0.0,0.0,0.0,0.7373195693103957,-0.9009504306896043,9.777430861379209
1585000000.0,21.9,0.0,0.0,0.0,0.7276076692132767,-0.8943776692132767,9.78057
1590000000.0,21.9,0.0,0.0,0.0,0.7500726926515269,-0.8766215382323154,9.772525769116157
1595000000.0,21.9,0.0,0.0,0.0,0.7394777380380774,-0.87309,9.762813869019038
1600000000.0,21.9,0.0,0.0,0.0,0.73575,-0.8966340932342409,9.745253937843838
1605000000.0,21.9,0.0,0.0,0.0,0.7434999311751993,-0.90252,9.764579793525597
1610000000.0,21.9,0.0,0.0,0.0,0.7608636625446367,-0.90252,9.763108168727682
1615000000.0,21.9,0.0,0.0,0.0,0.7651800000000001,-0.8949662686305627,9.776057462738875
1620000000.0,21.9,0.0,0.0,0.0,0.7428131056003311,-0.89271,9.75820310560033
1625000000.0,21.9,0.0,0.0,0.0,0.7431075315636754,-0.9000675315636754,9.758497531563675
1630000000.0,21.9,0.0,0.0,0.0,0.7383005683392057,-0.9097794316607943,9.768209431660793
1635000000.0,21.9,0.0,0.0,0.0,0.7500726635158266,-0.91233,9.77076
1640000000.0,21.9,0.0,0.0,0.0,0.7483067681449677,-0.91233,9.784886463710064
1645000000.0,21.9,0.0,0.0,0.0,0.7594902639043027,-0.91233,9.769484604143546
1650000000.0,21.9,0.0,0.0,0.0,0.7445789038521891,-0.8848618718029188,9.75408296795073
1655000000.0,21.9,0.0,0.0,0.0,0.7628257285855573,-0.8933967964391679,9.757908932146389
1660000000.0,21.9,0.0,0.0,0.0,0.7616483355129834,-0.922532496730525,9.767620832243507
1665000000.0,21.9,0.0,0.0,0.0,0.7619427323406274,-0.8990863382968634,9.783905464681254
1670000000.0,21.9,0.0,0.0,0.0,0.7716546324377463,-0.8829,9.777430735124508
1675000000.0,21.9,0.0,0.0,0.0,0.7813665325348654,-0.8956530650697306,9.745253869860539
1680000000.0,21.9,0.0,0.0,0.0,0.7534078368400784,-0.9213552978959529,9.744076865263969
1685000000.0,21.9,0.0,0.0,0.0,0.7481106654582067,-0.9195893345417933,9.775861330916413
1690000000.0,21.9,0.0,0.0,0.0,0.7614522328262223,-0.9001655343475553,9.796462232826222
1695000000.0,21.9,0.0,0.0,0.0,0.7532117341533173,-0.89271,9.782237601229976
1700000000.0,21.9,0.0,0.0,0.0,0.74556,-0.9162541320818413,9.753101900938619
1705000000.0,21.9,0.0,0.0,0.0,0.7397720668824207,-0.93195,9.72975413376484
1710000000.0,21.9,0.0,0.0,0.0,0.7471296664293967,-0.914880500355905,9.76153883250289
1715000000.0,21.9,0.0,0.0,0.0,0.7441865333763653,-0.8969282666881827,9.81274693324727
1720000000.0,21.9,0.0,0.0,0.0,0.73575,-0.8817227331821273,9.80215183295532
1725000000.0,21.9,0.0,0.0,0.0,0.7573321340242214,-0.8676944664939447,9.78057
1730000000.0,21.9,0.0,0.0,0.0,0.7696925663968257,-0.8897671680158716,9.769975132793652
1735000000.0,21.9,0.0,0.0,0.0,0.7599806662997067,-0.91233,9.771348667400586
1740000000.0,21.9,0.0,0.0,0.0,0.7655724675948247,-0.9174312337974123,9.795873701392237
1745000000.0,21.9,0.0,0.0,0.0,0.7649837322109373,-0.9171368661054686,9.779981196632813
1750000000.0,21.9,0.0,0.0,0.0,0.75537,-0.9025199320166993,9.756045033991649
1755000000.0,21.9,0.0,0.0,0.0,0.75537,-0.8975169340887693,9.746529197733691
1760000000.0,21.9,0.0,0.0,0.0,0.7506611658141117,-0.916646502557665,9.750355336743553
1765000000.0,21.9,0.0,0.0,0.0,0.7547814685660147,-0.9227285314339853,9.789202937132028
1770000000.0,21.9,0.0,0.0,0.0,0.7606673656198737,-0.91233,9.800974731239748
1775000000.0,21.9,0.0,0.0,0.0,0.7465409310455093,-0.9035009310455093,9.78155093104551
1780000000.0,21.9,0.0,0.0,0.0,0.7486993037230931,-0.8970264345743644,9.775076434574364
1785000000.0,21.9,0.0,0.0,0.0,0.7609616653285167,-0.90252,9.76791499598555
1790000000.0,21.9,0.0,0.0,0.0,0.75537,-0.9066402347686023,9.755260234768603
1795000000.0,21.9,0.0,0.0,0.0,0.7674364045971641,-0.9203742697314427,9.777038539462886
1800000000.0,21.9,0.0,0.0,0.0,0.7848,-0.920177895111479,9.784493860148638
1805000000.0,21.9,0.0,0.0,0.0,0.7809740649400407,-0.9063459350599593,9.76095
1810000000.0,21.9,0.0,0.0,0.0,0.7600786593716866,-0.91233,9.749766494528764
1815000000.0,21.9,0.0,0.0,0.0,0.7430094705083947,-0.9087002647458027,9.746038941016788
1820000000.0,21.9,0.0,0.0,0.0,0.75537,-0.90252,9.767228364648682
1825000000.0,21.9,0.0,0.0,0.0,0.7588035354484354,-0.8922193936546939,9.771250606345307
1830000000.0,21.9,0.0,0.0,0.0,0.7651800000000001,-0.8797608710911088,9.793715435545556
1835000000.0,21.9,0.0,0.0,0.0,0.7684173356426734,-0.8991846712853467,9.787240657429306
1840000000.0,21.9,0.0,0.0,0.0,0.7749900000000001,-0.9091907642602076,9.764089235739792
1845000000.0,21.9,0.0,0.0,0.0,0.7658665924892659,-0.9055611358369113,9.764677728326177
1850000000.0,21.9,0.0,0.0,0.0,0.7396739281319393,-0.9152730359340303,9.75408303593403
1855000000.0,21.9,0.0,0.0,0.0,0.7373197441245974,-0.9136051919065519,9.752415191906552
1860000000.0,21.9,0.0,0.0,0.0,0.7651800000000001,-0.8954568361282683,9.750747852897879
1865000000.0,21.9,0.0,0.0,0.0,0.7651800000000001,-0.90252,9.792243791323838
1870000000.0,21.9,0.0,0.0,0.0,0.7600787273549874,-0.90252,9.773310636322506
1875000000.0,21.9,0.0,0.0,0.0,0.7480125364196254,-0.9074250728392507,9.78057
1880000000.0,21.9,0.0,0.0,0.0,0.75537,-0.9197855634832556,9.775861126966511
1885000000.0,21.9,0.0,0.0,0.0,0.7576263366138634,-0.9100736633861366,9.763206336613862
1890000000.0,21.9,0.0,0.0,0.0,0.7651800000000001,-0.9003617632890176,9.768601763289016
1895000000.0,21.9,0.0,0.0,0.0,0.7631198631918987,-0.89271,9.767130410424304
1900000000.0,21.9,0.0,0.0,0.0,0.7592940738104408,-0.8907479630947797,9.78449388928434
1905000000.0,21.9,0.0,0.0,0.0,0.7712621259953213,-0.8922196850116969,9.768405748009357
1910000000.0,21.9,0.0,0.0,0.0,0.7500724887016249,-0.9266524887016249,9.794892488701626
1915000000.0,21.9,0.0,0.0,0.0,0.7276077371965775,-0.9058554743931547,9.767424525606845
1920000000.0,21.9,0.0,0.0,0.0,0.7420285491747856,-0.9205703627063035,9.754279274587391
1925000000.0,21.9,0.0,0.0,0.0,0.7749900000000001,-0.91233,9.769288462609184
1930000000.0,21.9,0.0,0.0,0.0,0.7736165625120657,-0.9109565625120656,9.763696874975869
1935000000.0,21.9,0.0,0.0,0.0,0.7651800000000001,-0.9037953375850534,9.781845337585054
1940000000.0,21.9,0.0,0.0,0.0,0.7628255246356553,-0.9099755246356552,9.785671049271311
1945000000.0,21.9,0.0,0.0,0.0,0.74556,-0.8948682755585827,9.747902586662125
1950000000.0,21.9,0.0,0.0,0.0,0.7445789621235896,-0.91233,9.72465311362923
1955000000.0,21.9,0.0,0.0,0.0,0.7383988139205881,-0.91233,9.752022937973528
1960000000.0,21.9,0.0,0.0,0.0,0.7667496761412969,-0.9107603238587032,9.764089352282593
1965000000.0,21.9,0.0,0.0,0.0,0.7827397854966979,-0.8940834763355348,9.800876738167767
1970000000.0,21.9,0.0,0.0,0.0,0.7565472765297727,-0.9111527234702272,9.805879532145795
1975000000.0,21.9,0.0,0.0,0.0,0.7740089232759892,-0.8936910767240108,9.74133
1980000000.0,21.9,0.0,0.0,0.0,0.75537,-0.9111526846226268,9.742114876918249
1985000000.0,21.9,0.0,0.0,0.0,0.75537,-0.8834886771124868,9.76183301566873
1990000000.0,21.9,0.0,0.0,0.0,0.7551737613466376,-0.9023237613466376,9.79038
1995000000.0,21.9,0.0,0.0,0.0,0.7457562775009627,-0.8928081387504814,9.789987444998076
2000000000.0,21.9,0.0,0.0,0.0,0.7651801165428013,-0.9025199611523996,9.7511401165428
2005000000.0,21.9,0.0,0.0,0.0,0.7943158168341582,-0.8928080610552807,9.780275816834159
2010000000.0,21.9,0.0,0.0,0.0,0.765768482874485,-0.8830961609581617,9.78057
2015000000.0,21.9,0.0,0.0,0.0,0.7461485217220852,-0.8924157391389574,9.799601478277916
2020000000.0,21.9,0.0,0.0,0.0,0.7361423607639236,-0.89271,9.753101803819618
2025000000.0,21.9,0.0,0.0,0.0,0.7450695393331954,-0.9113490786663908,9.75114
2030000000.0,21.9,0.0,0.0,0.0,0.7547814394303144,-0.9215514394303144,9.741918560569685
2035000000.0,21.9,0.0,0.0,0.0,0.7736166790548669,-0.9130166604725666,9.786946697637168
2040000000.0,21.9,0.0,0.0,0.0,0.7840152396245524,-0.91233,9.799405239624553
2045000000.0,21.9,0.0,0.0,0.0,0.7490914411133144,-0.8944757205566572,9.80019
2050000000.0,21.9,0.0,0.0,0.0,0.74556,-0.89271,9.729557681449677
2055000000.0,21.9,0.0,0.0,0.0,0.7368290600840907,-0.89271,9.747902819747727
2060000000.0,21.9,0.0,0.0,0.0,0.7616485200390852,-0.8840771599869717,9.75114
2065000000.0,21.9,0.0,0.0,0.0,0.7651800000000001,-0.8999694802202948,9.776744220330443
2070000000.0,21.9,0.0,0.0,0.0,0.7651800000000001,-0.8940833597927336,9.78057
2075000000.0,21.9,0.0,0.0,0.0,0.7651800000000001,-0.9010485403043854,9.772231459695615
2080000000.0,21.9,0.0,0.0,0.0,0.7651800000000001,-0.90252,9.762519559598495
2085000000.0,21.9,0.0,0.0,0.0,0.7733223404986235,-0.9188046809972468,9.76095
2090000000.0,21.9,0.0,0.0,0.0,0.7508572782127728,-0.9140957594042576,9.777038481191486
2095000000.0,21.9,0.0,0.0,0.0,0.74556,-0.8964377186142772,9.78057
2100000000.0,21.9,0.0,0.0,0.0,0.7691041223699413,-0.8848619592100196,9.78057
2105000000.0,21.9,0.0,0.0,0.0,0.7827399408870994,-0.8829,9.78057
2110000000.0,21.9,0.0,0.0,0.0,0.7771481590157816,-0.8982036819684368,9.742310795078907
2115000000.0,21.9,0.0,0.0,0.0,0.7598825178373252,-0.9100737410813374,9.75418122324401
2120000000.0,21.9,0.0,0.0,0.0,0.7702812823569128,-0.9272412823569127,9.768405641178456
2125000000.0,21.9,0.0,0.0,0.0,0.7529173761732738,-0.8878047523465475,9.785475082551152
2130000000.0,21.9,0.0,0.0,0.0,0.74556,-0.8803494413726944,9.783120558627306
2135000000.0,21.9,0.0,0.0,0.0,0.7527213414698134,-0.8972226829396268,9.766247317060373
2140000000.0,21.9,0.0,0.0,0.0,0.7694964831338649,-0.9095832415669324,9.775076483133866
2145000000.0,21.9,0.0,0.0,0.0,0.740164291679743,-0.91233,9.794500283328103
2150000000.0,21.9,0.0,0.0,0.0,0.7396740835223409,-0.9191970417611703,9.79332295823883
2155000000.0,21.9,0.0,0.0,0.0,0.7590978837165789,-0.9018331744251318,9.749766348850263
2160000000.0,21.9,0.0,0.0,0.0,0.7651800000000001,-0.8993808419554085,9.758203367821633
2165000000.0,21.9,0.0,0.0,0.0,0.7717527420525275,-0.9156654841050548,9.757614515894945
2170000000.0,21.9,0.0,0.0,0.0,0.7555660735510608,-0.9027160735510608,9.783513210748232
2175000000.0,21.9,0.0,0.0,0.0,0.7583130844935309,-0.8990865422467654,9.812943084493531
2180000000.0,21.9,0.0,0.0,0.0,0.7526231153122311,-0.9213553270316532,9.788417788280578
2185000000.0,21.9,0.0,0.0,0.0,0.7393796575589966,-0.9195893151179931,9.752218972676989
2190000000.0,21.9,0.0,0.0,0.0,0.7479144850762448,-0.91233,9.753494485076244
2195000000.0,21.9,0.0,0.0,0.0,0.75537,-0.91233,9.784886570540966
2200000000.0,21.9,0.0,0.0,0.0,0.7612560427323605,-0.91233,9.78841791453528
2205000000.0,21.9,0.0,0.0,0.0,0.7536041143410411,-0.8949661715115618,9.77478205717052
2210000000.0,21.9,0.0,0.0,0.0,0.7569396858531969,-0.8829,9.753690471220205
2215000000.0,21.9,0.0,0.0,0.0,0.7651800000000001,-0.9164504581423046,9.752513486047434
2220000000.0,21.9,0.0,0.0,0.0,0.7596863568791636,-0.9362663568791636,9.766443643120835
2225000000.0,21.9,0.0,0.0,0.0,0.75537,-0.9211589135640891,9.781551086435911
2230000000.0,21.9,0.0,0.0,0.0,0.7606674433150745,-0.9017351133698511,9.785082556684927
2235000000.0,21.9,0.0,0.0,0.0,0.7599806565878066,-0.9031086868243868,9.764971969763419
2240000000.0,21.9,0.0,0.0,0.0,0.75537,-0.9072287564906876,9.761342487018624
2245000000.0,21.9,0.0,0.0,0.0,0.7603731436064315,-0.8975168563935686,9.765756856393567
2250000000.0,21.9,0.0,0.0,0.0,0.7602749562964496,-0.9025200874071009,9.775665131110651
2255000000.0,21.9,0.0,0.0,0.0,0.75537,-0.9027161123986611,9.771152224797323
2260000000.0,21.9,0.0,0.0,0.0,0.7600788438977885,-0.89271,9.765266531693365
2265000000.0,21.9,0.0,0.0,0.0,0.7651800000000001,-0.89271,9.766737768015277
2270000000.0,21.9,0.0,0.0,0.0,0.7651800000000001,-0.9017352881840529,9.76467793227608
2275000000.0,21.9,0.0,0.0,0.0,0.7607654558108546,-0.91233,9.78057
2280000000.0,21.9,0.0,0.0,0.0,0.7381042228549423,-0.91233,9.78057
2285000000.0,21.9,0.0,0.0,0.0,0.7330033775335338,-0.91233,9.78057
2290000000.0,21.9,0.0,0.0,0.0,0.7594902444805025,-0.9082097555194976,9.764089022077991
2295000000.0,21.9,0.0,0.0,0.0,0.7490914216895143,-0.8944757108447571,9.757418578310485
2300000000.0,21.9,0.0,0.0,0.0,0.7337880893494809,-0.8868240446747404,9.77664595532526
2305000000.0,21.9,0.0,0.0,0.0,0.74556,-0.9003618895437189,9.759282165684422
2310000000.0,21.9,0.0,0.0,0.0,0.7567435346069353,-0.9086021551310215,9.752513534606935
2315000000.0,21.9,0.0,0.0,0.0,0.7604710201356103,-0.9061497449660975,9.774389744966097
2320000000.0,21.9,0.0,0.0,0.0,0.7428132901264329,-0.9087983549367835,9.777038354936783
2325000000.0,21.9,0.0,0.0,0.0,0.7519364548396645,-0.90252,9.774193545160335
2330000000.0,21.9,0.0,0.0,0.0,0.74556,-0.8991845547425455,9.773899109485091
2335000000.0,21.9,0.0,0.0,0.0,0.7423226546454266,-0.89271,9.76095
2340000000.0,21.9,0.0,0.0,0.0,0.7388892454516924,-0.9052669818067698,9.77350698180677
2345000000.0,21.9,0.0,0.0,0.0,0.7486011455488114,-0.925867708902377,9.791066563353565
2350000000.0,21.9,0.0,0.0,0.0,0.7641991369377914,-0.91233,9.77664609129186
2355000000.0,21.9,0.0,0.0,0.0,0.7848,-0.9094850542569505,9.784690108513901
2360000000.0,21.9,0.0,0.0,0.0,0.7793063083196632,-0.8997731541598315,9.762519462479494
2365000000.0,21.9,0.0,0.0,0.0,0.770477491874575,-0.8953587459372875,9.749276237811863
2370000000.0,21.9,0.0,0.0,0.0,0.7796987079311871,-0.8999693539655935,9.778411938103218
2375000000.0,21.9,0.0,0.0,0.0,0.770085092263051,-0.8951625461315255,9.797737453868475
2380000000.0,21.9,0.0,0.0,0.0,0.7777366613140666,-0.9095833386859333,9.785671107542711
2385000000.0,21.9,0.0,0.0,0.0,0.7531136536742365,-0.9296936536742365,9.768503653674236
2390000000.0,21.9,0.0,0.0,0.0,0.74556,-0.9156652607313526,9.763108246422881
2395000000.0,21.9,0.0,0.0,0.0,0.7496802930400029,-0.896830293040003,9.768699853479998
2400000000.0,21.9,0.0,0.0,0.0,0.7592938601486386,-0.9044818135315181,9.76683613985136
2405000000.0,21.9,0.0,0.0,0.0,0.7376139467142395,-0.8786818401427184,9.781060266428803
2410000000.0,21.9,0.0,0.0,0.0,0.749091693622717,-0.9060516936227169,9.750159234056792
2415000000.0,21.9,0.0,0.0,0.0,0.7635122530915226,-0.92214,9.792047746908478
2420000000.0,21.9,0.0,0.0,0.0,0.7538003529944035,-0.9205703529944035,9.795481058983212
2425000000.0,21.9,0.0,0.0,0.0,0.7499746413081464,-0.909386905794569,9.766345358691852
2430000000.0,21.9,0.0,0.0,0.0,0.7736165528001656,-0.8954568943996689,9.745450341599502
2435000000.0,21.9,0.0,0.0,0.0,0.7639046527030466,-0.9110546527030465,9.77076
2440000000.0,21.9,0.0,0.0,0.0,0.7565472473940724,-0.9036972473940724,9.77546898957629
2445000000.0,21.9,0.0,0.0,0.0,0.7651800000000001,-0.9112508525088086,9.81
2450000000.0,21.9,0.0,0.0,0.0,0.7632179048233791,-0.900557904823379,9.805094762058449
2455000000.0,21.9,0.0,0.0,0.0,0.74556,-0.8873147384271474,9.75830115694371
2460000000.0,21.9,0.0,0.0,0.0,0.747129695565097,-0.928810608869806,9.732304847782547
2465000000.0,21.9,0.0,0.0,0.0,0.7651800000000001,-0.8933967478796675,9.74407699151867
2470000000.0,21.9,0.0,0.0,0.0,0.7651800000000001,-0.9031086479767865,9.781747295953574
2475000000.0,21.9,0.0,0.0,0.0,0.7651800000000001,-0.91233,9.80019
2480000000.0,21.9,0.0,0.0,0.0,0.7647875518289756,-0.911545103657951,9.797835310973854
2485000000.0,21.9,0.0,0.0,0.0,0.7541926069274261,-0.89271,9.741918696536287
2490000000.0,21.9,0.0,0.0,0.0,0.7171112418263125,-0.89271,9.761538745095788
2495000000.0,21.9,0.0,0.0,0.0,0.7650818515376187,-0.89271,9.790478148462382
2500000000.0,21.9,0.0,0.0,0.0,0.7553701456785015,-0.8927099514404995,9.800189902881
2505000000.0,21.9,0.0,0.0,0.0,0.7845058459698585,-0.8829980513433805,9.780766102686762
2510000000.0,21.9,0.0,0.0,0.0,0.7751861512462616,-0.8829,9.742114604985046
2515000000.0,21.9,0.0,0.0,0.0,0.755958502298285,-0.901931497701715,9.760361497701714
2520000000.0,21.9,0.0,0.0,0.0,0.7647876489479766,-0.9213552978959529,9.779785297895954
2525000000.0,21.9,0.0,0.0,0.0,0.746540901909809,-0.903500901909809,9.808528647135287
2530000000.0,21.9,0.0,0.0,0.0,0.74556,-0.8932985508577855,9.773114203431142
2535000000.0,21.9,0.0,0.0,0.0,0.7546833492393334,-0.89271,9.743389952282
2540000000.0,21.9,0.0,0.0,0.0,0.7734204986729051,-0.92881099734581,9.723279501327095
2545000000.0,21.9,0.0,0.0,0.0,0.7660628505664285,-0.9230228505664284,9.784200046035002
2550000000.0,21.9,0.0,0.0,0.0,0.7651800000000001,-0.904481900938619,9.79038
2555000000.0,21.9,0.0,0.0,0.0,0.747718100744381,-0.8850581007443811,9.807841899255619
2560000000.0,21.9,0.0,0.0,0.0,0.7541928497249285,-0.900165699449857,9.775468601100286
2565000000.0,21.9,0.0,0.0,0.0,0.7639047498220476,-0.9110547498220475,9.728086250889762
2570000000.0,21.9,0.0,0.0,0.0,0.7398700502425005,-0.91233,9.755456599676666
2575000000.0,21.9,0.0,0.0,0.0,0.7607656500488565,-0.91233,9.802642750081429
2580000000.0,21.9,0.0,0.0,0.0,0.798141800453618,-0.9040895498865955,9.801759549886595
2585000000.0,21.9,0.0,0.0,0.0,0.7637082489473825,-0.90252,9.767620599157906
2590000000.0,21.9,0.0,0.0,0.0,0.7634142503076425,-0.90252,9.744861499384715
2595000000.0,21.9,0.0,0.0,0.0,0.7731261504047616,-0.9104661504047615,9.765168451214285
2600000000.0,21.9,0.0,0.0,0.0,0.759293898996239,-0.9044819494981194,9.77076
2605000000.0,21.9,0.0,0.0,0.0,0.7631199505989996,-0.887020098802001,9.801759802395999
2610000000.0,21.9,0.0,0.0,0.0,0.7651800000000001,-0.8752481493038815,9.787044447911645
2615000000.0,21.9,0.0,0.0,0.0,0.7576262492067625,-0.8957512523797125,9.765462498413525
2620000000.0,21.9,0.0,0.0,0.0,0.75537,-0.9099756508903565,9.746038698219287
2625000000.0,21.9,0.0,0.0,0.0,0.75537,-0.9270451019749509,9.778117754937378
2630000000.0,21.9,0.0,0.0,0.0,0.7408510978308109,-0.8956527445770275,9.783120548915406
2635000000.0,21.9,0.0,0.0,0.0,0.750072702363427,-0.8757386488182866,9.773408648818286
2640000000.0,21.9,0.0,0.0,0.0,0.7624332512788325,-0.887216502557665,9.763696748721166
2645000000.0,21.9,0.0,0.0,0.0,0.7582148486240485,-0.8996751513759516,9.753984848624048
2650000000.0,21.9,0.0,0.0,0.0,0.7622370514730705,-0.9231211544192115,9.771741154419212
2655000000.0,21.9,0.0,0.0,0.0,0.7584110484298106,-0.9048741937192419,9.78733895157019
2660000000.0,21.9,0.0,0.0,0.0,0.7486991483326915,-0.8993808516673085,9.79705085166731
2665000000.0,21.9,0.0,0.0,0.0,0.7652782552932826,-0.90252,9.77389899294229
2670000000.0,21.9,0.0,0.0,0.0,0.7749900000000001,-0.90252,9.748000696276906
2675000000.0,21.9,0.0,0.0,0.0,0.7749900000000001,-0.915273103917331,9.754083103917331
2680000000.0,21.9,0.0,0.0,0.0,0.7749900000000001,-0.9095830958884309,9.779785356167354
2685000000.0,21.9,0.0,0.0,0.0,0.7749900000000001,-0.914880704305807,9.802740704305808
2690000000.0,21.9,0.0,0.0,0.0,0.7628254954999549,-0.9099754954999549,9.773506486499866
2695000000.0,21.9,0.0,0.0,0.0,0.7374175429585754,-0.9204724570414246,9.75712415234714
2700000000.0,21.9,0.0,0.0,0.0,0.737712104888521,-0.9142918426672184,9.76683605244426
2705000000.0,21.9,0.0,0.0,0.0,0.7397720474586205,-0.90252,9.782335905082759
2710000000.0,21.9,0.0,0.0,0.0,0.73575,-0.8854504420845044,9.79038
2715000000.0,21.9,0.0,0.0,0.0,0.7525252582068527,-0.8898652582068526,9.76801298905753
2720000000.0,21.9,0.0,0.0,0.0,0.7596863471672635,-0.9080136528327365,9.745646347167263
2725000000.0,21.9,0.0,0.0,0.0,0.744578894140289,-0.9069344470701445,9.752121105859711
2730000000.0,21.9,0.0,0.0,0.0,0.7463449060539491,-0.9131149060539491,9.76095
2735000000.0,21.9,0.0,0.0,0.0,0.7709680593722806,-0.92214,9.771348706248187
2740000000.0,21.9,0.0,0.0,0.0,0.7592937338939374,-0.9017349871151499,9.78057
2745000000.0,21.9,0.0,0.0,0.0,0.7507594599549946,-0.8979094599549946,9.765560540045005
2750000000.0,21.9,0.0,0.0,0.0,0.7651800000000001,-0.91233,9.7609501068309
2755000000.0,21.9,0.0,0.0,0.0,0.7651800000000001,-0.9171369535125695,9.76114609297486
2760000000.0,21.9,0.0,0.0,0.0,0.7416357319515574,-0.9174311463903114,9.760557707219377
2765000000.0,21.9,0.0,0.0,0.0,0.7253515074136151,-0.9077192462931924,9.77076
2770000000.0,21.9,0.0,0.0,0.0,0.7492879614117797,-0.9070326538039265,9.775272653803926
2775000000.0,21.9,0.0,0.0,0.0,0.7651800000000001,-0.9035008921979089,9.776155446098954
2780000000.0,21.9,0.0,0.0,0.0,0.7651800000000001,-0.89271,9.77076
2785000000.0,21.9,0.0,0.0,0.0,0.7609616459047165,-0.9053650622858506,9.774978354095284
2790000000.0,21.9,0.0,0.0,0.0,0.7512497458075974,-0.9097792374227923,9.768209237422793
2795000000.0,21.9,0.0,0.0,0.0,0.7495821542895216,-0.9047764628685646,9.759184308579043
2800000000.0,21.9,0.0,0.0,0.0,0.7592940543866405,-0.9182159456133594,9.77076
2805000000.0,21.9,0.0,0.0,0.0,0.7613540455162405,-0.9008521365487213,9.76693404551624
2810000000.0,21.9,0.0,0.0,0.0,0.7590978545808785,-0.8866278545808786,9.76095
2815000000.0,21.9,0.0,0.0,0.0,0.7651800000000001,-0.8890802453220025,9.764579754677996
2820000000.0,21.9,0.0,0.0,0.0,0.7687116547751166,-0.9005582738755827,9.767228345224883
2825000000.0,21.9,0.0,0.0,0.0,0.7715564451277646,-0.9353835548722356,9.774684219488941
2830000000.0,21.9,0.0,0.0,0.0,0.758509090061291,-0.9284181801225818,9.803525454969355
2835000000.0,21.9,0.0,0.0,0.0,0.74556,-0.8992826449335265,9.79057586960116
2840000000.0,21.9,0.0,0.0,0.0,0.74556,-0.89271,9.754279255163592
2845000000.0,21.9,0.0,0.0,0.0,0.7516423105214232,-0.898792310521423,9.770073465782135
2850000000.0,21.9,0.0,0.0,0.0,0.7622369446421695,-0.9064438892843388,9.79038
2855000000.0,21.9,0.0,0.0,0.0,0.7582149554549495,-0.8983999109098991,9.79038
2860000000.0,21.9,0.0,0.0,0.0,0.759686288895863,-0.91233,9.779392577791727
2865000000.0,21.9,0.0,0.0,0.0,0.7535062669475627,-0.91233,9.756437511298374
2870000000.0,21.9,0.0,0.0,0.0,0.7698886885073869,-0.9072286885073869,9.773310655746306
2875000000.0,21.9,0.0,0.0,0.0,0.75537,-0.89271,9.787927667530278
2880000000.0,21.9,0.0,0.0,0.0,0.75537,-0.89271,9.802936632178367
2885000000.0,21.9,0.0,0.0,0.0,0.7531136439623364,-0.8949663560376636,9.776057287924674
2890000000.0,21.9,0.0,0.0,0.0,0.7520347684043477,-0.9089947684043477,9.756633487730435
2895000000.0,21.9,0.0,0.0,0.0,0.7688095313042954,-0.9298898437680984,9.75575109362331
2900000000.0,21.9,0.0,0.0,0.0,0.7494841126580412,-0.9241020563290205,9.80803794367098
2905000000.0,21.9,0.0,0.0,0.0,0.7651800000000001,-0.9226302178693021,9.796462087147722
2910000000.0,21.9,0.0,0.0,0.0,0.7598824304302244,-0.8811341434767415,9.78057
2915000000.0,21.9,0.0,0.0,0.0,0.7390855132407551,-0.8830965397222654,9.778902243379623
2920000000.0,21.9,0.0,0.0,0.0,0.7522306865650068,-0.9288106865650068,9.773899313434992
2925000000.0,21.9,0.0,0.0,0.0,0.7386931136292312,-0.91233,9.78743688637077
2930000000.0,21.9,0.0,0.0,0.0,0.7539965430882655,-0.9095830861765308,9.773506913823468
2935000000.0,21.9,0.0,0.0,0.0,0.7468353570088536,-0.8939853570088536,9.78655392897344
2940000000.0,21.9,0.0,0.0,0.0,0.75537,-0.90252,9.757418228682083
2945000000.0,21.9,0.0,0.0,0.0,0.7586074716092747,-0.90252,9.734757471609274
2950000000.0,21.9,0.0,0.0,0.0,0.7818568280993683,-0.9035010573002106,9.763893171900632
2955000000.0,21.9,0.0,0.0,0.0,0.7571359147946591,-0.9132129573973295,9.79038
2960000000.0,21.9,0.0,0.0,0.0,0.7734202850111029,-0.9213551425055514,9.788810285011104
2965000000.0,21.9,0.0,0.0,0.0,0.7560567575915675,-0.9130167575915675,9.770073242408431
2970000000.0,21.9,0.0,0.0,0.0,0.7645913423113135,-0.9209626846226268,9.759772684622627
2975000000.0,21.9,0.0,0.0,0.0,0.7558605577858055,-0.90252,9.743292231143222
2980000000.0,21.9,0.0,0.0,0.0,0.7651800000000001,-0.9033049157658491,9.780962457882925
2985000000.0,21.9,0.0,0.0,0.0,0.7648856420199565,-0.9215512840399128,9.790968715960087
2990000000.0,21.9,0.0,0.0,0.0,0.7557625161543251,-0.90252,9.80921496769135
2995000000.0,21.9,0.0,0.0,0.0,0.7748918418257185,-0.90252,9.770661841825717
3000000000.0,21.9,0.0,0.0,0.0,0.7651799417285995,-0.9025200582714006,9.76095
3005000000.0,21.9,0.0,0.0,0.0,0.7554680416314804,-0.9122319583685196,9.76095
3010000000.0,21.9,0.0,0.0,0.0,0.7649838584656387,-0.9219438584656385,9.780177716931277
3015000000.0,21.9,0.0,0.0,0.0,0.7651800000000001,-0.8840769657489697,9.790085758562759
3020000000.0,21.9,0.0,0.0,0.0,0.7651800000000001,-0.8734823413401235,9.76212702402037
3025000000.0,21.9,0.0,0.0,0.0,0.7651800000000001,-0.9010486762709867,9.751630441243003
3030000000.0,21.9,0.0,0.0,0.0,0.7375156234376563,-0.9394058354164584,9.76958291770823
3035000000.0,21.9,0.0,0.0,0.0,0.7448733589512336,-0.9143899231462992,9.7981300768537
3040000000.0,21.9,0.0,0.0,0.0,0.7726357771450578,-0.9033047409516474,9.791164740951649
3045000000.0,21.9,0.0,0.0,0.0,0.7303542042726421,-0.8935928408545284,9.754671363418113
3050000000.0,21.9,0.0,0.0,0.0,0.7524271777277718,-0.89271,9.724652822272228
3055000000.0,21.9,0.0,0.0,0.0,0.75537,-0.9101719186794192,9.756633837358837
3060000000.0,21.9,0.0,0.0,0.0,0.7726357188736572,-0.9209628594368285,9.786848578310487
3065000000.0,21.9,0.0,0.0,0.0,0.7579204809321048,-0.9050704809321048,9.781845240466053
3070000000.0,21.9,0.0,0.0,0.0,0.7384966807378668,-0.8856466807378668,9.772133340368933
3075000000.0,21.9,0.0,0.0,0.0,0.7440885597281856,-0.8995771194563712,9.745744320815442
3080000000.0,21.9,0.0,0.0,0.0,0.7620409196506093,-0.8942795401746954,9.74133
3085000000.0,21.9,0.0,0.0,0.0,0.7733223599224237,-0.9089947198448471,9.782041799612118
3090000000.0,21.9,0.0,0.0,0.0,0.7508572199413722,-0.9042857399804574,9.798424260019543
3095000000.0,21.9,0.0,0.0,0.0,0.7535061601166616,-0.8945738398833384,9.80019
3100000000.0,21.9,0.0,0.0,0.0,0.7632180602137807,-0.9084061204275612,9.768797759144878
3105000000.0,21.9,0.0,0.0,0.0,0.7496800793782008,-0.9045800396891004,9.7532000396891
3110000000.0,21.9,0.0,0.0,0.0,0.7761674416320744,-0.9101718604080186,9.75114
3115000000.0,21.9,0.0,0.0,0.0,0.7772462394948625,-0.91233,9.78135504202055
3120000000.0,21.9,0.0,0.0,0.0,0.7675343393977435,-0.9048743393977434,9.797835660602257
3125000000.0,21.9,0.0,0.0,0.0,0.7651800000000001,-0.90252,9.778117317901872
3130000000.0,21.9,0.0,0.0,0.0,0.7796989215929893,-0.8952605392035053,9.77076
3135000000.0,21.9,0.0,0.0,0.0,0.7633159173191592,-0.8855486391063864,9.77076
3140000000.0,21.9,0.0,0.0,0.0,0.7624332609907327,-0.9040897829721978,9.77076
3145000000.0,21.9,0.0,0.0,0.0,0.7582148389121484,-0.9053648389121484,9.756829677824296
3150000000.0,21.9,0.0,0.0,0.0,0.7759711835549119,-0.8956529388150294,9.76487412236994
3155000000.0,21.9,0.0,0.0,0.0,0.7441862323074624,-0.8994789612820896,9.77752896128209
3160000000.0,21.9,0.0,0.0,0.0,0.7392817227584172,-0.9091908613792086,9.78057
3165000000.0,21.9,0.0,0.0,0.0,0.7587055229526553,-0.8991844770473447,9.767424477047344
3170000000.0,21.9,0.0,0.0,0.0,0.7587053384265534,-0.8991846615734466,9.773899323146894
3175000000.0,21.9,0.0,0.0,0.0,0.7489934383294343,-0.9088965616705657,9.78057
3180000000.0,21.9,0.0,0.0,0.0,0.7518384617676847,-0.9186084617676846,9.786848461767685
3185000000.0,21.9,0.0,0.0,0.0,0.7430092762703928,-0.9035989144055891,9.796560361864804
3190000000.0,21.9,0.0,0.0,0.0,0.7600790478476905,-0.9048745239238453,9.781943214114232
3195000000.0,21.9,0.0,0.0,0.0,0.7690058379409584,-0.91233,9.782728324118084
3200000000.0,21.9,0.0,0.0,0.0,0.7592939378438394,-0.9005578756876788,9.78449393784384
3205000000.0,21.9,0.0,0.0,0.0,0.7669459245065593,-0.9042859245065592,9.78635796225328
3210000000.0,21.9,0.0,0.0,0.0,0.7522305505984055,-0.9066401376496014,9.779000275299202
3215000000.0,21.9,0.0,0.0,0.0,0.7413417624475176,-0.90252,9.77076
3220000000.0,21.9,0.0,0.0,0.0,0.7510536625446366,-0.8915326749107267,9.765266337455362
3225000000.0,21.9,0.0,0.0,0.0,0.7607655626417557,-0.8936911252835112,9.782532250567023
3230000000.0,21.9,0.0,0.0,0.0,0.7545850745222508,-0.9078174627388746,9.794892537261125
3235000000.0,21.9,0.0,0.0,0.0,0.7507593628359936,-0.9019312743280128,9.785180637164007
3240000000.0,21.9,0.0,0.0,0.0,0.7706737887993379,-0.89271,9.790772525866226
3245000000.0,21.9,0.0,0.0,0.0,0.7747936739395368,-0.9077194890906949,9.775174184848842
3250000000.0,21.9,0.0,0.0,0.0,0.7602749368726494,-0.9123298737452987,9.75604506312735
3255000000.0,21.9,0.0,0.0,0.0,0.7649839264489393,-0.9073269632244696,9.765756963224469
3260000000.0,21.9,0.0,0.0,0.0,0.7749900000000001,-0.9170388633215886,9.775468863321588
3265000000.0,21.9,0.0,0.0,0.0,0.7703792365812925,-0.92214,9.785180763418708
3270000000.0,21.9,0.0,0.0,0.0,0.7561546729683468,-0.8950640189050402,9.79038
3275000000.0,21.9,0.0,0.0,0.0,0.7543891272258914,-0.876523690838837,9.777136309161163
3280000000.0,21.9,0.0,0.0,0.0,0.7565470725798707,-0.9099758548402586,9.76095
3285000000.0,21.9,0.0,0.0,0.0,0.74556,-0.9277316361928163,9.782041819035918
3290000000.0,21.9,0.0,0.0,0.0,0.7620410556172106,-0.909779208287092,9.801759472191396
3295000000.0,21.9,0.0,0.0,0.0,0.7727335079957351,-0.8967321640014216,9.78635783599858
3300000000.0,21.9,0.0,0.0,0.0,0.7592940640985406,-0.90252,9.768797807704379
3305000000.0,21.9,0.0,0.0,0.0,0.7613540358043404,-0.9178238567826386,9.754965964195659
3310000000.0,21.9,0.0,0.0,0.0,0.7590978642927787,-0.9305764071216641,9.764677864292779
3315000000.0,21.9,0.0,0.0,0.0,0.7470311780505119,-0.9087002356101024,9.77076
3320000000.0,21.9,0.0,0.0,0.0,0.7231933289740333,-0.8989883355129833,9.77076
3325000000.0,21.9,0.0,0.0,0.0,0.7391835645841357,-0.8961435645841357,9.760459306247592
3330000000.0,21.9,0.0,0.0,0.0,0.7488954646812547,-0.9091909293625092,9.754671858725018
3335000000.0,21.9,0.0,0.0,0.0,0.7586073647783736,-0.9189026352216263,9.783807364778374
3340000000.0,21.9,0.0,0.0,0.0,0.7589014702490148,-0.9060514702490147,9.793519264875494
3345000000.0,21.9,0.0,0.0,0.0,0.7486011649726116,-0.8896688350273884,9.788025340109554
3350000000.0,21.9,0.0,0.0,0.0,0.75537,-0.8946722602789225,9.758006934930268
3355000000.0,21.9,0.0,0.0,0.0,0.7525250348331504,-0.9164500696663007,9.762519860667398
3360000000.0,21.9,0.0,0.0,0.0,0.7428131347360314,-0.8997731347360314,9.798620595791906
3365000000.0,21.9,0.0,0.0,0.0,0.7383987653610876,-0.8900612346389124,9.80921493855565
3370000000.0,21.9,0.0,0.0,0.0,0.7557626618328266,-0.8880013309164133,9.76526600725076
3375000000.0,21.9,0.0,0.0,0.0,0.7798948688893488,-0.9074251311106513,9.729067696665977
3380000000.0,21.9,0.0,0.0,0.0,0.7581166030426661,-0.9244944656524446,9.753494465652444
3385000000.0,21.9,0.0,0.0,0.0,0.7402627314991274,-0.9251809027513089,9.776744560246945
3390000000.0,21.9,0.0,0.0,0.0,0.75537,-0.8982034683066347,9.823145202459953
3395000000.0,21.9,0.0,0.0,0.0,0.7533098340561983,-0.8829,9.78782900433719
3400000000.0,21.9,0.0,0.0,0.0,0.7494841320818414,-0.8887861981227619,9.74133
3405000000.0,21.9,0.0,0.0,0.0,0.7595881015858811,-0.9160579322760793,9.748785864552158
3410000000.0,21.9,0.0,0.0,0.0,0.741047598705476,-0.9301841337648413,9.789399331175794
3415000000.0,21.9,0.0,0.0,0.0,0.7635122336677224,-0.912133402006334,9.819613402006334
3420000000.0,21.9,0.0,0.0,0.0,0.7538003335706033,-0.8679889992881901,9.769190333570602
3425000000.0,21.9,0.0,0.0,0.0,0.7470315665265157,-0.8956531330530313,9.756535300420452
3430000000.0,21.9,0.0,0.0,0.0,0.7539965333763653,-0.9150769332472694,9.738387333118173
3435000000.0,21.9,0.0,0.0,0.0,0.749386100162261,-0.9306746332792463,9.781845366720754
3440000000.0,21.9,0.0,0.0,0.0,0.7738127331821274,-0.9197854663642546,9.792734533635747
3445000000.0,21.9,0.0,0.0,0.0,0.7630216661700168,-0.899282499255025,9.801366664680067
3450000000.0,21.9,0.0,0.0,0.0,0.7465410670121106,-0.8750521340242213,9.734463201036332
3455000000.0,21.9,0.0,0.0,0.0,0.7544870328907703,-0.8944759342184594,9.76095
3460000000.0,21.9,0.0,0.0,0.0,0.7471297344126974,-0.9115451327936513,9.762519734412697
3465000000.0,21.9,0.0,0.0,0.0,0.7644932326965324,-0.9011464653930646,9.781256767303468
3470000000.0,21.9,0.0,0.0,0.0,0.7559586674005867,-0.8846660022017601,9.78861399779824
3475000000.0,21.9,0.0,0.0,0.0,0.7646894325022944,-0.9128205674977057,9.761440567497704
3480000000.0,21.9,0.0,0.0,0.0,0.7561549351896494,-0.9225324675948247,9.77076
3485000000.0,21.9,0.0,0.0,0.0,0.7746956323080564,-0.9313612646161126,9.770465632308056
3490000000.0,21.9,0.0,0.0,0.0,0.7647874644218747,-0.9119374644218746,9.761538803367188
3495000000.0,21.9,0.0,0.0,0.0,0.7459526715447267,-0.8928081678861817,9.79028183211382
3500000000.0,21.9,0.0,0.0,0.0,0.7848,-0.9025197960500979,9.78057
3505000000.0,21.9,0.0,0.0,0.0,0.7848,-0.873384095758741,9.78057
3510000000.0,21.9,0.0,0.0,0.0,0.755958395467384,-0.901931604532616,9.77095613182246
3515000000.0,21.9,0.0,0.0,0.0,0.7268226951760269,-0.9215515365493153,9.780275768274658
3520000000.0,21.9,0.0,0.0,0.0,0.7730283418588835,-0.8938869948846699,9.75231699488467
3525000000.0,21.9,0.0,0.0,0.0,0.7563508630622087,-0.9113491369377913,9.76977913693779
3530000000.0,21.9,0.0,0.0,0.0,0.75537,-0.9307729371320294,9.77076
3535000000.0,21.9,0.0,0.0,0.0,0.7644933686631338,-0.8954565253474652,9.779883368663134
3540000000.0,21.9,0.0,0.0,0.0,0.7561547312397473,-0.9107605375205053,9.78057
3545000000.0,21.9,0.0,0.0,0.0,0.75537,-0.91233,9.789497168857373
3550000000.0,21.9,0.0,0.0,0.0,0.75537,-0.91233,9.763892793136527
3555000000.0,21.9,0.0,0.0,0.0,0.75537,-0.91233,9.74348806189678
3560000000.0,21.9,0.0,0.0,0.0,0.7467371308512714,-0.9036971308512713,9.784494345743644
3565000000.0,21.9,0.0,0.0,0.0,0.7540947692458477,-0.8854504615083046,9.781845230754152
3570000000.0,21.9,0.0,0.0,0.0,0.7806800080289001,-0.8997733386859333,9.797443338685934
3575000000.0,21.9,0.0,0.0,0.0,0.7848,-0.90252,9.75849715279957
3580000000.0,21.9,0.0,0.0,0.0,0.7683190609255907,-0.9107604695372047,9.78410187814882
3585000000.0,21.9,0.0,0.0,0.0,0.7651800000000001,-0.9286147392686473,9.782237630365676
3590000000.0,21.9,0.0,0.0,0.0,0.7571357302685573,-0.9158614605371146,9.764481460537114
3595000000.0,21.9,0.0,0.0,0.0,0.7633161698285618,-0.8884914905143149,9.76095
3600000000.0,21.9,0.0,0.0,0.0,0.7573319300743193,-0.8985961398513614,9.76879806992568
3605000000.0,21.9,0.0,0.0,0.0,0.7631199700227997,-0.90252,9.7862599400456
3610000000.0,21.9,0.0,0.0,0.0,0.7575281298800813,-0.9101718701199186,9.79803187011992
3615000000.0,21.9,0.0,0.0,0.0,0.7629237702170377,-0.91233,9.792636229782962
3620000000.0,21.9,0.0,0.0,0.0,0.7726356703141568,-0.9048743296858432,9.76801298905753
3625000000.0,21.9,0.0,0.0,0.0,0.7602748591774486,-0.9098775704112757,9.746234859177449
3630000000.0,21.9,0.0,0.0,0.0,0.7626294705083948,-0.9195894705083947,9.78488682305037
3635000000.0,21.9,0.0,0.0,0.0,0.7723413706055138,-0.9149786293944863,9.80019
3640000000.0,21.9,0.0,0.0,0.0,0.7538001878921019,-0.8911401878921019,9.793126729297368
3645000000.0,21.9,0.0,0.0,0.0,0.7525251707997517,-0.8968303415995034,9.776449658400496
3650000000.0,21.9,0.0,0.0,0.0,0.75537,-0.90252,9.77076
3655000000.0,21.9,0.0,0.0,0.0,0.7486010290060103,-0.9160579419879794,9.77076
3660000000.0,21.9,0.0,0.0,0.0,0.74556,-0.9288108710911087,9.77076
3665000000.0,21.9,0.0,0.0,0.0,0.7652783135646832,-0.9122316864353168,9.764187228811771
3670000000.0,21.9,0.0,0.0,0.0,0.7620406574293066,-0.8960453287146533,9.79979802771208
3675000000.0,21.9,0.0,0.0,0.0,0.7744997141473972,-0.9054631427649315,9.794303714470137
3680000000.0,21.9,0.0,0.0,0.0,0.7534076426020765,-0.9186084714795847,9.76801305704083
3685000000.0,21.9,0.0,0.0,0.0,0.7481107431534074,-0.9035988852698889,9.76095
3690000000.0,21.9,0.0,0.0,0.0,0.7614522716738228,-0.9048745433476454,9.754867728326177
3695000000.0,21.9,0.0,0.0,0.0,0.7591958282290583,-0.9063458282290583,9.75114
3700000000.0,21.9,0.0,0.0,0.0,0.7671421437361214,-0.9142921437361214,9.76291214373612
3705000000.0,21.9,0.0,0.0,0.0,0.7634140560696405,-0.8989881121392811,9.78812391589554
3710000000.0,21.9,0.0,0.0,0.0,0.7610598720622987,-0.8829,9.794500127937702
3715000000.0,21.9,0.0,0.0,0.0,0.7595882278405823,-0.8884917721594178,9.779196455681165
3720000000.0,21.9,0.0,0.0,0.0,0.7388889832303899,-0.8982036722565367,9.77076
3725000000.0,21.9,0.0,0.0,0.0,0.72594,-0.9241022894146229,9.792342289414623
3730000000.0,21.9,0.0,0.0,0.0,0.7524273622538736,-0.9523549449015495,9.81
3735000000.0,21.9,0.0,0.0,0.0,0.7749900000000001,-0.9353831372605313,9.841196235287363
3740000000.0,21.9,0.0,0.0,0.0,0.7647874547099746,-0.9174312726450127,9.84845490941995
3745000000.0,21.9,0.0,0.0,0.0,0.7503668272578683,-0.9321463454842634,9.819613654515736
3750000000.0,21.9,0.0,0.0,0.0,0.7504650728392507,-0.9515701456785015,9.824715218517753
3755000000.0,21.9,0.0,0.0,0.0,0.75537,-0.9469590811908908,9.825009081190892
3760000000.0,21.9,0.0,0.0,0.0,0.7459522539330226,-0.9272411269665112,9.819417746066978
3765000000.0,21.9,0.005504332165194457,0.000500393833199479,0.0,0.7541930925224309,-0.9175292268693922,9.81117690747757
3770000000.0,21.9,0.00926242260437002,0.0015543981790188575,0.0,0.7704773267722733,-0.9033046535445465,9.808430692910907
3775000000.0,21.9,0.005908804224893964,0.0006919991752172923,0.0,0.7563508533503086,-0.8882954266751543,9.811961706700618
3780000000.0,21.9,0.006728617237107087,-0.00012774216470027124,0.0,0.74556,-0.8915329468439295,9.786063526578037
3785000000.0,21.9,0.0066859753832882425,0.0006068430021055071,0.0,0.74556,-0.8940832529618326,9.78057
3790000000.0,21.9,0.005152926062293884,-0.0008943226874277426,0.0,0.7496802736162027,-0.8911405472324054,9.76408890553519
3795000000.0,21.9,0.0063879050622992,-0.0016927868416162502,0.0,0.7513478262866783,-0.8944756525733565,9.737307826286678
3800000000.0,21.9,0.0063879050622992,-0.0010646508437165,0.0,0.7534081476208815,-0.8868240738104407,9.739368147620882
3805000000.0,21.9,0.0063879050622992,-0.00023420714367148666,0.0,0.7651800000000001,-0.8888840260924402,9.76261792172268
3810000000.0,21.9,0.0063879050622992,0.0014692261958418852,0.0,0.7577242519906425,-0.8903557480093575,9.784297874004679
3815000000.0,21.9,0.005206118499614372,0.0025232305416613005,0.0,0.7419302258982022,-0.917039096407191,9.783120451796405
3820000000.0,21.9,0.0024273878184872797,0.002044105462156138,0.0,0.7428133483978335,-0.9594183709945837,9.77076
3825000000.0,21.9,0.0014372867021505205,0.0011179075753020963,0.0,0.7382021285198213,-0.99081,9.805095742960356
3830000000.0,21.9,0.008289055068372622,0.002107984449538869,0.0,0.7196618975726189,-0.9374424097095241,9.908885692717856
3835000000.0,21.9,0.021651190773693343,-0.002810742901118318,0.0,0.7390852510194525,-0.8111883785680839,9.921832510194525
3840000000.0,21.9,0.020410481134781028,-0.009539295843960299,0.0,0.7416363729369637,-0.790294196699142,9.787240725412609
3845000000.0,21.9,0.00676041127819873,-0.009730860079808633,0.0,0.7901958734225588,-0.8984011443212114,9.817064096214141
3850000000.0,21.9,-0.0052168134817113685,-0.004045640742788989,0.0,0.8299261495632616,-1.055556897379569,9.89534692521837
3855000000.0,21.9,-0.0046737440665540215,0.0032579453510017233,0.0,0.8351250753637508,-1.129425075363751,9.916929748787497
3860000000.0,21.9,0.007202065086351708,0.013542350595160802,0.0,0.7867612502413126,-1.0838081252171812,9.959111250241312
3865000000.0,21.9,0.02340792195096184,0.011051026873056057,0.0,0.7028861246350613,-0.9858059240511593,9.814314297956342
3870000000.0,21.9,0.03306424811345586,0.004727000798139588,0.0,0.6645293248298934,-0.882507299319573,9.624002700680427
3875000000.0,21.9,0.03568324021995666,-0.001863196156239686,0.0,0.6695328763361288,-0.8363019731294197,9.702091505344516
3880000000.0,21.9,0.029482652498978752,-0.009241226576975558,0.0,0.7039655246356552,-0.8036358029147581,9.90339293337993
3885000000.0,21.9,0.01613351562190992,-0.01686814927291563,0.0,0.7506630110751301,-0.86328,10.020716988924871
3890000000.0,21.9,0.017899665606636556,-0.0178143787369859,0.0,0.9038924177384241,-0.8848627555858276,9.841588275558584
3895000000.0,21.9,0.010476197144946117,0.001234962135935724,0.0,0.8353226348355264,-0.9675605269671053,9.871901932212719
3900000000.0,21.9,0.014908643711479333,0.0027717720753210255,0.0,0.8966318789210188,-0.9594167879548678,9.953225848494359
3905000000.0,21.9,0.02100179550813836,0.018730550692599886,0.0,0.6955297584993977,-0.8636736135990362,9.812643618054036
3910000000.0,21.9,0.026846572131036885,0.007796583719314167,0.0,0.7696923721588238,-1.0031711316294112,9.33853390625294
3915000000.0,21.9,0.02010750549484533,0.02840102828029482,0.0,0.7222111353815114,-1.0428022395582224,9.73074097935751
3920000000.0,21.9,0.03374857474179218,0.022031416966669378,0.0,0.5956625908696259,-0.9095806873372069,10.327574534021846
3925000000.0,21.9,0.05209359887818481,-0.004687214224814789,0.0,0.5209105425695054,-0.6332352712847528,10.140102764317628
3930000000.0,21.9,0.035978724653595154,-0.024996928777365934,0.0,0.5065903847239038,-0.6617855770858557,9.632629703841497
3935000000.0,21.9,0.011860027908689771,-0.05684217428134541,0.0,0.7667520458449205,-1.023969787248998,9.087693445200037
3940000000.0,21.9,-0.005448718455267764,-0.027823839465835064,0.0,1.050455488767955,-1.2411608938809089,9.616553993798641
3945000000.0,21.9,0.020918743784293762,-0.0026275763153046166,0.0,1.1184374103579744,-1.1591462284167624,10.450692709164727
3950000000.0,21.9,0.053906372503246085,0.020139429178471478,0.0,1.0163141586237416,-0.7494820051757201,10.55653493880315
3955000000.0,21.9,0.06712901933821999,0.027708930028669,0.0,0.7885264172196642,-0.5331746523169465,9.760156596033466
3960000000.0,21.9,0.04206416179503571,0.01832957302016073,0.0,0.6278400000000001,-0.7039692151576923,8.794864584402946
3965000000.0,21.9,-0.0006919812571434063,0.03205268852264263,0.0,0.6264664459692645,-1.1336442161229423,9.270949356767293
3970000000.0,21.9,0.006367935550388093,0.01879679662816806,-0.00031943709708749104,0.5964464577502646,-1.1801395299380955,10.353085918299259
3975000000.0,21.9,0.04052846666395194,0.010751782304831967,-0.005163531454021568,0.4188880809344808,-0.7588024962751251,10.814535352524153
3980000000.0,21.9,0.060591313389908356,-0.02931766159607339,-0.0020441128401864944,0.5560321142143212,-0.6443221142143212,9.73308217855442
3985000000.0,21.9,0.031157756724375475,-0.06734139077753175,3.194792572613118e-05,0.7226063028845631,-0.8159007187499072,8.841069473557596
3990000000.0,21.9,0.0057283305510688,-0.039898697598630316,0.0010433494158874903,0.9380346025298459,-1.1862248899961487,9.25024891759339
3995000000.0,21.9,0.025910205970519823,-0.01128478741262387,-3.196478979566529e-05,1.2337037376460376,-1.143450185684402,10.191419628631195
4000000000.0,21.9,0.05965547188165283,0.03089228560012577,-0.0031939356670800667,1.000618290705583,-0.7161285237911853,11.046052463565525
4005000000.0,21.9,0.07441153272312472,0.02562226387102868,-0.0010859269754412105,0.7869564885689649,-0.5316024219459242,10.103998154144982
4010000000.0,21.9,0.03280871008166994,0.0255690735417169,-0.003151383403630645,0.6309779537689796,-0.7316314356782143,8.815844240704644
4015000000.0,21.9,0.0009584553097251314,0.0255690735417169,-0.0031939525311496,0.5992926660403266,-1.1639600093951001,9.217970009395101
4020000000.0,21.9,0.007154512989139656,0.01022121897953419,-0.00012773267866116305,0.6172453561673537,-1.3184651712551516,10.135307096032971
4025000000.0,21.9,0.0459199353180882,0.002501870089588903,-0.0020228535725313177,0.6273495781807958,-0.9888451854913518,10.75078384720934
4030000000.0,21.9,0.0819871305910513,-0.02590895262112259,-0.0001277411106959253,0.6001755651662557,-0.6299953037171531,10.117243563990137
4035000000.0,21.9,0.07028167176308303,-0.033639177971978684,-0.0009901337904714158,0.771754189125642,-0.5899732432499325,9.290259459747096
4040000000.0,21.9,0.039836535480654287,-0.026250381950854572,-8.516355114220574e-05,0.8479769493050695,-0.841307797220278,9.312437506249374
4045000000.0,21.9,0.026622984081149537,-0.002301011833485571,0.0,1.0766494642317945,-0.988260499969805,9.864057892725578
4050000000.0,21.9,0.03994198799341821,0.024928759819508182,-0.0009581942967800512,0.9397965840049658,-0.8505256626713567,10.597749057312093
4055000000.0,21.9,0.05292494335453405,0.022013088435852157,-0.0010646508437165,0.7475204247298043,-0.7727331486554315,10.184345189243452
4060000000.0,21.9,0.04213702366404641,0.0213104701668507,-0.002001552144702308,0.6223454536724545,-0.851508788606288,9.355593781404039
4065000000.0,21.9,0.033064146929038654,0.0027701896001076434,-0.0012030468843443134,0.5399417683380177,-1.0339755791549559,9.319108231661982
4070000000.0,21.9,0.03287258690920775,-0.0073248664415327775,-0.0010646508437165,0.6731635439327355,-1.1775935067681351,9.768017310853073
4075000000.0,21.9,0.052945624647675035,-0.003992397713259913,-0.002874574458305472,0.7215257374559574,-0.9383240462884405,10.406453382335034
4080000000.0,21.9,0.08688278272823802,-0.020200604316410783,-0.001405321912354872,0.7424209584982095,-0.5795717885340179,10.242814664028646
4085000000.0,21.9,0.08207295754289606,-0.021672434231283316,-0.0001809820322162996,0.8269837934622379,-0.5117876206537763,9.573769169686992
4090000000.0,21.9,0.05018979081138135,-0.00994686824880361,0.0,0.8758371177733711,-0.7192712655269127,9.41485288222663
4095000000.0,21.9,0.02900774901789626,0.005483081329574062,-0.0008623758157059573,0.9067385386213853,-0.9797268475924684,9.725637181618472
4100000000.0,21.9,0.02982772013076124,0.021307109292567065,-0.0019163801615253357,0.8809376814496769,-1.0771384778254849,10.09841702622807
4105000000.0,21.9,0.051092103681130874,0.026186588337823807,-0.002129301687433,0.7258403850407039,-0.9261604255713043,10.211719898673499
4110000000.0,21.9,0.06891794613223585,0.012502693200987854,-0.0029597380094476705,0.5642699226908993,-0.806381201681812,9.816470368913604
4115000000.0,21.9,0.06259368606835455,-0.0037796406120301513,-0.0031939525311496,0.6279391390761914,-0.8678915792183158,9.422600142629301
4120000000.0,21.9,0.05803706718072533,-0.008261699232236125,-0.002384809204929174,0.6796370400781705,-0.89271,9.704448321276784
4125000000.0,21.9,0.06790651091393542,-0.018910755629874404,-0.001330804859109772,0.7970637018476371,-0.819134198768242,10.069967724187977
4130000000.0,21.9,0.07689438100621834,-0.007393049153283329,-0.0002768005132903935,0.8919258417623585,-0.6349014351535144,10.146090519779706
4135000000.0,21.9,0.07571496593603284,0.00020230981015395468,-0.00155440766505797,0.7977479149213791,-0.5286603377781034,9.957344111747242
4140000000.0,21.9,0.05846276161792792,-0.005834365167970487,-0.0013627443528011365,0.8189395237307953,-0.7008285711923857,9.492936296786162
4145000000.0,21.9,0.034048545864585736,0.010392956149567006,-0.002576472517186055,0.8157992779533928,-0.9769802348379023,9.617727220466072
4150000000.0,21.9,0.03557689645148519,0.014377978493335154,-0.0024486881923119095,0.7632175163473751,-1.1006824836526248,9.930665337654354
4155000000.0,21.9,0.057052405608029794,0.017195560085666826,-0.0013946838464925012,0.7387910192941102,-1.0168052894116528,10.076930826353008
4160000000.0,21.9,0.07512607523702937,0.0075857586080502765,-0.0032365648728466994,0.6156741455458415,-0.8444432647428327,10.010907668757877
4165000000.0,21.9,0.0863210967626169,-0.007143921299468593,-0.0028319536845735215,0.6446161517016615,-0.7124994100985942,9.72376710669527
4170000000.0,21.9,0.08526696066625426,-0.013116515975380234,-0.0014266233401838658,0.7190734049862341,-0.6639406380055064,9.694635533961454
4175000000.0,21.9,0.07754752610821805,-0.014532492817667012,-0.0017566826930685126,0.8313987164154872,-0.7082826487549265,9.722200256716903
4180000000.0,21.9,0.06638384142773869,-0.0026401754858430774,-0.0014479163359781089,0.8891784811914848,-0.7545854435744545,9.963039247659392
4185000000.0,21.9,0.06513834978838817,0.006270819935539472,-0.0010646508437165,0.8432669496911696,-0.7589996187113962,10.05485694969117
4190000000.0,21.9,0.06380744796087853,0.009432832972997768,-0.0030449279106985055,0.7594894675284948,-0.7979459697000597,9.879845246742653
4195000000.0,21.9,0.0617846555205992,0.005450941575056944,-0.0023102658015754594,0.7139716370343163,-0.8719134518627345,9.736522366654423
4200000000.0,21.9,0.06433985296006495,0.00021290360783378544,-0.0029810489233157746,0.7122060815799608,-0.9260643263198433,9.749178652639687
4205000000.0,21.9,0.07044032892925056,0.0008198077421913499,-0.0036304505128968165,0.7392819267083193,-0.9243960549687605,9.878965688510357
4210000000.0,21.9,0.08215102695364052,0.0015117953233608381,-0.0013414334389330567,0.7155408275806083,-0.8212918916128189,10.009928699516188
4215000000.0,21.9,0.09205953910308305,-0.005610807684209171,-0.0012137197323500806,0.7146589093565892,-0.7106357450294575,9.954597926316278
4220000000.0,21.9,0.09063279139038631,-0.008857868332331532,-0.0015330883191550812,0.7577247278737473,-0.6823836819684369,9.851201590157816
4225000000.0,21.9,0.08325476096965041,-0.006281422165254106,-0.0004790839733357028,0.8019679103277791,-0.6920955820655559,9.82962
4230000000.0,21.9,0.07817641203884926,-0.0018737319836805385,0.0,0.8187425178373253,-0.7335923751387238,9.797835107023952
4235000000.0,21.9,0.07556942248459089,0.0021931985928896613,-0.0011285477491731082,0.8090306177402062,-0.7859775290391754,9.791557529039174
4240000000.0,21.9,0.07733767838727924,0.004301207284528517,-0.0026829290641224844,0.7993187176430873,-0.80442,9.855911541212215
4245000000.0,21.9,0.08424502018663904,0.0064092159761673225,-0.002650971652357238,0.769594087729841,-0.7744009052758091,9.908296364908063
4250000000.0,21.9,0.09161238619140394,0.00692022152512051,-0.0026616360683282395,0.7406549174488491,-0.7014142570396426,9.966960825511508
4255000000.0,21.9,0.0963713486173262,0.0032577777643106945,-0.0026722646481514827,0.7069081041103811,-0.6140071561655716,9.900642416441524
4260000000.0,21.9,0.09544503057397673,0.0,-0.0011072189172311071,0.6910166482361665,-0.5925244137269442,9.667556814110668
4265000000.0,21.9,0.08567145486004502,-0.0015011846616115215,-0.0010007897744076497,0.6970984343149843,-0.6779701769526019,9.655788788220189
4270000000.0,21.9,0.07384585569229372,-0.0071119396456033645,-0.0011498049088195933,0.7137760976377611,-0.8087375611547756,9.884361707611419
4275000000.0,21.9,0.07259877879584956,-0.006441038475376321,-0.002395509457047999,0.7852912473307125,-0.8475833357060334,10.023858332146984
4280000000.0,21.9,0.08326559613432541,0.0,-0.0053232542185827,0.7906851686613517,-0.7526222023936221,10.02817406746454
4285000000.0,21.9,0.09298575912402836,-0.004120280060538177,-0.0034920186361212593,0.7694970658478707,-0.7077919161549192,9.782625688757857
4290000000.0,21.9,0.0948062849683319,-0.002874421627675333,-0.0015118132414347171,0.8142300000000001,-0.7522311333124114,9.51511198329672
4295000000.0,21.9,0.09655234856761637,0.0037688096633725445,-0.0016927857876119043,0.8262965502756655,-0.7669456331495563,9.764093538111537
4300000000.0,21.9,0.1037564332299673,0.005110432823087848,-0.001490520245640474,0.8515081670446817,-0.6808124130755242,10.127845336357455
4305000000.0,21.9,0.11162394672465374,0.0127758101245984,-0.0025445245914598913,0.7905863112302631,-0.5039382784691828,10.19523811466378
4310000000.0,21.9,0.10806125333037563,0.007920893251041478,-0.0031939525311496,0.6619784651336847,-0.4581282557486826,9.914765442138954
4315000000.0,21.9,0.0883051840725878,0.0,-0.003587882439382209,0.6449095676273957,-0.661883298224633,9.456544107539742
4320000000.0,21.9,0.06740599376222749,-0.0011498502310064995,-0.0042586033748661,0.6855234712865347,-0.941762097770421,9.554552718559828
4325000000.0,21.9,0.07685583815802169,-0.003939226356026368,-0.0035133295499893322,0.7632186720634868,-1.0060132317857322,10.092041280357114
4330000000.0,21.9,0.10743924294655237,-0.007857187120371482,-0.002491292101974279,0.8042235476848356,-0.750462897373629,10.332283222529233
4335000000.0,21.9,0.1299359779159295,-0.009613714874801192,-0.0031939525311496,0.7848,-0.5400392369673924,9.96322495861305
4340000000.0,21.9,0.12842396335966463,-0.0028532551124025663,-0.0025125576936555643,0.7816607157007072,-0.45086785289787856,9.379144294204243
4345000000.0,21.9,0.1121507334141504,0.0005111056793661033,-0.0010646508437165,0.8114842127569422,-0.5195389503425896,9.466849744649297
4350000000.0,21.9,0.10236527844920597,0.010545398698766422,-0.002022864112574806,0.8544499015840991,-0.610181493038815,9.954212830053628
4355000000.0,21.9,0.10105581296208158,0.01653566261713761,-0.0042586033748661,0.7481100924561009,-0.56898,10.40811510786545
4360000000.0,21.9,0.10064048887363755,0.00626011019738161,-0.0036623805205490407,0.6815980378100803,-0.5744737693755377,10.134115455602956
4365000000.0,21.9,0.09115444976126275,-0.0005430915492486573,-0.0015543718289102119,0.6074348608604486,-0.657468404407084,9.488720380377805
4370000000.0,21.9,0.08360613966843793,-0.01203513860105835,-0.0013840921568214143,0.6425571220501712,-0.9048764371681643,9.350500958112109
4375000000.0,21.9,0.08788625738001095,-0.011990273471941464,-0.004790910351648373,0.8363029248956293,-1.0398586403339865,9.709455912933459
4380000000.0,21.9,0.11747086676042261,-0.00025552543557002936,-0.0031939525311496,0.8707355149237552,-0.8044157461877575,10.475511761219916
4385000000.0,21.9,0.15797507902194388,-0.0008197719060435921,-0.0034388314688225076,0.8497416889598169,-0.3774867558392676,10.414289186130892
4390000000.0,21.9,0.15703389305506218,0.0011711621988789755,-0.0042586033748661,0.7849954325656544,-0.20699142635241427,9.684819454311995
4395000000.0,21.9,0.11926423393651736,0.0053232542185827,-0.004035017432987435,0.7243707414704075,-0.32765741470407417,9.269862595146426
4400000000.0,21.9,0.09182145643726829,0.006813830326453543,-0.002981013087168037,0.7671425127883251,-0.6886642220827423,9.523554324389345
4405000000.0,21.9,0.06892141102465332,0.013386005240656357,-0.0025338875796018625,0.7993181155052813,-0.866614202134242,10.24409891713799
4410000000.0,21.9,0.1011337595035653,0.012151145239469611,-0.004450249823053418,0.7216229147283292,-0.7006275445722754,10.697013261624333
4415000000.0,21.9,0.1301382160537879,-0.006047254019743431,-0.00478025436771213,0.6556022142439222,-0.45959892878038927,9.878661424392213
4420000000.0,21.9,0.1299997462328559,-0.010606770987354611,-0.001958948235039943,0.6662962302383624,-0.5160068585319686,9.083276230238361
4425000000.0,21.9,0.12335630624894747,-0.013429286529537935,-0.0012243577982124355,0.7857822033044221,-0.6204837892547379,9.291057360323373
4430000000.0,21.9,0.11850172244076382,0.0033030013067414047,-0.0027255435138282837,0.90252,-0.6988614743872148,10.050942548933225
4435000000.0,21.9,0.13481440522035795,0.01635752791718591,-0.006111077144895802,0.8693599602415996,-0.39288920783169207,10.855642989760431
4440000000.0,21.9,0.14262038352230905,0.010305717212031572,-0.004003068453256946,0.6462827137583271,-0.2801747211417472,10.22436379227424
4445000000.0,21.9,0.11496474984542172,-0.0009369677032596276,-0.002012180724525551,0.6365708136612082,-0.4280131491801315,9.159302440983627
4450000000.0,21.9,0.08820543097601204,-0.0085172067497323,-0.0013840742387474935,0.6405941236668413,-0.745562593077326,9.175296716744167
4455000000.0,21.9,0.0897404559849557,-0.007463099111486995,-0.004354431341979315,0.768614797995448,-0.9742275521457755,9.667079289694794
4460000000.0,21.9,0.12846992083469524,0.0026828637158530758,-0.0053232542185827,0.8946711336985114,-0.5783943080543431,10.778048287725683
4465000000.0,21.9,0.17145890998263907,-0.003268487502468563,-0.005099649304625796,0.799612492909125,-0.23750036018180362,10.443520606909606
4470000000.0,21.9,0.1542899080937215,-0.004066937954600568,-0.002129301687433,0.7369273736487737,-0.2719342418926424,9.457033334795232
4475000000.0,21.9,0.1172868284438999,-0.0009049249171423397,-0.0020228177363835597,0.758804108450541,-0.4046664114677641,9.163032325351624
4480000000.0,21.9,0.0985111471340393,0.0028115276159930884,-0.0002129773881380007,0.8236475129813753,-0.8248249740372499,9.405053468197734
4485000000.0,21.9,0.08707851570678299,0.019020899826999137,-0.00529130523885222,0.8095198061480982,-0.8318845153702451,10.528095484629755
4490000000.0,21.9,0.14752069168049653,0.013307898922481095,-0.0042159984111993865,0.6564848511485485,-0.4461565324655653,10.883202662327829
4495000000.0,21.9,0.17237551805414958,-0.012839920716477056,-0.0021719256231779375,0.6185209365499095,-0.19600362538003627,9.626841450231213
4500000000.0,21.9,0.15233217569589125,-0.019181092435595865,-0.006387886090220975,0.6670810488852106,-0.17658192295621922,8.976153671098237
4505000000.0,21.9,0.13439682305719364,-0.01073177890927305,-0.004279877398582118,0.7836238500506385,-0.3902437250928373,9.384053475177236
4510000000.0,21.9,0.10289769507699763,0.005004001572255726,-0.0021718687069432635,0.9578499768240998,-0.623133302432133,10.089983794897739
4515000000.0,21.9,0.11879930410114783,0.020830996609318503,-0.003162022523497345,0.8471905476185054,-0.5231663353169633,11.074910345242703
4520000000.0,21.9,0.1315755997243383,0.002896376762822568,-0.0031939525311496,0.7118123708619236,-0.35982930747519304,10.078392030282119
4525000000.0,21.9,0.1320865177909308,0.0071864408887832125,-0.0021825246908795002,0.5944849452876495,-0.4743146426050464,9.159588738086589
4530000000.0,21.9,0.13910839343905554,-0.009560726914323876,-0.005131645714551837,0.6531504159287042,-0.4991329759796298,9.279476783816667
4535000000.0,21.9,0.13062908167042242,-0.008666238748213784,-0.006313389063058461,0.7941208213040083,-0.6189140451301405,9.664128911564289
4540000000.0,21.9,0.14368611014160865,-0.0006812999771029036,-0.00540841671572056,0.8405211527362115,-0.4653848126870481,10.685061700245818
4545000000.0,21.9,0.15069283230013858,-0.0077507347894524205,-0.003385570521219572,0.8168784351564845,-0.29057061093890607,10.396438092190781
4550000000.0,21.9,0.14456031881485745,0.006813918862818591,-0.006068538583502881,0.7965718232434182,-0.36297088378290887,9.55591295757553
4555000000.0,21.9,0.136219205953482,0.007569657896844936,-0.0016501607978626452,0.716031103721311,-0.40770395390163955,9.41426406914754
4560000000.0,21.9,0.13810653644205087,0.006515653551025546,-0.002938455553696896,0.7322186657175866,-0.43791866571758664,9.571814882878048
4565000000.0,21.9,0.152385714002146,0.007314160919392233,-0.0031939525311496,0.7698891546785916,-0.3048933812856338,10.148941263527114
4570000000.0,21.9,0.16729517981973635,-0.006281584481923391,-0.005025171249541507,0.7074964898658649,-0.14106629096496293,10.189646556166165
4575000000.0,21.9,0.14312544547164113,-0.006707281027134636,-0.004418291357283825,0.779895888638859,-0.22612165523051653,9.682464668166846
4580000000.0,21.9,0.12148520431712749,0.001660942208316061,-0.0033642870114644324,0.7863695110389952,-0.46774320194713204,9.627141955844019
4585000000.0,21.9,0.1182460568226158,0.0005429429346358785,-0.004077622396654146,0.7685152218837523,-0.5752591124649912,9.812552559278725
4590000000.0,21.9,0.13921292950368014,0.0008730233676074247,-0.002512556639651169,0.7571357108447571,-0.46793566267135667,10.090568674657288
4595000000.0,21.9,0.1628015588236931,-0.0023848566351247933,-0.0047164322965640715,0.7156390537381905,-0.2984185934574859,10.040239539719295
4600000000.0,21.9,0.17151355407768265,-0.006600874018402407,-0.0019163327313298137,0.7534085360968854,-0.21778146390311465,9.600061264477512
4605000000.0,21.9,0.1607891939421458,-0.001564968788603122,-0.0010646508437165,0.7806799788931998,-0.2215099788931998,9.689829736164997
4610000000.0,21.9,0.14187728118828732,0.004982624256113786,-0.002725525595754455,0.8154075581748756,-0.34040834315578344,9.970886686311566
4615000000.0,21.9,0.13906680705827712,0.010486859452908438,-0.0031939525311496,0.7636096828732969,-0.33501105179581053,10.209367161739271
4620000000.0,21.9,0.14683882641148907,-0.002044295182938376,-0.0031939525311496,0.6784587923583879,-0.3013629307861293,10.015222238647423
4625000000.0,21.9,0.15233237611222583,-0.007186402944626774,-0.003992450413477173,0.7014155390104554,-0.3090151796701518,9.5107897895656
4630000000.0,21.9,0.1533969879577816,-0.0074525559060157,-0.0042586033748661,0.7451679597287796,-0.3066605100678051,9.586334697965848
4635000000.0,21.9,0.15883742216351504,-0.004343736359882304,-0.0019269887152660345,0.8341452903224529,-0.3184327800586278,9.84904614076216
4640000000.0,21.9,0.1600829854751611,0.01214978177253638,-0.003364326009625199,0.8279635493678356,-0.21778064810350647,10.25694792606878
4645000000.0,21.9,0.1620526286922982,0.006765447276405481,-0.0035026914841270124,0.7097521466467216,-0.17658,10.221625434634754
4650000000.0,21.9,0.15403566083712655,0.0006387709017490677,-0.0046844833168336025,0.6602129096793291,-0.2040483612826836,9.631451135629012
4655000000.0,21.9,0.14506070316201788,-0.002938475579779447,-0.0045886353236377865,0.6437320191644202,-0.29027889459568895,9.50255586584906
4660000000.0,21.9,0.14781828629995047,-0.009326410154200365,-0.0013627137866751397,0.7443842482385425,-0.37709712411927127,9.60516801463418
4665000000.0,21.9,0.1573362944181382,-0.0038645743902250163,-0.002853303596602473,0.866910696732307,-0.3036181408195814,10.00806906488559
4670000000.0,21.9,0.17913072763083532,0.0,-0.004961282776119646,0.8442477836176779,-0.10614211368962115,10.29618505134635
4675000000.0,21.9,0.18301165586609636,0.0006920329033563584,-0.003247155508513495,0.7568406827436069,0.021582726450127262,9.922318415980184
4680000000.0,21.9,0.16434765474871008,0.0031088100600942742,-0.0034920744983515375,0.6945475454830755,-0.05768434535754346,9.610659618255996
4685000000.0,21.9,0.14277123566534447,0.0035878634673039847,-0.0029171235597418065,0.7263331280040313,-0.18570430100554303,9.56475
4690000000.0,21.9,0.1293396296350953,0.0031939525311496,-0.0034494885067630496,0.7432054178047541,-0.3716049863429498,9.838453099393032
4695000000.0,21.9,0.13804875072290634,0.005142293266453277,-0.0042586033748661,0.7656709559737096,-0.38925970566309703,10.167773162258031
4700000000.0,21.9,0.16000851329485513,0.0012775017513330742,-0.0042586033748661,0.6965086306220863,-0.26683081320580815,10.153348174162781
4705000000.0,21.9,0.17629389698175982,-0.01156190803221772,-0.0042586033748661,0.6955299138897991,-0.16951606888816068,9.762318464995085
4710000000.0,21.9,0.17800782609654894,-0.008843783292125621,-0.0042586033748661,0.7926489148609892,-0.09182086811120868,9.579269348916593
4715000000.0,21.9,0.17213094344727242,-0.0015224407672536138,-0.003651742454686714,0.8338500000000001,-0.10359433266574333,9.743784789580447
4720000000.0,21.9,0.16400850009858636,0.007878565490517749,-0.003790166953431864,0.8668121500820215,-0.13184630831966307,10.030531825451117
4725000000.0,21.9,0.16565017173810273,0.015500279210586923,-0.003087467526095759,0.8063805315607053,-0.10055204111272041,10.178365591777455
4730000000.0,21.9,0.1692990118967901,0.007928891036017563,-0.002129301687433,0.672180097505101,-0.06258752437627524,9.928500390020403
4735000000.0,21.9,0.16661747786789488,-6.389901346529991e-05,-0.004386401401796706,0.6388275678867757,-0.05424939197169392,9.613111552537816
4740000000.0,21.9,0.16622447997596415,-0.007708192012042101,-0.005280648200911591,0.6776751682752516,-0.04355612379356124,9.566320336550504
4745000000.0,21.9,0.16398810927867588,-0.010582569371534907,-0.0037156214420694432,0.7765610746549108,-0.04944276866372769,9.75908895714389
4750000000.0,21.9,0.16297888560339555,-0.002129201557020198,-0.002129281661350479,0.858375092263051,-0.06867,10.006201845261018
4755000000.0,21.9,0.16249970255365134,0.0031939525311496,-0.0015863397807189138,0.8104030840381309,-0.08309097708050978,10.07065105347881
4760000000.0,21.9,0.1597848930200808,0.0037049949702548917,-0.0036624290047489725,0.760078892457289,-0.10751778491457786,9.927325473482355
4765000000.0,21.9,0.1632958678206891,0.0037582074336579294,-0.004322462336166312,0.7282936595647367,-0.09927682978236829,9.740838111683882
4770000000.0,21.9,0.1682344011052387,-0.0002342935720278357,-0.004173451417771744,0.7092634632576347,-0.07396730734847307,9.658337307348473
4775000000.0,21.9,0.1732170274693612,-0.0009048827569685166,-0.0038859453823408274,0.7445791854972919,-0.0377678507594785,9.758990225967503
4780000000.0,21.9,0.17696449776074835,-0.0005536990489849801,-0.00259775813494985,0.7424205214627052,-0.0043164928457649285,9.996392321144123
4785000000.0,21.9,0.17072869444139088,-0.006238874117822069,-0.0031939525311496,0.7596871435430714,-0.03090196471441965,10.053580534085205
4790000000.0,21.9,0.16046618878116636,-0.00342808484051255,-0.003641115982872163,0.7796982417599825,-0.08770205128002052,9.93497912087999
4795000000.0,21.9,0.15989145918346928,0.001256267779782117,-0.003822086421040658,0.7696931588227316,-0.11546342058863421,9.793222012749219
4800000000.0,21.9,0.1700126136686192,0.004684575015211678,-0.00276808207522124,0.80442,-0.0745554405945544,9.684433678216337
4805000000.0,21.9,0.1815852443807859,0.008804591574663394,-0.003374973561526673,0.7699860600177606,-0.0009800666864006671,9.88220383995264
4810000000.0,21.9,0.1906772207803805,0.0026402935343297546,-0.0049186767584485855,0.71613,0.08868314742783148,9.999724746000647
4815000000.0,21.9,0.1847682563468259,-0.0023635857734218054,-0.0042586033748661,0.712500206474402,0.11193144532081445,9.935371238846413
4820000000.0,21.9,0.17432417366029246,-0.007537758455318737,-0.003875318910526266,0.7310418553590186,0.05807491913184919,9.785275804073057
4825000000.0,21.9,0.17065559473025196,-0.003992288096807943,-0.004311866430477771,0.778423593719836,0.035806406280164065,9.61870593719836
4830000000.0,21.9,0.16837200474194353,0.0049399391881167695,-0.005663922125207985,0.7714580247321803,0.042771975267819756,9.75585086397301
4835000000.0,21.9,0.17646418297787475,0.0007239218048391237,-0.0042586033748661,0.7358478182577782,0.0848569695703697,9.924189151312591
4840000000.0,21.9,0.1807121092887178,-0.004173492523941181,-0.0039179049021147525,0.7318264700559648,0.11772,9.9328198838433
4845000000.0,21.9,0.18083980613123116,-0.006536894900606851,-0.003854056480858083,0.771262388216624,0.13596716464987166,9.781647311942073
4850000000.0,21.9,0.17758200517882486,0.0010647530821381343,-0.004684443264668461,0.787743094205431,0.1854092826162928,9.673641659438017
4855000000.0,21.9,0.17591048287488542,0.0085172067497323,-0.0031939525311496,0.7718500455796005,0.20601,9.792834857563749
4860000000.0,21.9,0.16827189553012895,0.006430419381592186,-0.0028958400499867103,0.7051424224013243,0.16480658400496584,9.980694471998344
4865000000.0,21.9,0.15359924085170085,-0.0023849409554724853,-0.0024167676706987667,0.6821875889935759,0.03502084952890849,9.970980493554604
4870000000.0,21.9,0.15320542266792891,-0.010880700824776018,-0.0037475915018868626,0.7296690297207903,-0.03453138918781389,9.800776802715768
4875000000.0,21.9,0.16271720048003477,-0.006387822849960251,-0.0050570812311111785,0.8215874053089741,-0.04169221592692216,9.702091515056416
4880000000.0,21.9,0.17802930248909932,0.002555264895743848,-0.004514129864440499,0.8071665156355653,0.008633937457739375,9.864545400974755
4885000000.0,21.9,0.18952743905965644,0.007707948537038265,-0.0053232542185827,0.7690052358031524,0.10486918465579186,9.988148840917889
4890000000.0,21.9,0.1911668880113525,-0.0028320021687734402,-0.004854787231022414,0.7290797698942978,0.13400488494714885,9.901820460211406
4895000000.0,21.9,0.18557755355768074,-0.003981732243284595,-0.004088300514681663,0.7832307803180079,0.1693211704770117,9.816180585238506
4900000000.0,21.9,0.1872703793974579,0.0010646508437165,-0.007239615408029811,0.8004953337636534,0.22366838070648382,9.843354190353242
4905000000.0,21.9,0.18905886877967026,0.002278414844249143,-0.006185611062210433,0.7418320094525201,0.25506,9.84227404253634
4910000000.0,21.9,0.18081848151530652,0.005919375888482497,-0.005514901720774346,0.7171105231457052,0.2444646277748463,9.76899410462914
4915000000.0,21.9,0.17380245310315964,-0.0023316578737782217,-0.0063879050622992,0.6868967728078678,0.19453220453202205,9.769288977339889
4920000000.0,21.9,0.1707470399572289,-0.007495079711347835,-0.006047196049504378,0.7530166512160665,0.19109908669529088,9.84139391130194
4925000000.0,21.9,0.17981790675778545,-0.001650177661932156,-0.004578019391866677,0.8304156390400563,0.22906436095994362,9.994427234702274
4930000000.0,21.9,0.1900809747379678,0.0012137123543196598,-0.006089782041092866,0.7526230084813301,0.3013630084813301,9.874153665385938
4935000000.0,21.9,0.18489605226574782,0.002544546725551141,-0.0042586033748661,0.734474604143546,0.2793884165741842,9.540028416574184
4940000000.0,21.9,0.17509076366905907,0.0046844116445380925,-0.004386371889675028,0.7306491838142919,0.2534910716750107,9.5494499502822
4945000000.0,21.9,0.17860414275725278,0.0004684880676471916,-0.005089010184759098,0.768417588152076,0.31499919605069193,9.906631861774219
4950000000.0,21.9,0.18343751156596377,0.004045652336836743,-0.003513379088193631,0.7867612308175124,0.32471109614781096,10.204361230817513
4955000000.0,21.9,0.17538879288387868,0.0012668404973750133,-0.005908759956711421,0.7090660300405603,0.3264760300405603,10.080750225304202
4960000000.0,21.9,0.17066028392647145,-0.00711182581313397,-0.0014053809365982381,0.6502083414727835,0.2487808292636083,9.527862280474922
4965000000.0,21.9,0.16077500783847398,-0.002970344455179666,-0.00502511011728945,0.7966703893175039,0.1724592213649922,9.365710211275902
4970000000.0,21.9,0.16087206235562812,0.00031944763713094923,-0.0012563194259950683,0.8263947861451479,0.1212521792177218,9.88397309564093
4975000000.0,21.9,0.17875329912824708,0.005270011189053629,-0.00431184640439517,0.8593552269327523,0.18344835286768352,10.424595823566158
4980000000.0,21.9,0.1953624877753633,0.00400302418507443,-0.0053232542185827,0.7808750326947503,0.31588248365262483,10.327960261558003
4985000000.0,21.9,0.20540808568252306,-0.002161251721167826,-0.0053552042523175225,0.6869943968276441,0.3650307777935078,9.559251364962513
4990000000.0,21.9,0.19897719269012554,-0.0030022207086102823,-0.0063879050622992,0.6984729692476297,0.4312474061504741,9.075236330861962
4995000000.0,21.9,0.18739801194570618,0.0063772480243586204,-0.0063772480243586204,0.794806394043764,0.41192180297811803,9.612631337925613
5000000000.0,21.9,0.17896601933932468,0.0053232542185827,-0.0053232542185827,0.8142290288099904,0.4022097086429971,10.467270194238
5005000000.0,21.9,0.17475000195604695,0.0053232542185827,-0.0053232542185827,0.7171100278388003,0.37307400835164006,10.48669399443224
5010000000.0,21.9,0.17888093167649535,-0.008240534824972086,-0.0053232542185827,0.725743897313239,0.39200779462647795,9.698550420314405
5015000000.0,21.9,0.1779333396094299,-0.006451762969595015,-0.006355976108651294,0.6593294181274942,0.3257894181274942,9.0258799786853
5020000000.0,21.9,0.19323254153835465,0.0038328488594158074,-0.0002554527092701762,0.7702823700897238,0.42732467258224677,9.372870202791603
5025000000.0,21.9,0.18881402884015816,0.00021288779776860306,-0.004045715577097497,0.8961447688597477,0.5434751712551518,10.217614186809042
5030000000.0,21.9,0.18254322471468376,0.00400312958550901,-0.006260168167620652,0.7273115436674155,0.4387020275794203,10.46413294943773
5035000000.0,21.9,0.17324879094432685,-0.00663289150841536,-0.003417497366858785,0.7891171823906719,0.422516602201166,9.893182540874626
5040000000.0,21.9,0.16080822642691472,-0.003534598303683664,-0.002214463130566522,0.6772811273526114,0.3135264252485642,9.18136795569948
5045000000.0,21.9,0.16559795043619627,0.008432162301081134,-0.004066987492804819,0.7652791779237919,0.277328406020784,9.400043137785232
5050000000.0,21.9,0.17481227386326254,0.0019162863551385875,-0.005216799779654933,0.7573318038196181,0.3453127847215278,10.089592356764323
5055000000.0,21.9,0.19188045738550707,-0.0008304489700667426,-0.007218354032365943,0.78156299456193,0.40554598912385986,10.390165952870062
5060000000.0,21.9,0.19669724261079224,-0.006686071297683675,-0.0055787490880267005,0.7675342034311421,0.5069818811287188,10.012473780631838
5065000000.0,21.9,0.19800883604629707,-0.0018950144394312574,-0.004396997307485235,0.790784395144644,0.5711387902892879,9.299970524620806
5070000000.0,21.9,0.19263855749294068,0.01360012577426186,-0.0042586033748661,0.79461,0.5619166030426661,9.421134160445341
5075000000.0,21.9,0.17726244897924623,0.008732669151821252,-0.0042586033748661,0.7195626128179261,0.5675085985757861,9.940478717395587
5080000000.0,21.9,0.17202450587241416,0.0011923339841734366,-0.0042586033748661,0.70632,0.5195370079625701,10.248313464168435
5085000000.0,21.9,0.1776992020300452,-0.00618569643656241,-0.0060259452138839665,0.70632,0.5426895950800961,9.907997257808873
5090000000.0,21.9,0.17983908592111036,-0.009198604749239322,-0.004641856219075577,0.714364298867143,0.533271402265714,9.443493654377136
5095000000.0,21.9,0.18692973573293253,-0.0035452121274460145,-0.0042586033748661,0.771753392749834,0.5933095917140959,9.430255790678357
5100000000.0,21.9,0.18088233626058933,0.004684549719107379,-0.005110334800683707,0.7769519009386191,0.616068099061381,9.886523547437335
5105000000.0,21.9,0.172237382076135,0.0005003105668562012,-0.004482169290662215,0.7672400008415001,0.5715300050490001,10.1746399806455
5110000000.0,21.9,0.1662830488548951,0.0014266644463533527,-0.0042586033748661,0.795787597022476,0.5056067052106671,9.908292130519621
5115000000.0,21.9,0.16922054611129658,0.004588677483811642,-0.003438811442739937,0.7742048025890481,0.498053799352738,9.653626414239763
5120000000.0,21.9,0.1761128727893697,0.006132399652811741,-0.004812243399607758,0.7055344044011441,0.552499896148999,9.686002693948426
5125000000.0,21.9,0.18189390533744174,0.001596911444307532,-0.0037262563459187856,0.701415199093952,0.539549601812096,9.763403196828833
5130000000.0,21.9,0.1753461404900164,-0.004727114630608936,-0.00476965740801927,0.699060500355905,0.522480500355905,9.947538491814186
5135000000.0,21.9,0.1787958039615009,-0.012605552586600831,-0.0053232542185827,0.7967695963769961,0.5342527994824281,9.89877900388179
5140000000.0,21.9,0.18569471984277508,0.00042607704078010365,-0.004556694775942073,0.8479765996766659,0.596056398706664,9.816670200970002
5145000000.0,21.9,0.1874832682492308,0.010923382730759941,-0.005770429264353038,0.7907832005809321,0.65285599967726,9.793224800064548
5150000000.0,21.9,0.18450220246184548,0.006813678549827695,-0.004152105721760195,0.7102431997394321,0.6533457999348581,9.762911599869716
5155000000.0,21.9,0.18102080502751705,0.0013201235790692694,-0.0053978123779972395,0.69346900012969,0.64746,9.6834499987031
5160000000.0,21.9,0.18147865924531925,-0.0007239734510520689,-0.0056639316112471316,0.749877201814472,0.6741436009072361,9.753103503402135
5165000000.0,21.9,0.18358666793695805,-0.0003513238905615526,-0.006749908124892595,0.7552715990282161,0.732709602267496,9.83305400161964
5170000000.0,21.9,0.18147859389704982,-0.0007026804552578258,-0.005344514540242156,0.752034700421047,0.768319400842094,9.823341198315813
5175000000.0,21.9,0.1758785085990507,-0.0031407527157986774,-0.0042586033748661,0.7234869974091699,0.755860198445502,9.739857394300174
5180000000.0,21.9,0.1695544825241342,-0.0042586033748661,-0.0042586033748661,0.737712503076425,0.714167496923575,9.633026493231865
5185000000.0,21.9,0.1665731655035818,-0.0009048985670337311,-0.0042586033748661,0.7924524042744241,0.6903295992875961,9.699246812110868
5190000000.0,21.9,0.17146437501245088,0.0063454065530714025,-0.0035985089111967602,0.795983097571431,0.717111504047615,9.888678316999982
5195000000.0,21.9,0.17860414591926577,0.008932409627676581,-0.003843400496921818,0.748894794560148,0.7716552054398521,9.925070593653505
5200000000.0,21.9,0.17598495144393064,0.003406795006731348,-0.004897404842741256,0.6847372929736729,0.7710655959849559,9.733479171894691
5205000000.0,21.9,0.16565815414498258,-0.0037689298198679676,-0.004066944278626691,0.6919980066052801,0.7032779900920799,9.60045799559648
5210000000.0,21.9,0.1596145269196356,-0.0070054135343800535,-0.005046477947392218,0.7502694071879942,0.6670800000000001,9.698168023959981
5215000000.0,21.9,0.16114769007309934,-0.0025976601125457304,-0.005781043088115468,0.8309080129511802,0.6894472051804721,9.914773231082833
5220000000.0,21.9,0.16656591243315166,0.0046419437014362745,-0.004727038742296033,0.829140388862104,0.689838895823289,10.048972208353423
5225000000.0,21.9,0.17406875573316574,0.003939142035678658,-0.003673034396476611,0.7676319925532199,0.7092636089361362,9.880628346383183
5230000000.0,21.9,0.1790512556167668,0.0016395733242088673,-0.0026190300506571786,0.761452504759425,0.741047501586475,9.610462466684025
5235000000.0,21.9,0.18059498832581034,0.0026935776700282984,-0.004386405617814089,0.7437935898984359,0.7923546151523462,9.630086837039068
5240000000.0,21.9,0.18054173370223348,0.0015330640770551756,-0.0063879050622992,0.7467378106842781,0.8440526035614261,9.828444733833546
5245000000.0,21.9,0.17622983143560791,0.0016289489604030588,-0.005844922075498197,0.754977192488672,0.838460394366504,9.962938816900488
5250000000.0,21.9,0.17044881048158367,-6.640227378628544e-08,-0.004790917729678768,0.725939796050098,0.814229796050098,9.873762246676323
5255000000.0,21.9,0.1667459307943782,-0.0026722625401427915,-0.0032152233928525314,0.7449720124324202,0.79480599585586,9.63076895234239
5260000000.0,21.9,0.16869382945261324,0.0019590462574442,-0.004173475659871648,0.7655721956616219,0.8177623151843232,9.558080119522701
5265000000.0,21.9,0.1770817293941121,0.0028851260958114907,-0.0053871110718741195,0.75537,0.8949672203967722,9.737703265722931
5270000000.0,21.9,0.1816702635333327,-0.001554401341031895,-0.003768852877550705,0.7824462141805621,0.9462727023634271,9.870429190546291
5275000000.0,21.9,0.17486701119449383,-0.0006919896891781799,-0.0041521605299861914,0.7568401680129018,0.95157,9.78302096309181
5280000000.0,21.9,0.16490493507983825,0.0010646508437165,-0.0067286267231462,0.7341815281343154,0.9343039897693399,9.611443446289034
5285000000.0,21.9,0.162829816714762,0.003811516865460768,-0.006685962735236093,0.7439891681425918,0.9292036106191361,9.597321663714816
5290000000.0,21.9,0.1604661803491316,0.004322404365927255,-0.0033642743634122404,0.6892509082557091,0.9227278807366788,9.809805752286158
5295000000.0,21.9,0.15290718159823585,-0.0017460720313191899,-0.002129301687433,0.718386608547066,0.8467001743588017,9.909865594301955
5300000000.0,21.9,0.15126774213257882,-0.0055362179046641365,-0.002555173197365706,0.7435982058922821,0.8063823088384231,9.808035632238756
5305000000.0,21.9,0.15612253884964036,-0.004130755809731269,-0.003609177543185144,0.7974560334758604,0.80873598782696,9.607617948264581
5310000000.0,21.9,0.1599339777187796,0.004705857470962456,-0.0042586033748661,0.8334567748769678,0.8071674188422742,9.662461931895919
5315000000.0,21.9,0.16546604075559132,0.009858644404682761,-0.0038646713586247988,0.7702807870500079,0.8618090161874902,9.95420803237498
5320000000.0,21.9,0.1718967911118269,0.005067637084634576,-0.004343809086182175,0.7208380766576808,0.9103685166730852,9.977161263319212
5325000000.0,21.9,0.17071496133496394,-0.001437289864163558,-0.005642627021405049,0.6940580171586802,0.9486272068634721,9.781056673025766
5330000000.0,21.9,0.1672549022186166,-0.0028532867325329067,-0.0038966108523161634,0.7359465105865651,0.9680510070577101,9.51844597176916
5335000000.0,21.9,0.16654645039841498,-0.0003937971036850371,-0.0031939525311496,0.7780318253818183,1.0068992290077923,9.567009512405194
5340000000.0,21.9,0.1654488467654192,0.006430457325748588,-0.003534652057905293,0.7895076590459766,1.046922785107628,9.877496326585163
5345000000.0,21.9,0.16419247990922858,0.0006280200574217171,-0.003928550346007528,0.7252536114606362,1.014157592359576,10.04651712741597
5350000000.0,21.9,0.15691023424142767,-0.005536116720246939,-0.0031939525311496,0.748503103917331,0.9800182725786828,9.811958258976082
5355000000.0,21.9,0.1517468355919537,-0.0026084510090382015,-0.004120232630342615,0.7610600080289001,0.93479500401445,9.50500491569655
5360000000.0,21.9,0.15671874378588355,-0.0022143155699581593,-0.004897337386463108,0.7832307123347072,0.9774697534503975,9.438400219235502
5365000000.0,21.9,0.16208934189262306,0.008804673787002386,-0.001927051955526784,0.7673367410783675,1.0878316294608164,9.767723797808339
5370000000.0,21.9,0.16748455340258508,0.005706370042227172,-0.00453542391423909,0.6772828172232283,1.130307887082579,10.05328591388386
5375000000.0,21.9,0.15925231832619474,-0.006654124425961963,-0.0053232542185827,0.7185830220146302,1.0766461427619614,9.836974472315145
5380000000.0,21.9,0.1411747735897422,-0.009624398262850468,-0.004812199131425234,0.7624335135001351,0.9739364864998649,9.583583423499233
5385000000.0,21.9,0.1393116459437849,-0.0024698083313934704,-0.0029490714854679776,0.7915692137914923,0.95157,9.508737305734773
5390000000.0,21.9,0.1422396289103018,0.0106465084371654,-0.002129301687433,0.7904886483628866,0.9666781328599814,9.762327273688474
5395000000.0,21.9,0.1566442298946515,0.00796345183851704,-0.0023528897373203774,0.6939587712515877,1.024360409582804,10.039259385625794
5400000000.0,21.9,0.16191425162374853,-0.0051139742604110125,-0.0034068940831398346,0.6710052586622526,1.03986,9.933601594682116
5405000000.0,21.9,0.164352142595542,-0.01462100983050495,-0.0042586033748661,0.7726360199425603,1.0585000498564006,9.566709900287199
5410000000.0,21.9,0.15639929193273522,-0.0034920091500821146,-0.0038753062624740982,0.8114836203310363,1.1291304745862047,9.441342196572423
5415000000.0,21.9,0.15534528758691582,0.0034420063545360217,-0.0019482996291341297,0.8319853637408536,1.1022524414390245,9.655888791655487
5420000000.0,21.9,0.1537802165598911,0.017006270961395908,-0.001575717524921762,0.7545838313990384,1.1626808841690088,9.980695579154956
5425000000.0,21.9,0.14988361730162272,-0.0019165087500555855,-0.004737730562379996,0.6577612376188124,1.1364883946258841,10.023361704423618
5430000000.0,21.9,0.14703029578694632,-0.011434247043130808,-0.00700536821219317,0.7216240218849402,1.12265597811506,9.54277391246024
5435000000.0,21.9,0.1418669224335766,-0.0037476167979911493,-0.003981771241445319,0.75537,1.0991132445468326,9.421819461251895
5440000000.0,21.9,0.14994749628900544,-0.003745143827335661,-0.002129301687433,0.7730295849820958,1.1709219169964191,9.556905698291558
5445000000.0,21.9,0.14748811838461817,0.021095390385618,-0.002246424758349152,0.8744606501726065,1.1925031769496317,9.889267761352578
5450000000.0,21.9,0.1422180966555211,0.001171012530261805,-0.003300429104168619,0.6533466351582664,1.1585611058597112,10.093504659751847
5455000000.0,21.9,0.1377147155273992,-0.007260895755771905,-0.004546093600231803,0.7089690178704902,1.1638579761726797,9.7138598808634
5460000000.0,21.9,0.14027904707219832,-0.005578804950257037,-0.007197005174341364,0.7412443423776435,1.1312896242157964,9.52747093946051
5465000000.0,21.9,0.1358233616105034,-0.006877391004523838,-0.0041095292162107834,0.8064804184532042,1.1632691630935916,9.456450572229906
5470000000.0,21.9,0.12933979932979497,0.014393987160587216,-0.002129301687433,0.8267855250217553,1.1108848249927483,9.739569193664792
5475000000.0,21.9,0.13639923810315882,0.005961952394031896,-0.0022357898544998283,0.7171112126906122,1.1492418190359184,10.162667266748572
5480000000.0,21.9,0.13759761564457867,-0.0023422896156144587,-0.004173408203593515,0.73575,1.1740599484605996,9.953222274515124
5485000000.0,21.9,0.14162192650142136,-0.0074206048182765315,-0.002225154950650512,0.7366332196186323,1.1019584719349846,9.62007712152547
5490000000.0,21.9,0.13981218206757107,-0.006260077523246913,-0.0052593404490565545,0.7661615331833154,1.2072189199099892,9.506871533183316
5495000000.0,21.9,0.15224707237850557,0.00010658091944925955,-0.002129301687433,0.8136407595973078,1.2364528269351285,9.557886202013462
5500000000.0,21.9,0.14381506080004586,0.010646404090735164,-0.002129301687433,0.7553695726763957,1.2752996795072968,9.849240747816307
5505000000.0,21.9,0.1374910347251294,0.001160364978360362,-0.002129301687433,0.7165219722879198,1.2461639792159398,9.91722404849614
5510000000.0,21.9,0.13323664311707162,-0.002065457482193683,-0.005259410013343379,0.7449717210754172,1.2170282789245828,9.754473580572636
5515000000.0,21.9,0.13624933746686632,-0.003162024631506036,-0.0053232542185827,0.7360441928777419,1.2545032284890323,9.694045157266451
5520000000.0,21.9,0.13738395296354952,-0.002171876084973686,-0.0053232542185827,0.7640031216581313,1.2839331216581313,9.46625502673495
5525000000.0,21.9,0.12931920489697935,0.007984997795354248,-0.0033003943220252124,0.7372211780505118,1.2757903926835041,9.605953717063937
5530000000.0,21.9,0.12589021490863636,-0.005493761555610217,-0.0011923856303863562,0.7080854777591548,1.2753,9.724458088963381
5535000000.0,21.9,0.12371833882366261,-0.00044708334739229465,-0.0030449247486855,0.7975540751073408,1.2479297774677978,9.786260445064405
5540000000.0,21.9,0.12552829195037324,-0.0009794904545873317,-0.005152933440324355,0.7502681543528815,1.2819712304314126,9.88063307607853
5545000000.0,21.9,0.12860514459870234,-9.580688702628991e-05,-0.0033855663052021886,0.8080504539348047,1.3208188308198883,9.549246107211061
5550000000.0,21.9,0.12505977542460867,0.005749184752758711,-0.0031939525311496,0.7171098141769982,1.2802044609895447,9.603991078020911
5555000000.0,21.9,0.12368641092401904,-0.005930257429348728,-0.004141503492045567,0.7150510078992102,1.3102240315968403,9.58760697630237
5560000000.0,21.9,0.10575276715466242,0.0019164887239730187,-0.0042586033748661,0.7765603559743036,1.2195780120403803,9.713863619944936
5565000000.0,21.9,0.10982248203058154,-0.004216111189664452,-0.0042586033748661,0.7591955757196558,1.198095191906552,9.927820586149306
5570000000.0,21.9,0.12178083852305566,-0.000745196882559516,-0.0033429919076614976,0.7975535409528354,1.2305668327622685,9.779979127998091
5575000000.0,21.9,0.13080903079565862,0.0018099299386149616,-0.0031939525311496,0.7543883502738835,1.2944302580138027,9.634399483972395
5580000000.0,21.9,0.13566379167657242,0.002129301687433,-0.004982589473970403,0.7125979664607797,1.403616100617661,9.54787593292156
5585000000.0,21.9,0.13192676129823064,-0.0031727301536465095,-0.003555910271556141,0.7226048169638482,1.3898803660723036,9.567889633927697
5590000000.0,21.9,0.11879951028858818,0.0009795494788306788,-0.004066978006765716,0.7742058514742586,1.391254308579043,9.759579097317992
5595000000.0,21.9,0.10835534433571142,0.00385405964287107,-0.005120982352585176,0.7848,1.3294503305907033,9.967060382199405
5600000000.0,21.9,0.10823836250137762,0.0017034059354004002,-0.0053232542185827,0.7298632385870324,1.2831475649068758,9.668731322748913
5605000000.0,21.9,0.11286962913879083,0.0027468228075660825,-0.001958910290883535,0.7083799911295999,1.3063000354816003,9.475869875814398
5610000000.0,21.9,0.12229184828802622,-0.007601760761209981,-0.00189509032774413,0.6833642730974427,1.3910590896751909,9.485289544837595
5615000000.0,21.9,0.124633961884915,-0.003268371561990515,-0.002129301687433,0.8128585631634856,1.4579628543878285,9.632048563163487
5620000000.0,21.9,0.11816078997904768,-0.00025550435548311304,-0.002129301687433,0.7640014900589149,1.4864114183235142,9.859052729043928
5625000000.0,21.9,0.11292275517383749,0.0,-0.0029278016777693405,0.7725380462943805,1.4469743444467436,9.778115424081355
5630000000.0,21.9,0.10239099422002285,0.006302827939513373,-0.0008303920538320943,0.7630214719320147,1.3959624532200243,9.608108340948084
5635000000.0,21.9,0.08818399041960935,0.0054083787715640645,-0.003886034972710258,0.676594496015745,1.304434496015745,9.586234228359341
5640000000.0,21.9,0.08952570000768102,-0.0034070015915831243,-0.0030235727286478534,0.7392830241530303,1.2611733808995338,9.622433238200932
5645000000.0,21.9,0.10220752045241796,-0.0063879050622992,-0.002129301687433,0.7610595807052958,1.3253320964735211,9.76575898329969
5650000000.0,21.9,0.11473284005109138,-0.0063879050622992,-0.0028745691882837276,0.7759713292334133,1.3949826584668266,9.799208670766587
5655000000.0,21.9,0.1182460568226158,-0.001245558041624308,-0.0009900895222889226,0.7848,1.4261780196831801,9.661768813009788
5660000000.0,21.9,0.1080985453173165,0.00034067633866008537,-0.002171923515169312,0.7647872701838727,1.4522727298161273,9.60399
5665000000.0,21.9,0.09405022762499309,-0.0014266560143185861,-0.00248062452399024,0.7685156200716562,1.3959618996417191,9.689436530465764
5670000000.0,21.9,0.09088839376827361,0.002086787368140095,-0.0028319831966952375,0.7620405797341058,1.350640579734106,9.77684297093063
5675000000.0,21.9,0.09438047248264263,0.0035665683635010496,-0.0031939525311496,0.7426167795398678,1.3503466102300663,9.755553728389538
5680000000.0,21.9,0.10542154530409933,0.00046839847727782194,-0.0018311755042136788,0.7231929793456299,1.422843613599036,9.574557241820372
5685000000.0,21.9,0.11414721099445416,-0.003076876890428984,-0.002406134874858177,0.7223104104243041,1.5173136938187368,9.529532872970128
5690000000.0,21.9,0.11149608651146671,-0.007559080963234651,-0.0025338570134758524,0.780680794692808,1.5803915526071155,9.585351552607115
5695000000.0,21.9,0.09761291918772266,-0.0024379183759064144,-0.001479852667656436,0.8142300000000001,1.5571405256702053,9.705721580515215
5700000000.0,21.9,0.08479845889655058,0.0014904991655535576,-0.0017034533655959421,0.7671411142747112,1.4773850035590501,9.782532221431323
5705000000.0,21.9,0.0759302781684207,0.004205430963628222,-0.0027574577114153798,0.73575,1.4189179567488797,9.645679729680499
5710000000.0,21.9,0.07552883469517574,0.005152886010128743,-0.001958933478979143,0.6902307127208072,1.3857602672703029,9.5508199109099
5715000000.0,21.9,0.0886954059762531,-0.00302375296339106,-0.0010646508437165,0.6684536220140362,1.4460935430912356,9.566123622014036
5720000000.0,21.9,0.09812801971634696,-0.005536124098277407,-0.0022570839042984686,0.7538019554579196,1.5064237111041372,9.66795308877033
5725000000.0,21.9,0.09672260821362265,-0.004950662628331159,-0.0020228124663618755,0.7872519439937196,1.516135611201256,9.806077334415074
5730000000.0,21.9,0.08790720255437107,-0.0029383638553188134,-0.001639574378213213,0.7916675564918757,1.50995497740325,9.742504751435748
5735000000.0,21.9,0.07807128514431318,0.005078493329396483,-0.0015650246508334084,0.7986317658135177,1.4697335316270352,9.596435297440554
5740000000.0,21.9,0.07289957402909024,0.00902822705474633,-0.002171911921121492,0.738888196566482,1.447171311492613,9.616155737911358
5745000000.0,21.9,0.07409033469579304,0.0014584142192625143,-0.0021079844495388517,0.7015132115897321,1.4218607304616073,9.707682481128124
5750000000.0,21.9,0.07990124588260021,-0.0026615665040414654,-0.0015969883866247267,0.7112251116868511,1.43716600518166,9.751140223373701
5755000000.0,21.9,0.0877903450925501,-0.00313014627006673,-0.0010859195974107893,0.7257440235679402,1.5005380471358805,9.717686893944268
5760000000.0,21.9,0.0896107159982148,-0.004343726873843169,-0.0010220890942279676,0.7781302069298022,1.5346767356432673,9.611444145545843
5765000000.0,21.9,0.07977570033207165,0.0013734846570851301,-0.002129301687433,0.7917643161525432,1.5315367520871674,9.600459743738497
5770000000.0,21.9,0.06802339999588679,0.0014052418080246366,-0.0016395501361132592,0.7643954241506543,1.47915101547271,9.644799151698692
5775000000.0,21.9,0.06524483163142898,-0.0007984272640364589,-0.0015437558971391192,0.7749900000000001,1.4553138365173384,9.650097673034676
5780000000.0,21.9,0.07473866000870695,0.003534677354009581,-0.0016608431319075022,0.7490909263826093,1.4973990736173908,9.69110302453913
5785000000.0,21.9,0.08675762214847714,0.0030341939304407333,-0.0015224629013448762,0.7245668247333683,1.5725441236668414,9.647250639233107
5790000000.0,21.9,0.08848217351906339,0.0,-0.0025764672471642967,0.73575,1.6820240620294407,9.566319375072394
5795000000.0,21.9,0.07891439173896271,-0.003492152494673187,-0.0018843953456471598,0.767927700487377,1.7157678743907787,9.595162125609221
5800000000.0,21.9,0.061145571579559424,-0.005110226238236088,0.0,0.7906853240517533,1.6068765354454655,9.664812337974125
5805000000.0,21.9,0.04497763374808212,0.0024913563962394177,-0.00041522606603988996,0.7630220255103203,1.492099872448399,9.67864398724484
5810000000.0,21.9,0.045293088609406,0.005174166357870857,-0.0006600712755737315,0.7265271329203714,1.4248041742954418,9.67266
5815000000.0,21.9,0.05188352525474082,0.0012242871799213288,-0.0011817992107369774,0.676498503595185,1.4271592517975924,9.61458299280963
5820000000.0,21.9,0.062423568712934994,-0.0032791614044786477,-0.002427379386452513,0.7188765739069657,1.4801337043721372,9.575739121790791
5825000000.0,21.9,0.07072777172442068,-0.006068534367485508,-0.0010646508437165,0.7440897445799974,1.5715633577236336,9.696204452574545
5830000000.0,21.9,0.0705998661890468,-0.004194613717027092,-0.0014266444202707823,0.8108944867592449,1.618060380833204,9.741723079444531
5835000000.0,21.9,0.06357321973712013,-0.00033012786316719087,-0.0014266075301186784,0.7914703466485035,1.55979,9.712584319904643
5840000000.0,21.9,0.05833510061156233,-0.0015755478302221415,-0.0006814011615200783,0.7589013731300138,1.55979,9.558863432825035
5845000000.0,21.9,0.05392755693659276,0.0037474723993957968,-0.002129301687433,0.7394775729357758,1.5902021353211213,9.543757281192674
5850000000.0,21.9,0.05667438079816321,-0.0014904865175014077,-0.0014904865175014077,0.7612573635507737,1.654946886370769,9.631459818067698
5855000000.0,21.9,0.05749402622368529,0.001235044348274727,-0.00030876108706867454,0.8152098627364986,1.6366999450945996,9.775470164716202
5860000000.0,21.9,0.051606568748807195,0.0042586033748661,-0.0010646508437165,0.7483069138234691,1.6005992585295927,9.75741418853164
5865000000.0,21.9,0.04805650700913594,0.005121007648689421,-0.0010646508437165,0.7235842329529423,1.574112372158824,9.506675255682351
5870000000.0,21.9,0.041496200667672234,0.0038538751921105676,-0.0010646508437165,0.6478528560708287,1.54193500187605,9.550624284106243
5875000000.0,21.9,0.03861105876179559,-0.006654080157779388,-0.0007984757482363115,0.6842478423444784,1.4960252282296522,9.616253527033436
5880000000.0,21.9,0.040687177497947286,-0.007963613101181858,-0.00025552859758306684,0.7204470852716708,1.5201580568477806,9.701306113695562
5885000000.0,21.9,0.04841003468455452,-0.008847211294390941,-0.0010646508437165,0.778718485854385,1.5702877287815773,9.742898685527486
5890000000.0,21.9,0.06025153347330503,-0.004982491451566214,-0.0008304152419276762,0.8240400000000001,1.6641697728741975,9.665203484750535
5895000000.0,21.9,0.057025579262207624,0.0013415346233502552,-0.0006707673116751276,0.8116787129801872,1.739508283973583,9.587508283973582
5900000000.0,21.9,0.04581109107117572,0.006174962456304619,-0.0029810099251549992,0.7671421146004213,1.6500403955941043,9.517661541598315
5905000000.0,21.9,0.023290646049415508,0.005930142542875097,-0.0017247094712380816,0.7693979559073796,1.5252578824196787,9.519822264555723
5910000000.0,21.9,0.020416312958105243,0.00736730908853022,0.00038329922040067517,0.7314326816427268,1.4669877443839774,9.696402381098524
5915000000.0,21.9,0.03179734332181572,0.0015862923505233519,0.0017672954628265678,0.6737512595671127,1.4927878148917781,9.825890591515106
5920000000.0,21.9,0.038603367311951416,-0.0015757206869347995,-0.000340713228812189,0.6921925650999257,1.5229060098445601,9.67893598523316
5925000000.0,21.9,0.05161727743296074,-0.006018032855096165,-0.001969591570924027,0.6415758413762584,1.6735887620643874,9.501475154741952
5930000000.0,21.9,0.05224276528813852,-0.01374881800321127,-0.0010646508437165,0.8065808492121086,1.8531072722529727,9.510797879578378
