#timestamp [ns], temperature [degC], w_RS_S_x [rad s^-1], w_RS_S_y [rad s^-1], w_RS_S_z [rad s^-1], a_RS_S_x [m s^-2], a_RS_S_y [m s^-2], a_RS_S_z [m s^-2]
0,22.35,0.0,0.0,0.0,0.02943,0.16677000000000003,9.79038
5050505,22.35,0.0,0.0,0.0,0.009810000000000001,0.16677000000000003,9.80019
10101010,22.35,0.0,0.0,0.0,0.019620000000000002,0.16677000000000003,9.819809999999999
15151515,22.35,0.0,0.0,0.0,0.039240000000000004,0.14715,9.80019
20202020,22.35,0.0,0.0,0.0,0.039240000000000004,0.14715,9.819809999999999
25252525,22.35,0.0,0.0,0.0,0.04905,0.14715,9.81
30303030,22.35,0.0,0.0,0.0,0.04905,0.14715,9.79038
35353535,22.35,0.0,0.0,0.0,0.04905,0.16677000000000003,9.81
40404040,22.35,0.0,0.0,0.0,0.009810000000000001,0.16677000000000003,9.80019
45454545,22.35,0.0,0.0,0.0,0.039240000000000004,0.17658,9.81
50505050,22.35,0.0,0.0,0.0,0.02943,0.18639,9.80019
55555555,22.35,0.0,0.0,0.0,0.04905,0.17658,9.80019
60606060,22.35,0.0,0.0,0.0,0.019620000000000002,0.16677000000000003,9.770760000000001
65656565,22.35,0.0,0.0,0.0,0.0,0.15696000000000002,9.79038
70707070,22.35,0.0,0.0,0.0,0.039240000000000004,0.15696000000000002,9.819809999999999
75757575,22.35,0.0,0.0,0.0,0.039240000000000004,0.16677000000000003,9.81
80808080,22.35,0.0,0.0,0.0,0.05886,0.17658,9.81
85858585,22.35,0.0,0.0,0.0,0.04905,0.13734000000000002,9.79038
90909090,22.35,0.0,0.0,0.0,0.02943,0.15696000000000002,9.760950000000001
95959595,22.35,0.0,0.0,0.0,0.039240000000000004,0.14715,9.78057
101010100,22.35,0.0,0.0,0.0,0.04905,0.16677000000000003,9.82962
106060605,22.35,0.0,0.0,0.0,0.04905,0.15696000000000002,9.81
111111110,22.35,0.0,0.0,0.0,0.02943,0.12753,9.80019
116161615,22.35,0.0,0.0,0.0,0.02943,0.15696000000000002,9.78057
121212120,22.35,0.0,0.0,0.0,0.019620000000000002,0.17658,9.78057
126262625,22.35,0.0,0.0,0.0,0.02943,0.13734000000000002,9.80019
131313130,22.35,0.0,0.0,0.0,0.039240000000000004,0.13734000000000002,9.80019
136363635,22.35,0.0,0.0,0.0,0.039240000000000004,0.15696000000000002,9.78057
141414140,22.35,0.0,0.0,0.0,0.02943,0.18639,9.80019
146464645,22.35,0.0,0.0,0.0,0.039240000000000004,0.14715,9.80019
151515150,22.35,0.0,0.0,0.0,0.039240000000000004,0.17658,9.80019
156565655,22.35,0.0,0.0,0.0,0.039240000000000004,0.14715,9.80019
161616160,22.35,0.0,0.0,0.0,0.039240000000000004,0.14715,9.770760000000001
166666665,22.35,0.0,0.0,0.0,0.02943,0.16677000000000003,9.79038
171717170,22.35,0.0,0.0,0.0,0.04905,0.17658,9.81
176767675,22.35,0.0,0.0,0.0,0.039240000000000004,0.18639,9.79038
181818180,22.35,0.0,0.0,0.0,0.009810000000000001,0.15696000000000002,9.81
186868685,22.35,0.0,0.0,0.0,0.02943,0.12753,9.760950000000001
191919190,22.35,0.0,0.0,0.0,0.019620000000000002,0.14715,9.80019
196969695,22.35,0.0,0.0,0.0,0.009810000000000001,0.14715,9.81
202020200,22.35,0.0,0.0,0.0,0.009810000000000001,0.15696000000000002,9.80019
207070705,22.35,0.0,0.0,0.0,0.039240000000000004,0.15696000000000002,9.78057
212121210,22.35,0.0,0.0,0.0,0.039240000000000004,0.17658,9.81
217171715,22.35,0.0,0.0,0.0,0.039240000000000004,0.17658,9.80019
222222220,22.35,0.0,0.0,0.0,0.02943,0.13734000000000002,9.78057
227272725,22.35,0.0,0.0,0.0,0.019620000000000002,0.14715,9.78057
232323230,22.35,0.0,0.0,0.0,0.04905,0.13734000000000002,9.82962
237373735,22.35,0.0,0.0,0.0,0.04905,0.14715,9.819809999999999
242424240,22.35,0.0,0.0,0.0,0.039240000000000004,0.15696000000000002,9.81
247474745,22.35,0.0,0.0,0.0,0.02943,0.15696000000000002,9.80019
252525250,22.35,0.0,0.0,0.0,0.05886,0.17658,9.79038
257575755,22.35,0.0,0.0,0.0,0.04905,0.15696000000000002,9.80019
262626260,22.35,0.0,0.0,0.0,0.039240000000000004,0.14715,9.770760000000001
267676765,22.35,0.0,0.0,0.0,0.039240000000000004,0.16677000000000003,9.80019
272727270,22.35,0.0,0.0,0.0,0.02943,0.16677000000000003,9.81
277777775,22.35,0.0,0.0,0.0,0.039240000000000004,0.14715,9.819809999999999
282828280,22.35,0.0,0.0,0.0,0.02943,0.15696000000000002,9.80019
287878785,22.35,0.0,0.0,0.0,0.039240000000000004,0.13734000000000002,9.80019
292929290,22.35,0.0,0.0,0.0,0.009810000000000001,0.13734000000000002,9.770760000000001
297979795,22.35,0.0,0.0,0.0,0.039240000000000004,0.13734000000000002,9.80019
303030300,22.35,0.0,0.0,0.0,0.04905,0.16677000000000003,9.79038
308080805,22.35,0.0,0.0,0.0,0.039240000000000004,0.17658,9.80019
313131310,22.35,0.0,0.0,0.0,0.04905,0.17658,9.78057
318181815,22.35,0.0,0.0,0.0,0.039240000000000004,0.15696000000000002,9.81
323232320,22.35,0.0,0.0,0.0,0.009810000000000001,0.12753,9.79038
328282825,22.35,0.0,0.0,0.0,0.04905,0.15696000000000002,9.81
333333330,22.35,0.0,0.0,0.0,0.009810000000000001,0.16677000000000003,9.79038
338383835,22.35,0.0,0.0,0.0,0.039240000000000004,0.16677000000000003,9.81
343434340,22.35,0.0,0.0,0.0,0.019620000000000002,0.17658,9.80019
348484845,22.35,0.0,0.0,0.0,0.04905,0.16677000000000003,9.80019
353535350,22.35,0.0,0.0,0.0,0.039240000000000004,0.17658,9.79038
358585855,22.35,0.0,0.0,0.0,0.02943,0.15696000000000002,9.78057
363636360,22.35,0.0,0.0,0.0,0.02943,0.13734000000000002,9.79038
368686865,22.35,0.0,0.0,0.0,0.019620000000000002,0.17658,9.80019
373737370,22.35,0.0,0.0,0.0,0.019620000000000002,0.17658,9.79038
378787875,22.35,0.0,0.0,0.0,0.04905,0.17658,9.81
383838380,22.35,0.0,0.0,0.0,0.039240000000000004,0.17658,9.79038
388888885,22.35,0.0,0.0,0.0,0.05886,0.16677000000000003,9.78057
393939390,22.35,0.0,0.0,0.0,0.009810000000000001,0.16677000000000003,9.80019
398989895,22.35,0.0,0.0,0.0,0.04905,0.13734000000000002,9.81
404040400,22.35,0.0,0.0,0.0,0.019620000000000002,0.15696000000000002,9.80019
409090905,22.35,0.0,0.0,0.0,0.009810000000000001,0.16677000000000003,9.80019
414141410,22.35,0.0,0.0,0.0,0.019620000000000002,0.14715,9.81
419191915,22.35,0.0,0.0,0.0,0.02943,0.17658,9.78057
424242420,22.35,0.0,0.0,0.0,0.039240000000000004,0.15696000000000002,9.80019
429292925,22.35,0.0,0.0,0.0,0.06867000000000001,0.14715,9.78057
434343430,22.35,0.0,0.0,0.0,0.019620000000000002,0.14715,9.80019
439393935,22.35,0.0,0.0,0.0,0.039240000000000004,0.16677000000000003,9.81
444444440,22.35,0.0,0.0,0.0,0.02943,0.17658,9.81
449494945,22.35,0.0,0.0,0.0,0.019620000000000002,0.15696000000000002,9.78057
454545450,22.35,0.0,0.0,0.0,0.02943,0.15696000000000002,9.80019
459595955,22.35,0.0,0.0,0.0,0.04905,0.17658,9.79038
464646460,22.35,0.0,0.0,0.0,0.02943,0.14715,9.80019
469696965,22.35,0.0,0.0,0.0,0.039240000000000004,0.15696000000000002,9.78057
474747470,22.35,0.0,0.0,0.0,0.009810000000000001,0.15696000000000002,9.81
479797975,22.35,0.0,0.0,0.0,0.039240000000000004,0.17658,9.80019
484848480,22.35,0.0,0.0,0.0,0.05886,0.14715,9.80019
489898985,22.35,0.0,0.0,0.0,0.02943,0.14715,9.78057
494949490,22.35,0.0,0.0,0.0,0.019620000000000002,0.14715,9.79038
499999995,22.35,0.0,0.0,0.0,0.05886,0.15696000000000002,9.770760000000001
505050500,22.35,0.0,0.0,0.0,0.04905,0.15696000000000002,9.80019
510101005,22.35,0.0,0.0,0.0,0.02943,0.17658,9.79038
515151510,22.35,0.0,0.0,0.0,0.05886,0.16677000000000003,9.770760000000001
520202015,22.35,0.0,0.0,0.0,0.02943,0.15696000000000002,9.819809999999999
525252520,22.35,0.0,0.0,0.0,0.05886,0.17658,9.79038
530303025,22.35,0.0,0.0,0.0,0.02943,0.13734000000000002,9.79038
535353530,22.35,0.0,0.0,0.0,0.009810000000000001,0.13734000000000002,9.81
540404035,22.35,0.0,0.0,0.0,0.02943,0.14715,9.81
545454540,22.35,0.0,0.0,0.0,0.02943,0.18639,9.819809999999999
550505045,22.35,0.0,0.0,0.0,0.02943,0.17658,9.81
555555550,22.35,0.0,0.0,0.0,0.039240000000000004,0.13734000000000002,9.78057
560606055,22.35,0.0,0.0,0.0,0.019620000000000002,0.14715,9.770760000000001
565656560,22.35,0.0,0.0,0.0,0.009810000000000001,0.13734000000000002,9.79038
570707065,22.35,0.0,0.0,0.0,0.009810000000000001,0.1962,9.81
575757570,22.35,0.0,0.0,0.0,0.0,0.16677000000000003,9.81
580808075,22.35,0.0,0.0,0.0,0.009810000000000001,0.15696000000000002,9.78057
585858580,22.35,0.0,0.0,0.0,0.05886,0.16677000000000003,9.80019
590909085,22.35,0.0,0.0,0.0,0.039240000000000004,0.11772,9.81
595959590,22.35,0.0,0.0,0.0,0.009810000000000001,0.14715,9.79038
601010095,22.35,0.0,0.0,0.0,0.039240000000000004,0.15696000000000002,9.81
606060600,22.35,0.0,0.0,0.0,0.04905,0.17658,9.81
611111105,22.35,0.0,0.0,0.0,0.019620000000000002,0.15696000000000002,9.81
616161610,22.35,0.0,0.0,0.0,0.05886,0.16677000000000003,9.80019
621212115,22.35,0.0,0.0,0.0,0.039240000000000004,0.17658,9.80019
626262620,22.35,0.0,0.0,0.0,0.009810000000000001,0.14715,9.79038
631313125,22.35,0.0,0.0,0.0,0.019620000000000002,0.15696000000000002,9.80019
636363630,22.35,0.0,0.0,0.0,0.05886,0.14715,9.80019
641414135,22.35,0.0,0.0,0.0,0.02943,0.14715,9.81
646464640,22.35,0.0,0.0,0.0,0.019620000000000002,0.15696000000000002,9.80019
651515145,22.35,0.0,0.0,0.0,0.019620000000000002,0.17658,9.81
656565650,22.35,0.0,0.0,0.0,0.019620000000000002,0.15696000000000002,9.81
661616155,22.35,0.0,0.0,0.0,0.019620000000000002,0.14715,9.79038
666666660,22.35,0.0,0.0,0.0,0.05886,0.15696000000000002,9.760950000000001
671717165,22.35,0.0,0.0,0.0,0.04905,0.15696000000000002,9.819809999999999
676767670,22.35,0.0,0.0,0.0,0.02943,0.20601000000000003,9.79038
681818175,22.35,0.0,0.0,0.0,0.07848000000000001,0.15696000000000002,9.819809999999999
686868680,22.35,0.0,0.0,0.0,0.04905,0.15696000000000002,9.79038
691919185,22.35,0.0,0.0,0.0,0.019620000000000002,0.16677000000000003,9.81
696969690,22.35,0.0,0.0,0.0,0.039240000000000004,0.14715,9.79038
702020195,22.35,0.0,0.0,0.0,0.04905,0.16677000000000003,9.81
707070700,22.35,0.0,0.0,0.0,0.02943,0.17658,9.80019
712121205,22.35,0.0,0.0,0.0,0.05886,0.16677000000000003,9.819809999999999
717171710,22.35,0.0,0.0,0.0,0.05886,0.15696000000000002,9.81
722222215,22.35,0.0,0.0,0.0,0.039240000000000004,0.18639,9.81
727272720,22.35,0.0,0.0,0.0,0.039240000000000004,0.15696000000000002,9.79038
732323225,22.35,0.0,0.0,0.0,0.039240000000000004,0.14715,9.78057
737373730,22.35,0.0,0.0,0.0,0.02943,0.17658,9.80019
742424235,22.35,0.0,0.0,0.0,0.039240000000000004,0.16677000000000003,9.81
747474740,22.35,0.0,0.0,0.0,0.02943,0.15696000000000002,9.80019
752525245,22.35,0.0,0.0,0.0,0.039240000000000004,0.17658,9.79038
757575750,22.35,0.0,0.0,0.0,0.04905,0.17658,9.79038
762626255,22.35,0.0,0.0,0.0,0.05886,0.14715,9.79038
767676760,22.35,0.0,0.0,0.0,0.02943,0.14715,9.79038
772727265,22.35,0.0,0.0,0.0,0.019620000000000002,0.15696000000000002,9.79038
777777770,22.35,0.0,0.0,0.0,0.019620000000000002,0.16677000000000003,9.81
782828275,22.35,0.0,0.0,0.0,0.019620000000000002,0.14715,9.80019
787878780,22.35,0.0,0.0,0.0,0.04905,0.16677000000000003,9.79038
792929285,22.35,0.0,0.0,0.0,0.04905,0.15696000000000002,9.79038
797979790,22.35,0.0,0.0,0.0,0.05886,0.14715,9.78057
803030295,22.35,0.0,0.0,0.0,0.039240000000000004,0.14715,9.80019
808080800,22.35,0.0,0.0,0.0,0.039240000000000004,0.17658,9.80019
813131305,22.35,0.0,0.0,0.0,0.02943,0.17658,9.80019
818181810,22.35,0.0,0.0,0.0,0.039240000000000004,0.17658,9.80019
823232315,22.35,0.0,0.0,0.0,0.04905,0.17658,9.80019
828282820,22.35,0.0,0.0,0.0,0.019620000000000002,0.14715,9.770760000000001
833333325,22.35,0.0,0.0,0.0,0.039240000000000004,0.15696000000000002,9.78057
838383830,22.35,0.0,0.0,0.0,0.05886,0.16677000000000003,9.79038
843434335,22.35,0.0,0.0,0.0,0.05886,0.18639,9.81
848484840,22.35,0.0,0.0,0.0,0.019620000000000002,0.15696000000000002,9.819809999999999
853535345,22.35,0.0,0.0,0.0,0.019620000000000002,0.14715,9.80019
858585850,22.35,0.0,0.0,0.0,0.04905,0.15696000000000002,9.79038
863636355,22.35,0.0,0.0,0.0,0.04905,0.13734000000000002,9.79038
868686860,22.35,0.0,0.0,0.0,0.02943,0.15696000000000002,9.78057
873737365,22.35,0.0,0.0,0.0,0.039240000000000004,0.18639,9.79038
878787870,22.35,0.0,0.0,0.0,0.019620000000000002,0.18639,9.81
883838375,22.35,0.0,0.0,0.0,0.039240000000000004,0.14715,9.819809999999999
888888880,22.35,0.0,0.0,0.0,0.02943,0.14715,9.81
893939385,22.35,0.0,0.0,0.0,0.0,0.14715,9.80019
898989890,22.35,0.0,0.0,0.0,0.04905,0.14715,9.81
904040395,22.35,0.0,0.0,0.0,0.019620000000000002,0.14715,9.79038
909090900,22.35,0.0,0.0,0.0,0.02943,0.17658,9.80019
914141405,22.35,0.0,0.0,0.0,0.05886,0.15696000000000002,9.81
919191910,22.35,0.0,0.0,0.0,0.009810000000000001,0.16677000000000003,9.80019
924242415,22.35,0.0,0.0,0.0,0.02943,0.15696000000000002,9.80019
929292920,22.35,0.0,0.0,0.0,0.05886,0.17658,9.79038
934343425,22.35,0.0,0.0,0.0,0.039240000000000004,0.14715,9.80019
939393930,22.35,0.0,0.0,0.0,0.039240000000000004,0.12753,9.80019
944444435,22.35,0.0,0.0,0.0,0.02943,0.17658,9.81
949494940,22.35,0.0,0.0,0.0,0.039240000000000004,0.17658,9.79038
954545445,22.35,0.0,0.0,0.0,0.039240000000000004,0.15696000000000002,9.80019
959595950,22.35,0.0,0.0,0.0,0.019620000000000002,0.16677000000000003,9.80019
964646455,22.35,0.0,0.0,0.0,0.039240000000000004,0.13734000000000002,9.79038
969696960,22.35,0.0,0.0,0.0,0.019620000000000002,0.15696000000000002,9.79038
974747465,22.35,0.0,0.0,0.0,0.019620000000000002,0.16677000000000003,9.80019
979797970,22.35,0.0,0.0,0.0,0.019620000000000002,0.14715,9.81
984848475,22.35,0.0,0.0,0.0,0.019620000000000002,0.18639,9.81
989898980,22.35,0.0,0.0,0.0,0.02943,0.17658,9.81
994949485,22.35,0.0,0.0,0.0,0.06867000000000001,0.15696000000000002,9.78057
999999990,22.35,0.0,0.0,0.0,0.02943,0.15696000000000002,9.78057
1005050495,22.35,0.0,0.0,0.0,0.04905,0.16677000000000003,9.79038
1010101000,22.35,0.0,0.0,0.0,0.039240000000000004,0.15696000000000002,9.819809999999999
1015151505,22.35,0.0,0.0,0.0,0.039240000000000004,0.16677000000000003,9.81
1020202010,22.35,0.0,0.0,0.0,0.02943,0.15696000000000002,9.81
1025252515,22.35,0.0,0.0,0.0,0.04905,0.16677000000000003,9.81
1030303020,22.35,0.0,0.0,0.0,0.04905,0.13734000000000002,9.80019
1035353525,22.35,0.0,0.0,0.0,0.019620000000000002,0.16677000000000003,9.770760000000001
1040404030,22.35,0.0,0.0,0.0,0.019620000000000002,0.16677000000000003,9.770760000000001
1045454535,22.35,0.0,0.0,0.0,0.02943,0.18639,9.79038
1050505040,22.35,0.0,0.0,0.0,0.019620000000000002,0.18639,9.78057
1055555545,22.35,0.0,0.0,0.0,0.05886,0.14715,9.80019
1060606050,22.35,0.0,0.0,0.0,0.05886,0.12753,9.81
1065656555,22.35,0.0,0.0,0.0,0.039240000000000004,0.13734000000000002,9.80019
1070707060,22.35,0.0,0.0,0.0,0.039240000000000004,0.13734000000000002,9.80019
1075757565,22.35,0.0,0.0,0.0,0.019620000000000002,0.17658,9.770760000000001
1080808070,22.35,0.0,0.0,0.0,0.04905,0.18639,9.79038
1085858575,22.35,0.0,0.0,0.0,0.05886,0.16677000000000003,9.81
1090909080,22.35,0.0,0.0,0.0,0.05886,0.16677000000000003,9.80019
1095959585,22.35,0.0,0.0,0.0,0.02943,0.13734000000000002,9.79038
1101010090,22.35,0.0,0.0,0.0,0.02943,0.13734000000000002,9.80019
1106060595,22.35,0.0,0.0,0.0,0.039240000000000004,0.13734000000000002,9.81
1111111100,22.35,0.0,0.0,0.0,0.02943,0.18639,9.78057
1116161605,22.35,0.0,0.0,0.0,0.039240000000000004,0.16677000000000003,9.79038
1121212110,22.35,0.0,0.0,0.0,0.039240000000000004,0.14715,9.770760000000001
1126262615,22.35,0.0,0.0,0.0,0.05886,0.15696000000000002,9.770760000000001
1131313120,22.35,0.0,0.0,0.0,0.04905,0.14715,9.78057
1136363625,22.35,0.0,0.0,0.0,0.019620000000000002,0.16677000000000003,9.78057
1141414130,22.35,0.0,0.0,0.0,0.019620000000000002,0.14715,9.81
1146464635,22.35,0.0,0.0,0.0,0.019620000000000002,0.13734000000000002,9.81
1151515140,22.35,0.0,0.0,0.0,0.039240000000000004,0.15696000000000002,9.81
1156565645,22.35,0.0,0.0,0.0,0.04905,0.14715,9.80019
1161616150,22.35,0.0,0.0,0.0,0.04905,0.16677000000000003,9.751140000000001
1166666655,22.35,0.0,0.0,0.0,0.05886,0.17658,9.80019
1171717160,22.35,0.0,0.0,0.0,0.039240000000000004,0.15696000000000002,9.80019
1176767665,22.35,0.0,0.0,0.0,0.039240000000000004,0.13734000000000002,9.78057
1181818170,22.35,0.0,0.0,0.0,0.019620000000000002,0.16677000000000003,9.819809999999999
1186868675,22.35,0.0,0.0,0.0,0.02943,0.18639,9.81
1191919180,22.35,0.0,0.0,0.0,0.02943,0.17658,9.81
1196969685,22.35,0.0,0.0,0.0,0.02943,0.15696000000000002,9.79038
1202020190,22.35,0.0,0.0,0.0,0.02943,0.15696000000000002,9.80019
1207070695,22.35,0.0,0.0,0.0,0.02943,0.18639,9.81
1212121200,22.35,0.0,0.0,0.0,0.019620000000000002,0.17658,9.81
1217171705,22.35,0.0,0.0,0.0,0.019620000000000002,0.16677000000000003,9.819809999999999
1222222210,22.35,0.0,0.0,0.0,0.039240000000000004,0.13734000000000002,9.81
1227272715,22.35,0.0,0.0,0.0,0.039240000000000004,0.15696000000000002,9.81
1232323220,22.35,0.0,0.0,0.0,0.039240000000000004,0.16677000000000003,9.79038
1237373725,22.35,0.0,0.0,0.0,0.019620000000000002,0.18639,9.81
1242424230,22.35,0.0,0.0,0.0,0.039240000000000004,0.15696000000000002,9.79038
1247474735,22.35,0.0,0.0,0.0,0.02943,0.18639,9.81
1252525240,22.35,0.0,0.0,0.0,0.04905,0.17658,9.80019
1257575745,22.35,0.0,0.0,0.0,0.04905,0.16677000000000003,9.80019
1262626250,22.35,0.0,0.0,0.0,0.019620000000000002,0.15696000000000002,9.80019
1267676755,22.35,0.0,0.0,0.0,0.019620000000000002,0.16677000000000003,9.78057
1272727260,22.35,0.0,0.0,0.0,0.039240000000000004,0.18639,9.770760000000001
1277777765,22.35,0.0,0.0,0.0,0.02943,0.15696000000000002,9.770760000000001
1282828270,22.35,0.0,0.0,0.0,0.039240000000000004,0.18639,9.79038
1287878775,22.35,0.0,0.0,0.0,0.039240000000000004,0.16677000000000003,9.81
1292929280,22.35,0.0,0.0,0.0,0.039240000000000004,0.15696000000000002,9.80019
1297979785,22.35,0.0,0.0,0.0,0.04905,0.14715,9.81
1303030290,22.35,0.0,0.0,0.0,0.019620000000000002,0.12753,9.79038
1308080795,22.35,0.0,0.0,0.0,0.04905,0.13734000000000002,9.80019
1313131300,22.35,0.0,0.0,0.0,0.019620000000000002,0.14715,9.79038
1318181805,22.35,0.0,0.0,0.0,0.05886,0.16677000000000003,9.79038
1323232310,22.35,0.0,0.0,0.0,0.009810000000000001,0.16677000000000003,9.79038
1328282815,22.35,0.0,0.0,0.0,0.04905,0.14715,9.78057
1333333320,22.35,0.0,0.0,0.0,0.04905,0.15696000000000002,9.80019
1338383825,22.35,0.0,0.0,0.0,0.02943,0.13734000000000002,9.78057
1343434330,22.35,0.0,0.0,0.0,0.02943,0.13734000000000002,9.81
1348484835,22.35,0.0,0.0,0.0,0.02943,0.18639,9.81
1353535340,22.35,0.0,0.0,0.0,0.019620000000000002,0.18639,9.80019
1358585845,22.35,0.0,0.0,0.0,0.039240000000000004,0.18639,9.80019
1363636350,22.35,0.0,0.0,0.0,0.02943,0.18639,9.78057
1368686855,22.35,0.0,0.0,0.0,0.02943,0.15696000000000002,9.79038
1373737360,22.35,0.0,0.0,0.0,0.02943,0.16677000000000003,9.78057
1378787865,22.35,0.0,0.0,0.0,0.02943,0.15696000000000002,9.81
1383838370,22.35,0.0,0.0,0.0,0.02943,0.13734000000000002,9.80019
1388888875,22.35,0.0,0.0,0.0,0.039240000000000004,0.15696000000000002,9.78057
1393939380,22.35,0.0,0.0,0.0,0.02943,0.15696000000000002,9.81
1398989885,22.35,0.0,0.0,0.0,0.009810000000000001,0.17658,9.79038
1404040390,22.35,0.0,0.0,0.0,0.039240000000000004,0.15696000000000002,9.80019
1409090895,22.35,0.0,0.0,0.0,0.039240000000000004,0.14715,9.78057
1414141400,22.35,0.0,0.0,0.0,0.009810000000000001,0.16677000000000003,9.81
1419191905,22.35,0.0,0.0,0.0,0.039240000000000004,0.17658,9.81
1424242410,22.35,0.0,0.0,0.0,0.039240000000000004,0.16677000000000003,9.82962
1429292915,22.35,0.0,0.0,0.0,0.02943,0.15696000000000002,9.81
1434343420,22.35,0.0,0.0,0.0,0.039240000000000004,0.16677000000000003,9.80019
1439393925,22.35,0.0,0.0,0.0,0.04905,0.16677000000000003,9.80019
1444444430,22.35,0.0,0.0,0.0,0.019620000000000002,0.17658,9.80019
1449494935,22.35,0.0,0.0,0.0,0.039240000000000004,0.13734000000000002,9.79038
1454545440,22.35,0.0,0.0,0.0,0.04905,0.15696000000000002,9.81
1459595945,22.35,0.0,0.0,0.0,0.0,0.15696000000000002,9.81
1464646450,22.35,0.0,0.0,0.0,0.02943,0.15696000000000002,9.81
1469696955,22.35,0.0,0.0,0.0,0.039240000000000004,0.15696000000000002,9.81
1474747460,22.35,0.0,0.0,0.0,0.019620000000000002,0.15696000000000002,9.79038
1479797965,22.35,0.0,0.0,0.0,0.04905,0.16677000000000003,9.79038
1484848470,22.35,0.0,0.0,0.0,0.039240000000000004,0.18639,9.80019
1489898975,22.35,0.0,0.0,0.0,0.02943,0.15696000000000002,9.80019
1494949480,22.35,0.0,0.0,0.0,0.039240000000000004,0.17658,9.80019
1499999985,22.35,0.0,0.0,0.0,0.02943,0.14715,9.81
1505050490,22.35,0.0,0.0,0.0,0.039240000000000004,0.16677000000000003,9.78057
1510100995,22.35,0.0,0.0,0.0,0.02943,0.13734000000000002,9.81
1515151500,22.35,0.0,0.0,0.0,0.02943,0.14715,9.81
1520202005,22.35,0.0,0.0,0.0,0.02943,0.16677000000000003,9.81
1525252510,22.35,0.0,0.0,0.0,0.039240000000000004,0.15696000000000002,9.81
1530303015,22.35,0.0,0.0,0.0,0.02943,0.16677000000000003,9.79038
1535353520,22.35,0.0,0.0,0.0,0.039240000000000004,0.16677000000000003,9.81
1540404025,22.35,0.0,0.0,0.0,0.02943,0.14715,9.79038
1545454530,22.35,0.0,0.0,0.0,0.039240000000000004,0.16677000000000003,9.81
1550505035,22.35,0.0,0.0,0.0,0.039240000000000004,0.14715,9.81
1555555540,22.35,0.0,0.0,0.0,0.02943,0.16677000000000003,9.81
1560606045,22.35,0.0,0.0,0.0,0.04905,0.16677000000000003,9.81
1565656550,22.35,0.0,0.0,0.0,0.039240000000000004,0.17658,9.78057
1570707055,22.35,0.0,0.0,0.0,0.05886,0.17658,9.78057
1575757560,22.35,0.0,0.0,0.0,0.009810000000000001,0.17658,9.79038
1580808065,22.35,0.0,0.0,0.0,0.04905,0.16677000000000003,9.81
1585858570,22.35,0.0,0.0,0.0,0.02943,0.12753,9.80019
1590909075,22.35,0.0,0.0,0.0,0.039240000000000004,0.14715,9.819809999999999
1595959580,22.35,0.0,0.0,0.0,0.04905,0.16677000000000003,9.80019
1601010085,22.35,0.0,0.0,0.0,0.02943,0.15696000000000002,9.78057
1606060590,22.35,0.0,0.0,0.0,0.009810000000000001,0.15696000000000002,9.81
1611111095,22.35,0.0,0.0,0.0,0.039240000000000004,0.17658,9.770760000000001
1616161600,22.35,0.0,0.0,0.0,0.039240000000000004,0.16677000000000003,9.81
1621212105,22.35,0.0,0.0,0.0,0.04905,0.17658,9.81
1626262610,22.35,0.0,0.0,0.0,0.04905,0.14715,9.80019
1631313115,22.35,0.0,0.0,0.0,0.02943,0.16677000000000003,9.80019
1636363620,22.35,0.0,0.0,0.0,0.009810000000000001,0.13734000000000002,9.78057
1641414125,22.35,0.0,0.0,0.0,0.02943,0.14715,9.770760000000001
1646464630,22.35,0.0,0.0,0.0,0.039240000000000004,0.17658,9.819809999999999
1651515135,22.35,0.0,0.0,0.0,0.06867000000000001,0.16677000000000003,9.81
1656565640,22.35,0.0,0.0,0.0,0.039240000000000004,0.16677000000000003,9.81
1661616145,22.35,0.0,0.0,0.0,0.019620000000000002,0.16677000000000003,9.80019
1666666650,22.35,0.0,0.0,0.0,0.039240000000000004,0.15696000000000002,9.80019
1671717155,22.35,0.0,0.0,0.0,0.02943,0.14715,9.81
1676767660,22.35,0.0,0.0,0.0,0.04905,0.12753,9.819809999999999
1681818165,22.35,0.0,0.0,0.0,0.039240000000000004,0.14715,9.79038
1686868670,22.35,0.0,0.0,0.0,0.019620000000000002,0.18639,9.78057
1691919175,22.35,0.0,0.0,0.0,0.04905,0.18639,9.79038
1696969680,22.35,0.0,0.0,0.0,0.02943,0.13734000000000002,9.80019
1702020185,22.35,0.0,0.0,0.0,0.039240000000000004,0.16677000000000003,9.81
1707070690,22.35,0.0,0.0,0.0,0.019620000000000002,0.15696000000000002,9.80019
1712121195,22.35,0.0,0.0,0.0,0.02943,0.15696000000000002,9.81
1717171700,22.35,0.0,0.0,0.0,0.04905,0.15696000000000002,9.819809999999999
1722222205,22.35,0.0,0.0,0.0,0.04905,0.14715,9.78057
1727272710,22.35,0.0,0.0,0.0,0.039240000000000004,0.16677000000000003,9.819809999999999
1732323215,22.35,0.0,0.0,0.0,0.009810000000000001,0.17658,9.78057
1737373720,22.35,0.0,0.0,0.0,0.02943,0.15696000000000002,9.770760000000001
1742424225,22.35,0.0,0.0,0.0,0.009810000000000001,0.16677000000000003,9.79038
1747474730,22.35,0.0,0.0,0.0,0.019620000000000002,0.14715,9.81
1752525235,22.35,0.0,0.0,0.0,0.04905,0.16677000000000003,9.81
1757575740,22.35,0.0,0.0,0.0,0.02943,0.14715,9.79038
1762626245,22.35,0.0,0.0,0.0,0.04905,0.16677000000000003,9.79038
1767676750,22.35,0.0,0.0,0.0,0.08829,0.15696000000000002,9.78057
1772727255,22.35,0.0,0.0,0.0,0.04905,0.15696000000000002,9.79038
1777777760,22.35,0.0,0.0,0.0,0.04905,0.17658,9.819809999999999
1782828265,22.35,0.0,0.0,0.0,0.02943,0.16677000000000003,9.81
1787878770,22.35,0.0,0.0,0.0,0.0,0.14715,9.819809999999999
1792929275,22.35,0.0,0.0,0.0,0.04905,0.16677000000000003,9.82962
1797979780,22.35,0.0,0.0,0.0,0.02943,0.13734000000000002,9.81
1803030285,22.35,0.0,0.0,0.0,0.009810000000000001,0.12753,9.81
1808080790,22.35,0.0,0.0,0.0,0.009810000000000001,0.15696000000000002,9.78057
1813131295,22.35,0.0,0.0,0.0,0.039240000000000004,0.15696000000000002,9.81
1818181800,22.35,0.0,0.0,0.0,0.02943,0.14715,9.81
1823232305,22.35,0.0,0.0,0.0,0.019620000000000002,0.15696000000000002,9.80019
1828282810,22.35,0.0,0.0,0.0,0.02943,0.15696000000000002,9.79038
1833333315,22.35,0.0,0.0,0.0,0.06867000000000001,0.14715,9.79038
1838383820,22.35,0.0,0.0,0.0,0.02943,0.13734000000000002,9.78057
1843434325,22.35,0.0,0.0,0.0,0.039240000000000004,0.17658,9.819809999999999
1848484830,22.35,0.0,0.0,0.0,0.039240000000000004,0.14715,9.770760000000001
1853535335,22.35,0.0,0.0,0.0,0.05886,0.15696000000000002,9.79038
1858585840,22.35,0.0,0.0,0.0,0.019620000000000002,0.16677000000000003,9.81
1863636345,22.35,0.0,0.0,0.0,0.019620000000000002,0.16677000000000003,9.80019
1868686850,22.35,0.0,0.0,0.0,0.039240000000000004,0.13734000000000002,9.78057
1873737355,22.35,0.0,0.0,0.0,0.019620000000000002,0.16677000000000003,9.78057
1878787860,22.35,0.0,0.0,0.0,0.019620000000000002,0.14715,9.79038
1883838365,22.35,0.0,0.0,0.0,0.04905,0.15696000000000002,9.81
1888888870,22.35,0.0,0.0,0.0,0.039240000000000004,0.16677000000000003,9.80019
1893939375,22.35,0.0,0.0,0.0,0.02943,0.15696000000000002,9.819809999999999
1898989880,22.35,0.0,0.0,0.0,0.039240000000000004,0.17658,9.81
1904040385,22.35,0.0,0.0,0.0,0.02943,0.17658,9.79038
1909090890,22.35,0.0,0.0,0.0,0.039240000000000004,0.16677000000000003,9.770760000000001
1914141395,22.35,0.0,0.0,0.0,0.02943,0.16677000000000003,9.80019
1919191900,22.35,0.0,0.0,0.0,0.02943,0.15696000000000002,9.81
1924242405,22.35,0.0,0.0,0.0,0.039240000000000004,0.13734000000000002,9.819809999999999
1929292910,22.35,0.0,0.0,0.0,0.009810000000000001,0.14715,9.81
1934343415,22.35,0.0,0.0,0.0,0.039240000000000004,0.16677000000000003,9.78057
1939393920,22.35,0.0,0.0,0.0,0.039240000000000004,0.15696000000000002,9.79038
1944444425,22.35,0.0,0.0,0.0,0.039240000000000004,0.16677000000000003,9.80019
1949494930,22.35,0.0,0.0,0.0,0.019620000000000002,0.15696000000000002,9.79038
1954545435,22.35,0.0,0.0,0.0,0.04905,0.15696000000000002,9.81
1959595940,22.35,0.0,0.0,0.0,0.039240000000000004,0.15696000000000002,9.819809999999999
1964646445,22.35,0.0,0.0,0.0,0.02943,0.16677000000000003,9.80019
1969696950,22.35,0.0,0.0,0.0,0.039240000000000004,0.16677000000000003,9.81
1974747455,22.35,0.0,0.0,0.0,0.009810000000000001,0.15696000000000002,9.78057
1979797960,22.35,0.0,0.0,0.0,0.009810000000000001,0.15696000000000002,9.79038
1984848465,22.35,0.0,0.0,0.0,0.019620000000000002,0.17658,9.81
1989898970,22.35,0.0,0.0,0.0,0.039240000000000004,0.15696000000000002,9.81
1994949475,22.35,0.0,0.0,0.0,0.04905,0.15696000000000002,9.79038
1999999980,22.35,0.0,0.0,0.0,0.019620000000000002,0.14715,9.81
2005050485,22.35,0.0,0.0,0.0,0.02943,0.15696000000000002,9.80019
2010100990,22.35,0.0,0.0,0.0,0.02943,0.17658,9.81
2015151495,22.35,0.0,0.0,0.0,0.02943,0.16677000000000003,9.80019
2020202000,22.35,0.0,0.0,0.0,0.04905,0.15696000000000002,9.770760000000001
2025252505,22.35,0.0,0.0,0.0,0.04905,0.17658,9.78057
2030303010,22.35,0.0,0.0,0.0,0.02943,0.15696000000000002,9.81
2035353515,22.35,0.0,0.0,0.0,0.039240000000000004,0.17658,9.80019
2040404020,22.35,0.0,0.0,0.0,0.039240000000000004,0.14715,9.78057
2045454525,22.35,0.0,0.0,0.0,0.039240000000000004,0.15696000000000002,9.81
2050505030,22.35,0.0,0.0,0.0,0.02943,0.17658,9.80019
2055555535,22.35,0.0,0.0,0.0,0.039240000000000004,0.15696000000000002,9.80019
2060606040,22.35,0.0,0.0,0.0,0.02943,0.17658,9.81
2065656545,22.35,0.0,0.0,0.0,0.019620000000000002,0.14715,9.78057
2070707050,22.35,0.0,0.0,0.0,0.02943,0.14715,9.79038
2075757555,22.35,0.0,0.0,0.0,0.02943,0.15696000000000002,9.80019
2080808060,22.35,0.0,0.0,0.0,0.009810000000000001,0.15696000000000002,9.82962
2085858565,22.35,0.0,0.0,0.0,0.039240000000000004,0.15696000000000002,9.81
2090909070,22.35,0.0,0.0,0.0,0.04905,0.17658,9.78057
2095959575,22.35,0.0,0.0,0.0,0.039240000000000004,0.18639,9.80019
2101010080,22.35,0.0,0.0,0.0,0.039240000000000004,0.16677000000000003,9.81
2106060585,22.35,0.0,0.0,0.0,0.039240000000000004,0.18639,9.80019
2111111090,22.35,0.0,0.0,0.0,0.05886,0.14715,9.79038
2116161595,22.35,0.0,0.0,0.0,0.039240000000000004,0.16677000000000003,9.82962
2121212100,22.35,0.0,0.0,0.0,0.039240000000000004,0.15696000000000002,9.78057
2126262605,22.35,0.0,0.0,0.0,0.039240000000000004,0.15696000000000002,9.81
2131313110,22.35,0.0,0.0,0.0,0.039240000000000004,0.17658,9.79038
2136363615,22.35,0.0,0.0,0.0,0.039240000000000004,0.14715,9.819809999999999
2141414120,22.35,0.0,0.0,0.0,0.039240000000000004,0.13734000000000002,9.81
2146464625,22.35,0.0,0.0,0.0,0.04905,0.15696000000000002,9.770760000000001
2151515130,22.35,0.0,0.0,0.0,0.04905,0.18639,9.80019
2156565635,22.35,0.0,0.0,0.0,0.02943,0.17658,9.78057
2161616140,22.35,0.0,0.0,0.0,0.02943,0.16677000000000003,9.81
2166666645,22.35,0.0,0.0,0.0,0.02943,0.16677000000000003,9.80019
2171717150,22.35,0.0,0.0,0.0,0.02943,0.14715,9.770760000000001
2176767655,22.35,0.0,0.0,0.0,0.02943,0.15696000000000002,9.79038
2181818160,22.35,0.0,0.0,0.0,0.02943,0.17658,9.79038
2186868665,22.35,0.0,0.0,0.0,0.05886,0.17658,9.78057
2191919170,22.35,0.0,0.0,0.0,0.04905,0.17658,9.80019
2196969675,22.35,0.0,0.0,0.0,0.019620000000000002,0.13734000000000002,9.80019
2202020180,22.35,0.0,0.0,0.0,0.039240000000000004,0.17658,9.79038
2207070685,22.35,0.0,0.0,0.0,0.02943,0.14715,9.79038
2212121190,22.35,0.0,0.0,0.0,0.039240000000000004,0.15696000000000002,9.79038
2217171695,22.35,0.0,0.0,0.0,0.009810000000000001,0.15696000000000002,9.79038
2222222200,22.35,0.0,0.0,0.0,0.02943,0.16677000000000003,9.81
2227272705,22.35,0.0,0.0,0.0,0.02943,0.18639,9.80019
2232323210,22.35,0.0,0.0,0.0,0.02943,0.16677000000000003,9.78057
2237373715,22.35,0.0,0.0,0.0,0.009810000000000001,0.11772,9.79038
2242424220,22.35,0.0,0.0,0.0,0.039240000000000004,0.14715,9.80019
2247474725,22.35,0.0,0.0,0.0,0.02943,0.17658,9.79038
2252525230,22.35,0.0,0.0,0.0,0.019620000000000002,0.11772,9.79038
2257575735,22.35,0.0,0.0,0.0,0.039240000000000004,0.15696000000000002,9.80019
2262626240,22.35,0.0,0.0,0.0,0.019620000000000002,0.15696000000000002,9.80019
2267676745,22.35,0.0,0.0,0.0,0.039240000000000004,0.15696000000000002,9.81
2272727250,22.35,0.0,0.0,0.0,0.02943,0.15696000000000002,9.81
2277777755,22.35,0.0,0.0,0.0,0.019620000000000002,0.16677000000000003,9.80019
2282828260,22.35,0.0,0.0,0.0,0.019620000000000002,0.15696000000000002,9.81
2287878765,22.35,0.0,0.0,0.0,0.039240000000000004,0.17658,9.80019
2292929270,22.35,0.0,0.0,0.0,0.04905,0.17658,9.80019
2297979775,22.35,0.0,0.0,0.0,0.04905,0.15696000000000002,9.81
2303030280,22.35,0.0,0.0,0.0,0.039240000000000004,0.15696000000000002,9.79038
2308080785,22.35,0.0,0.0,0.0,0.02943,0.16677000000000003,9.79038
2313131290,22.35,0.0,0.0,0.0,0.039240000000000004,0.15696000000000002,9.79038
2318181795,22.35,0.0,0.0,0.0,0.039240000000000004,0.14715,9.81
2323232300,22.35,0.0,0.0,0.0,0.039240000000000004,0.15696000000000002,9.819809999999999
2328282805,22.35,0.0,0.0,0.0,0.039240000000000004,0.18639,9.81
2333333310,22.35,0.0,0.0,0.0,0.019620000000000002,0.16677000000000003,9.81
2338383815,22.35,0.0,0.0,0.0,0.05886,0.16677000000000003,9.78057
2343434320,22.35,0.0,0.0,0.0,0.039240000000000004,0.15696000000000002,9.80019
2348484825,22.35,0.0,0.0,0.0,0.039240000000000004,0.13734000000000002,9.81
2353535330,22.35,0.0,0.0,0.0,0.039240000000000004,0.15696000000000002,9.80019
2358585835,22.35,0.0,0.0,0.0,0.019620000000000002,0.14715,9.80019
2363636340,22.35,0.0,0.0,0.0,0.02943,0.15696000000000002,9.80019
2368686845,22.35,0.0,0.0,0.0,0.039240000000000004,0.15696000000000002,9.80019
2373737350,22.35,0.0,0.0,0.0,0.04905,0.15696000000000002,9.80019
2378787855,22.35,0.0,0.0,0.0,0.039240000000000004,0.13734000000000002,9.80019
2383838360,22.35,0.0,0.0,0.0,0.02943,0.14715,9.80019
2388888865,22.35,0.0,0.0,0.0,0.009810000000000001,0.16677000000000003,9.79038
2393939370,22.35,0.0,0.0,0.0,0.05886,0.16677000000000003,9.819809999999999
2398989875,22.35,0.0,0.0,0.0,0.019620000000000002,0.14715,9.81
2404040380,22.35,0.0,0.0,0.0,0.02943,0.14715,9.80019
2409090885,22.35,0.0,0.0,0.0,0.039240000000000004,0.13734000000000002,9.78057
2414141390,22.35,0.0,0.0,0.0,0.019620000000000002,0.14715,9.819809999999999
2419191895,22.35,0.0,0.0,0.0,0.039240000000000004,0.17658,9.78057
2424242400,22.35,0.0,0.0,0.0,0.039240000000000004,0.17658,9.80019
2429292905,22.35,0.0,0.0,0.0,0.02943,0.16677000000000003,9.79038
2434343410,22.35,0.0,0.0,0.0,0.02943,0.14715,9.81
2439393915,22.35,0.0,0.0,0.0,0.02943,0.12753,9.770760000000001
2444444420,22.35,0.0,0.0,0.0,0.02943,0.15696000000000002,9.79038
2449494925,22.35,0.0,0.0,0.0,0.039240000000000004,0.15696000000000002,9.81
2454545430,22.35,0.0,0.0,0.0,0.019620000000000002,0.18639,9.80019
2459595935,22.35,0.0,0.0,0.0,0.019620000000000002,0.17658,9.819809999999999
2464646440,22.35,0.0,0.0,0.0,0.019620000000000002,0.17658,9.81
2469696945,22.35,0.0,0.0,0.0,0.039240000000000004,0.18639,9.80019
2474747450,22.35,0.0,0.0,0.0,0.04905,0.20601000000000003,9.78057
2479797955,22.35,0.0,0.0,0.0,0.04905,0.14715,9.770760000000001
2484848460,22.35,0.0,0.0,0.0,0.039240000000000004,0.1962,9.79038
2489898965,22.35,0.0,0.0,0.0,0.05886,0.15696000000000002,9.81
2494949470,22.35,0.0,0.0,0.0,0.019620000000000002,0.14715,9.79038
2499999975,22.35,0.0,0.0,0.0,0.039240000000000004,0.13734000000000002,9.80019
2505050480,22.35,0.0,0.0,0.0,0.039240000000000004,0.16677000000000003,9.80019
2510100985,22.35,0.0,0.0,0.0,0.02943,0.17658,9.78057
2515151490,22.35,0.0,0.0,0.0,0.039240000000000004,0.18639,9.770760000000001
2520201995,22.35,0.0,0.0,0.0,0.05886,0.18639,9.79038
2525252500,22.35,0.0,0.0,0.0,0.039240000000000004,0.16677000000000003,9.81
2530303005,22.35,0.0,0.0,0.0,0.05886,0.15696000000000002,9.819809999999999
2535353510,22.35,0.0,0.0,0.0,0.04905,0.16677000000000003,9.81
2540404015,22.35,0.0,0.0,0.0,0.039240000000000004,0.14715,9.79038
2545454520,22.35,0.0,0.0,0.0,0.039240000000000004,0.16677000000000003,9.80019
2550505025,22.35,0.0,0.0,0.0,0.02943,0.17658,9.80019
2555555530,22.35,0.0,0.0,0.0,0.039240000000000004,0.16677000000000003,9.81
2560606035,22.35,0.0,0.0,0.0,0.019620000000000002,0.17658,9.78057
2565656540,22.35,0.0,0.0,0.0,0.019620000000000002,0.15696000000000002,9.81
2570707045,22.35,0.0,0.0,0.0,0.02943,0.14715,9.79038
2575757550,22.35,0.0,0.0,0.0,0.02943,0.16677000000000003,9.78057
2580808055,22.35,0.0,0.0,0.0,0.039240000000000004,0.15696000000000002,9.80019
2585858560,22.35,0.0,0.0,0.0,0.02943,0.15696000000000002,9.81
2590909065,22.35,0.0,0.0,0.0,0.02943,0.16677000000000003,9.80019
2595959570,22.35,0.0,0.0,0.0,0.019620000000000002,0.17658,9.81
2601010075,22.35,0.0,0.0,0.0,0.019620000000000002,0.16677000000000003,9.819809999999999
2606060580,22.35,0.0,0.0,0.0,0.02943,0.16677000000000003,9.80019
2611111085,22.35,0.0,0.0,0.0,0.039240000000000004,0.14715,9.81
2616161590,22.35,0.0,0.0,0.0,0.009810000000000001,0.15696000000000002,9.79038
2621212095,22.35,0.0,0.0,0.0,0.009810000000000001,0.16677000000000003,9.80019
2626262600,22.35,0.0,0.0,0.0,0.05886,0.17658,9.770760000000001
2631313105,22.35,0.0,0.0,0.0,0.04905,0.13734000000000002,9.78057
2636363610,22.35,0.0,0.0,0.0,0.039240000000000004,0.16677000000000003,9.819809999999999
2641414115,22.35,0.0,0.0,0.0,0.04905,0.15696000000000002,9.81
2646464620,22.35,0.0,0.0,0.0,0.02943,0.16677000000000003,9.79038
2651515125,22.35,0.0,0.0,0.0,0.02943,0.16677000000000003,9.80019
2656565630,22.35,0.0,0.0,0.0,0.039240000000000004,0.16677000000000003,9.80019
2661616135,22.35,0.0,0.0,0.0,0.039240000000000004,0.13734000000000002,9.81
2666666640,22.35,0.0,0.0,0.0,0.019620000000000002,0.16677000000000003,9.81
2671717145,22.35,0.0,0.0,0.0,0.039240000000000004,0.17658,9.79038
2676767650,22.35,0.0,0.0,0.0,0.019620000000000002,0.17658,9.78057
2681818155,22.35,0.0,0.0,0.0,0.019620000000000002,0.13734000000000002,9.81
2686868660,22.35,0.0,0.0,0.0,0.04905,0.15696000000000002,9.79038
2691919165,22.35,0.0,0.0,0.0,0.04905,0.13734000000000002,9.79038
2696969670,22.35,0.0,0.0,0.0,0.02943,0.17658,9.79038
2702020175,22.35,0.0,0.0,0.0,0.02943,0.16677000000000003,9.81
2707070680,22.35,0.0,0.0,0.0,0.019620000000000002,0.13734000000000002,9.79038
2712121185,22.35,0.0,0.0,0.0,0.039240000000000004,0.15696000000000002,9.80019
2717171690,22.35,0.0,0.0,0.0,0.019620000000000002,0.14715,9.79038
2722222195,22.35,0.0,0.0,0.0,0.039240000000000004,0.14715,9.819809999999999
2727272700,22.35,0.0,0.0,0.0,0.02943,0.15696000000000002,9.79038
2732323205,22.35,0.0,0.0,0.0,0.039240000000000004,0.17658,9.78057
2737373710,22.35,0.0,0.0,0.0,0.019620000000000002,0.14715,9.819809999999999
2742424215,22.35,0.0,0.0,0.0,0.039240000000000004,0.14715,9.80019
2747474720,22.35,0.0,0.0,0.0,0.02943,0.13734000000000002,9.78057
2752525225,22.35,0.0,0.0,0.0,0.04905,0.13734000000000002,9.81
2757575730,22.35,0.0,0.0,0.0,0.06867000000000001,0.14715,9.78057
2762626235,22.35,0.0,0.0,0.0,0.009810000000000001,0.15696000000000002,9.770760000000001
2767676740,22.35,0.0,0.0,0.0,0.019620000000000002,0.16677000000000003,9.79038
2772727245,22.35,0.0,0.0,0.0,0.02943,0.14715,9.78057
2777777750,22.35,0.0,0.0,0.0,0.039240000000000004,0.15696000000000002,9.81
2782828255,22.35,0.0,0.0,0.0,0.02943,0.15696000000000002,9.80019
2787878760,22.35,0.0,0.0,0.0,0.05886,0.11772,9.79038
2792929265,22.35,0.0,0.0,0.0,0.04905,0.17658,9.79038
2797979770,22.35,0.0,0.0,0.0,0.02943,0.16677000000000003,9.80019
2803030275,22.35,0.0,0.0,0.0,0.04905,0.16677000000000003,9.79038
2808080780,22.35,0.0,0.0,0.0,0.039240000000000004,0.17658,9.80019
2813131285,22.35,0.0,0.0,0.0,0.04905,0.14715,9.79038
2818181790,22.35,0.0,0.0,0.0,0.02943,0.17658,9.80019
2823232295,22.35,0.0,0.0,0.0,0.039240000000000004,0.18639,9.80019
2828282800,22.35,0.0,0.0,0.0,0.039240000000000004,0.14715,9.81
2833333305,22.35,0.0,0.0,0.0,0.05886,0.13734000000000002,9.81
2838383810,22.35,0.0,0.0,0.0,0.02943,0.16677000000000003,9.81
2843434315,22.35,0.0,0.0,0.0,0.019620000000000002,0.18639,9.770760000000001
2848484820,22.35,0.0,0.0,0.0,0.02943,0.17658,9.78057
2853535325,22.35,0.0,0.0,0.0,0.02943,0.16677000000000003,9.79038
2858585830,22.35,0.0,0.0,0.0,0.019620000000000002,0.16677000000000003,9.80019
2863636335,22.35,0.0,0.0,0.0,0.04905,0.16677000000000003,9.80019
2868686840,22.35,0.0,0.0,0.0,0.039240000000000004,0.15696000000000002,9.80019
2873737345,22.35,0.0,0.0,0.0,0.039240000000000004,0.15696000000000002,9.81
2878787850,22.35,0.0,0.0,0.0,0.02943,0.18639,9.79038
2883838355,22.35,0.0,0.0,0.0,0.02943,0.16677000000000003,9.79038
2888888860,22.35,0.0,0.0,0.0,0.05886,0.16677000000000003,9.819809999999999
2893939365,22.35,0.0,0.0,0.0,0.04905,0.17658,9.81
2898989870,22.35,0.0,0.0,0.0,0.05886,0.17658,9.81
2904040375,22.35,0.0,0.0,0.0,0.04905,0.16677000000000003,9.79038
2909090880,22.35,0.0,0.0,0.0,0.009810000000000001,0.15696000000000002,9.80019
2914141385,22.35,0.0,0.0,0.0,0.04905,0.14715,9.80019
2919191890,22.35,0.0,0.0,0.0,0.019620000000000002,0.16677000000000003,9.81
2924242395,22.35,0.0,0.0,0.0,0.04905,0.16677000000000003,9.81
2929292900,22.35,0.0,0.0,0.0,0.039240000000000004,0.15696000000000002,9.80019
2934343405,22.35,0.0,0.0,0.0,0.039240000000000004,0.18639,9.81
2939393910,22.35,0.0,0.0,0.0,0.04905,0.16677000000000003,9.80019
2944444415,22.35,0.0,0.0,0.0,0.02943,0.16677000000000003,9.78057
2949494920,22.35,0.0,0.0,0.0,0.04905,0.12753,9.79038
2954545425,22.35,0.0,0.0,0.0,0.019620000000000002,0.15696000000000002,9.80019
2959595930,22.35,0.0,0.0,0.0,0.04905,0.16677000000000003,9.81
2964646435,22.35,0.0,0.0,0.0,0.02943,0.16677000000000003,9.81
2969696940,22.35,0.0,0.0,0.0,0.02943,0.15696000000000002,9.81
2974747445,22.35,0.0,0.0,0.0,0.039240000000000004,0.16677000000000003,9.80019
2979797950,22.35,0.0,0.0,0.0,0.02943,0.16677000000000003,9.80019
2984848455,22.35,0.0,0.0,0.0,0.04905,0.13734000000000002,9.80019
2989898960,22.35,0.0,0.0,0.0,0.02943,0.17658,9.78057
2994949465,22.35,0.0,0.0,0.0,0.02943,0.17658,9.760950000000001
2999999970,22.35,0.0,0.0,0.0,0.05886,0.15696000000000002,9.81
3005050475,22.35,0.0,0.0,0.0,0.009810000000000001,0.17658,9.81
3010100980,22.35,0.0,0.0,0.0,0.05886,0.15696000000000002,9.81
3015151485,22.35,0.0,0.0,0.0,0.039240000000000004,0.17658,9.81
3020201990,22.35,0.0,0.0,0.0,0.019620000000000002,0.16677000000000003,9.80019
3025252495,22.35,0.0,0.0,0.0,0.02943,0.16677000000000003,9.78057
3030303000,22.35,0.0,0.0,0.0,0.02943,0.15696000000000002,9.78057
3035353505,22.35,0.0,0.0,0.0,0.02943,0.16677000000000003,9.81
3040404010,22.35,0.0,0.0,0.0,0.039240000000000004,0.16677000000000003,9.78057
3045454515,22.35,0.0,0.0,0.0,0.019620000000000002,0.14715,9.79038
3050505020,22.35,0.0,0.0,0.0,0.019620000000000002,0.16677000000000003,9.78057
3055555525,22.35,0.0,0.0,0.0,0.02943,0.15696000000000002,9.81
3060606030,22.35,0.0,0.0,0.0,0.019620000000000002,0.15696000000000002,9.80019
3065656535,22.35,0.0,0.0,0.0,0.009810000000000001,0.16677000000000003,9.770760000000001
3070707040,22.35,0.0,0.0,0.0,0.019620000000000002,0.15696000000000002,9.80019
3075757545,22.35,0.0,0.0,0.0,0.039240000000000004,0.17658,9.80019
3080808050,22.35,0.0,0.0,0.0,0.04905,0.15696000000000002,9.80019
3085858555,22.35,0.0,0.0,0.0,0.02943,0.14715,9.78057
3090909060,22.35,0.0,0.0,0.0,0.04905,0.14715,9.79038
3095959565,22.35,0.0,0.0,0.0,0.04905,0.16677000000000003,9.78057
3101010070,22.35,0.0,0.0,0.0,0.02943,0.14715,9.81
3106060575,22.35,0.0,0.0,0.0,0.02943,0.16677000000000003,9.80019
3111111080,22.35,0.0,0.0,0.0,0.02943,0.17658,9.81
3116161585,22.35,0.0,0.0,0.0,0.04905,0.16677000000000003,9.81
3121212090,22.35,0.0,0.0,0.0,0.04905,0.15696000000000002,9.819809999999999
3126262595,22.35,0.0,0.0,0.0,0.04905,0.17658,9.79038
3131313100,22.35,0.0,0.0,0.0,0.04905,0.16677000000000003,9.79038
3136363605,22.35,0.0,0.0,0.0,0.02943,0.17658,9.78057
3141414110,22.35,0.0,0.0,0.0,0.0,0.15696000000000002,9.80019
3146464615,22.35,0.0,0.0,0.0,0.05886,0.15696000000000002,9.81
3151515120,22.35,0.0,0.0,0.0,0.02943,0.15696000000000002,9.80019
3156565625,22.35,0.0,0.0,0.0,0.039240000000000004,0.14715,9.81
3161616130,22.35,0.0,0.0,0.0,0.04905,0.14715,9.81
3166666635,22.35,0.0,0.0,0.0,0.04905,0.16677000000000003,9.79038
3171717140,22.35,0.0,0.0,0.0,0.04905,0.16677000000000003,9.80019
3176767645,22.35,0.0,0.0,0.0,0.02943,0.15696000000000002,9.81
3181818150,22.35,0.0,0.0,0.0,0.02943,0.13734000000000002,9.79038
3186868655,22.35,0.0,0.0,0.0,0.04905,0.17658,9.819809999999999
3191919160,22.35,0.0,0.0,0.0,0.02943,0.16677000000000003,9.81
3196969665,22.35,0.0,0.0,0.0,0.019620000000000002,0.15696000000000002,9.81
3202020170,22.35,0.0,0.0,0.0,0.04905,0.17658,9.79038
3207070675,22.35,0.0,0.0,0.0,0.039240000000000004,0.17658,9.78057
3212121180,22.35,0.0,0.0,0.0,0.039240000000000004,0.16677000000000003,9.79038
3217171685,22.35,0.0,0.0,0.0,0.019620000000000002,0.15696000000000002,9.78057
3222222190,22.35,0.0,0.0,0.0,0.02943,0.17658,9.78057
3227272695,22.35,0.0,0.0,0.0,0.02943,0.14715,9.79038
3232323200,22.35,0.0,0.0,0.0,0.039240000000000004,0.13734000000000002,9.81
3237373705,22.35,0.0,0.0,0.0,0.04905,0.14715,9.78057
3242424210,22.35,0.0,0.0,0.0,0.02943,0.15696000000000002,9.80019
3247474715,22.35,0.0,0.0,0.0,0.019620000000000002,0.16677000000000003,9.80019
3252525220,22.35,0.0,0.0,0.0,0.04905,0.17658,9.80019
3257575725,22.35,0.0,0.0,0.0,0.05886,0.16677000000000003,9.81
3262626230,22.35,0.0,0.0,0.0,0.019620000000000002,0.15696000000000002,9.81
3267676735,22.35,0.0,0.0,0.0,0.039240000000000004,0.15696000000000002,9.79038
3272727240,22.35,0.0,0.0,0.0,0.02943,0.15696000000000002,9.78057
3277777745,22.35,0.0,0.0,0.0,0.02943,0.15696000000000002,9.819809999999999
3282828250,22.35,0.0,0.0,0.0,0.039240000000000004,0.14715,9.79038
3287878755,22.35,0.0,0.0,0.0,0.05886,0.15696000000000002,9.79038
3292929260,22.35,0.0,0.0,0.0,0.039240000000000004,0.15696000000000002,9.81
3297979765,22.35,0.0,0.0,0.0,0.019620000000000002,0.17658,9.78057
3303030270,22.35,0.0,0.0,0.0,0.06867000000000001,0.15696000000000002,9.770760000000001
3308080775,22.35,0.0,0.0,0.0,0.039240000000000004,0.16677000000000003,9.81
3313131280,22.35,0.0,0.0,0.0,0.02943,0.14715,9.79038
3318181785,22.35,0.0,0.0,0.0,0.039240000000000004,0.18639,9.81
3323232290,22.35,0.0,0.0,0.0,0.0,0.16677000000000003,9.80019
3328282795,22.35,0.0,0.0,0.0,0.019620000000000002,0.14715,9.81
3333333300,22.35,0.0,0.0,0.0,0.019620000000000002,0.14715,9.770760000000001
3338383805,22.35,0.0,0.0,0.0,0.019620000000000002,0.17658,9.80019
3343434310,22.35,0.0,0.0,0.0,0.02943,0.13734000000000002,9.80019
3348484815,22.35,0.0,0.0,0.0,0.02943,0.17658,9.81
3353535320,22.35,0.0,0.0,0.0,0.04905,0.15696000000000002,9.81
3358585825,22.35,0.0,0.0,0.0,0.02943,0.15696000000000002,9.79038
3363636330,22.35,0.0,0.0,0.0,0.02943,0.15696000000000002,9.81
3368686835,22.35,0.0,0.0,0.0,0.019620000000000002,0.13734000000000002,9.81
3373737340,22.35,0.0,0.0,0.0,0.009810000000000001,0.14715,9.80019
3378787845,22.35,0.0,0.0,0.0,0.02943,0.1962,9.79038
3383838350,22.35,0.0,0.0,0.0,0.019620000000000002,0.16677000000000003,9.79038
3388888855,22.35,0.0,0.0,0.0,0.019620000000000002,0.15696000000000002,9.79038
3393939360,22.35,0.0,0.0,0.0,0.039240000000000004,0.16677000000000003,9.80019
3398989865,22.35,0.0,0.0,0.0,0.04905,0.14715,9.81
3404040370,22.35,0.0,0.0,0.0,0.019620000000000002,0.16677000000000003,9.79038
3409090875,22.35,0.0,0.0,0.0,0.02943,0.15696000000000002,9.819809999999999
3414141380,22.35,0.0,0.0,0.0,0.06867000000000001,0.15696000000000002,9.81
3419191885,22.35,0.0,0.0,0.0,0.039240000000000004,0.15696000000000002,9.81
3424242390,22.35,0.0,0.0,0.0,0.04905,0.14715,9.81
3429292895,22.35,0.0,0.0,0.0,0.009810000000000001,0.15696000000000002,9.81
3434343400,22.35,0.0,0.0,0.0,0.04905,0.15696000000000002,9.80019
3439393905,22.35,0.0,0.0,0.0,0.039240000000000004,0.14715,9.78057
3444444410,22.35,0.0,0.0,0.0,0.02943,0.17658,9.80019
3449494915,22.35,0.0,0.0,0.0,0.04905,0.14715,9.79038
3454545420,22.35,0.0,0.0,0.0,0.039240000000000004,0.16677000000000003,9.80019
3459595925,22.35,0.0,0.0,0.0,0.05886,0.17658,9.79038
3464646430,22.35,0.0,0.0,0.0,0.0,0.15696000000000002,9.80019
3469696935,22.35,0.0,0.0,0.0,0.019620000000000002,0.14715,9.770760000000001
3474747440,22.35,0.0,0.0,0.0,0.019620000000000002,0.13734000000000002,9.80019
3479797945,22.35,0.0,0.0,0.0,0.019620000000000002,0.16677000000000003,9.79038
3484848450,22.35,0.0,0.0,0.0,0.019620000000000002,0.16677000000000003,9.80019
3489898955,22.35,0.0,0.0,0.0,0.009810000000000001,0.14715,9.80019
3494949460,22.35,0.0,0.0,0.0,0.02943,0.15696000000000002,9.80019
3499999965,22.35,0.0,0.0,0.0,0.02943,0.15696000000000002,9.80019
3505050470,22.35,0.0,0.0,0.0,0.019620000000000002,0.15696000000000002,9.79038
3510100975,22.35,0.0,0.0,0.0,0.039240000000000004,0.17658,9.79038
3515151480,22.35,0.0,0.0,0.0,0.04905,0.16677000000000003,9.80019
3520201985,22.35,0.0,0.0,0.0,0.04905,0.15696000000000002,9.79038
3525252490,22.35,0.0,0.0,0.0,0.02943,0.16677000000000003,9.80019
3530302995,22.35,0.0,0.0,0.0,0.04905,0.12753,9.79038
3535353500,22.35,0.0,0.0,0.0,0.04905,0.15696000000000002,9.79038
3540404005,22.35,0.0,0.0,0.0,0.019620000000000002,0.13734000000000002,9.80019
3545454510,22.35,0.0,0.0,0.0,0.02943,0.14715,9.819809999999999
3550505015,22.35,0.0,0.0,0.0,0.04905,0.18639,9.78057
3555555520,22.35,0.0,0.0,0.0,0.02943,0.15696000000000002,9.81
3560606025,22.35,0.0,0.0,0.0,0.039240000000000004,0.14715,9.81
3565656530,22.35,0.0,0.0,0.0,0.02943,0.15696000000000002,9.80019
3570707035,22.35,0.0,0.0,0.0,0.02943,0.15696000000000002,9.80019
3575757540,22.35,0.0,0.0,0.0,0.009810000000000001,0.15696000000000002,9.80019
3580808045,22.35,0.0,0.0,0.0,0.039240000000000004,0.16677000000000003,9.78057
3585858550,22.35,0.0,0.0,0.0,0.02943,0.17658,9.82962
3590909055,22.35,0.0,0.0,0.0,0.039240000000000004,0.1962,9.81
3595959560,22.35,0.0,0.0,0.0,0.039240000000000004,0.17658,9.81
3601010065,22.35,0.0,0.0,0.0,0.02943,0.14715,9.78057
3606060570,22.35,0.0,0.0,0.0,0.039240000000000004,0.16677000000000003,9.79038
3611111075,22.35,0.0,0.0,0.0,0.02943,0.15696000000000002,9.81
3616161580,22.35,0.0,0.0,0.0,0.039240000000000004,0.16677000000000003,9.80019
3621212085,22.35,0.0,0.0,0.0,0.02943,0.15696000000000002,9.819809999999999
3626262590,22.35,0.0,0.0,0.0,0.019620000000000002,0.17658,9.81
3631313095,22.35,0.0,0.0,0.0,0.019620000000000002,0.16677000000000003,9.80019
3636363600,22.35,0.0,0.0,0.0,0.039240000000000004,0.17658,9.78057
3641414105,22.35,0.0,0.0,0.0,0.039240000000000004,0.15696000000000002,9.79038
3646464610,22.35,0.0,0.0,0.0,0.04905,0.16677000000000003,9.81
3651515115,22.35,0.0,0.0,0.0,0.019620000000000002,0.14715,9.79038
3656565620,22.35,0.0,0.0,0.0,0.039240000000000004,0.16677000000000003,9.81
3661616125,22.35,0.0,0.0,0.0,0.04905,0.15696000000000002,9.81
3666666630,22.35,0.0,0.0,0.0,0.02943,0.17658,9.80019
3671717135,22.35,0.0,0.0,0.0,0.02943,0.16677000000000003,9.79038
3676767640,22.35,0.0,0.0,0.0,0.06867000000000001,0.16677000000000003,9.79038
3681818145,22.35,0.0,0.0,0.0,0.019620000000000002,0.14715,9.79038
3686868650,22.35,0.0,0.0,0.0,0.02943,0.15696000000000002,9.81
3691919155,22.35,0.0,0.0,0.0,0.02943,0.14715,9.80019
3696969660,22.35,0.0,0.0,0.0,0.04905,0.15696000000000002,9.78057
3702020165,22.35,0.0,0.0,0.0,0.039240000000000004,0.12753,9.80019
3707070670,22.35,0.0,0.0,0.0,0.02943,0.16677000000000003,9.80019
3712121175,22.35,0.0,0.0,0.0,0.019620000000000002,0.15696000000000002,9.80019
3717171680,22.35,0.0,0.0,0.0,0.019620000000000002,0.18639,9.81
3722222185,22.35,0.0,0.0,0.0,0.02943,0.13734000000000002,9.79038
3727272690,22.35,0.0,0.0,0.0,0.019620000000000002,0.18639,9.79038
3732323195,22.35,0.0,0.0,0.0,0.019620000000000002,0.15696000000000002,9.80019
3737373700,22.35,0.0,0.0,0.0,0.02943,0.12753,9.80019
3742424205,22.35,0.0,0.0,0.0,0.009810000000000001,0.16677000000000003,9.79038
3747474710,22.35,0.0,0.0,0.0,0.009810000000000001,0.15696000000000002,9.81
3752525215,22.35,0.0,0.0,0.0,0.04905,0.16677000000000003,9.79038
3757575720,22.35,0.0,0.0,0.0,0.039240000000000004,0.16677000000000003,9.78057
3762626225,22.35,0.0,0.0,0.0,0.019620000000000002,0.17658,9.80019
3767676730,22.35,0.0,0.0,0.0,0.039240000000000004,0.16677000000000003,9.79038
3772727235,22.35,0.0,0.0,0.0,0.04905,0.16677000000000003,9.80019
3777777740,22.35,0.0,0.0,0.0,0.04905,0.15696000000000002,9.81
3782828245,22.35,0.0,0.0,0.0,0.039240000000000004,0.14715,9.770760000000001
3787878750,22.35,0.0,0.0,0.0,0.039240000000000004,0.16677000000000003,9.78057
3792929255,22.35,0.0,0.0,0.0,0.019620000000000002,0.16677000000000003,9.819809999999999
3797979760,22.35,0.0,0.0,0.0,0.009810000000000001,0.16677000000000003,9.80019
3803030265,22.35,0.0,0.0,0.0,0.039240000000000004,0.12753,9.770760000000001
3808080770,22.35,0.0,0.0,0.0,0.039240000000000004,0.15696000000000002,9.79038
3813131275,22.35,0.0,0.0,0.0,0.02943,0.13734000000000002,9.79038
3818181780,22.35,0.0,0.0,0.0,0.039240000000000004,0.14715,9.79038
3823232285,22.35,0.0,0.0,0.0,0.04905,0.17658,9.79038
3828282790,22.35,0.0,0.0,0.0,0.039240000000000004,0.17658,9.81
3833333295,22.35,0.0,0.0,0.0,0.04905,0.13734000000000002,9.81
3838383800,22.35,0.0,0.0,0.0,0.039240000000000004,0.16677000000000003,9.81
3843434305,22.35,0.0,0.0,0.0,0.039240000000000004,0.1962,9.79038
3848484810,22.35,0.0,0.0,0.0,0.039240000000000004,0.14715,9.80019
3853535315,22.35,0.0,0.0,0.0,0.039240000000000004,0.12753,9.81
3858585820,22.35,0.0,0.0,0.0,0.019620000000000002,0.12753,9.81
3863636325,22.35,0.0,0.0,0.0,0.019620000000000002,0.15696000000000002,9.81
3868686830,22.35,0.0,0.0,0.0,0.02943,0.16677000000000003,9.81
3873737335,22.35,0.0,0.0,0.0,0.019620000000000002,0.18639,9.79038
3878787840,22.35,0.0,0.0,0.0,0.04905,0.17658,9.80019
3883838345,22.35,0.0,0.0,0.0,0.039240000000000004,0.14715,9.79038
3888888850,22.35,0.0,0.0,0.0,0.02943,0.14715,9.81
3893939355,22.35,0.0,0.0,0.0,0.04905,0.14715,9.81
3898989860,22.35,0.0,0.0,0.0,0.02943,0.13734000000000002,9.80019
3904040365,22.35,0.0,0.0,0.0,0.0,0.12753,9.819809999999999
3909090870,22.35,0.0,0.0,0.0,0.05886,0.16677000000000003,9.81
3914141375,22.35,0.0,0.0,0.0,0.06867000000000001,0.17658,9.78057
3919191880,22.35,0.0,0.0,0.0,0.039240000000000004,0.16677000000000003,9.78057
3924242385,22.35,0.0,0.0,0.0,0.04905,0.14715,9.819809999999999
3929292890,22.35,0.0,0.0,0.0,0.02943,0.17658,9.80019
3934343395,22.35,0.0,0.0,0.0,0.04905,0.13734000000000002,9.81
3939393900,22.35,0.0,0.0,0.0,0.009810000000000001,0.14715,9.80019
3944444405,22.35,0.0,0.0,0.0,0.019620000000000002,0.17658,9.81
3949494910,22.35,0.0,0.0,0.0,0.039240000000000004,0.16677000000000003,9.81
3954545415,22.35,0.0,0.0,0.0,0.05886,0.16677000000000003,9.770760000000001
3959595920,22.35,0.0,0.0,0.0,0.05886,0.18639,9.81
3964646425,22.35,0.0,0.0,0.0,0.05886,0.15696000000000002,9.81
3969696930,22.35,0.0,0.0,0.0,0.04905,0.14715,9.81
3974747435,22.35,0.0,0.0,0.0,0.009810000000000001,0.13734000000000002,9.80019
3979797940,22.35,0.0,0.0,0.0,0.039240000000000004,0.13734000000000002,9.80019
3984848445,22.35,0.0,0.0,0.0,0.019620000000000002,0.13734000000000002,9.81
3989898950,22.35,0.0,0.0,0.0,0.039240000000000004,0.14715,9.78057
3994949455,22.35,0.0,0.0,0.0,0.019620000000000002,0.18639,9.79038
3999999960,22.35,0.0,0.0,0.0,0.039240000000000004,0.17658,9.81
4005050465,22.35,0.0,0.0,0.0,0.02943,0.16677000000000003,9.80019
4010100970,22.35,0.0,0.0,0.0,0.039240000000000004,0.16677000000000003,9.80019
4015151475,22.35,0.0,0.0,0.0,0.02943,0.13734000000000002,9.79038
4020201980,22.35,0.0,0.0,0.0,0.039240000000000004,0.15696000000000002,9.81
4025252485,22.35,0.0,0.0,0.0,0.02943,0.14715,9.79038
4030302990,22.35,0.0,0.0,0.0,0.02943,0.15696000000000002,9.79038
4035353495,22.35,0.0,0.0,0.0,0.04905,0.16677000000000003,9.81
4040404000,22.35,0.0,0.0,0.0,0.039240000000000004,0.15696000000000002,9.79038
4045454505,22.35,0.0,0.0,0.0,0.039240000000000004,0.16677000000000003,9.79038
4050505010,22.35,0.0,0.0,0.0,0.02943,0.13734000000000002,9.81
4055555515,22.35,0.0,0.0,0.0,0.019620000000000002,0.13734000000000002,9.79038
4060606020,22.35,0.0,0.0,0.0,0.019620000000000002,0.16677000000000003,9.79038
4065656525,22.35,0.0,0.0,0.0,0.02943,0.16677000000000003,9.78057
4070707030,22.35,0.0,0.0,0.0,0.04905,0.18639,9.80019
4075757535,22.35,0.0,0.0,0.0,0.02943,0.13734000000000002,9.770760000000001
4080808040,22.35,0.0,0.0,0.0,0.009810000000000001,0.18639,9.78057
4085858545,22.35,0.0,0.0,0.0,0.05886,0.15696000000000002,9.78057
4090909050,22.35,0.0,0.0,0.0,0.04905,0.16677000000000003,9.79038
4095959555,22.35,0.0,0.0,0.0,0.02943,0.14715,9.80019
4101010060,22.35,0.0,0.0,0.0,0.02943,0.15696000000000002,9.82962
4106060565,22.35,0.0,0.0,0.0,0.019620000000000002,0.13734000000000002,9.81
4111111070,22.35,0.0,0.0,0.0,0.039240000000000004,0.17658,9.80019
4116161575,22.35,0.0,0.0,0.0,0.019620000000000002,0.16677000000000003,9.760950000000001
4121212080,22.35,0.0,0.0,0.0,0.02943,0.17658,9.81
4126262585,22.35,0.0,0.0,0.0,0.039240000000000004,0.15696000000000002,9.79038
4131313090,22.35,0.0,0.0,0.0,0.04905,0.18639,9.81
4136363595,22.35,0.0,0.0,0.0,0.019620000000000002,0.14715,9.81
4141414100,22.35,0.0,0.0,0.0,0.019620000000000002,0.15696000000000002,9.81
4146464605,22.35,0.0,0.0,0.0,0.019620000000000002,0.13734000000000002,9.78057
4151515110,22.35,0.0,0.0,0.0,0.019620000000000002,0.13734000000000002,9.80019
4156565615,22.35,0.0,0.0,0.0,0.02943,0.16677000000000003,9.80019
4161616120,22.35,0.0,0.0,0.0,0.039240000000000004,0.16677000000000003,9.81
4166666625,22.35,0.0,0.0,0.0,0.039240000000000004,0.17658,9.78057
4171717130,22.35,0.0,0.0,0.0,0.02943,0.15696000000000002,9.80019
4176767635,22.35,0.0,0.0,0.0,0.0,0.13734000000000002,9.80019
4181818140,22.35,0.0,0.0,0.0,0.019620000000000002,0.16677000000000003,9.81
4186868645,22.35,0.0,0.0,0.0,0.019620000000000002,0.16677000000000003,9.81
4191919150,22.35,0.0,0.0,0.0,0.02943,0.17658,9.80019
4196969655,22.35,0.0,0.0,0.0,0.02943,0.20601000000000003,9.80019
4202020160,22.35,0.0,0.0,0.0,0.02943,0.18639,9.80019
4207070665,22.35,0.0,0.0,0.0,0.02943,0.17658,9.80019
4212121170,22.35,0.0,0.0,0.0,0.02943,0.15696000000000002,9.80019
4217171675,22.35,0.0,0.0,0.0,0.039240000000000004,0.14715,9.81
4222222180,22.35,0.0,0.0,0.0,0.02943,0.17658,9.81
4227272685,22.35,0.0,0.0,0.0,0.02943,0.14715,9.81
4232323190,22.35,0.0,0.0,0.0,0.039240000000000004,0.15696000000000002,9.81
4237373695,22.35,0.0,0.0,0.0,0.039240000000000004,0.15696000000000002,9.79038
4242424200,22.35,0.0,0.0,0.0,0.04905,0.14715,9.819809999999999
4247474705,22.35,0.0,0.0,0.0,0.02943,0.13734000000000002,9.80019
4252525210,22.35,0.0,0.0,0.0,0.02943,0.15696000000000002,9.81
4257575715,22.35,0.0,0.0,0.0,0.039240000000000004,0.15696000000000002,9.81
4262626220,22.35,0.0,0.0,0.0,0.039240000000000004,0.15696000000000002,9.819809999999999
4267676725,22.35,0.0,0.0,0.0,0.04905,0.15696000000000002,9.79038
4272727230,22.35,0.0,0.0,0.0,0.02943,0.14715,9.81
4277777735,22.35,0.0,0.0,0.0,0.039240000000000004,0.17658,9.770760000000001
4282828240,22.35,0.0,0.0,0.0,0.039240000000000004,0.14715,9.79038
4287878745,22.35,0.0,0.0,0.0,0.02943,0.14715,9.79038
4292929250,22.35,0.0,0.0,0.0,0.02943,0.16677000000000003,9.80019
4297979755,22.35,0.0,0.0,0.0,0.07848000000000001,0.14715,9.760950000000001
4303030260,22.35,0.0,0.0,0.0,0.019620000000000002,0.13734000000000002,9.80019
4308080765,22.35,0.0,0.0,0.0,0.02943,0.13734000000000002,9.81
4313131270,22.35,0.0,0.0,0.0,0.02943,0.17658,9.81
4318181775,22.35,0.0,0.0,0.0,0.04905,0.17658,9.81
4323232280,22.35,0.0,0.0,0.0,0.02943,0.18639,9.819809999999999
4328282785,22.35,0.0,0.0,0.0,0.02943,0.15696000000000002,9.79038
4333333290,22.35,0.0,0.0,0.0,0.039240000000000004,0.16677000000000003,9.80019
4338383795,22.35,0.0,0.0,0.0,0.019620000000000002,0.14715,9.79038
4343434300,22.35,0.0,0.0,0.0,0.05886,0.14715,9.81
4348484805,22.35,0.0,0.0,0.0,0.02943,0.15696000000000002,9.78057
4353535310,22.35,0.0,0.0,0.0,0.039240000000000004,0.14715,9.81
4358585815,22.35,0.0,0.0,0.0,0.04905,0.17658,9.79038
4363636320,22.35,0.0,0.0,0.0,0.039240000000000004,0.15696000000000002,9.80019
4368686825,22.35,0.0,0.0,0.0,0.039240000000000004,0.17658,9.79038
4373737330,22.35,0.0,0.0,0.0,0.039240000000000004,0.14715,9.79038
4378787835,22.35,0.0,0.0,0.0,0.02943,0.14715,9.80019
4383838340,22.35,0.0,0.0,0.0,0.04905,0.17658,9.81
4388888845,22.35,0.0,0.0,0.0,0.04905,0.15696000000000002,9.79038
4393939350,22.35,0.0,0.0,0.0,0.04905,0.13734000000000002,9.81
4398989855,22.35,0.0,0.0,0.0,0.04905,0.14715,9.79038
4404040360,22.35,0.0,0.0,0.0,0.039240000000000004,0.16677000000000003,9.80019
4409090865,22.35,0.0,0.0,0.0,0.039240000000000004,0.15696000000000002,9.81
4414141370,22.35,0.0,0.0,0.0,0.009810000000000001,0.17658,9.80019
4419191875,22.35,0.0,0.0,0.0,0.019620000000000002,0.15696000000000002,9.81
4424242380,22.35,0.0,0.0,0.0,0.02943,0.15696000000000002,9.80019
4429292885,22.35,0.0,0.0,0.0,0.04905,0.16677000000000003,9.80019
4434343390,22.35,0.0,0.0,0.0,0.039240000000000004,0.13734000000000002,9.80019
4439393895,22.35,0.0,0.0,0.0,0.04905,0.16677000000000003,9.80019
4444444400,22.35,0.0,0.0,0.0,0.039240000000000004,0.16677000000000003,9.80019
4449494905,22.35,0.0,0.0,0.0,0.05886,0.15696000000000002,9.79038
4454545410,22.35,0.0,0.0,0.0,0.04905,0.15696000000000002,9.81
4459595915,22.35,0.0,0.0,0.0,0.009810000000000001,0.15696000000000002,9.81
4464646420,22.35,0.0,0.0,0.0,0.02943,0.13734000000000002,9.78057
4469696925,22.35,0.0,0.0,0.0,0.019620000000000002,0.15696000000000002,9.79038
4474747430,22.35,0.0,0.0,0.0,0.039240000000000004,0.15696000000000002,9.79038
4479797935,22.35,0.0,0.0,0.0,0.039240000000000004,0.16677000000000003,9.80019
4484848440,22.35,0.0,0.0,0.0,0.019620000000000002,0.17658,9.79038
4489898945,22.35,0.0,0.0,0.0,0.039240000000000004,0.15696000000000002,9.80019
4494949450,22.35,0.0,0.0,0.0,0.02943,0.18639,9.78057
4499999955,22.35,0.0,0.0,0.0,0.02943,0.17658,9.80019
4505050460,22.35,0.0,0.0,0.0,0.05886,0.14715,9.80019
4510100965,22.35,0.0,0.0,0.0,0.04905,0.15696000000000002,9.81
4515151470,22.35,0.0,0.0,0.0,0.0,0.17658,9.79038
4520201975,22.35,0.0,0.0,0.0,0.039240000000000004,0.16677000000000003,9.80019
4525252480,22.35,0.0,0.0,0.0,0.02943,0.15696000000000002,9.81
4530302985,22.35,0.0,0.0,0.0,0.06867000000000001,0.15696000000000002,9.79038
4535353490,22.35,0.0,0.0,0.0,0.02943,0.15696000000000002,9.78057
4540403995,22.35,0.0,0.0,0.0,0.009810000000000001,0.16677000000000003,9.81
4545454500,22.35,0.0,0.0,0.0,0.039240000000000004,0.16677000000000003,9.819809999999999
4550505005,22.35,0.0,0.0,0.0,0.019620000000000002,0.14715,9.79038
4555555510,22.35,0.0,0.0,0.0,0.039240000000000004,0.17658,9.80019
4560606015,22.35,0.0,0.0,0.0,0.019620000000000002,0.18639,9.80019
4565656520,22.35,0.0,0.0,0.0,0.02943,0.17658,9.79038
4570707025,22.35,0.0,0.0,0.0,0.039240000000000004,0.16677000000000003,9.80019
4575757530,22.35,0.0,0.0,0.0,0.04905,0.16677000000000003,9.78057
4580808035,22.35,0.0,0.0,0.0,0.02943,0.14715,9.79038
4585858540,22.35,0.0,0.0,0.0,0.02943,0.15696000000000002,9.78057
4590909045,22.35,0.0,0.0,0.0,0.009810000000000001,0.16677000000000003,9.80019
4595959550,22.35,0.0,0.0,0.0,0.039240000000000004,0.16677000000000003,9.80019
4601010055,22.35,0.0,0.0,0.0,0.009810000000000001,0.14715,9.79038
4606060560,22.35,0.0,0.0,0.0,0.02943,0.17658,9.80019
4611111065,22.35,0.0,0.0,0.0,0.04905,0.15696000000000002,9.81
4616161570,22.35,0.0,0.0,0.0,0.02943,0.15696000000000002,9.79038
4621212075,22.35,0.0,0.0,0.0,0.04905,0.14715,9.80019
4626262580,22.35,0.0,0.0,0.0,0.019620000000000002,0.15696000000000002,9.80019
4631313085,22.35,0.0,0.0,0.0,0.02943,0.16677000000000003,9.80019
4636363590,22.35,0.0,0.0,0.0,0.039240000000000004,0.16677000000000003,9.79038
4641414095,22.35,0.0,0.0,0.0,0.019620000000000002,0.15696000000000002,9.79038
4646464600,22.35,0.0,0.0,0.0,0.02943,0.16677000000000003,9.80019
4651515105,22.35,0.0,0.0,0.0,0.04905,0.16677000000000003,9.81
4656565610,22.35,0.0,0.0,0.0,0.039240000000000004,0.16677000000000003,9.80019
4661616115,22.35,0.0,0.0,0.0,0.039240000000000004,0.15696000000000002,9.80019
4666666620,22.35,0.0,0.0,0.0,0.06867000000000001,0.15696000000000002,9.81
4671717125,22.35,0.0,0.0,0.0,0.039240000000000004,0.16677000000000003,9.79038
4676767630,22.35,0.0,0.0,0.0,0.02943,0.15696000000000002,9.80019
4681818135,22.35,0.0,0.0,0.0,0.019620000000000002,0.14715,9.80019
4686868640,22.35,0.0,0.0,0.0,0.039240000000000004,0.15696000000000002,9.74133
4691919145,22.35,0.0,0.0,0.0,0.04905,0.17658,9.81
4696969650,22.35,0.0,0.0,0.0,0.019620000000000002,0.18639,9.81
4702020155,22.35,0.0,0.0,0.0,0.04905,0.16677000000000003,9.78057
4707070660,22.35,0.0,0.0,0.0,0.039240000000000004,0.15696000000000002,9.79038
4712121165,22.35,0.0,0.0,0.0,0.039240000000000004,0.14715,9.79038
4717171670,22.35,0.0,0.0,0.0,0.05886,0.16677000000000003,9.80019
4722222175,22.35,0.0,0.0,0.0,0.019620000000000002,0.14715,9.770760000000001
4727272680,22.35,0.0,0.0,0.0,0.04905,0.15696000000000002,9.79038
4732323185,22.35,0.0,0.0,0.0,0.019620000000000002,0.14715,9.819809999999999
4737373690,22.35,0.0,0.0,0.0,0.02943,0.17658,9.819809999999999
4742424195,22.35,0.0,0.0,0.0,0.02943,0.15696000000000002,9.770760000000001
4747474700,22.35,0.0,0.0,0.0,0.019620000000000002,0.15696000000000002,9.78057
4752525205,22.35,0.0,0.0,0.0,0.019620000000000002,0.1962,9.80019
4757575710,22.35,0.0,0.0,0.0,0.04905,0.16677000000000003,9.79038
4762626215,22.35,0.0,0.0,0.0,0.05886,0.14715,9.80019
4767676720,22.35,0.0,0.0,0.0,0.05886,0.15696000000000002,9.80019
4772727225,22.35,0.0,0.0,0.0,0.039240000000000004,0.12753,9.79038
4777777730,22.35,0.0,0.0,0.0,0.04905,0.11772,9.81
4782828235,22.35,0.0,0.0,0.0,0.019620000000000002,0.15696000000000002,9.819809999999999
4787878740,22.35,0.0,0.0,0.0,0.009810000000000001,0.15696000000000002,9.79038
4792929245,22.35,0.0,0.0,0.0,0.039240000000000004,0.1962,9.819809999999999
4797979750,22.35,0.0,0.0,0.0,0.009810000000000001,0.18639,9.81
4803030255,22.35,0.0,0.0,0.0,0.05886,0.1962,9.79038
4808080760,22.35,0.0,0.0,0.0,0.05886,0.17658,9.78057
4813131265,22.35,0.0,0.0,0.0,0.05886,0.14715,9.81
4818181770,22.35,0.0,0.0,0.0,0.04905,0.14715,9.80019
4823232275,22.35,0.0,0.0,0.0,0.02943,0.14715,9.819809999999999
4828282780,22.35,0.0,0.0,0.0,0.019620000000000002,0.14715,9.82962
4833333285,22.35,0.0,0.0,0.0,0.009810000000000001,0.18639,9.819809999999999
4838383790,22.35,0.0,0.0,0.0,0.0,0.1962,9.78057
4843434295,22.35,0.0,0.0,0.0,0.019620000000000002,0.019620000000000002,9.79038
4848484800,22.35,0.002129301687433082,0.06710790973918197,0.0,-0.12753,-0.07848000000000001,9.68247
4853535305,22.35,0.008517206749732328,0.13849187614575004,0.0,-0.20601000000000003,0.16677000000000003,9.60399
4858585810,22.35,0.012775810124598492,0.09480628496833199,0.0,-0.44145,0.11772,9.79038
4863636315,22.35,0.0,0.0404741853537485,0.0,-0.6180300000000001,0.20601000000000003,9.54513
4868686820,22.35,-0.003193952531149623,0.001064650843716541,0.0,-0.75537,0.31392000000000003,9.60399
4873737325,22.35,0.005323254218582705,-0.046879543708567686,0.0,-0.7651800000000001,0.52974,9.55494
4878787830,22.35,0.02663372438543347,-0.12250466019748199,0.0,-0.28449,0.56898,9.86886
4883838335,22.35,-0.03515093113516579,-0.20134118251006583,0.0,0.16677000000000003,0.75537,10.33974
4888888840,22.35,-0.05752605214573309,-0.23755676448894822,0.0,0.80442,0.12753,9.87867
4893939345,22.35,-0.10012953918691468,-0.18216001403064813,0.0,0.9319500000000001,0.05886,9.7119
4898989850,22.35,-0.10545279340549739,-0.13102186694721432,0.0,1.2851100000000002,-0.20601000000000003,9.80019
4904040355,22.35,-0.08203047484373349,-0.04366813788489812,0.0,1.40283,-0.43164,9.84924
4909090860,22.35,-0.06178465552059926,0.05326744877086694,0.0,1.1870100000000001,-0.38259000000000004,9.82962
4914141365,22.35,-0.022375121010567305,0.15446163880149816,0.0,0.9123300000000001,-0.32373,10.26126
4919191870,22.35,0.02769837522915001,0.22903955773921586,0.0,0.38259000000000004,-0.28449,10.143540000000002
4924242375,22.35,0.05752605214573309,0.29082421325981517,0.0,-0.13734000000000002,-0.1962,9.87867
4929292880,22.35,0.06497860805174888,0.2343628119577986,0.0,-0.56898,-0.04905,9.819809999999999
4934343385,22.35,0.0852244273748831,0.13208651779093086,0.0,-0.9711900000000001,0.14715,9.623610000000001
4939393890,22.35,0.09054768159346581,0.013840460968315033,0.0,-1.08891,0.23544,9.40779
4944444395,22.35,0.12144000935376545,-0.07243116395776468,0.0,-0.9810000000000001,0.43164,9.52551
4949494900,22.35,0.1171814059788993,-0.12144000935376545,0.0,-0.5395500000000001,1.4715,9.46665
4954545405,22.35,0.024504422698000388,-0.12250466019748199,0.0,-0.009810000000000001,1.20663,10.575180000000001
4959595910,22.35,-0.002129301687433082,-0.09587093581204853,0.0,0.08829,0.2943,9.23121
4964646415,22.35,-0.12569861272863161,-0.02556907354171693,0.0,-0.019620000000000002,0.18639,9.14292
4969696920,22.35,-0.10119419003063122,-0.022375121010567305,0.0,0.0,-0.08829,9.37836
4974747425,22.35,-0.10225884087434776,0.00958185759344887,0.0,-0.07848000000000001,-0.05886,10.1043
4979797930,22.35,-0.06391395720803235,0.012775810124598492,0.0,-0.10791,-0.12753,10.09449
4984848435,22.35,-0.02769837522915001,0.008517206749732328,0.0,-0.10791,-0.20601000000000003,10.13373
4989898940,22.35,-0.013840460968315033,-0.008517206749732328,0.0,-0.10791,-0.12753,9.97677
4994949445,22.35,-0.001064650843716541,-0.020245819323134222,-0.005323254218582705,-0.04905,-0.13734000000000002,9.92772
4999999950,22.35,0.00958185759344887,-0.02663372438543347,-0.001064650843716541,-0.019620000000000002,-0.07848000000000001,9.751140000000001
5005050455,22.35,0.024504422698000388,-0.03089232776029963,0.003193952531149623,0.07848000000000001,-0.05886,9.770760000000001
5010100960,22.35,0.03515093113516579,-0.05752605214573309,0.0,0.14715,0.07848000000000001,9.91791
5015151465,22.35,0.06391395720803235,-0.08735372906231618,-0.001064650843716541,0.35316,0.8338500000000001,9.85905
5020201970,22.35,0.06710790973918197,-0.08841837990603273,-0.005323254218582705,0.85347,0.6278400000000001,10.35936
5025252475,22.35,0.02982767691658309,-0.046879543708567686,0.0,0.89271,0.41202000000000005,9.81
5030302980,22.35,-0.05220279792715039,0.02982767691658309,0.0,0.7749900000000001,0.02943,9.29007
5035353485,22.35,-0.014905111812031574,0.05007349623971732,-0.001064650843716541,0.45126,-0.07848000000000001,9.4176
5040403990,22.35,-0.044732788728614664,0.10119419003063122,0.002129301687433082,0.22563,0.04905,9.908100000000001
5045454495,22.35,-0.015987215948268057,0.1097288500728835,0.0,0.08829,-0.07848000000000001,10.06506
5050505000,22.35,0.007452555906015787,0.11079350091660004,0.0,-0.13734000000000002,0.019620000000000002,10.025820000000001
5055555505,22.35,0.028763026072866547,0.08309512568745003,-0.001064650843716541,-0.33354000000000006,0.05886,9.770760000000001
5060606010,22.35,0.04581489286485115,0.05646140130201656,-0.005323254218582705,-0.43164,0.11772,9.5157
5065656515,22.35,0.03834488366631542,0.03728023282259888,-0.002129301687433082,-0.51012,0.17658,9.46665
5070707020,22.35,0.022375121010567305,0.031956978604016174,-0.002129301687433082,-0.59841,0.26487,9.64323
5075757525,22.35,0.0170518667919846,0.021310470166850764,0.001064650843716541,-0.6670800000000001,0.27468000000000004,9.68247
5080808030,22.35,0.014905111812031574,0.005323254218582705,0.002129301687433082,-0.72594,0.42183,10.045440000000001
5085858535,22.35,0.011711159280881954,-0.031956978604016174,0.003193952531149623,-0.5395500000000001,0.34335000000000004,9.94734
5090909040,22.35,-0.002129301687433082,-0.07030186227033158,-0.001064650843716541,-0.43164,0.40221,9.94734
5095959545,22.35,-0.013840460968315033,-0.10866419922916695,0.002129301687433082,-0.18639,0.33354000000000006,9.65304
5101010050,22.35,-0.044732788728614664,-0.1171814059788993,0.001064650843716541,0.0,0.21582,9.770760000000001
5106060555,22.35,-0.044732788728614664,-0.12356931104119852,0.003193952531149623,0.30411,0.08829,9.73152
5111111060,22.35,-0.06497860805174888,-0.10759954838545042,0.0,0.56898,0.06867000000000001,9.81
5116161565,22.35,-0.039409534510031964,-0.10866419922916695,0.0,0.7749900000000001,0.019620000000000002,9.97677
5121212070,22.35,-0.03728023282259888,-0.07030186227033158,0.002129301687433082,0.9810000000000001,-0.07848000000000001,10.025820000000001
5126262575,22.35,-0.021310470166850764,-0.03408628029144926,0.0,0.9711900000000001,-0.16677000000000003,9.83943
5131313080,22.35,-0.006387905062299246,0.013840460968315033,0.0,0.94176,-0.14715,9.770760000000001
5136363585,22.35,0.00958185759344887,0.06391395720803235,0.0,0.80442,-0.11772,9.760950000000001
5141414090,22.35,0.02982767691658309,0.12356931104119852,-0.003193952531149623,0.57879,-0.009810000000000001,9.770760000000001
5146464595,22.35,0.04260348704118158,0.1629788455512305,0.0,0.24525000000000002,0.02943,9.72171
5151515100,22.35,0.05539675045830002,0.17683675981206545,-0.001064650843716541,-0.13734000000000002,0.12753,9.78057
5156565605,22.35,0.05113814708343386,0.17470745812463237,-0.006387905062299246,-0.46107000000000004,0.18639,9.819809999999999
5161616110,22.35,0.05965535383316618,0.15446163880149816,-0.003193952531149623,-0.80442,0.30411,9.89829
5166666615,22.35,0.05646140130201656,0.11931070766633237,0.0,-1.04967,0.41202000000000005,9.68247
5171717120,22.35,0.03728023282259888,0.05752605214573309,-0.002129301687433082,-1.15758,0.49050000000000005,9.751140000000001
5176767625,22.35,0.020245819323134222,-0.020245819323134222,0.0,-1.0987200000000001,0.57879,9.64323
5181818130,22.35,-0.013840460968315033,-0.08309512568745003,0.0,-0.87309,0.60822,9.7119
5186868635,22.35,-0.02556907354171693,-0.1416858286768997,0.002129301687433082,-0.6278400000000001,0.50031,9.69228
5191919140,22.35,-0.05859070298944965,-0.1757721089683489,0.004258603374866164,-0.28449,0.38259000000000004,9.79038
5196969645,22.35,-0.07349581480148122,-0.20559978588493202,0.003193952531149623,0.10791,0.18639,9.819809999999999
5202020150,22.35,-0.08415977653116657,-0.20772908757236508,0.0,0.52974,0.13734000000000002,9.86886
5207070655,22.35,-0.08415977653116657,-0.18641861740551433,0.001064650843716541,1.01043,-0.04905,9.99639
5212121160,22.35,-0.0756251164889143,-0.12463396188491506,0.001064650843716541,1.2556800000000001,-0.24525000000000002,9.89829
5217171665,22.35,-0.05859070298944965,-0.05113814708343386,0.0,1.3047300000000002,-0.32373,9.73152
5222222170,22.35,-0.012775810124598492,0.01811651763570114,-0.001064650843716541,1.2556800000000001,-0.35316,9.65304
5227272675,22.35,0.004258603374866164,0.09587093581204853,-0.001064650843716541,1.03005,-0.24525000000000002,9.96696
5232323180,22.35,0.03728023282259888,0.16404349639494703,-0.005323254218582705,0.72594,-0.17658,9.91791
5237373685,22.35,0.05752605214573309,0.21731094516581398,-0.002129301687433082,0.26487,-0.06867000000000001,9.908100000000001
5242424190,22.35,0.07136651311404815,0.24394466955124744,-0.003193952531149623,-0.24525000000000002,0.06867000000000001,9.86886
5247474695,22.35,0.08096582400001695,0.23116885942664894,-0.003193952531149623,-0.70632,0.21582,9.73152
5252525200,22.35,0.08841837990603273,0.19067722078038052,-0.004258603374866164,-1.10853,0.32373,9.760950000000001
5257575705,22.35,0.08628907821859966,0.11931070766633237,-0.002129301687433082,-1.31454,0.60822,9.66285
5262626210,22.35,0.07030186227033158,0.03621558197888234,0.0,-1.39302,0.71613,9.74133
5267676715,22.35,0.028763026072866547,-0.05326744877086694,0.0,-1.3243500000000001,0.84366,9.760950000000001
5272727220,22.35,-0.014905111812031574,-0.1416858286768997,0.001064650843716541,-0.89271,0.75537,9.64323
5277777725,22.35,-0.049008845396000776,-0.20559978588493202,0.004258603374866164,-0.56898,0.56898,9.60399
5282828230,22.35,-0.08948303074974927,-0.2428800187075309,0.003193952531149623,-0.05886,0.40221,9.69228
5287878735,22.35,-0.10545279340549739,-0.25459117798841285,0.002129301687433082,0.46107000000000004,0.25506,9.83943
5292929240,22.35,-0.10225884087434776,-0.23010420858293237,0.001064650843716541,1.02024,-0.05886,9.888480000000001
5297979745,22.35,-0.11185815176031658,-0.15872024217636432,0.003193952531149623,1.2753,-0.25506,9.89829
5303030250,22.35,-0.09480628496833199,-0.07883652231258387,0.002129301687433082,1.41264,-0.45126,9.69228
5308080755,22.35,-0.05007349623971732,-0.006387905062299246,-0.002129301687433082,1.41264,-0.44145,9.760950000000001
5313131260,22.35,-0.02556907354171693,0.08415977653116657,-0.004258603374866164,1.2360600000000002,-0.34335000000000004,9.92772
5318181765,22.35,0.021310470166850764,0.15872024217636432,-0.002129301687433082,0.94176,-0.35316,9.937529999999999
5323232270,22.35,0.05539675045830002,0.2162462943220974,-0.002129301687433082,0.44145,-0.18639,9.99639
5328282775,22.35,0.08203047484373349,0.23649211364523165,-0.001064650843716541,-0.009810000000000001,-0.05886,9.85905
5333333280,22.35,0.10012953918691468,0.23010420858293237,-0.003193952531149623,-0.49050000000000005,0.05886,9.770760000000001
5338383785,22.35,0.10332349171806432,0.20347048419749894,-0.003193952531149623,-0.89271,0.27468000000000004,9.7119
5343434290,22.35,0.10332349171806432,0.14700908289548237,-0.003193952531149623,-1.1772,0.41202000000000005,9.68247
5348484795,22.35,0.09267698328089889,0.05965535383316618,-0.002129301687433082,-1.29492,0.95157,9.70209
5353535300,22.35,0.060720004676882725,-0.028763026072866547,0.0,-1.3047300000000002,1.03986,10.01601
5358585805,22.35,0.005323254218582705,-0.10438814256178083,0.0,-0.9711900000000001,0.86328,9.87867
5363636310,22.35,-0.0404741853537485,-0.1704488547497662,0.002129301687433082,-0.6278400000000001,0.51993,9.52551
5368686815,22.35,-0.08628907821859966,-0.20772908757236508,0.003193952531149623,-0.30411,0.33354000000000006,9.56475
5373737320,22.35,-0.10866419922916695,-0.22582815191554628,0.004258603374866164,0.12753,0.08829,9.65304
5378787825,22.35,-0.10225884087434776,-0.22582815191554628,0.005323254218582705,0.5886,0.07848000000000001,9.81
5383838330,22.35,-0.10545279340549739,-0.18109536318693162,0.003193952531149623,1.0987200000000001,-0.10791,10.08468
5388888835,22.35,-0.07456046564519776,-0.12356931104119852,0.004258603374866164,1.29492,-0.35316,9.888480000000001
5393939340,22.35,-0.06178465552059926,-0.0404741853537485,-0.002129301687433082,1.3243500000000001,-0.32373,9.80019
5398989845,22.35,-0.022375121010567305,0.03834488366631542,-0.005323254218582705,1.26549,-0.3924,9.81
5404040350,22.35,0.006387905062299246,0.12250466019748199,-0.003193952531149623,1.02024,-0.26487,9.888480000000001
5409090855,22.35,0.031956978604016174,0.18216001403064813,0.0,0.6768900000000001,-0.20601000000000003,9.81
5414141360,22.35,0.06391395720803235,0.20985838925979816,-0.003193952531149623,0.20601000000000003,-0.10791,9.80019
5419191865,22.35,0.07990117315630041,0.21944024685324706,-0.004258603374866164,-0.25506,0.039240000000000004,9.72171
5424242370,22.35,0.09800023749948161,0.20240583335378237,-0.003193952531149623,-0.6278400000000001,0.21582,9.72171
5429292875,22.35,0.10545279340549739,0.16404349639494703,-0.002129301687433082,-0.9810000000000001,0.33354000000000006,9.760950000000001
5434343380,22.35,0.09374163412461543,0.10545279340549739,-0.003193952531149623,-1.16739,0.6670800000000001,9.819809999999999
5439393885,22.35,0.07136651311404815,0.033021629447732716,0.001064650843716541,-1.3047300000000002,0.87309,9.888480000000001
5444444390,22.35,0.020245819323134222,-0.04260348704118158,0.0,-1.15758,0.7651800000000001,9.937529999999999
5449494895,22.35,-0.013840460968315033,-0.11292280260403312,0.003193952531149623,-0.86328,0.60822,9.47646
5454545400,22.66,-0.05646140130201656,-0.1704488547497662,0.0,-0.5886,0.51993,9.60399
5459595905,22.66,-0.07136651311404815,-0.21731094516581398,0.001064650843716541,-0.15696000000000002,0.42183,9.633420000000001
5464646410,22.66,-0.08948303074974927,-0.2354274628015151,0.003193952531149623,0.31392000000000003,0.22563,9.819809999999999
5469696915,22.66,-0.10759954838545042,-0.20879373841608162,-0.002129301687433082,0.89271,-0.07848000000000001,9.937529999999999
5474747420,22.66,-0.10653489754173388,-0.14275047952061623,0.0,1.1281500000000002,-0.30411,9.94734
5479797925,22.66,-0.08948303074974927,-0.06710790973918197,0.0,1.1870100000000001,-0.40221,9.78057
5484848430,22.66,-0.049008845396000776,0.001064650843716541,0.0,1.2360600000000002,-0.3924,9.87867
5489898935,22.66,-0.012775810124598492,0.07136651311404815,-0.001064650843716541,1.10853,-0.34335000000000004,9.81
5494949440,22.66,0.021310470166850764,0.1374272253020335,-0.002129301687433082,0.8338500000000001,-0.26487,9.82962
5499999945,22.66,0.05752605214573309,0.18535396656179778,-0.004258603374866164,0.42183,-0.16677000000000003,9.83943
5505050450,22.66,0.07777187146886733,0.21092304010351473,-0.002129301687433082,0.0,-0.009810000000000001,9.79038
5510100955,22.66,0.09054768159346581,0.20772908757236508,-0.003193952531149623,-0.38259000000000004,0.08829,9.751140000000001
5515151460,22.66,0.09800023749948161,0.1800307123432151,-0.005323254218582705,-0.7848,0.30411,9.79038
5520201965,22.66,0.09161233243718235,0.1278279144160647,-0.004258603374866164,-1.03986,0.3924,9.819809999999999
5525252470,22.66,0.08735372906231618,0.06284930636431581,-0.001064650843716541,-1.19682,0.84366,9.81
5530302975,22.66,0.06817256058289851,-0.0170518667919846,0.0,-1.1183400000000001,0.89271,9.937529999999999
5535353480,22.66,0.01064650843716541,-0.08096582400001695,0.002129301687433082,-0.8829,0.84366,9.770760000000001
5540403985,22.66,-0.03621558197888234,-0.14487978120804929,0.0,-0.5493600000000001,0.5886,9.42741
5545454490,22.66,-0.07349581480148122,-0.19280652246781357,0.007452555906015787,-0.23544,0.46107000000000004,9.52551
5550504995,22.66,-0.1097288500728835,-0.21092304010351473,0.004258603374866164,0.17658,0.17658,9.67266
5555555500,22.66,-0.11292280260403312,-0.20453513504121545,0.0,0.57879,0.0,9.89829
5560606005,22.66,-0.10759954838545042,-0.1672549022186166,0.001064650843716541,0.9711900000000001,-0.21582,10.1043
5565656510,22.66,-0.07883652231258387,-0.11505210429146619,0.004258603374866164,1.13796,-0.36297,9.98658
5570707015,22.66,-0.05965535383316618,-0.05113814708343386,-0.003193952531149623,1.21644,-0.36297,9.82962
5575757520,22.66,-0.021310470166850764,0.020245819323134222,0.0,1.22625,-0.32373,9.81
5580808025,22.66,0.007452555906015787,0.09374163412461543,0.0,1.03005,-0.30411,9.7119
5585858530,22.66,0.03728023282259888,0.16510814723866357,-0.002129301687433082,0.6867000000000001,-0.1962,9.770760000000001
5590909035,22.66,0.06497860805174888,0.21411699263466438,-0.004258603374866164,0.22563,-0.08829,9.819809999999999
5595959540,22.66,0.08415977653116657,0.2279749068954993,-0.003193952531149623,-0.26487,0.039240000000000004,9.908100000000001
5601010045,22.66,0.09587093581204853,0.21411699263466438,-0.004258603374866164,-0.70632,0.22563,9.86886
5606060550,22.66,0.09374163412461543,0.16938420390604966,-0.005323254218582705,-1.03005,0.35316,9.84924
5611111055,22.66,0.08735372906231618,0.10012953918691468,-0.002129301687433082,-1.2360600000000002,0.5493600000000001,9.68247
5616161560,22.66,0.06817256058289851,0.01918116847941768,0.001064650843716541,-1.31454,0.94176,9.67266
5621212065,22.66,0.046879543708567686,-0.07777187146886733,0.001064650843716541,-1.1281500000000002,0.94176,9.81
5626262570,22.66,-0.013840460968315033,-0.14487978120804929,0.0,-0.72594,0.85347,9.69228
5631313075,22.66,-0.060720004676882725,-0.19814722997891623,0.002129301687433082,-0.33354000000000006,0.51993,9.58437
5636363580,22.66,-0.09480628496833199,-0.22582815191554628,0.006387905062299246,0.039240000000000004,0.20601000000000003,9.65304
5641414085,22.66,-0.12356931104119852,-0.21944024685324706,0.001064650843716541,0.45126,0.05886,9.760950000000001
5646464590,22.66,-0.1097288500728835,-0.18961256993666398,0.002129301687433082,0.90252,-0.1962,9.99639
5651515095,22.66,-0.09906488834319814,-0.12356931104119852,0.002129301687433082,1.0987200000000001,-0.34335000000000004,9.97677
5656565600,22.66,-0.06497860805174888,-0.05220279792715039,0.004258603374866164,1.22625,-0.3924,9.819809999999999
5661616105,22.66,-0.028763026072866547,0.023439771854283843,-0.002129301687433082,1.16739,-0.36297,9.85905
5666666610,22.66,0.003193952531149623,0.10225884087434776,-0.002129301687433082,0.9810000000000001,-0.31392000000000003,9.770760000000001
5671717115,22.66,0.03089232776029963,0.1672549022186166,-0.001064650843716541,0.64746,-0.21582,9.82962
5676767620,22.66,0.05646140130201656,0.21092304010351473,-0.003193952531149623,0.20601000000000003,-0.13734000000000002,9.89829
5681818125,22.66,0.0756251164889143,0.22903955773921586,-0.004258603374866164,-0.23544,-0.009810000000000001,9.87867
5686868630,22.66,0.08841837990603273,0.20879373841608162,-0.004258603374866164,-0.6867000000000001,0.17658,9.819809999999999
5691919135,22.66,0.09587093581204853,0.15872024217636432,-0.004258603374866164,-1.02024,0.27468000000000004,9.751140000000001
5696969640,22.66,0.09267698328089889,0.08841837990603273,-0.003193952531149623,-1.1870100000000001,0.44145,9.68247
5702020145,22.66,0.08203047484373349,0.001064650843716541,0.0,-1.1870100000000001,1.04967,9.64323
5707070650,22.66,0.05646140130201656,-0.08841837990603273,0.002129301687433082,-0.9319500000000001,0.9613800000000001,9.97677
5712121155,22.66,-0.006387905062299246,-0.1480737337391989,0.0,-0.6180300000000001,0.8338500000000001,9.74133
5717171660,22.66,-0.08096582400001695,-0.19708257913519966,0.003193952531149623,-0.14715,0.5493600000000001,9.56475
5722222165,22.66,-0.09267698328089889,-0.22689280275926285,0.003193952531149623,0.1962,0.22563,9.57456
5727272670,22.66,-0.12250466019748199,-0.20240583335378237,0.001064650843716541,0.59841,0.0981,9.751140000000001
5732323175,22.66,-0.11398745344774965,-0.16191419470751395,0.003193952531149623,1.03986,-0.23544,9.99639
5737373680,22.66,-0.09054768159346581,-0.10225884087434776,0.002129301687433082,1.1477700000000002,-0.36297,9.84924
5742424185,22.66,-0.07030186227033158,-0.02769837522915001,-0.004258603374866164,1.20663,-0.40221,9.83943
5747474690,22.66,-0.03408628029144926,0.04581489286485115,-0.001064650843716541,1.1477700000000002,-0.36297,9.908100000000001
5752525195,22.66,0.002129301687433082,0.11611675513518273,0.0,0.9123300000000001,-0.33354000000000006,9.84924
5757575700,22.66,0.033021629447732716,0.1704488547497662,-0.001064650843716541,0.56898,-0.20601000000000003,9.89829
5762626205,22.66,0.06391395720803235,0.20879373841608162,-0.003193952531149623,0.12753,-0.12753,9.85905
5767676710,22.66,0.08948303074974927,0.21731094516581398,0.0,-0.35316,0.039240000000000004,9.84924
5772727215,22.66,0.09693558665576507,0.20240583335378237,-0.002129301687433082,-0.71613,0.17658,9.751140000000001
5777777720,22.66,0.09906488834319814,0.15339698795778162,-0.003193952531149623,-1.02024,0.33354000000000006,9.7119
5782828225,22.66,0.09054768159346581,0.08309512568745003,-0.003193952531149623,-1.19682,0.49050000000000005,9.65304
5787878730,22.66,0.08096582400001695,0.001064650843716541,-0.001064650843716541,-1.22625,1.04967,9.68247
5792929235,22.66,0.05646140130201656,-0.08841837990603273,0.001064650843716541,-0.9908100000000001,0.9908100000000001,10.01601
5797979740,22.66,-0.006387905062299246,-0.1555262896452147,0.004258603374866164,-0.65727,0.8829,9.81
5803030245,22.66,-0.07243116395776468,-0.19921188082263275,0.002129301687433082,-0.21582,0.50031,9.59418
5808080750,22.66,-0.09693558665576507,-0.2205048976969636,0.001064650843716541,0.11772,0.16677000000000003,9.56475
5813131255,22.66,-0.12569861272863161,-0.20027653166634932,-0.001064650843716541,0.5395500000000001,0.06867000000000001,9.66285
5818181760,22.66,-0.11079350091660004,-0.1629788455512305,0.0,0.94176,-0.20601000000000003,9.92772
5823232265,22.66,-0.09480628496833199,-0.10225884087434776,0.002129301687433082,1.08891,-0.30411,9.89829
5828282770,22.66,-0.07243116395776468,-0.03621558197888234,-0.002129301687433082,1.13796,-0.37278,9.86886
5833333275,22.66,-0.03089232776029963,0.03621558197888234,0.0,1.0791000000000002,-0.37278,9.92772
5838383780,22.66,0.006387905062299246,0.1171814059788993,-0.001064650843716541,0.85347,-0.30411,9.85905
5843434285,22.66,0.03515093113516579,0.17257815643719931,-0.003193952531149623,0.49050000000000005,-0.20601000000000003,9.888480000000001
5848484790,22.66,0.06178465552059926,0.19814722997891623,-0.001064650843716541,0.07848000000000001,-0.10791,9.85905
5853535295,22.66,0.0756251164889143,0.20240583335378237,-0.002129301687433082,-0.35316,0.04905,9.770760000000001
5858585800,22.66,0.09054768159346581,0.18748326824923087,-0.001064650843716541,-0.69651,0.15696000000000002,9.68247
5863636305,22.66,0.10119419003063122,0.14381513036433274,-0.001064650843716541,-0.9613800000000001,0.30411,9.67266
5868686810,22.66,0.09800023749948161,0.07243116395776468,0.0,-1.1281500000000002,0.49050000000000005,9.70209
5873737315,22.66,0.07777187146886733,-0.015987215948268057,0.0,-1.10853,1.04967,9.74133
5878787820,22.66,0.02982767691658309,-0.09693558665576507,0.003193952531149623,-0.8240400000000001,0.9221400000000001,10.17297
5883838325,22.66,-0.004258603374866164,-0.15446163880149816,0.0,-0.5395500000000001,0.71613,9.60399
5888888830,22.66,-0.07670722062515077,-0.18216001403064813,0.004258603374866164,-0.16677000000000003,0.5493600000000001,9.57456
5893939335,22.66,-0.08628907821859966,-0.2151816434783809,0.004258603374866164,0.24525000000000002,0.20601000000000003,9.60399
5898989840,22.66,-0.11292280260403312,-0.20772908757236508,-0.001064650843716541,0.6278400000000001,0.12753,9.73152
5904040345,22.66,-0.11931070766633237,-0.15978489302008084,0.001064650843716541,1.04967,-0.20601000000000003,9.908100000000001
5909090850,22.66,-0.09374163412461543,-0.09374163412461543,0.0,1.1772,-0.37278,9.84924
5914141355,22.66,-0.06710790973918197,-0.01811651763570114,0.0,1.1772,-0.37278,9.83943
5919191860,22.66,-0.03621558197888234,0.05007349623971732,0.0,1.0791000000000002,-0.35316,10.006200000000002
5924242365,22.66,0.0,0.11079350091660004,-0.002129301687433082,0.90252,-0.34335000000000004,9.92772
5929292870,22.66,0.028763026072866547,0.16938420390604966,-0.002129301687433082,0.52974,-0.23544,9.92772
5934343375,22.66,0.06391395720803235,0.20879373841608162,-0.001064650843716541,0.11772,-0.12753,9.81
5939393880,22.66,0.08415977653116657,0.2279749068954993,-0.003193952531149623,-0.35316,0.009810000000000001,9.73152
5944444385,22.66,0.09374163412461543,0.21092304010351473,-0.004258603374866164,-0.7749900000000001,0.13734000000000002,9.70209
5949494890,22.66,0.10119419003063122,0.16084954386379738,-0.002129301687433082,-1.08891,0.31392000000000003,9.72171
5954545395,22.66,0.08415977653116657,0.09054768159346581,-0.005323254218582705,-1.2753,0.50031,9.7119
5959595900,22.66,0.08096582400001695,0.0,-0.001064650843716541,-1.3047300000000002,0.9221400000000001,9.760950000000001
5964646405,22.66,0.054332099614583476,-0.09054768159346581,0.002129301687433082,-1.10853,0.9711900000000001,9.937529999999999
5969696910,22.66,-0.007452555906015787,-0.16191419470751395,0.001064650843716541,-0.69651,0.87309,9.819809999999999
5974747415,22.66,-0.05539675045830002,-0.21731094516581398,0.001064650843716541,-0.24525000000000002,0.60822,9.56475
5979797920,22.66,-0.09161233243718235,-0.2354274628015151,0.006387905062299246,0.16677000000000003,0.2943,9.53532
5984848425,22.66,-0.12250466019748199,-0.2162462943220974,0.001064650843716541,0.63765,0.10791,9.57456
5989898930,22.66,-0.12037535851004891,-0.1704488547497662,0.001064650843716541,1.03005,-0.20601000000000003,9.888480000000001
5994949435,22.66,-0.10653489754173388,-0.10759954838545042,0.001064650843716541,1.16739,-0.36297,9.908100000000001
5999999940,22.66,-0.08096582400001695,-0.0404741853537485,-0.002129301687433082,1.20663,-0.41202000000000005,9.94734
6005050445,22.66,-0.0404741853537485,0.033021629447732716,-0.002129301687433082,1.13796,-0.40221,10.045440000000001
6010100950,22.66,-0.001064650843716541,0.1097288500728835,0.001064650843716541,0.94176,-0.35316,9.908100000000001
6015151455,22.66,0.02769837522915001,0.16938420390604966,-0.002129301687433082,0.60822,-0.24525000000000002,9.86886
6020201960,22.66,0.05752605214573309,0.19708257913519966,-0.003193952531149623,0.20601000000000003,-0.14715,9.74133
6025252465,22.66,0.07883652231258387,0.20879373841608162,-0.003193952531149623,-0.21582,-0.019620000000000002,9.73152
6030302970,22.66,0.09374163412461543,0.19067722078038052,-0.003193952531149623,-0.60822,0.11772,9.70209
6035353475,22.66,0.10653489754173388,0.15126768627034853,-0.001064650843716541,-0.9123300000000001,0.2943,9.751140000000001
6040403980,22.66,0.10119419003063122,0.0852244273748831,0.0,-1.1183400000000001,0.43164,9.819809999999999
6045454485,22.66,0.08948303074974927,0.002129301687433082,-0.001064650843716541,-1.13796,1.01043,9.79038
6050504990,22.66,0.05539675045830002,-0.08203047484373349,0.0,-0.89271,0.94176,10.1043
6055555495,22.66,0.007452555906015787,-0.1416858286768997,0.004258603374866164,-0.57879,0.90252,9.67266
6060606000,22.66,-0.06391395720803235,-0.1757721089683489,0.004258603374866164,-0.17658,0.63765,9.48627
6065656505,22.66,-0.08096582400001695,-0.20453513504121545,0.007452555906015787,0.13734000000000002,0.2943,9.53532
6070707010,22.66,-0.12569861272863161,-0.19174187162409706,-0.002129301687433082,0.50031,0.14715,9.64323
6075757515,22.66,-0.11931070766633237,-0.16084954386379738,0.0,0.9319500000000001,-0.25506,9.89829
6080808020,22.66,-0.09693558665576507,-0.09161233243718235,0.002129301687433082,1.02024,-0.30411,9.96696
6085858525,22.66,-0.07030186227033158,-0.014905111812031574,-0.002129301687433082,1.0791000000000002,-0.36297,9.96696
6090909030,22.66,-0.03515093113516579,0.054332099614583476,-0.002129301687433082,0.9711900000000001,-0.36297,9.97677
6095959535,22.66,-0.00958185759344887,0.12144000935376545,0.0,0.75537,-0.33354000000000006,9.85905
6101010040,22.66,0.02982767691658309,0.16938420390604966,0.0,0.40221,-0.24525000000000002,9.80019
6106060545,22.66,0.05646140130201656,0.19814722997891623,-0.004258603374866164,0.0,-0.10791,9.70209
6111111050,22.66,0.08096582400001695,0.19387117331153014,-0.002129301687433082,-0.41202000000000005,0.0,9.73152
6116161555,22.66,0.08841837990603273,0.16617279808238014,-0.003193952531149623,-0.73575,0.10791,9.760950000000001
6121212060,22.66,0.09374163412461543,0.11398745344774965,-0.003193952531149623,-0.9908100000000001,0.2943,9.81
6126262565,22.66,0.09161233243718235,0.05113814708343386,-0.002129301687433082,-1.08891,0.41202000000000005,9.81
6131313070,22.66,0.08415977653116657,-0.01918116847941768,-0.001064650843716541,-1.06929,1.01043,9.751140000000001
6136363575,22.66,0.060720004676882725,-0.09374163412461543,0.003193952531149623,-0.7848,0.94176,9.98658
6141414080,22.66,0.001064650843716541,-0.14487978120804929,0.0,-0.49050000000000005,0.90252,9.70209
6146464585,22.66,-0.06923721142661506,-0.1704488547497662,0.004258603374866164,-0.039240000000000004,0.57879,9.48627
6151515090,22.66,-0.08203047484373349,-0.18641861740551433,0.003193952531149623,0.22563,0.23544,9.50589
6156565595,22.66,-0.12144000935376545,-0.17364280728091586,0.001064650843716541,0.51993,0.11772,9.6138
6161616100,22.66,-0.11505210429146619,-0.15339698795778162,0.001064650843716541,0.90252,-0.22563,9.95715
6166666605,22.66,-0.10012953918691468,-0.10119419003063122,0.0,1.03005,-0.30411,10.03563
6171717110,22.66,-0.06817256058289851,-0.03834488366631542,0.0,1.10853,-0.37278,9.94734
6176767615,22.66,-0.02982767691658309,0.02769837522915001,0.0,1.0791000000000002,-0.3924,9.99639
6181818120,22.66,-0.001064650843716541,0.08415977653116657,-0.001064650843716541,0.89271,-0.31392000000000003,9.78057
6186868625,22.66,0.02663372438543347,0.1352804703220805,0.0,0.63765,-0.22563,9.73152
6191919130,22.66,0.05113814708343386,0.17470745812463237,-0.001064650843716541,0.28449,-0.11772,9.73152
6196969635,22.66,0.07670722062515077,0.19708257913519966,-0.002129301687433082,-0.13734000000000002,0.0,9.79038
6202020140,22.66,0.08841837990603273,0.19280652246781357,-0.004258603374866164,-0.51993,0.14715,9.82962
6207070645,22.66,0.09693558665576507,0.14594443205176583,-0.002129301687433082,-0.86328,0.28449,9.86886
6212121150,22.66,0.09054768159346581,0.08735372906231618,-0.002129301687433082,-1.03986,0.40221,9.80019
6217171655,22.66,0.07777187146886733,0.02663372438543347,-0.001064650843716541,-1.10853,0.87309,9.7119
6222222160,22.66,0.05965535383316618,-0.049008845396000776,0.0,-0.95157,0.86328,9.86886
6227272665,22.66,0.001064650843716541,-0.10759954838545042,0.001064650843716541,-0.69651,0.84366,9.73152
6232323170,22.66,-0.05220279792715039,-0.16084954386379738,0.0,-0.34335000000000004,0.5591700000000001,9.496080000000001
6237373675,22.66,-0.07136651311404815,-0.19067722078038052,0.003193952531149623,-0.019620000000000002,0.34335000000000004,9.60399
6242424180,22.66,-0.10759954838545042,-0.18535396656179778,0.002129301687433082,0.32373,0.10791,9.68247
6247474685,22.66,-0.10012953918691468,-0.16831955306233315,0.0,0.6867000000000001,-0.0981,9.85905
6252525190,22.66,-0.10119419003063122,-0.11611675513518273,0.001064650843716541,0.9123300000000001,-0.27468000000000004,10.045440000000001
6257575695,22.66,-0.06710790973918197,-0.05646140130201656,-0.001064650843716541,0.9810000000000001,-0.32373,9.84924
6262626200,22.66,-0.039409534510031964,0.0170518667919846,0.0,0.9810000000000001,-0.30411,9.908100000000001
6267676705,22.66,-0.006387905062299246,0.07777187146886733,0.0,0.86328,-0.30411,9.751140000000001
6272727210,22.66,0.01811651763570114,0.12676326357234816,-0.002129301687433082,0.59841,-0.1962,9.79038
6277777715,22.66,0.04260348704118158,0.15659094048893124,-0.003193952531149623,0.26487,-0.12753,9.80019
6282828220,22.66,0.06604325889546543,0.16831955306233315,-0.002129301687433082,-0.0981,-0.02943,9.85905
6287878725,22.66,0.07990117315630041,0.1672549022186166,-0.002129301687433082,-0.43164,0.08829,9.82962
6292929230,22.66,0.08948303074974927,0.13421581947836395,-0.002129301687433082,-0.70632,0.24525000000000002,9.82962
6297979735,22.66,0.08415977653116657,0.07670722062515077,-0.002129301687433082,-0.89271,0.37278,9.770760000000001
6303030240,22.66,0.07030186227033158,0.015987215948268057,-0.001064650843716541,-0.9123300000000001,0.7749900000000001,9.69228
6308080745,22.66,0.06710790973918197,-0.046879543708567686,0.0,-0.73575,0.86328,9.81
6313131250,22.66,0.004258603374866164,-0.09480628496833199,0.0,-0.51993,0.9221400000000001,9.84924
6318181755,22.66,-0.04153883619746504,-0.14594443205176583,0.001064650843716541,-0.1962,0.5493600000000001,9.54513
6323232260,22.66,-0.07243116395776468,-0.17683675981206545,0.003193952531149623,0.05886,0.27468000000000004,9.6138
6328282765,22.66,-0.10866419922916695,-0.1672549022186166,0.002129301687433082,0.41202000000000005,0.10791,9.70209
6333333270,22.66,-0.09267698328089889,-0.1480737337391989,-0.001064650843716541,0.7749900000000001,-0.1962,9.908100000000001
6338383775,22.66,-0.09054768159346581,-0.09480628496833199,0.0,0.9123300000000001,-0.24525000000000002,10.006200000000002
6343434280,22.66,-0.06178465552059926,-0.03728023282259888,-0.001064650843716541,1.00062,-0.32373,9.89829
6348484785,22.66,-0.03408628029144926,0.03408628029144926,-0.004258603374866164,0.94176,-0.27468000000000004,9.908100000000001
6353535290,22.66,-0.002129301687433082,0.09906488834319814,-0.001064650843716541,0.7651800000000001,-0.27468000000000004,9.79038
6358585795,22.66,0.024504422698000388,0.15339698795778162,-0.001064650843716541,0.46107000000000004,-0.18639,9.819809999999999
6363636300,22.66,0.044732788728614664,0.1757721089683489,-0.002129301687433082,0.08829,-0.08829,9.81
6368686805,22.66,0.06178465552059926,0.17683675981206545,0.0,-0.32373,0.02943,9.81
6373737310,22.66,0.08203047484373349,0.15872024217636432,-0.003193952531149623,-0.6180300000000001,0.11772,9.819809999999999
6378787815,22.66,0.08841837990603273,0.12356931104119852,-0.004258603374866164,-0.89271,0.25506,9.81
6383838320,22.66,0.08628907821859966,0.06497860805174888,0.0,-1.02024,0.35316,9.73152
6388888825,22.66,0.07030186227033158,0.0,-0.003193952531149623,-1.02024,0.7749900000000001,9.69228
6393939330,22.66,0.05539675045830002,-0.06710790973918197,0.001064650843716541,-0.8240400000000001,0.8338500000000001,9.81
6398989835,22.66,0.0,-0.11079350091660004,0.003193952531149623,-0.5395500000000001,0.86328,9.83943
6404040340,22.66,-0.04366813788489812,-0.150203035426632,0.003193952531149623,-0.1962,0.52974,9.54513
6409090845,22.66,-0.0756251164889143,-0.17257815643719931,0.003193952531149623,0.02943,0.26487,9.623610000000001
6414141350,22.66,-0.10759954838545042,-0.17151350559348277,0.0,0.38259000000000004,0.0981,9.67266
6419191855,22.66,-0.08628907821859966,-0.16191419470751395,0.0,0.72594,-0.10791,9.888480000000001
6424242360,22.66,-0.08948303074974927,-0.11185815176031658,0.002129301687433082,0.9319500000000001,-0.23544,10.01601
6429292865,22.66,-0.06178465552059926,-0.06497860805174888,0.002129301687433082,1.03005,-0.32373,9.82962
6434343370,22.66,-0.03621558197888234,-0.001064650843716541,-0.001064650843716541,1.04967,-0.28449,9.85905
6439393875,22.66,-0.006387905062299246,0.05539675045830002,0.0,0.95157,-0.23544,9.83943
6444444380,22.66,0.020245819323134222,0.10545279340549739,0.0,0.75537,-0.18639,9.85905
6449494885,22.66,0.044732788728614664,0.14275047952061623,-0.004258603374866164,0.40221,-0.08829,9.819809999999999
6454545390,22.66,0.06284930636431581,0.16617279808238014,-0.002129301687433082,0.05886,0.0,9.87867
6459595895,22.66,0.07883652231258387,0.17364280728091586,-0.004258603374866164,-0.2943,0.10791,9.84924
6464646400,22.66,0.08309512568745003,0.16404349639494703,-0.002129301687433082,-0.6180300000000001,0.24525000000000002,9.79038
6469696905,22.66,0.08096582400001695,0.12995721610349775,-0.003193952531149623,-0.90252,0.35316,9.78057
6474747410,22.66,0.06817256058289851,0.06923721142661506,0.0,-1.03005,0.5493600000000001,9.68247
6479797915,22.66,0.049008845396000776,0.002129301687433082,-0.001064650843716541,-1.02024,0.8338500000000001,9.74133
6484848420,22.66,0.011711159280881954,-0.06284930636431581,0.003193952531149623,-0.8142300000000001,0.74556,9.92772
6489898925,22.66,-0.01918116847941768,-0.12995721610349775,0.001064650843716541,-0.56898,0.5591700000000001,9.65304
6494949430,22.66,-0.06604325889546543,-0.18109536318693162,0.003193952531149623,-0.28449,0.44145,9.64323
6499999935,22.66,-0.0852244273748831,-0.19493582415524666,0.004258603374866164,0.12753,0.11772,9.65304
6505050440,22.66,-0.09267698328089889,-0.18748326824923087,-0.002129301687433082,0.48069000000000006,0.04905,9.78057
6510100945,22.66,-0.08735372906231618,-0.14700908289548237,0.0,0.86328,-0.12753,9.92772
6515151450,22.66,-0.06923721142661506,-0.09054768159346581,0.002129301687433082,0.9613800000000001,-0.28449,9.888480000000001
6520201955,22.66,-0.05007349623971732,-0.021310470166850764,0.0,1.03005,-0.26487,9.74133
6525252460,22.66,-0.02663372438543347,0.044732788728614664,-0.002129301687433082,0.9908100000000001,-0.27468000000000004,9.86886
6530302965,22.66,0.01064650843716541,0.10438814256178083,0.0,0.7749900000000001,-0.21582,9.79038
6535353470,22.66,0.031956978604016174,0.15659094048893124,-0.003193952531149623,0.40221,-0.15696000000000002,9.888480000000001
6540403975,22.66,0.05220279792715039,0.18748326824923087,-0.002129301687433082,0.02943,-0.06867000000000001,9.86886
6545454480,22.66,0.06497860805174888,0.18961256993666398,-0.001064650843716541,-0.34335000000000004,0.039240000000000004,9.84924
6550504985,22.66,0.06923721142661506,0.16831955306233315,-0.007452555906015787,-0.6670800000000001,0.18639,9.770760000000001
6555555490,22.66,0.08415977653116657,0.1171814059788993,0.001064650843716541,-0.9221400000000001,0.28449,9.7119
6560605995,22.66,0.07136651311404815,0.046879543708567686,0.0,-1.02024,0.41202000000000005,9.64323
6565656500,22.66,0.060720004676882725,-0.03728023282259888,0.0,-0.95157,1.00062,9.67266
6570707005,22.66,0.023439771854283843,-0.1171814059788993,0.003193952531149623,-0.59841,0.94176,10.15335
6575757510,22.66,-0.006387905062299246,-0.1704488547497662,0.001064650843716541,-0.24525000000000002,0.6867000000000001,9.70209
6580808015,22.66,-0.08735372906231618,-0.1832246648743647,0.003193952531149623,0.0981,0.40221,9.6138
6585858520,22.66,-0.09906488834319814,-0.19814722997891623,0.002129301687433082,0.47088,0.10791,9.55494
6590909025,22.66,-0.10545279340549739,-0.16191419470751395,0.0,0.79461,-0.02943,9.751140000000001
6595959530,22.66,-0.10545279340549739,-0.10545279340549739,0.0,1.04967,-0.27468000000000004,9.937529999999999
6601010035,22.66,-0.07349581480148122,-0.04260348704118158,0.0,1.05948,-0.31392000000000003,9.83943
6606060540,22.66,-0.05007349623971732,0.024504422698000388,-0.003193952531149623,1.00062,-0.34335000000000004,9.96696
6611111045,22.66,-0.020245819323134222,0.09267698328089889,-0.002129301687433082,0.8829,-0.31392000000000003,9.937529999999999
6616161550,22.66,0.011711159280881954,0.15233233711406508,-0.001064650843716541,0.5493600000000001,-0.25506,9.91791
6621212055,22.66,0.046879543708567686,0.18854791909294744,0.0,0.11772,-0.1962,9.82962
6626262560,22.66,0.06391395720803235,0.20453513504121545,0.0,-0.26487,-0.039240000000000004,9.80019
6631313065,22.66,0.07883652231258387,0.19174187162409706,-0.004258603374866164,-0.6180300000000001,0.08829,9.74133
6636363570,22.66,0.0852244273748831,0.15765559133264778,-0.005323254218582705,-0.9711900000000001,0.23544,9.760950000000001
6641414075,22.66,0.08948303074974927,0.10225884087434776,-0.003193952531149623,-1.1281500000000002,0.30411,9.68247
6646464580,22.66,0.07990117315630041,0.0170518667919846,-0.001064650843716541,-1.21644,0.5591700000000001,9.67266
6651515085,22.66,0.06923721142661506,-0.06923721142661506,0.003193952531149623,-1.06929,1.03986,9.751140000000001
6656565590,22.66,0.0170518667919846,-0.13955652698946658,0.003193952531149623,-0.63765,1.01043,10.06506
6661616095,22.66,-0.015987215948268057,-0.19493582415524666,0.003193952531149623,-0.33354000000000006,0.71613,9.623610000000001
6666666600,22.66,-0.0852244273748831,-0.20772908757236508,0.004258603374866164,0.13734000000000002,0.44145,9.57456
6671717105,22.66,-0.11398745344774965,-0.2151816434783809,0.001064650843716541,0.52974,0.14715,9.56475
6676767610,22.66,-0.11505210429146619,-0.18748326824923087,0.002129301687433082,0.9221400000000001,-0.06867000000000001,9.760950000000001
6681818115,22.66,-0.11611675513518273,-0.11931070766633237,0.004258603374866164,1.1281500000000002,-0.32373,9.908100000000001
6686868620,22.66,-0.08735372906231618,-0.05326744877086694,0.001064650843716541,1.19682,-0.38259000000000004,9.87867
6691919125,22.66,-0.05539675045830002,0.021310470166850764,-0.001064650843716541,1.16739,-0.41202000000000005,9.97677
6696969630,22.66,-0.011711159280881954,0.09054768159346581,0.0,0.9613800000000001,-0.37278,9.95715
6702020135,22.66,0.015987215948268057,0.14594443205176583,-0.004258603374866164,0.6867000000000001,-0.27468000000000004,9.91791
6707070640,22.66,0.05326744877086694,0.18216001403064813,-0.004258603374866164,0.2943,-0.20601000000000003,9.819809999999999
6712121145,22.66,0.07349581480148122,0.19174187162409706,-0.003193952531149623,-0.07848000000000001,-0.05886,9.79038
6717171650,22.66,0.08948303074974927,0.1800307123432151,-0.002129301687433082,-0.45126,0.05886,9.751140000000001
6722222155,22.66,0.10332349171806432,0.15339698795778162,-0.003193952531149623,-0.72594,0.26487,9.751140000000001
6727272660,22.66,0.10225884087434776,0.1097288500728835,-0.004258603374866164,-1.00062,0.36297,9.73152
6732323165,22.66,0.09480628496833199,0.039409534510031964,0.003193952531149623,-1.08891,0.7749900000000001,9.73152
6737373670,22.66,0.0756251164889143,-0.031956978604016174,0.001064650843716541,-0.9810000000000001,0.9613800000000001,9.85905
6742424175,22.66,0.003193952531149623,-0.08203047484373349,0.0,-0.7651800000000001,0.9123300000000001,10.01601
6747474680,22.66,-0.024504422698000388,-0.13849187614575004,0.0,-0.44145,0.5591700000000001,9.48627
6752525185,22.66,-0.06923721142661506,-0.17257815643719931,0.002129301687433082,-0.20601000000000003,0.41202000000000005,9.54513
6757575690,22.66,-0.10653489754173388,-0.18109536318693162,0.001064650843716541,0.17658,0.0981,9.57456
6762626195,22.66,-0.09374163412461543,-0.17470745812463237,0.001064650843716541,0.51012,0.009810000000000001,9.79038
6767676700,22.66,-0.09374163412461543,-0.1331511686346474,0.001064650843716541,0.8240400000000001,-0.20601000000000003,9.96696
6772727205,22.66,-0.07030186227033158,-0.07777187146886733,0.0,0.9319500000000001,-0.25506,9.937529999999999
6777777710,22.66,-0.05113814708343386,-0.020245819323134222,0.0,1.01043,-0.2943,9.87867
6782828215,22.66,-0.022375121010567305,0.03834488366631542,-0.002129301687433082,0.9123300000000001,-0.25506,9.84924
6787878720,22.66,0.002129301687433082,0.09693558665576507,0.0,0.75537,-0.20601000000000003,9.80019
6792929225,22.66,0.03834488366631542,0.14381513036433274,-0.005323254218582705,0.44145,-0.14715,9.81
6797979730,22.66,0.05113814708343386,0.17683675981206545,-0.001064650843716541,0.07848000000000001,-0.02943,9.79038
6803030235,22.66,0.06391395720803235,0.17896606149949854,-0.002129301687433082,-0.26487,0.06867000000000001,9.80019
6808080740,22.66,0.07349581480148122,0.16191419470751395,-0.004258603374866164,-0.60822,0.1962,9.819809999999999
6813131245,22.66,0.08203047484373349,0.11611675513518273,-0.002129301687433082,-0.8829,0.30411,9.78057
6818181750,22.66,0.06710790973918197,0.046879543708567686,-0.004258603374866164,-1.00062,0.45126,9.78057
6823232255,22.66,0.054332099614583476,-0.02556907354171693,-0.003193952531149623,-0.8829,0.89271,9.74133
6828282760,22.66,0.01064650843716541,-0.09693558665576507,0.0,-0.60822,0.87309,10.05525
6833333265,22.66,-0.005323254218582705,-0.15872024217636432,0.003193952531149623,-0.30411,0.6670800000000001,9.66285
6838383770,22.66,-0.06817256058289851,-0.1832246648743647,0.007452555906015787,0.039240000000000004,0.48069000000000006,9.623610000000001
6843434275,22.66,-0.09693558665576507,-0.19067722078038052,0.0,0.42183,0.15696000000000002,9.57456
6848484780,22.66,-0.10545279340549739,-0.16938420390604966,0.0,0.7848,-0.019620000000000002,9.751140000000001
6853535285,22.66,-0.10545279340549739,-0.11398745344774965,0.003193952531149623,1.02024,-0.26487,9.95715
6858585790,22.66,-0.07456046564519776,-0.05326744877086694,0.003193952531149623,1.04967,-0.33354000000000006,9.87867
6863636295,22.66,-0.05113814708343386,0.011711159280881954,-0.002129301687433082,1.03005,-0.35316,9.99639
6868686800,22.66,-0.01811651763570114,0.07883652231258387,-0.001064650843716541,0.9123300000000001,-0.31392000000000003,9.91791
6873737305,22.66,0.00958185759344887,0.14594443205176583,0.0,0.63765,-0.25506,9.89829
6878787810,22.66,0.04260348704118158,0.19921188082263275,-0.001064650843716541,0.21582,-0.15696000000000002,9.80019
6883838315,22.66,0.06178465552059926,0.22156954854068012,-0.001064650843716541,-0.28449,-0.039240000000000004,9.760950000000001
6888888820,22.66,0.0756251164889143,0.20559978588493202,-0.004258603374866164,-0.65727,0.04905,9.74133
6893939325,22.66,0.08203047484373349,0.1629788455512305,-0.002129301687433082,-0.9908100000000001,0.21582,9.7119
6898989830,22.66,0.09054768159346581,0.10225884087434776,-0.002129301687433082,-1.21644,0.32373,9.73152
6904040335,22.66,0.08735372906231618,0.014905111812031574,0.001064650843716541,-1.24587,0.47088,9.72171
6909090840,22.66,0.06923721142661506,-0.08203047484373349,-0.003193952531149623,-1.1477700000000002,1.04967,9.69228
6914141345,22.66,0.03621558197888234,-0.17151350559348277,0.0,-0.6670800000000001,1.03986,10.01601
6919191850,22.66,-0.014905111812031574,-0.21198769094723127,0.0,-0.21582,0.89271,9.7119
6924242355,22.66,-0.08841837990603273,-0.2236988502281132,0.00958185759344887,0.28449,0.5493600000000001,9.54513
6929292860,22.66,-0.11292280260403312,-0.21731094516581398,0.0,0.69651,0.16677000000000003,9.52551
6934343365,22.66,-0.14062117783318315,-0.1672549022186166,0.001064650843716541,1.01043,-0.17658,9.66285
6939393870,22.66,-0.12356931104119852,-0.09587093581204853,0.0,1.1870100000000001,-0.37278,9.888480000000001
6944444375,22.66,-0.08628907821859966,-0.02982767691658309,-0.003193952531149623,1.19682,-0.42183,10.01601
6949494880,22.66,-0.05646140130201656,0.04581489286485115,-0.001064650843716541,1.10853,-0.43164,10.074869999999999
6954545385,22.66,-0.01918116847941768,0.12356931104119852,-0.004258603374866164,0.89271,-0.43164,10.006200000000002
6959595890,22.66,0.021310470166850764,0.18109536318693162,-0.001064650843716541,0.51012,-0.2943,9.937529999999999
6964646395,22.66,0.05007349623971732,0.2205048976969636,-0.002129301687433082,0.04905,-0.20601000000000003,9.81
6969696900,22.66,0.07883652231258387,0.22156954854068012,-0.003193952531149623,-0.38259000000000004,-0.07848000000000001,9.751140000000001
6974747405,22.66,0.08948303074974927,0.19067722078038052,-0.003193952531149623,-0.75537,0.04905,9.73152
6979797910,22.66,0.09800023749948161,0.13102186694721432,-0.003193952531149623,-1.03005,0.22563,9.7119
6984848415,22.66,0.10759954838545042,0.05113814708343386,-0.001064650843716541,-1.15758,0.35316,9.72171
6989898920,22.66,0.09906488834319814,-0.0404741853537485,0.0,-1.06929,0.89271,9.73152
6994949425,22.66,0.09480628496833199,-0.1374272253020335,0.0,-0.7651800000000001,1.16739,9.87867
6999999930,22.66,-0.007452555906015787,-0.17683675981206545,0.0,-0.28449,1.1870100000000001,10.13373
7005050435,22.66,-0.05539675045830002,-0.20134118251006583,0.003193952531149623,0.15696000000000002,0.57879,9.44703
7010100940,22.66,-0.09693558665576507,-0.18641861740551433,0.002129301687433082,0.38259000000000004,0.21582,9.39798
7015151445,22.66,-0.13849187614575004,-0.14381513036433274,0.003193952531149623,0.72594,-0.02943,9.47646
7020201950,22.66,-0.12250466019748199,-0.10332349171806432,0.001064650843716541,0.8829,-0.28449,9.96696
7025252455,22.66,-0.09267698328089889,-0.039409534510031964,-0.001064650843716541,0.9221400000000001,-0.31392000000000003,9.95715
7030302960,22.66,-0.07136651311404815,0.04366813788489812,-0.002129301687433082,0.8829,-0.34335000000000004,10.15335
7035353465,22.66,-0.02663372438543347,0.09587093581204853,-0.002129301687433082,0.6867000000000001,-0.43164,9.94734
7040403970,22.66,0.001064650843716541,0.13634512116579703,-0.002129301687433082,0.3924,-0.27468000000000004,9.82962
7045454475,22.66,0.022375121010567305,0.15978489302008084,-0.003193952531149623,0.08829,-0.21582,9.70209
7050504980,22.66,0.06710790973918197,0.1672549022186166,0.0,-0.26487,-0.10791,9.74133
7055555485,22.66,0.07990117315630041,0.16084954386379738,0.0,-0.6180300000000001,0.0,9.74133
7060605990,22.66,0.09267698328089889,0.1097288500728835,-0.002129301687433082,-0.86328,0.16677000000000003,9.81
7065656495,22.66,0.08948303074974927,0.03408628029144926,-0.004258603374866164,-0.9711900000000001,0.31392000000000003,9.70209
7070707000,22.66,0.08841837990603273,-0.033021629447732716,0.0,-0.8829,0.56898,9.74133
7075757505,22.66,0.08309512568745003,-0.09800023749948161,-0.002129301687433082,-0.69651,1.16739,9.760950000000001
7080808010,22.66,0.013840460968315033,-0.14062117783318315,-0.001064650843716541,-0.21582,1.0987200000000001,10.36917
7085858515,22.66,-0.023439771854283843,-0.18216001403064813,0.001064650843716541,0.15696000000000002,0.59841,9.56475
7090909020,22.66,-0.10119419003063122,-0.16938420390604966,0.001064650843716541,0.46107000000000004,0.36297,9.40779
7095959525,22.66,-0.11292280260403312,-0.15126768627034853,0.001064650843716541,0.7749900000000001,0.009810000000000001,9.48627
7101010030,22.66,-0.11292280260403312,-0.10759954838545042,0.0,0.89271,-0.21582,9.87867
7106060535,22.66,-0.10225884087434776,-0.049008845396000776,0.002129301687433082,0.95157,-0.28449,9.86886
7111111040,22.66,-0.07349581480148122,0.007452555906015787,-0.002129301687433082,1.00062,-0.33354000000000006,10.11411
7116161545,22.66,-0.03621558197888234,0.06391395720803235,-0.001064650843716541,0.8142300000000001,-0.38259000000000004,10.006200000000002
7121212050,22.66,-0.001064650843716541,0.12463396188491506,-0.001064650843716541,0.59841,-0.31392000000000003,9.95715
7126262555,22.66,0.02769837522915001,0.1629788455512305,-0.004258603374866164,0.30411,-0.26487,9.770760000000001
7131313060,22.66,0.04581489286485115,0.17257815643719931,-0.002129301687433082,-0.07848000000000001,-0.11772,9.78057
7136363565,22.66,0.07136651311404815,0.1704488547497662,-0.001064650843716541,-0.43164,0.0,9.74133
7141414070,22.66,0.08948303074974927,0.1555262896452147,-0.002129301687433082,-0.72594,0.12753,9.73152
7146464575,22.66,0.09800023749948161,0.1171814059788993,-0.001064650843716541,-0.9613800000000001,0.24525000000000002,9.7119
7151515080,22.66,0.08415977653116657,0.046879543708567686,-0.002129301687433082,-1.04967,0.35316,9.751140000000001
7156565585,22.66,0.07670722062515077,-0.02769837522915001,-0.001064650843716541,-1.03005,0.7749900000000001,9.66285
7161616090,22.66,0.06710790973918197,-0.09374163412461543,0.002129301687433082,-0.80442,0.9810000000000001,9.82962
7166666595,22.66,0.0,-0.1331511686346474,0.002129301687433082,-0.42183,0.9908100000000001,10.06506
7171717100,22.66,-0.04366813788489812,-0.17683675981206545,0.002129301687433082,-0.05886,0.5591700000000001,9.53532
7176767605,22.66,-0.08735372906231618,-0.19493582415524666,0.001064650843716541,0.18639,0.34335000000000004,9.496080000000001
7181818110,22.66,-0.12037535851004891,-0.177901410655782,-0.003193952531149623,0.64746,0.07848000000000001,9.59418
7186868615,22.66,-0.10438814256178083,-0.13208651779093086,0.0,0.9613800000000001,-0.22563,9.91791
7191919120,22.66,-0.09374163412461543,-0.06604325889546543,0.002129301687433082,0.9613800000000001,-0.27468000000000004,9.819809999999999
7196969625,22.66,-0.07243116395776468,-0.01064650843716541,-0.001064650843716541,1.03005,-0.35316,10.006200000000002
7202020130,22.66,-0.03515093113516579,0.039409534510031964,-0.001064650843716541,0.95157,-0.34335000000000004,9.94734
7207070635,22.66,-0.008517206749732328,0.10332349171806432,-0.002129301687433082,0.75537,-0.28449,9.86886
7212121140,22.66,0.02982767691658309,0.150203035426632,-0.001064650843716541,0.42183,-0.22563,9.84924
7217171645,22.66,0.05007349623971732,0.17896606149949854,-0.004258603374866164,0.039240000000000004,-0.0981,9.79038
7222222150,22.66,0.07030186227033158,0.1757721089683489,0.0,-0.31392000000000003,0.0,9.819809999999999
7227272655,22.66,0.08309512568745003,0.15659094048893124,-0.004258603374866164,-0.6278400000000001,0.12753,9.819809999999999
7232323160,22.66,0.08948303074974927,0.12144000935376545,-0.001064650843716541,-0.8240400000000001,0.25506,9.74133
7237373665,22.66,0.0852244273748831,0.06284930636431581,-0.002129301687433082,-0.9711900000000001,0.37278,9.73152
7242424170,22.66,0.07670722062515077,-0.01064650843716541,0.0,-1.00062,0.7848,9.72171
7247474675,22.66,0.06604325889546543,-0.09054768159346581,-0.001064650843716541,-0.71613,0.94176,9.81
7252525180,22.66,0.0,-0.13955652698946658,0.001064650843716541,-0.41202000000000005,0.9613800000000001,10.045440000000001
7257575685,22.66,-0.04153883619746504,-0.1832246648743647,0.005323254218582705,0.0,0.5493600000000001,9.55494
7262626190,22.66,-0.0852244273748831,-0.18961256993666398,0.005323254218582705,0.26487,0.28449,9.48627
7267676695,22.66,-0.11824605682261582,-0.1672549022186166,-0.002129301687433082,0.6278400000000001,0.08829,9.58437
7272727200,22.66,-0.10545279340549739,-0.1352804703220805,0.002129301687433082,0.94176,-0.23544,9.937529999999999
7277777705,22.66,-0.09161233243718235,-0.07456046564519776,0.002129301687433082,1.00062,-0.27468000000000004,9.85905
7282828210,22.66,-0.06604325889546543,-0.012775810124598492,-0.002129301687433082,1.04967,-0.37278,9.96696
7287878715,22.66,-0.033021629447732716,0.05965535383316618,-0.001064650843716541,0.90252,-0.30411,9.99639
7292929220,22.66,-0.007452555906015787,0.12463396188491506,-0.003193952531149623,0.6768900000000001,-0.28449,9.888480000000001
7297979725,22.66,0.02663372438543347,0.1704488547497662,-0.002129301687433082,0.33354000000000006,-0.22563,9.81
7303030230,22.66,0.05007349623971732,0.19067722078038052,-0.002129301687433082,-0.05886,-0.07848000000000001,9.72171
7308080735,22.66,0.06710790973918197,0.19067722078038052,-0.003193952531149623,-0.48069000000000006,0.019620000000000002,9.78057
7313131240,22.66,0.08309512568745003,0.16510814723866357,-0.002129301687433082,-0.80442,0.11772,9.760950000000001
7318181745,22.66,0.09267698328089889,0.11931070766633237,-0.003193952531149623,-1.05948,0.27468000000000004,9.770760000000001
7323232250,22.66,0.08628907821859966,0.04581489286485115,-0.001064650843716541,-1.15758,0.38259000000000004,9.770760000000001
7328282755,22.66,0.07136651311404815,-0.03621558197888234,0.0,-1.0987200000000001,0.75537,9.7119
7333333260,22.66,0.05646140130201656,-0.11505210429146619,0.0,-0.84366,1.00062,9.78057
7338383765,22.66,-0.005323254218582705,-0.15765559133264778,0.001064650843716541,-0.41202000000000005,1.01043,10.01601
7343434270,22.66,-0.044732788728614664,-0.20027653166634932,0.002129301687433082,0.019620000000000002,0.56898,9.60399
7348484775,22.66,-0.09267698328089889,-0.20453513504121545,0.004258603374866164,0.31392000000000003,0.31392000000000003,9.5157
7353535280,22.66,-0.12250466019748199,-0.18748326824923087,0.0,0.74556,0.05886,9.60399
7358585785,22.66,-0.11505210429146619,-0.13849187614575004,0.003193952531149623,1.03005,-0.26487,9.888480000000001
7363636290,22.66,-0.10119419003063122,-0.07136651311404815,0.002129301687433082,1.0791000000000002,-0.32373,9.87867
7368686795,22.66,-0.07030186227033158,-0.007452555906015787,-0.001064650843716541,1.13796,-0.38259000000000004,10.006200000000002
7373737300,22.66,-0.03515093113516579,0.05326744877086694,0.0,1.01043,-0.35316,9.98658
7378787805,22.66,-0.002129301687433082,0.10866419922916695,0.0,0.79461,-0.33354000000000006,9.888480000000001
7383838310,22.66,0.03408628029144926,0.15659094048893124,-0.001064650843716541,0.49050000000000005,-0.23544,9.819809999999999
7388888815,22.66,0.05539675045830002,0.1800307123432151,-0.004258603374866164,0.10791,-0.13734000000000002,9.751140000000001
7393939320,22.66,0.07777187146886733,0.177901410655782,-0.004258603374866164,-0.25506,0.0,9.80019
7398989825,22.66,0.08948303074974927,0.16084954386379738,-0.001064650843716541,-0.5886,0.0981,9.80019
7404040330,22.66,0.09480628496833199,0.11931070766633237,-0.002129301687433082,-0.8142300000000001,0.27468000000000004,9.80019
7409090835,22.66,0.09267698328089889,0.06817256058289851,0.0,-1.01043,0.41202000000000005,9.78057
