#timestamp [ns], temperature [degC], w_RS_S_x [rad s^-1], w_RS_S_y [rad s^-1], w_RS_S_z [rad s^-1], a_RS_S_x [m s^-2], a_RS_S_y [m s^-2], a_RS_S_z [m s^-2]
0,21.59,0.0,0.0,0.0,0.7749900000000001,0.45126,9.81
5050505,21.59,0.0,0.0,0.0,0.7651800000000001,0.47088,9.81
10101010,21.59,0.0,0.0,0.0,0.75537,0.47088,9.82962
15151515,21.59,0.0,0.0,0.0,0.75537,0.45126,9.84924
20202020,21.59,0.0,0.0,0.0,0.7651800000000001,0.48069000000000006,9.84924
25252525,21.59,0.0,0.0,0.0,0.75537,0.47088,9.85905
30303030,21.59,0.0,0.0,0.0,0.74556,0.48069000000000006,9.81
35353535,21.59,0.0,0.0,0.0,0.75537,0.46107000000000004,9.81
40404040,21.59,0.0,0.0,0.0,0.7651800000000001,0.49050000000000005,9.81
45454545,21.59,0.0,0.0,0.0,0.7749900000000001,0.48069000000000006,9.84924
50505050,21.59,0.0,0.0,0.0,0.75537,0.46107000000000004,9.819809999999999
55555555,21.59,0.0,0.0,0.0,0.73575,0.48069000000000006,9.83943
60606060,21.59,0.0,0.0,0.0,0.74556,0.47088,9.82962
65656565,21.59,0.0,0.0,0.0,0.73575,0.48069000000000006,9.79038
70707070,21.59,0.0,0.0,0.0,0.72594,0.48069000000000006,9.819809999999999
75757575,21.59,0.0,0.0,0.0,0.7848,0.48069000000000006,9.84924
80808080,21.59,0.0,0.0,0.0,0.7651800000000001,0.47088,9.819809999999999
85858585,21.59,0.0,0.0,0.0,0.7651800000000001,0.46107000000000004,9.81
90909090,21.59,0.0,0.0,0.0,0.75537,0.49050000000000005,9.81
95959595,21.59,0.0,0.0,0.0,0.75537,0.45126,9.819809999999999
101010100,21.59,0.0,0.0,0.0,0.75537,0.49050000000000005,9.819809999999999
106060605,21.59,0.0,0.0,0.0,0.74556,0.45126,9.83943
111111110,21.59,0.0,0.0,0.0,0.7749900000000001,0.46107000000000004,9.85905
116161615,21.59,0.0,0.0,0.0,0.74556,0.47088,9.82962
121212120,21.59,0.0,0.0,0.0,0.74556,0.48069000000000006,9.82962
126262625,21.59,0.0,0.0,0.0,0.7651800000000001,0.47088,9.819809999999999
131313130,21.59,0.0,0.0,0.0,0.7651800000000001,0.49050000000000005,9.80019
136363635,21.59,0.0,0.0,0.0,0.75537,0.49050000000000005,9.819809999999999
141414140,21.59,0.0,0.0,0.0,0.74556,0.49050000000000005,9.83943
146464645,21.59,0.0,0.0,0.0,0.73575,0.47088,9.82962
151515150,21.59,0.0,0.0,0.0,0.7651800000000001,0.47088,9.83943
156565655,21.59,0.0,0.0,0.0,0.7651800000000001,0.48069000000000006,9.82962
161616160,21.59,0.0,0.0,0.0,0.74556,0.48069000000000006,9.81
166666665,21.59,0.0,0.0,0.0,0.75537,0.48069000000000006,9.819809999999999
171717170,21.59,0.0,0.0,0.0,0.7749900000000001,0.48069000000000006,9.81
176767675,21.59,0.0,0.0,0.0,0.75537,0.46107000000000004,9.82962
181818180,21.59,0.0,0.0,0.0,0.7651800000000001,0.47088,9.82962
186868685,21.59,0.0,0.0,0.0,0.7651800000000001,0.47088,9.83943
191919190,21.59,0.0,0.0,0.0,0.7749900000000001,0.45126,9.819809999999999
196969695,21.59,0.0,0.0,0.0,0.75537,0.47088,9.79038
202020200,21.59,0.0,0.0,0.0,0.7651800000000001,0.47088,9.79038
207070705,21.59,0.0,0.0,0.0,0.7749900000000001,0.47088,9.83943
212121210,21.59,0.0,0.0,0.0,0.73575,0.47088,9.85905
217171715,21.59,0.0,0.0,0.0,0.74556,0.46107000000000004,9.82962
222222220,21.59,0.0,0.0,0.0,0.74556,0.47088,9.81
227272725,21.59,0.0,0.0,0.0,0.73575,0.49050000000000005,9.81
232323230,21.59,0.0,0.0,0.0,0.73575,0.48069000000000006,9.82962
237373735,21.59,0.0,0.0,0.0,0.75537,0.48069000000000006,9.82962
242424240,21.59,0.0,0.0,0.0,0.75537,0.47088,9.819809999999999
247474745,21.59,0.0,0.0,0.0,0.7749900000000001,0.49050000000000005,9.82962
252525250,21.59,0.0,0.0,0.0,0.75537,0.48069000000000006,9.81
257575755,21.59,0.0,0.0,0.0,0.7651800000000001,0.46107000000000004,9.83943
262626260,21.59,0.0,0.0,0.0,0.75537,0.49050000000000005,9.81
267676765,21.59,0.0,0.0,0.0,0.74556,0.49050000000000005,9.82962
272727270,21.59,0.0,0.0,0.0,0.72594,0.49050000000000005,9.81
277777775,21.59,0.0,0.0,0.0,0.75537,0.49050000000000005,9.78057
282828280,21.59,0.0,0.0,0.0,0.75537,0.47088,9.85905
287878785,21.59,0.0,0.0,0.0,0.74556,0.49050000000000005,9.85905
292929290,21.59,0.0,0.0,0.0,0.7651800000000001,0.48069000000000006,9.83943
297979795,21.59,0.0,0.0,0.0,0.74556,0.48069000000000006,9.81
303030300,21.59,0.0,0.0,0.0,0.7651800000000001,0.47088,9.770760000000001
308080805,21.59,0.0,0.0,0.0,0.75537,0.46107000000000004,9.819809999999999
313131310,21.59,0.0,0.0,0.0,0.74556,0.48069000000000006,9.85905
318181815,21.59,0.0,0.0,0.0,0.75537,0.50031,9.89829
323232320,21.59,0.0,0.0,0.0,0.75537,0.49050000000000005,9.81
328282825,21.59,0.0,0.0,0.0,0.73575,0.46107000000000004,9.79038
333333330,21.59,0.0,0.0,0.0,0.73575,0.48069000000000006,9.80019
338383835,21.59,0.0,0.0,0.0,0.75537,0.47088,9.84924
343434340,21.59,0.0,0.0,0.0,0.75537,0.47088,9.86886
348484845,21.59,0.0,0.0,0.0,0.74556,0.50031,9.83943
353535350,21.59,0.0,0.0,0.0,0.7651800000000001,0.49050000000000005,9.78057
358585855,21.59,0.0,0.0,0.0,0.74556,0.48069000000000006,9.770760000000001
363636360,21.59,0.0,0.0,0.0,0.74556,0.48069000000000006,9.82962
368686865,21.59,0.0,0.0,0.0,0.7848,0.48069000000000006,9.84924
373737370,21.59,0.0,0.0,0.0,0.72594,0.49050000000000005,9.82962
378787875,21.59,0.0,0.0,0.0,0.75537,0.49050000000000005,9.80019
383838380,21.59,0.0,0.0,0.0,0.73575,0.48069000000000006,9.78057
388888885,21.59,0.0,0.0,0.0,0.74556,0.48069000000000006,9.80019
393939390,21.59,0.0,0.0,0.0,0.7651800000000001,0.48069000000000006,9.83943
398989895,21.59,0.0,0.0,0.0,0.74556,0.47088,9.83943
404040400,21.59,0.0,0.0,0.0,0.75537,0.46107000000000004,9.82962
409090905,21.59,0.0,0.0,0.0,0.74556,0.48069000000000006,9.80019
414141410,21.59,0.0,0.0,0.0,0.75537,0.47088,9.81
419191915,21.59,0.0,0.0,0.0,0.75537,0.47088,9.82962
424242420,21.59,0.0,0.0,0.0,0.7651800000000001,0.48069000000000006,9.82962
429292925,21.59,0.0,0.0,0.0,0.79461,0.46107000000000004,9.85905
434343430,21.59,0.0,0.0,0.0,0.7651800000000001,0.46107000000000004,9.819809999999999
439393935,21.59,0.0,0.0,0.0,0.73575,0.47088,9.819809999999999
444444440,21.59,0.0,0.0,0.0,0.75537,0.48069000000000006,9.819809999999999
449494945,21.59,0.0,0.0,0.0,0.73575,0.48069000000000006,9.83943
454545450,21.59,0.0,0.0,0.0,0.7651800000000001,0.48069000000000006,9.84924
459595955,21.59,0.0,0.0,0.0,0.7651800000000001,0.49050000000000005,9.819809999999999
464646460,21.59,0.0,0.0,0.0,0.7651800000000001,0.47088,9.83943
469696965,21.59,0.0,0.0,0.0,0.7651800000000001,0.45126,9.80019
474747470,21.59,0.0,0.0,0.0,0.7651800000000001,0.46107000000000004,9.81
479797975,21.59,0.0,0.0,0.0,0.7749900000000001,0.46107000000000004,9.83943
484848480,21.59,0.0,0.0,0.0,0.75537,0.47088,9.82962
489898985,21.59,0.0,0.0,0.0,0.75537,0.48069000000000006,9.84924
494949490,21.59,0.0,0.0,0.0,0.7651800000000001,0.46107000000000004,9.819809999999999
499999995,21.59,0.0,0.0,0.0,0.75537,0.46107000000000004,9.82962
505050500,21.59,0.0,0.0,0.0,0.73575,0.47088,9.82962
510101005,21.59,0.0,0.0,0.0,0.75537,0.49050000000000005,9.80019
515151510,21.59,0.0,0.0,0.0,0.74556,0.46107000000000004,9.83943
520202015,21.59,0.0,0.0,0.0,0.75537,0.48069000000000006,9.83943
525252520,21.59,0.0,0.0,0.0,0.7651800000000001,0.48069000000000006,9.84924
530303025,21.59,0.0,0.0,0.0,0.73575,0.47088,9.81
535353530,21.59,0.0,0.0,0.0,0.7749900000000001,0.47088,9.82962
540404035,21.59,0.0,0.0,0.0,0.75537,0.46107000000000004,9.81
545454540,21.59,0.0,0.0,0.0,0.74556,0.49050000000000005,9.81
550505045,21.59,0.0,0.0,0.0,0.75537,0.49050000000000005,9.83943
555555550,21.59,0.0,0.0,0.0,0.7749900000000001,0.46107000000000004,9.84924
560606055,21.59,0.0,0.0,0.0,0.7749900000000001,0.47088,9.819809999999999
565656560,21.59,0.0,0.0,0.0,0.75537,0.46107000000000004,9.82962
570707065,21.59,0.0,0.0,0.0,0.72594,0.47088,9.84924
575757570,21.59,0.0,0.0,0.0,0.7749900000000001,0.47088,9.83943
580808075,21.59,0.0,0.0,0.0,0.7651800000000001,0.47088,9.81
585858580,21.59,0.0,0.0,0.0,0.7749900000000001,0.46107000000000004,9.81
590909085,21.59,0.0,0.0,0.0,0.7651800000000001,0.48069000000000006,9.819809999999999
595959590,21.59,0.0,0.0,0.0,0.75537,0.47088,9.83943
601010095,21.59,0.0,0.0,0.0,0.75537,0.48069000000000006,9.85905
606060600,21.59,0.0,0.0,0.0,0.75537,0.49050000000000005,9.81
611111105,21.59,0.0,0.0,0.0,0.74556,0.49050000000000005,9.79038
616161610,21.59,0.0,0.0,0.0,0.75537,0.48069000000000006,9.80019
621212115,21.59,0.0,0.0,0.0,0.75537,0.48069000000000006,9.82962
626262620,21.59,0.0,0.0,0.0,0.80442,0.49050000000000005,9.819809999999999
631313125,21.59,0.0,0.0,0.0,0.7651800000000001,0.47088,9.83943
636363630,21.59,0.0,0.0,0.0,0.7749900000000001,0.46107000000000004,9.80019
641414135,21.59,0.0,0.0,0.0,0.75537,0.49050000000000005,9.79038
646464640,21.65,0.0,0.0,0.0,0.75537,0.47088,9.81
651515145,21.65,0.0,0.0,0.0,0.74556,0.48069000000000006,9.82962
656565650,21.65,0.0,0.0,0.0,0.73575,0.47088,9.84924
661616155,21.65,0.0,0.0,0.0,0.74556,0.47088,9.84924
666666660,21.65,0.0,0.0,0.0,0.73575,0.48069000000000006,9.819809999999999
671717165,21.65,0.0,0.0,0.0,0.7749900000000001,0.48069000000000006,9.82962
676767670,21.65,0.0,0.0,0.0,0.7749900000000001,0.49050000000000005,9.79038
681818175,21.65,0.0,0.0,0.0,0.7651800000000001,0.47088,9.81
686868680,21.65,0.0,0.0,0.0,0.74556,0.46107000000000004,9.83943
691919185,21.65,0.0,0.0,0.0,0.74556,0.46107000000000004,9.85905
696969690,21.65,0.0,0.0,0.0,0.7651800000000001,0.49050000000000005,9.83943
702020195,21.65,0.0,0.0,0.0,0.75537,0.47088,9.81
707070700,21.65,0.0,0.0,0.0,0.75537,0.46107000000000004,9.81
712121205,21.65,0.0,0.0,0.0,0.74556,0.49050000000000005,9.81
717171710,21.65,0.0,0.0,0.0,0.7749900000000001,0.48069000000000006,9.82962
722222215,21.65,0.0,0.0,0.0,0.75537,0.46107000000000004,9.83943
727272720,21.65,0.0,0.0,0.0,0.75537,0.46107000000000004,9.82962
732323225,21.65,0.0,0.0,0.0,0.7651800000000001,0.48069000000000006,9.83943
737373730,21.65,0.0,0.0,0.0,0.74556,0.49050000000000005,9.83943
742424235,21.65,0.0,0.0,0.0,0.75537,0.48069000000000006,9.80019
747474740,21.65,0.0,0.0,0.0,0.74556,0.46107000000000004,9.82962
752525245,21.65,0.0,0.0,0.0,0.72594,0.46107000000000004,9.82962
757575750,21.65,0.0,0.0,0.0,0.7848,0.49050000000000005,9.83943
762626255,21.65,0.0,0.0,0.0,0.74556,0.47088,9.81
767676760,21.65,0.0,0.0,0.0,0.7749900000000001,0.48069000000000006,9.82962
772727265,21.65,0.0,0.0,0.0,0.7651800000000001,0.49050000000000005,9.82962
777777770,21.65,0.0,0.0,0.0,0.74556,0.48069000000000006,9.80019
782828275,21.65,0.0,0.0,0.0,0.72594,0.48069000000000006,9.79038
787878780,21.65,0.0,0.0,0.0,0.75537,0.46107000000000004,9.79038
792929285,21.65,0.0,0.0,0.0,0.7651800000000001,0.47088,9.82962
797979790,21.65,0.0,0.0,0.0,0.7749900000000001,0.49050000000000005,9.84924
803030295,21.65,0.0,0.0,0.0,0.7749900000000001,0.49050000000000005,9.84924
808080800,21.65,0.0,0.0,0.0,0.75537,0.49050000000000005,9.81
813131305,21.65,0.0,0.0,0.0,0.74556,0.46107000000000004,9.770760000000001
818181810,21.65,0.0,0.0,0.0,0.7651800000000001,0.50031,9.819809999999999
823232315,21.65,0.0,0.0,0.0,0.7651800000000001,0.46107000000000004,9.84924
828282820,21.65,0.0,0.0,0.0,0.74556,0.47088,9.84924
833333325,21.65,0.0,0.0,0.0,0.74556,0.47088,9.819809999999999
838383830,21.65,0.0,0.0,0.0,0.75537,0.47088,9.80019
843434335,21.65,0.0,0.0,0.0,0.75537,0.47088,9.78057
848484840,21.65,0.0,0.0,0.0,0.74556,0.47088,9.82962
853535345,21.65,0.0,0.0,0.0,0.7651800000000001,0.48069000000000006,9.83943
858585850,21.65,0.0,0.0,0.0,0.7651800000000001,0.48069000000000006,9.82962
863636355,21.65,0.0,0.0,0.0,0.7651800000000001,0.48069000000000006,9.819809999999999
868686860,21.65,0.0,0.0,0.0,0.75537,0.47088,9.81
873737365,21.65,0.0,0.0,0.0,0.72594,0.47088,9.83943
878787870,21.65,0.0,0.0,0.0,0.7749900000000001,0.49050000000000005,9.82962
883838375,21.65,0.0,0.0,0.0,0.75537,0.48069000000000006,9.83943
888888880,21.65,0.0,0.0,0.0,0.75537,0.49050000000000005,9.82962
893939385,21.65,0.0,0.0,0.0,0.7749900000000001,0.49050000000000005,9.79038
898989890,21.65,0.0,0.0,0.0,0.7749900000000001,0.47088,9.83943
904040395,21.65,0.0,0.0,0.0,0.75537,0.46107000000000004,9.83943
909090900,21.65,0.0,0.0,0.0,0.73575,0.48069000000000006,9.819809999999999
914141405,21.65,0.0,0.0,0.0,0.7651800000000001,0.47088,9.81
919191910,21.65,0.0,0.0,0.0,0.7749900000000001,0.48069000000000006,9.83943
924242415,21.65,0.0,0.0,0.0,0.7651800000000001,0.50031,9.82962
929292920,21.65,0.0,0.0,0.0,0.71613,0.47088,9.83943
934343425,21.65,0.0,0.0,0.0,0.75537,0.48069000000000006,9.81
939393930,21.65,0.0,0.0,0.0,0.73575,0.43164,9.81
944444435,21.65,0.0,0.0,0.0,0.7848,0.45126,9.81
949494940,21.65,0.0,0.0,0.0,0.75537,0.49050000000000005,9.82962
954545445,21.65,0.0,0.0,0.0,0.7848,0.50031,9.83943
959595950,21.65,0.0,0.0,0.0,0.75537,0.47088,9.819809999999999
964646455,21.65,0.0,0.0,0.0,0.74556,0.49050000000000005,9.82962
969696960,21.65,0.0,0.0,0.0,0.75537,0.47088,9.819809999999999
974747465,21.65,0.0,0.0,0.0,0.74556,0.49050000000000005,9.82962
979797970,21.65,0.0,0.0,0.0,0.75537,0.47088,9.84924
984848475,21.65,0.0,0.0,0.0,0.74556,0.50031,9.84924
989898980,21.65,0.0,0.0,0.0,0.75537,0.48069000000000006,9.81
994949485,21.65,0.0,0.0,0.0,0.7651800000000001,0.50031,9.80019
999999990,21.65,0.0,0.0,0.0,0.7749900000000001,0.48069000000000006,9.82962
1005050495,21.65,0.0,0.0,0.0,0.72594,0.49050000000000005,9.82962
1010101000,21.65,0.0,0.0,0.0,0.73575,0.49050000000000005,9.84924
1015151505,21.65,0.0,0.0,0.0,0.74556,0.48069000000000006,9.81
1020202010,21.65,0.0,0.0,0.0,0.74556,0.48069000000000006,9.819809999999999
1025252515,21.65,0.0,0.0,0.0,0.74556,0.47088,9.819809999999999
1030303020,21.65,0.0,0.0,0.0,0.75537,0.47088,9.819809999999999
1035353525,21.65,0.0,0.0,0.0,0.7848,0.48069000000000006,9.819809999999999
1040404030,21.65,0.0,0.0,0.0,0.73575,0.46107000000000004,9.84924
1045454535,21.65,0.0,0.0,0.0,0.7651800000000001,0.45126,9.81
1050505040,21.65,0.0,0.0,0.0,0.7651800000000001,0.47088,9.81
1055555545,21.65,0.0,0.0,0.0,0.75537,0.48069000000000006,9.819809999999999
1060606050,21.65,0.0,0.0,0.0,0.75537,0.49050000000000005,9.83943
1065656555,21.65,0.0,0.0,0.0,0.74556,0.48069000000000006,9.84924
1070707060,21.65,0.0,0.0,0.0,0.7749900000000001,0.46107000000000004,9.82962
1075757565,21.65,0.0,0.0,0.0,0.73575,0.48069000000000006,9.819809999999999
1080808070,21.65,0.0,0.0,0.0,0.74556,0.46107000000000004,9.81
1085858575,21.65,0.0,0.0,0.0,0.7749900000000001,0.47088,9.819809999999999
1090909080,21.65,0.0,0.0,0.0,0.7749900000000001,0.47088,9.819809999999999
1095959585,21.65,0.0,0.0,0.0,0.75537,0.44145,9.84924
1101010090,21.65,0.0,0.0,0.0,0.75537,0.49050000000000005,9.81
1106060595,21.65,0.0,0.0,0.0,0.7749900000000001,0.48069000000000006,9.770760000000001
1111111100,21.65,0.0,0.0,0.0,0.75537,0.48069000000000006,9.81
1116161605,21.65,0.0,0.0,0.0,0.75537,0.48069000000000006,9.819809999999999
1121212110,21.65,0.0,0.0,0.0,0.7749900000000001,0.48069000000000006,9.83943
1126262615,21.65,0.0,0.0,0.0,0.75537,0.47088,9.85905
1131313120,21.65,0.0,0.0,0.0,0.75537,0.49050000000000005,9.81
1136363625,21.65,0.0,0.0,0.0,0.74556,0.49050000000000005,9.79038
1141414130,21.65,0.0,0.0,0.0,0.7848,0.45126,9.81
1146464635,21.65,0.0,0.0,0.0,0.75537,0.46107000000000004,9.83943
1151515140,21.65,0.0,0.0,0.0,0.7651800000000001,0.49050000000000005,9.84924
1156565645,21.65,0.0,0.0,0.0,0.74556,0.46107000000000004,9.83943
1161616150,21.65,0.0,0.0,0.0,0.74556,0.46107000000000004,9.80019
1166666655,21.65,0.0,0.0,0.0,0.7749900000000001,0.45126,9.81
1171717160,21.65,0.0,0.0,0.0,0.74556,0.48069000000000006,9.85905
1176767665,21.65,0.0,0.0,0.0,0.75537,0.46107000000000004,9.84924
1181818170,21.65,0.0,0.0,0.0,0.74556,0.49050000000000005,9.83943
1186868675,21.65,0.0,0.0,0.0,0.75537,0.47088,9.80019
1191919180,21.65,0.0,0.0,0.0,0.75537,0.48069000000000006,9.79038
1196969685,21.65,0.0,0.0,0.0,0.74556,0.49050000000000005,9.819809999999999
1202020190,21.65,0.0,0.0,0.0,0.7651800000000001,0.48069000000000006,9.86886
1207070695,21.65,0.0,0.0,0.0,0.75537,0.46107000000000004,9.86886
1212121200,21.65,0.0,0.0,0.0,0.74556,0.48069000000000006,9.819809999999999
1217171705,21.65,0.0,0.0,0.0,0.74556,0.47088,9.770760000000001
1222222210,21.65,0.0,0.0,0.0,0.75537,0.49050000000000005,9.80019
1227272715,21.65,0.0,0.0,0.0,0.75537,0.48069000000000006,9.85905
1232323220,21.65,0.0,0.0,0.0,0.7749900000000001,0.47088,9.84924
1237373725,21.65,0.0,0.0,0.0,0.7749900000000001,0.50031,9.87867
1242424230,21.65,0.0,0.0,0.0,0.74556,0.47088,9.82962
1247474735,21.65,0.0,0.0,0.0,0.72594,0.48069000000000006,9.79038
1252525240,21.65,0.0,0.0,0.0,0.7651800000000001,0.48069000000000006,9.80019
1257575745,21.65,0.0,0.0,0.0,0.7651800000000001,0.46107000000000004,9.83943
1262626250,21.65,0.0,0.0,0.0,0.7651800000000001,0.47088,9.84924
1267676755,21.65,0.0,0.0,0.0,0.7848,0.44145,9.82962
1272727260,21.65,0.0,0.0,0.0,0.75537,0.47088,9.819809999999999
1277777765,21.65,0.0,0.0,0.0,0.75537,0.47088,9.819809999999999
1282828270,21.65,0.0,0.0,0.0,0.75537,0.48069000000000006,9.82962
1287878775,21.65,0.0,0.0,0.0,0.7651800000000001,0.46107000000000004,9.80019
1292929280,21.65,0.0,0.0,0.0,0.75537,0.47088,9.80019
1297979785,21.65,0.0,0.0,0.0,0.75537,0.49050000000000005,9.819809999999999
1303030290,21.65,0.0,0.0,0.0,0.75537,0.45126,9.81
1308080795,21.65,0.0,0.0,0.0,0.74556,0.49050000000000005,9.86886
1313131300,21.65,0.0,0.0,0.0,0.74556,0.46107000000000004,9.84924
1318181805,21.65,0.0,0.0,0.0,0.73575,0.47088,9.81
1323232310,21.65,0.0,0.0,0.0,0.75537,0.48069000000000006,9.81
1328282815,21.65,0.0,0.0,0.0,0.74556,0.47088,9.81
1333333320,21.65,0.0,0.0,0.0,0.75537,0.47088,9.819809999999999
1338383825,21.65,0.0,0.0,0.0,0.7749900000000001,0.47088,9.82962
1343434330,21.65,0.0,0.0,0.0,0.73575,0.46107000000000004,9.81
1348484835,21.65,0.0,0.0,0.0,0.74556,0.47088,9.81
1353535340,21.65,0.0,0.0,0.0,0.73575,0.50031,9.81
1358585845,21.65,0.0,0.0,0.0,0.73575,0.46107000000000004,9.82962
1363636350,21.65,0.0,0.0,0.0,0.73575,0.47088,9.85905
1368686855,21.65,0.0,0.0,0.0,0.7651800000000001,0.48069000000000006,9.82962
1373737360,21.65,0.0,0.0,0.0,0.7749900000000001,0.47088,9.819809999999999
1378787865,21.65,0.0,0.0,0.0,0.7651800000000001,0.46107000000000004,9.81
1383838370,21.65,0.0,0.0,0.0,0.7749900000000001,0.48069000000000006,9.81
1388888875,21.65,0.0,0.0,0.0,0.7651800000000001,0.45126,9.819809999999999
1393939380,21.65,0.0,0.0,0.0,0.75537,0.48069000000000006,9.82962
1398989885,21.65,0.0,0.0,0.0,0.7749900000000001,0.48069000000000006,9.82962
1404040390,21.65,0.0,0.0,0.0,0.7651800000000001,0.48069000000000006,9.81
1409090895,21.65,0.0,0.0,0.0,0.7651800000000001,0.46107000000000004,9.82962
1414141400,21.65,0.0,0.0,0.0,0.75537,0.47088,9.81
1419191905,21.65,0.0,0.0,0.0,0.73575,0.49050000000000005,9.819809999999999
1424242410,21.65,0.0,0.0,0.0,0.7651800000000001,0.48069000000000006,9.81
1429292915,21.65,0.0,0.0,0.0,0.75537,0.47088,9.819809999999999
1434343420,21.65,0.0,0.0,0.0,0.7651800000000001,0.47088,9.84924
1439393925,21.65,0.0,0.0,0.0,0.73575,0.46107000000000004,9.82962
1444444430,21.65,0.0,0.0,0.0,0.74556,0.46107000000000004,9.83943
1449494935,21.65,0.0,0.0,0.0,0.72594,0.45126,9.79038
1454545440,21.65,0.0,0.0,0.0,0.74556,0.48069000000000006,9.81
1459595945,21.65,0.0,0.0,0.0,0.7749900000000001,0.47088,9.84924
1464646450,21.65,0.0,0.0,0.0,0.75537,0.47088,9.85905
1469696955,21.65,0.0,0.0,0.0,0.7651800000000001,0.49050000000000005,9.82962
1474747460,21.65,0.0,0.0,0.0,0.75537,0.48069000000000006,9.79038
1479797965,21.65,0.0,0.0,0.0,0.75537,0.46107000000000004,9.81
1484848470,21.65,0.0,0.0,0.0,0.75537,0.47088,9.81
1489898975,21.65,0.0,0.0,0.0,0.74556,0.48069000000000006,9.82962
1494949480,21.65,0.0,0.0,0.0,0.75537,0.48069000000000006,9.84924
1499999985,21.65,0.0,0.0,0.0,0.7651800000000001,0.47088,9.85905
1505050490,21.65,0.0,0.0,0.0,0.7749900000000001,0.47088,9.81
1510100995,21.65,0.0,0.0,0.0,0.74556,0.49050000000000005,9.819809999999999
1515151500,21.65,0.0,0.0,0.0,0.7651800000000001,0.47088,9.819809999999999
1520202005,21.65,0.0,0.0,0.0,0.75537,0.48069000000000006,9.819809999999999
1525252510,21.65,0.0,0.0,0.0,0.7651800000000001,0.46107000000000004,9.81
1530303015,21.65,0.0,0.0,0.0,0.7749900000000001,0.48069000000000006,9.819809999999999
1535353520,21.65,0.0,0.0,0.0,0.73575,0.47088,9.83943
1540404025,21.65,0.0,0.0,0.0,0.74556,0.48069000000000006,9.81
1545454530,21.65,0.0,0.0,0.0,0.75537,0.48069000000000006,9.83943
1550505035,21.65,0.0,0.0,0.0,0.7651800000000001,0.47088,9.81
1555555540,21.65,0.0,0.0,0.0,0.7749900000000001,0.46107000000000004,9.82962
1560606045,21.65,0.0,0.0,0.0,0.7749900000000001,0.50031,9.83943
1565656550,21.65,0.0,0.0,0.0,0.74556,0.48069000000000006,9.83943
1570707055,21.65,0.0,0.0,0.0,0.7651800000000001,0.48069000000000006,9.819809999999999
1575757560,21.65,0.0,0.0,0.0,0.75537,0.46107000000000004,9.819809999999999
1580808065,21.65,0.0,0.0,0.0,0.75537,0.45126,9.81
1585858570,21.65,0.0,0.0,0.0,0.72594,0.45126,9.82962
1590909075,21.65,0.0,0.0,0.0,0.75537,0.47088,9.83943
1595959580,21.65,0.0,0.0,0.0,0.7749900000000001,0.46107000000000004,9.82962
1601010085,21.65,0.0,0.0,0.0,0.7651800000000001,0.47088,9.79038
1606060590,21.65,0.0,0.0,0.0,0.7848,0.47088,9.81
1611111095,21.65,0.0,0.0,0.0,0.7651800000000001,0.48069000000000006,9.83943
1616161600,21.65,0.0,0.0,0.0,0.7651800000000001,0.48069000000000006,9.819809999999999
1621212105,21.65,0.0,0.0,0.0,0.75537,0.47088,9.81
1626262610,21.65,0.0,0.0,0.0,0.74556,0.47088,9.819809999999999
1631313115,21.65,0.0,0.0,0.0,0.74556,0.47088,9.819809999999999
1636363620,21.65,0.0,0.0,0.0,0.74556,0.49050000000000005,9.85905
1641414125,21.65,0.0,0.0,0.0,0.75537,0.48069000000000006,9.83943
1646464630,21.65,0.0,0.0,0.0,0.72594,0.48069000000000006,9.819809999999999
1651515135,21.65,0.0,0.0,0.0,0.73575,0.47088,9.819809999999999
1656565640,21.65,0.0,0.0,0.0,0.75537,0.48069000000000006,9.819809999999999
1661616145,21.65,0.0,0.0,0.0,0.7848,0.49050000000000005,9.83943
1666666650,21.65,0.0,0.0,0.0,0.7749900000000001,0.47088,9.85905
1671717155,21.65,0.0,0.0,0.0,0.7651800000000001,0.48069000000000006,9.82962
1676767660,21.65,0.0,0.0,0.0,0.7749900000000001,0.48069000000000006,9.78057
1681818165,21.65,0.0,0.0,0.0,0.71613,0.46107000000000004,9.80019
1686868670,21.65,0.0,0.0,0.0,0.74556,0.47088,9.819809999999999
1691919175,21.65,0.0,0.0,0.0,0.7651800000000001,0.49050000000000005,9.84924
1696969680,21.65,0.0,0.0,0.0,0.7651800000000001,0.48069000000000006,9.82962
1702020185,21.65,0.0,0.0,0.0,0.7651800000000001,0.49050000000000005,9.82962
1707070690,21.65,0.0,0.0,0.0,0.75537,0.46107000000000004,9.80019
1712121195,21.65,0.0,0.0,0.0,0.74556,0.46107000000000004,9.82962
1717171700,21.65,0.0,0.0,0.0,0.73575,0.47088,9.85905
1722222205,21.65,0.0,0.0,0.0,0.74556,0.48069000000000006,9.84924
1727272710,21.65,0.0,0.0,0.0,0.74556,0.47088,9.80019
1732323215,21.65,0.0,0.0,0.0,0.7749900000000001,0.48069000000000006,9.81
1737373720,21.65,0.0,0.0,0.0,0.7749900000000001,0.46107000000000004,9.84924
1742424225,21.65,0.0,0.0,0.0,0.73575,0.47088,9.81
1747474730,21.65,0.0,0.0,0.0,0.7651800000000001,0.49050000000000005,9.83943
1752525235,21.65,0.0,0.0,0.0,0.75537,0.48069000000000006,9.80019
1757575740,21.65,0.0,0.0,0.0,0.75537,0.49050000000000005,9.81
1762626245,21.65,0.0,0.0,0.0,0.7651800000000001,0.49050000000000005,9.84924
1767676750,21.65,0.0,0.0,0.0,0.74556,0.47088,9.84924
1772727255,21.65,0.0,0.0,0.0,0.73575,0.47088,9.82962
1777777760,21.65,0.0,0.0,0.0,0.7749900000000001,0.48069000000000006,9.81
1782828265,21.65,0.0,0.0,0.0,0.75537,0.48069000000000006,9.819809999999999
1787878770,21.65,0.0,0.0,0.0,0.74556,0.46107000000000004,9.819809999999999
1792929275,21.65,0.0,0.0,0.0,0.74556,0.50031,9.819809999999999
1797979780,21.65,0.0,0.0,0.0,0.74556,0.47088,9.81
1803030285,21.65,0.0,0.0,0.0,0.7749900000000001,0.49050000000000005,9.81
1808080790,21.65,0.0,0.0,0.0,0.7651800000000001,0.47088,9.82962
1813131295,21.65,0.0,0.0,0.0,0.74556,0.49050000000000005,9.84924
1818181800,21.65,0.0,0.0,0.0,0.73575,0.47088,9.85905
1823232305,21.65,0.0,0.0,0.0,0.75537,0.49050000000000005,9.81
1828282810,21.65,0.0,0.0,0.0,0.73575,0.49050000000000005,9.78057
1833333315,21.65,0.0,0.0,0.0,0.75537,0.47088,9.81
1838383820,21.65,0.0,0.0,0.0,0.7848,0.46107000000000004,9.819809999999999
1843434325,21.65,0.0,0.0,0.0,0.7749900000000001,0.46107000000000004,9.83943
1848484830,21.65,0.0,0.0,0.0,0.7848,0.49050000000000005,9.80019
1853535335,21.65,0.0,0.0,0.0,0.7651800000000001,0.47088,9.81
1858585840,21.65,0.0,0.0,0.0,0.74556,0.47088,9.81
1863636345,21.65,0.0,0.0,0.0,0.7651800000000001,0.47088,9.79038
1868686850,21.65,0.0,0.0,0.0,0.7749900000000001,0.48069000000000006,9.81
1873737355,21.65,0.0,0.0,0.0,0.7651800000000001,0.47088,9.86886
1878787860,21.65,0.0,0.0,0.0,0.7651800000000001,0.49050000000000005,9.819809999999999
1883838365,21.65,0.0,0.0,0.0,0.73575,0.50031,9.81
1888888870,21.65,0.0,0.0,0.0,0.75537,0.47088,9.81
1893939375,21.65,0.0,0.0,0.0,0.7651800000000001,0.47088,9.86886
1898989880,21.65,0.0,0.0,0.0,0.74556,0.48069000000000006,9.85905
1904040385,21.65,0.0,0.0,0.0,0.7651800000000001,0.46107000000000004,9.819809999999999
1909090890,21.65,0.0,0.0,0.0,0.74556,0.47088,9.80019
1914141395,21.65,0.0,0.0,0.0,0.7749900000000001,0.47088,9.79038
1919191900,21.65,0.0,0.0,0.0,0.73575,0.49050000000000005,9.83943
1924242405,21.65,0.0,0.0,0.0,0.7651800000000001,0.49050000000000005,9.81
1929292910,21.65,0.0,0.0,0.0,0.75537,0.50031,9.80019
1934343415,21.65,0.0,0.0,0.0,0.7749900000000001,0.47088,9.80019
1939393920,21.65,0.0,0.0,0.0,0.75537,0.48069000000000006,9.819809999999999
1944444425,21.65,0.0,0.0,0.0,0.74556,0.49050000000000005,9.83943
1949494930,21.65,0.0,0.0,0.0,0.74556,0.46107000000000004,9.82962
1954545435,21.65,0.0,0.0,0.0,0.73575,0.48069000000000006,9.81
1959595940,21.65,0.0,0.0,0.0,0.75537,0.49050000000000005,9.80019
1964646445,21.65,0.0,0.0,0.0,0.75537,0.48069000000000006,9.81
1969696950,21.65,0.0,0.0,0.0,0.74556,0.48069000000000006,9.83943
1974747455,21.65,0.0,0.0,0.0,0.7749900000000001,0.48069000000000006,9.83943
1979797960,21.65,0.0,0.0,0.0,0.75537,0.48069000000000006,9.83943
1984848465,21.65,0.0,0.0,0.0,0.73575,0.48069000000000006,9.819809999999999
1989898970,21.65,0.0,0.0,0.0,0.74556,0.49050000000000005,9.80019
1994949475,21.65,0.0,0.0,0.0,0.75537,0.49050000000000005,9.79038
1999999980,21.65,0.0,0.0,0.0,0.75537,0.48069000000000006,9.82962
2005050485,21.65,0.0,0.0,0.0,0.7749900000000001,0.48069000000000006,9.82962
2010100990,21.65,0.0,0.0,0.0,0.7651800000000001,0.49050000000000005,9.82962
2015151495,21.65,0.0,0.0,0.0,0.7651800000000001,0.47088,9.82962
2020202000,21.65,0.0,0.0,0.0,0.74556,0.49050000000000005,9.81
2025252505,21.65,0.0,0.0,0.0,0.73575,0.49050000000000005,9.819809999999999
2030303010,21.65,0.0,0.0,0.0,0.7651800000000001,0.47088,9.819809999999999
2035353515,21.65,0.0,0.0,0.0,0.74556,0.47088,9.84924
2040404020,21.65,0.0,0.0,0.0,0.7651800000000001,0.47088,9.85905
2045454525,21.65,0.0,0.0,0.0,0.75537,0.46107000000000004,9.85905
2050505030,21.65,0.0,0.0,0.0,0.74556,0.48069000000000006,9.78057
2055555535,21.65,0.0,0.0,0.0,0.74556,0.47088,9.81
2060606040,21.65,0.0,0.0,0.0,0.7749900000000001,0.47088,9.81
2065656545,21.65,0.0,0.0,0.0,0.75537,0.49050000000000005,9.84924
2070707050,21.65,0.0,0.0,0.0,0.7651800000000001,0.49050000000000005,9.85905
2075757555,21.65,0.0,0.0,0.0,0.7749900000000001,0.47088,9.82962
2080808060,21.65,0.0,0.0,0.0,0.72594,0.47088,9.819809999999999
2085858565,21.65,0.0,0.0,0.0,0.75537,0.49050000000000005,9.81
2090909070,21.65,0.0,0.0,0.0,0.74556,0.49050000000000005,9.82962
2095959575,21.65,0.0,0.0,0.0,0.7651800000000001,0.49050000000000005,9.84924
2101010080,21.65,0.0,0.0,0.0,0.7651800000000001,0.47088,9.84924
2106060585,21.65,0.0,0.0,0.0,0.7651800000000001,0.49050000000000005,9.819809999999999
2111111090,21.65,0.0,0.0,0.0,0.74556,0.46107000000000004,9.81
2116161595,21.65,0.0,0.0,0.0,0.72594,0.48069000000000006,9.82962
2121212100,21.65,0.0,0.0,0.0,0.7749900000000001,0.48069000000000006,9.82962
2126262605,21.65,0.0,0.0,0.0,0.75537,0.48069000000000006,9.83943
2131313110,21.65,0.0,0.0,0.0,0.7749900000000001,0.46107000000000004,9.819809999999999
2136363615,21.65,0.0,0.0,0.0,0.7651800000000001,0.50031,9.819809999999999
2141414120,21.65,0.0,0.0,0.0,0.7651800000000001,0.51012,9.83943
2146464625,21.65,0.0,0.0,0.0,0.75537,0.48069000000000006,9.85905
2151515130,21.65,0.0,0.0,0.0,0.73575,0.49050000000000005,9.81
2156565635,21.65,0.0,0.0,0.0,0.75537,0.46107000000000004,9.79038
2161616140,21.65,0.0,0.0,0.0,0.7749900000000001,0.49050000000000005,9.79038
2166666645,21.65,0.0,0.0,0.0,0.75537,0.48069000000000006,9.82962
2171717150,21.65,0.0,0.0,0.0,0.74556,0.47088,9.85905
2176767655,21.65,0.0,0.0,0.0,0.75537,0.46107000000000004,9.82962
2181818160,21.65,0.0,0.0,0.0,0.75537,0.49050000000000005,9.81
2186868665,21.65,0.0,0.0,0.0,0.7651800000000001,0.49050000000000005,9.79038
2191919170,21.65,0.0,0.0,0.0,0.7848,0.47088,9.819809999999999
2196969675,21.65,0.0,0.0,0.0,0.74556,0.47088,9.82962
2202020180,21.65,0.0,0.0,0.0,0.73575,0.48069000000000006,9.84924
2207070685,21.65,0.0,0.0,0.0,0.7749900000000001,0.50031,9.82962
2212121190,21.65,0.0,0.0,0.0,0.7651800000000001,0.50031,9.82962
2217171695,21.65,0.0,0.0,0.0,0.75537,0.48069000000000006,9.819809999999999
2222222200,21.65,0.0,0.0,0.0,0.7651800000000001,0.47088,9.80019
2227272705,21.65,0.0,0.0,0.0,0.73575,0.46107000000000004,9.819809999999999
2232323210,21.65,0.0,0.0,0.0,0.75537,0.50031,9.819809999999999
2237373715,21.65,0.0,0.0,0.0,0.73575,0.48069000000000006,9.819809999999999
2242424220,21.65,0.0,0.0,0.0,0.74556,0.47088,9.82962
2247474725,21.65,0.0,0.0,0.0,0.75537,0.46107000000000004,9.84924
2252525230,21.65,0.0,0.0,0.0,0.74556,0.47088,9.819809999999999
2257575735,21.65,0.0,0.0,0.0,0.75537,0.49050000000000005,9.819809999999999
2262626240,21.65,0.0,0.0,0.0,0.7651800000000001,0.48069000000000006,9.81
2267676745,21.65,0.0,0.0,0.0,0.7651800000000001,0.46107000000000004,9.819809999999999
2272727250,21.65,0.0,0.0,0.0,0.75537,0.48069000000000006,9.85905
2277777755,21.65,0.0,0.0,0.0,0.7651800000000001,0.49050000000000005,9.84924
2282828260,21.65,0.0,0.0,0.0,0.74556,0.48069000000000006,9.81
2287878765,21.65,0.0,0.0,0.0,0.74556,0.48069000000000006,9.80019
2292929270,21.65,0.0,0.0,0.0,0.7651800000000001,0.47088,9.79038
2297979775,21.65,0.0,0.0,0.0,0.74556,0.47088,9.82962
2303030280,21.65,0.0,0.0,0.0,0.75537,0.46107000000000004,9.85905
2308080785,21.65,0.0,0.0,0.0,0.7749900000000001,0.49050000000000005,9.81
2313131290,21.65,0.0,0.0,0.0,0.74556,0.48069000000000006,9.80019
2318181795,21.65,0.0,0.0,0.0,0.73575,0.47088,9.81
2323232300,21.65,0.0,0.0,0.0,0.73575,0.47088,9.819809999999999
2328282805,21.65,0.0,0.0,0.0,0.73575,0.47088,9.82962
2333333310,21.65,0.0,0.0,0.0,0.74556,0.48069000000000006,9.82962
2338383815,21.65,0.0,0.0,0.0,0.74556,0.46107000000000004,9.819809999999999
2343434320,21.65,0.0,0.0,0.0,0.73575,0.46107000000000004,9.819809999999999
2348484825,21.65,0.0,0.0,0.0,0.74556,0.46107000000000004,9.79038
2353535330,21.65,0.0,0.0,0.0,0.75537,0.46107000000000004,9.83943
2358585835,21.65,0.0,0.0,0.0,0.7848,0.48069000000000006,9.84924
2363636340,21.65,0.0,0.0,0.0,0.75537,0.48069000000000006,9.85905
2368686845,21.65,0.0,0.0,0.0,0.75537,0.48069000000000006,9.80019
2373737350,21.65,0.0,0.0,0.0,0.74556,0.47088,9.80019
2378787855,21.65,0.0,0.0,0.0,0.7651800000000001,0.47088,9.79038
2383838360,21.65,0.0,0.0,0.0,0.7651800000000001,0.47088,9.84924
2388888865,21.65,0.0,0.0,0.0,0.74556,0.45126,9.819809999999999
2393939370,21.65,0.0,0.0,0.0,0.7651800000000001,0.48069000000000006,9.80019
2398989875,21.65,0.0,0.0,0.0,0.7651800000000001,0.46107000000000004,9.81
2404040380,21.65,0.0,0.0,0.0,0.73575,0.49050000000000005,9.81
2409090885,21.65,0.0,0.0,0.0,0.75537,0.47088,9.85905
2414141390,21.65,0.0,0.0,0.0,0.7749900000000001,0.48069000000000006,9.82962
2419191895,21.65,0.0,0.0,0.0,0.74556,0.48069000000000006,9.82962
2424242400,21.65,0.0,0.0,0.0,0.73575,0.45126,9.79038
2429292905,21.65,0.0,0.0,0.0,0.74556,0.47088,9.819809999999999
2434343410,21.65,0.0,0.0,0.0,0.7651800000000001,0.47088,9.82962
2439393915,21.65,0.0,0.0,0.0,0.7651800000000001,0.49050000000000005,9.83943
2444444420,21.65,0.0,0.0,0.0,0.71613,0.45126,9.84924
2449494925,21.65,0.0,0.0,0.0,0.73575,0.47088,9.81
2454545430,21.65,0.0,0.0,0.0,0.74556,0.47088,9.819809999999999
2459595935,21.65,0.0,0.0,0.0,0.73575,0.47088,9.80019
2464646440,21.65,0.0,0.0,0.0,0.75537,0.50031,9.82962
2469696945,21.65,0.0,0.0,0.0,0.7848,0.49050000000000005,9.82962
2474747450,21.65,0.0,0.0,0.0,0.75537,0.47088,9.819809999999999
2479797955,21.65,0.0,0.0,0.0,0.73575,0.46107000000000004,9.82962
2484848460,21.65,0.0,0.0,0.0,0.7749900000000001,0.46107000000000004,9.79038
2489898965,21.65,0.0,0.0,0.0,0.7651800000000001,0.49050000000000005,9.79038
2494949470,21.65,0.0,0.0,0.0,0.75537,0.48069000000000006,9.819809999999999
2499999975,21.65,0.0,0.0,0.0,0.7651800000000001,0.47088,9.82962
2505050480,21.65,0.0,0.0,0.0,0.7749900000000001,0.48069000000000006,9.81
2510100985,21.65,0.0,0.0,0.0,0.7749900000000001,0.48069000000000006,9.82962
2515151490,21.65,0.0,0.0,0.0,0.7651800000000001,0.48069000000000006,9.819809999999999
2520201995,21.65,0.0,0.0,0.0,0.7749900000000001,0.48069000000000006,9.83943
2525252500,21.65,0.0,0.0,0.0,0.75537,0.46107000000000004,9.82962
2530303005,21.65,0.0,0.0,0.0,0.75537,0.47088,9.83943
2535353510,21.65,0.0,0.0,0.0,0.7651800000000001,0.49050000000000005,9.81
2540404015,21.65,0.0,0.0,0.0,0.74556,0.46107000000000004,9.81
2545454520,21.65,0.0,0.0,0.0,0.75537,0.46107000000000004,9.81
2550505025,21.65,0.0,0.0,0.0,0.79461,0.49050000000000005,9.819809999999999
2555555530,21.65,0.0,0.0,0.0,0.74556,0.48069000000000006,9.82962
2560606035,21.65,0.0,0.0,0.0,0.74556,0.50031,9.82962
2565656540,21.65,0.0,0.0,0.0,0.73575,0.50031,9.80019
2570707045,21.65,0.0,0.0,0.0,0.73575,0.50031,9.81
2575757550,21.65,0.0,0.0,0.0,0.7848,0.47088,9.81
2580808055,21.65,0.0,0.0,0.0,0.75537,0.44145,9.85905
2585858560,21.65,0.0,0.0,0.0,0.7651800000000001,0.46107000000000004,9.83943
2590909065,21.65,0.0,0.0,0.0,0.7651800000000001,0.43164,9.82962
2595959570,21.65,0.0,0.0,0.0,0.74556,0.46107000000000004,9.819809999999999
2601010075,21.65,0.0,0.0,0.0,0.7651800000000001,0.45126,9.80019
2606060580,21.65,0.0,0.0,0.0,0.7651800000000001,0.47088,9.83943
2611111085,21.65,0.0,0.0,0.0,0.74556,0.48069000000000006,9.82962
2616161590,21.65,0.0,0.0,0.0,0.7651800000000001,0.47088,9.85905
2621212095,21.65,0.0,0.0,0.0,0.7651800000000001,0.49050000000000005,9.82962
2626262600,21.65,0.0,0.0,0.0,0.75537,0.49050000000000005,9.81
2631313105,21.65,0.0,0.0,0.0,0.7651800000000001,0.51012,9.80019
2636363610,21.65,0.0,0.0,0.0,0.75537,0.49050000000000005,9.819809999999999
2641414115,21.65,0.0,0.0,0.0,0.73575,0.50031,9.82962
2646464620,21.65,0.0,0.0,0.0,0.7749900000000001,0.49050000000000005,9.81
2651515125,21.65,0.0,0.0,0.0,0.7651800000000001,0.46107000000000004,9.819809999999999
2656565630,21.65,0.0,0.0,0.0,0.7651800000000001,0.46107000000000004,9.81
2661616135,21.65,0.0,0.0,0.0,0.74556,0.47088,9.81
2666666640,21.65,0.0,0.0,0.0,0.7749900000000001,0.49050000000000005,9.80019
2671717145,21.65,0.0,0.0,0.0,0.7651800000000001,0.49050000000000005,9.81
2676767650,21.65,0.0,0.0,0.0,0.7848,0.45126,9.82962
2681818155,21.65,0.0,0.0,0.0,0.7651800000000001,0.45126,9.85905
2686868660,21.65,0.0,0.0,0.0,0.75537,0.45126,9.83943
2691919165,21.65,0.0,0.0,0.0,0.72594,0.49050000000000005,9.80019
2696969670,21.65,0.0,0.0,0.0,0.74556,0.48069000000000006,9.760950000000001
2702020175,21.65,0.0,0.0,0.0,0.7749900000000001,0.51012,9.81
2707070680,21.65,0.0,0.0,0.0,0.74556,0.51993,9.84924
2712121185,21.65,0.0,0.0,0.0,0.7749900000000001,0.5493600000000001,9.79038
2717171690,21.65,0.0,0.0,0.0,0.75537,0.51993,9.81
2722222195,21.65,0.0,0.0,0.0,0.7848,0.44145,9.751140000000001
2727272700,21.65,-0.01064650843716541,0.005323254218582705,0.0,0.73575,0.47088,9.81
2732323205,21.65,-0.004258603374866164,0.002129301687433082,0.0,0.75537,0.49050000000000005,9.751140000000001
2737373710,21.65,-0.003193952531149623,0.002129301687433082,0.0,0.72594,0.51993,9.85905
2742424215,21.65,-0.003193952531149623,-0.002129301687433082,0.0,0.71613,0.51012,9.82962
2747474720,21.65,-0.005323254218582705,-0.001064650843716541,0.0,0.7749900000000001,0.48069000000000006,9.770760000000001
2752525225,21.65,-0.007452555906015787,-0.003193952531149623,0.0,0.7749900000000001,0.47088,9.82962
2757575730,21.65,-0.007452555906015787,0.0,0.0,0.7749900000000001,0.46107000000000004,9.86886
2762626235,21.65,-0.012775810124598492,0.002129301687433082,0.0,0.7749900000000001,0.45126,9.91791
2767676740,21.65,-0.007452555906015787,-0.004258603374866164,0.0,0.74556,0.44145,9.760950000000001
2772727245,21.65,-0.006387905062299246,0.004258603374866164,0.0,0.7749900000000001,0.47088,9.751140000000001
2777777750,21.65,0.0,0.006387905062299246,0.0,0.7651800000000001,0.51012,9.908100000000001
2782828255,21.65,-0.005323254218582705,0.006387905062299246,0.0,0.69651,0.48069000000000006,9.91791
2787878760,21.65,-0.01064650843716541,0.001064650843716541,0.0,0.72594,0.41202000000000005,9.908100000000001
2792929265,21.65,-0.01064650843716541,-0.005323254218582705,0.0,0.6768900000000001,0.41202000000000005,9.770760000000001
2797979770,21.65,-0.007452555906015787,-0.008517206749732328,0.0,0.7848,0.3924,9.7119
2803030275,21.65,-0.001064650843716541,-0.001064650843716541,0.0,0.79461,0.45126,9.92772
2808080780,21.65,0.002129301687433082,-0.005323254218582705,0.0,0.8142300000000001,0.47088,9.908100000000001
2813131285,21.65,0.005323254218582705,-0.006387905062299246,0.0,0.8240400000000001,0.49050000000000005,9.78057
2818181790,21.65,0.002129301687433082,0.005323254218582705,0.0,0.8142300000000001,0.50031,9.770760000000001
2823232295,21.65,-0.001064650843716541,0.011711159280881954,0.0,0.8240400000000001,0.50031,9.751140000000001
2828282800,21.65,-0.00958185759344887,0.014905111812031574,0.0,0.72594,0.46107000000000004,9.82962
2833333305,21.65,-0.00958185759344887,0.00958185759344887,0.0,0.6867000000000001,0.43164,9.937529999999999
2838383810,21.65,-0.005323254218582705,0.0,0.0,0.6180300000000001,0.46107000000000004,9.84924
2843434315,21.65,0.0,-0.01064650843716541,0.0,0.6670800000000001,0.51012,9.69228
2848484820,21.65,0.0,-0.015987215948268057,0.0,0.7651800000000001,0.51012,9.623610000000001
2853535325,21.65,-0.005323254218582705,-0.012775810124598492,0.0,0.79461,0.50031,9.78057
2858585830,21.65,-0.008517206749732328,-0.005323254218582705,0.0,0.87309,0.51993,9.84924
2863636335,21.65,-0.00958185759344887,0.002129301687433082,0.0,0.8338500000000001,0.50031,9.83943
2868686840,21.65,-0.008517206749732328,0.005323254218582705,0.0,0.85347,0.51012,9.770760000000001
2873737345,21.65,-0.005323254218582705,0.012775810124598492,0.0,0.75537,0.5395500000000001,9.72171
2878787850,21.65,-0.004258603374866164,0.01064650843716541,0.0,0.70632,0.5591700000000001,9.73152
2883838355,21.65,-0.00958185759344887,0.008517206749732328,0.0,0.6768900000000001,0.5395500000000001,9.81
2888888860,21.65,-0.022375121010567305,-0.001064650843716541,0.0,0.6278400000000001,0.45126,9.86886
2893939365,21.65,-0.031956978604016174,-0.007452555906015787,0.0,0.6768900000000001,0.31392000000000003,9.86886
2898989870,21.65,-0.033021629447732716,-0.006387905062299246,0.0,0.70632,0.26487,9.94734
2904040375,21.65,-0.01918116847941768,-0.00958185759344887,0.0,0.79461,0.30411,9.908100000000001
2909090880,21.65,-0.002129301687433082,-0.006387905062299246,0.0,0.8142300000000001,0.32373,9.819809999999999
2914141385,21.65,0.004258603374866164,-0.003193952531149623,0.0,0.8240400000000001,0.44145,9.770760000000001
2919191890,21.65,0.005323254218582705,0.002129301687433082,0.0,0.85347,0.46107000000000004,9.80019
2924242395,21.65,0.0,0.011711159280881954,0.0,0.8338500000000001,0.50031,9.96696
2929292900,21.65,-0.002129301687433082,0.014905111812031574,0.0,0.75537,0.47088,10.025820000000001
2934343405,21.65,-0.007452555906015787,0.014905111812031574,0.0,0.6670800000000001,0.46107000000000004,9.908100000000001
2939393910,21.65,-0.005323254218582705,0.002129301687433082,0.0,0.6278400000000001,0.46107000000000004,9.70209
2944444415,21.65,-0.002129301687433082,-0.00958185759344887,0.0,0.65727,0.51993,9.633420000000001
2949494920,21.65,-0.004258603374866164,-0.015987215948268057,0.0,0.7651800000000001,0.50031,9.79038
2954545425,21.65,-0.005323254218582705,-0.011711159280881954,0.0,0.84366,0.51012,9.98658
2959595930,21.65,-0.006387905062299246,-0.002129301687433082,0.0,0.8338500000000001,0.51993,9.91791
2964646435,21.65,-0.011711159280881954,0.004258603374866164,0.0,0.79461,0.46107000000000004,9.74133
2969696940,21.65,-0.012775810124598492,0.008517206749732328,0.0,0.7749900000000001,0.44145,9.64323
2974747445,21.65,-0.013840460968315033,0.00958185759344887,0.0,0.75537,0.41202000000000005,9.65304
2979797950,21.65,-0.005323254218582705,0.006387905062299246,0.0,0.75537,0.45126,9.908100000000001
2984848455,21.65,-0.001064650843716541,0.001064650843716541,0.0,0.69651,0.48069000000000006,9.98658
2989898960,21.65,-0.003193952531149623,-0.002129301687433082,0.0,0.6867000000000001,0.51012,9.82962
2994949465,21.65,-0.012775810124598492,-0.006387905062299246,0.0,0.6867000000000001,0.43164,9.68247
2999999970,21.65,-0.01811651763570114,-0.006387905062299246,0.0,0.73575,0.40221,9.67266
3005050475,21.65,-0.020245819323134222,-0.005323254218582705,0.0,0.8142300000000001,0.37278,9.79038
3010100980,21.65,-0.011711159280881954,0.0,0.0,0.8338500000000001,0.40221,9.937529999999999
3015151485,21.65,-0.001064650843716541,0.003193952531149623,0.0,0.79461,0.45126,9.85905
3020201990,21.65,0.001064650843716541,0.004258603374866164,0.0,0.7651800000000001,0.5395500000000001,9.72171
3025252495,21.65,0.0,0.001064650843716541,0.0,0.74556,0.5493600000000001,9.65304
3030303000,21.65,-0.00958185759344887,0.007452555906015787,0.0,0.75537,0.5493600000000001,9.770760000000001
3035353505,21.65,-0.015987215948268057,0.002129301687433082,0.0,0.72594,0.50031,9.937529999999999
3040404010,21.65,-0.01918116847941768,0.0,0.0,0.70632,0.45126,9.888480000000001
3045454515,21.65,-0.022375121010567305,-0.001064650843716541,0.0,0.69651,0.42183,9.83943
3050505020,21.65,-0.022375121010567305,-0.005323254218582705,0.0,0.69651,0.3924,9.79038
3055555525,21.65,-0.0170518667919846,-0.007452555906015787,0.0,0.7749900000000001,0.35316,9.72171
3060606030,21.65,-0.015987215948268057,-0.003193952531149623,0.0,0.8240400000000001,0.35316,9.85905
3065656535,21.65,-0.014905111812031574,0.003193952531149623,0.0,0.80442,0.34335000000000004,9.98658
3070707040,21.65,-0.00958185759344887,0.006387905062299246,0.0,0.7848,0.37278,9.86886
3075757545,21.65,-0.006387905062299246,0.006387905062299246,0.0,0.7749900000000001,0.43164,9.78057
3080808050,21.65,0.001064650843716541,0.005323254218582705,0.0,0.72594,0.52974,9.770760000000001
3085858555,21.65,0.005323254218582705,0.0,0.0,0.70632,0.60822,9.81
3090909060,21.65,0.0,-0.003193952531149623,0.0,0.70632,0.6180300000000001,9.819809999999999
3095959565,21.65,-0.011711159280881954,-0.006387905062299246,0.0,0.74556,0.5591700000000001,9.81
3101010070,21.65,-0.02556907354171693,-0.002129301687433082,0.0,0.7651800000000001,0.47088,9.84924
3106060575,21.65,-0.03621558197888234,-0.002129301687433082,0.0,0.7749900000000001,0.36297,9.85905
3111111080,21.65,-0.03621558197888234,0.001064650843716541,0.0,0.7749900000000001,0.27468000000000004,9.87867
3116161585,21.65,-0.024504422698000388,0.001064650843716541,0.0,0.7651800000000001,0.24525000000000002,9.82962
3121212090,21.65,-0.008517206749732328,0.0,0.0,0.75537,0.31392000000000003,9.751140000000001
3126262595,21.65,0.0,0.0,0.0,0.7749900000000001,0.3924,9.72171
3131313100,21.65,0.003193952531149623,0.0,0.0,0.7749900000000001,0.49050000000000005,9.83943
3136363605,21.65,0.007452555906015787,0.003193952531149623,0.0,0.7749900000000001,0.5591700000000001,9.908100000000001
3141414110,21.65,0.004258603374866164,0.002129301687433082,0.0,0.7749900000000001,0.6278400000000001,9.84924
3146464615,21.65,-0.006387905062299246,0.003193952531149623,0.0,0.70632,0.60822,9.751140000000001
3151515120,21.65,-0.0170518667919846,0.0,0.0,0.6867000000000001,0.5591700000000001,9.67266
3156565625,21.65,-0.03089232776029963,0.0,0.0,0.7651800000000001,0.47088,9.73152
3161616130,21.65,-0.03834488366631542,-0.002129301687433082,0.0,0.73575,0.38259000000000004,9.89829
3166666635,21.65,-0.03834488366631542,-0.002129301687433082,0.0,0.7848,0.28449,9.937529999999999
3171717140,21.65,-0.031956978604016174,0.001064650843716541,0.0,0.75537,0.25506,9.83943
3176767645,21.65,-0.01918116847941768,-0.002129301687433082,0.0,0.75537,0.26487,9.69228
3181818150,21.65,-0.005323254218582705,-0.003193952531149623,0.0,0.7749900000000001,0.36297,9.67266
3186868655,21.65,0.002129301687433082,0.0,0.0,0.79461,0.50031,9.82962
3191919160,21.65,0.008517206749732328,0.002129301687433082,0.0,0.7749900000000001,0.60822,9.92772
3196969665,21.65,0.0,0.006387905062299246,0.0,0.75537,0.6278400000000001,9.89829
3202020170,21.65,-0.020245819323134222,0.007452555906015787,0.0,0.69651,0.5591700000000001,9.81
3207070675,21.65,-0.039409534510031964,0.002129301687433082,0.0,0.70632,0.41202000000000005,9.70209
3212121180,21.65,-0.046879543708567686,-0.001064650843716541,0.0,0.70632,0.27468000000000004,9.79038
3217171685,21.65,-0.0404741853537485,-0.004258603374866164,0.0,0.72594,0.21582,9.91791
3222222190,21.65,-0.022375121010567305,-0.006387905062299246,0.0,0.7651800000000001,0.24525000000000002,9.91791
3227272695,21.65,-0.001064650843716541,-0.00958185759344887,0.0,0.79461,0.3924,9.84924
3232323200,21.65,0.005323254218582705,-0.005323254218582705,0.0,0.7848,0.46107000000000004,9.73152
3237373705,21.65,0.0,0.002129301687433082,0.0,0.8240400000000001,0.49050000000000005,9.73152
3242424210,21.65,-0.007452555906015787,0.00958185759344887,0.0,0.80442,0.49050000000000005,9.85905
3247474715,21.65,-0.022375121010567305,0.00958185759344887,0.0,0.74556,0.46107000000000004,9.92772
3252525220,21.65,-0.024504422698000388,0.008517206749732328,0.0,0.6867000000000001,0.42183,9.91791
3257575725,21.65,-0.023439771854283843,0.0,0.0,0.6670800000000001,0.41202000000000005,9.79038
3262626230,21.65,-0.0170518667919846,-0.00958185759344887,0.0,0.71613,0.41202000000000005,9.68247
3267676735,21.65,-0.013840460968315033,-0.008517206749732328,0.0,0.7749900000000001,0.43164,9.819809999999999
3272727240,21.65,-0.014905111812031574,-0.01064650843716541,0.0,0.7848,0.41202000000000005,9.86886
3277777745,21.65,-0.022375121010567305,-0.003193952531149623,0.0,0.8338500000000001,0.3924,9.908100000000001
3282828250,21.65,-0.02556907354171693,0.003193952531149623,0.0,0.80442,0.35316,9.888480000000001
3287878755,21.65,-0.024504422698000388,0.002129301687433082,0.0,0.7848,0.28449,9.751140000000001
3292929260,21.65,-0.01918116847941768,0.007452555906015787,0.0,0.75537,0.34335000000000004,9.760950000000001
3297979765,21.65,-0.006387905062299246,0.002129301687433082,0.0,0.73575,0.38259000000000004,9.78057
3303030270,21.65,-0.004258603374866164,0.004258603374866164,0.0,0.72594,0.46107000000000004,9.819809999999999
3308080775,21.65,-0.002129301687433082,-0.001064650843716541,0.0,0.72594,0.51012,9.86886
3313131280,21.65,-0.00958185759344887,-0.001064650843716541,0.0,0.74556,0.5395500000000001,9.83943
3318181785,21.65,-0.01918116847941768,-0.002129301687433082,0.0,0.74556,0.51012,9.81
3323232290,21.65,-0.02556907354171693,-0.006387905062299246,0.0,0.75537,0.45126,9.72171
3328282795,21.65,-0.033021629447732716,-0.003193952531149623,0.0,0.7749900000000001,0.3924,9.73152
3333333300,21.65,-0.03089232776029963,-0.003193952531149623,0.0,0.79461,0.31392000000000003,9.81
3338383805,21.65,-0.023439771854283843,0.002129301687433082,0.0,0.79461,0.34335000000000004,9.83943
3343434310,21.65,-0.012775810124598492,0.002129301687433082,0.0,0.7848,0.38259000000000004,9.86886
3348484815,21.65,-0.006387905062299246,0.005323254218582705,0.0,0.75537,0.45126,9.80019
3353535320,21.65,-0.008517206749732328,0.003193952531149623,0.0,0.6768900000000001,0.49050000000000005,9.73152
3358585825,21.65,-0.01918116847941768,0.001064650843716541,0.0,0.72594,0.47088,9.760950000000001
3363636330,21.65,-0.031956978604016174,-0.001064650843716541,0.0,0.69651,0.36297,9.86886
3368686835,21.65,-0.03408628029144926,-0.001064650843716541,0.0,0.75537,0.30411,9.937529999999999
3373737340,21.65,-0.02769837522915001,-0.004258603374866164,0.0,0.75537,0.32373,9.888480000000001
3378787845,21.65,-0.0170518667919846,-0.006387905062299246,0.0,0.7651800000000001,0.35316,9.751140000000001
3383838350,21.65,-0.013840460968315033,0.0,0.0,0.7848,0.3924,9.68247
3388888855,21.65,-0.012775810124598492,0.0,0.0,0.8240400000000001,0.44145,9.81
3393939360,21.65,-0.020245819323134222,0.007452555906015787,0.0,0.80442,0.42183,9.92772
3398989865,21.65,-0.02769837522915001,0.012775810124598492,0.0,0.74556,0.35316,9.937529999999999
3404040370,21.65,-0.028763026072866547,0.006387905062299246,0.0,0.64746,0.34335000000000004,9.81
3409090875,21.65,-0.021310470166850764,-0.001064650843716541,0.0,0.6670800000000001,0.34335000000000004,9.68247
3414141380,21.65,-0.01064650843716541,-0.008517206749732328,0.0,0.70632,0.41202000000000005,9.73152
3419191885,21.65,-0.007452555906015787,-0.0170518667919846,0.0,0.7749900000000001,0.49050000000000005,9.79038
3424242390,21.65,-0.015987215948268057,-0.008517206749732328,0.0,0.8338500000000001,0.47088,9.86886
3429292895,21.65,-0.03089232776029963,0.0,0.0,0.85347,0.40221,9.83943
3434343400,21.65,-0.04153883619746504,0.008517206749732328,0.0,0.8240400000000001,0.2943,9.81
3439393905,21.65,-0.03834488366631542,0.014905111812031574,0.0,0.72594,0.26487,9.82962
3444444410,21.65,-0.021310470166850764,0.005323254218582705,0.0,0.6670800000000001,0.34335000000000004,9.83943
3449494915,21.65,-0.002129301687433082,-0.003193952531149623,0.0,0.64746,0.42183,9.78057
3454545420,21.65,-0.001064650843716541,-0.014905111812031574,0.0,0.72594,0.51993,9.69228
3459595925,21.65,-0.01811651763570114,-0.013840460968315033,0.0,0.7848,0.48069000000000006,9.751140000000001
3464646430,21.65,-0.03621558197888234,0.0,0.0,0.8338500000000001,0.38259000000000004,9.908100000000001
3469696935,21.65,-0.044732788728614664,0.007452555906015787,0.0,0.8338500000000001,0.28449,10.025820000000001
3474747440,21.65,-0.03621558197888234,0.007452555906015787,0.0,0.75537,0.23544,9.89829
3479797945,21.65,-0.01811651763570114,0.004258603374866164,0.0,0.6867000000000001,0.30411,9.69228
3484848450,21.65,-0.007452555906015787,-0.004258603374866164,0.0,0.6670800000000001,0.41202000000000005,9.60399
3489898955,21.65,-0.011711159280881954,-0.006387905062299246,0.0,0.74556,0.44145,9.760950000000001
3494949460,21.65,-0.02769837522915001,-0.002129301687433082,0.0,0.80442,0.38259000000000004,9.98658
3499999965,21.65,-0.03834488366631542,0.007452555906015787,0.0,0.8142300000000001,0.2943,10.09449
3505050470,21.65,-0.03515093113516579,0.006387905062299246,0.0,0.75537,0.22563,9.89829
3510100975,21.65,-0.024504422698000388,0.002129301687433082,0.0,0.69651,0.28449,9.67266
3515151480,21.65,-0.008517206749732328,-0.005323254218582705,0.0,0.69651,0.35316,9.64323
3520201985,21.65,-0.004258603374866164,-0.005323254218582705,0.0,0.75537,0.45126,9.73152
3525252490,21.65,-0.008517206749732328,0.0,0.0,0.80442,0.47088,9.937529999999999
3530302995,21.65,-0.022375121010567305,0.004258603374866164,0.0,0.7848,0.46107000000000004,9.97677
3535353500,21.65,-0.03621558197888234,0.008517206749732328,0.0,0.74556,0.38259000000000004,9.86886
3540404005,21.65,-0.03834488366631542,0.001064650843716541,0.0,0.6867000000000001,0.2943,9.7119
3545454510,21.65,-0.033021629447732716,-0.004258603374866164,0.0,0.69651,0.26487,9.623610000000001
3550505015,21.65,-0.02769837522915001,-0.008517206749732328,0.0,0.7651800000000001,0.32373,9.68247
3555555520,21.65,-0.015987215948268057,-0.006387905062299246,0.0,0.79461,0.35316,9.85905
3560606025,21.65,-0.012775810124598492,0.001064650843716541,0.0,0.8240400000000001,0.40221,9.96696
3565656530,21.65,-0.022375121010567305,0.002129301687433082,0.0,0.75537,0.41202000000000005,9.87867
3570707035,21.65,-0.03089232776029963,0.0,0.0,0.73575,0.38259000000000004,9.69228
3575757540,21.65,-0.03515093113516579,-0.004258603374866164,0.0,0.73575,0.30411,9.58437
3580808045,21.65,-0.033021629447732716,0.002129301687433082,0.0,0.80442,0.30411,9.73152
3585858550,21.65,-0.020245819323134222,0.007452555906015787,0.0,0.7848,0.37278,9.98658
3590909055,21.65,-0.015987215948268057,0.004258603374866164,0.0,0.7651800000000001,0.44145,10.045440000000001
3595959560,21.65,-0.023439771854283843,-0.001064650843716541,0.0,0.69651,0.42183,9.819809999999999
3601010065,21.65,-0.03834488366631542,-0.01064650843716541,0.0,0.6867000000000001,0.31392000000000003,9.623610000000001
3606060570,21.65,-0.05113814708343386,-0.006387905062299246,0.0,0.79461,0.1962,9.57456
3611111075,21.65,-0.044732788728614664,0.003193952531149623,0.0,0.8142300000000001,0.18639,9.937529999999999
3616161580,21.65,-0.022375121010567305,0.002129301687433082,0.0,0.80442,0.25506,10.17297
3621212085,21.65,-0.011711159280881954,0.001064650843716541,0.0,0.73575,0.34335000000000004,9.94734
3626262590,21.65,-0.012775810124598492,-0.004258603374866164,0.0,0.71613,0.37278,9.623610000000001
3631313095,21.65,-0.020245819323134222,-0.001064650843716541,0.0,0.79461,0.40221,9.5157
3636363600,21.65,-0.031956978604016174,0.00958185759344887,0.0,0.80442,0.36297,9.84924
3641414105,21.65,-0.03621558197888234,0.011711159280881954,0.0,0.73575,0.34335000000000004,10.22202
3646464610,21.65,-0.03621558197888234,0.003193952531149623,0.0,0.65727,0.25506,10.12392
3651515115,21.65,-0.031956978604016174,-0.008517206749732328,0.0,0.6670800000000001,0.23544,9.70209
3656565620,21.65,-0.02769837522915001,-0.014905111812031574,0.0,0.7651800000000001,0.24525000000000002,9.43722
3661616125,21.65,-0.01918116847941768,-0.005323254218582705,0.0,0.8829,0.2943,9.68247
3666666630,21.65,-0.013840460968315033,0.006387905062299246,0.0,0.87309,0.38259000000000004,10.045440000000001
3671717135,21.65,-0.01811651763570114,0.01064650843716541,0.0,0.79461,0.36297,10.143540000000002
3676767640,21.65,-0.031956978604016174,0.001064650843716541,0.0,0.72594,0.33354000000000006,9.79038
3681818145,21.65,-0.02982767691658309,0.001064650843716541,0.0,0.69651,0.2943,9.42741
3686868650,21.65,-0.023439771854283843,0.003193952531149623,0.0,0.69651,0.34335000000000004,9.6138
3691919155,21.65,-0.013840460968315033,0.002129301687433082,0.0,0.73575,0.43164,9.96696
3696969660,21.65,-0.0170518667919846,-0.003193952531149623,0.0,0.70632,0.46107000000000004,10.045440000000001
3702020165,21.65,-0.02982767691658309,-0.012775810124598492,0.0,0.72594,0.38259000000000004,9.819809999999999
3707070670,21.65,-0.046879543708567686,-0.011711159280881954,0.0,0.8142300000000001,0.26487,9.54513
3712121175,21.65,-0.049008845396000776,0.006387905062299246,0.0,0.85347,0.22563,9.66285
3717171680,21.65,-0.039409534510031964,0.012775810124598492,0.0,0.7848,0.23544,9.99639
3722222185,21.65,-0.028763026072866547,0.007452555906015787,0.0,0.69651,0.27468000000000004,10.006200000000002
3727272690,21.65,-0.021310470166850764,-0.005323254218582705,0.0,0.6670800000000001,0.30411,9.69228
3732323195,21.65,-0.023439771854283843,-0.01064650843716541,0.0,0.7749900000000001,0.33354000000000006,9.52551
3737373700,21.65,-0.02556907354171693,0.001064650843716541,0.0,0.8142300000000001,0.38259000000000004,9.770760000000001
3742424205,21.65,-0.028763026072866547,0.008517206749732328,0.0,0.8240400000000001,0.36297,10.05525
3747474710,21.65,-0.04153883619746504,0.006387905062299246,0.0,0.6768900000000001,0.28449,10.05525
3752525215,21.65,-0.04260348704118158,-0.005323254218582705,0.0,0.70632,0.23544,9.7119
3757575720,21.65,-0.039409534510031964,-0.003193952531149623,0.0,0.7651800000000001,0.24525000000000002,9.54513
3762626225,21.65,-0.02982767691658309,0.0,0.0,0.79461,0.31392000000000003,9.81
3767676730,21.65,-0.023439771854283843,0.002129301687433082,0.0,0.80442,0.32373,9.99639
3772727235,21.65,-0.028763026072866547,0.004258603374866164,0.0,0.73575,0.30411,10.006200000000002
3777777740,21.65,-0.03621558197888234,-0.004258603374866164,0.0,0.73575,0.22563,9.80019
3782828245,21.65,-0.04260348704118158,0.001064650843716541,0.0,0.7749900000000001,0.20601000000000003,9.7119
3787878750,21.65,-0.03834488366631542,0.004258603374866164,0.0,0.7749900000000001,0.1962,9.908100000000001
3792929255,21.65,-0.024504422698000388,0.001064650843716541,0.0,0.74556,0.21582,9.92772
3797979760,21.65,-0.020245819323134222,-0.002129301687433082,0.0,0.72594,0.26487,9.80019
3803030265,21.65,-0.022375121010567305,-0.004258603374866164,0.0,0.75537,0.28449,9.7119
3808080770,21.65,-0.024504422698000388,-0.004258603374866164,0.0,0.7651800000000001,0.30411,9.82962
3813131275,21.65,-0.02982767691658309,0.0,0.0,0.79461,0.28449,9.94734
3818181780,21.65,-0.03408628029144926,0.005323254218582705,0.0,0.79461,0.26487,9.89829
3823232285,21.65,-0.028763026072866547,0.002129301687433082,0.0,0.73575,0.27468000000000004,9.69228
3828282790,21.65,-0.02556907354171693,0.004258603374866164,0.0,0.70632,0.33354000000000006,9.68247
3833333295,21.65,-0.023439771854283843,-0.002129301687433082,0.0,0.72594,0.33354000000000006,9.87867
3838383800,21.65,-0.02556907354171693,-0.004258603374866164,0.0,0.75537,0.32373,9.89829
3843434305,21.65,-0.033021629447732716,0.0,0.0,0.75537,0.33354000000000006,9.81
3848484810,21.65,-0.03621558197888234,0.0,0.0,0.7749900000000001,0.30411,9.65304
3853535315,21.65,-0.04153883619746504,0.002129301687433082,0.0,0.7749900000000001,0.25506,9.65304
3858585820,21.65,-0.044732788728614664,0.0,0.0,0.73575,0.21582,9.87867
3863636325,21.65,-0.0404741853537485,-0.002129301687433082,0.0,0.7749900000000001,0.23544,9.937529999999999
3868686830,21.65,-0.028763026072866547,0.001064650843716541,0.0,0.8142300000000001,0.30411,9.81
3873737335,21.65,-0.022375121010567305,0.004258603374866164,0.0,0.73575,0.36297,9.633420000000001
3878787840,21.65,-0.02982767691658309,0.001064650843716541,0.0,0.69651,0.32373,9.7119
3883838345,21.65,-0.04581489286485115,-0.001064650843716541,0.0,0.7651800000000001,0.25506,9.85905
3888888850,21.65,-0.05220279792715039,0.0,0.0,0.7848,0.17658,10.03563
3893939355,21.65,-0.04794419455228423,0.0,0.0,0.75537,0.15696000000000002,9.91791
3898989860,21.65,-0.03515093113516579,-0.003193952531149623,0.0,0.74556,0.18639,9.68247
3904040365,21.65,-0.028763026072866547,-0.002129301687433082,0.0,0.73575,0.23544,9.68247
3909090870,21.65,-0.03089232776029963,-0.004258603374866164,0.0,0.80442,0.23544,9.85905
3914141375,21.65,-0.033021629447732716,0.0,0.0,0.79461,0.26487,10.03563
3919191880,21.65,-0.03834488366631542,0.002129301687433082,0.0,0.74556,0.1962,10.01601
3924242385,21.65,-0.03834488366631542,0.001064650843716541,0.0,0.7651800000000001,0.18639,9.760950000000001
3929292890,21.65,-0.039409534510031964,0.007452555906015787,0.0,0.72594,0.13734000000000002,9.65304
3934343395,21.65,-0.031956978604016174,-0.004258603374866164,0.0,0.73575,0.17658,9.86886
3939393900,21.65,-0.028763026072866547,-0.007452555906015787,0.0,0.75537,0.21582,10.006200000000002
3944444405,21.65,-0.024504422698000388,-0.007452555906015787,0.0,0.79461,0.25506,9.908100000000001
3949494910,21.65,-0.022375121010567305,0.002129301687433082,0.0,0.8338500000000001,0.27468000000000004,9.760950000000001
3954545415,21.65,-0.028763026072866547,0.01064650843716541,0.0,0.7651800000000001,0.26487,9.80019
3959595920,21.65,-0.03728023282259888,0.004258603374866164,0.0,0.72594,0.24525000000000002,9.79038
3964646425,21.65,-0.03728023282259888,0.0,0.0,0.74556,0.21582,9.82962
3969696930,21.65,-0.03515093113516579,0.0,0.0,0.74556,0.20601000000000003,9.80019
3974747435,21.65,-0.02982767691658309,0.002129301687433082,0.0,0.75537,0.27468000000000004,9.770760000000001
3979797940,21.65,-0.028763026072866547,0.0,0.0,0.72594,0.25506,9.79038
3984848445,21.65,-0.033021629447732716,-0.004258603374866164,0.0,0.75537,0.27468000000000004,9.74133
3989898950,21.65,-0.04153883619746504,-0.002129301687433082,0.0,0.7848,0.22563,9.760950000000001
3994949455,21.65,-0.044732788728614664,0.0,0.0,0.7749900000000001,0.17658,9.86886
3999999960,21.65,-0.04366813788489812,0.0,0.0,0.79461,0.17658,9.81
4005050465,21.65,-0.03515093113516579,0.005323254218582705,0.0,0.75537,0.22563,9.72171
4010100970,21.65,-0.02769837522915001,0.004258603374866164,0.0,0.71613,0.27468000000000004,9.751140000000001
4015151475,21.65,-0.03834488366631542,-0.002129301687433082,0.0,0.73575,0.27468000000000004,9.81
4020201980,21.65,-0.046879543708567686,-0.003193952531149623,0.0,0.74556,0.20601000000000003,9.89829
4025252485,21.65,-0.044732788728614664,-0.002129301687433082,0.0,0.79461,0.20601000000000003,9.84924
4030302990,21.65,-0.04153883619746504,0.005323254218582705,0.0,0.7848,0.1962,9.81
4035353495,21.65,-0.04794419455228423,0.005323254218582705,0.0,0.71613,0.11772,9.908100000000001
4040404000,21.65,-0.04794419455228423,-0.007452555906015787,0.0,0.71613,0.08829,9.82962
4045454505,21.65,-0.04581489286485115,-0.005323254218582705,0.0,0.8142300000000001,0.08829,9.80019
4050505010,21.65,-0.03621558197888234,-0.001064650843716541,0.0,0.8338500000000001,0.0981,9.92772
4055555515,21.65,-0.03408628029144926,0.003193952531149623,0.0,0.7749900000000001,0.0981,10.045440000000001
4060606020,21.65,-0.03089232776029963,0.003193952531149623,0.0,0.75537,0.13734000000000002,9.89829
4065656525,21.65,-0.02769837522915001,0.003193952531149623,0.0,0.73575,0.18639,9.770760000000001
4070707030,21.65,-0.02663372438543347,-0.002129301687433082,0.0,0.75537,0.18639,9.760950000000001
4075757535,21.65,-0.03089232776029963,0.003193952531149623,0.0,0.75537,0.18639,9.89829
4080808040,21.65,-0.02556907354171693,-0.001064650843716541,0.0,0.73575,0.24525000000000002,9.94734
4085858545,21.65,-0.01918116847941768,-0.002129301687433082,0.0,0.7749900000000001,0.27468000000000004,9.770760000000001
4090909050,21.65,-0.033021629447732716,0.001064650843716541,0.0,0.71613,0.24525000000000002,9.760950000000001
4095959555,21.65,-0.044732788728614664,-0.004258603374866164,0.0,0.73575,0.16677000000000003,9.72171
4101010060,21.65,-0.046879543708567686,-0.007452555906015787,0.0,0.80442,0.13734000000000002,9.78057
4106060565,21.65,-0.03621558197888234,0.002129301687433082,0.0,0.8142300000000001,0.21582,9.83943
4111111070,21.65,-0.03621558197888234,0.007452555906015787,0.0,0.73575,0.20601000000000003,9.84924
4116161575,21.65,-0.03728023282259888,0.001064650843716541,0.0,0.69651,0.18639,9.69228
4121212080,21.65,-0.03621558197888234,-0.004258603374866164,0.0,0.74556,0.22563,9.633420000000001
4126262585,21.65,-0.039409534510031964,-0.001064650843716541,0.0,0.7651800000000001,0.21582,9.73152
4131313090,21.65,-0.044732788728614664,0.005323254218582705,0.0,0.7848,0.20601000000000003,9.89829
4136363595,21.65,-0.04366813788489812,0.003193952531149623,0.0,0.73575,0.20601000000000003,9.97677
4141414100,21.65,-0.039409534510031964,-0.006387905062299246,0.0,0.73575,0.21582,9.770760000000001
4146464605,21.65,-0.05220279792715039,0.0,0.0,0.75537,0.10791,9.65304
4151515110,21.65,-0.05646140130201656,-0.002129301687433082,0.0,0.74556,0.04905,9.79038
4156565615,21.65,-0.05220279792715039,-0.002129301687433082,0.0,0.84366,0.039240000000000004,9.99639
4161616120,21.65,-0.04153883619746504,0.006387905062299246,0.0,0.8142300000000001,0.05886,10.045440000000001
4166666625,21.65,-0.0404741853537485,0.005323254218582705,0.0,0.71613,0.039240000000000004,9.84924
4171717130,21.65,-0.04260348704118158,0.002129301687433082,0.0,0.69651,0.04905,9.760950000000001
4176767635,21.65,-0.028763026072866547,-0.003193952531149623,0.0,0.7749900000000001,0.16677000000000003,9.82962
4181818140,21.65,-0.02663372438543347,0.0,0.0,0.7651800000000001,0.17658,9.94734
4186868645,21.65,-0.03515093113516579,0.003193952531149623,0.0,0.79461,0.14715,9.92772
4191919150,21.65,-0.03408628029144926,0.005323254218582705,0.0,0.69651,0.14715,9.89829
4196969655,21.65,-0.03408628029144926,-0.002129301687433082,0.0,0.71613,0.15696000000000002,9.85905
4202020160,21.65,-0.0404741853537485,-0.003193952531149623,0.0,0.7749900000000001,0.06867000000000001,9.79038
4207070665,21.65,-0.04366813788489812,-0.001064650843716541,0.0,0.7651800000000001,0.07848000000000001,9.80019
4212121170,21.65,-0.02982767691658309,-0.004258603374866164,0.0,0.7749900000000001,0.16677000000000003,9.760950000000001
4217171675,21.65,-0.02982767691658309,0.002129301687433082,0.0,0.7848,0.15696000000000002,9.81
4222222180,21.65,-0.039409534510031964,0.004258603374866164,0.0,0.74556,0.14715,9.79038
4227272685,21.65,-0.039409534510031964,0.001064650843716541,0.0,0.74556,0.14715,9.80019
4232323190,21.65,-0.03408628029144926,0.0,0.0,0.74556,0.21582,9.82962
4237373695,21.65,-0.03408628029144926,0.001064650843716541,0.0,0.72594,0.17658,9.79038
4242424200,21.65,-0.03728023282259888,0.0,0.0,0.73575,0.17658,9.66285
4247474705,21.65,-0.04153883619746504,0.0,0.0,0.70632,0.21582,9.66285
4252525210,21.65,-0.04366813788489812,-0.006387905062299246,0.0,0.7651800000000001,0.17658,9.87867
4257575715,21.65,-0.05539675045830002,0.001064650843716541,0.0,0.8142300000000001,0.10791,10.03563
4262626220,21.65,-0.05539675045830002,0.0,0.0,0.7651800000000001,0.04905,9.82962
4267676725,21.65,-0.05007349623971732,0.002129301687433082,0.0,0.74556,0.06867000000000001,9.623610000000001
4272727230,21.65,-0.05007349623971732,0.0,0.0,0.7749900000000001,0.009810000000000001,9.7119
4277777735,21.65,-0.049008845396000776,0.002129301687433082,0.0,0.7749900000000001,0.0,9.94734
4282828240,21.65,-0.03515093113516579,0.0,0.0,0.7848,0.04905,10.074869999999999
4287878745,21.65,-0.02769837522915001,-0.003193952531149623,0.0,0.74556,0.10791,9.86886
4292929250,21.65,-0.0404741853537485,0.003193952531149623,0.0,0.7651800000000001,0.07848000000000001,9.66285
4297979755,21.65,-0.04581489286485115,0.004258603374866164,0.0,0.73575,0.07848000000000001,9.78057
4303030260,21.65,-0.04366813788489812,0.003193952531149623,0.0,0.73575,0.06867000000000001,9.95715
4308080765,21.65,-0.044732788728614664,-0.002129301687433082,0.0,0.74556,0.019620000000000002,10.045440000000001
4313131270,21.65,-0.0404741853537485,-0.001064650843716541,0.0,0.72594,0.06867000000000001,9.92772
4318181775,21.65,-0.02982767691658309,-0.006387905062299246,0.0,0.75537,0.0981,9.68247
4323232280,21.65,-0.033021629447732716,-0.004258603374866164,0.0,0.7749900000000001,0.0981,9.60399
4328282785,21.65,-0.0404741853537485,0.002129301687433082,0.0,0.80442,0.06867000000000001,9.87867
4333333290,21.65,-0.039409534510031964,0.0,0.0,0.8142300000000001,0.08829,10.074869999999999
4338383795,21.65,-0.03515093113516579,0.005323254218582705,0.0,0.73575,0.11772,9.95715
4343434300,21.65,-0.033021629447732716,-0.002129301687433082,0.0,0.70632,0.12753,9.53532
4348484805,21.65,-0.03515093113516579,0.0,0.0,0.72594,0.15696000000000002,9.46665
4353535310,21.65,-0.03834488366631542,0.0,0.0,0.73575,0.1962,9.89829
4358585815,21.65,-0.046879543708567686,-0.002129301687433082,0.0,0.75537,0.13734000000000002,10.045440000000001
4363636320,21.65,-0.05859070298944965,-0.001064650843716541,0.0,0.7848,0.04905,9.888480000000001
4368686825,21.65,-0.05752605214573309,-0.003193952531149623,0.0,0.75537,-0.019620000000000002,9.70209
4373737330,21.65,-0.05326744877086694,0.002129301687433082,0.0,0.7651800000000001,-0.04905,9.623610000000001
4378787835,21.65,-0.049008845396000776,0.004258603374866164,0.0,0.73575,-0.009810000000000001,9.82962
4383838340,21.65,-0.033021629447732716,-0.002129301687433082,0.0,0.75537,0.04905,9.96696
4388888845,21.65,-0.02556907354171693,-0.004258603374866164,0.0,0.7848,0.12753,9.95715
4393939350,21.65,-0.03408628029144926,0.0,0.0,0.7651800000000001,0.11772,9.73152
4398989855,21.65,-0.046879543708567686,0.003193952531149623,0.0,0.7749900000000001,0.06867000000000001,9.67266
4404040360,21.65,-0.05220279792715039,0.007452555906015787,0.0,0.74556,0.019620000000000002,9.888480000000001
4409090865,21.65,-0.05539675045830002,0.003193952531149623,0.0,0.69651,-0.019620000000000002,10.08468
4414141370,21.65,-0.05007349623971732,-0.006387905062299246,0.0,0.72594,-0.05886,9.89829
4419191875,21.65,-0.031956978604016174,-0.007452555906015787,0.0,0.75537,0.019620000000000002,9.66285
4424242380,21.65,-0.03089232776029963,-0.005323254218582705,0.0,0.7848,0.08829,9.6138
4429292885,21.65,-0.03515093113516579,0.001064650843716541,0.0,0.8142300000000001,0.04905,9.85905
4434343390,21.65,-0.03834488366631542,0.002129301687433082,0.0,0.7749900000000001,0.0981,10.08468
4439393895,21.65,-0.04153883619746504,0.003193952531149623,0.0,0.7651800000000001,0.04905,9.85905
4444444400,21.65,-0.04581489286485115,0.005323254218582705,0.0,0.73575,0.009810000000000001,9.69228
4449494905,21.65,-0.04366813788489812,0.002129301687433082,0.0,0.72594,0.04905,9.6138
4454545410,21.65,-0.03728023282259888,-0.002129301687433082,0.0,0.71613,0.10791,9.81
4459595915,21.65,-0.04366813788489812,-0.003193952531149623,0.0,0.71613,0.04905,10.05525
4464646420,21.65,-0.05220279792715039,-0.00958185759344887,0.0,0.7848,0.0,9.888480000000001
4469696925,21.65,-0.054332099614583476,-0.002129301687433082,0.0,0.80442,-0.04905,9.72171
4474747430,21.65,-0.05113814708343386,0.003193952531149623,0.0,0.80442,-0.0981,9.74133
4479797935,21.65,-0.04366813788489812,0.006387905062299246,0.0,0.79461,-0.05886,9.86886
4484848440,21.65,-0.031956978604016174,0.005323254218582705,0.0,0.72594,0.02943,9.97677
4489898945,21.65,-0.024504422698000388,-0.005323254218582705,0.0,0.73575,0.06867000000000001,9.82962
4494949450,21.65,-0.033021629447732716,-0.002129301687433082,0.0,0.7651800000000001,0.07848000000000001,9.7119
4499999955,21.65,-0.04260348704118158,0.0,0.0,0.7848,0.05886,9.751140000000001
4505050460,21.65,-0.05113814708343386,0.003193952531149623,0.0,0.80442,0.0,9.819809999999999
4510100965,21.65,-0.05539675045830002,0.006387905062299246,0.0,0.74556,-0.04905,10.01601
4515151470,21.65,-0.04794419455228423,-0.002129301687433082,0.0,0.71613,-0.02943,9.888480000000001
4520201975,21.65,-0.03621558197888234,-0.007452555906015787,0.0,0.72594,0.019620000000000002,9.64323
4525252480,21.65,-0.03408628029144926,-0.004258603374866164,0.0,0.7749900000000001,0.04905,9.60399
4530302985,21.65,-0.03834488366631542,-0.002129301687433082,0.0,0.79461,0.05886,9.80019
4535353490,21.65,-0.04581489286485115,0.008517206749732328,0.0,0.8142300000000001,0.039240000000000004,10.03563
4540403995,21.65,-0.05326744877086694,0.006387905062299246,0.0,0.7651800000000001,-0.039240000000000004,9.91791
4545454500,21.65,-0.05326744877086694,0.001064650843716541,0.0,0.72594,-0.04905,9.79038
4550505005,21.65,-0.04794419455228423,0.0,0.0,0.72594,-0.02943,9.69228
4555555510,21.65,-0.0404741853537485,-0.002129301687433082,0.0,0.74556,-0.009810000000000001,9.74133
4560606015,21.65,-0.0404741853537485,-0.001064650843716541,0.0,0.75537,-0.009810000000000001,9.91791
4565656520,21.65,-0.04794419455228423,-0.004258603374866164,0.0,0.79461,-0.05886,9.97677
4570707025,21.65,-0.05859070298944965,-0.003193952531149623,0.0,0.80442,-0.12753,9.908100000000001
4575757530,21.65,-0.054332099614583476,0.003193952531149623,0.0,0.79461,-0.15696000000000002,9.74133
4580808035,21.65,-0.04366813788489812,0.003193952531149623,0.0,0.7651800000000001,-0.11772,9.819809999999999
4585858540,21.65,-0.03408628029144926,0.0,0.0,0.73575,-0.05886,9.82962
4590909045,21.65,-0.03408628029144926,0.0,0.0,0.73575,-0.019620000000000002,9.84924
4595959550,21.65,-0.028763026072866547,-0.004258603374866164,0.0,0.74556,0.04905,9.85905
4601010055,21.65,-0.039409534510031964,0.001064650843716541,0.0,0.79461,0.0,9.80019
4606060560,21.65,-0.05113814708343386,0.003193952531149623,0.0,0.74556,-0.019620000000000002,9.86886
4611111065,21.65,-0.04581489286485115,0.0,0.0,0.73575,-0.02943,9.85905
4616161570,21.65,-0.04260348704118158,-0.003193952531149623,0.0,0.73575,-0.039240000000000004,9.770760000000001
4621212075,21.65,-0.046879543708567686,-0.006387905062299246,0.0,0.73575,-0.039240000000000004,9.67266
4626262580,21.65,-0.039409534510031964,-0.003193952531149623,0.0,0.7749900000000001,-0.019620000000000002,9.74133
4631313085,21.65,-0.03728023282259888,0.004258603374866164,0.0,0.8240400000000001,0.019620000000000002,9.84924
4636363590,21.65,-0.04581489286485115,0.006387905062299246,0.0,0.75537,-0.009810000000000001,9.888480000000001
4641414095,21.65,-0.05113814708343386,0.006387905062299246,0.0,0.72594,0.0,9.82962
4646464600,21.65,-0.05220279792715039,0.002129301687433082,0.0,0.6768900000000001,-0.039240000000000004,9.770760000000001
4651515105,21.65,-0.05220279792715039,-0.002129301687433082,0.0,0.74556,-0.11772,9.7119
4656565610,21.65,-0.05220279792715039,-0.002129301687433082,0.0,0.7749900000000001,-0.14715,9.78057
4661616115,21.65,-0.04794419455228423,0.0,0.0,0.8142300000000001,-0.07848000000000001,9.97677
4666666620,21.65,-0.04260348704118158,-0.002129301687433082,0.0,0.74556,-0.10791,9.92772
4671717125,21.65,-0.05113814708343386,0.0,0.0,0.7749900000000001,-0.12753,9.82962
4676767630,21.65,-0.049008845396000776,0.001064650843716541,0.0,0.7651800000000001,-0.0981,9.751140000000001
4681818135,21.65,-0.04153883619746504,0.003193952531149623,0.0,0.7651800000000001,-0.10791,9.80019
4686868640,21.65,-0.03728023282259888,0.004258603374866164,0.0,0.7749900000000001,-0.06867000000000001,9.87867
4691919145,21.65,-0.03515093113516579,0.002129301687433082,0.0,0.71613,-0.02943,9.95715
4696969650,21.65,-0.03621558197888234,-0.003193952531149623,0.0,0.70632,-0.009810000000000001,9.819809999999999
4702020155,21.65,-0.04794419455228423,-0.002129301687433082,0.0,0.71613,-0.06867000000000001,9.770760000000001
4707070660,21.65,-0.05113814708343386,-0.003193952531149623,0.0,0.73575,-0.06867000000000001,9.819809999999999
4712121165,21.65,-0.04794419455228423,0.0,0.0,0.79461,-0.11772,9.83943
4717171670,21.65,-0.04794419455228423,0.001064650843716541,0.0,0.7651800000000001,-0.14715,9.85905
4722222175,21.65,-0.04153883619746504,0.0,0.0,0.75537,-0.08829,9.84924
4727272680,21.65,-0.03834488366631542,-0.002129301687433082,0.0,0.73575,-0.07848000000000001,9.79038
4732323185,21.65,-0.03408628029144926,0.0,0.0,0.7749900000000001,-0.05886,9.70209
4737373690,21.65,-0.0404741853537485,0.003193952531149623,0.0,0.75537,-0.02943,9.82962
4742424195,21.65,-0.04260348704118158,0.003193952531149623,0.0,0.71613,-0.02943,9.908100000000001
4747474700,21.65,-0.05220279792715039,0.0,0.0,0.70632,-0.10791,9.82962
4752525205,21.65,-0.05539675045830002,0.0,0.0,0.71613,-0.15696000000000002,9.81
4757575710,21.65,-0.05113814708343386,-0.00958185759344887,0.0,0.7848,-0.18639,9.81
4762626215,21.65,-0.04794419455228423,-0.002129301687433082,0.0,0.7848,-0.21582,9.751140000000001
4767676720,21.65,-0.04260348704118158,0.0,0.0,0.80442,-0.15696000000000002,9.82962
4772727225,21.65,-0.03408628029144926,0.0,0.0,0.80442,-0.07848000000000001,9.91791
4777777730,21.65,-0.03834488366631542,0.003193952531149623,0.0,0.75537,-0.08829,9.84924
4782828235,21.65,-0.04366813788489812,0.005323254218582705,0.0,0.73575,-0.0981,9.78057
4787878740,21.65,-0.04153883619746504,0.0,0.0,0.7651800000000001,-0.05886,9.78057
4792929245,21.65,-0.04366813788489812,0.006387905062299246,0.0,0.73575,-0.10791,9.770760000000001
4797979750,21.65,-0.04581489286485115,0.0,0.0,0.72594,-0.12753,9.85905
4803030255,21.65,-0.04153883619746504,-0.004258603374866164,0.0,0.74556,-0.0981,9.888480000000001
4808080760,21.65,-0.04260348704118158,-0.005323254218582705,0.0,0.7651800000000001,-0.12753,9.82962
4813131265,21.65,-0.05007349623971732,-0.005323254218582705,0.0,0.79461,-0.13734000000000002,9.7119
4818181770,21.65,-0.05007349623971732,0.0,0.0,0.8240400000000001,-0.15696000000000002,9.760950000000001
4823232275,21.65,-0.044732788728614664,0.003193952531149623,0.0,0.79461,-0.11772,9.86886
4828282780,21.65,-0.04581489286485115,0.002129301687433082,0.0,0.74556,-0.18639,9.85905
4833333285,21.65,-0.04260348704118158,0.003193952531149623,0.0,0.75537,-0.11772,9.85905
4838383790,21.65,-0.03834488366631542,0.0,0.0,0.73575,-0.07848000000000001,9.81
4843434295,21.65,-0.04260348704118158,0.0,0.0,0.7749900000000001,-0.11772,9.74133
4848484800,21.65,-0.05326744877086694,0.0,0.0,0.72594,-0.1962,9.87867
4853535305,21.65,-0.05539675045830002,-0.002129301687433082,0.0,0.7651800000000001,-0.20601000000000003,9.888480000000001
4858585810,21.65,-0.05326744877086694,0.0,0.0,0.7749900000000001,-0.26487,9.908100000000001
4863636315,21.65,-0.04366813788489812,-0.004258603374866164,0.0,0.7651800000000001,-0.20601000000000003,9.84924
4868686820,21.65,-0.03408628029144926,0.0,0.0,0.7749900000000001,-0.15696000000000002,9.770760000000001
4873737325,21.65,-0.02982767691658309,0.0,0.0,0.74556,-0.0981,9.770760000000001
4878787830,21.65,-0.03515093113516579,0.001064650843716541,0.0,0.75537,-0.07848000000000001,9.79038
4883838335,21.65,-0.044732788728614664,0.006387905062299246,0.0,0.7651800000000001,-0.10791,9.908100000000001
4888888840,21.65,-0.05007349623971732,0.003193952531149623,0.0,0.75537,-0.1962,9.83943
4893939345,21.65,-0.05220279792715039,0.003193952531149623,0.0,0.72594,-0.21582,9.81
4898989850,21.65,-0.04581489286485115,-0.001064650843716541,0.0,0.70632,-0.1962,9.80019
4904040355,21.65,-0.03834488366631542,-0.006387905062299246,0.0,0.74556,-0.16677000000000003,9.68247
4909090860,21.65,-0.04366813788489812,-0.006387905062299246,0.0,0.7749900000000001,-0.16677000000000003,9.751140000000001
4914141365,21.65,-0.0404741853537485,-0.003193952531149623,0.0,0.8142300000000001,-0.12753,9.87867
4919191870,21.65,-0.04366813788489812,0.005323254218582705,0.0,0.8142300000000001,-0.16677000000000003,9.87867
4924242375,21.65,-0.04581489286485115,0.00958185759344887,0.0,0.75537,-0.15696000000000002,9.819809999999999
4929292880,21.65,-0.04260348704118158,0.004258603374866164,0.0,0.70632,-0.13734000000000002,9.78057
4934343385,21.65,-0.044732788728614664,0.0,0.0,0.69651,-0.16677000000000003,9.72171
4939393890,21.65,-0.05220279792715039,-0.003193952531149623,0.0,0.70632,-0.20601000000000003,9.78057
4944444395,21.65,-0.05007349623971732,-0.003193952531149623,0.0,0.73575,-0.20601000000000003,9.908100000000001
4949494900,21.65,-0.05113814708343386,-0.001064650843716541,0.0,0.7749900000000001,-0.25506,9.89829
4954545405,21.65,-0.05539675045830002,0.002129301687433082,0.0,0.7749900000000001,-0.31392000000000003,9.84924
4959595910,21.65,-0.04581489286485115,-0.001064650843716541,0.0,0.7651800000000001,-0.26487,9.83943
4964646415,21.65,-0.03728023282259888,-0.001064650843716541,0.0,0.79461,-0.23544,9.80019
4969696920,21.65,-0.03728023282259888,0.0,0.0,0.7651800000000001,-0.20601000000000003,9.79038
4974747425,21.65,-0.03408628029144926,0.003193952531149623,0.0,0.7848,-0.13734000000000002,9.83943
4979797930,21.65,-0.03515093113516579,0.005323254218582705,0.0,0.74556,-0.0981,9.89829
4984848435,21.65,-0.04581489286485115,0.003193952531149623,0.0,0.72594,-0.21582,9.89829
4989898940,21.65,-0.05539675045830002,-0.002129301687433082,0.0,0.70632,-0.24525000000000002,9.82962
4994949445,21.65,-0.046879543708567686,-0.005323254218582705,0.0,0.74556,-0.23544,9.79038
4999999950,21.65,-0.04366813788489812,-0.004258603374866164,0.0,0.7651800000000001,-0.24525000000000002,9.73152
5005050455,21.65,-0.04260348704118158,-0.004258603374866164,0.0,0.79461,-0.22563,9.751140000000001
5010100960,21.65,-0.03408628029144926,-0.002129301687433082,0.0,0.79461,-0.1962,9.83943
5015151465,21.65,-0.03834488366631542,0.0,0.0,0.8240400000000001,-0.16677000000000003,9.84924
5020201970,21.65,-0.04794419455228423,0.005323254218582705,0.0,0.7749900000000001,-0.23544,9.82962
5025252475,21.65,-0.04260348704118158,0.004258603374866164,0.0,0.71613,-0.21582,9.78057
5030302980,21.65,-0.04260348704118158,0.001064650843716541,0.0,0.70632,-0.20601000000000003,9.760950000000001
5035353485,21.65,-0.04260348704118158,0.001064650843716541,0.0,0.71613,-0.23544,9.760950000000001
5040403990,21.65,-0.044732788728614664,-0.004258603374866164,0.0,0.74556,-0.22563,9.91791
5045454495,21.65,-0.04260348704118158,-0.005323254218582705,0.0,0.7651800000000001,-0.21582,9.89829
5050505000,21.65,-0.04581489286485115,-0.004258603374866164,0.0,0.79461,-0.23544,9.79038
5055555505,21.65,-0.049008845396000776,-0.001064650843716541,0.0,0.7749900000000001,-0.26487,9.78057
5060606010,21.65,-0.049008845396000776,0.0,0.0,0.7651800000000001,-0.26487,9.79038
5065656515,21.65,-0.044732788728614664,0.003193952531149623,0.0,0.7848,-0.30411,9.83943
5070707020,21.65,-0.04260348704118158,0.003193952531149623,0.0,0.73575,-0.25506,9.95715
5075757525,21.65,-0.03728023282259888,0.003193952531149623,0.0,0.73575,-0.20601000000000003,9.819809999999999
5080808030,21.65,-0.0404741853537485,0.003193952531149623,0.0,0.74556,-0.24525000000000002,9.73152
5085858535,21.65,-0.04260348704118158,0.0,0.0,0.73575,-0.26487,9.79038
5090909040,21.65,-0.03834488366631542,-0.002129301687433082,0.0,0.7848,-0.24525000000000002,9.85905
5095959545,21.65,-0.044732788728614664,0.0,0.0,0.75537,-0.27468000000000004,9.937529999999999
5101010050,21.65,-0.044732788728614664,-0.002129301687433082,0.0,0.7651800000000001,-0.2943,9.81
5106060555,21.65,-0.04153883619746504,-0.006387905062299246,0.0,0.7749900000000001,-0.21582,9.70209
5111111060,21.65,-0.04153883619746504,0.0,0.0,0.79461,-0.24525000000000002,9.66285
5116161565,21.65,-0.044732788728614664,0.006387905062299246,0.0,0.74556,-0.23544,9.85905
5121212070,21.65,-0.039409534510031964,0.004258603374866164,0.0,0.7749900000000001,-0.22563,10.006200000000002
5126262575,21.65,-0.04153883619746504,0.0,0.0,0.70632,-0.22563,9.84924
5131313080,21.65,-0.05113814708343386,0.0,0.0,0.72594,-0.25506,9.69228
5136363585,21.65,-0.054332099614583476,-0.001064650843716541,0.0,0.73575,-0.30411,9.751140000000001
5141414090,21.65,-0.05007349623971732,-0.001064650843716541,0.0,0.73575,-0.37278,9.86886
5146464595,21.65,-0.049008845396000776,-0.001064650843716541,0.0,0.79461,-0.36297,9.97677
5151515100,21.65,-0.03834488366631542,-0.005323254218582705,0.0,0.75537,-0.31392000000000003,9.91791
5156565605,21.65,-0.033021629447732716,-0.004258603374866164,0.0,0.7749900000000001,-0.24525000000000002,9.70209
5161616110,21.65,-0.033021629447732716,0.002129301687433082,0.0,0.7651800000000001,-0.26487,9.67266
5166666615,21.65,-0.04260348704118158,0.005323254218582705,0.0,0.7848,-0.30411,9.82962
5171717120,21.65,-0.04153883619746504,0.008517206749732328,0.0,0.7749900000000001,-0.26487,10.006200000000002
5176767625,21.65,-0.04366813788489812,0.005323254218582705,0.0,0.70632,-0.27468000000000004,9.96696
5181818130,21.65,-0.04581489286485115,-0.002129301687433082,0.0,0.6867000000000001,-0.34335000000000004,9.72171
5186868635,21.65,-0.039409534510031964,-0.007452555906015787,0.0,0.72594,-0.2943,9.633420000000001
5191919140,21.65,-0.033021629447732716,-0.005323254218582705,0.0,0.7651800000000001,-0.27468000000000004,9.70209
5196969645,21.65,-0.04260348704118158,-0.001064650843716541,0.0,0.80442,-0.27468000000000004,9.89829
5202020150,21.65,-0.0404741853537485,0.003193952531149623,0.0,0.79461,-0.23544,9.97677
5207070655,21.65,-0.03834488366631542,0.002129301687433082,0.0,0.75537,-0.23544,9.770760000000001
5212121160,21.65,-0.044732788728614664,0.008517206749732328,0.0,0.7749900000000001,-0.27468000000000004,9.60399
5217171665,21.65,-0.046879543708567686,0.007452555906015787,0.0,0.70632,-0.26487,9.770760000000001
5222222170,21.65,-0.04153883619746504,0.0,0.0,0.70632,-0.25506,9.888480000000001
5227272675,21.65,-0.044732788728614664,-0.004258603374866164,0.0,0.72594,-0.28449,9.89829
5232323180,21.65,-0.05007349623971732,-0.006387905062299246,0.0,0.7651800000000001,-0.36297,9.888480000000001
5237373685,21.65,-0.054332099614583476,-0.003193952531149623,0.0,0.75537,-0.41202000000000005,9.751140000000001
5242424190,21.65,-0.05007349623971732,0.0,0.0,0.79461,-0.44145,9.78057
5247474695,21.65,-0.046879543708567686,0.004258603374866164,0.0,0.79461,-0.44145,9.85905
5252525200,21.65,-0.03515093113516579,0.002129301687433082,0.0,0.74556,-0.35316,9.937529999999999
5257575705,21.65,-0.024504422698000388,0.001064650843716541,0.0,0.73575,-0.26487,9.82962
5262626210,21.65,-0.02982767691658309,0.0,0.0,0.75537,-0.27468000000000004,9.78057
5267676715,21.65,-0.0404741853537485,0.003193952531149623,0.0,0.7651800000000001,-0.2943,9.82962
5272727220,21.65,-0.049008845396000776,0.002129301687433082,0.0,0.73575,-0.32373,9.85905
5277777725,21.65,-0.05220279792715039,0.0,0.0,0.73575,-0.41202000000000005,9.908100000000001
5282828230,21.65,-0.044732788728614664,-0.004258603374866164,0.0,0.75537,-0.40221,9.85905
5287878735,21.65,-0.03728023282259888,-0.004258603374866164,0.0,0.75537,-0.35316,9.73152
5292929240,21.65,-0.028763026072866547,-0.001064650843716541,0.0,0.7651800000000001,-0.28449,9.72171
5297979745,21.65,-0.02769837522915001,-0.002129301687433082,0.0,0.7749900000000001,-0.24525000000000002,9.80019
5303030250,21.65,-0.03515093113516579,0.0,0.0,0.7651800000000001,-0.24525000000000002,9.80019
5308080755,21.65,-0.04581489286485115,0.004258603374866164,0.0,0.74556,-0.2943,9.83943
5313131260,21.65,-0.049008845396000776,0.004258603374866164,0.0,0.75537,-0.34335000000000004,9.819809999999999
5318181765,21.65,-0.04794419455228423,0.003193952531149623,0.0,0.72594,-0.34335000000000004,9.82962
5323232270,21.65,-0.0404741853537485,0.0,0.0,0.6867000000000001,-0.30411,9.78057
5328282775,21.65,-0.0404741853537485,-0.002129301687433082,0.0,0.71613,-0.33354000000000006,9.73152
5333333280,21.65,-0.04260348704118158,-0.005323254218582705,0.0,0.7749900000000001,-0.36297,9.819809999999999
5338383785,21.65,-0.044732788728614664,-0.006387905062299246,0.0,0.80442,-0.3924,9.87867
5343434290,21.65,-0.04794419455228423,0.001064650843716541,0.0,0.8142300000000001,-0.46107000000000004,9.92772
5348484795,21.65,-0.05007349623971732,0.004258603374866164,0.0,0.7651800000000001,-0.47088,9.888480000000001
5353535300,21.65,-0.0404741853537485,0.001064650843716541,0.0,0.72594,-0.3924,9.79038
5358585805,21.65,-0.028763026072866547,-0.003193952531149623,0.0,0.75537,-0.33354000000000006,9.73152
5363636310,21.65,-0.031956978604016174,0.0,0.0,0.75537,-0.36297,9.83943
5368686815,21.65,-0.03728023282259888,-0.002129301687433082,0.0,0.7848,-0.36297,9.92772
5373737320,21.65,-0.03834488366631542,0.0,0.0,0.7749900000000001,-0.34335000000000004,9.89829
5378787825,21.65,-0.044732788728614664,0.004258603374866164,0.0,0.73575,-0.41202000000000005,9.84924
5383838330,21.65,-0.049008845396000776,0.0,0.0,0.73575,-0.47088,9.81
5388888835,21.65,-0.04153883619746504,-0.005323254218582705,0.0,0.71613,-0.42183,9.74133
5393939340,21.65,-0.028763026072866547,-0.006387905062299246,0.0,0.7749900000000001,-0.34335000000000004,9.751140000000001
5398989845,21.65,-0.028763026072866547,0.0,0.0,0.7848,-0.32373,9.86886
5404040350,21.65,-0.03089232776029963,0.003193952531149623,0.0,0.7848,-0.33354000000000006,9.888480000000001
5409090855,21.65,-0.03515093113516579,0.002129301687433082,0.0,0.7651800000000001,-0.31392000000000003,9.81
5414141360,21.65,-0.0404741853537485,0.004258603374866164,0.0,0.74556,-0.34335000000000004,9.760950000000001
5419191865,21.65,-0.049008845396000776,0.002129301687433082,0.0,0.71613,-0.41202000000000005,9.81
5424242370,21.65,-0.04260348704118158,0.0,0.0,0.72594,-0.38259000000000004,9.83943
5429292875,21.65,-0.03089232776029963,-0.004258603374866164,0.0,0.72594,-0.31392000000000003,9.81
5434343380,21.65,-0.03621558197888234,-0.004258603374866164,0.0,0.75537,-0.32373,9.819809999999999
5439393885,21.65,-0.05007349623971732,-0.002129301687433082,0.0,0.75537,-0.44145,9.81
5444444390,21.65,-0.05220279792715039,-0.004258603374866164,0.0,0.7749900000000001,-0.51993,9.73152
5449494895,21.65,-0.04581489286485115,0.005323254218582705,0.0,0.8240400000000001,-0.52974,9.83943
5454545400,21.65,-0.03834488366631542,0.011711159280881954,0.0,0.75537,-0.48069000000000006,9.98658
5459595905,21.65,-0.024504422698000388,0.002129301687433082,0.0,0.6867000000000001,-0.37278,9.85905
5464646410,21.65,-0.01918116847941768,-0.005323254218582705,0.0,0.70632,-0.27468000000000004,9.623610000000001
5469696915,21.65,-0.03089232776029963,-0.008517206749732328,0.0,0.75537,-0.30411,9.751140000000001
5474747420,21.65,-0.044732788728614664,0.0,0.0,0.7848,-0.45126,9.908100000000001
5479797925,21.65,-0.05113814708343386,0.004258603374866164,0.0,0.80442,-0.44145,10.045440000000001
5484848430,21.65,-0.04581489286485115,0.001064650843716541,0.0,0.73575,-0.45126,9.937529999999999
5489898935,21.65,-0.04581489286485115,0.002129301687433082,0.0,0.72594,-0.5395500000000001,9.67266
5494949440,21.65,-0.04366813788489812,-0.004258603374866164,0.0,0.70632,-0.5493600000000001,9.67266
5499999945,21.65,-0.02556907354171693,-0.005323254218582705,0.0,0.75537,-0.41202000000000005,9.73152
5505050450,21.65,-0.01918116847941768,0.001064650843716541,0.0,0.8142300000000001,-0.33354000000000006,9.94734
5510100955,21.65,-0.02663372438543347,0.002129301687433082,0.0,0.7848,-0.33354000000000006,9.97677
5515151460,21.65,-0.03728023282259888,0.0,0.0,0.72594,-0.36297,9.81
5520201965,21.65,-0.04260348704118158,-0.001064650843716541,0.0,0.75537,-0.41202000000000005,9.60399
5525252470,21.65,-0.04794419455228423,0.004258603374866164,0.0,0.75537,-0.48069000000000006,9.73152
5530302975,21.65,-0.04153883619746504,0.004258603374866164,0.0,0.73575,-0.46107000000000004,9.95715
5535353480,21.65,-0.028763026072866547,-0.003193952531149623,0.0,0.72594,-0.37278,9.91791
5540403985,21.65,-0.028763026072866547,-0.005323254218582705,0.0,0.75537,-0.34335000000000004,9.72171
5545454490,21.65,-0.04581489286485115,-0.001064650843716541,0.0,0.7651800000000001,-0.47088,9.72171
5550504995,21.65,-0.05646140130201656,-0.001064650843716541,0.0,0.80442,-0.56898,9.819809999999999
5555555500,21.65,-0.04366813788489812,0.003193952531149623,0.0,0.7651800000000001,-0.52974,9.96696
5560606005,21.65,-0.033021629447732716,0.003193952531149623,0.0,0.75537,-0.49050000000000005,9.89829
5565656510,21.65,-0.028763026072866547,0.0,0.0,0.71613,-0.46107000000000004,9.760950000000001
5570707015,21.65,-0.02556907354171693,-0.006387905062299246,0.0,0.73575,-0.36297,9.69228
5575757520,21.65,-0.021310470166850764,-0.004258603374866164,0.0,0.79461,-0.34335000000000004,9.78057
5580808025,21.65,-0.03728023282259888,0.004258603374866164,0.0,0.7848,-0.41202000000000005,9.95715
5585858530,21.65,-0.049008845396000776,0.006387905062299246,0.0,0.74556,-0.50031,10.03563
5590909035,21.65,-0.04581489286485115,0.002129301687433082,0.0,0.71613,-0.52974,9.74133
5595959540,21.65,-0.044732788728614664,-0.003193952531149623,0.0,0.7651800000000001,-0.5886,9.65304
5601010045,21.65,-0.03621558197888234,0.002129301687433082,0.0,0.70632,-0.56898,9.81
5606060550,21.65,-0.023439771854283843,-0.007452555906015787,0.0,0.73575,-0.45126,9.91791
5611111055,21.65,-0.0170518667919846,-0.003193952531149623,0.0,0.79461,-0.35316,9.770760000000001
5616161560,21.65,-0.024504422698000388,0.0,0.0,0.8142300000000001,-0.34335000000000004,9.72171
5621212065,21.65,-0.03621558197888234,0.007452555906015787,0.0,0.80442,-0.45126,9.83943
5626262570,21.65,-0.044732788728614664,0.007452555906015787,0.0,0.73575,-0.46107000000000004,9.89829
5631313075,21.65,-0.03728023282259888,0.0,0.0,0.70632,-0.45126,9.72171
5636363580,21.65,-0.03621558197888234,0.002129301687433082,0.0,0.75537,-0.46107000000000004,9.66285
5641414085,21.65,-0.03728023282259888,0.0,0.0,0.71613,-0.44145,9.819809999999999
5646464590,21.65,-0.02982767691658309,-0.005323254218582705,0.0,0.70632,-0.40221,9.81
5651515095,21.65,-0.03408628029144926,-0.004258603374866164,0.0,0.7848,-0.44145,9.79038
5656565600,21.65,-0.04366813788489812,0.005323254218582705,0.0,0.79461,-0.5395500000000001,9.85905
5661616105,21.65,-0.04260348704118158,0.001064650843716541,0.0,0.73575,-0.5493600000000001,9.91791
5666666610,21.65,-0.03515093113516579,-0.004258603374866164,0.0,0.69651,-0.5591700000000001,9.70209
5671717115,21.65,-0.03515093113516579,-0.002129301687433082,0.0,0.7749900000000001,-0.5591700000000001,9.64323
5676767620,21.65,-0.033021629447732716,0.002129301687433082,0.0,0.80442,-0.51993,9.97677
5681818125,21.65,-0.02556907354171693,0.0,0.0,0.7651800000000001,-0.45126,10.05525
5686868630,21.65,-0.02556907354171693,-0.003193952531149623,0.0,0.75537,-0.43164,9.80019
5691919135,21.65,-0.03515093113516579,0.0,0.0,0.7749900000000001,-0.52974,9.623610000000001
5696969640,21.65,-0.04581489286485115,0.00958185759344887,0.0,0.7749900000000001,-0.60822,9.83943
5702020145,21.65,-0.03834488366631542,0.005323254218582705,0.0,0.72594,-0.5591700000000001,10.074869999999999
5707070650,21.65,-0.022375121010567305,-0.004258603374866164,0.0,0.73575,-0.47088,9.86886
5712121155,21.65,-0.021310470166850764,-0.004258603374866164,0.0,0.74556,-0.44145,9.633420000000001
5717171660,21.65,-0.02556907354171693,0.0,0.0,0.72594,-0.42183,9.770760000000001
5722222165,21.65,-0.031956978604016174,-0.004258603374866164,0.0,0.7848,-0.45126,9.80019
5727272670,21.65,-0.03621558197888234,-0.002129301687433082,0.0,0.7848,-0.52974,9.87867
5732323175,21.65,-0.03834488366631542,0.003193952531149623,0.0,0.79461,-0.5493600000000001,9.888480000000001
5737373680,21.65,-0.031956978604016174,0.005323254218582705,0.0,0.72594,-0.49050000000000005,9.770760000000001
5742424185,21.65,-0.02982767691658309,0.0,0.0,0.69651,-0.45126,9.69228
5747474690,21.65,-0.031956978604016174,-0.003193952531149623,0.0,0.73575,-0.47088,9.68247
5752525195,21.65,-0.03408628029144926,-0.003193952531149623,0.0,0.7651800000000001,-0.48069000000000006,9.770760000000001
5757575700,21.65,-0.03728023282259888,0.004258603374866164,0.0,0.74556,-0.51012,9.94734
5762626205,21.65,-0.03728023282259888,0.0,0.0,0.75537,-0.49050000000000005,9.94734
5767676710,21.65,-0.03515093113516579,0.002129301687433082,0.0,0.74556,-0.49050000000000005,9.73152
5772727215,21.65,-0.03621558197888234,-0.001064650843716541,0.0,0.75537,-0.5395500000000001,9.633420000000001
5777777720,21.65,-0.03834488366631542,0.0,0.0,0.7749900000000001,-0.5395500000000001,9.751140000000001
5782828225,21.65,-0.02982767691658309,0.0,0.0,0.7651800000000001,-0.52974,10.006200000000002
5787878730,21.65,-0.028763026072866547,0.0,0.0,0.7651800000000001,-0.47088,9.98658
5792929235,21.65,-0.03621558197888234,0.001064650843716541,0.0,0.73575,-0.5493600000000001,9.770760000000001
5797979740,21.65,-0.0404741853537485,0.0,0.0,0.72594,-0.63765,9.70209
5803030245,21.65,-0.04153883619746504,0.0,0.0,0.74556,-0.63765,9.87867
5808080750,21.65,-0.02982767691658309,-0.003193952531149623,0.0,0.73575,-0.5886,9.99639
5813131255,21.65,-0.021310470166850764,-0.001064650843716541,0.0,0.7651800000000001,-0.50031,9.819809999999999
5818181760,21.65,-0.015987215948268057,-0.005323254218582705,0.0,0.7651800000000001,-0.49050000000000005,9.73152
5823232265,21.65,-0.021310470166850764,0.001064650843716541,0.0,0.79461,-0.47088,9.79038
5828282770,21.65,-0.033021629447732716,0.003193952531149623,0.0,0.75537,-0.51012,9.89829
5833333275,21.65,-0.03621558197888234,0.005323254218582705,0.0,0.74556,-0.56898,9.92772
5838383780,21.65,-0.03621558197888234,0.002129301687433082,0.0,0.72594,-0.56898,9.81
5843434285,21.65,-0.03089232776029963,-0.001064650843716541,0.0,0.74556,-0.59841,9.69228
5848484790,21.65,-0.024504422698000388,0.0,0.0,0.75537,-0.56898,9.78057
5853535295,21.65,-0.01811651763570114,-0.004258603374866164,0.0,0.71613,-0.50031,9.86886
5858585800,21.65,-0.01918116847941768,-0.006387905062299246,0.0,0.79461,-0.48069000000000006,9.770760000000001
5863636305,21.65,-0.028763026072866547,0.0,0.0,0.7749900000000001,-0.47088,9.80019
5868686810,21.65,-0.031956978604016174,0.002129301687433082,0.0,0.7848,-0.52974,9.751140000000001
5873737315,21.65,-0.028763026072866547,0.01064650843716541,0.0,0.73575,-0.50031,9.83943
5878787820,21.65,-0.02769837522915001,0.001064650843716541,0.0,0.70632,-0.46107000000000004,9.87867
5883838325,21.65,-0.031956978604016174,-0.002129301687433082,0.0,0.72594,-0.5591700000000001,9.64323
5888888830,21.65,-0.03621558197888234,-0.001064650843716541,0.0,0.7848,-0.59841,9.60399
5893939335,21.65,-0.03089232776029963,0.0,0.0,0.80442,-0.5493600000000001,9.86886
5898989840,21.65,-0.023439771854283843,0.005323254218582705,0.0,0.74556,-0.48069000000000006,10.03563
5904040345,21.65,-0.02982767691658309,0.002129301687433082,0.0,0.70632,-0.50031,9.83943
5909090850,21.65,-0.03728023282259888,-0.004258603374866164,0.0,0.71613,-0.59841,9.55494
5914141355,21.65,-0.0404741853537485,-0.002129301687433082,0.0,0.79461,-0.6768900000000001,9.70209
5919191860,21.65,-0.03408628029144926,0.005323254218582705,0.0,0.8142300000000001,-0.60822,10.045440000000001
5924242365,21.65,-0.024504422698000388,0.002129301687433082,0.0,0.7848,-0.5395500000000001,10.12392
5929292870,21.65,-0.02663372438543347,-0.004258603374866164,0.0,0.71613,-0.56898,9.80019
5934343375,21.65,-0.039409534510031964,-0.005323254218582705,0.0,0.7651800000000001,-0.6867000000000001,9.57456
5939393880,21.65,-0.03621558197888234,0.002129301687433082,0.0,0.8240400000000001,-0.73575,9.80019
5944444385,21.65,-0.021310470166850764,0.004258603374866164,0.0,0.75537,-0.64746,10.163160000000001
5949494890,21.65,-0.00958185759344887,0.0,0.0,0.75537,-0.49050000000000005,10.01601
5954545395,21.65,-0.013840460968315033,-0.004258603374866164,0.0,0.6670800000000001,-0.50031,9.623610000000001
5959595900,21.65,-0.020245819323134222,-0.003193952531149623,0.0,0.7848,-0.5493600000000001,9.52551
5964646405,21.65,-0.02769837522915001,0.001064650843716541,0.0,0.79461,-0.59841,9.80019
5969696910,21.65,-0.023439771854283843,0.008517206749732328,0.0,0.7749900000000001,-0.5493600000000001,10.182780000000001
5974747415,21.65,-0.0170518667919846,0.003193952531149623,0.0,0.73575,-0.46107000000000004,10.01601
5979797920,21.65,-0.02982767691658309,-0.001064650843716541,0.0,0.65727,-0.5493600000000001,9.47646
5984848425,21.65,-0.03621558197888234,-0.002129301687433082,0.0,0.73575,-0.69651,9.4176
5989898930,21.65,-0.03089232776029963,-0.002129301687433082,0.0,0.79461,-0.70632,9.83943
5994949435,21.65,-0.015987215948268057,0.002129301687433082,0.0,0.8240400000000001,-0.52974,10.19259
5999999940,21.65,-0.003193952531149623,-0.001064650843716541,0.0,0.71613,-0.36297,10.025820000000001
6005050445,21.65,-0.01811651763570114,-0.005323254218582705,0.0,0.73575,-0.45126,9.39798
6010100950,21.65,-0.03515093113516579,-0.003193952531149623,0.0,0.7749900000000001,-0.59841,9.34893
6015151455,21.65,-0.04581489286485115,0.004258603374866164,0.0,0.8240400000000001,-0.6867000000000001,9.819809999999999
6020201960,21.65,-0.031956978604016174,0.013840460968315033,0.0,0.80442,-0.56898,10.34955
6025252465,21.65,-0.014905111812031574,0.005323254218582705,0.0,0.6670800000000001,-0.46107000000000004,10.06506
6030302970,21.65,-0.02663372438543347,-0.007452555906015787,0.0,0.6180300000000001,-0.51012,9.30969
6035353475,21.65,-0.04366813788489812,-0.01064650843716541,0.0,0.73575,-0.73575,9.28026
6040403980,21.65,-0.05007349623971732,0.0,0.0,0.8338500000000001,-0.87309,9.81
6045454485,21.65,-0.02769837522915001,0.006387905062299246,0.0,0.8240400000000001,-0.6278400000000001,10.52613
6050504990,21.65,0.001064650843716541,-0.002129301687433082,0.0,0.7651800000000001,-0.43164,10.1043
6055555495,21.65,-0.01064650843716541,-0.006387905062299246,0.0,0.60822,-0.43164,9.28026
6060606000,21.65,-0.02982767691658309,-0.005323254218582705,0.0,0.7749900000000001,-0.59841,9.34893
6065656505,21.65,-0.04366813788489812,0.0,0.0,0.86328,-0.75537,9.81
6070707010,21.65,-0.033021629447732716,0.015987215948268057,0.0,0.8240400000000001,-0.6768900000000001,10.604610000000001
6075757515,21.65,-0.014905111812031574,0.006387905062299246,0.0,0.72594,-0.51993,10.31031
6080808020,21.65,-0.021310470166850764,-0.002129301687433082,0.0,0.6180300000000001,-0.59841,9.43722
6085858525,21.65,-0.03834488366631542,-0.012775810124598492,0.0,0.70632,-0.80442,9.29988
6090909030,21.65,-0.03834488366631542,-0.008517206749732328,0.0,0.8240400000000001,-0.90252,9.80019
6095959535,21.65,-0.011711159280881954,0.005323254218582705,0.0,0.86328,-0.71613,10.437840000000001
6101010040,21.65,0.01064650843716541,0.002129301687433082,0.0,0.7749900000000001,-0.41202000000000005,10.23183
6106060545,21.65,0.005323254218582705,0.0,0.0,0.6768900000000001,-0.38259000000000004,9.55494
6111111050,21.65,-0.01918116847941768,-0.001064650843716541,0.0,0.72594,-0.50031,9.3195
6116161555,21.65,-0.031956978604016174,-0.001064650843716541,0.0,0.7749900000000001,-0.72594,9.58437
6121212060,21.65,-0.03408628029144926,0.006387905062299246,0.0,0.8142300000000001,-0.70632,10.182780000000001
6126262565,21.65,-0.012775810124598492,0.005323254218582705,0.0,0.72594,-0.56898,10.17297
6131313070,21.65,-0.006387905062299246,0.002129301687433082,0.0,0.71613,-0.51012,9.58437
6136363575,21.65,-0.015987215948268057,-0.005323254218582705,0.0,0.6867000000000001,-0.51012,9.39798
6141414080,21.65,-0.023439771854283843,-0.006387905062299246,0.0,0.75537,-0.5886,9.56475
6146464585,21.65,-0.028763026072866547,0.0,0.0,0.80442,-0.6278400000000001,9.96696
6151515090,21.65,-0.024504422698000388,0.0,0.0,0.7749900000000001,-0.60822,10.025820000000001
6156565595,21.65,-0.02556907354171693,0.004258603374866164,0.0,0.7651800000000001,-0.60822,9.68247
6161616100,21.65,-0.023439771854283843,0.004258603374866164,0.0,0.6867000000000001,-0.5886,9.65304
6166666605,21.65,-0.020245819323134222,-0.001064650843716541,0.0,0.72594,-0.5886,9.70209
6171717110,21.65,-0.01918116847941768,-0.003193952531149623,0.0,0.73575,-0.5591700000000001,9.819809999999999
6176767615,21.65,-0.01811651763570114,-0.004258603374866164,0.0,0.7651800000000001,-0.5493600000000001,9.84924
6181818120,21.65,-0.02663372438543347,0.0,0.0,0.80442,-0.64746,9.74133
6186868625,21.65,-0.03728023282259888,0.006387905062299246,0.0,0.7651800000000001,-0.74556,9.888480000000001
6191919130,21.65,-0.03408628029144926,0.002129301687433082,0.0,0.75537,-0.7749900000000001,9.98658
6196969635,21.65,-0.022375121010567305,0.0,0.0,0.71613,-0.6867000000000001,9.87867
6202020140,21.65,-0.01064650843716541,-0.005323254218582705,0.0,0.75537,-0.60822,9.66285
6207070645,21.65,-0.008517206749732328,-0.003193952531149623,0.0,0.7651800000000001,-0.56898,9.633420000000001
6212121150,21.65,-0.015987215948268057,0.0,0.0,0.80442,-0.63765,9.94734
6217171655,21.65,-0.02769837522915001,0.002129301687433082,0.0,0.79461,-0.6867000000000001,10.17297
6222222160,21.65,-0.031956978604016174,0.003193952531149623,0.0,0.7651800000000001,-0.73575,10.006200000000002
6227272665,21.65,-0.02556907354171693,0.006387905062299246,0.0,0.72594,-0.72594,9.623610000000001
6232323170,21.65,-0.014905111812031574,0.0,0.0,0.70632,-0.6768900000000001,9.56475
6237373675,21.65,0.0,0.0,0.0,0.72594,-0.59841,9.81
6242424180,21.65,0.0,-0.006387905062299246,0.0,0.7848,-0.49050000000000005,10.01601
6247474685,21.65,-0.008517206749732328,-0.005323254218582705,0.0,0.8142300000000001,-0.51993,9.92772
6252525190,21.65,-0.02982767691658309,0.0,0.0,0.79461,-0.6670800000000001,9.760950000000001
6257575695,21.65,-0.0404741853537485,0.011711159280881954,0.0,0.7651800000000001,-0.8240400000000001,9.7119
6262626200,21.65,-0.02556907354171693,0.008517206749732328,0.0,0.6768900000000001,-0.7848,9.82962
6267676705,21.65,-0.005323254218582705,-0.001064650843716541,0.0,0.65727,-0.60822,9.87867
6272727210,21.65,0.005323254218582705,-0.013840460968315033,0.0,0.69651,-0.48069000000000006,9.7119
6277777715,21.65,0.0,-0.013840460968315033,0.0,0.80442,-0.44145,9.633420000000001
6282828220,21.65,-0.01811651763570114,-0.001064650843716541,0.0,0.87309,-0.60822,9.78057
6287878725,21.65,-0.03621558197888234,0.007452555906015787,0.0,0.8142300000000001,-0.7651800000000001,10.03563
6292929230,21.65,-0.04260348704118158,0.01064650843716541,0.0,0.7749900000000001,-0.8240400000000001,10.03563
6297979735,21.65,-0.024504422698000388,0.004258603374866164,0.0,0.69651,-0.79461,9.67266
6303030240,21.65,-0.006387905062299246,0.0,0.0,0.69651,-0.65727,9.46665
6308080745,21.65,0.00958185759344887,-0.005323254218582705,0.0,0.75537,-0.52974,9.60399
6313131250,21.65,0.011711159280881954,-0.002129301687433082,0.0,0.79461,-0.44145,9.92772
6318181755,21.65,-0.005323254218582705,0.001064650843716541,0.0,0.8240400000000001,-0.41202000000000005,10.08468
6323232260,21.65,-0.03408628029144926,0.0,0.0,0.7651800000000001,-0.60822,9.95715
6328282765,21.65,-0.05539675045830002,0.005323254218582705,0.0,0.73575,-0.87309,9.67266
6333333270,21.65,-0.04260348704118158,0.002129301687433082,0.0,0.71613,-0.95157,9.633420000000001
6338383775,21.65,-0.013840460968315033,-0.004258603374866164,0.0,0.69651,-0.8338500000000001,9.7119
6343434280,21.65,0.012775810124598492,-0.01064650843716541,0.0,0.74556,-0.5886,9.84924
6348484785,21.65,0.020245819323134222,-0.011711159280881954,0.0,0.7848,-0.40221,9.89829
6353535290,21.65,0.004258603374866164,-0.004258603374866164,0.0,0.85347,-0.3924,9.84924
6358585795,21.65,-0.022375121010567305,0.005323254218582705,0.0,0.86328,-0.5591700000000001,9.84924
6363636300,21.65,-0.04366813788489812,0.012775810124598492,0.0,0.7848,-0.79461,9.85905
6368686805,21.65,-0.046879543708567686,0.011711159280881954,0.0,0.6670800000000001,-0.9221400000000001,9.888480000000001
6373737310,21.65,-0.02663372438543347,0.0,0.0,0.63765,-0.8829,9.78057
6378787815,21.65,-0.002129301687433082,-0.013840460968315033,0.0,0.71613,-0.73575,9.70209
6383838320,21.65,0.012775810124598492,-0.008517206749732328,0.0,0.80442,-0.57879,9.72171
6388888825,21.65,0.012775810124598492,-0.004258603374866164,0.0,0.8240400000000001,-0.51993,9.80019
6393939330,21.65,-0.005323254218582705,0.004258603374866164,0.0,0.80442,-0.5395500000000001,9.908100000000001
6398989835,21.65,-0.023439771854283843,0.01064650843716541,0.0,0.79461,-0.63765,9.937529999999999
6404040340,21.65,-0.02982767691658309,0.006387905062299246,0.0,0.73575,-0.69651,9.81
6409090845,21.65,-0.021310470166850764,0.004258603374866164,0.0,0.70632,-0.6867000000000001,9.70209
6414141350,21.65,-0.012775810124598492,-0.001064650843716541,0.0,0.65727,-0.64746,9.633420000000001
6419191855,21.65,-0.005323254218582705,-0.007452555906015787,0.0,0.73575,-0.65727,9.67266
6424242360,21.65,-0.012775810124598492,-0.003193952531149623,0.0,0.79461,-0.6867000000000001,9.83943
6429292865,21.65,-0.0170518667919846,-0.002129301687433082,0.0,0.8142300000000001,-0.69651,9.96696
6434343370,21.65,-0.013840460968315033,0.002129301687433082,0.0,0.79461,-0.6670800000000001,9.86886
6439393875,21.65,-0.008517206749732328,0.004258603374866164,0.0,0.74556,-0.5591700000000001,9.66285
6444444380,21.65,-0.001064650843716541,0.001064650843716541,0.0,0.6670800000000001,-0.5395500000000001,9.56475
6449494885,21.65,-0.008517206749732328,-0.002129301687433082,0.0,0.73575,-0.51012,9.67266
6454545390,21.65,-0.013840460968315033,-0.003193952531149623,0.0,0.75537,-0.59841,9.937529999999999
6459595895,21.65,-0.02663372438543347,0.0,0.0,0.79461,-0.6867000000000001,10.01601
6464646400,21.65,-0.03834488366631542,0.003193952531149623,0.0,0.75537,-0.8142300000000001,9.85905
6469696905,21.65,-0.03728023282259888,0.003193952531149623,0.0,0.69651,-0.9319500000000001,9.6138
6474747410,21.65,-0.023439771854283843,0.0,0.0,0.69651,-0.89271,9.64323
6479797915,21.65,0.0,-0.006387905062299246,0.0,0.72594,-0.71613,9.82962
6484848420,21.65,0.01811651763570114,-0.00958185759344887,0.0,0.7848,-0.45126,9.96696
6489898925,21.65,0.015987215948268057,-0.004258603374866164,0.0,0.8240400000000001,-0.34335000000000004,9.83943
6494949430,21.65,-0.007452555906015787,0.001064650843716541,0.0,0.8142300000000001,-0.41202000000000005,9.73152
6499999935,21.65,-0.0404741853537485,0.007452555906015787,0.0,0.7651800000000001,-0.73575,9.72171
6505050440,21.65,-0.05965535383316618,0.01064650843716541,0.0,0.7749900000000001,-1.01043,9.94734
6510100945,21.65,-0.0404741853537485,0.007452555906015787,0.0,0.6768900000000001,-0.9908100000000001,10.025820000000001
6515151450,21.65,-0.007452555906015787,-0.004258603374866164,0.0,0.6768900000000001,-0.8142300000000001,9.70209
6520201955,21.65,0.008517206749732328,-0.007452555906015787,0.0,0.6670800000000001,-0.65727,9.47646
6525252460,21.65,0.01064650843716541,-0.01064650843716541,0.0,0.75537,-0.57879,9.64323
6530302965,21.65,0.004258603374866164,-0.00958185759344887,0.0,0.85347,-0.5395500000000001,10.025820000000001
6535353470,21.65,-0.004258603374866164,-0.001064650843716541,0.0,0.86328,-0.51012,10.2024
6540403975,21.65,-0.01811651763570114,0.004258603374866164,0.0,0.80442,-0.57879,9.908100000000001
6545454480,21.65,-0.031956978604016174,0.008517206749732328,0.0,0.71613,-0.73575,9.47646
6550504985,21.65,-0.03515093113516579,0.00958185759344887,0.0,0.69651,-0.89271,9.50589
6555555490,21.65,-0.02556907354171693,0.002129301687433082,0.0,0.70632,-0.89271,9.82962
6560605995,21.65,-0.003193952531149623,0.0,0.0,0.72594,-0.7651800000000001,10.1043
6565656500,21.65,0.008517206749732328,-0.005323254218582705,0.0,0.73575,-0.5886,9.91791
6570707005,21.65,0.003193952531149623,-0.007452555906015787,0.0,0.75537,-0.5591700000000001,9.53532
6575757510,21.65,-0.012775810124598492,-0.005323254218582705,0.0,0.7749900000000001,-0.60822,9.48627
6580808015,21.65,-0.015987215948268057,-0.001064650843716541,0.0,0.8142300000000001,-0.65727,9.83943
6585858520,21.65,-0.008517206749732328,0.001064650843716541,0.0,0.8142300000000001,-0.5395500000000001,10.09449
6590909025,21.65,-0.006387905062299246,0.001064650843716541,0.0,0.79461,-0.48069000000000006,9.83943
6595959530,21.65,-0.015987215948268057,0.007452555906015787,0.0,0.75537,-0.5886,9.52551
6601010035,21.65,-0.033021629447732716,0.008517206749732328,0.0,0.70632,-0.80442,9.54513
6606060540,21.65,-0.04153883619746504,0.00958185759344887,0.0,0.70632,-0.9711900000000001,9.81
6611111045,21.65,-0.02769837522915001,0.002129301687433082,0.0,0.65727,-0.87309,10.08468
6616161550,21.65,0.0,-0.00958185759344887,0.0,0.6867000000000001,-0.6768900000000001,9.86886
6621212055,21.65,0.00958185759344887,-0.0170518667919846,0.0,0.71613,-0.51012,9.40779
6626262560,21.65,0.004258603374866164,-0.014905111812031574,0.0,0.8338500000000001,-0.51012,9.44703
6631313065,21.65,-0.006387905062299246,-0.002129301687433082,0.0,0.87309,-0.57879,9.86886
6636363570,21.65,-0.023439771854283843,0.006387905062299246,0.0,0.89271,-0.60822,10.22202
6641414075,21.65,-0.031956978604016174,0.013840460968315033,0.0,0.79461,-0.6768900000000001,10.13373
6646464580,21.65,-0.04260348704118158,0.0170518667919846,0.0,0.6867000000000001,-0.87309,9.64323
6651515085,21.65,-0.044732788728614664,0.00958185759344887,0.0,0.5886,-1.04967,9.45684
6656565590,21.65,-0.02556907354171693,-0.001064650843716541,0.0,0.60822,-1.02024,9.73152
6661616095,21.65,0.007452555906015787,-0.014905111812031574,0.0,0.70632,-0.7651800000000001,10.1043
6666666600,21.65,0.024504422698000388,-0.0170518667919846,0.0,0.79461,-0.47088,10.025820000000001
6671717105,21.65,0.015987215948268057,-0.014905111812031574,0.0,0.8829,-0.41202000000000005,9.70209
6676767610,21.65,-0.00958185759344887,-0.001064650843716541,0.0,0.8829,-0.50031,9.58437
6681818115,21.65,-0.031956978604016174,0.012775810124598492,0.0,0.85347,-0.72594,9.79038
6686868620,21.65,-0.03728023282259888,0.0170518667919846,0.0,0.7651800000000001,-0.8240400000000001,10.08468
6691919125,21.65,-0.024504422698000388,0.011711159280881954,0.0,0.6670800000000001,-0.80442,9.99639
6696969630,21.65,-0.012775810124598492,0.003193952531149623,0.0,0.60822,-0.7848,9.55494
6702020135,21.65,-0.00958185759344887,-0.004258603374866164,0.0,0.6670800000000001,-0.8142300000000001,9.43722
6707070640,21.65,-0.007452555906015787,-0.006387905062299246,0.0,0.72594,-0.8142300000000001,9.72171
6712121145,21.65,0.0,-0.00958185759344887,0.0,0.7848,-0.65727,10.06506
6717171650,21.65,0.004258603374866164,-0.007452555906015787,0.0,0.8142300000000001,-0.48069000000000006,10.01601
6722222155,21.65,-0.001064650843716541,-0.005323254218582705,0.0,0.8142300000000001,-0.48069000000000006,9.59418
6727272660,21.65,-0.014905111812031574,0.001064650843716541,0.0,0.8142300000000001,-0.5493600000000001,9.44703
6732323165,21.65,-0.028763026072866547,0.00958185759344887,0.0,0.80442,-0.70632,9.69228
6737373670,21.65,-0.033021629447732716,0.013840460968315033,0.0,0.7651800000000001,-0.7749900000000001,10.01601
6742424175,21.65,-0.02982767691658309,0.01064650843716541,0.0,0.6670800000000001,-0.8142300000000001,10.09449
6747474680,21.65,-0.028763026072866547,0.0,0.0,0.64746,-0.85347,9.68247
6752525185,21.65,-0.024504422698000388,-0.004258603374866164,0.0,0.6867000000000001,-0.9123300000000001,9.43722
6757575690,21.65,-0.013840460968315033,-0.007452555906015787,0.0,0.73575,-0.8142300000000001,9.68247
6762626195,21.65,0.007452555906015787,-0.00958185759344887,0.0,0.7749900000000001,-0.60822,10.025820000000001
6767676700,21.65,0.014905111812031574,-0.01064650843716541,0.0,0.8338500000000001,-0.41202000000000005,10.01601
6772727205,21.65,0.002129301687433082,-0.006387905062299246,0.0,0.86328,-0.40221,9.74133
6777777710,21.65,-0.024504422698000388,0.002129301687433082,0.0,0.84366,-0.60822,9.60399
6782828215,21.65,-0.05113814708343386,0.014905111812031574,0.0,0.8142300000000001,-0.9123300000000001,9.770760000000001
6787878720,21.65,-0.05326744877086694,0.021310470166850764,0.0,0.69651,-1.03986,10.08468
6792929225,21.65,-0.02663372438543347,0.005323254218582705,0.0,0.60822,-0.95157,9.98658
6797979730,21.65,-0.004258603374866164,-0.006387905062299246,0.0,0.59841,-0.8142300000000001,9.623610000000001
6803030235,21.65,0.00958185759344887,-0.01811651763570114,0.0,0.6768900000000001,-0.69651,9.46665
6808080740,21.65,0.01064650843716541,-0.0170518667919846,0.0,0.8240400000000001,-0.59841,9.770760000000001
6813131245,21.65,0.003193952531149623,-0.007452555906015787,0.0,0.90252,-0.52974,10.11411
6818181750,21.65,-0.005323254218582705,0.0,0.0,0.89271,-0.5395500000000001,10.05525
6823232255,21.65,-0.02556907354171693,0.006387905062299246,0.0,0.84366,-0.6768900000000001,9.78057
6828282760,21.65,-0.039409534510031964,0.015987215948268057,0.0,0.73575,-0.85347,9.57456
6833333265,21.65,-0.03089232776029963,0.014905111812031574,0.0,0.6768900000000001,-0.9711900000000001,9.7119
6838383770,21.65,-0.014905111812031574,0.008517206749732328,0.0,0.6180300000000001,-0.87309,9.91791
6843434275,21.65,0.0,-0.003193952531149623,0.0,0.6180300000000001,-0.75537,9.888480000000001
6848484780,21.65,0.003193952531149623,-0.012775810124598492,0.0,0.69651,-0.64746,9.69228
6853535285,21.65,-0.003193952531149623,-0.013840460968315033,0.0,0.80442,-0.63765,9.633420000000001
6858585790,21.65,-0.006387905062299246,-0.007452555906015787,0.0,0.84366,-0.63765,9.80019
6863636295,21.65,0.002129301687433082,0.002129301687433082,0.0,0.87309,-0.51012,10.03563
6868686800,21.65,0.006387905062299246,0.007452555906015787,0.0,0.8142300000000001,-0.42183,10.01601
6873737305,21.65,-0.011711159280881954,0.011711159280881954,0.0,0.72594,-0.5886,9.84924
6878787810,21.65,-0.04794419455228423,0.00958185759344887,0.0,0.6768900000000001,-0.9908100000000001,9.74133
6883838315,21.65,-0.06923721142661506,0.008517206749732328,0.0,0.71613,-1.40283,9.89829
6888888820,21.65,-0.05113814708343386,0.006387905062299246,0.0,0.63765,-1.44207,10.280880000000002
6893939325,21.65,-0.003193952531149623,0.006387905062299246,0.0,0.64746,-1.1772,10.2024
6898989830,21.65,0.05007349623971732,-0.024504422698000388,0.0,0.7651800000000001,-0.80442,9.888480000000001
6904040335,21.65,0.07030186227033158,-0.03408628029144926,0.0,0.8240400000000001,-0.47088,9.44703
6909090840,21.65,0.05646140130201656,-0.01918116847941768,0.0,1.03986,-0.42183,9.633420000000001
6914141345,21.65,0.02663372438543347,0.005323254218582705,0.0,1.03986,-0.41202000000000005,10.15335
6919191850,21.65,0.0,0.033021629447732716,0.0,0.95157,-0.5395500000000001,10.22202
6924242355,21.65,-0.023439771854283843,0.03728023282259888,0.0,0.6768900000000001,-0.73575,9.92772
6929292860,21.65,-0.03089232776029963,0.02556907354171693,0.0,0.51993,-0.90252,9.36855
6934343365,21.65,-0.011711159280881954,0.003193952531149623,0.0,0.45126,-0.9123300000000001,9.2214
6939393870,21.65,0.01811651763570114,-0.014905111812031574,0.0,0.57879,-0.74556,9.47646
6944444375,21.65,0.03728023282259888,-0.02556907354171693,0.0,0.71613,-0.51993,9.84924
6949494880,21.65,0.02982767691658309,-0.02663372438543347,0.0,0.79461,-0.38259000000000004,9.91791
6954545385,21.65,0.005323254218582705,-0.01811651763570114,0.0,0.90252,-0.43164,9.64323
6959595890,21.65,-0.01811651763570114,-0.005323254218582705,0.0,0.9123300000000001,-0.60822,9.54513
6964646395,21.65,-0.02982767691658309,0.006387905062299246,0.0,0.8829,-0.79461,9.60399
6969696900,21.65,-0.021310470166850764,0.0170518667919846,0.0,0.80442,-0.7848,9.84924
6974747405,21.65,-0.005323254218582705,0.013840460968315033,0.0,0.70632,-0.73575,9.78057
6979797910,21.65,-0.007452555906015787,0.00958185759344887,0.0,0.6867000000000001,-0.7749900000000001,9.751140000000001
6984848415,21.65,-0.01811651763570114,0.004258603374866164,0.0,0.6278400000000001,-0.9221400000000001,9.94734
6989898920,21.65,-0.01918116847941768,0.0,0.0,0.65727,-1.02024,10.03563
6994949425,21.65,-0.01064650843716541,-0.01064650843716541,0.0,0.6768900000000001,-0.9613800000000001,10.08468
6999999930,21.65,0.006387905062299246,-0.014905111812031574,0.0,0.70632,-0.7848,9.89829
7005050435,21.65,0.024504422698000388,-0.021310470166850764,0.0,0.80442,-0.6670800000000001,9.73152
7010100940,21.65,0.02769837522915001,-0.011711159280881954,0.0,0.9123300000000001,-0.60822,9.79038
7015151445,21.65,0.01064650843716541,0.001064650843716541,0.0,0.9319500000000001,-0.69651,9.937529999999999
7020201950,21.65,-0.006387905062299246,0.01811651763570114,0.0,0.89271,-0.7848,10.03563
7025252455,21.65,-0.01064650843716541,0.031956978604016174,0.0,0.74556,-0.84366,9.96696
7030302960,21.65,-0.006387905062299246,0.022375121010567305,0.0,0.57879,-0.85347,9.72171
7035353465,21.65,0.00958185759344887,0.001064650843716541,0.0,0.5493600000000001,-0.73575,9.56475
7040403970,21.65,0.028763026072866547,-0.01918116847941768,0.0,0.59841,-0.56898,9.56475
7045454475,21.65,0.033021629447732716,-0.02769837522915001,0.0,0.74556,-0.45126,9.58437
7050504980,21.65,0.015987215948268057,-0.01918116847941768,0.0,0.86328,-0.47088,9.7119
7055555485,21.65,-0.005323254218582705,-0.002129301687433082,0.0,0.9319500000000001,-0.5591700000000001,9.81
7060605990,21.65,-0.02556907354171693,0.01064650843716541,0.0,0.86328,-0.70632,9.751140000000001
7065656495,21.65,-0.02769837522915001,0.020245819323134222,0.0,0.7651800000000001,-0.8142300000000001,9.65304
7070707000,21.65,-0.014905111812031574,0.0170518667919846,0.0,0.63765,-0.8142300000000001,9.54513
7075757505,21.65,0.004258603374866164,0.005323254218582705,0.0,0.6180300000000001,-0.72594,9.56475
7080808010,21.65,0.008517206749732328,-0.004258603374866164,0.0,0.65727,-0.70632,9.819809999999999
7085858515,21.65,0.001064650843716541,-0.015987215948268057,0.0,0.70632,-0.6670800000000001,10.01601
7090909020,21.65,-0.007452555906015787,-0.015987215948268057,0.0,0.80442,-0.7749900000000001,10.03563
7095959525,21.65,-0.021310470166850764,-0.01064650843716541,0.0,0.84366,-0.84366,9.85905
7101010030,21.65,-0.021310470166850764,-0.002129301687433082,0.0,0.8829,-0.9613800000000001,9.72171
7106060535,21.65,-0.004258603374866164,0.00958185759344887,0.0,0.8338500000000001,-0.9221400000000001,9.83943
7111111040,21.65,0.015987215948268057,0.01064650843716541,0.0,0.79461,-0.7749900000000001,9.95715
7116161545,21.65,0.022375121010567305,0.012775810124598492,0.0,0.74556,-0.65727,9.99639
7121212050,21.65,0.012775810124598492,0.00958185759344887,0.0,0.6768900000000001,-0.6867000000000001,9.908100000000001
7126262555,21.65,0.0,0.005323254218582705,0.0,0.65727,-0.7848,9.82962
7131313060,21.65,-0.007452555906015787,-0.001064650843716541,0.0,0.64746,-0.8142300000000001,9.84924
7136363565,21.65,0.0,-0.00958185759344887,0.0,0.6867000000000001,-0.79461,9.81
7141414070,21.65,0.015987215948268057,-0.01811651763570114,0.0,0.7848,-0.6670800000000001,9.7119
7146464575,21.65,0.024504422698000388,-0.014905111812031574,0.0,0.87309,-0.52974,9.60399
7151515080,21.65,0.01918116847941768,0.0,0.0,0.9123300000000001,-0.52974,9.64323
7156565585,21.65,0.001064650843716541,0.0170518667919846,0.0,0.86328,-0.5886,9.770760000000001
7161616090,21.65,-0.01064650843716541,0.022375121010567305,0.0,0.7651800000000001,-0.6867000000000001,9.83943
7166666595,21.65,-0.015987215948268057,0.01811651763570114,0.0,0.6278400000000001,-0.71613,9.7119
7171717100,21.65,-0.01064650843716541,0.006387905062299246,0.0,0.56898,-0.75537,9.55494
7176767605,21.65,-0.005323254218582705,-0.006387905062299246,0.0,0.60822,-0.70632,9.52551
7181818110,21.65,0.005323254218582705,-0.0170518667919846,0.0,0.72594,-0.6867000000000001,9.69228
7186868615,21.65,0.003193952531149623,-0.020245819323134222,0.0,0.8142300000000001,-0.65727,9.91791
7191919120,21.65,-0.006387905062299246,-0.00958185759344887,0.0,0.90252,-0.70632,9.97677
