#timestamp [ns], temperature [degC], w_RS_S_x [rad s^-1], w_RS_S_y [rad s^-1], w_RS_S_z [rad s^-1], a_RS_S_x [m s^-2], a_RS_S_y [m s^-2], a_RS_S_z [m s^-2]
0,22.22,0.0,0.0,0.0,0.5886,-0.14715,9.81
5050505,22.22,0.0,0.0,0.0,0.5886,-0.15696000000000002,9.82962
10101010,22.22,0.0,0.0,0.0,0.59841,-0.15696000000000002,9.80019
15151515,22.22,0.0,0.0,0.0,0.57879,-0.16677000000000003,9.80019
20202020,22.22,0.0,0.0,0.0,0.57879,-0.13734000000000002,9.79038
25252525,22.22,0.0,0.0,0.0,0.5886,-0.14715,9.819809999999999
30303030,22.22,0.0,0.0,0.0,0.59841,-0.16677000000000003,9.81
35353535,22.22,0.0,0.0,0.0,0.5886,-0.17658,9.819809999999999
40404040,22.22,0.0,0.0,0.0,0.5886,-0.13734000000000002,9.80019
45454545,22.22,0.0,0.0,0.0,0.5886,-0.13734000000000002,9.79038
50505050,22.22,0.0,0.0,0.0,0.56898,-0.14715,9.819809999999999
55555555,22.22,0.0,0.0,0.0,0.60822,-0.13734000000000002,9.82962
60606060,22.22,0.0,0.0,0.0,0.5886,-0.13734000000000002,9.819809999999999
65656565,22.22,0.0,0.0,0.0,0.5591700000000001,-0.16677000000000003,9.81
70707070,22.22,0.0,0.0,0.0,0.59841,-0.17658,9.819809999999999
75757575,22.22,0.0,0.0,0.0,0.59841,-0.16677000000000003,9.83943
80808080,22.22,0.0,0.0,0.0,0.60822,-0.14715,9.819809999999999
85858585,22.22,0.0,0.0,0.0,0.5886,-0.16677000000000003,9.819809999999999
90909090,22.22,0.0,0.0,0.0,0.59841,-0.16677000000000003,9.81
95959595,22.22,0.0,0.0,0.0,0.56898,-0.14715,9.80019
101010100,22.22,0.0,0.0,0.0,0.5886,-0.15696000000000002,9.81
106060605,22.22,0.0,0.0,0.0,0.59841,-0.17658,9.819809999999999
111111110,22.22,0.0,0.0,0.0,0.59841,-0.13734000000000002,9.81
116161615,22.22,0.0,0.0,0.0,0.59841,-0.12753,9.80019
121212120,22.22,0.0,0.0,0.0,0.5886,-0.14715,9.81
126262625,22.22,0.0,0.0,0.0,0.59841,-0.15696000000000002,9.770760000000001
131313130,22.22,0.0,0.0,0.0,0.56898,-0.14715,9.80019
136363635,22.22,0.0,0.0,0.0,0.5886,-0.15696000000000002,9.82962
141414140,22.22,0.0,0.0,0.0,0.59841,-0.12753,9.819809999999999
146464645,22.22,0.0,0.0,0.0,0.59841,-0.15696000000000002,9.81
151515150,22.22,0.0,0.0,0.0,0.5886,-0.15696000000000002,9.80019
156565655,22.22,0.0,0.0,0.0,0.5886,-0.17658,9.78057
161616160,22.22,0.0,0.0,0.0,0.5886,-0.16677000000000003,9.819809999999999
166666665,22.22,0.0,0.0,0.0,0.57879,-0.15696000000000002,9.82962
171717170,22.22,0.0,0.0,0.0,0.5886,-0.14715,9.82962
176767675,22.22,0.0,0.0,0.0,0.5886,-0.14715,9.80019
181818180,22.22,0.0,0.0,0.0,0.57879,-0.14715,9.78057
186868685,22.22,0.0,0.0,0.0,0.5886,-0.15696000000000002,9.79038
191919190,22.22,0.0,0.0,0.0,0.59841,-0.14715,9.81
196969695,22.22,0.0,0.0,0.0,0.59841,-0.14715,9.819809999999999
202020200,22.22,0.0,0.0,0.0,0.57879,-0.14715,9.81
207070705,22.22,0.0,0.0,0.0,0.57879,-0.13734000000000002,9.81
212121210,22.22,0.0,0.0,0.0,0.57879,-0.17658,9.78057
217171715,22.22,0.0,0.0,0.0,0.60822,-0.16677000000000003,9.819809999999999
222222220,22.22,0.0,0.0,0.0,0.5886,-0.14715,9.83943
227272725,22.22,0.0,0.0,0.0,0.5886,-0.14715,9.81
232323230,22.22,0.0,0.0,0.0,0.5886,-0.14715,9.819809999999999
237373735,22.22,0.0,0.0,0.0,0.56898,-0.16677000000000003,9.81
242424240,22.22,0.0,0.0,0.0,0.57879,-0.17658,9.819809999999999
247474745,22.22,0.0,0.0,0.0,0.5886,-0.15696000000000002,9.81
252525250,22.22,0.0,0.0,0.0,0.5886,-0.14715,9.81
257575755,22.22,0.0,0.0,0.0,0.5886,-0.15696000000000002,9.78057
262626260,22.22,0.0,0.0,0.0,0.5886,-0.16677000000000003,9.79038
267676765,22.22,0.0,0.0,0.0,0.60822,-0.13734000000000002,9.81
272727270,22.22,0.0,0.0,0.0,0.57879,-0.16677000000000003,9.85905
277777775,22.22,0.0,0.0,0.0,0.5886,-0.15696000000000002,9.819809999999999
282828280,22.22,0.0,0.0,0.0,0.57879,-0.17658,9.80019
287878785,22.22,0.0,0.0,0.0,0.60822,-0.13734000000000002,9.80019
292929290,22.22,0.0,0.0,0.0,0.59841,-0.13734000000000002,9.81
297979795,22.22,0.0,0.0,0.0,0.5886,-0.15696000000000002,9.819809999999999
303030300,22.22,0.0,0.0,0.0,0.56898,-0.12753,9.82962
308080805,22.22,0.0,0.0,0.0,0.5886,-0.14715,9.80019
313131310,22.22,0.0,0.0,0.0,0.57879,-0.12753,9.79038
318181815,22.22,0.0,0.0,0.0,0.57879,-0.16677000000000003,9.81
323232320,22.22,0.0,0.0,0.0,0.5886,-0.16677000000000003,9.82962
328282825,22.22,0.0,0.0,0.0,0.5886,-0.16677000000000003,9.81
333333330,22.22,0.0,0.0,0.0,0.57879,-0.14715,9.81
338383835,22.22,0.0,0.0,0.0,0.5886,-0.14715,9.80019
343434340,22.22,0.0,0.0,0.0,0.57879,-0.14715,9.81
348484845,22.22,0.0,0.0,0.0,0.5591700000000001,-0.14715,9.84924
353535350,22.22,0.0,0.0,0.0,0.57879,-0.15696000000000002,9.84924
358585855,22.22,0.0,0.0,0.0,0.5591700000000001,-0.15696000000000002,9.78057
363636360,22.22,0.0,0.0,0.0,0.60822,-0.13734000000000002,9.770760000000001
368686865,22.22,0.0,0.0,0.0,0.56898,-0.14715,9.81
373737370,22.22,0.0,0.0,0.0,0.59841,-0.14715,9.83943
378787875,22.22,0.0,0.0,0.0,0.5886,-0.14715,9.81
383838380,22.22,0.0,0.0,0.0,0.57879,-0.13734000000000002,9.79038
388888885,22.22,0.0,0.0,0.0,0.57879,-0.17658,9.78057
393939390,22.22,0.0,0.0,0.0,0.57879,-0.15696000000000002,9.819809999999999
398989895,22.22,0.0,0.0,0.0,0.5886,-0.13734000000000002,9.84924
404040400,22.22,0.0,0.0,0.0,0.5886,-0.15696000000000002,9.82962
409090905,22.22,0.0,0.0,0.0,0.5886,-0.17658,9.78057
414141410,22.22,0.0,0.0,0.0,0.56898,-0.16677000000000003,9.80019
419191915,22.22,0.0,0.0,0.0,0.57879,-0.15696000000000002,9.819809999999999
424242420,22.22,0.0,0.0,0.0,0.56898,-0.12753,9.83943
429292925,22.22,0.0,0.0,0.0,0.60822,-0.14715,9.819809999999999
434343430,22.22,0.0,0.0,0.0,0.5886,-0.15696000000000002,9.79038
439393935,22.22,0.0,0.0,0.0,0.59841,-0.16677000000000003,9.79038
444444440,22.22,0.0,0.0,0.0,0.5886,-0.14715,9.84924
449494945,22.22,0.0,0.0,0.0,0.57879,-0.15696000000000002,9.83943
454545450,22.22,0.0,0.0,0.0,0.59841,-0.15696000000000002,9.81
459595955,22.22,0.0,0.0,0.0,0.60822,-0.13734000000000002,9.78057
464646460,22.22,0.0,0.0,0.0,0.60822,-0.15696000000000002,9.80019
469696965,22.22,0.0,0.0,0.0,0.57879,-0.16677000000000003,9.86886
474747470,22.22,0.0,0.0,0.0,0.5886,-0.16677000000000003,9.85905
479797975,22.22,0.0,0.0,0.0,0.56898,-0.16677000000000003,9.770760000000001
484848480,22.22,0.0,0.0,0.0,0.56898,-0.15696000000000002,9.770760000000001
489898985,22.22,0.0,0.0,0.0,0.5886,-0.14715,9.78057
494949490,22.22,0.0,0.0,0.0,0.56898,-0.14715,9.83943
499999995,22.22,0.0,0.0,0.0,0.59841,-0.15696000000000002,9.84924
505050500,22.22,0.0,0.0,0.0,0.5886,-0.14715,9.81
510101005,22.22,0.0,0.0,0.0,0.56898,-0.17658,9.770760000000001
515151510,22.22,0.0,0.0,0.0,0.59841,-0.13734000000000002,9.79038
520202015,22.22,0.0,0.0,0.0,0.5886,-0.16677000000000003,9.86886
525252520,22.22,0.0,0.0,0.0,0.60822,-0.16677000000000003,9.82962
530303025,22.22,0.0,0.0,0.0,0.57879,-0.15696000000000002,9.81
535353530,22.22,0.0,0.0,0.0,0.5886,-0.15696000000000002,9.78057
540404035,22.22,0.0,0.0,0.0,0.59841,-0.16677000000000003,9.81
545454540,22.22,0.0,0.0,0.0,0.59841,-0.16677000000000003,9.83943
550505045,22.22,0.0,0.0,0.0,0.56898,-0.13734000000000002,9.83943
555555550,22.22,0.0,0.0,0.0,0.59841,-0.13734000000000002,9.80019
560606055,22.22,0.0,0.0,0.0,0.5886,-0.14715,9.81
565656560,22.22,0.0,0.0,0.0,0.57879,-0.1962,9.80019
570707065,22.22,0.0,0.0,0.0,0.57879,-0.15696000000000002,9.79038
575757570,22.22,0.0,0.0,0.0,0.56898,-0.15696000000000002,9.81
580808075,22.22,0.0,0.0,0.0,0.5886,-0.16677000000000003,9.819809999999999
585858580,22.22,0.0,0.0,0.0,0.60822,-0.15696000000000002,9.83943
590909085,22.22,0.0,0.0,0.0,0.5886,-0.16677000000000003,9.82962
595959590,22.22,0.0,0.0,0.0,0.5886,-0.14715,9.79038
601010095,22.22,0.0,0.0,0.0,0.5493600000000001,-0.14715,9.79038
606060600,22.22,0.0,0.0,0.0,0.59841,-0.13734000000000002,9.81
611111105,22.22,0.0,0.0,0.0,0.5886,-0.15696000000000002,9.83943
616161610,22.22,0.0,0.0,0.0,0.59841,-0.13734000000000002,9.85905
621212115,22.22,0.0,0.0,0.0,0.56898,-0.13734000000000002,9.819809999999999
626262620,22.22,0.0,0.0,0.0,0.57879,-0.14715,9.751140000000001
631313125,22.22,0.0,0.0,0.0,0.56898,-0.14715,9.79038
636363630,22.22,0.0,0.0,0.0,0.56898,-0.14715,9.83943
641414135,22.22,0.0,0.0,0.0,0.56898,-0.15696000000000002,9.84924
646464640,22.22,0.0,0.0,0.0,0.59841,-0.13734000000000002,9.81
651515145,22.22,0.0,0.0,0.0,0.5493600000000001,-0.13734000000000002,9.770760000000001
656565650,22.22,0.0,0.0,0.0,0.5886,-0.15696000000000002,9.770760000000001
661616155,22.22,0.0,0.0,0.0,0.5886,-0.16677000000000003,9.83943
666666660,22.22,0.0,0.0,0.0,0.59841,-0.14715,9.819809999999999
671717165,22.22,0.0,0.0,0.0,0.5886,-0.14715,9.819809999999999
676767670,22.22,0.0,0.0,0.0,0.57879,-0.15696000000000002,9.760950000000001
681818175,22.22,0.0,0.0,0.0,0.57879,-0.15696000000000002,9.78057
686868680,22.22,0.0,0.0,0.0,0.5886,-0.14715,9.82962
691919185,22.22,0.0,0.0,0.0,0.57879,-0.15696000000000002,9.83943
696969690,22.22,0.0,0.0,0.0,0.5886,-0.15696000000000002,9.819809999999999
702020195,22.22,0.0,0.0,0.0,0.5886,-0.14715,9.770760000000001
707070700,22.22,0.0,0.0,0.0,0.5886,-0.14715,9.80019
712121205,22.22,0.0,0.0,0.0,0.60822,-0.12753,9.82962
717171710,22.22,0.0,0.0,0.0,0.56898,-0.14715,9.82962
722222215,22.22,0.0,0.0,0.0,0.59841,-0.17658,9.82962
727272720,22.22,0.0,0.0,0.0,0.5886,-0.15696000000000002,9.760950000000001
732323225,22.22,0.0,0.0,0.0,0.56898,-0.16677000000000003,9.79038
737373730,22.22,0.0,0.0,0.0,0.57879,-0.18639,9.83943
742424235,22.22,0.0,0.0,0.0,0.56898,-0.15696000000000002,9.83943
747474740,22.22,0.0,0.0,0.0,0.56898,-0.15696000000000002,9.81
752525245,22.22,0.0,0.0,0.0,0.59841,-0.13734000000000002,9.80019
757575750,22.22,0.0,0.0,0.0,0.5886,-0.12753,9.81
762626255,22.22,0.0,0.0,0.0,0.57879,-0.14715,9.80019
767676760,22.22,0.0,0.0,0.0,0.57879,-0.17658,9.81
772727265,22.22,0.0,0.0,0.0,0.57879,-0.15696000000000002,9.81
777777770,22.22,0.0,0.0,0.0,0.56898,-0.17658,9.81
782828275,22.22,0.0,0.0,0.0,0.5886,-0.14715,9.82962
787878780,22.22,0.0,0.0,0.0,0.59841,-0.14715,9.80019
792929285,22.22,0.0,0.0,0.0,0.60822,-0.14715,9.751140000000001
797979790,22.22,0.0,0.0,0.0,0.57879,-0.13734000000000002,9.78057
803030295,22.22,0.0,0.0,0.0,0.59841,-0.15696000000000002,9.83943
808080800,22.22,0.0,0.0,0.0,0.57879,-0.12753,9.84924
813131305,22.22,0.0,0.0,0.0,0.5886,-0.14715,9.819809999999999
818181810,22.22,0.0,0.0,0.0,0.5886,-0.16677000000000003,9.80019
823232315,22.22,0.0,0.0,0.0,0.5886,-0.14715,9.80019
828282820,22.22,0.0,0.0,0.0,0.59841,-0.16677000000000003,9.84924
833333325,22.22,0.0,0.0,0.0,0.60822,-0.13734000000000002,9.80019
838383830,22.22,0.0,0.0,0.0,0.57879,-0.14715,9.80019
843434335,22.22,0.0,0.0,0.0,0.59841,-0.16677000000000003,9.80019
848484840,22.22,0.0,0.0,0.0,0.5886,-0.13734000000000002,9.81
853535345,22.22,0.0,0.0,0.0,0.59841,-0.11772,9.82962
858585850,22.22,0.0,0.0,0.0,0.56898,-0.15696000000000002,9.82962
863636355,22.22,0.0,0.0,0.0,0.57879,-0.17658,9.81
868686860,22.22,0.0,0.0,0.0,0.57879,-0.14715,9.770760000000001
873737365,22.22,0.0,0.0,0.0,0.60822,-0.17658,9.80019
878787870,22.22,0.0,0.0,0.0,0.57879,-0.17658,9.83943
883838375,22.22,0.0,0.0,0.0,0.60822,-0.15696000000000002,9.81
888888880,22.22,0.0,0.0,0.0,0.57879,-0.15696000000000002,9.81
893939385,22.22,0.0,0.0,0.0,0.56898,-0.15696000000000002,9.81
898989890,22.22,0.0,0.0,0.0,0.56898,-0.16677000000000003,9.80019
904040395,22.22,0.0,0.0,0.0,0.57879,-0.16677000000000003,9.81
909090900,22.22,0.0,0.0,0.0,0.5886,-0.15696000000000002,9.819809999999999
914141405,22.22,0.0,0.0,0.0,0.60822,-0.13734000000000002,9.81
919191910,22.22,0.0,0.0,0.0,0.5886,-0.11772,9.83943
924242415,22.22,0.0,0.0,0.0,0.59841,-0.16677000000000003,9.80019
929292920,22.22,0.0,0.0,0.0,0.59841,-0.15696000000000002,9.79038
934343425,22.22,0.0,0.0,0.0,0.60822,-0.14715,9.80019
939393930,22.22,0.0,0.0,0.0,0.57879,-0.14715,9.80019
944444435,22.22,0.0,0.0,0.0,0.56898,-0.16677000000000003,9.819809999999999
949494940,22.22,0.0,0.0,0.0,0.59841,-0.13734000000000002,9.819809999999999
954545445,22.22,0.0,0.0,0.0,0.5886,-0.14715,9.81
959595950,22.22,0.0,0.0,0.0,0.5886,-0.13734000000000002,9.81
964646455,22.22,0.0,0.0,0.0,0.59841,-0.16677000000000003,9.81
969696960,22.22,0.0,0.0,0.0,0.59841,-0.15696000000000002,9.83943
974747465,22.22,0.0,0.0,0.0,0.57879,-0.12753,9.82962
979797970,22.22,0.0,0.0,0.0,0.56898,-0.15696000000000002,9.819809999999999
984848475,22.22,0.0,0.0,0.0,0.57879,-0.15696000000000002,9.760950000000001
989898980,22.22,0.0,0.0,0.0,0.56898,-0.15696000000000002,9.79038
994949485,22.22,0.0,0.0,0.0,0.5886,-0.14715,9.82962
999999990,22.22,0.0,0.0,0.0,0.57879,-0.16677000000000003,9.819809999999999
1005050495,22.22,0.0,0.0,0.0,0.59841,-0.15696000000000002,9.78057
1010101000,22.22,0.0,0.0,0.0,0.57879,-0.13734000000000002,9.770760000000001
1015151505,22.22,0.0,0.0,0.0,0.57879,-0.15696000000000002,9.819809999999999
1020202010,22.22,0.0,0.0,0.0,0.59841,-0.12753,9.83943
1025252515,22.22,0.0,0.0,0.0,0.5886,-0.16677000000000003,9.83943
1030303020,22.22,0.0,0.0,0.0,0.5886,-0.16677000000000003,9.760950000000001
1035353525,22.22,0.0,0.0,0.0,0.57879,-0.18639,9.760950000000001
1040404030,22.22,0.0,0.0,0.0,0.57879,-0.15696000000000002,9.82962
1045454535,22.22,0.0,0.0,0.0,0.5886,-0.12753,9.86886
1050505040,22.22,0.0,0.0,0.0,0.6180300000000001,-0.17658,9.85905
1055555545,22.22,0.0,0.0,0.0,0.56898,-0.14715,9.770760000000001
1060606050,22.22,0.0,0.0,0.0,0.5886,-0.16677000000000003,9.74133
1065656555,22.22,0.0,0.0,0.0,0.57879,-0.15696000000000002,9.81
1070707060,22.22,0.0,0.0,0.0,0.57879,-0.14715,9.86886
1075757565,22.22,0.0,0.0,0.0,0.59841,-0.14715,9.84924
1080808070,22.22,0.0,0.0,0.0,0.56898,-0.14715,9.80019
1085858575,22.22,0.0,0.0,0.0,0.60822,-0.15696000000000002,9.79038
1090909080,22.22,0.0,0.0,0.0,0.56898,-0.13734000000000002,9.79038
1095959585,22.22,0.0,0.0,0.0,0.5886,-0.17658,9.82962
1101010090,22.22,0.0,0.0,0.0,0.57879,-0.15696000000000002,9.80019
1106060595,22.22,0.0,0.0,0.0,0.60822,-0.14715,9.78057
1111111100,22.22,0.0,0.0,0.0,0.5886,-0.15696000000000002,9.73152
1116161605,22.22,0.0,0.0,0.0,0.60822,-0.14715,9.80019
1121212110,22.22,0.0,0.0,0.0,0.56898,-0.15696000000000002,9.84924
1126262615,22.22,0.0,0.0,0.0,0.57879,-0.17658,9.84924
1131313120,22.22,0.0,0.0,0.0,0.56898,-0.13734000000000002,9.79038
1136363625,22.22,0.0,0.0,0.0,0.5886,-0.16677000000000003,9.760950000000001
1141414130,22.22,0.0,0.0,0.0,0.56898,-0.14715,9.770760000000001
1146464635,22.22,0.0,0.0,0.0,0.5886,-0.14715,9.84924
1151515140,22.22,0.0,0.0,0.0,0.5886,-0.16677000000000003,9.82962
1156565645,22.22,0.0,0.0,0.0,0.5591700000000001,-0.15696000000000002,9.819809999999999
1161616150,22.22,0.0,0.0,0.0,0.5886,-0.15696000000000002,9.770760000000001
1166666655,22.22,0.0,0.0,0.0,0.5886,-0.13734000000000002,9.760950000000001
1171717160,22.22,0.0,0.0,0.0,0.59841,-0.16677000000000003,9.82962
1176767665,22.22,0.0,0.0,0.0,0.56898,-0.16677000000000003,9.82962
1181818170,22.22,0.0,0.0,0.0,0.59841,-0.15696000000000002,9.82962
1186868675,22.22,0.0,0.0,0.0,0.57879,-0.13734000000000002,9.79038
1191919180,22.22,0.0,0.0,0.0,0.59841,-0.14715,9.819809999999999
1196969685,22.22,0.0,0.0,0.0,0.59841,-0.14715,9.819809999999999
1202020190,22.22,0.0,0.0,0.0,0.57879,-0.15696000000000002,9.81
1207070695,22.22,0.0,0.0,0.0,0.56898,-0.15696000000000002,9.80019
1212121200,22.22,0.0,0.0,0.0,0.57879,-0.12753,9.82962
1217171705,22.22,0.0,0.0,0.0,0.57879,-0.14715,9.81
1222222210,22.22,0.0,0.0,0.0,0.5886,-0.13734000000000002,9.819809999999999
1227272715,22.22,0.0,0.0,0.0,0.57879,-0.15696000000000002,9.819809999999999
1232323220,22.22,0.0,0.0,0.0,0.5886,-0.15696000000000002,9.819809999999999
1237373725,22.22,0.0,0.0,0.0,0.5886,-0.14715,9.81
1242424230,22.22,0.0,0.0,0.0,0.5886,-0.15696000000000002,9.819809999999999
1247474735,22.22,0.0,0.0,0.0,0.57879,-0.14715,9.81
1252525240,22.22,0.0,0.0,0.0,0.57879,-0.14715,9.79038
1257575745,22.22,0.0,0.0,0.0,0.5886,-0.18639,9.81
1262626250,22.22,0.0,0.0,0.0,0.59841,-0.14715,9.82962
1267676755,22.22,0.0,0.0,0.0,0.56898,-0.15696000000000002,9.82962
1272727260,22.22,0.0,0.0,0.0,0.5886,-0.15696000000000002,9.79038
1277777765,22.22,0.0,0.0,0.0,0.5886,-0.14715,9.78057
1282828270,22.22,0.0,0.0,0.0,0.59841,-0.16677000000000003,9.81
1287878775,22.22,0.0,0.0,0.0,0.60822,-0.14715,9.82962
1292929280,22.22,0.0,0.0,0.0,0.60822,-0.15696000000000002,9.84924
1297979785,22.22,0.0,0.0,0.0,0.5886,-0.12753,9.81
1303030290,22.22,0.0,0.0,0.0,0.59841,-0.17658,9.770760000000001
1308080795,22.22,0.0,0.0,0.0,0.5886,-0.13734000000000002,9.80019
1313131300,22.22,0.0,0.0,0.0,0.59841,-0.16677000000000003,9.819809999999999
1318181805,22.22,0.0,0.0,0.0,0.57879,-0.15696000000000002,9.83943
1323232310,22.22,0.0,0.0,0.0,0.57879,-0.15696000000000002,9.81
1328282815,22.22,0.0,0.0,0.0,0.5886,-0.16677000000000003,9.80019
1333333320,22.22,0.0,0.0,0.0,0.5886,-0.13734000000000002,9.81
1338383825,22.22,0.0,0.0,0.0,0.57879,-0.17658,9.80019
1343434330,22.22,0.0,0.0,0.0,0.59841,-0.14715,9.81
1348484835,22.22,0.0,0.0,0.0,0.5886,-0.15696000000000002,9.81
1353535340,22.22,0.0,0.0,0.0,0.59841,-0.15696000000000002,9.78057
1358585845,22.22,0.0,0.0,0.0,0.59841,-0.14715,9.819809999999999
1363636350,22.22,0.0,0.0,0.0,0.57879,-0.15696000000000002,9.82962
1368686855,22.22,0.0,0.0,0.0,0.5886,-0.16677000000000003,9.82962
1373737360,22.22,0.0,0.0,0.0,0.5886,-0.14715,9.770760000000001
1378787865,22.22,0.0,0.0,0.0,0.5591700000000001,-0.14715,9.78057
1383838370,22.22,0.0,0.0,0.0,0.59841,-0.13734000000000002,9.819809999999999
1388888875,22.22,0.0,0.0,0.0,0.5886,-0.15696000000000002,9.84924
1393939380,22.22,0.0,0.0,0.0,0.5886,-0.14715,9.819809999999999
1398989885,22.22,0.0,0.0,0.0,0.59841,-0.15696000000000002,9.79038
1404040390,22.22,0.0,0.0,0.0,0.5591700000000001,-0.16677000000000003,9.770760000000001
1409090895,22.22,0.0,0.0,0.0,0.56898,-0.14715,9.819809999999999
1414141400,22.22,0.0,0.0,0.0,0.5886,-0.15696000000000002,9.83943
1419191905,22.22,0.0,0.0,0.0,0.5886,-0.14715,9.819809999999999
1424242410,22.22,0.0,0.0,0.0,0.5886,-0.15696000000000002,9.79038
1429292915,22.22,0.0,0.0,0.0,0.60822,-0.15696000000000002,9.79038
1434343420,22.22,0.0,0.0,0.0,0.57879,-0.17658,9.83943
1439393925,22.22,0.0,0.0,0.0,0.5886,-0.14715,9.81
1444444430,22.22,0.0,0.0,0.0,0.5886,-0.16677000000000003,9.81
1449494935,22.22,0.0,0.0,0.0,0.57879,-0.13734000000000002,9.80019
1454545440,22.22,0.0,0.0,0.0,0.5886,-0.16677000000000003,9.81
1459595945,22.22,0.0,0.0,0.0,0.56898,-0.15696000000000002,9.819809999999999
1464646450,22.22,0.0,0.0,0.0,0.57879,-0.15696000000000002,9.819809999999999
1469696955,22.22,0.0,0.0,0.0,0.59841,-0.15696000000000002,9.80019
1474747460,22.22,0.0,0.0,0.0,0.6180300000000001,-0.13734000000000002,9.80019
1479797965,22.22,0.0,0.0,0.0,0.5886,-0.15696000000000002,9.819809999999999
1484848470,22.22,0.0,0.0,0.0,0.5591700000000001,-0.15696000000000002,9.82962
1489898975,22.22,0.0,0.0,0.0,0.5886,-0.16677000000000003,9.81
1494949480,22.22,0.0,0.0,0.0,0.5886,-0.15696000000000002,9.80019
1499999985,22.22,0.0,0.0,0.0,0.59841,-0.15696000000000002,9.80019
1505050490,22.22,0.0,0.0,0.0,0.56898,-0.17658,9.80019
1510100995,22.22,0.0,0.0,0.0,0.57879,-0.12753,9.81
1515151500,22.22,0.0,0.0,0.0,0.5886,-0.14715,9.80019
1520202005,22.22,0.0,0.0,0.0,0.59841,-0.13734000000000002,9.819809999999999
1525252510,22.22,0.0,0.0,0.0,0.5886,-0.18639,9.80019
1530303015,22.22,0.0,0.0,0.0,0.57879,-0.16677000000000003,9.819809999999999
1535353520,22.22,0.0,0.0,0.0,0.57879,-0.16677000000000003,9.819809999999999
1540404025,22.22,0.0,0.0,0.0,0.60822,-0.14715,9.78057
1545454530,22.22,0.0,0.0,0.0,0.56898,-0.13734000000000002,9.79038
1550505035,22.22,0.0,0.0,0.0,0.57879,-0.14715,9.82962
1555555540,22.22,0.0,0.0,0.0,0.5886,-0.14715,9.84924
1560606045,22.22,0.0,0.0,0.0,0.5886,-0.17658,9.82962
1565656550,22.22,0.0,0.0,0.0,0.56898,-0.13734000000000002,9.80019
1570707055,22.22,0.0,0.0,0.0,0.5886,-0.14715,9.751140000000001
1575757560,22.22,0.0,0.0,0.0,0.59841,-0.16677000000000003,9.81
1580808065,22.22,0.0,0.0,0.0,0.5886,-0.16677000000000003,9.84924
1585858570,22.22,0.0,0.0,0.0,0.5886,-0.15696000000000002,9.84924
1590909075,22.22,0.0,0.0,0.0,0.59841,-0.14715,9.81
1595959580,22.22,0.0,0.0,0.0,0.57879,-0.16677000000000003,9.78057
1601010085,22.22,0.0,0.0,0.0,0.5591700000000001,-0.13734000000000002,9.81
1606060590,22.22,0.0,0.0,0.0,0.5886,-0.14715,9.81
1611111095,22.22,0.0,0.0,0.0,0.5591700000000001,-0.15696000000000002,9.81
1616161600,22.22,0.0,0.0,0.0,0.59841,-0.15696000000000002,9.81
1621212105,22.22,0.0,0.0,0.0,0.59841,-0.14715,9.81
1626262610,22.22,0.0,0.0,0.0,0.5886,-0.13734000000000002,9.80019
1631313115,22.22,0.0,0.0,0.0,0.57879,-0.15696000000000002,9.819809999999999
1636363620,22.22,0.0,0.0,0.0,0.57879,-0.13734000000000002,9.82962
1641414125,22.22,0.0,0.0,0.0,0.5886,-0.14715,9.79038
1646464630,22.22,0.0,0.0,0.0,0.57879,-0.12753,9.770760000000001
1651515135,22.22,0.0,0.0,0.0,0.57879,-0.15696000000000002,9.79038
1656565640,22.22,0.0,0.0,0.0,0.5886,-0.16677000000000003,9.819809999999999
1661616145,22.22,0.0,0.0,0.0,0.59841,-0.15696000000000002,9.82962
1666666650,22.22,0.0,0.0,0.0,0.59841,-0.15696000000000002,9.83943
1671717155,22.22,0.0,0.0,0.0,0.56898,-0.17658,9.78057
1676767660,22.22,0.0,0.0,0.0,0.57879,-0.15696000000000002,9.751140000000001
1681818165,22.22,0.0,0.0,0.0,0.60822,-0.15696000000000002,9.79038
1686868670,22.22,0.0,0.0,0.0,0.59841,-0.15696000000000002,9.86886
1691919175,22.22,0.0,0.0,0.0,0.59841,-0.15696000000000002,9.84924
1696969680,22.22,0.0,0.0,0.0,0.59841,-0.16677000000000003,9.819809999999999
1702020185,22.22,0.0,0.0,0.0,0.57879,-0.17658,9.78057
1707070690,22.22,0.0,0.0,0.0,0.5886,-0.16677000000000003,9.80019
1712121195,22.22,0.0,0.0,0.0,0.5886,-0.13734000000000002,9.84924
1717171700,22.22,0.0,0.0,0.0,0.59841,-0.12753,9.84924
1722222205,22.22,0.0,0.0,0.0,0.57879,-0.13734000000000002,9.819809999999999
1727272710,22.22,0.0,0.0,0.0,0.57879,-0.14715,9.78057
1732323215,22.22,0.0,0.0,0.0,0.59841,-0.14715,9.78057
1737373720,22.22,0.0,0.0,0.0,0.5886,-0.15696000000000002,9.81
1742424225,22.22,0.0,0.0,0.0,0.56898,-0.15696000000000002,9.819809999999999
1747474730,22.22,0.0,0.0,0.0,0.59841,-0.11772,9.81
1752525235,22.22,0.0,0.0,0.0,0.5591700000000001,-0.15696000000000002,9.751140000000001
1757575740,22.22,0.0,0.0,0.0,0.60822,-0.16677000000000003,9.78057
1762626245,22.22,0.0,0.0,0.0,0.5886,-0.15696000000000002,9.82962
1767676750,22.22,0.0,0.0,0.0,0.60822,-0.13734000000000002,9.82962
1772727255,22.22,0.0,0.0,0.0,0.5886,-0.16677000000000003,9.81
1777777760,22.22,0.0,0.0,0.0,0.5886,-0.12753,9.74133
1782828265,22.22,0.0,0.0,0.0,0.57879,-0.14715,9.81
1787878770,22.22,0.0,0.0,0.0,0.5886,-0.15696000000000002,9.81
1792929275,22.22,0.0,0.0,0.0,0.57879,-0.14715,9.85905
1797979780,22.22,0.0,0.0,0.0,0.5886,-0.15696000000000002,9.81
1803030285,22.22,0.0,0.0,0.0,0.57879,-0.15696000000000002,9.78057
1808080790,22.22,0.0,0.0,0.0,0.57879,-0.15696000000000002,9.80019
1813131295,22.22,0.0,0.0,0.0,0.59841,-0.15696000000000002,9.81
1818181800,22.22,0.0,0.0,0.0,0.57879,-0.13734000000000002,9.819809999999999
1823232305,22.22,0.0,0.0,0.0,0.5886,-0.15696000000000002,9.83943
1828282810,22.22,0.0,0.0,0.0,0.59841,-0.17658,9.770760000000001
1833333315,22.22,0.0,0.0,0.0,0.60822,-0.18639,9.81
1838383820,22.22,0.0,0.0,0.0,0.59841,-0.13734000000000002,9.81
1843434325,22.22,0.0,0.0,0.0,0.59841,-0.15696000000000002,9.80019
1848484830,22.22,0.0,0.0,0.0,0.57879,-0.15696000000000002,9.79038
1853535335,22.22,0.0,0.0,0.0,0.57879,-0.16677000000000003,9.819809999999999
1858585840,22.22,0.0,0.0,0.0,0.56898,-0.13734000000000002,9.82962
1863636345,22.22,0.0,0.0,0.0,0.5886,-0.15696000000000002,9.83943
1868686850,22.22,0.0,0.0,0.0,0.59841,-0.15696000000000002,9.81
1873737355,22.22,0.0,0.0,0.0,0.5886,-0.15696000000000002,9.81
1878787860,22.22,0.0,0.0,0.0,0.57879,-0.15696000000000002,9.770760000000001
1883838365,22.22,0.0,0.0,0.0,0.5591700000000001,-0.14715,9.80019
1888888870,22.22,0.0,0.0,0.0,0.57879,-0.17658,9.819809999999999
1893939375,22.22,0.0,0.0,0.0,0.5591700000000001,-0.16677000000000003,9.79038
1898989880,22.22,0.0,0.0,0.0,0.60822,-0.15696000000000002,9.79038
1904040385,22.22,0.0,0.0,0.0,0.59841,-0.16677000000000003,9.82962
1909090890,22.22,0.0,0.0,0.0,0.57879,-0.16677000000000003,9.81
1914141395,22.22,0.0,0.0,0.0,0.5886,-0.14715,9.78057
1919191900,22.22,0.0,0.0,0.0,0.59841,-0.14715,9.770760000000001
1924242405,22.22,0.0,0.0,0.0,0.57879,-0.14715,9.819809999999999
1929292910,22.22,0.0,0.0,0.0,0.5886,-0.14715,9.85905
1934343415,22.22,0.0,0.0,0.0,0.57879,-0.15696000000000002,9.83943
1939393920,22.22,0.0,0.0,0.0,0.59841,-0.15696000000000002,9.79038
1944444425,22.22,0.0,0.0,0.0,0.59841,-0.13734000000000002,9.79038
1949494930,22.22,0.0,0.0,0.0,0.60822,-0.13734000000000002,9.79038
1954545435,22.22,0.0,0.0,0.0,0.60822,-0.15696000000000002,9.84924
1959595940,22.22,0.0,0.0,0.0,0.6180300000000001,-0.15696000000000002,9.85905
1964646445,22.22,0.0,0.0,0.0,0.5886,-0.16677000000000003,9.80019
1969696950,22.22,0.0,0.0,0.0,0.5886,-0.15696000000000002,9.78057
1974747455,22.22,0.0,0.0,0.0,0.60822,-0.14715,9.81
1979797960,22.22,0.0,0.0,0.0,0.59841,-0.14715,9.82962
1984848465,22.22,0.0,0.0,0.0,0.57879,-0.11772,9.82962
1989898970,22.22,0.0,0.0,0.0,0.56898,-0.16677000000000003,9.82962
1994949475,22.22,0.0,0.0,0.0,0.6180300000000001,-0.14715,9.78057
1999999980,22.22,0.0,0.0,0.0,0.59841,-0.15696000000000002,9.81
2005050485,22.22,0.0,0.0,0.0,0.60822,-0.14715,9.819809999999999
2010100990,22.22,0.0,0.0,0.0,0.5886,-0.14715,9.84924
2015151495,22.22,0.0,0.0,0.0,0.5886,-0.13734000000000002,9.81
2020202000,22.22,0.0,0.0,0.0,0.5886,-0.15696000000000002,9.80019
2025252505,22.22,0.0,0.0,0.0,0.6180300000000001,-0.15696000000000002,9.79038
2030303010,22.22,0.0,0.0,0.0,0.5886,-0.16677000000000003,9.80019
2035353515,22.22,0.0,0.0,0.0,0.59841,-0.18639,9.819809999999999
2040404020,22.22,0.0,0.0,0.0,0.5886,-0.14715,9.81
2045454525,22.22,0.0,0.0,0.0,0.5591700000000001,-0.15696000000000002,9.79038
2050505030,22.22,0.0,0.0,0.0,0.5886,-0.17658,9.81
2055555535,22.22,0.0,0.0,0.0,0.60822,-0.15696000000000002,9.81
2060606040,22.22,0.0,0.0,0.0,0.5886,-0.14715,9.81
2065656545,22.22,0.0,0.0,0.0,0.59841,-0.14715,9.83943
2070707050,22.22,0.0,0.0,0.0,0.59841,-0.17658,9.84924
2075757555,22.22,0.0,0.0,0.0,0.56898,-0.14715,9.82962
2080808060,22.22,0.0,0.0,0.0,0.5886,-0.17658,9.78057
2085858565,22.22,0.0,0.0,0.0,0.5886,-0.14715,9.78057
2090909070,22.22,0.0,0.0,0.0,0.60822,-0.15696000000000002,9.81
2095959575,22.22,0.0,0.0,0.0,0.59841,-0.14715,9.87867
2101010080,22.22,0.0,0.0,0.0,0.59841,-0.13734000000000002,9.85905
2106060585,22.22,0.0,0.0,0.0,0.5886,-0.16677000000000003,9.79038
2111111090,22.22,0.0,0.0,0.0,0.5591700000000001,-0.15696000000000002,9.770760000000001
2116161595,22.22,0.0,0.0,0.0,0.5591700000000001,-0.13734000000000002,9.80019
2121212100,22.22,0.0,0.0,0.0,0.57879,-0.14715,9.819809999999999
2126262605,22.22,0.0,0.0,0.0,0.5886,-0.16677000000000003,9.82962
2131313110,22.22,0.0,0.0,0.0,0.59841,-0.15696000000000002,9.80019
2136363615,22.22,0.0,0.0,0.0,0.60822,-0.15696000000000002,9.79038
2141414120,22.22,0.0,0.0,0.0,0.59841,-0.15696000000000002,9.79038
2146464625,22.22,0.0,0.0,0.0,0.5886,-0.18639,9.819809999999999
2151515130,22.22,0.0,0.0,0.0,0.57879,-0.12753,9.82962
2156565635,22.22,0.0,0.0,0.0,0.5886,-0.13734000000000002,9.80019
2161616140,22.22,0.0,0.0,0.0,0.5591700000000001,-0.14715,9.79038
2166666645,22.22,0.0,0.0,0.0,0.56898,-0.13734000000000002,9.82962
2171717150,22.22,0.0,0.0,0.0,0.5886,-0.15696000000000002,9.86886
2176767655,22.22,0.0,0.0,0.0,0.5886,-0.16677000000000003,9.81
2181818160,22.22,0.0,0.0,0.0,0.57879,-0.15696000000000002,9.78057
2186868665,22.22,0.0,0.0,0.0,0.57879,-0.13734000000000002,9.78057
2191919170,22.22,0.0,0.0,0.0,0.5886,-0.14715,9.83943
2196969675,22.22,0.0,0.0,0.0,0.5886,-0.16677000000000003,9.84924
2202020180,22.22,0.0,0.0,0.0,0.5886,-0.15696000000000002,9.82962
2207070685,22.22,0.0,0.0,0.0,0.56898,-0.16677000000000003,9.80019
2212121190,22.22,0.0,0.0,0.0,0.57879,-0.15696000000000002,9.78057
2217171695,22.22,0.0,0.0,0.0,0.5886,-0.17658,9.78057
2222222200,22.22,0.0,0.0,0.0,0.5886,-0.13734000000000002,9.81
2227272705,22.22,0.0,0.0,0.0,0.59841,-0.15696000000000002,9.84924
2232323210,22.22,0.0,0.0,0.0,0.56898,-0.13734000000000002,9.83943
2237373715,22.22,0.0,0.0,0.0,0.5886,-0.14715,9.78057
2242424220,22.22,0.0,0.0,0.0,0.5886,-0.16677000000000003,9.81
2247474725,22.22,0.0,0.0,0.0,0.57879,-0.14715,9.819809999999999
2252525230,22.22,0.0,0.0,0.0,0.5886,-0.15696000000000002,9.819809999999999
2257575735,22.22,0.0,0.0,0.0,0.5886,-0.15696000000000002,9.79038
2262626240,22.22,0.0,0.0,0.0,0.5591700000000001,-0.15696000000000002,9.80019
2267676745,22.22,0.0,0.0,0.0,0.59841,-0.16677000000000003,9.819809999999999
2272727250,22.22,0.0,0.0,0.0,0.57879,-0.13734000000000002,9.82962
2277777755,22.22,0.0,0.0,0.0,0.57879,-0.16677000000000003,9.819809999999999
2282828260,22.22,0.0,0.0,0.0,0.59841,-0.14715,9.80019
2287878765,22.22,0.0,0.0,0.0,0.56898,-0.14715,9.81
2292929270,22.22,0.0,0.0,0.0,0.57879,-0.16677000000000003,9.81
2297979775,22.22,0.0,0.0,0.0,0.5886,-0.17658,9.82962
2303030280,22.22,0.0,0.0,0.0,0.60822,-0.15696000000000002,9.82962
2308080785,22.22,0.0,0.0,0.0,0.5886,-0.13734000000000002,9.82962
2313131290,22.22,0.0,0.0,0.0,0.56898,-0.15696000000000002,9.82962
2318181795,22.22,0.0,0.0,0.0,0.57879,-0.15696000000000002,9.79038
2323232300,22.22,0.0,0.0,0.0,0.56898,-0.15696000000000002,9.78057
2328282805,22.22,0.0,0.0,0.0,0.57879,-0.14715,9.82962
2333333310,22.22,0.0,0.0,0.0,0.57879,-0.16677000000000003,9.819809999999999
2338383815,22.22,0.0,0.0,0.0,0.60822,-0.15696000000000002,9.78057
2343434320,22.22,0.0,0.0,0.0,0.57879,-0.12753,9.81
2348484825,22.22,0.0,0.0,0.0,0.59841,-0.15696000000000002,9.78057
2353535330,22.22,0.0,0.0,0.0,0.5886,-0.15696000000000002,9.819809999999999
2358585835,22.22,0.0,0.0,0.0,0.57879,-0.16677000000000003,9.81
2363636340,22.22,0.0,0.0,0.0,0.5886,-0.16677000000000003,9.82962
2368686845,22.22,0.0,0.0,0.0,0.5886,-0.15696000000000002,9.81
2373737350,22.22,0.0,0.0,0.0,0.5886,-0.14715,9.81
2378787855,22.22,0.0,0.0,0.0,0.60822,-0.14715,9.81
2383838360,22.22,0.0,0.0,0.0,0.57879,-0.13734000000000002,9.81
2388888865,22.22,0.0,0.0,0.0,0.5886,-0.14715,9.78057
2393939370,22.22,0.0,0.0,0.0,0.59841,-0.16677000000000003,9.79038
2398989875,22.22,0.0,0.0,0.0,0.5886,-0.14715,9.80019
2404040380,22.22,0.0,0.0,0.0,0.59841,-0.16677000000000003,9.819809999999999
2409090885,22.22,0.0,0.0,0.0,0.57879,-0.14715,9.819809999999999
2414141390,22.22,0.0,0.0,0.0,0.56898,-0.16677000000000003,9.78057
2419191895,22.22,0.0,0.0,0.0,0.5886,-0.14715,9.80019
2424242400,22.22,0.0,0.0,0.0,0.59841,-0.16677000000000003,9.819809999999999
2429292905,22.22,0.0,0.0,0.0,0.56898,-0.14715,9.81
2434343410,22.22,0.0,0.0,0.0,0.5886,-0.15696000000000002,9.83943
2439393915,22.22,0.0,0.0,0.0,0.5886,-0.17658,9.81
2444444420,22.22,0.0,0.0,0.0,0.60822,-0.14715,9.80019
2449494925,22.22,0.0,0.0,0.0,0.5886,-0.14715,9.81
2454545430,22.22,0.0,0.0,0.0,0.59841,-0.15696000000000002,9.819809999999999
2459595935,22.22,0.0,0.0,0.0,0.60822,-0.12753,9.82962
2464646440,22.22,0.0,0.0,0.0,0.57879,-0.18639,9.80019
2469696945,22.22,0.0,0.0,0.0,0.56898,-0.13734000000000002,9.81
2474747450,22.22,0.0,0.0,0.0,0.5886,-0.15696000000000002,9.81
2479797955,22.22,0.0,0.0,0.0,0.5886,-0.16677000000000003,9.83943
2484848460,22.22,0.0,0.0,0.0,0.59841,-0.16677000000000003,9.80019
2489898965,22.22,0.0,0.0,0.0,0.57879,-0.16677000000000003,9.760950000000001
2494949470,22.22,0.0,0.0,0.0,0.5886,-0.15696000000000002,9.81
2499999975,22.22,0.0,0.0,0.0,0.60822,-0.15696000000000002,9.84924
2505050480,22.22,0.0,0.0,0.0,0.57879,-0.13734000000000002,9.84924
2510100985,22.22,0.0,0.0,0.0,0.5591700000000001,-0.14715,9.80019
2515151490,22.22,0.0,0.0,0.0,0.5886,-0.14715,9.770760000000001
2520201995,22.22,0.0,0.0,0.0,0.57879,-0.15696000000000002,9.81
2525252500,22.22,0.0,0.0,0.0,0.59841,-0.15696000000000002,9.83943
2530303005,22.22,0.0,0.0,0.0,0.5886,-0.17658,9.83943
2535353510,22.22,0.0,0.0,0.0,0.57879,-0.16677000000000003,9.81
2540404015,22.22,0.0,0.0,0.0,0.5886,-0.13734000000000002,9.78057
2545454520,22.22,0.0,0.0,0.0,0.56898,-0.15696000000000002,9.81
2550505025,22.22,0.0,0.0,0.0,0.56898,-0.16677000000000003,9.83943
2555555530,22.22,0.0,0.0,0.0,0.59841,-0.18639,9.81
2560606035,22.22,0.0,0.0,0.0,0.5591700000000001,-0.15696000000000002,9.79038
2565656540,22.22,0.0,0.0,0.0,0.59841,-0.12753,9.79038
2570707045,22.22,0.0,0.0,0.0,0.59841,-0.13734000000000002,9.80019
2575757550,22.22,0.0,0.0,0.0,0.5886,-0.15696000000000002,9.82962
2580808055,22.22,0.0,0.0,0.0,0.5886,-0.16677000000000003,9.84924
2585858560,22.22,0.0,0.0,0.0,0.5886,-0.14715,9.78057
2590909065,22.22,0.0,0.0,0.0,0.5886,-0.16677000000000003,9.78057
2595959570,22.22,0.0,0.0,0.0,0.59841,-0.14715,9.819809999999999
2601010075,22.22,0.0,0.0,0.0,0.60822,-0.17658,9.819809999999999
2606060580,22.22,0.0,0.0,0.0,0.5591700000000001,-0.15696000000000002,9.83943
2611111085,22.22,0.0,0.0,0.0,0.59841,-0.11772,9.79038
2616161590,22.22,0.0,0.0,0.0,0.57879,-0.13734000000000002,9.78057
2621212095,22.22,0.0,0.0,0.0,0.60822,-0.16677000000000003,9.79038
2626262600,22.22,0.0,0.0,0.0,0.56898,-0.17658,9.80019
2631313105,22.22,0.0,0.0,0.0,0.60822,-0.13734000000000002,9.83943
2636363610,22.22,0.0,0.0,0.0,0.5886,-0.16677000000000003,9.819809999999999
2641414115,22.22,0.0,0.0,0.0,0.57879,-0.16677000000000003,9.80019
2646464620,22.22,0.0,0.0,0.0,0.5886,-0.15696000000000002,9.81
2651515125,22.22,0.0,0.0,0.0,0.5886,-0.16677000000000003,9.81
2656565630,22.22,0.0,0.0,0.0,0.57879,-0.14715,9.79038
2661616135,22.22,0.0,0.0,0.0,0.57879,-0.14715,9.81
2666666640,22.22,0.0,0.0,0.0,0.6180300000000001,-0.13734000000000002,9.82962
2671717145,22.22,0.0,0.0,0.0,0.57879,-0.13734000000000002,9.80019
2676767650,22.22,0.0,0.0,0.0,0.59841,-0.13734000000000002,9.819809999999999
2681818155,22.22,0.0,0.0,0.0,0.57879,-0.15696000000000002,9.80019
2686868660,22.22,0.0,0.0,0.0,0.57879,-0.15696000000000002,9.81
2691919165,22.22,0.0,0.0,0.0,0.56898,-0.14715,9.819809999999999
2696969670,22.22,0.0,0.0,0.0,0.59841,-0.16677000000000003,9.819809999999999
2702020175,22.22,0.0,0.0,0.0,0.57879,-0.13734000000000002,9.81
2707070680,22.22,0.0,0.0,0.0,0.60822,-0.13734000000000002,9.81
2712121185,22.22,0.0,0.0,0.0,0.57879,-0.15696000000000002,9.81
2717171690,22.22,0.0,0.0,0.0,0.5886,-0.17658,9.81
2722222195,22.22,0.0,0.0,0.0,0.5886,-0.14715,9.81
2727272700,22.22,0.0,0.0,0.0,0.5886,-0.14715,9.79038
2732323205,22.22,0.0,0.0,0.0,0.57879,-0.14715,9.80019
2737373710,22.22,0.0,0.0,0.0,0.60822,-0.14715,9.819809999999999
2742424215,22.22,0.0,0.0,0.0,0.56898,-0.15696000000000002,9.82962
2747474720,22.22,0.0,0.0,0.0,0.5886,-0.15696000000000002,9.81
2752525225,22.22,0.0,0.0,0.0,0.57879,-0.16677000000000003,9.78057
2757575730,22.22,0.0,0.0,0.0,0.59841,-0.13734000000000002,9.770760000000001
2762626235,22.22,0.0,0.0,0.0,0.57879,-0.15696000000000002,9.83943
2767676740,22.22,0.0,0.0,0.0,0.60822,-0.15696000000000002,9.819809999999999
2772727245,22.22,0.0,0.0,0.0,0.60822,-0.13734000000000002,9.80019
2777777750,22.22,0.0,0.0,0.0,0.5886,-0.14715,9.81
2782828255,22.22,0.0,0.0,0.0,0.59841,-0.16677000000000003,9.79038
2787878760,22.22,0.0,0.0,0.0,0.56898,-0.17658,9.82962
2792929265,22.22,0.0,0.0,0.0,0.57879,-0.13734000000000002,9.819809999999999
2797979770,22.22,0.0,0.0,0.0,0.60822,-0.15696000000000002,9.80019
2803030275,22.22,0.0,0.0,0.0,0.5886,-0.14715,9.81
2808080780,22.22,0.0,0.0,0.0,0.60822,-0.18639,9.83943
2813131285,22.22,0.0,0.0,0.0,0.60822,-0.16677000000000003,9.82962
2818181790,22.22,0.0,0.0,0.0,0.59841,-0.14715,9.81
2823232295,22.22,0.0,0.0,0.0,0.59841,-0.15696000000000002,9.78057
2828282800,22.22,0.0,0.0,0.0,0.60822,-0.15696000000000002,9.78057
2833333305,22.22,0.0,0.0,0.0,0.5886,-0.14715,9.819809999999999
2838383810,22.22,0.0,0.0,0.0,0.5886,-0.16677000000000003,9.82962
2843434315,22.22,0.0,0.0,0.0,0.56898,-0.16677000000000003,9.82962
2848484820,22.22,0.0,0.0,0.0,0.59841,-0.14715,9.79038
2853535325,22.22,0.0,0.0,0.0,0.57879,-0.15696000000000002,9.79038
2858585830,22.22,0.0,0.0,0.0,0.5886,-0.15696000000000002,9.82962
2863636335,22.22,0.0,0.0,0.0,0.5886,-0.15696000000000002,9.819809999999999
2868686840,22.22,0.0,0.0,0.0,0.57879,-0.15696000000000002,9.819809999999999
2873737345,22.22,0.0,0.0,0.0,0.5591700000000001,-0.14715,9.819809999999999
2878787850,22.22,0.0,0.0,0.0,0.59841,-0.17658,9.81
2883838355,22.22,0.0,0.0,0.0,0.5886,-0.13734000000000002,9.80019
2888888860,22.22,0.0,0.0,0.0,0.56898,-0.13734000000000002,9.81
2893939365,22.22,0.0,0.0,0.0,0.60822,-0.14715,9.80019
2898989870,22.22,0.0,0.0,0.0,0.57879,-0.13734000000000002,9.79038
2904040375,22.22,0.0,0.0,0.0,0.60822,-0.14715,9.83943
2909090880,22.22,0.0,0.0,0.0,0.5886,-0.14715,9.83943
2914141385,22.22,0.0,0.0,0.0,0.56898,-0.13734000000000002,9.819809999999999
2919191890,22.22,0.0,0.0,0.0,0.57879,-0.14715,9.770760000000001
2924242395,22.22,0.0,0.0,0.0,0.5886,-0.15696000000000002,9.79038
2929292900,22.22,0.0,0.0,0.0,0.59841,-0.14715,9.82962
2934343405,22.22,0.0,0.0,0.0,0.57879,-0.16677000000000003,9.83943
2939393910,22.22,0.0,0.0,0.0,0.59841,-0.15696000000000002,9.82962
2944444415,22.22,0.0,0.0,0.0,0.5591700000000001,-0.13734000000000002,9.760950000000001
2949494920,22.22,0.0,0.0,0.0,0.5591700000000001,-0.13734000000000002,9.78057
2954545425,22.22,0.0,0.0,0.0,0.57879,-0.12753,9.819809999999999
2959595930,22.22,0.0,0.0,0.0,0.59841,-0.14715,9.83943
2964646435,22.22,0.0,0.0,0.0,0.57879,-0.14715,9.81
2969696940,22.22,0.0,0.0,0.0,0.59841,-0.12753,9.81
2974747445,22.22,0.0,0.0,0.0,0.5886,-0.16677000000000003,9.81
2979797950,22.22,0.0,0.0,0.0,0.57879,-0.13734000000000002,9.81
2984848455,22.22,0.0,0.0,0.0,0.5886,-0.16677000000000003,9.819809999999999
2989898960,22.22,0.0,0.0,0.0,0.5591700000000001,-0.13734000000000002,9.819809999999999
2994949465,22.22,0.0,0.0,0.0,0.59841,-0.15696000000000002,9.78057
2999999970,22.22,0.0,0.0,0.0,0.56898,-0.13734000000000002,9.819809999999999
3005050475,22.22,0.0,0.0,0.0,0.59841,-0.12753,9.819809999999999
3010100980,22.22,0.0,0.0,0.0,0.60822,-0.16677000000000003,9.85905
3015151485,22.22,0.0,0.0,0.0,0.5886,-0.15696000000000002,9.81
3020201990,22.22,0.0,0.0,0.0,0.5886,-0.17658,9.78057
3025252495,22.22,0.0,0.0,0.0,0.59841,-0.14715,9.770760000000001
3030303000,22.22,0.0,0.0,0.0,0.60822,-0.14715,9.78057
3035353505,22.22,0.0,0.0,0.0,0.57879,-0.16677000000000003,9.82962
3040404010,22.22,0.0,0.0,0.0,0.5886,-0.14715,9.83943
3045454515,22.22,0.0,0.0,0.0,0.57879,-0.15696000000000002,9.81
3050505020,22.22,0.0,0.0,0.0,0.56898,-0.13734000000000002,9.80019
3055555525,22.22,0.0,0.0,0.0,0.5886,-0.13734000000000002,9.79038
3060606030,22.22,0.0,0.0,0.0,0.59841,-0.14715,9.80019
3065656535,22.22,0.0,0.0,0.0,0.59841,-0.14715,9.82962
3070707040,22.22,0.0,0.0,0.0,0.56898,-0.17658,9.81
3075757545,22.22,0.0,0.0,0.0,0.60822,-0.15696000000000002,9.819809999999999
3080808050,22.22,0.0,0.0,0.0,0.5591700000000001,-0.15696000000000002,9.79038
3085858555,22.22,0.0,0.0,0.0,0.56898,-0.14715,9.770760000000001
3090909060,22.22,0.0,0.0,0.0,0.59841,-0.13734000000000002,9.81
3095959565,22.22,0.0,0.0,0.0,0.5493600000000001,-0.12753,9.819809999999999
3101010070,22.22,0.0,0.0,0.0,0.5886,-0.15696000000000002,9.819809999999999
3106060575,22.22,0.0,0.0,0.0,0.57879,-0.15696000000000002,9.819809999999999
3111111080,22.22,0.0,0.0,0.0,0.5886,-0.15696000000000002,9.80019
3116161585,22.22,0.0,0.0,0.0,0.59841,-0.14715,9.80019
3121212090,22.22,0.0,0.0,0.0,0.5886,-0.14715,9.82962
3126262595,22.22,0.0,0.0,0.0,0.5886,-0.14715,9.819809999999999
3131313100,22.22,0.0,0.0,0.0,0.57879,-0.14715,9.81
3136363605,22.22,0.0,0.0,0.0,0.5886,-0.11772,9.79038
3141414110,22.22,0.0,0.0,0.0,0.59841,-0.14715,9.80019
3146464615,22.22,0.0,0.0,0.0,0.59841,-0.14715,9.819809999999999
3151515120,22.22,0.0,0.0,0.0,0.5886,-0.15696000000000002,9.83943
3156565625,22.22,0.0,0.0,0.0,0.59841,-0.16677000000000003,9.80019
3161616130,22.22,0.0,0.0,0.0,0.5886,-0.15696000000000002,9.770760000000001
3166666635,22.22,0.0,0.0,0.0,0.5886,-0.13734000000000002,9.79038
3171717140,22.22,0.0,0.0,0.0,0.57879,-0.13734000000000002,9.819809999999999
3176767645,22.22,0.0,0.0,0.0,0.5886,-0.14715,9.83943
3181818150,22.22,0.0,0.0,0.0,0.57879,-0.14715,9.819809999999999
3186868655,22.22,0.0,0.0,0.0,0.5886,-0.13734000000000002,9.78057
3191919160,22.22,0.0,0.0,0.0,0.56898,-0.16677000000000003,9.78057
3196969665,22.22,0.0,0.0,0.0,0.56898,-0.15696000000000002,9.80019
3202020170,22.22,0.0,0.0,0.0,0.5886,-0.14715,9.82962
3207070675,22.22,0.0,0.0,0.0,0.5886,-0.16677000000000003,9.83943
3212121180,22.22,0.0,0.0,0.0,0.60822,-0.15696000000000002,9.81
3217171685,22.22,0.0,0.0,0.0,0.57879,-0.16677000000000003,9.770760000000001
3222222190,22.22,0.0,0.0,0.0,0.56898,-0.13734000000000002,9.770760000000001
3227272695,22.22,0.0,0.0,0.0,0.57879,-0.15696000000000002,9.81
3232323200,22.22,0.0,0.0,0.0,0.59841,-0.14715,9.819809999999999
3237373705,22.22,0.0,0.0,0.0,0.59841,-0.15696000000000002,9.82962
3242424210,22.22,0.0,0.0,0.0,0.59841,-0.14715,9.81
3247474715,22.22,0.0,0.0,0.0,0.5886,-0.13734000000000002,9.770760000000001
3252525220,22.22,0.0,0.0,0.0,0.5886,-0.14715,9.80019
3257575725,22.22,0.0,0.0,0.0,0.59841,-0.14715,9.83943
3262626230,22.22,0.0,0.0,0.0,0.60822,-0.16677000000000003,9.84924
3267676735,22.22,0.0,0.0,0.0,0.57879,-0.13734000000000002,9.81
3272727240,22.22,0.0,0.0,0.0,0.5886,-0.12753,9.80019
3277777745,22.22,0.0,0.0,0.0,0.5886,-0.14715,9.79038
3282828250,22.22,0.0,0.0,0.0,0.57879,-0.14715,9.819809999999999
3287878755,22.22,0.0,0.0,0.0,0.60822,-0.17658,9.84924
3292929260,22.22,0.0,0.0,0.0,0.57879,-0.15696000000000002,9.82962
3297979765,22.22,0.0,0.0,0.0,0.5591700000000001,-0.17658,9.760950000000001
3303030270,22.22,0.0,0.0,0.0,0.57879,-0.16677000000000003,9.79038
3308080775,22.22,0.0,0.0,0.0,0.5886,-0.16677000000000003,9.81
3313131280,22.22,0.0,0.0,0.0,0.59841,-0.17658,9.85905
3318181785,22.22,0.0,0.0,0.0,0.5886,-0.15696000000000002,9.83943
3323232290,22.22,0.0,0.0,0.0,0.60822,-0.11772,9.78057
3328282795,22.22,0.0,0.0,0.0,0.56898,-0.15696000000000002,9.74133
3333333300,22.22,0.0,0.0,0.0,0.5395500000000001,-0.16677000000000003,9.79038
3338383805,22.22,0.0,0.0,0.0,0.5886,-0.13734000000000002,9.87867
3343434310,22.22,0.0,0.0,0.0,0.5886,-0.16677000000000003,9.87867
3348484815,22.22,0.0,0.0,0.0,0.5886,-0.14715,9.80019
3353535320,22.22,0.0,0.0,0.0,0.57879,-0.17658,9.74133
3358585825,22.22,0.0,0.0,0.0,0.59841,-0.15696000000000002,9.770760000000001
3363636330,22.22,0.0,0.0,0.0,0.59841,-0.15696000000000002,9.85905
3368686835,22.22,0.0,0.0,0.0,0.57879,-0.15696000000000002,9.83943
3373737340,22.22,0.0,0.0,0.0,0.59841,-0.15696000000000002,9.819809999999999
3378787845,22.22,0.0,0.0,0.0,0.59841,-0.14715,9.770760000000001
3383838350,22.22,0.0,0.0,0.0,0.57879,-0.15696000000000002,9.80019
3388888855,22.22,0.0,0.0,0.0,0.56898,-0.16677000000000003,9.81
3393939360,22.22,0.0,0.0,0.0,0.5886,-0.17658,9.86886
3398989865,22.22,0.0,0.0,0.0,0.57879,-0.17658,9.81
3404040370,22.22,0.0,0.0,0.0,0.57879,-0.15696000000000002,9.770760000000001
3409090875,22.22,0.0,0.0,0.0,0.56898,-0.15696000000000002,9.78057
3414141380,22.22,0.0,0.0,0.0,0.56898,-0.15696000000000002,9.819809999999999
3419191885,22.22,0.0,0.0,0.0,0.57879,-0.14715,9.84924
3424242390,22.22,0.0,0.0,0.0,0.56898,-0.18639,9.82962
3429292895,22.22,0.0,0.0,0.0,0.59841,-0.14715,9.80019
3434343400,22.22,0.0,0.0,0.0,0.56898,-0.16677000000000003,9.770760000000001
3439393905,22.22,0.0,0.0,0.0,0.5886,-0.15696000000000002,9.81
3444444410,22.22,0.0,0.0,0.0,0.5886,-0.12753,9.83943
3449494915,22.22,0.0,0.0,0.0,0.5591700000000001,-0.15696000000000002,9.86886
3454545420,22.22,0.0,0.0,0.0,0.59841,-0.13734000000000002,9.81
3459595925,22.22,0.0,0.0,0.0,0.5886,-0.16677000000000003,9.78057
3464646430,22.22,0.0,0.0,0.0,0.57879,-0.14715,9.80019
3469696935,22.22,0.0,0.0,0.0,0.60822,-0.15696000000000002,9.81
3474747440,22.22,0.0,0.0,0.0,0.59841,-0.13734000000000002,9.80019
3479797945,22.22,0.0,0.0,0.0,0.5886,-0.13734000000000002,9.83943
3484848450,22.22,0.0,0.0,0.0,0.5886,-0.17658,9.81
3489898955,22.22,0.0,0.0,0.0,0.57879,-0.13734000000000002,9.80019
3494949460,22.22,0.0,0.0,0.0,0.57879,-0.16677000000000003,9.80019
3499999965,22.22,0.0,0.0,0.0,0.56898,-0.14715,9.81
3505050470,22.22,0.0,0.0,0.0,0.59841,-0.15696000000000002,9.81
3510100975,22.22,0.0,0.0,0.0,0.6180300000000001,-0.13734000000000002,9.84924
3515151480,22.22,0.0,0.0,0.0,0.56898,-0.14715,9.81
3520201985,22.22,0.0,0.0,0.0,0.57879,-0.17658,9.80019
3525252490,22.22,0.0,0.0,0.0,0.5886,-0.14715,9.760950000000001
3530302995,22.22,0.0,0.0,0.0,0.57879,-0.16677000000000003,9.81
3535353500,22.22,0.0,0.0,0.0,0.60822,-0.16677000000000003,9.81
3540404005,22.22,0.0,0.0,0.0,0.60822,-0.16677000000000003,9.81
3545454510,22.22,0.0,0.0,0.0,0.57879,-0.15696000000000002,9.80019
3550505015,22.22,0.0,0.0,0.0,0.56898,-0.13734000000000002,9.82962
3555555520,22.22,0.0,0.0,0.0,0.59841,-0.14715,9.82962
3560606025,22.22,0.0,0.0,0.0,0.59841,-0.15696000000000002,9.80019
3565656530,22.22,0.0,0.0,0.0,0.59841,-0.15696000000000002,9.78057
3570707035,22.22,0.0,0.0,0.0,0.59841,-0.15696000000000002,9.770760000000001
3575757540,22.22,0.0,0.0,0.0,0.5886,-0.15696000000000002,9.819809999999999
3580808045,22.22,0.0,0.0,0.0,0.5886,-0.18639,9.85905
3585858550,22.22,0.0,0.0,0.0,0.59841,-0.14715,9.82962
3590909055,22.22,0.0,0.0,0.0,0.57879,-0.15696000000000002,9.760950000000001
3595959560,22.22,0.0,0.0,0.0,0.5591700000000001,-0.13734000000000002,9.74133
3601010065,22.22,0.0,0.0,0.0,0.57879,-0.15696000000000002,9.81
3606060570,22.22,0.0,0.0,0.0,0.5886,-0.14715,9.86886
3611111075,22.22,0.0,0.0,0.0,0.59841,-0.11772,9.83943
3616161580,22.22,0.0,0.0,0.0,0.5591700000000001,-0.15696000000000002,9.80019
3621212085,22.22,0.0,0.0,0.0,0.56898,-0.13734000000000002,9.78057
3626262590,22.22,0.0,0.0,0.0,0.56898,-0.16677000000000003,9.81
3631313095,22.22,0.0,0.0,0.0,0.59841,-0.14715,9.83943
3636363600,22.22,0.0,0.0,0.0,0.60822,-0.18639,9.84924
3641414105,22.22,0.0,0.0,0.0,0.59841,-0.14715,9.80019
3646464610,22.22,0.0,0.0,0.0,0.5886,-0.14715,9.81
3651515115,22.22,0.0,0.0,0.0,0.57879,-0.17658,9.819809999999999
3656565620,22.22,0.0,0.0,0.0,0.5886,-0.13734000000000002,9.85905
3661616125,22.22,0.0,0.0,0.0,0.5493600000000001,-0.14715,9.84924
3666666630,22.22,0.0,0.0,0.0,0.5886,-0.14715,9.80019
3671717135,22.22,0.0,0.0,0.0,0.56898,-0.16677000000000003,9.770760000000001
3676767640,22.22,0.0,0.0,0.0,0.5886,-0.12753,9.80019
3681818145,22.22,0.0,0.0,0.0,0.56898,-0.16677000000000003,9.82962
3686868650,22.22,0.0,0.0,0.0,0.5886,-0.14715,9.83943
3691919155,22.22,0.0,0.0,0.0,0.6180300000000001,-0.14715,9.82962
3696969660,22.22,0.0,0.0,0.0,0.5886,-0.14715,9.79038
3702020165,22.22,0.0,0.0,0.0,0.5493600000000001,-0.11772,9.79038
3707070670,22.22,0.0,0.0,0.0,0.60822,-0.15696000000000002,9.819809999999999
3712121175,22.22,0.0,0.0,0.0,0.57879,-0.14715,9.84924
3717171680,22.22,0.0,0.0,0.0,0.59841,-0.17658,9.84924
3722222185,22.22,0.0,0.0,0.0,0.59841,-0.15696000000000002,9.819809999999999
3727272690,22.22,0.0,0.0,0.0,0.5886,-0.13734000000000002,9.81
3732323195,22.22,0.0,0.0,0.0,0.5886,-0.13734000000000002,9.760950000000001
3737373700,22.22,0.0,0.0,0.0,0.57879,-0.16677000000000003,9.81
3742424205,22.22,0.0,0.0,0.0,0.57879,-0.16677000000000003,9.86886
3747474710,22.22,0.0,0.0,0.0,0.60822,-0.13734000000000002,9.81
3752525215,22.22,0.0,0.0,0.0,0.5886,-0.15696000000000002,9.79038
3757575720,22.22,0.0,0.0,0.0,0.5886,-0.13734000000000002,9.760950000000001
3762626225,22.22,0.0,0.0,0.0,0.57879,-0.17658,9.79038
3767676730,22.22,0.0,0.0,0.0,0.5886,-0.17658,9.83943
3772727235,22.22,0.0,0.0,0.0,0.59841,-0.14715,9.85905
3777777740,22.22,0.0,0.0,0.0,0.57879,-0.14715,9.819809999999999
3782828245,22.22,0.0,0.0,0.0,0.5886,-0.13734000000000002,9.760950000000001
3787878750,22.22,0.0,0.0,0.0,0.60822,-0.15696000000000002,9.80019
3792929255,22.22,0.0,0.0,0.0,0.59841,-0.15696000000000002,9.85905
3797979760,22.22,0.0,0.0,0.0,0.57879,-0.15696000000000002,9.87867
3803030265,22.22,0.0,0.0,0.0,0.57879,-0.15696000000000002,9.819809999999999
3808080770,22.22,0.0,0.0,0.0,0.59841,-0.14715,9.770760000000001
3813131275,22.22,0.0,0.0,0.0,0.56898,-0.15696000000000002,9.78057
3818181780,22.22,0.0,0.0,0.0,0.56898,-0.15696000000000002,9.82962
3823232285,22.22,0.0,0.0,0.0,0.60822,-0.15696000000000002,9.87867
3828282790,22.22,0.0,0.0,0.0,0.59841,-0.17658,9.84924
3833333295,22.22,0.0,0.0,0.0,0.5886,-0.16677000000000003,9.73152
3838383800,22.22,0.0,0.0,0.0,0.5886,-0.13734000000000002,9.74133
3843434305,22.22,0.0,0.0,0.0,0.59841,-0.13734000000000002,9.81
3848484810,22.22,0.0,0.0,0.0,0.57879,-0.15696000000000002,9.87867
3853535315,22.22,0.0,0.0,0.0,0.60822,-0.12753,9.84924
3858585820,22.22,0.0,0.0,0.0,0.57879,-0.14715,9.79038
3863636325,22.22,0.0,0.0,0.0,0.5886,-0.15696000000000002,9.760950000000001
3868686830,22.22,0.0,0.0,0.0,0.5493600000000001,-0.13734000000000002,9.79038
3873737335,22.22,0.0,0.0,0.0,0.57879,-0.13734000000000002,9.86886
3878787840,22.22,0.0,0.0,0.0,0.56898,-0.15696000000000002,9.87867
3883838345,22.22,0.0,0.0,0.0,0.59841,-0.15696000000000002,9.81
3888888850,22.22,0.0,0.0,0.0,0.5886,-0.15696000000000002,9.751140000000001
3893939355,22.22,0.0,0.0,0.0,0.57879,-0.14715,9.78057
3898989860,22.22,0.0,0.0,0.0,0.5886,-0.15696000000000002,9.819809999999999
3904040365,22.22,0.0,0.0,0.0,0.5886,-0.14715,9.87867
3909090870,22.22,0.0,0.0,0.0,0.57879,-0.16677000000000003,9.82962
3914141375,22.22,0.0,0.0,0.0,0.5886,-0.15696000000000002,9.819809999999999
3919191880,22.22,0.0,0.0,0.0,0.57879,-0.15696000000000002,9.770760000000001
3924242385,22.22,0.0,0.0,0.0,0.57879,-0.15696000000000002,9.819809999999999
3929292890,22.22,0.0,0.0,0.0,0.57879,-0.14715,9.86886
3934343395,22.22,0.0,0.0,0.0,0.56898,-0.15696000000000002,9.82962
3939393900,22.22,0.0,0.0,0.0,0.5886,-0.15696000000000002,9.770760000000001
3944444405,22.22,0.0,0.0,0.0,0.5886,-0.15696000000000002,9.73152
3949494910,22.22,0.0,0.0,0.0,0.5591700000000001,-0.14715,9.79038
3954545415,22.22,0.0,0.0,0.0,0.57879,-0.16677000000000003,9.85905
3959595920,22.22,0.0,0.0,0.0,0.60822,-0.16677000000000003,9.84924
3964646425,22.22,0.0,0.0,0.0,0.59841,-0.13734000000000002,9.81
3969696930,22.22,0.0,0.0,0.0,0.57879,-0.16677000000000003,9.751140000000001
3974747435,22.22,0.0,0.0,0.0,0.56898,-0.15696000000000002,9.770760000000001
3979797940,22.22,0.0,0.0,0.0,0.57879,-0.15696000000000002,9.82962
3984848445,22.22,0.0,0.0,0.0,0.57879,-0.15696000000000002,9.85905
3989898950,22.22,0.0,0.0,0.0,0.60822,-0.17658,9.82962
3994949455,22.22,0.0,0.0,0.0,0.5886,-0.16677000000000003,9.78057
3999999960,22.22,0.0,0.0,0.0,0.5886,-0.16677000000000003,9.770760000000001
4005050465,22.22,0.0,0.0,0.0,0.57879,-0.14715,9.79038
4010100970,22.22,0.0,0.0,0.0,0.60822,-0.13734000000000002,9.83943
4015151475,22.22,0.0,0.0,0.0,0.5886,-0.14715,9.85905
4020201980,22.22,0.0,0.0,0.0,0.60822,-0.16677000000000003,9.83943
4025252485,22.22,0.0,0.0,0.0,0.59841,-0.13734000000000002,9.760950000000001
4030302990,22.22,0.0,0.0,0.0,0.57879,-0.15696000000000002,9.80019
4035353495,22.22,0.0,0.0,0.0,0.57879,-0.12753,9.83943
4040404000,22.22,0.0,0.0,0.0,0.5886,-0.17658,9.819809999999999
4045454505,22.22,0.0,0.0,0.0,0.57879,-0.14715,9.80019
4050505010,22.22,0.0,0.0,0.0,0.60822,-0.16677000000000003,9.79038
4055555515,22.22,0.0,0.0,0.0,0.57879,-0.14715,9.79038
4060606020,22.22,0.0,0.0,0.0,0.57879,-0.12753,9.819809999999999
4065656525,22.22,0.0,0.0,0.0,0.60822,-0.14715,9.82962
4070707030,22.22,0.0,0.0,0.0,0.59841,-0.11772,9.82962
4075757535,22.22,0.0,0.0,0.0,0.59841,-0.16677000000000003,9.80019
4080808040,22.22,0.0,0.0,0.0,0.5886,-0.13734000000000002,9.751140000000001
4085858545,22.22,0.0,0.0,0.0,0.60822,-0.15696000000000002,9.81
4090909050,22.22,0.0,0.0,0.0,0.5886,-0.14715,9.81
4095959555,22.22,0.0,0.0,0.0,0.57879,-0.14715,9.819809999999999
4101010060,22.22,0.0,0.0,0.0,0.59841,-0.16677000000000003,9.81
4106060565,22.22,0.0,0.0,0.0,0.56898,-0.16677000000000003,9.79038
4111111070,22.22,0.0,0.0,0.0,0.57879,-0.16677000000000003,9.79038
4116161575,22.22,0.0,0.0,0.0,0.5886,-0.15696000000000002,9.819809999999999
4121212080,22.22,0.0,0.0,0.0,0.5886,-0.16677000000000003,9.85905
4126262585,22.22,0.0,0.0,0.0,0.59841,-0.15696000000000002,9.82962
4131313090,22.22,0.0,0.0,0.0,0.5886,-0.15696000000000002,9.80019
4136363595,22.22,0.0,0.0,0.0,0.57879,-0.15696000000000002,9.79038
4141414100,22.22,0.0,0.0,0.0,0.5886,-0.17658,9.79038
4146464605,22.22,0.0,0.0,0.0,0.59841,-0.15696000000000002,9.81
4151515110,22.22,0.0,0.0,0.0,0.59841,-0.16677000000000003,9.84924
4156565615,22.22,0.0,0.0,0.0,0.59841,-0.13734000000000002,9.83943
4161616120,22.22,0.0,0.0,0.0,0.57879,-0.13734000000000002,9.78057
4166666625,22.22,0.0,0.0,0.0,0.5886,-0.13734000000000002,9.80019
4171717130,22.22,0.0,0.0,0.0,0.59841,-0.17658,9.79038
4176767635,22.22,0.0,0.0,0.0,0.5886,-0.14715,9.84924
4181818140,22.22,0.0,0.0,0.0,0.57879,-0.13734000000000002,9.819809999999999
4186868645,22.22,0.0,0.0,0.0,0.57879,-0.16677000000000003,9.770760000000001
4191919150,22.22,0.0,0.0,0.0,0.5886,-0.13734000000000002,9.80019
4196969655,22.22,0.0,0.0,0.0,0.59841,-0.16677000000000003,9.819809999999999
4202020160,22.22,0.0,0.0,0.0,0.5886,-0.15696000000000002,9.83943
4207070665,22.22,0.0,0.0,0.0,0.59841,-0.18639,9.83943
4212121170,22.22,0.0,0.0,0.0,0.5886,-0.13734000000000002,9.770760000000001
4217171675,22.22,0.0,0.0,0.0,0.5886,-0.14715,9.80019
4222222180,22.22,0.0,0.0,0.0,0.57879,-0.14715,9.84924
4227272685,22.22,0.0,0.0,0.0,0.5886,-0.16677000000000003,9.82962
4232323190,22.22,0.0,0.0,0.0,0.5886,-0.15696000000000002,9.81
4237373695,22.22,0.0,0.0,0.0,0.56898,-0.16677000000000003,9.770760000000001
4242424200,22.22,0.0,0.0,0.0,0.57879,-0.15696000000000002,9.78057
4247474705,22.22,0.0,0.0,0.0,0.57879,-0.16677000000000003,9.82962
4252525210,22.22,0.0,0.0,0.0,0.60822,-0.15696000000000002,9.89829
4257575715,22.22,0.0,0.0,0.0,0.60822,-0.17658,9.84924
4262626220,22.22,0.0,0.0,0.0,0.59841,-0.15696000000000002,9.78057
4267676725,22.22,0.0,0.0,0.0,0.6180300000000001,-0.16677000000000003,9.751140000000001
4272727230,22.22,0.0,0.0,0.0,0.59841,-0.17658,9.79038
4277777735,22.22,0.0,0.0,0.0,0.57879,-0.14715,9.85905
4282828240,22.22,0.0,0.0,0.0,0.5886,-0.14715,9.84924
4287878745,22.22,0.0,0.0,0.0,0.59841,-0.15696000000000002,9.80019
4292929250,22.22,0.0,0.0,0.0,0.5591700000000001,-0.16677000000000003,9.751140000000001
4297979755,22.22,0.0,0.0,0.0,0.5886,-0.13734000000000002,9.78057
4303030260,22.22,0.0,0.0,0.0,0.56898,-0.16677000000000003,9.82962
4308080765,22.22,0.0,0.0,0.0,0.59841,-0.13734000000000002,9.84924
4313131270,22.22,0.0,0.0,0.0,0.56898,-0.13734000000000002,9.82962
4318181775,22.22,0.0,0.0,0.0,0.57879,-0.14715,9.79038
4323232280,22.22,0.0,0.0,0.0,0.56898,-0.13734000000000002,9.78057
4328282785,22.22,0.0,0.0,0.0,0.5886,-0.14715,9.82962
4333333290,22.22,0.0,0.0,0.0,0.57879,-0.16677000000000003,9.82962
4338383795,22.22,0.0,0.0,0.0,0.56898,-0.15696000000000002,9.819809999999999
4343434300,22.22,0.0,0.0,0.0,0.5886,-0.14715,9.80019
4348484805,22.22,0.0,0.0,0.0,0.59841,-0.13734000000000002,9.79038
4353535310,22.22,0.0,0.0,0.0,0.59841,-0.16677000000000003,9.80019
4358585815,22.22,0.0,0.0,0.0,0.57879,-0.17658,9.82962
4363636320,22.22,0.0,0.0,0.0,0.57879,-0.15696000000000002,9.82962
4368686825,22.22,0.0,0.0,0.0,0.57879,-0.13734000000000002,9.80019
4373737330,22.22,0.0,0.0,0.0,0.57879,-0.16677000000000003,9.760950000000001
4378787835,22.22,0.0,0.0,0.0,0.5886,-0.12753,9.80019
4383838340,22.22,0.0,0.0,0.0,0.5886,-0.17658,9.819809999999999
4388888845,22.22,0.0,0.0,0.0,0.56898,-0.16677000000000003,9.82962
4393939350,22.22,0.0,0.0,0.0,0.57879,-0.17658,9.84924
4398989855,22.22,0.0,0.0,0.0,0.5886,-0.14715,9.80019
4404040360,22.22,0.0,0.0,0.0,0.5886,-0.14715,9.78057
4409090865,22.22,0.0,0.0,0.0,0.60822,-0.14715,9.81
4414141370,22.22,0.0,0.0,0.0,0.56898,-0.14715,9.82962
4419191875,22.22,0.0,0.0,0.0,0.57879,-0.16677000000000003,9.85905
4424242380,22.22,0.0,0.0,0.0,0.59841,-0.15696000000000002,9.81
4429292885,22.22,0.0,0.0,0.0,0.5591700000000001,-0.13734000000000002,9.751140000000001
4434343390,22.22,0.0,0.0,0.0,0.56898,-0.12753,9.80019
4439393895,22.22,0.0,0.0,0.0,0.57879,-0.15696000000000002,9.83943
4444444400,22.22,0.0,0.0,0.0,0.5886,-0.15696000000000002,9.85905
4449494905,22.22,0.0,0.0,0.0,0.57879,-0.11772,9.81
4454545410,22.22,0.0,0.0,0.0,0.5886,-0.15696000000000002,9.78057
4459595915,22.22,0.0,0.0,0.0,0.56898,-0.15696000000000002,9.79038
4464646420,22.22,0.0,0.0,0.0,0.59841,-0.16677000000000003,9.85905
4469696925,22.22,0.0,0.0,0.0,0.60822,-0.16677000000000003,9.86886
4474747430,22.22,0.0,0.0,0.0,0.59841,-0.16677000000000003,9.78057
4479797935,22.22,0.0,0.0,0.0,0.5591700000000001,-0.15696000000000002,9.770760000000001
4484848440,22.22,0.0,0.0,0.0,0.5886,-0.14715,9.79038
4489898945,22.22,0.0,0.0,0.0,0.5886,-0.16677000000000003,9.82962
4494949450,22.22,0.0,0.0,0.0,0.5886,-0.14715,9.83943
4499999955,22.22,0.0,0.0,0.0,0.56898,-0.14715,9.81
4505050460,22.22,0.0,0.0,0.0,0.5886,-0.14715,9.80019
4510100965,22.22,0.0,0.0,0.0,0.60822,-0.14715,9.78057
4515151470,22.22,0.0,0.0,0.0,0.59841,-0.16677000000000003,9.81
4520201975,22.22,0.0,0.0,0.0,0.5886,-0.12753,9.82962
4525252480,22.22,0.0,0.0,0.0,0.57879,-0.16677000000000003,9.83943
4530302985,22.22,0.0,0.0,0.0,0.5493600000000001,-0.14715,9.78057
4535353490,22.22,0.0,0.0,0.0,0.59841,-0.15696000000000002,9.81
4540403995,22.22,0.0,0.0,0.0,0.57879,-0.14715,9.81
4545454500,22.22,0.0,0.0,0.0,0.57879,-0.16677000000000003,9.819809999999999
4550505005,22.22,0.0,0.0,0.0,0.56898,-0.17658,9.82962
4555555510,22.22,0.0,0.0,0.0,0.56898,-0.15696000000000002,9.819809999999999
4560606015,22.22,0.0,0.0,0.0,0.60822,-0.13734000000000002,9.81
4565656520,22.22,0.0,0.0,0.0,0.60822,-0.13734000000000002,9.80019
4570707025,22.22,0.0,0.0,0.0,0.59841,-0.15696000000000002,9.81
4575757530,22.22,0.0,0.0,0.0,0.59841,-0.13734000000000002,9.819809999999999
4580808035,22.22,0.0,0.0,0.0,0.5886,-0.16677000000000003,9.82962
4585858540,22.22,0.0,0.0,0.0,0.5886,-0.15696000000000002,9.79038
4590909045,22.22,0.0,0.0,0.0,0.59841,-0.15696000000000002,9.79038
4595959550,22.22,0.0,0.0,0.0,0.5886,-0.16677000000000003,9.760950000000001
4601010055,22.22,0.0,0.0,0.0,0.57879,-0.16677000000000003,9.819809999999999
4606060560,22.22,0.0,0.0,0.0,0.59841,-0.14715,9.82962
4611111065,22.22,0.0,0.0,0.0,0.57879,-0.13734000000000002,9.819809999999999
4616161570,22.22,0.0,0.0,0.0,0.59841,-0.17658,9.78057
4621212075,22.22,0.0,0.0,0.0,0.5886,-0.15696000000000002,9.80019
4626262580,22.22,0.0,0.0,0.0,0.60822,-0.13734000000000002,9.81
4631313085,22.22,0.0,0.0,0.0,0.56898,-0.17658,9.83943
4636363590,22.22,0.0,0.0,0.0,0.5886,-0.14715,9.82962
4641414095,22.22,0.0,0.0,0.0,0.59841,-0.17658,9.80019
4646464600,22.22,0.0,0.0,0.0,0.57879,-0.15696000000000002,9.79038
4651515105,22.22,0.0,0.0,0.0,0.59841,-0.17658,9.79038
4656565610,22.22,0.0,0.0,0.0,0.60822,-0.14715,9.819809999999999
4661616115,22.22,0.0,0.0,0.0,0.59841,-0.13734000000000002,9.85905
4666666620,22.22,0.0,0.0,0.0,0.5886,-0.15696000000000002,9.81
4671717125,22.22,0.0,0.0,0.0,0.57879,-0.14715,9.79038
4676767630,22.22,0.0,0.0,0.0,0.57879,-0.13734000000000002,9.81
4681818135,22.22,0.0,0.0,0.0,0.59841,-0.14715,9.83943
4686868640,22.22,0.0,0.0,0.0,0.59841,-0.13734000000000002,9.83943
4691919145,22.22,0.0,0.0,0.0,0.59841,-0.14715,9.81
4696969650,22.22,0.0,0.0,0.0,0.5886,-0.14715,9.80019
4702020155,22.22,0.0,0.0,0.0,0.59841,-0.17658,9.81
4707070660,22.22,0.0,0.0,0.0,0.57879,-0.14715,9.819809999999999
4712121165,22.22,0.0,0.0,0.0,0.59841,-0.13734000000000002,9.80019
4717171670,22.22,0.0,0.0,0.0,0.60822,-0.13734000000000002,9.79038
4722222175,22.22,0.0,0.0,0.0,0.57879,-0.14715,9.80019
4727272680,22.22,0.0,0.0,0.0,0.59841,-0.17658,9.81
4732323185,22.22,0.0,0.0,0.0,0.56898,-0.13734000000000002,9.819809999999999
4737373690,22.22,0.0,0.0,0.0,0.5886,-0.14715,9.79038
4742424195,22.22,0.0,0.0,0.0,0.60822,-0.14715,9.79038
4747474700,22.22,0.0,0.0,0.0,0.5886,-0.16677000000000003,9.819809999999999
4752525205,22.22,0.0,0.0,0.0,0.56898,-0.14715,9.81
4757575710,22.22,0.0,0.0,0.0,0.57879,-0.15696000000000002,9.82962
4762626215,22.22,0.0,0.0,0.0,0.5886,-0.16677000000000003,9.79038
4767676720,22.22,0.0,0.0,0.0,0.59841,-0.12753,9.79038
4772727225,22.22,0.0,0.0,0.0,0.60822,-0.14715,9.819809999999999
4777777730,22.22,0.0,0.0,0.0,0.57879,-0.15696000000000002,9.82962
4782828235,22.22,0.0,0.0,0.0,0.59841,-0.15696000000000002,9.78057
4787878740,22.22,0.0,0.0,0.0,0.57879,-0.15696000000000002,9.81
4792929245,22.22,0.0,0.0,0.0,0.60822,-0.15696000000000002,9.819809999999999
4797979750,22.22,0.0,0.0,0.0,0.59841,-0.15696000000000002,9.83943
4803030255,22.22,0.0,0.0,0.0,0.5886,-0.12753,9.80019
4808080760,22.22,0.0,0.0,0.0,0.5886,-0.14715,9.79038
4813131265,22.22,0.0,0.0,0.0,0.5886,-0.13734000000000002,9.81
4818181770,22.22,0.0,0.0,0.0,0.5886,-0.16677000000000003,9.819809999999999
4823232275,22.22,0.0,0.0,0.0,0.5886,-0.14715,9.84924
4828282780,22.22,0.0,0.0,0.0,0.5886,-0.15696000000000002,9.82962
4833333285,22.22,0.0,0.0,0.0,0.56898,-0.15696000000000002,9.80019
4838383790,22.22,0.0,0.0,0.0,0.5886,-0.14715,9.79038
4843434295,22.22,0.0,0.0,0.0,0.57879,-0.15696000000000002,9.82962
4848484800,22.22,0.0,0.0,0.0,0.5493600000000001,-0.14715,9.81
4853535305,22.22,0.0,0.0,0.0,0.57879,-0.16677000000000003,9.82962
4858585810,22.22,0.0,0.0,0.0,0.56898,-0.13734000000000002,9.78057
4863636315,22.22,0.0,0.0,0.0,0.59841,-0.15696000000000002,9.819809999999999
4868686820,22.22,0.0,0.0,0.0,0.57879,-0.15696000000000002,9.80019
4873737325,22.22,0.0,0.0,0.0,0.60822,-0.15696000000000002,9.82962
4878787830,22.22,0.0,0.0,0.0,0.5591700000000001,-0.14715,9.80019
4883838335,22.22,0.0,0.0,0.0,0.56898,-0.15696000000000002,9.79038
4888888840,22.22,0.0,0.0,0.0,0.56898,-0.14715,9.819809999999999
4893939345,22.22,0.0,0.0,0.0,0.5591700000000001,-0.16677000000000003,9.80019
4898989850,22.22,0.0,0.0,0.0,0.5886,-0.14715,9.83943
4904040355,22.22,0.0,0.0,0.0,0.57879,-0.16677000000000003,9.79038
4909090860,22.22,0.0,0.0,0.0,0.56898,-0.14715,9.78057
4914141365,22.22,0.0,0.0,0.0,0.57879,-0.15696000000000002,9.819809999999999
4919191870,22.22,0.0,0.0,0.0,0.59841,-0.15696000000000002,9.81
4924242375,22.22,0.0,0.0,0.0,0.57879,-0.14715,9.82962
4929292880,22.22,0.0,0.0,0.0,0.59841,-0.15696000000000002,9.81
4934343385,22.22,0.0,0.0,0.0,0.57879,-0.16677000000000003,9.80019
4939393890,22.22,0.0,0.0,0.0,0.5886,-0.16677000000000003,9.80019
4944444395,22.22,0.0,0.0,0.0,0.60822,-0.15696000000000002,9.82962
4949494900,22.22,0.0,0.0,0.0,0.57879,-0.14715,9.819809999999999
4954545405,22.22,0.0,0.0,0.0,0.59841,-0.14715,9.81
4959595910,22.22,0.0,0.0,0.0,0.57879,-0.15696000000000002,9.81
4964646415,22.22,0.0,0.0,0.0,0.57879,-0.13734000000000002,9.80019
4969696920,22.22,0.0,0.0,0.0,0.57879,-0.15696000000000002,9.819809999999999
4974747425,22.22,0.0,0.0,0.0,0.57879,-0.15696000000000002,9.819809999999999
4979797930,22.22,0.0,0.0,0.0,0.5886,-0.14715,9.81
4984848435,22.22,0.0,0.0,0.0,0.57879,-0.13734000000000002,9.80019
4989898940,22.22,0.0,0.0,0.0,0.60822,-0.14715,9.81
4994949445,22.22,0.0,0.0,0.0,0.57879,-0.15696000000000002,9.82962
4999999950,22.22,0.0,0.0,0.0,0.59841,-0.12753,9.81
5005050455,22.22,0.0,0.0,0.0,0.59841,-0.15696000000000002,9.80019
5010100960,22.22,0.0,0.0,0.0,0.59841,-0.12753,9.81
5015151465,22.22,0.0,0.0,0.0,0.5886,-0.17658,9.770760000000001
5020201970,22.22,0.0,0.0,0.0,0.59841,-0.16677000000000003,9.83943
5025252475,22.22,0.0,0.0,0.0,0.57879,-0.14715,9.819809999999999
5030302980,22.22,0.0,0.0,0.0,0.56898,-0.15696000000000002,9.81
5035353485,22.22,0.0,0.0,0.0,0.56898,-0.15696000000000002,9.81
5040403990,22.22,0.0,0.0,0.0,0.56898,-0.15696000000000002,9.79038
5045454495,22.22,0.0,0.0,0.0,0.59841,-0.15696000000000002,9.78057
5050505000,22.22,0.0,0.0,0.0,0.59841,-0.17658,9.81
5055555505,22.22,0.0,0.0,0.0,0.57879,-0.15696000000000002,9.84924
5060606010,22.22,0.0,0.0,0.0,0.5493600000000001,-0.12753,9.83943
5065656515,22.22,0.0,0.0,0.0,0.59841,-0.16677000000000003,9.81
5070707020,22.22,0.0,0.0,0.0,0.5886,-0.15696000000000002,9.78057
5075757525,22.22,0.0,0.0,0.0,0.56898,-0.15696000000000002,9.80019
5080808030,22.22,0.0,0.0,0.0,0.59841,-0.15696000000000002,9.83943
5085858535,22.22,0.0,0.0,0.0,0.56898,-0.14715,9.84924
5090909040,22.22,0.0,0.0,0.0,0.57879,-0.15696000000000002,9.81
5095959545,22.22,0.0,0.0,0.0,0.57879,-0.13734000000000002,9.78057
5101010050,22.22,0.0,0.0,0.0,0.56898,-0.17658,9.78057
5106060555,22.22,0.0,0.0,0.0,0.60822,-0.12753,9.83943
5111111060,22.22,0.0,0.0,0.0,0.5886,-0.14715,9.86886
5116161565,22.22,0.0,0.0,0.0,0.5886,-0.13734000000000002,9.83943
5121212070,22.22,0.0,0.0,0.0,0.56898,-0.14715,9.80019
5126262575,22.22,0.0,0.0,0.0,0.60822,-0.15696000000000002,9.760950000000001
5131313080,22.22,0.0,0.0,0.0,0.56898,-0.16677000000000003,9.79038
5136363585,22.22,0.0,0.0,0.0,0.60822,-0.16677000000000003,9.84924
5141414090,22.22,0.0,0.0,0.0,0.59841,-0.14715,9.82962
5146464595,22.22,0.0,0.0,0.0,0.59841,-0.13734000000000002,9.79038
5151515100,22.22,0.0,0.0,0.0,0.56898,-0.16677000000000003,9.78057
5156565605,22.22,0.0,0.0,0.0,0.56898,-0.15696000000000002,9.79038
5161616110,22.22,0.0,0.0,0.0,0.60822,-0.15696000000000002,9.819809999999999
5166666615,22.22,0.0,0.0,0.0,0.5886,-0.16677000000000003,9.819809999999999
5171717120,22.22,0.0,0.0,0.0,0.59841,-0.13734000000000002,9.79038
5176767625,22.22,0.0,0.0,0.0,0.56898,-0.15696000000000002,9.78057
5181818130,22.22,0.0,0.0,0.0,0.60822,-0.12753,9.80019
5186868635,22.22,0.0,0.0,0.0,0.59841,-0.14715,9.82962
5191919140,22.22,0.0,0.0,0.0,0.59841,-0.16677000000000003,9.84924
5196969645,22.22,0.0,0.0,0.0,0.59841,-0.15696000000000002,9.81
5202020150,22.22,0.0,0.0,0.0,0.60822,-0.16677000000000003,9.79038
5207070655,22.22,0.0,0.0,0.0,0.59841,-0.17658,9.80019
5212121160,22.22,0.0,0.0,0.0,0.57879,-0.15696000000000002,9.81
5217171665,22.22,0.0,0.0,0.0,0.59841,-0.14715,9.83943
5222222170,22.22,0.0,0.0,0.0,0.59841,-0.13734000000000002,9.81
5227272675,22.22,0.0,0.0,0.0,0.56898,-0.15696000000000002,9.819809999999999
5232323180,22.22,0.0,0.0,0.0,0.56898,-0.11772,9.81
5237373685,22.22,0.0,0.0,0.0,0.57879,-0.15696000000000002,9.80019
5242424190,22.22,0.0,0.0,0.0,0.60822,-0.14715,9.81
5247474695,22.22,0.0,0.0,0.0,0.57879,-0.15696000000000002,9.819809999999999
5252525200,22.22,0.0,0.0,0.0,0.59841,-0.16677000000000003,9.82962
5257575705,22.22,0.0,0.0,0.0,0.56898,-0.14715,9.81
5262626210,22.22,0.0,0.0,0.0,0.5886,-0.15696000000000002,9.81
5267676715,22.22,0.0,0.0,0.0,0.60822,-0.12753,9.78057
5272727220,22.22,0.0,0.0,0.0,0.56898,-0.18639,9.81
5277777725,22.22,0.0,0.0,0.0,0.59841,-0.17658,9.819809999999999
5282828230,22.22,0.0,0.0,0.0,0.5886,-0.16677000000000003,9.81
5287878735,22.22,0.0,0.0,0.0,0.59841,-0.16677000000000003,9.81
5292929240,22.22,0.0,0.0,0.0,0.5886,-0.15696000000000002,9.80019
5297979745,22.22,0.0,0.0,0.0,0.59841,-0.14715,9.80019
5303030250,22.22,0.0,0.0,0.0,0.57879,-0.16677000000000003,9.82962
5308080755,22.22,0.0,0.0,0.0,0.5886,-0.13734000000000002,9.819809999999999
5313131260,22.22,0.0,0.0,0.0,0.59841,-0.15696000000000002,9.80019
5318181765,22.22,0.0,0.0,0.0,0.59841,-0.15696000000000002,9.81
5323232270,22.22,0.0,0.0,0.0,0.5886,-0.15696000000000002,9.78057
5328282775,22.22,0.0,0.0,0.0,0.5886,-0.14715,9.81
5333333280,22.22,0.0,0.0,0.0,0.60822,-0.15696000000000002,9.81
5338383785,22.22,0.0,0.0,0.0,0.5886,-0.17658,9.81
5343434290,22.22,0.0,0.0,0.0,0.5591700000000001,-0.16677000000000003,9.770760000000001
5348484795,22.22,0.0,0.0,0.0,0.5886,-0.14715,9.819809999999999
5353535300,22.22,0.0,0.0,0.0,0.59841,-0.15696000000000002,9.83943
5358585805,22.22,0.0,0.0,0.0,0.5886,-0.15696000000000002,9.819809999999999
5363636310,22.22,0.0,0.0,0.0,0.5886,-0.16677000000000003,9.78057
5368686815,22.22,0.0,0.0,0.0,0.57879,-0.15696000000000002,9.78057
5373737320,22.22,0.0,0.0,0.0,0.5886,-0.16677000000000003,9.83943
5378787825,22.22,0.0,0.0,0.0,0.5886,-0.15696000000000002,9.82962
5383838330,22.22,0.0,0.0,0.0,0.5886,-0.13734000000000002,9.770760000000001
5388888835,22.22,0.0,0.0,0.0,0.57879,-0.14715,9.78057
5393939340,22.22,0.0,0.0,0.0,0.5886,-0.12753,9.79038
5398989845,22.22,0.0,0.0,0.0,0.59841,-0.15696000000000002,9.83943
5404040350,22.22,0.0,0.0,0.0,0.5886,-0.13734000000000002,9.83943
5409090855,22.22,0.0,0.0,0.0,0.5591700000000001,-0.17658,9.80019
5414141360,22.22,0.0,0.0,0.0,0.5886,-0.16677000000000003,9.78057
5419191865,22.22,0.0,0.0,0.0,0.5886,-0.14715,9.81
5424242370,22.22,0.0,0.0,0.0,0.57879,-0.14715,9.819809999999999
5429292875,22.22,0.0,0.0,0.0,0.56898,-0.14715,9.85905
5434343380,22.22,0.0,0.0,0.0,0.5886,-0.16677000000000003,9.819809999999999
5439393885,22.22,0.0,0.0,0.0,0.57879,-0.15696000000000002,9.78057
5444444390,22.22,0.0,0.0,0.0,0.6180300000000001,-0.17658,9.80019
5449494895,22.22,0.0,0.0,0.0,0.57879,-0.18639,9.81
5454545400,22.22,0.0,0.0,0.0,0.60822,-0.15696000000000002,9.84924
5459595905,22.22,0.0,0.0,0.0,0.5886,-0.15696000000000002,9.82962
5464646410,22.22,0.0,0.0,0.0,0.59841,-0.12753,9.81
5469696915,22.22,0.0,0.0,0.0,0.5886,-0.14715,9.80019
5474747420,22.22,0.0,0.0,0.0,0.5886,-0.16677000000000003,9.80019
5479797925,22.22,0.0,0.0,0.0,0.60822,-0.15696000000000002,9.82962
5484848430,22.22,0.0,0.0,0.0,0.59841,-0.13734000000000002,9.81
5489898935,22.22,0.0,0.0,0.0,0.59841,-0.13734000000000002,9.79038
5494949440,22.22,0.0,0.0,0.0,0.57879,-0.15696000000000002,9.81
5499999945,22.22,0.0,0.0,0.0,0.5493600000000001,-0.10791,9.79038
5505050450,22.22,0.0,0.05646140130201656,0.0,0.46107000000000004,-0.019620000000000002,9.751140000000001
5510100955,22.22,0.008517206749732328,0.07883652231258387,0.0,0.31392000000000003,-0.17658,9.94734
5515151460,22.22,-0.002129301687433082,0.14700908289548237,0.0170518667919846,0.36297,-0.04905,9.80019
5520201965,22.22,0.007452555906015787,0.16191419470751395,-0.002129301687433082,0.12753,0.05886,9.23121
5525252470,22.22,-0.020245819323134222,0.10119419003063122,0.001064650843716541,0.16677000000000003,-0.019620000000000002,9.83943
5530302975,22.22,-0.011711159280881954,0.09054768159346581,0.007452555906015787,0.16677000000000003,0.009810000000000001,10.12392
5535353480,22.22,-0.031956978604016174,-0.021310470166850764,0.001064650843716541,0.08829,-0.17658,10.398600000000002
5540403985,22.22,-0.024504422698000388,-0.05113814708343386,-0.003193952531149623,0.11772,-0.20601000000000003,9.819809999999999
5545454490,22.22,-0.03728023282259888,-0.1704488547497662,-0.01918116847941768,0.12753,-0.38259000000000004,9.69228
5550504995,22.22,-0.03089232776029963,-0.21731094516581398,-0.005323254218582705,0.46107000000000004,-0.51993,9.30969
5555555500,22.22,-0.008517206749732328,-0.23755676448894822,-0.006387905062299246,0.63765,-0.5493600000000001,9.82962
5560606005,22.22,0.014905111812031574,-0.23649211364523165,-0.007452555906015787,1.04967,-0.5886,10.47708
5565656510,22.22,0.02663372438543347,-0.16617279808238014,-0.002129301687433082,1.1183400000000001,-0.41202000000000005,10.27107
5570707015,22.22,0.05220279792715039,-0.11079350091660004,-0.004258603374866164,1.01043,-0.41202000000000005,9.53532
5575757520,22.22,0.0756251164889143,-0.024504422698000388,-0.001064650843716541,1.03986,-0.30411,9.172350000000002
5580808025,22.22,0.08841837990603273,0.0,-0.001064650843716541,0.95157,-0.05886,9.182160000000001
5585858530,22.22,0.0852244273748831,0.039409534510031964,0.007452555906015787,0.9123300000000001,0.17658,10.01601
5590909035,22.22,0.06391395720803235,0.039409534510031964,0.005323254218582705,0.86328,0.17658,10.19259
5595959540,22.22,0.028763026072866547,0.0,0.001064650843716541,0.85347,0.27468000000000004,10.32993
5601010045,22.22,0.0,0.008517206749732328,-0.004258603374866164,0.85347,0.18639,9.82962
5606060550,22.22,-0.01064650843716541,-0.024504422698000388,-0.008517206749732328,0.84366,0.11772,9.191970000000001
5611111055,22.22,-0.01918116847941768,0.02663372438543347,0.004258603374866164,0.9221400000000001,0.039240000000000004,9.46665
5616161560,22.22,-0.04153883619746504,0.049008845396000776,-0.002129301687433082,0.9123300000000001,-0.009810000000000001,9.73152
5621212065,22.22,-0.046879543708567686,0.12037535851004891,0.006387905062299246,0.8829,-0.04905,9.95715
5626262570,22.22,-0.05965535383316618,0.18748326824923087,0.007452555906015787,0.6670800000000001,-0.12753,9.83943
5631313075,22.22,-0.06497860805174888,0.18216001403064813,0.004258603374866164,0.51993,-0.15696000000000002,9.74133
5636363580,22.22,-0.06923721142661506,0.19921188082263275,0.007452555906015787,0.45126,-0.20601000000000003,9.633420000000001
5641414085,22.22,-0.05646140130201656,0.15659094048893124,0.0,0.24525000000000002,-0.27468000000000004,9.95715
5646464590,22.22,-0.05220279792715039,0.16404349639494703,0.00958185759344887,0.15696000000000002,-0.3924,10.17297
5651515095,22.22,-0.03408628029144926,0.14594443205176583,-0.003193952531149623,0.019620000000000002,-0.31392000000000003,9.888480000000001
5656565600,22.22,-0.039409534510031964,0.09906488834319814,-0.002129301687433082,0.0,-0.46107000000000004,9.72171
5661616105,22.22,-0.013840460968315033,0.10225884087434776,0.005323254218582705,0.0,-0.38259000000000004,9.69228
5666666610,22.22,-0.004258603374866164,0.014905111812031574,0.002129301687433082,-0.08829,-0.42183,9.84924
5671717115,22.22,0.015987215948268057,-0.001064650843716541,0.007452555906015787,-0.06867000000000001,-0.36297,10.03563
5676767620,22.22,0.02982767691658309,-0.08735372906231618,-0.00958185759344887,-0.009810000000000001,-0.2943,10.01601
5681818125,22.22,0.02982767691658309,-0.13208651779093086,-0.001064650843716541,0.13734000000000002,-0.24525000000000002,9.819809999999999
5686868630,22.22,0.03515093113516579,-0.1672549022186166,-0.008517206749732328,0.23544,-0.1962,9.633420000000001
5691919135,22.22,0.044732788728614664,-0.20027653166634932,-0.00958185759344887,0.44145,-0.22563,9.85905
5696969640,22.22,0.04581489286485115,-0.18535396656179778,-0.001064650843716541,0.5886,-0.13734000000000002,9.937529999999999
5702020145,22.22,0.03834488366631542,-0.19387117331153014,-0.003193952531149623,0.6867000000000001,-0.12753,9.73152
5707070650,22.22,0.03408628029144926,-0.1672549022186166,-0.001064650843716541,0.8240400000000001,-0.11772,9.89829
5712121155,22.22,0.03834488366631542,-0.1629788455512305,-0.008517206749732328,0.87309,-0.07848000000000001,9.60399
5717171660,22.22,0.044732788728614664,-0.13634512116579703,-0.001064650843716541,1.01043,-0.039240000000000004,9.78057
5722222165,22.22,0.04153883619746504,-0.10759954838545042,-0.006387905062299246,1.03986,0.0,9.770760000000001
5727272670,22.22,0.024504422698000388,-0.08096582400001695,-0.003193952531149623,1.1281500000000002,0.0,9.83943
5732323175,22.22,0.0170518667919846,-0.013840460968315033,-0.002129301687433082,1.1281500000000002,0.039240000000000004,9.86886
5737373680,22.22,0.00958185759344887,0.022375121010567305,0.0,1.03005,0.05886,9.52551
5742424185,22.22,0.003193952531149623,0.07883652231258387,0.007452555906015787,1.02024,0.039240000000000004,9.623610000000001
5747474690,22.22,-0.008517206749732328,0.10545279340549739,0.0,0.90252,0.04905,9.7119
5752525195,22.22,-0.015987215948268057,0.12569861272863161,0.006387905062299246,0.85347,0.02943,9.99639
5757575700,22.22,-0.03089232776029963,0.15126768627034853,0.003193952531149623,0.70632,0.02943,9.92772
5762626205,22.22,-0.044732788728614664,0.1416858286768997,0.001064650843716541,0.59841,-0.07848000000000001,9.83943
5767676710,22.22,-0.06497860805174888,0.13634512116579703,0.0,0.49050000000000005,-0.13734000000000002,9.67266
5772727215,22.22,-0.06497860805174888,0.11292280260403312,0.0,0.43164,-0.26487,9.623610000000001
5777777720,22.22,-0.06284930636431581,0.08203047484373349,0.0,0.42183,-0.35316,9.97677
5782828225,22.22,-0.05007349623971732,0.05965535383316618,0.003193952531149623,0.40221,-0.38259000000000004,10.03563
5787878730,22.22,-0.03515093113516579,0.02982767691658309,-0.003193952531149623,0.38259000000000004,-0.46107000000000004,9.89829
5792929235,22.22,-0.022375121010567305,0.004258603374866164,0.001064650843716541,0.38259000000000004,-0.46107000000000004,9.7119
5797979740,22.22,0.0,-0.002129301687433082,-0.002129301687433082,0.38259000000000004,-0.41202000000000005,9.65304
5803030245,22.22,0.012775810124598492,-0.020245819323134222,0.0,0.40221,-0.34335000000000004,9.95715
5808080750,22.22,0.033021629447732716,-0.014905111812031574,0.0,0.45126,-0.28449,10.025820000000001
5813131255,22.22,0.03728023282259888,-0.021310470166850764,0.0,0.41202000000000005,-0.1962,9.89829
5818181760,22.22,0.039409534510031964,-0.01918116847941768,0.0,0.41202000000000005,-0.13734000000000002,9.53532
5823232265,22.22,0.05220279792715039,-0.012775810124598492,0.0,0.41202000000000005,0.0,9.55494
5828282770,22.22,0.05007349623971732,-0.014905111812031574,0.001064650843716541,0.43164,0.039240000000000004,9.888480000000001
5833333275,22.22,0.031956978604016174,-0.008517206749732328,-0.001064650843716541,0.46107000000000004,0.06867000000000001,10.03563
5838383780,22.22,0.012775810124598492,-0.004258603374866164,0.0,0.47088,0.08829,10.09449
5843434285,22.22,-0.003193952531149623,-0.001064650843716541,-0.002129301687433082,0.41202000000000005,0.04905,9.68247
5848484790,22.22,-0.007452555906015787,0.0,0.001064650843716541,0.41202000000000005,0.009810000000000001,9.40779
5853535295,22.22,-0.012775810124598492,-0.00958185759344887,0.0,0.43164,-0.02943,9.6138
5858585800,22.22,-0.02556907354171693,-0.024504422698000388,0.001064650843716541,0.51012,-0.0981,9.97677
5863636305,22.22,-0.03408628029144926,-0.039409534510031964,-0.001064650843716541,0.5493600000000001,-0.21582,10.212209999999999
5868686810,22.22,-0.03834488366631542,-0.05326744877086694,-0.006387905062299246,0.57879,-0.2943,9.98658
5873737315,22.22,-0.028763026072866547,-0.06604325889546543,-0.002129301687433082,0.59841,-0.36297,9.58437
5878787820,22.22,-0.014905111812031574,-0.07777187146886733,0.0,0.69651,-0.38259000000000004,9.55494
5883838325,22.22,-0.002129301687433082,-0.07670722062515077,-0.005323254218582705,0.7848,-0.38259000000000004,9.91791
5888888830,22.22,0.011711159280881954,-0.06391395720803235,-0.003193952531149623,0.8338500000000001,-0.32373,10.006200000000002
5893939335,22.22,0.02556907354171693,-0.04366813788489812,0.0,0.87309,-0.28449,10.006200000000002
5898989840,22.22,0.033021629447732716,-0.023439771854283843,-0.001064650843716541,0.84366,-0.23544,9.69228
5904040345,22.22,0.0404741853537485,-0.006387905062299246,0.0,0.8338500000000001,-0.14715,9.54513
5909090850,22.22,0.04260348704118158,0.007452555906015787,0.0,0.84366,-0.02943,9.751140000000001
5914141355,22.22,0.0404741853537485,0.02982767691658309,0.0,0.7848,0.06867000000000001,9.888480000000001
5919191860,22.22,0.03089232776029963,0.05752605214573309,0.0,0.71613,0.08829,9.99639
5924242365,22.22,0.011711159280881954,0.07030186227033158,0.0,0.6278400000000001,0.0981,9.78057
5929292870,22.22,-0.001064650843716541,0.08735372906231618,0.003193952531149623,0.5493600000000001,0.11772,9.496080000000001
5934343375,22.22,-0.014905111812031574,0.09587093581204853,0.002129301687433082,0.48069000000000006,0.07848000000000001,9.633420000000001
5939393880,22.22,-0.03089232776029963,0.08735372906231618,0.003193952531149623,0.43164,0.019620000000000002,9.888480000000001
5944444385,22.22,-0.04260348704118158,0.08096582400001695,0.003193952531149623,0.3924,-0.05886,10.006200000000002
5949494890,22.22,-0.054332099614583476,0.05859070298944965,-0.001064650843716541,0.37278,-0.17658,9.94734
5954545395,22.22,-0.05220279792715039,0.0404741853537485,0.001064650843716541,0.33354000000000006,-0.25506,9.68247
5959595900,22.22,-0.046879543708567686,0.01811651763570114,0.0,0.32373,-0.35316,9.68247
5964646405,22.22,-0.03834488366631542,-0.00958185759344887,-0.002129301687433082,0.36297,-0.40221,9.819809999999999
5969696910,22.22,-0.03089232776029963,-0.028763026072866547,-0.001064650843716541,0.42183,-0.45126,9.94734
5974747415,22.22,-0.015987215948268057,-0.05007349623971732,0.0,0.48069000000000006,-0.44145,9.95715
5979797920,22.22,0.005323254218582705,-0.05965535383316618,-0.002129301687433082,0.50031,-0.40221,9.819809999999999
5984848425,22.22,0.033021629447732716,-0.07030186227033158,-0.001064650843716541,0.56898,-0.35316,9.72171
5989898930,22.22,0.04260348704118158,-0.07456046564519776,-0.005323254218582705,0.60822,-0.25506,9.79038
5994949435,22.22,0.049008845396000776,-0.06604325889546543,-0.003193952531149623,0.69651,-0.16677000000000003,9.87867
5999999940,22.22,0.049008845396000776,-0.05007349623971732,-0.005323254218582705,0.70632,-0.06867000000000001,9.888480000000001
6005050445,22.22,0.05113814708343386,-0.03621558197888234,-0.001064650843716541,0.69651,-0.02943,9.81
6010100950,22.22,0.04260348704118158,-0.012775810124598492,0.0,0.6768900000000001,0.039240000000000004,9.69228
6015151455,22.22,0.033021629447732716,0.0,0.0,0.70632,0.0981,9.72171
6020201960,22.22,0.020245819323134222,0.01811651763570114,-0.002129301687433082,0.63765,0.12753,9.81
6025252465,22.22,0.006387905062299246,0.02982767691658309,0.001064650843716541,0.63765,0.10791,9.85905
6030302970,22.22,-0.008517206749732328,0.039409534510031964,0.0,0.5591700000000001,0.06867000000000001,9.79038
6035353475,22.22,-0.02769837522915001,0.04153883619746504,0.001064650843716541,0.5493600000000001,0.009810000000000001,9.7119
6040403980,22.22,-0.04366813788489812,0.03089232776029963,0.0,0.52974,-0.07848000000000001,9.760950000000001
6045454485,22.22,-0.05113814708343386,0.014905111812031574,-0.001064650843716541,0.5493600000000001,-0.18639,9.82962
6050504990,22.22,-0.046879543708567686,0.0,0.0,0.5591700000000001,-0.28449,9.91791
6055555495,22.22,-0.0404741853537485,-0.013840460968315033,-0.001064650843716541,0.5886,-0.35316,9.83943
6060606000,22.22,-0.02982767691658309,-0.021310470166850764,-0.003193952531149623,0.6180300000000001,-0.41202000000000005,9.73152
6065656505,22.22,-0.014905111812031574,-0.02982767691658309,-0.003193952531149623,0.60822,-0.40221,9.72171
6070707010,22.22,-0.003193952531149623,-0.02663372438543347,-0.002129301687433082,0.6768900000000001,-0.3924,9.91791
6075757515,22.22,0.011711159280881954,-0.021310470166850764,-0.001064650843716541,0.70632,-0.31392000000000003,9.95715
6080808020,22.22,0.02556907354171693,-0.004258603374866164,-0.003193952531149623,0.69651,-0.25506,9.84924
6085858525,22.22,0.03728023282259888,0.011711159280881954,0.0,0.64746,-0.15696000000000002,9.67266
6090909030,22.22,0.044732788728614664,0.03089232776029963,0.0,0.60822,-0.04905,9.6138
6095959535,22.22,0.03834488366631542,0.04260348704118158,0.001064650843716541,0.56898,0.019620000000000002,9.81
6101010040,22.22,0.028763026072866547,0.05539675045830002,0.001064650843716541,0.52974,0.08829,9.96696
6106060545,22.22,0.011711159280881954,0.06710790973918197,0.001064650843716541,0.50031,0.07848000000000001,9.97677
6111111050,22.22,0.003193952531149623,0.06604325889546543,0.002129301687433082,0.42183,0.08829,9.760950000000001
6116161555,22.22,-0.013840460968315033,0.05965535383316618,0.0,0.34335000000000004,0.02943,9.55494
6121212060,22.22,-0.022375121010567305,0.04366813788489812,-0.001064650843716541,0.2943,-0.019620000000000002,9.7119
6126262565,22.22,-0.03515093113516579,0.0170518667919846,0.0,0.31392000000000003,-0.0981,9.97677
6131313070,22.22,-0.0404741853537485,-0.006387905062299246,0.001064650843716541,0.36297,-0.17658,10.06506
6136363575,22.22,-0.046879543708567686,-0.03089232776029963,-0.005323254218582705,0.38259000000000004,-0.28449,9.89829
6141414080,22.22,-0.039409534510031964,-0.05220279792715039,-0.001064650843716541,0.42183,-0.35316,9.68247
6146464585,22.22,-0.02556907354171693,-0.07243116395776468,-0.003193952531149623,0.51993,-0.45126,9.623610000000001
6151515090,22.22,-0.012775810124598492,-0.08841837990603273,-0.004258603374866164,0.56898,-0.42183,9.82962
6156565595,22.22,0.006387905062299246,-0.09161233243718235,-0.002129301687433082,0.6867000000000001,-0.3924,9.98658
6161616100,22.22,0.024504422698000388,-0.0852244273748831,-0.004258603374866164,0.7651800000000001,-0.34335000000000004,9.98658
6166666605,22.22,0.03621558197888234,-0.07030186227033158,-0.001064650843716541,0.7651800000000001,-0.28449,9.751140000000001
6171717110,22.22,0.046879543708567686,-0.05646140130201656,0.0,0.7848,-0.17658,9.623610000000001
6176767615,22.22,0.05113814708343386,-0.03728023282259888,0.001064650843716541,0.8142300000000001,-0.0981,9.68247
6181818120,22.22,0.05113814708343386,-0.021310470166850764,0.001064650843716541,0.8338500000000001,0.0,9.85905
6186868625,22.22,0.04581489286485115,0.0,-0.002129301687433082,0.8338500000000001,0.05886,9.888480000000001
6191919130,22.22,0.03515093113516579,0.02556907354171693,0.0,0.7848,0.11772,9.83943
6196969635,22.22,0.023439771854283843,0.049008845396000776,0.004258603374866164,0.71613,0.11772,9.68247
6202020140,22.22,0.001064650843716541,0.06710790973918197,0.003193952531149623,0.6180300000000001,0.12753,9.623610000000001
6207070645,22.22,-0.0170518667919846,0.07030186227033158,0.001064650843716541,0.56898,0.08829,9.74133
6212121150,22.22,-0.03834488366631542,0.07030186227033158,0.002129301687433082,0.5591700000000001,0.009810000000000001,9.87867
6217171655,22.22,-0.049008845396000776,0.060720004676882725,0.002129301687433082,0.51012,-0.04905,9.91791
6222222160,22.22,-0.054332099614583476,0.05007349623971732,0.002129301687433082,0.48069000000000006,-0.17658,9.819809999999999
6227272665,22.22,-0.054332099614583476,0.03089232776029963,0.001064650843716541,0.45126,-0.2943,9.751140000000001
6232323170,22.22,-0.05113814708343386,0.01064650843716541,0.0,0.47088,-0.38259000000000004,9.78057
6237373675,22.22,-0.0404741853537485,-0.002129301687433082,-0.001064650843716541,0.51012,-0.42183,9.819809999999999
6242424180,22.22,-0.02556907354171693,-0.008517206749732328,-0.001064650843716541,0.51993,-0.44145,9.84924
6247474685,22.22,-0.007452555906015787,-0.01064650843716541,0.001064650843716541,0.5395500000000001,-0.43164,9.888480000000001
6252525190,22.22,0.006387905062299246,-0.00958185759344887,-0.001064650843716541,0.5493600000000001,-0.36297,9.86886
6257575695,22.22,0.024504422698000388,-0.006387905062299246,-0.002129301687433082,0.56898,-0.28449,9.79038
6262626200,22.22,0.03728023282259888,-0.001064650843716541,0.001064650843716541,0.5395500000000001,-0.18639,9.751140000000001
6267676705,22.22,0.04366813788489812,0.0,0.0,0.5493600000000001,-0.10791,9.79038
6272727210,22.22,0.044732788728614664,0.007452555906015787,0.0,0.50031,-0.02943,9.85905
6277777715,22.22,0.03408628029144926,0.012775810124598492,0.0,0.50031,0.019620000000000002,9.86886
6282828220,22.22,0.024504422698000388,0.015987215948268057,-0.001064650843716541,0.45126,0.04905,9.83943
6287878725,22.22,0.014905111812031574,0.011711159280881954,0.0,0.43164,0.07848000000000001,9.73152
6292929230,22.22,0.002129301687433082,0.011711159280881954,0.001064650843716541,0.44145,0.04905,9.66285
6297979735,22.22,-0.011711159280881954,0.004258603374866164,0.0,0.45126,0.0,9.760950000000001
6303030240,22.22,-0.024504422698000388,-0.004258603374866164,0.0,0.45126,-0.06867000000000001,9.937529999999999
6308080745,22.22,-0.03089232776029963,-0.0170518667919846,0.0,0.50031,-0.15696000000000002,9.98658
6313131250,22.22,-0.03621558197888234,-0.03621558197888234,-0.001064650843716541,0.49050000000000005,-0.23544,9.79038
6318181755,22.22,-0.033021629447732716,-0.05646140130201656,-0.002129301687433082,0.5493600000000001,-0.31392000000000003,9.67266
6323232260,22.22,-0.023439771854283843,-0.06710790973918197,-0.005323254218582705,0.6180300000000001,-0.32373,9.751140000000001
6328282765,22.22,-0.00958185759344887,-0.07456046564519776,-0.002129301687433082,0.6867000000000001,-0.37278,9.888480000000001
6333333270,22.22,0.003193952531149623,-0.07456046564519776,-0.002129301687433082,0.7651800000000001,-0.36297,9.92772
6338383775,22.22,0.011711159280881954,-0.07030186227033158,-0.003193952531149623,0.8240400000000001,-0.35316,9.85905
6343434280,22.22,0.022375121010567305,-0.054332099614583476,-0.003193952531149623,0.84366,-0.28449,9.770760000000001
6348484785,22.22,0.03408628029144926,-0.03408628029144926,0.0,0.90252,-0.20601000000000003,9.69228
6353535290,22.22,0.046879543708567686,-0.005323254218582705,0.0,0.86328,-0.10791,9.78057
6358585795,22.22,0.04581489286485115,0.022375121010567305,-0.002129301687433082,0.85347,0.0,9.819809999999999
6363636300,22.22,0.03621558197888234,0.05007349623971732,0.001064650843716541,0.7749900000000001,0.06867000000000001,9.81
6368686805,22.22,0.024504422698000388,0.06923721142661506,0.002129301687433082,0.70632,0.11772,9.760950000000001
6373737310,22.22,0.00958185759344887,0.09480628496833199,0.001064650843716541,0.60822,0.13734000000000002,9.760950000000001
6378787815,22.22,-0.003193952531149623,0.10225884087434776,0.002129301687433082,0.51012,0.11772,9.80019
6383838320,22.22,-0.024504422698000388,0.09693558665576507,0.006387905062299246,0.45126,0.07848000000000001,9.83943
6388888825,22.22,-0.04153883619746504,0.07883652231258387,0.001064650843716541,0.40221,-0.009810000000000001,9.79038
6393939330,22.22,-0.05220279792715039,0.054332099614583476,-0.001064650843716541,0.36297,-0.12753,9.79038
6398989835,22.22,-0.05326744877086694,0.033021629447732716,-0.003193952531149623,0.35316,-0.1962,9.82962
6404040340,22.22,-0.05220279792715039,0.00958185759344887,0.0,0.37278,-0.32373,9.888480000000001
6409090845,22.22,-0.05007349623971732,-0.012775810124598492,-0.003193952531149623,0.41202000000000005,-0.41202000000000005,9.84924
6414141350,22.22,-0.03515093113516579,-0.03089232776029963,-0.001064650843716541,0.43164,-0.46107000000000004,9.74133
6419191855,22.22,-0.01811651763570114,-0.03728023282259888,-0.003193952531149623,0.48069000000000006,-0.46107000000000004,9.79038
6424242360,22.22,0.007452555906015787,-0.04153883619746504,-0.001064650843716541,0.5493600000000001,-0.3924,9.86886
6429292865,22.22,0.022375121010567305,-0.03621558197888234,0.0,0.57879,-0.33354000000000006,9.94734
6434343370,22.22,0.03834488366631542,-0.033021629447732716,-0.001064650843716541,0.5886,-0.25506,9.82962
6439393875,22.22,0.04260348704118158,-0.02663372438543347,0.0,0.56898,-0.17658,9.751140000000001
6444444380,22.22,0.046879543708567686,-0.020245819323134222,0.0,0.57879,-0.05886,9.72171
6449494885,22.22,0.04794419455228423,-0.014905111812031574,0.0,0.57879,0.009810000000000001,9.80019
6454545390,22.22,0.03728023282259888,-0.002129301687433082,0.001064650843716541,0.57879,0.06867000000000001,9.91791
6459595895,22.22,0.02556907354171693,0.001064650843716541,0.0,0.5591700000000001,0.06867000000000001,9.83943
6464646400,22.22,0.012775810124598492,0.005323254218582705,0.0,0.52974,0.06867000000000001,9.70209
6469696905,22.22,0.0,0.004258603374866164,0.0,0.51993,0.039240000000000004,9.66285
6474747410,22.22,-0.0170518667919846,-0.001064650843716541,0.001064650843716541,0.52974,0.0,9.80019
6479797915,22.22,-0.031956978604016174,-0.014905111812031574,-0.001064650843716541,0.5493600000000001,-0.07848000000000001,9.96696
6484848420,22.22,-0.03621558197888234,-0.022375121010567305,-0.002129301687433082,0.59841,-0.17658,9.89829
6489898925,22.22,-0.03621558197888234,-0.03728023282259888,-0.002129301687433082,0.60822,-0.26487,9.74133
6494949430,22.22,-0.03089232776029963,-0.05220279792715039,-0.002129301687433082,0.65727,-0.32373,9.68247
6499999935,22.22,-0.022375121010567305,-0.05539675045830002,-0.004258603374866164,0.73575,-0.36297,9.74133
6505050440,22.22,-0.01064650843716541,-0.05539675045830002,0.0,0.8142300000000001,-0.38259000000000004,9.92772
6510100945,22.22,0.004258603374866164,-0.039409534510031964,-0.002129301687433082,0.84366,-0.34335000000000004,9.95715
6515151450,22.22,0.014905111812031574,-0.01918116847941768,0.0,0.84366,-0.27468000000000004,9.78057
6520201955,22.22,0.02556907354171693,0.0,-0.003193952531149623,0.8142300000000001,-0.18639,9.68247
6525252460,22.22,0.03621558197888234,0.02663372438543347,0.0,0.79461,-0.12753,9.70209
6530302965,22.22,0.03621558197888234,0.05113814708343386,0.0,0.73575,-0.039240000000000004,9.84924
6535353470,22.22,0.033021629447732716,0.07349581480148122,0.0,0.65727,0.039240000000000004,9.86886
6540403975,22.22,0.022375121010567305,0.08841837990603273,0.002129301687433082,0.5886,0.07848000000000001,9.819809999999999
6545454480,22.22,0.00958185759344887,0.10012953918691468,0.001064650843716541,0.49050000000000005,0.0981,9.751140000000001
6550504985,22.22,-0.00958185759344887,0.10332349171806432,0.002129301687433082,0.40221,0.06867000000000001,9.72171
6555555490,22.22,-0.020245819323134222,0.09800023749948161,0.003193952531149623,0.32373,0.02943,9.81
6560605995,22.22,-0.03408628029144926,0.07883652231258387,0.0,0.27468000000000004,0.0,9.87867
6565656500,22.22,-0.04366813788489812,0.05113814708343386,0.002129301687433082,0.25506,-0.11772,9.86886
6570707005,22.22,-0.05007349623971732,0.020245819323134222,0.0,0.24525000000000002,-0.21582,9.86886
6575757510,22.22,-0.049008845396000776,-0.00958185759344887,-0.002129301687433082,0.27468000000000004,-0.32373,9.81
6580808015,22.22,-0.0404741853537485,-0.0404741853537485,-0.004258603374866164,0.2943,-0.3924,9.81
6585858520,22.22,-0.02663372438543347,-0.06817256058289851,-0.002129301687433082,0.41202000000000005,-0.44145,9.819809999999999
6590909025,22.22,-0.00958185759344887,-0.08841837990603273,-0.004258603374866164,0.48069000000000006,-0.47088,9.86886
6595959530,22.22,0.007452555906015787,-0.09587093581204853,-0.003193952531149623,0.57879,-0.41202000000000005,9.87867
6601010035,22.22,0.02663372438543347,-0.10119419003063122,-0.004258603374866164,0.63765,-0.36297,9.86886
6606060540,22.22,0.04153883619746504,-0.10012953918691468,-0.002129301687433082,0.71613,-0.28449,9.81
6611111045,22.22,0.05007349623971732,-0.08948303074974927,-0.004258603374866164,0.79461,-0.18639,9.819809999999999
6616161550,22.22,0.05539675045830002,-0.07670722062515077,-0.004258603374866164,0.80442,-0.11772,9.80019
6621212055,22.22,0.054332099614583476,-0.05220279792715039,-0.004258603374866164,0.8142300000000001,-0.019620000000000002,9.78057
6626262560,22.22,0.05220279792715039,-0.03515093113516579,0.0,0.8338500000000001,0.02943,9.751140000000001
6631313065,22.22,0.0404741853537485,-0.011711159280881954,0.0,0.8240400000000001,0.0981,9.80019
6636363570,22.22,0.02769837522915001,0.0170518667919846,0.0,0.8142300000000001,0.12753,9.81
6641414075,22.22,0.011711159280881954,0.04260348704118158,0.001064650843716541,0.7651800000000001,0.13734000000000002,9.760950000000001
6646464580,22.22,-0.003193952531149623,0.06284930636431581,0.001064650843716541,0.6867000000000001,0.13734000000000002,9.72171
6651515085,22.22,-0.02556907354171693,0.07030186227033158,0.003193952531149623,0.64746,0.05886,9.7119
6656565590,22.22,-0.04153883619746504,0.07349581480148122,0.001064650843716541,0.60822,0.0,9.80019
6661616095,22.22,-0.05113814708343386,0.07136651311404815,0.0,0.56898,-0.10791,9.86886
6666666600,22.22,-0.05539675045830002,0.06710790973918197,0.0,0.52974,-0.20601000000000003,9.888480000000001
6671717105,22.22,-0.054332099614583476,0.05007349623971732,0.0,0.49050000000000005,-0.28449,9.79038
6676767610,22.22,-0.05007349623971732,0.03515093113516579,0.0,0.49050000000000005,-0.35316,9.751140000000001
6681818115,22.22,-0.04153883619746504,0.020245819323134222,-0.002129301687433082,0.46107000000000004,-0.42183,9.78057
6686868620,22.22,-0.02663372438543347,0.006387905062299246,0.0,0.48069000000000006,-0.42183,9.819809999999999
6691919125,22.22,-0.004258603374866164,-0.001064650843716541,0.0,0.51993,-0.40221,9.888480000000001
6696969630,22.22,0.00958185759344887,-0.006387905062299246,-0.001064650843716541,0.49050000000000005,-0.35316,9.84924
6702020135,22.22,0.021310470166850764,-0.007452555906015787,-0.003193952531149623,0.51993,-0.27468000000000004,9.770760000000001
6707070640,22.22,0.033021629447732716,-0.012775810124598492,0.0,0.47088,-0.20601000000000003,9.74133
6712121145,22.22,0.04366813788489812,-0.008517206749732328,-0.001064650843716541,0.51012,-0.12753,9.819809999999999
6717171650,22.22,0.04260348704118158,0.002129301687433082,0.002129301687433082,0.51012,-0.02943,9.91791
6722222155,22.22,0.033021629447732716,0.01064650843716541,0.001064650843716541,0.46107000000000004,0.0,9.86886
6727272660,22.22,0.022375121010567305,0.005323254218582705,0.001064650843716541,0.44145,0.039240000000000004,9.760950000000001
6732323165,22.22,0.012775810124598492,0.0,0.0,0.43164,0.039240000000000004,9.751140000000001
6737373670,22.22,0.003193952531149623,-0.01064650843716541,-0.001064650843716541,0.45126,0.02943,9.78057
6742424175,22.22,-0.00958185759344887,-0.02982767691658309,0.0,0.51993,-0.039240000000000004,9.85905
6747474680,22.22,-0.022375121010567305,-0.05113814708343386,-0.002129301687433082,0.5395500000000001,-0.12753,9.89829
6752525185,22.22,-0.02663372438543347,-0.06923721142661506,-0.003193952531149623,0.5886,-0.20601000000000003,9.87867
6757575690,22.22,-0.02663372438543347,-0.07670722062515077,-0.006387905062299246,0.64746,-0.27468000000000004,9.78057
6762626195,22.22,-0.021310470166850764,-0.07670722062515077,-0.003193952531149623,0.74556,-0.32373,9.72171
6767676700,22.22,-0.013840460968315033,-0.07243116395776468,-0.004258603374866164,0.7848,-0.35316,9.78057
6772727205,22.22,-0.001064650843716541,-0.05646140130201656,-0.001064650843716541,0.87309,-0.31392000000000003,9.84924
6777777710,22.22,0.011711159280881954,-0.02663372438543347,-0.001064650843716541,0.89271,-0.28449,9.82962
6782828215,22.22,0.022375121010567305,-0.001064650843716541,0.0,0.87309,-0.20601000000000003,9.770760000000001
6787878720,22.22,0.02769837522915001,0.02663372438543347,0.001064650843716541,0.80442,-0.14715,9.74133
6792929225,22.22,0.031956978604016174,0.054332099614583476,0.001064650843716541,0.7848,-0.039240000000000004,9.751140000000001
6797979730,22.22,0.02769837522915001,0.0756251164889143,0.004258603374866164,0.70632,0.039240000000000004,9.78057
6803030235,22.22,0.021310470166850764,0.09267698328089889,0.001064650843716541,0.5886,0.07848000000000001,9.84924
6808080740,22.22,0.007452555906015787,0.10332349171806432,0.002129301687433082,0.5395500000000001,0.05886,9.83943
6813131245,22.22,-0.008517206749732328,0.10332349171806432,0.004258603374866164,0.45126,0.06867000000000001,9.78057
6818181750,22.22,-0.020245819323134222,0.09906488834319814,0.0,0.35316,0.019620000000000002,9.70209
6823232255,22.22,-0.03089232776029963,0.07883652231258387,0.005323254218582705,0.30411,-0.02943,9.78057
6828282760,22.22,-0.04260348704118158,0.05220279792715039,0.004258603374866164,0.25506,-0.13734000000000002,9.83943
6833333265,22.22,-0.05007349623971732,0.015987215948268057,-0.002129301687433082,0.26487,-0.20601000000000003,9.94734
6838383770,22.22,-0.04794419455228423,-0.01811651763570114,-0.002129301687433082,0.2943,-0.35316,9.89829
6843434275,22.22,-0.04153883619746504,-0.05646140130201656,-0.003193952531149623,0.34335000000000004,-0.41202000000000005,9.760950000000001
6848484780,22.22,-0.02556907354171693,-0.0852244273748831,-0.004258603374866164,0.43164,-0.45126,9.770760000000001
6853535285,22.22,-0.011711159280881954,-0.10545279340549739,-0.003193952531149623,0.5395500000000001,-0.45126,9.83943
6858585790,22.22,0.005323254218582705,-0.11292280260403312,-0.003193952531149623,0.6670800000000001,-0.45126,9.91791
6863636295,22.22,0.023439771854283843,-0.11292280260403312,-0.003193952531149623,0.72594,-0.38259000000000004,9.87867
6868686800,22.22,0.04153883619746504,-0.09693558665576507,-0.006387905062299246,0.8142300000000001,-0.2943,9.84924
6873737305,22.22,0.05539675045830002,-0.06923721142661506,-0.001064650843716541,0.85347,-0.1962,9.751140000000001
6878787810,22.22,0.060720004676882725,-0.039409534510031964,0.0,0.87309,-0.0981,9.70209
6883838315,22.22,0.060720004676882725,-0.007452555906015787,-0.002129301687433082,0.8240400000000001,0.019620000000000002,9.770760000000001
6888888820,22.22,0.05220279792715039,0.020245819323134222,0.0,0.80442,0.11772,9.81
6893939325,22.22,0.03834488366631542,0.05646140130201656,0.001064650843716541,0.7651800000000001,0.20601000000000003,9.83943
6898989830,22.22,0.01918116847941768,0.08203047484373349,0.003193952531149623,0.63765,0.20601000000000003,9.80019
6904040335,22.22,-0.002129301687433082,0.10012953918691468,0.004258603374866164,0.5493600000000001,0.1962,9.70209
6909090840,22.22,-0.024504422698000388,0.10119419003063122,0.001064650843716541,0.46107000000000004,0.12753,9.7119
6914141345,22.22,-0.04260348704118158,0.08948303074974927,0.002129301687433082,0.42183,0.039240000000000004,9.760950000000001
6919191850,22.22,-0.05859070298944965,0.06923721142661506,0.001064650843716541,0.3924,-0.08829,9.86886
6924242355,22.22,-0.06817256058289851,0.049008845396000776,-0.002129301687433082,0.38259000000000004,-0.20601000000000003,9.908100000000001
6929292860,22.22,-0.06817256058289851,0.01811651763570114,-0.001064650843716541,0.35316,-0.33354000000000006,9.84924
6934343365,22.22,-0.06604325889546543,-0.008517206749732328,0.0,0.3924,-0.44145,9.760950000000001
6939393870,22.22,-0.049008845396000776,-0.03621558197888234,-0.001064650843716541,0.44145,-0.49050000000000005,9.70209
6944444375,22.22,-0.02556907354171693,-0.054332099614583476,-0.004258603374866164,0.52974,-0.5493600000000001,9.85905
6949494880,22.22,0.0,-0.06710790973918197,-0.002129301687433082,0.57879,-0.51012,9.91791
6954545385,22.22,0.021310470166850764,-0.07243116395776468,0.0,0.64746,-0.41202000000000005,9.89829
6959595890,22.22,0.03834488366631542,-0.07243116395776468,-0.004258603374866164,0.70632,-0.34335000000000004,9.79038
6964646395,22.22,0.05113814708343386,-0.06497860805174888,-0.006387905062299246,0.71613,-0.20601000000000003,9.78057
6969696900,22.22,0.06284930636431581,-0.05326744877086694,0.0,0.73575,-0.12753,9.81
6974747405,22.22,0.06284930636431581,-0.03728023282259888,0.002129301687433082,0.71613,-0.009810000000000001,9.84924
6979797910,22.22,0.05326744877086694,-0.015987215948268057,-0.002129301687433082,0.74556,0.05886,9.81
6984848415,22.22,0.044732788728614664,0.00958185759344887,0.0,0.73575,0.14715,9.760950000000001
6989898920,22.22,0.028763026072866547,0.03515093113516579,0.0,0.6670800000000001,0.16677000000000003,9.79038
6994949425,22.22,0.011711159280881954,0.054332099614583476,0.004258603374866164,0.63765,0.16677000000000003,9.751140000000001
6999999930,22.22,-0.008517206749732328,0.06817256058289851,0.001064650843716541,0.57879,0.13734000000000002,9.751140000000001
7005050435,22.22,-0.03089232776029963,0.07349581480148122,0.001064650843716541,0.51993,0.039240000000000004,9.80019
7010100940,22.22,-0.046879543708567686,0.06497860805174888,0.001064650843716541,0.47088,-0.04905,9.82962
7015151445,22.22,-0.054332099614583476,0.05752605214573309,0.001064650843716541,0.45126,-0.14715,9.81
7020201950,22.22,-0.05965535383316618,0.03621558197888234,-0.001064650843716541,0.44145,-0.25506,9.83943
7025252455,22.22,-0.05965535383316618,0.015987215948268057,-0.001064650843716541,0.41202000000000005,-0.36297,9.82962
7030302960,22.22,-0.049008845396000776,0.0,0.0,0.45126,-0.43164,9.770760000000001
7035353465,22.22,-0.03515093113516579,-0.0170518667919846,0.0,0.48069000000000006,-0.48069000000000006,9.770760000000001
7040403970,22.22,-0.013840460968315033,-0.02556907354171693,-0.001064650843716541,0.51012,-0.45126,9.87867
7045454475,22.22,0.002129301687433082,-0.04260348704118158,0.0,0.5395500000000001,-0.42183,9.888480000000001
7050504980,22.22,0.021310470166850764,-0.046879543708567686,0.0,0.59841,-0.35316,9.819809999999999
7055555485,22.22,0.03515093113516579,-0.04794419455228423,-0.004258603374866164,0.6180300000000001,-0.27468000000000004,9.751140000000001
7060605990,22.22,0.05220279792715039,-0.04366813788489812,-0.001064650843716541,0.63765,-0.18639,9.78057
7065656495,22.22,0.054332099614583476,-0.02982767691658309,0.001064650843716541,0.64746,-0.06867000000000001,9.81
7070707000,22.22,0.04794419455228423,-0.0170518667919846,0.0,0.69651,0.0,9.87867
7075757505,22.22,0.039409534510031964,0.005323254218582705,-0.001064650843716541,0.6278400000000001,0.05886,9.819809999999999
7080808010,22.22,0.02663372438543347,0.014905111812031574,0.0,0.59841,0.0981,9.74133
7085858515,22.22,0.013840460968315033,0.01811651763570114,0.004258603374866164,0.5493600000000001,0.0981,9.69228
7090909020,22.22,-0.003193952531149623,0.01064650843716541,0.002129301687433082,0.5493600000000001,0.07848000000000001,9.82962
7095959525,22.22,-0.020245819323134222,0.003193952531149623,0.001064650843716541,0.56898,0.02943,9.92772
7101010030,22.22,-0.033021629447732716,-0.006387905062299246,0.0,0.56898,-0.06867000000000001,9.888480000000001
7106060535,22.22,-0.039409534510031964,-0.013840460968315033,-0.001064650843716541,0.57879,-0.18639,9.751140000000001
7111111040,22.22,-0.04366813788489812,-0.022375121010567305,-0.002129301687433082,0.59841,-0.28449,9.770760000000001
7116161545,22.22,-0.0404741853537485,-0.02663372438543347,-0.001064650843716541,0.6670800000000001,-0.33354000000000006,9.78057
7121212050,22.22,-0.028763026072866547,-0.022375121010567305,0.0,0.69651,-0.38259000000000004,9.85905
7126262555,22.22,-0.014905111812031574,-0.00958185759344887,-0.002129301687433082,0.73575,-0.36297,9.908100000000001
7131313060,22.22,0.002129301687433082,0.002129301687433082,0.001064650843716541,0.71613,-0.34335000000000004,9.85905
7136363565,22.22,0.011711159280881954,0.01811651763570114,0.001064650843716541,0.6867000000000001,-0.2943,9.66285
7141414070,22.22,0.021310470166850764,0.02769837522915001,0.001064650843716541,0.64746,-0.21582,9.74133
7146464575,22.22,0.02769837522915001,0.04153883619746504,0.0,0.6278400000000001,-0.10791,9.79038
7151515080,22.22,0.028763026072866547,0.05007349623971732,0.0,0.57879,-0.04905,9.85905
7156565585,22.22,0.023439771854283843,0.05965535383316618,0.003193952531149623,0.49050000000000005,0.009810000000000001,9.81
7161616090,22.22,0.014905111812031574,0.06284930636431581,0.001064650843716541,0.45126,0.02943,9.78057
7166666595,22.22,0.00958185759344887,0.05646140130201656,0.001064650843716541,0.3924,0.02943,9.74133
7171717100,22.22,-0.003193952531149623,0.04260348704118158,0.005323254218582705,0.36297,0.009810000000000001,9.770760000000001
7176767605,22.22,-0.015987215948268057,0.01811651763570114,0.0,0.34335000000000004,-0.019620000000000002,9.82962
7181818110,22.22,-0.02769837522915001,-0.01064650843716541,-0.001064650843716541,0.33354000000000006,-0.12753,9.94734
7186868615,22.22,-0.03408628029144926,-0.0404741853537485,-0.001064650843716541,0.41202000000000005,-0.21582,9.84924
7191919120,22.22,-0.03089232776029963,-0.07456046564519776,-0.001064650843716541,0.46107000000000004,-0.28449,9.79038
7196969625,22.22,-0.02663372438543347,-0.09267698328089889,-0.006387905062299246,0.59841,-0.33354000000000006,9.760950000000001
7202020130,22.22,-0.0170518667919846,-0.09800023749948161,-0.004258603374866164,0.65727,-0.38259000000000004,9.86886
7207070635,22.22,-0.00958185759344887,-0.09480628496833199,-0.003193952531149623,0.74556,-0.3924,9.86886
7212121140,22.22,0.008517206749732328,-0.0756251164889143,-0.001064650843716541,0.79461,-0.34335000000000004,9.819809999999999
7217171645,22.22,0.022375121010567305,-0.05220279792715039,-0.003193952531149623,0.86328,-0.27468000000000004,9.83943
7222222150,22.22,0.031956978604016174,-0.015987215948268057,0.0,0.86328,-0.20601000000000003,9.80019
7227272655,22.22,0.039409534510031964,0.008517206749732328,0.0,0.84366,-0.10791,9.7119
7232323160,22.22,0.04260348704118158,0.03834488366631542,0.0,0.79461,-0.019620000000000002,9.78057
7237373665,22.22,0.03834488366631542,0.06391395720803235,0.0,0.71613,0.05886,9.819809999999999
7242424170,22.22,0.024504422698000388,0.09480628496833199,0.004258603374866164,0.6278400000000001,0.10791,9.83943
7247474675,22.22,0.00958185759344887,0.11185815176031658,0.003193952531149623,0.5493600000000001,0.11772,9.74133
7252525180,22.22,-0.008517206749732328,0.11185815176031658,0.002129301687433082,0.41202000000000005,0.11772,9.74133
7257575685,22.22,-0.024504422698000388,0.09693558665576507,0.004258603374866164,0.34335000000000004,0.05886,9.80019
7262626190,22.22,-0.0404741853537485,0.07136651311404815,0.001064650843716541,0.30411,-0.019620000000000002,9.82962
7267676695,22.22,-0.049008845396000776,0.03408628029144926,0.0,0.27468000000000004,-0.11772,9.87867
7272727200,22.22,-0.054332099614583476,-0.01064650843716541,-0.005323254218582705,0.32373,-0.23544,9.86886
7277777705,22.22,-0.05539675045830002,-0.05113814708343386,-0.002129301687433082,0.36297,-0.37278,9.82962
7282828210,22.22,-0.044732788728614664,-0.08415977653116657,-0.005323254218582705,0.46107000000000004,-0.46107000000000004,9.74133
7287878715,22.22,-0.02769837522915001,-0.10759954838545042,-0.005323254218582705,0.56898,-0.49050000000000005,9.85905
7292929220,22.22,-0.005323254218582705,-0.12037535851004891,-0.005323254218582705,0.6867000000000001,-0.50031,9.86886
7297979725,22.22,0.014905111812031574,-0.11824605682261582,-0.003193952531149623,0.7848,-0.47088,9.82962
7303030230,22.22,0.03728023282259888,-0.10225884087434776,-0.003193952531149623,0.85347,-0.36297,9.84924
7308080735,22.22,0.054332099614583476,-0.07777187146886733,-0.001064650843716541,0.90252,-0.28449,9.80019
7313131240,22.22,0.06178465552059926,-0.039409534510031964,0.0,0.94176,-0.15696000000000002,9.751140000000001
7318181745,22.22,0.06284930636431581,0.008517206749732328,0.0,0.90252,-0.009810000000000001,9.760950000000001
7323232250,22.22,0.06178465552059926,0.05539675045830002,0.001064650843716541,0.8142300000000001,0.11772,9.760950000000001
7328282755,22.22,0.044732788728614664,0.09906488834319814,0.003193952531149623,0.72594,0.21582,9.72171
7333333260,22.22,0.02556907354171693,0.12037535851004891,0.005323254218582705,0.5886,0.24525000000000002,9.80019
7338383765,22.22,0.002129301687433082,0.12676326357234816,0.004258603374866164,0.49050000000000005,0.25506,9.819809999999999
7343434270,22.22,-0.021310470166850764,0.11505210429146619,0.004258603374866164,0.38259000000000004,0.1962,9.82962
7348484775,22.22,-0.044732788728614664,0.09374163412461543,0.004258603374866164,0.33354000000000006,0.08829,9.85905
7353535280,22.22,-0.06710790973918197,0.054332099614583476,-0.001064650843716541,0.27468000000000004,-0.05886,9.770760000000001
7358585785,22.22,-0.07777187146886733,0.022375121010567305,-0.003193952531149623,0.2943,-0.24525000000000002,9.78057
7363636290,22.22,-0.0756251164889143,-0.015987215948268057,-0.002129301687433082,0.33354000000000006,-0.35316,9.82962
7368686795,22.22,-0.06710790973918197,-0.04794419455228423,0.0,0.3924,-0.50031,9.83943
7373737300,22.22,-0.049008845396000776,-0.06817256058289851,-0.002129301687433082,0.48069000000000006,-0.59841,9.85905
7378787805,22.22,-0.024504422698000388,-0.07990117315630041,-0.007452555906015787,0.57879,-0.57879,9.908100000000001
7383838310,22.22,0.005323254218582705,-0.0852244273748831,-0.001064650843716541,0.64746,-0.52974,9.83943
7388888815,22.22,0.028763026072866547,-0.08948303074974927,-0.003193952531149623,0.71613,-0.48069000000000006,9.73152
7393939320,22.22,0.046879543708567686,-0.07883652231258387,-0.003193952531149623,0.7651800000000001,-0.33354000000000006,9.78057
7398989825,22.22,0.06497860805174888,-0.05965535383316618,0.0,0.79461,-0.20601000000000003,9.819809999999999
7404040330,22.22,0.07243116395776468,-0.03089232776029963,0.001064650843716541,0.80442,-0.06867000000000001,9.84924
7409090835,22.22,0.07030186227033158,0.0,0.0,0.79461,0.04905,9.81
7414141340,22.22,0.06178465552059926,0.03089232776029963,0.0,0.72594,0.13734000000000002,9.73152
7419191845,22.22,0.04581489286485115,0.05539675045830002,0.003193952531149623,0.6670800000000001,0.21582,9.70209
7424242350,22.22,0.02556907354171693,0.06817256058289851,0.006387905062299246,0.5886,0.23544,9.770760000000001
7429292855,22.22,-0.002129301687433082,0.06604325889546543,0.002129301687433082,0.51012,0.21582,9.82962
7434343360,22.22,-0.03089232776029963,0.05859070298944965,0.0,0.46107000000000004,0.12753,9.85905
7439393865,22.22,-0.05220279792715039,0.039409534510031964,0.001064650843716541,0.44145,-0.009810000000000001,9.819809999999999
7444444370,22.22,-0.06710790973918197,0.021310470166850764,-0.003193952531149623,0.45126,-0.11772,9.70209
7449494875,22.22,-0.07136651311404815,0.001064650843716541,-0.001064650843716541,0.44145,-0.25506,9.74133
7454545380,22.22,-0.06817256058289851,-0.013840460968315033,0.0,0.5395500000000001,-0.3924,9.85905
7459595885,22.22,-0.05965535383316618,-0.020245819323134222,0.0,0.5591700000000001,-0.47088,9.937529999999999
7464646390,22.22,-0.04260348704118158,-0.02663372438543347,0.0,0.59841,-0.51993,9.89829
7469696895,22.22,-0.013840460968315033,-0.024504422698000388,-0.003193952531149623,0.6278400000000001,-0.48069000000000006,9.81
7474747400,22.22,0.006387905062299246,-0.024504422698000388,-0.002129301687433082,0.63765,-0.45126,9.68247
7479797905,22.22,0.02663372438543347,-0.015987215948268057,-0.002129301687433082,0.65727,-0.33354000000000006,9.73152
7484848410,22.22,0.04260348704118158,0.0,0.0,0.6768900000000001,-0.25506,9.83943
7489898915,22.22,0.05220279792715039,0.014905111812031574,0.0,0.6180300000000001,-0.13734000000000002,9.92772
7494949420,22.22,0.05220279792715039,0.03408628029144926,0.001064650843716541,0.5591700000000001,-0.009810000000000001,9.82962
7499999925,22.22,0.04581489286485115,0.0404741853537485,0.0,0.52974,0.05886,9.73152
7505050430,22.22,0.03408628029144926,0.03515093113516579,0.001064650843716541,0.47088,0.13734000000000002,9.760950000000001
7510100935,22.22,0.020245819323134222,0.024504422698000388,0.001064650843716541,0.42183,0.14715,9.83943
7515151440,22.22,0.0,0.0,0.001064650843716541,0.43164,0.06867000000000001,9.85905
7520201945,22.22,-0.0170518667919846,-0.02663372438543347,-0.002129301687433082,0.47088,0.0,9.819809999999999
7525252450,22.22,-0.03089232776029963,-0.05220279792715039,-0.002129301687433082,0.51012,-0.08829,9.81
7530302955,22.22,-0.0404741853537485,-0.06284930636431581,-0.005323254218582705,0.56898,-0.20601000000000003,9.74133
7535353460,22.22,-0.0404741853537485,-0.07136651311404815,-0.004258603374866164,0.65727,-0.27468000000000004,9.78057
7540403965,22.22,-0.03515093113516579,-0.06604325889546543,-0.003193952531149623,0.75537,-0.36297,9.89829
7545454470,22.22,-0.02663372438543347,-0.046879543708567686,-0.001064650843716541,0.80442,-0.38259000000000004,9.86886
7550504975,22.22,-0.012775810124598492,-0.03089232776029963,0.0,0.8240400000000001,-0.38259000000000004,9.80019
7555555480,22.22,0.004258603374866164,-0.005323254218582705,-0.002129301687433082,0.84366,-0.32373,9.73152
7560605985,22.22,0.01811651763570114,0.024504422698000388,-0.001064650843716541,0.8338500000000001,-0.25506,9.770760000000001
7565656490,22.22,0.02769837522915001,0.046879543708567686,0.001064650843716541,0.74556,-0.17658,9.760950000000001
7570706995,22.22,0.03089232776029963,0.06178465552059926,0.001064650843716541,0.6867000000000001,-0.10791,9.819809999999999
7575757500,22.22,0.028763026072866547,0.08309512568745003,0.0,0.59841,-0.019620000000000002,9.83943
7580808005,22.22,0.024504422698000388,0.09374163412461543,0.001064650843716541,0.51012,0.0,9.81
7585858510,22.22,0.015987215948268057,0.09906488834319814,0.005323254218582705,0.41202000000000005,0.06867000000000001,9.770760000000001
7590909015,22.22,0.002129301687433082,0.08948303074974927,0.003193952531149623,0.32373,0.06867000000000001,9.751140000000001
7595959520,22.22,-0.012775810124598492,0.06817256058289851,0.001064650843716541,0.2943,0.019620000000000002,9.81
7601010025,22.22,-0.02769837522915001,0.03408628029144926,0.002129301687433082,0.28449,-0.04905,9.84924
7606060530,22.22,-0.03728023282259888,-0.001064650843716541,0.0,0.28449,-0.13734000000000002,9.819809999999999
7611111035,22.22,-0.0404741853537485,-0.046879543708567686,-0.004258603374866164,0.31392000000000003,-0.26487,9.79038
7616161540,22.22,-0.0404741853537485,-0.08309512568745003,-0.002129301687433082,0.42183,-0.32373,9.82962
7621212045,22.22,-0.028763026072866547,-0.11079350091660004,-0.002129301687433082,0.51993,-0.41202000000000005,9.82962
7626262550,22.22,-0.020245819323134222,-0.12250466019748199,-0.007452555906015787,0.63765,-0.44145,9.86886
7631313055,22.22,-0.001064650843716541,-0.12037535851004891,-0.005323254218582705,0.73575,-0.44145,9.908100000000001
7636363560,22.22,0.013840460968315033,-0.10545279340549739,-0.004258603374866164,0.85347,-0.41202000000000005,9.86886
7641414065,22.22,0.02769837522915001,-0.07990117315630041,-0.001064650843716541,0.86328,-0.31392000000000003,9.751140000000001
7646464570,22.22,0.04366813788489812,-0.04581489286485115,-0.002129301687433082,0.87309,-0.21582,9.73152
7651515075,22.22,0.05326744877086694,-0.005323254218582705,-0.002129301687433082,0.9123300000000001,-0.08829,9.73152
7656565580,22.22,0.054332099614583476,0.03515093113516579,0.002129301687433082,0.8338500000000001,0.0,9.82962
7661616085,22.22,0.04581489286485115,0.06817256058289851,0.002129301687433082,0.75537,0.10791,9.84924
7666666590,22.22,0.031956978604016174,0.09374163412461543,0.0,0.65727,0.12753,9.81
7671717095,22.22,0.013840460968315033,0.11079350091660004,0.004258603374866164,0.5493600000000001,0.16677000000000003,9.770760000000001
7676767600,22.22,-0.006387905062299246,0.11824605682261582,0.001064650843716541,0.47088,0.16677000000000003,9.73152
7681818105,22.22,-0.024504422698000388,0.10545279340549739,0.004258603374866164,0.37278,0.07848000000000001,9.770760000000001
7686868610,22.22,-0.04260348704118158,0.08309512568745003,0.001064650843716541,0.34335000000000004,0.019620000000000002,9.819809999999999
7691919115,22.22,-0.05859070298944965,0.05326744877086694,-0.001064650843716541,0.31392000000000003,-0.10791,9.84924
7696969620,22.22,-0.06497860805174888,0.0170518667919846,0.0,0.32373,-0.25506,9.85905
7702020125,22.22,-0.060720004676882725,-0.011711159280881954,0.0,0.32373,-0.37278,9.819809999999999
7707070630,22.22,-0.05113814708343386,-0.04366813788489812,-0.003193952531149623,0.40221,-0.44145,9.83943
7712121135,22.22,-0.03728023282259888,-0.06710790973918197,-0.003193952531149623,0.49050000000000005,-0.51993,9.80019
7717171640,22.22,-0.012775810124598492,-0.08735372906231618,-0.005323254218582705,0.5493600000000001,-0.5395500000000001,9.80019
7722222145,22.22,0.007452555906015787,-0.09587093581204853,-0.003193952531149623,0.6278400000000001,-0.48069000000000006,9.80019
7727272650,22.22,0.028763026072866547,-0.09161233243718235,-0.002129301687433082,0.70632,-0.41202000000000005,9.84924
7732323155,22.22,0.044732788728614664,-0.0852244273748831,-0.001064650843716541,0.75537,-0.33354000000000006,9.85905
7737373660,22.22,0.05646140130201656,-0.06710790973918197,0.0,0.8142300000000001,-0.1962,9.81
7742424165,22.22,0.06284930636431581,-0.046879543708567686,-0.001064650843716541,0.8240400000000001,-0.06867000000000001,9.78057
7747474670,22.22,0.06391395720803235,-0.0170518667919846,0.0,0.8142300000000001,0.009810000000000001,9.79038
7752525175,22.22,0.05646140130201656,0.013840460968315033,0.001064650843716541,0.75537,0.0981,9.81
7757575680,22.22,0.03834488366631542,0.04260348704118158,0.001064650843716541,0.71613,0.17658,9.79038
7762626185,22.22,0.0170518667919846,0.06497860805174888,0.002129301687433082,0.65727,0.1962,9.760950000000001
7767676690,22.22,-0.003193952531149623,0.08309512568745003,0.002129301687433082,0.5886,0.15696000000000002,9.74133
7772727195,22.22,-0.02663372438543347,0.09054768159346581,0.002129301687433082,0.51993,0.15696000000000002,9.72171
7777777700,22.22,-0.04153883619746504,0.0852244273748831,0.004258603374866164,0.45126,0.02943,9.79038
7782828205,22.22,-0.05646140130201656,0.06923721142661506,0.0,0.41202000000000005,-0.05886,9.87867
7787878710,22.22,-0.06817256058289851,0.04581489286485115,-0.001064650843716541,0.40221,-0.20601000000000003,9.89829
7792929215,22.22,-0.06604325889546543,0.02556907354171693,-0.002129301687433082,0.41202000000000005,-0.34335000000000004,9.81
7797979720,22.22,-0.060720004676882725,-0.001064650843716541,0.0,0.3924,-0.43164,9.751140000000001
7803030225,22.22,-0.046879543708567686,-0.021310470166850764,-0.001064650843716541,0.46107000000000004,-0.51012,9.770760000000001
7808080730,22.22,-0.02663372438543347,-0.04260348704118158,-0.003193952531149623,0.49050000000000005,-0.52974,9.86886
7813131235,22.22,-0.002129301687433082,-0.05646140130201656,0.0,0.5493600000000001,-0.50031,9.86886
7818181740,22.22,0.020245819323134222,-0.06178465552059926,-0.003193952531149623,0.60822,-0.41202000000000005,9.84924
7823232245,22.22,0.0404741853537485,-0.05859070298944965,0.0,0.65727,-0.33354000000000006,9.80019
7828282750,22.22,0.05220279792715039,-0.05007349623971732,-0.004258603374866164,0.6670800000000001,-0.21582,9.82962
7833333255,22.22,0.05752605214573309,-0.03728023282259888,0.0,0.69651,-0.12753,9.81
