#timestamp [ns], temperature [degC], w_RS_S_x [rad s^-1], w_RS_S_y [rad s^-1], w_RS_S_z [rad s^-1], a_RS_S_x [m s^-2], a_RS_S_y [m s^-2], a_RS_S_z [m s^-2]
0,22.28,0.0,0.0,0.0,-0.30411,-0.23544,9.84924
5050505,22.28,0.0,0.0,0.0,-0.2943,-0.23544,9.81
10101010,22.28,0.0,0.0,0.0,-0.32373,-0.24525000000000002,9.83943
15151515,22.28,0.0,0.0,0.0,-0.28449,-0.26487,9.82962
20202020,22.28,0.0,0.0,0.0,-0.31392000000000003,-0.24525000000000002,9.81
25252525,22.28,0.0,0.0,0.0,-0.28449,-0.27468000000000004,9.82962
30303030,22.28,0.0,0.0,0.0,-0.2943,-0.25506,9.819809999999999
35353535,22.28,0.0,0.0,0.0,-0.2943,-0.25506,9.82962
40404040,22.28,0.0,0.0,0.0,-0.31392000000000003,-0.23544,9.84924
45454545,22.28,0.0,0.0,0.0,-0.28449,-0.24525000000000002,9.819809999999999
50505050,22.28,0.0,0.0,0.0,-0.2943,-0.23544,9.83943
55555555,22.28,0.0,0.0,0.0,-0.31392000000000003,-0.25506,9.83943
60606060,22.28,0.0,0.0,0.0,-0.30411,-0.23544,9.82962
65656565,22.28,0.0,0.0,0.0,-0.2943,-0.26487,9.82962
70707070,22.28,0.0,0.0,0.0,-0.30411,-0.23544,9.83943
75757575,22.28,0.0,0.0,0.0,-0.30411,-0.24525000000000002,9.819809999999999
80808080,22.28,0.0,0.0,0.0,-0.2943,-0.26487,9.84924
85858585,22.28,0.0,0.0,0.0,-0.26487,-0.23544,9.819809999999999
90909090,22.28,0.0,0.0,0.0,-0.2943,-0.23544,9.83943
95959595,22.28,0.0,0.0,0.0,-0.2943,-0.25506,9.819809999999999
101010100,22.28,0.0,0.0,0.0,-0.28449,-0.25506,9.82962
106060605,22.28,0.0,0.0,0.0,-0.2943,-0.24525000000000002,9.84924
111111110,22.28,0.0,0.0,0.0,-0.32373,-0.26487,9.82962
116161615,22.28,0.0,0.0,0.0,-0.31392000000000003,-0.24525000000000002,9.83943
121212120,22.28,0.0,0.0,0.0,-0.30411,-0.24525000000000002,9.819809999999999
126262625,22.28,0.0,0.0,0.0,-0.2943,-0.24525000000000002,9.79038
131313130,22.28,0.0,0.0,0.0,-0.26487,-0.24525000000000002,9.85905
136363635,22.28,0.0,0.0,0.0,-0.32373,-0.25506,9.82962
141414140,22.28,0.0,0.0,0.0,-0.30411,-0.23544,9.82962
146464645,22.28,0.0,0.0,0.0,-0.28449,-0.24525000000000002,9.84924
151515150,22.28,0.0,0.0,0.0,-0.30411,-0.27468000000000004,9.83943
156565655,22.28,0.0,0.0,0.0,-0.2943,-0.24525000000000002,9.82962
161616160,22.28,0.0,0.0,0.0,-0.2943,-0.27468000000000004,9.85905
166666665,22.28,0.0,0.0,0.0,-0.30411,-0.27468000000000004,9.82962
171717170,22.28,0.0,0.0,0.0,-0.33354000000000006,-0.23544,9.819809999999999
176767675,22.28,0.0,0.0,0.0,-0.27468000000000004,-0.20601000000000003,9.83943
181818180,22.28,0.0,0.0,0.0,-0.2943,-0.2943,9.819809999999999
186868685,22.28,0.0,0.0,0.0,-0.28449,-0.28449,9.83943
191919190,22.28,0.0,0.0,0.0,-0.30411,-0.24525000000000002,9.82962
196969695,22.28,0.0,0.0,0.0,-0.2943,-0.25506,9.82962
202020200,22.28,0.0,0.0,0.0,-0.31392000000000003,-0.26487,9.819809999999999
207070705,22.28,0.0,0.0,0.0,-0.31392000000000003,-0.24525000000000002,9.83943
212121210,22.28,0.0,0.0,0.0,-0.32373,-0.24525000000000002,9.819809999999999
217171715,22.28,0.0,0.0,0.0,-0.28449,-0.28449,9.80019
222222220,22.28,0.0,0.0,0.0,-0.2943,-0.23544,9.819809999999999
227272725,22.28,0.0,0.0,0.0,-0.30411,-0.25506,9.81
232323230,22.28,0.0,0.0,0.0,-0.30411,-0.23544,9.84924
237373735,22.28,0.0,0.0,0.0,-0.31392000000000003,-0.25506,9.819809999999999
242424240,22.28,0.0,0.0,0.0,-0.31392000000000003,-0.24525000000000002,9.81
247474745,22.28,0.0,0.0,0.0,-0.26487,-0.24525000000000002,9.84924
252525250,22.28,0.0,0.0,0.0,-0.2943,-0.25506,9.82962
257575755,22.28,0.0,0.0,0.0,-0.28449,-0.24525000000000002,9.82962
262626260,22.28,0.0,0.0,0.0,-0.2943,-0.26487,9.82962
267676765,22.28,0.0,0.0,0.0,-0.27468000000000004,-0.24525000000000002,9.82962
272727270,22.28,0.0,0.0,0.0,-0.28449,-0.23544,9.819809999999999
277777775,22.28,0.0,0.0,0.0,-0.30411,-0.25506,9.819809999999999
282828280,22.28,0.0,0.0,0.0,-0.30411,-0.24525000000000002,9.84924
287878785,22.28,0.0,0.0,0.0,-0.27468000000000004,-0.25506,9.82962
292929290,22.28,0.0,0.0,0.0,-0.2943,-0.22563,9.819809999999999
297979795,22.28,0.0,0.0,0.0,-0.2943,-0.24525000000000002,9.81
303030300,22.28,0.0,0.0,0.0,-0.31392000000000003,-0.25506,9.82962
308080805,22.28,0.0,0.0,0.0,-0.30411,-0.26487,9.82962
313131310,22.28,0.0,0.0,0.0,-0.32373,-0.23544,9.819809999999999
318181815,22.28,0.0,0.0,0.0,-0.2943,-0.24525000000000002,9.819809999999999
323232320,22.28,0.0,0.0,0.0,-0.30411,-0.27468000000000004,9.83943
328282825,22.28,0.0,0.0,0.0,-0.32373,-0.25506,9.81
333333330,22.28,0.0,0.0,0.0,-0.2943,-0.22563,9.83943
338383835,22.28,0.0,0.0,0.0,-0.30411,-0.25506,9.83943
343434340,22.28,0.0,0.0,0.0,-0.30411,-0.25506,9.82962
348484845,22.28,0.0,0.0,0.0,-0.30411,-0.22563,9.819809999999999
353535350,22.28,0.0,0.0,0.0,-0.28449,-0.24525000000000002,9.819809999999999
358585855,22.28,0.0,0.0,0.0,-0.31392000000000003,-0.26487,9.81
363636360,22.28,0.0,0.0,0.0,-0.27468000000000004,-0.25506,9.84924
368686865,22.28,0.0,0.0,0.0,-0.30411,-0.24525000000000002,9.819809999999999
373737370,22.28,0.0,0.0,0.0,-0.28449,-0.28449,9.82962
378787875,22.28,0.0,0.0,0.0,-0.31392000000000003,-0.22563,9.83943
383838380,22.28,0.0,0.0,0.0,-0.2943,-0.23544,9.83943
388888885,22.28,0.0,0.0,0.0,-0.28449,-0.25506,9.83943
393939390,22.28,0.0,0.0,0.0,-0.30411,-0.25506,9.819809999999999
398989895,22.28,0.0,0.0,0.0,-0.28449,-0.25506,9.82962
404040400,22.28,0.0,0.0,0.0,-0.28449,-0.25506,9.819809999999999
409090905,22.28,0.0,0.0,0.0,-0.31392000000000003,-0.25506,9.84924
414141410,22.28,0.0,0.0,0.0,-0.30411,-0.23544,9.82962
419191915,22.28,0.0,0.0,0.0,-0.2943,-0.25506,9.83943
424242420,22.28,0.0,0.0,0.0,-0.28449,-0.26487,9.84924
429292925,22.28,0.0,0.0,0.0,-0.32373,-0.24525000000000002,9.819809999999999
434343430,22.28,0.0,0.0,0.0,-0.28449,-0.22563,9.81
439393935,22.28,0.0,0.0,0.0,-0.28449,-0.27468000000000004,9.819809999999999
444444440,22.28,0.0,0.0,0.0,-0.32373,-0.26487,9.82962
449494945,22.28,0.0,0.0,0.0,-0.30411,-0.24525000000000002,9.83943
454545450,22.28,0.0,0.0,0.0,-0.2943,-0.28449,9.819809999999999
459595955,22.28,0.0,0.0,0.0,-0.31392000000000003,-0.25506,9.819809999999999
464646460,22.28,0.0,0.0,0.0,-0.31392000000000003,-0.23544,9.819809999999999
469696965,22.28,0.0,0.0,0.0,-0.30411,-0.25506,9.83943
474747470,22.28,0.0,0.0,0.0,-0.28449,-0.26487,9.819809999999999
479797975,22.28,0.0,0.0,0.0,-0.31392000000000003,-0.22563,9.819809999999999
484848480,22.28,0.0,0.0,0.0,-0.26487,-0.21582,9.83943
489898985,22.28,0.0,0.0,0.0,-0.30411,-0.24525000000000002,9.83943
494949490,22.28,0.0,0.0,0.0,-0.32373,-0.26487,9.83943
499999995,22.28,0.0,0.0,0.0,-0.2943,-0.25506,9.83943
505050500,22.28,0.0,0.0,0.0,-0.2943,-0.24525000000000002,9.83943
510101005,22.28,0.0,0.0,0.0,-0.32373,-0.26487,9.82962
515151510,22.28,0.0,0.0,0.0,-0.31392000000000003,-0.21582,9.81
520202015,22.28,0.0,0.0,0.0,-0.28449,-0.24525000000000002,9.82962
525252520,22.28,0.0,0.0,0.0,-0.27468000000000004,-0.25506,9.81
530303025,22.28,0.0,0.0,0.0,-0.30411,-0.25506,9.82962
535353530,22.28,0.0,0.0,0.0,-0.31392000000000003,-0.25506,9.82962
540404035,22.28,0.0,0.0,0.0,-0.28449,-0.22563,9.82962
545454540,22.28,0.0,0.0,0.0,-0.30411,-0.26487,9.83943
550505045,22.28,0.0,0.0,0.0,-0.2943,-0.24525000000000002,9.83943
555555550,22.28,0.0,0.0,0.0,-0.30411,-0.25506,9.82962
560606055,22.28,0.0,0.0,0.0,-0.28449,-0.27468000000000004,9.819809999999999
565656560,22.28,0.0,0.0,0.0,-0.28449,-0.22563,9.82962
570707065,22.28,0.0,0.0,0.0,-0.28449,-0.23544,9.82962
575757570,22.28,0.0,0.0,0.0,-0.2943,-0.28449,9.819809999999999
580808075,22.28,0.0,0.0,0.0,-0.32373,-0.23544,9.819809999999999
585858580,22.28,0.0,0.0,0.0,-0.28449,-0.22563,9.85905
590909085,22.28,0.0,0.0,0.0,-0.28449,-0.25506,9.82962
595959590,22.28,0.0,0.0,0.0,-0.32373,-0.26487,9.84924
601010095,22.28,0.0,0.0,0.0,-0.30411,-0.24525000000000002,9.81
606060600,22.28,0.0,0.0,0.0,-0.31392000000000003,-0.26487,9.82962
611111105,22.28,0.0,0.0,0.0,-0.28449,-0.25506,9.82962
616161610,22.28,0.0,0.0,0.0,-0.2943,-0.23544,9.83943
621212115,22.28,0.0,0.0,0.0,-0.30411,-0.24525000000000002,9.82962
626262620,22.28,0.0,0.0,0.0,-0.30411,-0.26487,9.81
631313125,22.28,0.0,0.0,0.0,-0.33354000000000006,-0.24525000000000002,9.82962
636363630,22.28,0.0,0.0,0.0,-0.28449,-0.24525000000000002,9.82962
641414135,22.28,0.0,0.0,0.0,-0.30411,-0.28449,9.82962
646464640,22.28,0.0,0.0,0.0,-0.2943,-0.24525000000000002,9.83943
651515145,22.28,0.0,0.0,0.0,-0.31392000000000003,-0.23544,9.83943
656565650,22.28,0.0,0.0,0.0,-0.2943,-0.24525000000000002,9.82962
661616155,22.28,0.0,0.0,0.0,-0.30411,-0.27468000000000004,9.82962
666666660,22.28,0.0,0.0,0.0,-0.34335000000000004,-0.24525000000000002,9.83943
671717165,22.28,0.0,0.0,0.0,-0.27468000000000004,-0.22563,9.819809999999999
676767670,22.28,0.0,0.0,0.0,-0.2943,-0.25506,9.819809999999999
681818175,22.28,0.0,0.0,0.0,-0.31392000000000003,-0.26487,9.83943
686868680,22.28,0.0,0.0,0.0,-0.30411,-0.21582,9.83943
691919185,22.28,0.0,0.0,0.0,-0.28449,-0.24525000000000002,9.81
696969690,22.28,0.0,0.0,0.0,-0.30411,-0.24525000000000002,9.819809999999999
702020195,22.28,0.0,0.0,0.0,-0.30411,-0.24525000000000002,9.82962
707070700,22.28,0.0,0.0,0.0,-0.24525000000000002,-0.25506,9.84924
712121205,22.28,0.0,0.0,0.0,-0.30411,-0.27468000000000004,9.81
717171710,22.28,0.0,0.0,0.0,-0.2943,-0.23544,9.81
722222215,22.28,0.0,0.0,0.0,-0.30411,-0.22563,9.83943
727272720,22.28,0.0,0.0,0.0,-0.2943,-0.25506,9.82962
732323225,22.28,0.0,0.0,0.0,-0.30411,-0.25506,9.81
737373730,22.28,0.0,0.0,0.0,-0.30411,-0.24525000000000002,9.83943
742424235,22.28,0.0,0.0,0.0,-0.28449,-0.24525000000000002,9.83943
747474740,22.28,0.0,0.0,0.0,-0.33354000000000006,-0.23544,9.83943
752525245,22.28,0.0,0.0,0.0,-0.28449,-0.20601000000000003,9.83943
757575750,22.28,0.0,0.0,0.0,-0.28449,-0.26487,9.819809999999999
762626255,22.28,0.0,0.0,0.0,-0.32373,-0.24525000000000002,9.83943
767676760,22.28,0.0,0.0,0.0,-0.30411,-0.23544,9.83943
772727265,22.28,0.0,0.0,0.0,-0.26487,-0.27468000000000004,9.819809999999999
777777770,22.28,0.0,0.0,0.0,-0.2943,-0.27468000000000004,9.82962
782828275,22.28,0.0,0.0,0.0,-0.33354000000000006,-0.23544,9.83943
787878780,22.22,0.0,0.0,0.0,-0.28449,-0.23544,9.84924
792929285,22.22,0.0,0.0,0.0,-0.25506,-0.26487,9.81
797979790,22.22,0.0,0.0,0.0,-0.33354000000000006,-0.26487,9.819809999999999
803030295,22.22,0.0,0.0,0.0,-0.31392000000000003,-0.23544,9.83943
808080800,22.22,0.0,0.0,0.0,-0.28449,-0.24525000000000002,9.82962
813131305,22.22,0.0,0.0,0.0,-0.30411,-0.25506,9.819809999999999
818181810,22.22,0.0,0.0,0.0,-0.28449,-0.23544,9.83943
823232315,22.22,0.0,0.0,0.0,-0.2943,-0.20601000000000003,9.85905
828282820,22.22,0.0,0.0,0.0,-0.2943,-0.27468000000000004,9.819809999999999
833333325,22.22,0.0,0.0,0.0,-0.30411,-0.23544,9.819809999999999
838383830,22.22,0.0,0.0,0.0,-0.32373,-0.24525000000000002,9.84924
843434335,22.22,0.0,0.0,0.0,-0.26487,-0.25506,9.82962
848484840,22.22,0.0,0.0,0.0,-0.28449,-0.22563,9.81
853535345,22.22,0.0,0.0,0.0,-0.30411,-0.24525000000000002,9.82962
858585850,22.22,0.0,0.0,0.0,-0.28449,-0.26487,9.819809999999999
863636355,22.22,0.0,0.0,0.0,-0.28449,-0.25506,9.82962
868686860,22.22,0.0,0.0,0.0,-0.2943,-0.23544,9.82962
873737365,22.22,0.0,0.0,0.0,-0.31392000000000003,-0.24525000000000002,9.82962
878787870,22.22,0.0,0.0,0.0,-0.30411,-0.26487,9.83943
883838375,22.22,0.0,0.0,0.0,-0.28449,-0.23544,9.819809999999999
888888880,22.22,0.0,0.0,0.0,-0.28449,-0.25506,9.82962
893939385,22.22,0.0,0.0,0.0,-0.27468000000000004,-0.25506,9.83943
898989890,22.22,0.0,0.0,0.0,-0.28449,-0.22563,9.83943
904040395,22.22,0.0,0.0,0.0,-0.2943,-0.24525000000000002,9.819809999999999
909090900,22.22,0.0,0.0,0.0,-0.2943,-0.24525000000000002,9.83943
914141405,22.22,0.0,0.0,0.0,-0.32373,-0.26487,9.81
919191910,22.22,0.0,0.0,0.0,-0.2943,-0.25506,9.82962
924242415,22.22,0.0,0.0,0.0,-0.28449,-0.22563,9.83943
929292920,22.22,0.0,0.0,0.0,-0.30411,-0.25506,9.819809999999999
934343425,22.22,0.0,0.0,0.0,-0.2943,-0.26487,9.83943
939393930,22.22,0.0,0.0,0.0,-0.30411,-0.24525000000000002,9.84924
944444435,22.22,0.0,0.0,0.0,-0.30411,-0.23544,9.819809999999999
949494940,22.22,0.0,0.0,0.0,-0.31392000000000003,-0.25506,9.82962
954545445,22.22,0.0,0.0,0.0,-0.31392000000000003,-0.24525000000000002,9.84924
959595950,22.22,0.0,0.0,0.0,-0.28449,-0.24525000000000002,9.82962
964646455,22.22,0.0,0.0,0.0,-0.2943,-0.23544,9.83943
969696960,22.22,0.0,0.0,0.0,-0.31392000000000003,-0.26487,9.83943
974747465,22.22,0.0,0.0,0.0,-0.30411,-0.26487,9.819809999999999
979797970,22.22,0.0,0.0,0.0,-0.30411,-0.25506,9.82962
984848475,22.22,0.0,0.0,0.0,-0.26487,-0.27468000000000004,9.81
989898980,22.22,0.0,0.0,0.0,-0.30411,-0.26487,9.82962
994949485,22.22,0.0,0.0,0.0,-0.2943,-0.24525000000000002,9.83943
999999990,22.22,0.0,0.0,0.0,-0.31392000000000003,-0.23544,9.84924
1005050495,22.22,0.0,0.0,0.0,-0.28449,-0.26487,9.82962
1010101000,22.22,0.0,0.0,0.0,-0.31392000000000003,-0.23544,9.81
1015151505,22.22,0.0,0.0,0.0,-0.30411,-0.25506,9.819809999999999
1020202010,22.22,0.0,0.0,0.0,-0.2943,-0.23544,9.84924
1025252515,22.22,0.0,0.0,0.0,-0.27468000000000004,-0.25506,9.84924
1030303020,22.22,0.0,0.0,0.0,-0.28449,-0.26487,9.81
1035353525,22.22,0.0,0.0,0.0,-0.33354000000000006,-0.24525000000000002,9.84924
1040404030,22.22,0.0,0.0,0.0,-0.28449,-0.24525000000000002,9.84924
1045454535,22.22,0.0,0.0,0.0,-0.28449,-0.26487,9.819809999999999
1050505040,22.22,0.0,0.0,0.0,-0.30411,-0.27468000000000004,9.82962
1055555545,22.22,0.0,0.0,0.0,-0.2943,-0.26487,9.819809999999999
1060606050,22.22,0.0,0.0,0.0,-0.24525000000000002,-0.22563,9.73152
1065656555,22.22,0.0,0.0,0.0,-0.25506,-0.13734000000000002,9.58437
1070707060,22.22,-0.002129301687433082,0.00958185759344887,0.0,-0.27468000000000004,-0.10791,9.44703
1075757565,22.22,-0.015987215948268057,0.01064650843716541,0.0,-0.34335000000000004,-0.17658,9.39798
1080808070,22.22,-0.020245819323134222,0.0,0.0,-0.43164,-0.22563,9.44703
1085858575,22.22,-0.024504422698000388,-0.011711159280881954,0.0,-0.3924,-0.08829,9.59418
1090909080,22.22,-0.012775810124598492,-0.01918116847941768,0.0,-0.20601000000000003,-0.11772,9.633420000000001
1095959585,22.22,-0.03621558197888234,0.002129301687433082,0.0,-0.0981,-0.42183,9.59418
1101010090,22.22,-0.05113814708343386,0.011711159280881954,0.0,-0.50031,-0.43164,9.72171
1106060595,22.22,-0.001064650843716541,-0.002129301687433082,0.0,-0.42183,-0.04905,9.79038
1111111100,22.22,-0.008517206749732328,0.003193952531149623,0.0,-0.0981,0.019620000000000002,9.908100000000001
1116161605,22.22,-0.04153883619746504,0.004258603374866164,0.0,-0.34335000000000004,-0.56898,9.74133
1121212110,22.22,-0.06284930636431581,0.001064650843716541,0.0,-0.49050000000000005,-0.14715,9.59418
1126262615,22.22,-0.021310470166850764,-0.049008845396000776,0.0,-0.22563,-0.49050000000000005,9.94734
1131313120,22.22,-0.03408628029144926,0.015987215948268057,0.005323254218582705,0.019620000000000002,-0.31392000000000003,9.80019
1136363625,22.22,-0.020245819323134222,0.02982767691658309,0.004258603374866164,-0.5395500000000001,-0.06867000000000001,9.78057
1141414130,22.22,-0.022375121010567305,-0.024504422698000388,0.0,-0.18639,-0.009810000000000001,9.54513
1146464635,22.22,-0.03621558197888234,0.01811651763570114,0.001064650843716541,-0.08829,-0.44145,9.52551
1151515140,22.22,-0.06710790973918197,0.012775810124598492,0.004258603374866164,-0.59841,-0.63765,9.74133
1156565645,22.22,-0.031956978604016174,-0.00958185759344887,0.0,-0.5493600000000001,0.23544,9.68247
1161616150,22.22,-0.011711159280881954,-0.02769837522915001,-0.004258603374866164,-0.009810000000000001,-0.02943,9.6138
1166666655,22.22,-0.08628907821859966,-0.0,-0.001064650843716541,-0.06867000000000001,-0.8142300000000001,9.46665
1171717160,22.22,-0.0756251164889143,0.028763026072866547,0.005323254218582705,-0.63765,-0.40221,9.81
1176767665,22.22,-0.004258603374866164,-0.02982767691658309,0.002129301687433082,-0.51993,0.0981,9.89829
1181818170,22.22,-0.03621558197888234,-0.014905111812031574,-0.001064650843716541,0.25506,-0.36297,9.70209
1186868675,22.22,-0.08735372906231618,0.03728023282259888,0.001064650843716541,-0.48069000000000006,-0.72594,9.85905
1191919180,22.22,-0.054332099614583476,-0.014905111812031574,0.001064650843716541,-0.5591700000000001,-0.30411,10.03563
1196969685,22.22,-0.011711159280881954,-0.03515093113516579,0.0,0.0,-0.06867000000000001,9.86886
1202020190,22.22,-0.05007349623971732,0.033021629447732716,0.001064650843716541,-0.08829,-0.43164,9.65304
1207070695,22.22,-0.07883652231258387,0.012775810124598492,-0.002129301687433082,-0.43164,-0.5493600000000001,9.65304
1212121200,22.22,-0.023439771854283843,0.006387905062299246,0.001064650843716541,-0.44145,0.0,9.58437
1217171705,22.22,-0.03621558197888234,-0.001064650843716541,0.004258603374866164,-0.28449,-0.2943,9.623610000000001
1222222210,22.22,-0.08203047484373349,0.008517206749732328,0.003193952531149623,-0.26487,-0.38259000000000004,9.633420000000001
1227272715,22.22,-0.06817256058289851,-0.012775810124598492,0.0,-0.5591700000000001,-0.44145,9.73152
1232323220,22.22,-0.05326744877086694,-0.03408628029144926,0.001064650843716541,-0.21582,-0.40221,9.751140000000001
1237373725,22.22,-0.06604325889546543,0.002129301687433082,0.003193952531149623,-0.13734000000000002,-0.43164,9.937529999999999
1242424230,22.22,-0.06923721142661506,-0.0,-0.001064650843716541,-0.32373,-0.36297,9.97677
1247474735,22.22,-0.0404741853537485,-0.01064650843716541,0.0,-0.10791,-0.42183,9.73152
1252525240,22.22,-0.054332099614583476,0.03408628029144926,0.003193952531149623,-0.2943,-0.45126,9.67266
1257575745,22.22,-0.06284930636431581,0.02663372438543347,0.004258603374866164,-0.51993,-0.30411,9.83943
1262626250,22.22,-0.054332099614583476,-0.023439771854283843,-0.003193952531149623,-0.38259000000000004,-0.1962,9.84924
1267676755,22.22,-0.06391395720803235,-0.01811651763570114,-0.002129301687433082,-0.0981,-0.51993,9.70209
1272727260,22.22,-0.08735372906231618,-0.002129301687433082,0.003193952531149623,-0.3924,-0.7749900000000001,9.770760000000001
1277777765,22.22,-0.06178465552059926,0.0,0.003193952531149623,-0.36297,-0.25506,9.888480000000001
1282828270,22.22,-0.03621558197888234,-0.011711159280881954,-0.001064650843716541,-0.14715,-0.23544,9.819809999999999
1287878775,22.22,-0.06604325889546543,0.013840460968315033,-0.001064650843716541,-0.06867000000000001,-0.52974,9.59418
1292929280,22.22,-0.0756251164889143,0.028763026072866547,0.002129301687433082,-0.47088,-0.6180300000000001,9.65304
1297979785,22.22,-0.05752605214573309,0.004258603374866164,0.004258603374866164,-0.56898,-0.24525000000000002,9.760950000000001
1303030290,22.22,-0.05646140130201656,-0.02663372438543347,0.0,-0.28449,-0.32373,9.84924
1308080795,22.22,-0.08841837990603273,-0.015987215948268057,0.0,-0.15696000000000002,-0.69651,9.82962
1313131300,22.22,-0.08735372906231618,-0.005323254218582705,0.0,-0.31392000000000003,-0.6867000000000001,9.81
1318181805,22.22,-0.05646140130201656,-0.004258603374866164,0.002129301687433082,-0.2943,-0.44145,9.87867
1323232310,22.22,-0.05007349623971732,0.008517206749732328,0.0,-0.16677000000000003,-0.40221,9.84924
1328282815,22.22,-0.07456046564519776,0.013840460968315033,0.0,-0.26487,-0.5493600000000001,9.81
1333333320,22.22,-0.06284930636431581,0.005323254218582705,0.0,-0.45126,-0.51012,9.751140000000001
1338383825,22.22,-0.060720004676882725,0.001064650843716541,0.003193952531149623,-0.38259000000000004,-0.42183,9.770760000000001
1343434330,22.22,-0.06817256058289851,0.0,0.001064650843716541,-0.2943,-0.50031,9.79038
1348484835,22.22,-0.07777187146886733,-0.00958185759344887,0.0,-0.32373,-0.5591700000000001,9.760950000000001
1353535340,22.22,-0.07136651311404815,-0.007452555906015787,-0.004258603374866164,-0.26487,-0.52974,9.72171
1358585845,22.22,-0.07243116395776468,0.006387905062299246,0.002129301687433082,-0.28449,-0.65727,9.80019
1363636350,22.22,-0.0756251164889143,0.0,0.001064650843716541,-0.36297,-0.59841,9.937529999999999
1368686855,22.22,-0.05539675045830002,-0.008517206749732328,0.001064650843716541,-0.30411,-0.41202000000000005,9.908100000000001
1373737360,22.22,-0.06178465552059926,-0.004258603374866164,0.0,-0.06867000000000001,-0.60822,9.760950000000001
1378787865,22.22,-0.07990117315630041,0.024504422698000388,0.001064650843716541,-0.33354000000000006,-0.70632,9.73152
1383838370,22.22,-0.06923721142661506,0.01064650843716541,0.001064650843716541,-0.5395500000000001,-0.40221,9.819809999999999
1388888875,22.22,-0.05859070298944965,-0.028763026072866547,-0.003193952531149623,-0.20601000000000003,-0.51012,9.819809999999999
1393939380,22.22,-0.08415977653116657,0.001064650843716541,0.001064650843716541,-0.08829,-0.7749900000000001,9.770760000000001
1398989885,22.22,-0.08841837990603273,0.00958185759344887,0.003193952531149623,-0.51012,-0.7651800000000001,9.89829
1404040390,22.22,-0.05539675045830002,-0.0170518667919846,0.002129301687433082,-0.35316,-0.46107000000000004,9.91791
1409090895,22.22,-0.05646140130201656,-0.00958185759344887,-0.002129301687433082,-0.04905,-0.5591700000000001,9.85905
1414141400,22.22,-0.08309512568745003,0.020245819323134222,0.004258603374866164,-0.20601000000000003,-0.7848,9.74133
1419191905,22.22,-0.06817256058289851,0.014905111812031574,0.004258603374866164,-0.49050000000000005,-0.57879,9.73152
1424242410,22.22,-0.05220279792715039,-0.007452555906015787,0.001064650843716541,-0.33354000000000006,-0.47088,9.82962
1429292915,22.22,-0.06817256058289851,-0.006387905062299246,0.002129301687433082,-0.21582,-0.65727,9.81
1434343420,22.22,-0.08948303074974927,-0.003193952531149623,0.0,-0.33354000000000006,-0.80442,9.819809999999999
1439393925,22.22,-0.06817256058289851,-0.002129301687433082,0.002129301687433082,-0.34335000000000004,-0.5886,9.80019
1444444430,22.22,-0.05965535383316618,0.0,0.0,-0.24525000000000002,-0.6768900000000001,9.85905
1449494935,22.22,-0.0756251164889143,0.005323254218582705,0.0,-0.27468000000000004,-0.75537,9.888480000000001
1454545440,22.22,-0.06710790973918197,0.0,0.0,-0.2943,-0.64746,9.86886
1459595945,22.22,-0.05752605214573309,-0.002129301687433082,0.001064650843716541,-0.21582,-0.65727,9.78057
1464646450,22.22,-0.07030186227033158,0.008517206749732328,0.0,-0.28449,-0.79461,9.82962
1469696955,22.22,-0.07030186227033158,0.002129301687433082,0.001064650843716541,-0.40221,-0.60822,9.84924
1474747460,22.22,-0.05646140130201656,-0.014905111812031574,0.002129301687433082,-0.24525000000000002,-0.60822,9.80019
1479797965,22.22,-0.07030186227033158,0.002129301687433082,0.003193952531149623,-0.14715,-0.87309,9.760950000000001
1484848470,22.22,-0.07990117315630041,0.005323254218582705,0.004258603374866164,-0.49050000000000005,-0.9319500000000001,9.908100000000001
1489898975,22.22,-0.05646140130201656,-0.01918116847941768,0.001064650843716541,-0.40221,-0.5591700000000001,9.96696
1494949480,22.22,-0.049008845396000776,-0.0170518667919846,0.0,-0.02943,-0.71613,9.87867
1499999985,22.22,-0.07670722062515077,0.023439771854283843,0.0,-0.16677000000000003,-0.94176,9.770760000000001
1505050490,22.22,-0.06497860805174888,0.01811651763570114,0.0,-0.51012,-0.69651,9.79038
1510100995,22.22,-0.04366813788489812,-0.011711159280881954,0.0,-0.28449,-0.49050000000000005,9.79038
1515151500,22.22,-0.05859070298944965,0.005323254218582705,0.0,-0.17658,-0.8240400000000001,9.73152
1520202005,22.22,-0.09267698328089889,0.004258603374866164,0.0,-0.47088,-1.00062,9.80019
1525252510,22.22,-0.06284930636431581,-0.020245819323134222,0.0,-0.47088,-0.6768900000000001,9.937529999999999
1530303015,22.22,-0.04581489286485115,-0.02556907354171693,0.0,-0.04905,-0.74556,9.96696
1535353520,22.22,-0.07456046564519776,0.00958185759344887,0.0,-0.0981,-0.9810000000000001,9.83943
1540404025,22.22,-0.06817256058289851,0.015987215948268057,0.0,-0.44145,-0.8338500000000001,9.85905
1545454530,22.22,-0.033021629447732716,-0.005323254218582705,0.0,-0.31392000000000003,-0.59841,9.84924
1550505035,22.22,-0.05646140130201656,0.005323254218582705,0.0,-0.12753,-0.8829,9.888480000000001
1555555540,22.22,-0.07456046564519776,0.0170518667919846,0.0,-0.46107000000000004,-0.84366,9.82962
1560606045,22.22,-0.05539675045830002,-0.012775810124598492,0.0,-0.46107000000000004,-0.74556,9.82962
1565656550,22.22,-0.05007349623971732,-0.01811651763570114,0.0,-0.13734000000000002,-0.84366,9.81
1570707055,22.22,-0.07030186227033158,0.01064650843716541,0.0,-0.26487,-0.9613800000000001,9.83943
1575757560,22.22,-0.06178465552059926,-0.002129301687433082,0.0,-0.36297,-0.73575,9.83943
1580808065,22.22,-0.03408628029144926,-0.003193952531149623,0.0,-0.16677000000000003,-0.71613,9.770760000000001
1585858570,22.22,-0.06604325889546543,0.005323254218582705,0.0,-0.23544,-1.0791000000000002,9.84924
1590909075,22.22,-0.06923721142661506,0.006387905062299246,0.0,-0.49050000000000005,-0.84366,9.94734
1595959580,22.22,-0.028763026072866547,-0.0170518667919846,0.0,-0.35316,-0.65727,9.94734
1601010085,22.22,-0.05007349623971732,-0.008517206749732328,0.0,-0.009810000000000001,-1.00062,9.80019
1606060590,22.22,-0.07243116395776468,0.02769837522915001,0.0,-0.38259000000000004,-1.0791000000000002,9.84924
1611111095,22.22,-0.04794419455228423,-0.01064650843716541,0.0,-0.52974,-0.74556,9.92772
1616161600,22.22,-0.02663372438543347,-0.01811651763570114,0.0,0.0,-0.60822,9.84924
1621212105,22.22,-0.05539675045830002,0.022375121010567305,0.0,-0.18639,-1.10853,9.73152
1626262610,22.22,-0.07777187146886733,0.004258603374866164,0.0,-0.5493600000000001,-1.08891,9.82962
1631313115,22.22,-0.024504422698000388,-0.015987215948268057,0.0,-0.3924,-0.5493600000000001,9.94734
1636363620,22.22,-0.03834488366631542,-0.011711159280881954,0.0,0.0,-0.89271,9.95715
1641414125,22.22,-0.07136651311404815,0.021310470166850764,0.0,-0.24525000000000002,-1.21644,9.69228
1646464630,22.22,-0.044732788728614664,0.006387905062299246,0.001064650843716541,-0.65727,-0.79461,9.760950000000001
1651515135,22.22,-0.024504422698000388,-0.024504422698000388,-0.001064650843716541,-0.12753,-0.69651,9.94734
1656565640,22.22,-0.05326744877086694,0.01064650843716541,0.0,-0.009810000000000001,-1.04967,9.87867
1661616145,22.22,-0.05859070298944965,0.0170518667919846,0.0,-0.60822,-1.03005,9.70209
1666666650,22.22,-0.031956978604016174,-0.021310470166850764,0.002129301687433082,-0.38259000000000004,-0.80442,9.85905
1671717155,22.22,-0.04366813788489812,-0.005323254218582705,-0.001064650843716541,-0.039240000000000004,-1.03005,10.06506
1676767660,22.22,-0.05859070298944965,0.004258603374866164,0.001064650843716541,-0.30411,-1.0791000000000002,9.97677
1681818165,22.22,-0.02663372438543347,-0.001064650843716541,0.004258603374866164,-0.36297,-0.7848,9.84924
1686868670,22.22,-0.024504422698000388,0.0,0.0,-0.16677000000000003,-0.89271,9.819809999999999
1691919175,22.22,-0.05007349623971732,0.012775810124598492,0.0,-0.28449,-1.19682,9.91791
1696969680,22.22,-0.03834488366631542,-0.002129301687433082,0.002129301687433082,-0.49050000000000005,-0.8142300000000001,9.86886
1702020185,22.22,-0.012775810124598492,-0.020245819323134222,0.002129301687433082,-0.18639,-0.7749900000000001,9.79038
1707070690,22.22,-0.04366813788489812,-0.001064650843716541,0.0,-0.08829,-1.22625,9.72171
1712121195,22.22,-0.05539675045830002,0.01918116847941768,0.002129301687433082,-0.46107000000000004,-1.01043,9.84924
1717171700,22.22,-0.013840460968315033,-0.020245819323134222,-0.001064650843716541,-0.36297,-0.7848,9.97677
1722222205,22.22,-0.01918116847941768,-0.001064650843716541,0.0,-0.019620000000000002,-0.9319500000000001,9.74133
1727272710,22.22,-0.05007349623971732,0.01811651763570114,0.003193952531149623,-0.42183,-1.3243500000000001,9.89829
1732323215,22.22,-0.033021629447732716,-0.008517206749732328,0.0,-0.44145,-0.8338500000000001,9.97677
1737373720,22.22,0.002129301687433082,-0.01918116847941768,0.0,-0.14715,-0.8240400000000001,10.01601
1742424225,22.22,-0.03728023282259888,0.012775810124598492,0.0,-0.16677000000000003,-1.20663,9.80019
1747474730,22.22,-0.04260348704118158,0.00958185759344887,0.0,-0.50031,-1.0791000000000002,9.89829
1752525235,22.22,-0.01064650843716541,-0.015987215948268057,0.0,-0.36297,-0.79461,9.96696
1757575740,22.22,-0.00958185759344887,-0.001064650843716541,0.002129301687433082,-0.06867000000000001,-0.95157,9.819809999999999
1762626245,22.22,-0.04794419455228423,0.0170518667919846,0.002129301687433082,-0.38259000000000004,-1.21644,9.81
1767676750,22.22,-0.015987215948268057,0.0,0.005323254218582705,-0.51993,-0.75537,9.7119
1772727255,22.22,-0.001064650843716541,-0.023439771854283843,-0.001064650843716541,-0.17658,-0.94176,9.760950000000001
1777777760,22.22,-0.04260348704118158,0.008517206749732328,0.002129301687433082,-0.0981,-1.2360600000000002,9.78057
1782828265,22.22,-0.028763026072866547,0.014905111812031574,0.001064650843716541,-0.60822,-0.9908100000000001,9.87867
1787878770,22.22,-0.003193952531149623,-0.028763026072866547,0.0,-0.26487,-0.80442,9.91791
1792929275,22.22,-0.0170518667919846,-0.005323254218582705,0.0,-0.009810000000000001,-1.29492,9.908100000000001
1797979780,22.22,-0.039409534510031964,0.023439771854283843,0.002129301687433082,-0.42183,-1.1477700000000002,10.01601
1803030285,22.22,0.007452555906015787,-0.01064650843716541,0.001064650843716541,-0.43164,-0.80442,10.074869999999999
1808080790,22.22,0.004258603374866164,-0.005323254218582705,0.0,-0.039240000000000004,-0.94176,9.908100000000001
1813131295,22.22,-0.03834488366631542,0.013840460968315033,0.001064650843716541,-0.32373,-1.4715,10.006200000000002
1818181800,22.22,-0.01064650843716541,0.0,0.003193952531149623,-0.52974,-0.74556,9.95715
1823232305,22.22,0.024504422698000388,-0.01918116847941768,0.0,-0.11772,-0.65727,9.81
1828282810,22.22,-0.014905111812031574,0.011711159280881954,0.002129301687433082,0.0,-1.2360600000000002,9.58437
1833333315,22.22,-0.04260348704118158,0.028763026072866547,0.0,-0.59841,-1.1870100000000001,9.72171
1838383820,22.22,0.0170518667919846,-0.021310470166850764,0.002129301687433082,-0.5493600000000001,-0.70632,9.82962
1843434325,22.22,0.008517206749732328,-0.023439771854283843,-0.001064650843716541,0.02943,-0.90252,9.78057
1848484830,22.22,-0.033021629447732716,0.0170518667919846,0.004258603374866164,-0.23544,-1.40283,9.819809999999999
1853535335,22.22,-0.015987215948268057,0.003193952531149623,0.0,-0.45126,-0.9221400000000001,9.85905
1858585840,22.22,0.02663372438543347,-0.01064650843716541,-0.001064650843716541,-0.24525000000000002,-0.73575,9.87867
1863636345,22.22,-0.004258603374866164,0.012775810124598492,-0.002129301687433082,-0.11772,-1.1477700000000002,9.770760000000001
1868686850,22.22,-0.03089232776029963,0.011711159280881954,0.001064650843716541,-0.52974,-1.24587,9.85905
1873737355,22.22,0.01064650843716541,-0.013840460968315033,0.0,-0.51993,-0.79461,9.99639
1878787860,22.22,0.01064650843716541,-0.02556907354171693,0.0,-0.05886,-1.05948,9.92772
1883838365,22.22,-0.01918116847941768,0.015987215948268057,0.0,-0.17658,-1.21644,9.908100000000001
1888888870,22.22,0.007452555906015787,0.007452555906015787,0.001064650843716541,-0.43164,-0.9123300000000001,9.86886
1893939375,22.22,0.020245819323134222,-0.004258603374866164,0.0,-0.12753,-0.79461,9.73152
1898989880,22.22,0.0,0.01811651763570114,0.001064650843716541,-0.23544,-1.0791000000000002,9.70209
1904040385,22.22,-0.0170518667919846,0.005323254218582705,0.0,-0.5493600000000001,-1.15758,9.73152
1909090890,22.22,0.006387905062299246,-0.022375121010567305,0.0,-0.3924,-0.9711900000000001,9.888480000000001
1914141395,22.22,0.00958185759344887,-0.013840460968315033,-0.001064650843716541,-0.18639,-1.1477700000000002,10.045440000000001
1919191900,22.22,0.0,0.002129301687433082,-0.001064650843716541,-0.17658,-1.1772,10.12392
1924242405,22.22,0.023439771854283843,0.011711159280881954,0.0,-0.33354000000000006,-0.90252,10.163160000000001
1929292910,22.22,0.02556907354171693,0.004258603374866164,0.0,-0.25506,-0.9613800000000001,10.006200000000002
1934343415,22.22,0.002129301687433082,0.007452555906015787,0.001064650843716541,-0.34335000000000004,-1.13796,9.87867
1939393920,22.22,0.012775810124598492,0.0,0.0,-0.5493600000000001,-0.8142300000000001,9.770760000000001
1944444425,22.22,0.03089232776029963,-0.02663372438543347,0.001064650843716541,-0.15696000000000002,-0.9613800000000001,9.79038
1949494930,22.22,0.0,-0.003193952531149623,0.0,-0.06867000000000001,-1.3243500000000001,9.82962
1954545435,22.22,0.012775810124598492,0.01064650843716541,0.0,-0.37278,-0.9123300000000001,9.85905
1959595940,22.22,0.0404741853537485,-0.006387905062299246,-0.004258603374866164,-0.22563,-0.8142300000000001,9.81
1964646445,22.22,0.04794419455228423,0.02769837522915001,0.003193952531149623,-0.18639,-0.9123300000000001,9.69228
1969696950,22.22,-0.001064650843716541,0.013840460968315033,0.002129301687433082,-0.5591700000000001,-1.31454,9.98658
1974747455,22.22,0.014905111812031574,-0.0170518667919846,0.0,-0.5395500000000001,-0.69651,9.91791
1979797960,22.22,0.03515093113516579,-0.05220279792715039,-0.001064650843716541,-0.07848000000000001,-1.02024,9.89829
1984848465,22.22,0.0,-0.001064650843716541,0.0,0.1962,-1.5499800000000001,9.83943
1989898970,22.22,0.021310470166850764,0.05007349623971732,0.005323254218582705,-0.49050000000000005,-0.9810000000000001,10.13373
1994949475,22.22,0.07243116395776468,-0.002129301687433082,-0.002129301687433082,-0.48069000000000006,-0.44145,9.99639
1999999980,22.22,0.05220279792715039,-0.00958185759344887,-0.003193952531149623,0.0,-0.9319500000000001,9.80019
2005050485,22.22,-0.020245819323134222,0.02769837522915001,0.001064650843716541,-0.47088,-1.6284600000000002,9.79038
2010100990,22.22,0.021310470166850764,-0.012775810124598492,0.0,-0.7651800000000001,-0.70632,10.045440000000001
2015151495,22.22,0.07777187146886733,-0.046879543708567686,-0.005323254218582705,0.019620000000000002,-0.5493600000000001,9.85905
2020202000,22.22,0.02982767691658309,0.01811651763570114,-0.003193952531149623,0.11772,-1.0987200000000001,9.42741
2025252505,22.22,-0.013840460968315033,0.033021629447732716,0.002129301687433082,-0.60822,-1.42245,9.74133
2030303010,22.22,0.060720004676882725,-0.005323254218582705,-0.002129301687433082,-0.6180300000000001,-0.5591700000000001,9.83943
2035353515,22.22,0.07883652231258387,-0.0170518667919846,0.0,-0.13734000000000002,-0.63765,9.81
2040404020,22.22,0.005323254218582705,0.01811651763570114,0.0,-0.10791,-1.26549,9.85905
2045454525,22.22,0.01064650843716541,0.004258603374866164,0.002129301687433082,-0.71613,-1.01043,9.91791
2050505030,22.22,0.05752605214573309,-0.039409534510031964,-0.001064650843716541,-0.31392000000000003,-0.7749900000000001,9.99639
2055555535,22.22,0.044732788728614664,-0.011711159280881954,-0.001064650843716541,0.0981,-1.0987200000000001,9.888480000000001
2060606040,22.22,0.022375121010567305,0.02982767691658309,0.002129301687433082,-0.37278,-1.1477700000000002,10.01601
2065656545,22.22,0.06178465552059926,-0.005323254218582705,0.0,-0.3924,-0.86328,10.05525
2070707050,22.22,0.06284930636431581,0.005323254218582705,0.0,-0.11772,-0.8142300000000001,10.006200000000002
2075757555,22.22,0.03728023282259888,0.014905111812031574,0.0,-0.35316,-1.03986,9.96696
2080808060,22.22,0.033021629447732716,-0.004258603374866164,0.0,-0.46107000000000004,-0.85347,9.80019
2085858565,22.22,0.06391395720803235,-0.013840460968315033,-0.001064650843716541,-0.20601000000000003,-0.7651800000000001,9.760950000000001
2090909070,22.22,0.04366813788489812,0.005323254218582705,0.0,-0.16677000000000003,-1.02024,9.69228
2095959575,22.22,0.03408628029144926,0.00958185759344887,-0.002129301687433082,-0.37278,-0.90252,9.66285
2101010080,22.22,0.06284930636431581,0.0,-0.002129301687433082,-0.37278,-0.64746,9.760950000000001
2106060585,22.22,0.04581489286485115,-0.00958185759344887,-0.001064650843716541,-0.11772,-1.03005,9.80019
2111111090,22.22,0.028763026072866547,0.007452555906015787,0.0,-0.48069000000000006,-1.1477700000000002,9.94734
2116161595,22.22,0.060720004676882725,-0.014905111812031574,0.0,-0.43164,-0.6867000000000001,10.05525
2121212100,22.22,0.06710790973918197,-0.020245819323134222,-0.003193952531149623,-0.02943,-0.8240400000000001,10.03563
2126262605,22.22,0.039409534510031964,0.0170518667919846,0.001064650843716541,-0.18639,-1.1183400000000001,9.908100000000001
2131313110,22.22,0.05007349623971732,0.007452555906015787,0.0,-0.5493600000000001,-0.8829,9.87867
2136363615,22.22,0.08203047484373349,-0.006387905062299246,0.002129301687433082,-0.17658,-0.52974,9.888480000000001
2141414120,22.22,0.07136651311404815,0.007452555906015787,-0.003193952531149623,-0.10791,-0.89271,9.770760000000001
2146464625,22.22,0.031956978604016174,0.013840460968315033,0.001064650843716541,-0.42183,-1.03986,9.65304
2151515130,22.22,0.06178465552059926,-0.011711159280881954,0.001064650843716541,-0.50031,-0.69651,9.87867
2156565635,22.22,0.06817256058289851,-0.02663372438543347,-0.002129301687433082,-0.11772,-0.79461,9.99639
2161616140,22.22,0.05113814708343386,0.006387905062299246,0.0,-0.13734000000000002,-1.00062,9.82962
2166666645,22.22,0.05113814708343386,0.00958185759344887,0.0,-0.47088,-0.85347,9.770760000000001
2171717150,22.22,0.07670722062515077,-0.006387905062299246,-0.002129301687433082,-0.14715,-0.6278400000000001,9.85905
2176767655,22.22,0.0756251164889143,0.012775810124598492,-0.002129301687433082,-0.13734000000000002,-0.84366,9.908100000000001
2181818160,22.22,0.04366813788489812,0.014905111812031574,0.0,-0.44145,-0.9810000000000001,9.83943
2186868665,22.22,0.06923721142661506,-0.007452555906015787,-0.003193952531149623,-0.51012,-0.59841,9.86886
2191919170,22.22,0.07136651311404815,-0.02769837522915001,-0.003193952531149623,-0.20601000000000003,-0.8338500000000001,9.94734
2196969675,22.22,0.044732788728614664,0.0,-0.001064650843716541,-0.08829,-1.10853,9.94734
2202020180,22.22,0.06178465552059926,0.013840460968315033,-0.002129301687433082,-0.44145,-0.7848,9.98658
2207070685,22.22,0.09800023749948161,-0.005323254218582705,-0.001064650843716541,-0.1962,-0.5591700000000001,9.86886
2212121190,22.22,0.07777187146886733,0.01918116847941768,0.0,-0.039240000000000004,-0.79461,9.74133
2217171695,22.22,0.044732788728614664,0.02556907354171693,0.001064650843716541,-0.51012,-0.9123300000000001,9.83943
2222222200,22.22,0.07349581480148122,-0.01811651763570114,0.0,-0.51993,-0.60822,9.87867
2227272705,22.22,0.08948303074974927,-0.022375121010567305,-0.003193952531149623,-0.15696000000000002,-0.5395500000000001,9.79038
2232323210,22.22,0.05326744877086694,0.0,-0.002129301687433082,-0.12753,-0.9613800000000001,9.78057
2237373715,22.22,0.05220279792715039,0.006387905062299246,0.0,-0.35316,-0.8338500000000001,9.89829
2242424220,22.22,0.09480628496833199,-0.008517206749732328,-0.001064650843716541,-0.34335000000000004,-0.60822,9.95715
2247474725,22.22,0.08628907821859966,-0.005323254218582705,0.002129301687433082,-0.11772,-0.75537,9.85905
2252525230,22.22,0.06391395720803235,0.01064650843716541,0.0,-0.2943,-0.84366,9.888480000000001
2257575735,22.22,0.07670722062515077,0.0,0.001064650843716541,-0.41202000000000005,-0.64746,9.98658
2262626240,22.22,0.08841837990603273,-0.008517206749732328,-0.002129301687433082,-0.11772,-0.60822,9.87867
2267676745,22.22,0.07883652231258387,0.01811651763570114,0.0,-0.31392000000000003,-0.6670800000000001,9.74133
2272727250,22.22,0.07243116395776468,0.001064650843716541,0.0,-0.42183,-0.69651,9.74133
2277777755,22.22,0.07670722062515077,-0.01064650843716541,-0.001064650843716541,-0.34335000000000004,-0.65727,9.87867
2282828260,22.22,0.07670722062515077,-0.004258603374866164,0.001064650843716541,-0.32373,-0.7848,10.01601
2287878765,22.22,0.07670722062515077,-0.012775810124598492,0.0,-0.30411,-0.60822,9.89829
2292929270,22.22,0.09267698328089889,-0.001064650843716541,-0.005323254218582705,-0.11772,-0.52974,9.82962
2297979775,22.22,0.08309512568745003,0.011711159280881954,0.0,-0.15696000000000002,-0.75537,9.81
2303030280,22.22,0.06923721142661506,0.01918116847941768,0.0,-0.38259000000000004,-0.73575,9.85905
2308080785,22.22,0.09587093581204853,-0.00958185759344887,-0.001064650843716541,-0.44145,-0.44145,9.888480000000001
2313131290,22.22,0.09054768159346581,-0.012775810124598492,-0.004258603374866164,-0.16677000000000003,-0.50031,9.73152
2318181795,22.22,0.07243116395776468,0.01064650843716541,0.005323254218582705,-0.25506,-0.73575,9.79038
2323232300,22.22,0.0756251164889143,0.004258603374866164,0.001064650843716541,-0.51993,-0.6278400000000001,9.888480000000001
2328282805,22.22,0.09267698328089889,-0.021310470166850764,-0.003193952531149623,-0.27468000000000004,-0.46107000000000004,9.94734
2333333310,22.22,0.08735372906231618,-0.005323254218582705,-0.003193952531149623,-0.16677000000000003,-0.5886,9.84924
2338383815,22.22,0.06710790973918197,0.002129301687433082,-0.003193952531149623,-0.25506,-0.80442,9.937529999999999
2343434320,22.22,0.08841837990603273,0.011711159280881954,0.0,-0.31392000000000003,-0.44145,9.92772
2348484825,22.22,0.10759954838545042,0.001064650843716541,0.001064650843716541,-0.2943,-0.41202000000000005,9.89829
2353535330,22.22,0.08415977653116657,0.005323254218582705,-0.001064650843716541,-0.22563,-0.6278400000000001,9.73152
2358585835,22.22,0.07670722062515077,0.014905111812031574,0.001064650843716541,-0.44145,-0.5395500000000001,9.80019
2363636340,22.22,0.09906488834319814,-0.011711159280881954,0.0,-0.40221,-0.41202000000000005,9.888480000000001
2368686845,22.22,0.0852244273748831,-0.007452555906015787,-0.003193952531149623,-0.11772,-0.52974,9.819809999999999
2373737350,22.22,0.07456046564519776,0.01064650843716541,-0.002129301687433082,-0.40221,-0.59841,9.78057
2378787855,22.22,0.07990117315630041,-0.014905111812031574,0.0,-0.40221,-0.5591700000000001,9.92772
2383838360,22.22,0.09374163412461543,-0.005323254218582705,-0.003193952531149623,-0.15696000000000002,-0.45126,9.937529999999999
2388888865,22.22,0.08841837990603273,0.005323254218582705,0.0,-0.27468000000000004,-0.56898,9.92772
2393939370,22.22,0.08841837990603273,0.0,0.0,-0.28449,-0.42183,9.82962
2398989875,22.22,0.10653489754173388,0.008517206749732328,-0.001064650843716541,-0.28449,-0.36297,9.819809999999999
2404040380,22.22,0.08628907821859966,0.0,-0.001064650843716541,-0.31392000000000003,-0.5395500000000001,9.81
2409090885,22.22,0.08628907821859966,0.006387905062299246,0.0,-0.38259000000000004,-0.38259000000000004,9.79038
2414141390,22.22,0.09267698328089889,-0.012775810124598492,-0.003193952531149623,-0.30411,-0.40221,9.888480000000001
2419191895,22.22,0.08735372906231618,-0.002129301687433082,-0.001064650843716541,-0.14715,-0.43164,9.79038
2424242400,22.22,0.08415977653116657,0.008517206749732328,0.001064650843716541,-0.38259000000000004,-0.5395500000000001,9.85905
2429292905,22.22,0.09480628496833199,-0.007452555906015787,0.0,-0.2943,-0.37278,9.87867
2434343410,22.22,0.10653489754173388,-0.003193952531149623,0.0,-0.20601000000000003,-0.33354000000000006,9.84924
2439393915,22.22,0.08948303074974927,0.00958185759344887,-0.001064650843716541,-0.22563,-0.40221,9.819809999999999
2444444420,22.22,0.08841837990603273,0.011711159280881954,0.0,-0.33354000000000006,-0.41202000000000005,9.82962
2449494925,22.22,0.09800023749948161,0.003193952531149623,0.002129301687433082,-0.3924,-0.32373,9.819809999999999
2454545430,22.22,0.09480628496833199,-0.012775810124598492,0.0,-0.31392000000000003,-0.3924,9.888480000000001
2459595935,22.22,0.08096582400001695,-0.005323254218582705,-0.002129301687433082,-0.23544,-0.42183,9.91791
2464646440,22.22,0.09906488834319814,0.0,-0.002129301687433082,-0.30411,-0.26487,9.85905
2469696945,22.22,0.09906488834319814,0.0,0.0,-0.1962,-0.41202000000000005,9.81
2474747450,22.22,0.09267698328089889,0.012775810124598492,0.001064650843716541,-0.33354000000000006,-0.30411,9.78057
2479797955,22.22,0.10225884087434776,0.0,0.0,-0.45126,-0.21582,9.81
2484848460,22.22,0.10119419003063122,-0.014905111812031574,-0.002129301687433082,-0.10791,-0.1962,9.74133
2489898965,22.22,0.09054768159346581,0.0170518667919846,0.0,-0.31392000000000003,-0.3924,9.72171
2494949470,22.22,0.07670722062515077,-0.005323254218582705,-0.002129301687433082,-0.51012,-0.48069000000000006,9.83943
2499999975,22.22,0.09587093581204853,-0.01918116847941768,-0.001064650843716541,-0.30411,-0.11772,9.94734
2505050480,22.22,0.10653489754173388,-0.015987215948268057,-0.001064650843716541,-0.10791,-0.20601000000000003,9.94734
2510100985,22.22,0.08096582400001695,0.013840460968315033,0.001064650843716541,-0.13734000000000002,-0.48069000000000006,9.770760000000001
2515151490,22.22,0.09480628496833199,0.028763026072866547,0.0,-0.42183,-0.16677000000000003,9.81
2520201995,22.22,0.10866419922916695,-0.014905111812031574,-0.001064650843716541,-0.41202000000000005,-0.0981,9.86886
2525252500,22.22,0.09587093581204853,-0.004258603374866164,-0.003193952531149623,-0.07848000000000001,-0.16677000000000003,9.760950000000001
2530303005,22.22,0.07990117315630041,0.0170518667919846,-0.001064650843716541,-0.41202000000000005,-0.31392000000000003,9.760950000000001
2535353510,22.22,0.08948303074974927,-0.006387905062299246,-0.004258603374866164,-0.41202000000000005,-0.13734000000000002,9.760950000000001
2540404015,22.22,0.09374163412461543,-0.014905111812031574,-0.001064650843716541,-0.30411,-0.25506,9.86886
2545454520,22.22,0.08415977653116657,-0.007452555906015787,0.001064650843716541,-0.24525000000000002,-0.24525000000000002,9.937529999999999
2550505025,22.22,0.09161233243718235,-0.008517206749732328,0.0,-0.23544,-0.24525000000000002,9.937529999999999
2555555530,22.22,0.10545279340549739,0.014905111812031574,-0.002129301687433082,-0.1962,-0.02943,9.819809999999999
2560606035,22.22,0.09906488834319814,0.012775810124598492,-0.002129301687433082,-0.31392000000000003,-0.23544,9.81
2565656540,22.22,0.08415977653116657,0.005323254218582705,-0.001064650843716541,-0.32373,-0.12753,9.79038
2570707045,22.22,0.10119419003063122,-0.003193952531149623,0.0,-0.42183,-0.04905,9.819809999999999
2575757550,22.22,0.09161233243718235,-0.006387905062299246,0.0,-0.20601000000000003,-0.06867000000000001,9.7119
2580808055,22.22,0.08735372906231618,0.007452555906015787,0.0,-0.34335000000000004,-0.18639,9.70209
2585858560,22.22,0.08309512568745003,-0.01064650843716541,0.0,-0.41202000000000005,-0.24525000000000002,9.83943
2590909065,22.22,0.08948303074974927,-0.013840460968315033,0.0,-0.23544,-0.04905,9.94734
2595959570,22.22,0.10012953918691468,0.0,0.0,-0.22563,-0.04905,9.888480000000001
2601010075,22.22,0.09161233243718235,0.005323254218582705,0.0,-0.18639,-0.11772,9.751140000000001
2606060580,22.22,0.09587093581204853,0.01918116847941768,0.0,-0.37278,-0.02943,9.770760000000001
2611111085,22.22,0.08628907821859966,-0.002129301687433082,0.0,-0.3924,-0.08829,9.81
2616161590,22.22,0.08841837990603273,-0.004258603374866164,0.0,-0.31392000000000003,0.05886,9.78057
2621212095,22.22,0.08948303074974927,-0.006387905062299246,0.0,-0.32373,-0.02943,9.81
2626262600,22.22,0.0852244273748831,-0.005323254218582705,0.0,-0.1962,-0.13734000000000002,9.81
2631313105,22.22,0.08203047484373349,0.004258603374866164,0.0,-0.32373,-0.11772,9.888480000000001
2636363610,22.22,0.09587093581204853,-0.003193952531149623,0.0,-0.2943,0.05886,9.86886
2641414115,22.22,0.09800023749948161,-0.003193952531149623,0.0,-0.17658,0.009810000000000001,9.819809999999999
2646464620,22.22,0.09267698328089889,0.01811651763570114,0.0,-0.28449,0.039240000000000004,9.7119
2651515125,22.22,0.08841837990603273,0.007452555906015787,0.0,-0.3924,-0.009810000000000001,9.68247
2656565630,22.22,0.08948303074974927,0.0,0.0,-0.36297,0.039240000000000004,9.73152
2661616135,22.22,0.0852244273748831,-0.004258603374866164,0.0,-0.35316,0.08829,9.78057
2666666640,22.22,0.0852244273748831,-0.01811651763570114,0.0,-0.27468000000000004,-0.009810000000000001,9.79038
2671717145,22.22,0.07777187146886733,0.0,0.0,-0.24525000000000002,-0.019620000000000002,9.83943
2676767650,22.22,0.08735372906231618,0.0,0.0,-0.33354000000000006,0.0,9.888480000000001
2681818155,22.22,0.08415977653116657,-0.003193952531149623,0.0,-0.23544,0.009810000000000001,9.89829
2686868660,22.22,0.09267698328089889,0.00958185759344887,0.0,-0.32373,0.11772,9.83943
2691919165,22.22,0.08841837990603273,-0.002129301687433082,0.0,-0.25506,0.07848000000000001,9.80019
2696969670,22.22,0.0852244273748831,0.008517206749732328,0.0,-0.27468000000000004,0.08829,9.69228
2702020175,22.22,0.08415977653116657,0.01064650843716541,0.0,-0.41202000000000005,0.15696000000000002,9.70209
2707070680,22.22,0.08203047484373349,-0.00958185759344887,0.0,-0.30411,0.13734000000000002,9.69228
2712121185,22.22,0.07777187146886733,0.0,0.0,-0.31392000000000003,0.10791,9.760950000000001
2717171690,22.22,0.07349581480148122,-0.01064650843716541,0.0,-0.33354000000000006,0.0,9.84924
2722222195,22.22,0.07990117315630041,-0.005323254218582705,0.0,-0.23544,0.1962,9.86886
2727272700,22.22,0.09054768159346581,0.004258603374866164,0.0,-0.27468000000000004,0.11772,9.81
2732323205,22.22,0.06817256058289851,0.003193952531149623,0.0,-0.25506,-0.009810000000000001,9.79038
2737373710,22.22,0.08203047484373349,0.01064650843716541,0.0,-0.41202000000000005,0.23544,9.84924
2742424215,22.22,0.08841837990603273,-0.011711159280881954,0.0,-0.2943,0.25506,9.819809999999999
2747474720,22.22,0.08203047484373349,0.005323254218582705,0.0,-0.15696000000000002,0.15696000000000002,9.7119
2752525225,22.22,0.07030186227033158,0.0170518667919846,0.0,-0.44145,0.13734000000000002,9.7119
2757575730,22.22,0.07243116395776468,-0.013840460968315033,0.0,-0.36297,0.14715,9.819809999999999
2762626235,22.22,0.08203047484373349,-0.00958185759344887,0.0,-0.25506,0.26487,9.819809999999999
2767676740,22.22,0.07670722062515077,-0.005323254218582705,0.0,-0.24525000000000002,0.13734000000000002,9.84924
2772727245,22.22,0.06923721142661506,0.0,0.0,-0.1962,0.17658,9.770760000000001
2777777750,22.22,0.0852244273748831,0.01811651763570114,0.0,-0.30411,0.2943,9.74133
2782828255,22.22,0.0756251164889143,-0.002129301687433082,0.0,-0.34335000000000004,0.16677000000000003,9.70209
2787878760,22.22,0.06391395720803235,0.005323254218582705,0.0,-0.33354000000000006,0.24525000000000002,9.72171
2792929265,22.22,0.07777187146886733,-0.006387905062299246,0.0,-0.40221,0.33354000000000006,9.81
2797979770,22.22,0.06497860805174888,-0.01918116847941768,0.0,-0.16677000000000003,0.15696000000000002,9.770760000000001
2803030275,22.22,0.060720004676882725,0.003193952531149623,0.0,-0.24525000000000002,0.21582,9.81
2808080780,22.22,0.07670722062515077,0.001064650843716541,0.0,-0.3924,0.2943,9.80019
2813131285,22.22,0.07136651311404815,-0.002129301687433082,0.0,-0.18639,0.28449,9.760950000000001
2818181790,22.22,0.06497860805174888,0.01918116847941768,0.0,-0.37278,0.1962,9.79038
2823232295,22.22,0.06284930636431581,-0.008517206749732328,0.0,-0.43164,0.27468000000000004,9.82962
2828282800,22.22,0.07777187146886733,-0.005323254218582705,0.0,-0.24525000000000002,0.42183,9.770760000000001
2833333305,22.22,0.06604325889546543,0.001064650843716541,0.0,-0.24525000000000002,0.2943,9.73152
2838383810,22.22,0.05113814708343386,0.007452555906015787,0.0,-0.31392000000000003,0.26487,9.633420000000001
2843434315,22.22,0.06391395720803235,0.0,0.0,-0.34335000000000004,0.35316,9.72171
2848484820,22.22,0.06178465552059926,-0.004258603374866164,0.0,-0.30411,0.25506,9.81
2853535325,22.22,0.054332099614583476,-0.004258603374866164,0.0,-0.28449,0.2943,9.84924
2858585830,22.22,0.06817256058289851,-0.003193952531149623,0.0,-0.28449,0.33354000000000006,9.84924
2863636335,22.22,0.06178465552059926,-0.002129301687433082,0.0,-0.17658,0.30411,9.770760000000001
2868686840,22.22,0.05539675045830002,0.01811651763570114,0.0,-0.32373,0.38259000000000004,9.69228
2873737345,22.22,0.06710790973918197,0.004258603374866164,0.0,-0.37278,0.46107000000000004,9.67266
2878787850,22.22,0.05646140130201656,-0.003193952531149623,0.0,-0.24525000000000002,0.30411,9.65304
2883838355,22.22,0.04366813788489812,0.008517206749732328,0.0,-0.42183,0.30411,9.751140000000001
2888888860,22.22,0.046879543708567686,-0.01918116847941768,0.0,-0.42183,0.31392000000000003,9.85905
2893939365,22.22,0.05752605214573309,-0.01064650843716541,0.0,-0.12753,0.45126,9.81
2898989870,22.22,0.054332099614583476,0.004258603374866164,0.0,-0.21582,0.26487,9.80019
2904040375,22.22,0.04366813788489812,0.011711159280881954,0.0,-0.26487,0.33354000000000006,9.760950000000001
2909090880,22.22,0.06284930636431581,0.013840460968315033,0.0,-0.36297,0.57879,9.78057
2914141385,22.22,0.06178465552059926,0.001064650843716541,0.0,-0.30411,0.41202000000000005,9.65304
2919191890,22.22,0.03621558197888234,0.005323254218582705,0.0,-0.37278,0.26487,9.64323
2924242395,22.22,0.04260348704118158,-0.003193952531149623,0.0,-0.52974,0.40221,9.80019
2929292900,22.22,0.04260348704118158,-0.02769837522915001,0.0,-0.20601000000000003,0.44145,9.937529999999999
2934343405,22.22,0.05007349623971732,-0.003193952531149623,0.0,-0.08829,0.37278,9.760950000000001
2939393910,22.22,0.044732788728614664,0.01064650843716541,0.0,-0.34335000000000004,0.32373,9.623610000000001
2944444415,22.22,0.049008845396000776,0.012775810124598492,0.0,-0.28449,0.5395500000000001,9.770760000000001
2949494920,22.22,0.05113814708343386,0.00958185759344887,0.0,-0.30411,0.5493600000000001,9.79038
2954545425,22.22,0.04153883619746504,0.0,0.0,-0.37278,0.42183,9.496080000000001
2959595930,22.22,0.033021629447732716,0.001064650843716541,0.0,-0.40221,0.42183,9.57456
2964646435,22.22,0.03089232776029963,-0.006387905062299246,0.0,-0.38259000000000004,0.45126,9.819809999999999
2969696940,22.22,0.033021629447732716,-0.01918116847941768,0.0,-0.22563,0.33354000000000006,9.87867
2974747445,22.22,0.03834488366631542,-0.002129301687433082,0.0,-0.21582,0.37278,9.751140000000001
2979797950,22.22,0.03834488366631542,0.005323254218582705,0.0,-0.2943,0.41202000000000005,9.83943
2984848455,22.22,0.04153883619746504,0.005323254218582705,0.0,-0.23544,0.46107000000000004,9.86886
2989898960,22.22,0.04581489286485115,0.01918116847941768,0.0,-0.33354000000000006,0.51012,9.78057
2994949465,22.22,0.03621558197888234,-0.001064650843716541,0.0,-0.33354000000000006,0.43164,9.70209
2999999970,22.22,0.02769837522915001,0.01064650843716541,0.0,-0.40221,0.5493600000000001,9.58437
3005050475,22.22,0.033021629447732716,-0.011711159280881954,0.0,-0.35316,0.50031,9.68247
3010100980,22.22,0.024504422698000388,-0.002129301687433082,0.0,-0.21582,0.49050000000000005,9.623610000000001
3015151485,22.22,0.021310470166850764,0.001064650843716541,0.0,-0.31392000000000003,0.37278,9.69228
3020201990,22.22,0.022375121010567305,0.0,0.0,-0.37278,0.51012,9.68247
3025252495,22.22,0.03089232776029963,-0.012775810124598492,0.0,-0.22563,0.48069000000000006,9.80019
3030303000,22.22,0.0170518667919846,0.002129301687433082,0.0,-0.28449,0.42183,9.83943
3035353505,22.22,0.02663372438543347,0.001064650843716541,0.0,-0.33354000000000006,0.42183,9.84924
3040404010,22.22,0.02769837522915001,-0.005323254218582705,0.0,-0.30411,0.49050000000000005,9.79038
3045454515,22.22,0.028763026072866547,0.003193952531149623,0.0,-0.21582,0.56898,9.73152
3050505020,22.22,0.021310470166850764,0.002129301687433082,0.0,-0.34335000000000004,0.38259000000000004,9.751140000000001
3055555525,22.22,0.013840460968315033,0.005323254218582705,0.0,-0.32373,0.47088,9.70209
3060606030,22.22,0.028763026072866547,-0.003193952531149623,0.0,-0.3924,0.6278400000000001,9.65304
3065656535,22.22,0.023439771854283843,-0.002129301687433082,0.0,-0.22563,0.5395500000000001,9.6138
3070707040,22.22,0.002129301687433082,0.006387905062299246,0.0,-0.33354000000000006,0.34335000000000004,9.64323
3075757545,22.22,0.008517206749732328,0.0,0.0,-0.47088,0.51012,9.72171
3080808050,22.22,0.021310470166850764,-0.020245819323134222,0.0,-0.26487,0.64746,9.7119
3085858555,22.22,0.01064650843716541,0.003193952531149623,0.0,-0.12753,0.47088,9.70209
3090909060,22.22,-0.005323254218582705,0.013840460968315033,0.0,-0.41202000000000005,0.28449,9.73152
3095959565,22.22,0.006387905062299246,-0.006387905062299246,0.0,-0.43164,0.57879,9.83943
3101010070,22.22,0.02663372438543347,-0.0170518667919846,0.0,-0.20601000000000003,0.57879,9.819809999999999
3106060575,22.22,-0.002129301687433082,0.004258603374866164,0.0,-0.11772,0.37278,9.7119
3111111080,22.22,-0.001064650843716541,0.0170518667919846,0.0,-0.41202000000000005,0.48069000000000006,9.7119
3116161585,22.22,0.01918116847941768,-0.006387905062299246,0.0,-0.35316,0.65727,9.7119
3121212090,22.22,0.00958185759344887,-0.002129301687433082,0.0,-0.20601000000000003,0.51993,9.67266
3126262595,22.22,-0.00958185759344887,0.006387905062299246,0.0,-0.36297,0.42183,9.70209
3131313100,22.22,-0.002129301687433082,-0.014905111812031574,0.0,-0.40221,0.52974,9.78057
3136363605,22.22,0.004258603374866164,-0.011711159280881954,0.0,-0.22563,0.52974,9.81
3141414110,22.22,-0.008517206749732328,0.002129301687433082,0.0,-0.24525000000000002,0.3924,9.80019
3146464615,22.22,-0.002129301687433082,0.004258603374866164,0.0,-0.34335000000000004,0.48069000000000006,9.81
3151515120,22.22,0.00958185759344887,0.004258603374866164,0.0,-0.27468000000000004,0.56898,9.81
3156565625,22.22,-0.001064650843716541,0.004258603374866164,0.0,-0.28449,0.38259000000000004,9.82962
3161616130,22.22,-0.006387905062299246,0.003193952531149623,0.0,-0.38259000000000004,0.45126,9.83943
3166666635,22.22,0.006387905062299246,-0.00958185759344887,0.0,-0.32373,0.56898,9.81
3171717140,22.22,0.002129301687433082,0.0,0.0,-0.17658,0.5886,9.66285
3176767645,22.22,-0.006387905062299246,0.015987215948268057,0.0,-0.28449,0.51993,9.5157
3181818150,22.22,-0.007452555906015787,0.008517206749732328,0.0,-0.37278,0.5591700000000001,9.496080000000001
3186868655,22.22,-0.008517206749732328,0.001064650843716541,0.0,-0.38259000000000004,0.5493600000000001,9.55494
3191919160,22.22,-0.021310470166850764,-0.004258603374866164,0.0,-0.41202000000000005,0.48069000000000006,9.67266
3196969665,22.22,-0.01918116847941768,-0.021310470166850764,0.0,-0.30411,0.45126,9.82962
3202020170,22.22,-0.021310470166850764,-0.014905111812031574,0.0,-0.14715,0.36297,9.91791
3207070675,22.22,-0.01811651763570114,0.004258603374866164,0.0,-0.25506,0.42183,9.81
3212121180,22.22,-0.004258603374866164,0.0170518667919846,0.0,-0.26487,0.73575,9.66285
3217171685,22.22,0.0,0.014905111812031574,0.0,-0.2943,0.51993,9.6138
3222222190,22.22,-0.02982767691658309,0.015987215948268057,0.0,-0.41202000000000005,0.31392000000000003,9.66285
3227272695,22.22,-0.02982767691658309,0.0,0.0,-0.64746,0.6180300000000001,9.70209
3232323200,22.22,-0.005323254218582705,-0.03408628029144926,0.0,-0.20601000000000003,0.7651800000000001,9.633420000000001
3237373705,22.22,-0.03515093113516579,-0.004258603374866164,0.0,-0.009810000000000001,0.27468000000000004,9.52551
3242424210,22.22,-0.07136651311404815,0.012775810124598492,0.0,-0.3924,0.07848000000000001,9.72171
3247474715,22.22,-0.013840460968315033,0.001064650843716541,0.0,-0.52974,0.7651800000000001,9.908100000000001
3252525220,22.22,0.005323254218582705,-0.022375121010567305,0.0,-0.05886,0.64746,9.89829
3257575725,22.22,-0.049008845396000776,0.01811651763570114,0.0,-0.08829,0.18639,9.66285
3262626230,22.22,-0.049008845396000776,0.024504422698000388,0.005323254218582705,-0.6670800000000001,0.36297,9.84924
3267676735,22.22,-0.00958185759344887,-0.03515093113516579,-0.001064650843716541,-0.31392000000000003,0.59841,9.91791
3272727240,22.22,-0.0170518667919846,0.004258603374866164,-0.001064650843716541,0.039240000000000004,0.5493600000000001,9.72171
3277777745,22.22,-0.05007349623971732,0.022375121010567305,0.002129301687433082,-0.42183,0.27468000000000004,9.623610000000001
3282828250,22.22,-0.03834488366631542,-0.00958185759344887,0.0,-0.34335000000000004,0.52974,9.72171
3287878755,22.22,-0.00958185759344887,0.0,0.0,-0.2943,0.51993,9.84924
3292929260,22.22,-0.054332099614583476,-0.0,-0.001064650843716541,-0.30411,0.26487,9.73152
3297979765,22.22,-0.03621558197888234,0.001064650843716541,0.003193952531149623,-0.38259000000000004,0.57879,9.72171
3303030270,22.22,-0.023439771854283843,-0.0170518667919846,0.0,-0.1962,0.38259000000000004,9.85905
3308080775,22.22,-0.049008845396000776,0.01064650843716541,0.003193952531149623,-0.14715,0.23544,9.73152
3313131280,22.22,-0.04153883619746504,0.01918116847941768,0.005323254218582705,-0.5395500000000001,0.51993,9.74133
3318181785,22.22,-0.014905111812031574,-0.01811651763570114,0.0,-0.2943,0.73575,9.633420000000001
3323232290,22.22,-0.039409534510031964,-0.001064650843716541,0.0,0.0,0.20601000000000003,9.633420000000001
3328282795,22.22,-0.07243116395776468,0.02982767691658309,0.003193952531149623,-0.60822,0.2943,9.64323
3333333300,22.22,-0.033021629447732716,-0.02769837522915001,0.0,-0.50031,0.6278400000000001,9.79038
3338383805,22.22,-0.02769837522915001,-0.022375121010567305,-0.003193952531149623,-0.009810000000000001,0.56898,9.7119
3343434310,22.22,-0.07777187146886733,0.015987215948268057,0.0,-0.23544,-0.05886,9.751140000000001
3348484815,22.22,-0.06923721142661506,0.0,0.001064650843716541,-0.56898,0.33354000000000006,9.95715
3353535320,22.22,-0.007452555906015787,-0.015987215948268057,0.0,-0.26487,0.7651800000000001,9.937529999999999
3358585825,22.22,-0.03834488366631542,-0.008517206749732328,-0.004258603374866164,0.04905,0.23544,9.74133
3363636330,22.22,-0.07456046564519776,0.044732788728614664,0.002129301687433082,-0.33354000000000006,0.17658,9.66285
3368686835,22.22,-0.04581489286485115,0.002129301687433082,0.001064650843716541,-0.6867000000000001,0.51993,9.81
3373737340,22.22,-0.020245819323134222,-0.021310470166850764,0.0,-0.15696000000000002,0.65727,9.60399
3378787845,22.22,-0.06710790973918197,0.011711159280881954,0.001064650843716541,-0.16677000000000003,0.23544,9.56475
3383838350,22.22,-0.07990117315630041,0.01064650843716541,0.004258603374866164,-0.5591700000000001,0.23544,9.70209
3388888855,22.22,-0.04581489286485115,-0.028763026072866547,0.002129301687433082,-0.38259000000000004,0.40221,9.760950000000001
3393939360,22.22,-0.04794419455228423,-0.001064650843716541,0.001064650843716541,-0.15696000000000002,0.3924,9.81
3398989865,22.22,-0.07777187146886733,0.002129301687433082,-0.001064650843716541,-0.24525000000000002,0.17658,9.908100000000001
3404040370,22.22,-0.049008845396000776,0.0,0.003193952531149623,-0.32373,0.42183,9.84924
3409090875,22.22,-0.03728023282259888,0.0,0.001064650843716541,-0.20601000000000003,0.27468000000000004,9.73152
3414141380,22.22,-0.06923721142661506,0.01811651763570114,0.002129301687433082,-0.32373,0.2943,9.7119
3419191885,22.22,-0.05539675045830002,0.007452555906015787,0.001064650843716541,-0.47088,0.51012,9.819809999999999
3424242390,22.22,-0.05113814708343386,-0.020245819323134222,-0.001064650843716541,-0.22563,0.25506,9.7119
3429292895,22.22,-0.08203047484373349,0.007452555906015787,0.002129301687433082,-0.27468000000000004,0.11772,9.64323
3434343400,22.22,-0.06604325889546543,0.002129301687433082,0.002129301687433082,-0.5493600000000001,0.36297,9.84924
3439393905,22.22,-0.04794419455228423,-0.02663372438543347,-0.001064650843716541,-0.08829,0.42183,9.89829
3444444410,22.22,-0.06604325889546543,0.013840460968315033,0.0,-0.04905,0.1962,9.65304
3449494915,22.22,-0.07456046564519776,0.023439771854283843,0.004258603374866164,-0.5395500000000001,0.22563,9.59418
3454545420,22.22,-0.05646140130201656,0.0,0.0,-0.34335000000000004,0.50031,9.73152
3459595925,22.22,-0.05859070298944965,-0.002129301687433082,0.0,-0.28449,0.26487,9.760950000000001
3464646430,22.22,-0.09587093581204853,-0.006387905062299246,0.0,-0.41202000000000005,0.0,9.751140000000001
3469696935,22.22,-0.07670722062515077,-0.014905111812031574,0.001064650843716541,-0.41202000000000005,0.31392000000000003,9.85905
3474747440,22.22,-0.04794419455228423,-0.023439771854283843,0.003193952531149623,-0.13734000000000002,0.27468000000000004,9.95715
3479797945,22.22,-0.07670722062515077,0.00958185759344887,0.003193952531149623,-0.07848000000000001,0.08829,9.81
3484848450,22.22,-0.07243116395776468,0.02663372438543347,0.001064650843716541,-0.45126,0.20601000000000003,9.760950000000001
3489898955,22.22,-0.05007349623971732,-0.001064650843716541,0.0,-0.35316,0.44145,9.72171
3494949460,22.22,-0.06497860805174888,0.004258603374866164,0.004258603374866164,-0.16677000000000003,0.13734000000000002,9.70209
3499999965,22.22,-0.09374163412461543,0.0170518667919846,0.002129301687433082,-0.5395500000000001,0.16677000000000003,9.72171
3505050470,22.22,-0.07777187146886733,-0.03089232776029963,-0.002129301687433082,-0.40221,0.27468000000000004,9.819809999999999
3510100975,22.22,-0.06604325889546543,-0.014905111812031574,0.0,-0.039240000000000004,0.25506,9.7119
3515151480,22.22,-0.09054768159346581,0.022375121010567305,0.003193952531149623,-0.24525000000000002,-0.05886,9.751140000000001
3520201985,22.22,-0.09161233243718235,0.001064650843716541,0.0,-0.50031,0.16677000000000003,9.819809999999999
3525252490,22.22,-0.05220279792715039,-0.01064650843716541,0.0,-0.24525000000000002,0.3924,9.83943
3530302995,22.22,-0.06923721142661506,0.002129301687433082,0.001064650843716541,-0.14715,0.05886,9.80019
3535353500,22.22,-0.10012953918691468,0.024504422698000388,0.004258603374866164,-0.36297,-0.019620000000000002,9.72171
3540404005,22.22,-0.06923721142661506,0.0,0.002129301687433082,-0.57879,0.40221,9.79038
3545454510,22.22,-0.06391395720803235,-0.024504422698000388,0.001064650843716541,-0.14715,0.20601000000000003,9.760950000000001
3550505015,22.22,-0.10119419003063122,0.006387905062299246,0.001064650843716541,-0.14715,-0.13734000000000002,9.770760000000001
3555555520,22.22,-0.09267698328089889,0.012775810124598492,0.003193952531149623,-0.5886,0.07848000000000001,9.86886
3560606025,22.22,-0.05859070298944965,-0.02982767691658309,0.0,-0.22563,0.2943,9.888480000000001
3565656530,22.22,-0.07349581480148122,0.006387905062299246,0.001064650843716541,0.009810000000000001,0.06867000000000001,9.770760000000001
3570707035,22.22,-0.10225884087434776,0.02556907354171693,0.0,-0.41202000000000005,-0.08829,9.74133
3575757540,22.22,-0.07136651311404815,-0.001064650843716541,0.003193952531149623,-0.47088,0.27468000000000004,9.69228
3580808045,22.22,-0.05965535383316618,-0.004258603374866164,0.003193952531149623,-0.20601000000000003,0.20601000000000003,9.760950000000001
3585858550,22.22,-0.10225884087434776,0.0,0.001064650843716541,-0.28449,-0.12753,9.74133
3590909055,22.22,-0.10012953918691468,-0.003193952531149623,0.0,-0.41202000000000005,0.04905,9.770760000000001
3595959560,22.22,-0.06391395720803235,-0.012775810124598492,0.001064650843716541,-0.25506,0.17658,9.819809999999999
3601010065,22.22,-0.09693558665576507,0.0,0.0,-0.15696000000000002,-0.18639,9.84924
3606060570,22.22,-0.09374163412461543,0.01064650843716541,0.004258603374866164,-0.51012,0.019620000000000002,9.888480000000001
3611111075,22.22,-0.07243116395776468,-0.024504422698000388,-0.002129301687433082,-0.2943,0.06867000000000001,9.92772
3616161580,22.22,-0.07883652231258387,0.004258603374866164,0.001064650843716541,-0.019620000000000002,0.019620000000000002,9.770760000000001
3621212085,22.22,-0.09054768159346581,0.03408628029144926,0.006387905062299246,-0.47088,-0.05886,9.79038
3626262590,22.22,-0.0852244273748831,-0.014905111812031574,0.001064650843716541,-0.44145,0.10791,9.760950000000001
3631313095,22.22,-0.07349581480148122,-0.004258603374866164,0.001064650843716541,-0.17658,0.10791,9.7119
3636363600,22.22,-0.10545279340549739,-0.001064650843716541,0.0,-0.33354000000000006,-0.27468000000000004,9.751140000000001
3641414105,22.22,-0.09800023749948161,0.0,0.004258603374866164,-0.38259000000000004,0.019620000000000002,9.79038
3646464610,22.22,-0.06817256058289851,-0.00958185759344887,0.001064650843716541,-0.31392000000000003,0.08829,9.87867
3651515115,22.22,-0.09906488834319814,-0.007452555906015787,0.0,-0.06867000000000001,-0.26487,9.770760000000001
3656565620,22.22,-0.10438814256178083,0.01918116847941768,0.005323254218582705,-0.38259000000000004,-0.10791,9.81
3661616125,22.22,-0.06817256058289851,-0.004258603374866164,0.001064650843716541,-0.43164,0.13734000000000002,9.819809999999999
3666666630,22.22,-0.08203047484373349,-0.004258603374866164,0.0,0.0,-0.07848000000000001,9.751140000000001
3671717135,22.22,-0.10438814256178083,0.028763026072866547,0.003193952531149623,-0.45126,-0.20601000000000003,9.73152
3676767640,22.22,-0.10225884087434776,-0.0170518667919846,0.0,-0.56898,-0.14715,9.86886
3681818145,22.22,-0.0756251164889143,-0.022375121010567305,0.001064650843716541,-0.16677000000000003,0.05886,9.89829
3686868650,22.22,-0.09480628496833199,0.005323254218582705,0.005323254218582705,-0.1962,-0.31392000000000003,9.908100000000001
3691919155,22.22,-0.10653489754173388,0.004258603374866164,0.0,-0.36297,-0.1962,9.82962
3696969660,22.22,-0.07670722062515077,0.0,0.0,-0.28449,0.0,9.86886
3702020165,22.22,-0.0756251164889143,0.004258603374866164,0.002129301687433082,-0.18639,-0.0981,9.73152
3707070670,22.22,-0.10866419922916695,0.01811651763570114,0.0,-0.33354000000000006,-0.28449,9.68247
3712121175,22.22,-0.09161233243718235,0.007452555906015787,0.001064650843716541,-0.52974,0.04905,9.751140000000001
3717171680,22.22,-0.0852244273748831,-0.02769837522915001,0.0,-0.2943,-0.20601000000000003,9.79038
3722222185,22.22,-0.11505210429146619,-0.007452555906015787,0.001064650843716541,-0.22563,-0.38259000000000004,9.819809999999999
3727272690,22.22,-0.09906488834319814,0.0,0.005323254218582705,-0.51993,-0.18639,9.99639
3732323195,22.22,-0.08203047484373349,-0.028763026072866547,0.0,-0.11772,-0.15696000000000002,9.937529999999999
3737373700,22.22,-0.08096582400001695,0.023439771854283843,0.003193952531149623,-0.039240000000000004,-0.20601000000000003,9.78057
3742424205,22.22,-0.09800023749948161,0.020245819323134222,0.005323254218582705,-0.46107000000000004,-0.37278,9.79038
3747474710,22.22,-0.08735372906231618,0.0,0.001064650843716541,-0.37278,-0.07848000000000001,9.81
3752525215,22.22,-0.0756251164889143,-0.004258603374866164,0.003193952531149623,-0.34335000000000004,-0.039240000000000004,9.84924
3757575720,22.22,-0.10438814256178083,-0.011711159280881954,0.001064650843716541,-0.24525000000000002,-0.41202000000000005,9.751140000000001
3762626225,22.22,-0.11079350091660004,0.002129301687433082,0.001064650843716541,-0.3924,-0.33354000000000006,9.81
3767676730,22.22,-0.08415977653116657,-0.00958185759344887,0.0,-0.3924,-0.21582,9.89829
3772727235,22.22,-0.09267698328089889,-0.020245819323134222,0.0,-0.06867000000000001,-0.30411,9.908100000000001
3777777740,22.22,-0.09693558665576507,0.011711159280881954,0.001064650843716541,-0.25506,-0.38259000000000004,9.82962
3782828245,22.22,-0.08735372906231618,0.004258603374866164,0.002129301687433082,-0.31392000000000003,-0.24525000000000002,9.84924
3787878750,22.22,-0.07670722062515077,0.01064650843716541,0.0,-0.25506,-0.23544,9.79038
3792929255,22.22,-0.09374163412461543,0.012775810124598492,0.004258603374866164,-0.41202000000000005,-0.32373,9.751140000000001
3797979760,22.22,-0.10119419003063122,-0.01064650843716541,0.003193952531149623,-0.3924,-0.27468000000000004,9.80019
3803030265,22.22,-0.09161233243718235,-0.00958185759344887,0.001064650843716541,-0.20601000000000003,-0.26487,9.81
3808080770,22.22,-0.09693558665576507,0.001064650843716541,0.0,-0.32373,-0.51012,9.770760000000001
3813131275,22.22,-0.1097288500728835,-0.003193952531149623,0.001064650843716541,-0.34335000000000004,-0.3924,9.888480000000001
3818181780,22.22,-0.0852244273748831,-0.0170518667919846,0.0,-0.26487,-0.26487,9.98658
3823232285,22.22,-0.08628907821859966,-0.007452555906015787,0.0,-0.019620000000000002,-0.41202000000000005,9.84924
3828282790,22.22,-0.09161233243718235,0.03089232776029963,0.004258603374866164,-0.2943,-0.43164,9.770760000000001
3833333295,22.22,-0.0852244273748831,0.00958185759344887,0.004258603374866164,-0.51012,-0.36297,9.82962
3838383800,22.22,-0.0852244273748831,-0.0170518667919846,0.001064650843716541,-0.31392000000000003,-0.27468000000000004,9.83943
3843434305,22.22,-0.09480628496833199,-0.004258603374866164,0.002129301687433082,-0.23544,-0.48069000000000006,9.888480000000001
3848484810,22.22,-0.10653489754173388,-0.002129301687433082,0.004258603374866164,-0.30411,-0.5395500000000001,9.85905
3853535315,22.22,-0.07990117315630041,0.0,0.006387905062299246,-0.38259000000000004,-0.30411,9.81
3858585820,22.22,-0.08203047484373349,-0.012775810124598492,0.001064650843716541,-0.20601000000000003,-0.47088,9.91791
3863636325,22.22,-0.09693558665576507,0.004258603374866164,0.004258603374866164,-0.16677000000000003,-0.5886,9.87867
3868686830,22.22,-0.08841837990603273,0.008517206749732328,0.0,-0.41202000000000005,-0.44145,9.82962
3873737335,22.22,-0.07136651311404815,0.004258603374866164,0.002129301687433082,-0.28449,-0.23544,9.80019
3878787840,22.22,-0.08628907821859966,-0.002129301687433082,0.003193952531149623,-0.20601000000000003,-0.59841,9.81
3883838345,22.22,-0.10225884087434776,0.00958185759344887,0.004258603374866164,-0.46107000000000004,-0.5395500000000001,9.80019
3888888850,22.22,-0.08948303074974927,-0.020245819323134222,0.001064650843716541,-0.3924,-0.46107000000000004,9.91791
3893939355,22.22,-0.08415977653116657,-0.01064650843716541,0.0,-0.12753,-0.43164,9.82962
3898989860,22.22,-0.09480628496833199,0.006387905062299246,0.001064650843716541,-0.28449,-0.65727,9.888480000000001
3904040365,22.22,-0.09800023749948161,0.0,0.0,-0.36297,-0.60822,9.92772
3909090870,22.22,-0.0756251164889143,-0.004258603374866164,-0.001064650843716541,-0.25506,-0.42183,9.92772
3914141375,22.22,-0.07777187146886733,0.003193952531149623,0.0,-0.24525000000000002,-0.50031,9.86886
3919191880,22.22,-0.09267698328089889,0.007452555906015787,0.0,-0.24525000000000002,-0.5493600000000001,9.770760000000001
3924242385,22.22,-0.07670722062515077,0.00958185759344887,0.006387905062299246,-0.41202000000000005,-0.49050000000000005,9.72171
3929292890,22.22,-0.08948303074974927,-0.005323254218582705,0.0,-0.37278,-0.60822,9.82962
3934343395,22.22,-0.09054768159346581,-0.006387905062299246,0.002129301687433082,-0.31392000000000003,-0.5886,9.819809999999999
3939393900,22.22,-0.0852244273748831,-0.00958185759344887,0.0,-0.31392000000000003,-0.56898,9.908100000000001
3944444405,22.22,-0.09054768159346581,-0.007452555906015787,0.0,-0.15696000000000002,-0.6768900000000001,9.87867
3949494910,22.22,-0.08415977653116657,0.013840460968315033,0.002129301687433082,-0.2943,-0.6768900000000001,9.908100000000001
3954545415,22.22,-0.0852244273748831,-0.0,-0.001064650843716541,-0.41202000000000005,-0.65727,9.92772
3959595920,22.22,-0.06817256058289851,-0.002129301687433082,0.001064650843716541,-0.20601000000000003,-0.41202000000000005,9.89829
3964646425,22.22,-0.07670722062515077,0.007452555906015787,0.003193952531149623,-0.22563,-0.70632,9.87867
3969696930,22.22,-0.09480628496833199,0.01064650843716541,0.003193952531149623,-0.33354000000000006,-0.6768900000000001,9.760950000000001
3974747435,22.22,-0.07243116395776468,0.002129301687433082,0.002129301687433082,-0.47088,-0.52974,9.87867
3979797940,22.22,-0.0756251164889143,-0.021310470166850764,0.0,-0.22563,-0.6180300000000001,9.84924
3984848445,22.22,-0.09161233243718235,0.0,0.0,-0.1962,-0.8240400000000001,9.83943
3989898950,22.22,-0.08735372906231618,0.001064650843716541,0.0,-0.37278,-0.70632,9.888480000000001
3994949455,22.22,-0.07349581480148122,-0.013840460968315033,-0.001064650843716541,-0.1962,-0.60822,9.908100000000001
3999999960,22.22,-0.06710790973918197,0.013840460968315033,0.002129301687433082,-0.11772,-0.59841,9.81
4005050465,22.22,-0.0852244273748831,0.011711159280881954,0.001064650843716541,-0.40221,-0.8240400000000001,9.760950000000001
4010100970,22.22,-0.08096582400001695,0.0,0.002129301687433082,-0.41202000000000005,-0.6180300000000001,9.82962
4015151475,22.22,-0.06710790973918197,-0.01064650843716541,0.001064650843716541,-0.38259000000000004,-0.65727,9.94734
4020201980,22.22,-0.08948303074974927,-0.011711159280881954,0.0,-0.17658,-0.7848,9.92772
4025252485,22.22,-0.0756251164889143,0.005323254218582705,0.004258603374866164,-0.2943,-0.80442,9.888480000000001
4030302990,22.22,-0.07136651311404815,-0.002129301687433082,0.001064650843716541,-0.31392000000000003,-0.72594,9.89829
4035353495,22.22,-0.07030186227033158,-0.007452555906015787,0.002129301687433082,-0.16677000000000003,-0.8240400000000001,9.95715
4040404000,22.22,-0.07243116395776468,0.01064650843716541,0.001064650843716541,-0.31392000000000003,-0.71613,9.937529999999999
4045454505,22.22,-0.05752605214573309,0.001064650843716541,0.0,-0.23544,-0.6867000000000001,9.81
4050505010,22.22,-0.06391395720803235,0.011711159280881954,0.0,-0.24525000000000002,-0.6768900000000001,9.73152
4055555515,22.22,-0.07136651311404815,0.01064650843716541,0.0,-0.3924,-0.74556,9.80019
4060606020,22.22,-0.07670722062515077,-0.012775810124598492,0.0,-0.41202000000000005,-0.7749900000000001,9.819809999999999
4065656525,22.22,-0.07456046564519776,-0.011711159280881954,0.0,-0.26487,-0.7848,9.83943
4070707030,22.22,-0.0756251164889143,-0.00958185759344887,0.0,-0.32373,-0.8829,9.92772
4075757535,22.22,-0.0756251164889143,-0.01064650843716541,0.0,-0.25506,-0.9123300000000001,9.96696
4080808040,22.22,-0.05965535383316618,0.001064650843716541,0.002129301687433082,-0.27468000000000004,-0.7848,9.99639
4085858545,22.22,-0.05859070298944965,0.006387905062299246,0.0,-0.20601000000000003,-0.8338500000000001,9.908100000000001
4090909050,22.22,-0.05859070298944965,0.013840460968315033,0.001064650843716541,-0.30411,-0.7848,9.86886
4095959555,22.22,-0.05859070298944965,0.007452555906015787,0.001064650843716541,-0.38259000000000004,-0.80442,9.86886
4101010060,22.22,-0.05859070298944965,-0.004258603374866164,-0.001064650843716541,-0.33354000000000006,-0.75537,9.86886
4106060565,22.22,-0.06391395720803235,0.0,0.002129301687433082,-0.27468000000000004,-0.8142300000000001,9.83943
4111111070,22.22,-0.06710790973918197,-0.004258603374866164,0.001064650843716541,-0.2943,-0.87309,9.770760000000001
4116161575,22.22,-0.060720004676882725,-0.004258603374866164,0.0,-0.30411,-0.8142300000000001,9.81
4121212080,22.22,-0.05326744877086694,0.0,0.0,-0.24525000000000002,-0.8142300000000001,9.82962
4126262585,22.22,-0.05965535383316618,-0.002129301687433082,0.005323254218582705,-0.31392000000000003,-0.9613800000000001,9.86886
4131313090,22.22,-0.06391395720803235,0.0,0.0,-0.37278,-0.86328,9.888480000000001
4136363595,22.22,-0.044732788728614664,-0.006387905062299246,0.003193952531149623,-0.30411,-0.7848,9.94734
4141414100,22.22,-0.05859070298944965,-0.001064650843716541,0.001064650843716541,-0.12753,-0.9810000000000001,9.95715
4146464605,22.22,-0.05965535383316618,0.015987215948268057,0.002129301687433082,-0.36297,-0.90252,9.84924
4151515110,22.22,-0.04794419455228423,-0.007452555906015787,0.0,-0.43164,-0.89271,9.84924
4156565615,22.22,-0.04366813788489812,-0.008517206749732328,0.001064650843716541,-0.18639,-0.7848,9.87867
4161616120,22.22,-0.05220279792715039,0.00958185759344887,0.001064650843716541,-0.26487,-1.03005,9.92772
4166666625,22.22,-0.05965535383316618,-0.003193952531149623,0.004258603374866164,-0.42183,-1.00062,9.86886
4171717130,22.22,-0.03728023282259888,-0.008517206749732328,0.003193952531149623,-0.30411,-0.7651800000000001,9.937529999999999
4176767635,22.22,-0.04153883619746504,-0.00958185759344887,0.0,-0.12753,-0.90252,10.01601
4181818140,22.22,-0.05646140130201656,0.00958185759344887,0.0,-0.17658,-1.02024,9.82962
4186868645,22.22,-0.04260348704118158,0.012775810124598492,0.0,-0.50031,-0.8829,9.70209
4191919150,22.22,-0.033021629447732716,-0.007452555906015787,0.002129301687433082,-0.32373,-0.75537,9.80019
4196969655,22.22,-0.046879543708567686,0.004258603374866164,0.001064650843716541,-0.17658,-0.90252,9.89829
4202020160,22.22,-0.05220279792715039,0.003193952531149623,0.003193952531149623,-0.42183,-1.03005,9.81
4207070665,22.22,-0.04153883619746504,-0.01064650843716541,0.0,-0.40221,-0.9908100000000001,9.79038
4212121170,22.22,-0.04153883619746504,-0.00958185759344887,0.002129301687433082,-0.22563,-0.9908100000000001,10.05525
4217171675,22.22,-0.04366813788489812,-0.01064650843716541,0.0,-0.16677000000000003,-1.03986,10.11411
4222222180,22.22,-0.02769837522915001,0.006387905062299246,0.001064650843716541,-0.1962,-0.95157,9.94734
4227272685,22.22,-0.02663372438543347,0.01811651763570114,0.002129301687433082,-0.2943,-0.9319500000000001,9.87867
4232323190,22.22,-0.03515093113516579,0.008517206749732328,0.0,-0.35316,-0.94176,9.89829
4237373695,22.22,-0.031956978604016174,-0.003193952531149623,-0.001064650843716541,-0.36297,-0.86328,9.86886
4242424200,22.22,-0.03089232776029963,-0.002129301687433082,0.0,-0.27468000000000004,-0.9221400000000001,9.78057
4247474705,22.22,-0.04366813788489812,0.0,0.0,-0.27468000000000004,-1.0987200000000001,9.770760000000001
4252525210,22.22,-0.03089232776029963,0.0,0.004258603374866164,-0.41202000000000005,-0.89271,9.79038
4257575715,22.22,-0.02556907354171693,-0.01811651763570114,0.002129301687433082,-0.1962,-0.9319500000000001,9.89829
4262626220,22.22,-0.03728023282259888,0.00958185759344887,0.0,-0.18639,-1.04967,9.84924
4267676725,22.22,-0.03408628029144926,0.005323254218582705,0.001064650843716541,-0.41202000000000005,-1.04967,9.937529999999999
4272727230,22.22,-0.0170518667919846,-0.01064650843716541,-0.001064650843716541,-0.34335000000000004,-0.86328,9.94734
4277777735,22.22,-0.015987215948268057,-0.006387905062299246,0.0,-0.16677000000000003,-0.9908100000000001,10.006200000000002
4282828240,22.22,-0.03621558197888234,0.008517206749732328,0.001064650843716541,-0.25506,-1.13796,9.96696
4287878745,22.22,-0.0170518667919846,0.005323254218582705,0.0,-0.43164,-0.8829,9.92772
4292929250,22.22,-0.00958185759344887,-0.013840460968315033,0.001064650843716541,-0.27468000000000004,-0.9711900000000001,9.908100000000001
4297979755,22.22,-0.022375121010567305,0.004258603374866164,-0.001064650843716541,-0.15696000000000002,-1.01043,9.83943
4303030260,22.22,-0.02556907354171693,0.00958185759344887,0.001064650843716541,-0.43164,-1.05948,9.83943
4308080765,22.22,-0.014905111812031574,-0.004258603374866164,0.0,-0.2943,-0.89271,9.74133
4313131270,22.22,-0.01064650843716541,0.0,0.004258603374866164,-0.24525000000000002,-0.9319500000000001,9.73152
4318181775,22.22,-0.023439771854283843,0.003193952531149623,0.001064650843716541,-0.31392000000000003,-0.9613800000000001,9.760950000000001
4323232280,22.22,-0.020245819323134222,-0.001064650843716541,0.0,-0.30411,-1.13796,9.83943
4328282785,22.22,-0.020245819323134222,-0.001064650843716541,0.0,-0.38259000000000004,-0.9711900000000001,9.91791
4333333290,22.22,-0.011711159280881954,-0.013840460968315033,-0.001064650843716541,-0.23544,-1.00062,9.99639
4338383795,22.22,-0.00958185759344887,-0.002129301687433082,0.001064650843716541,-0.0981,-1.00062,9.97677
4343434300,22.22,-0.012775810124598492,0.01811651763570114,0.002129301687433082,-0.33354000000000006,-1.1477700000000002,9.97677
4348484805,22.22,-0.012775810124598492,0.002129301687433082,0.002129301687433082,-0.43164,-1.02024,9.98658
4353535310,22.22,0.004258603374866164,-0.012775810124598492,-0.001064650843716541,-0.28449,-0.87309,10.01601
4358585815,22.22,-0.005323254218582705,-0.008517206749732328,0.0,-0.16677000000000003,-1.02024,9.91791
4363636320,22.22,-0.014905111812031574,0.011711159280881954,0.0,-0.23544,-1.10853,9.81
4368686825,22.22,-0.004258603374866164,0.00958185759344887,0.001064650843716541,-0.42183,-0.9319500000000001,9.751140000000001
4373737330,22.22,0.003193952531149623,-0.011711159280881954,-0.001064650843716541,-0.24525000000000002,-0.95157,9.81
4378787835,22.22,-0.007452555906015787,0.002129301687433082,0.0,-0.1962,-1.04967,9.84924
4383838340,22.22,-0.007452555906015787,0.011711159280881954,0.001064650843716541,-0.36297,-1.04967,9.86886
4388888845,22.22,0.0,-0.004258603374866164,-0.003193952531149623,-0.33354000000000006,-0.9613800000000001,9.888480000000001
4393939350,22.22,0.006387905062299246,-0.003193952531149623,0.001064650843716541,-0.22563,-1.01043,9.91791
4398989855,22.22,-0.006387905062299246,0.003193952531149623,0.001064650843716541,-0.26487,-1.06929,9.86886
4404040360,22.22,0.0,0.005323254218582705,0.0,-0.34335000000000004,-0.9123300000000001,9.79038
4409090865,22.22,0.00958185759344887,-0.001064650843716541,0.0,-0.2943,-0.8829,9.69228
4414141370,22.22,-0.007452555906015787,0.002129301687433082,0.001064650843716541,-0.22563,-1.0987200000000001,9.74133
4419191875,22.22,-0.003193952531149623,0.006387905062299246,0.003193952531149623,-0.3924,-0.9908100000000001,9.751140000000001
4424242380,22.22,0.006387905062299246,-0.012775810124598492,0.001064650843716541,-0.3924,-0.9908100000000001,9.82962
4429292885,22.22,0.003193952531149623,-0.011711159280881954,0.0,-0.1962,-1.08891,9.89829
4434343390,22.22,0.002129301687433082,0.002129301687433082,0.002129301687433082,-0.25506,-1.1281500000000002,10.074869999999999
4439393895,22.22,0.015987215948268057,0.003193952531149623,0.003193952531149623,-0.27468000000000004,-0.9613800000000001,10.05525
4444444400,22.22,0.01918116847941768,0.007452555906015787,0.001064650843716541,-0.28449,-0.9123300000000001,9.95715
4449494905,22.22,0.004258603374866164,0.0,0.0,-0.36297,-1.21644,9.97677
4454545410,22.22,0.003193952531149623,-0.006387905062299246,0.002129301687433082,-0.31392000000000003,-1.1870100000000001,9.98658
4459595915,22.22,0.028763026072866547,0.002129301687433082,0.001064650843716541,-0.35316,-0.8142300000000001,10.006200000000002
4464646420,22.22,0.033021629447732716,-0.002129301687433082,-0.001064650843716541,-0.17658,-0.7651800000000001,9.87867
4469696925,22.22,0.012775810124598492,0.002129301687433082,-0.001064650843716541,-0.18639,-1.16739,9.78057
4474747430,22.22,-0.008517206749732328,-0.0,-0.002129301687433082,-0.36297,-1.21644,9.86886
4479797935,22.22,0.028763026072866547,-0.011711159280881954,-0.003193952531149623,-0.30411,-0.90252,9.91791
4484848440,22.22,0.04581489286485115,0.008517206749732328,0.0,-0.18639,-0.74556,9.81
4489898945,22.22,0.02663372438543347,0.008517206749732328,0.002129301687433082,-0.23544,-1.13796,9.96696
4494949450,22.22,0.006387905062299246,0.01064650843716541,0.0,-0.5395500000000001,-0.94176,9.82962
4499999955,22.22,0.02769837522915001,-0.033021629447732716,-0.002129301687433082,-0.30411,-0.8142300000000001,9.83943
4505050460,22.22,0.033021629447732716,-0.011711159280881954,0.0,0.0,-1.13796,9.751140000000001
4510100965,22.22,0.007452555906015787,0.02769837522915001,0.0,-0.30411,-1.1772,9.89829
4515151470,22.22,0.04581489286485115,0.005323254218582705,0.0,-0.51993,-0.6867000000000001,9.908100000000001
4520201975,22.22,0.05646140130201656,-0.020245819323134222,-0.003193952531149623,-0.14715,-0.7749900000000001,9.79038
4525252480,22.22,0.006387905062299246,0.013840460968315033,0.0,-0.17658,-1.44207,9.84924
4530302985,22.22,0.007452555906015787,0.01064650843716541,0.003193952531149623,-0.57879,-0.9613800000000001,10.05525
4535353490,22.22,0.06284930636431581,-0.028763026072866547,-0.002129301687433082,-0.25506,-0.6768900000000001,9.99639
4540403995,22.22,0.05007349623971732,0.001064650843716541,-0.001064650843716541,0.02943,-0.8142300000000001,9.64323
4545454500,22.22,0.0,0.023439771854283843,0.003193952531149623,-0.35316,-1.50093,9.87867
4550505005,22.22,0.02982767691658309,0.0,0.0,-0.59841,-0.7749900000000001,9.98658
4555555510,22.22,0.07136651311404815,-0.021310470166850764,-0.001064650843716541,-0.23544,-0.74556,10.006200000000002
4560606015,22.22,0.03089232776029963,0.006387905062299246,0.0,-0.05886,-1.03986,9.80019
4565656520,22.22,0.0170518667919846,0.011711159280881954,0.003193952531149623,-0.49050000000000005,-1.1772,9.86886
4570707025,22.22,0.05220279792715039,-0.013840460968315033,-0.001064650843716541,-0.44145,-0.6670800000000001,9.95715
4575757530,22.22,0.06178465552059926,-0.020245819323134222,0.0,0.019620000000000002,-0.89271,9.908100000000001
4580808035,22.22,0.02663372438543347,0.02556907354171693,0.003193952531149623,-0.23544,-1.0987200000000001,9.79038
4585858540,22.22,0.04260348704118158,0.007452555906015787,0.002129301687433082,-0.52974,-0.9319500000000001,9.84924
4590909045,22.22,0.05752605214573309,-0.013840460968315033,-0.003193952531149623,-0.28449,-0.6768900000000001,9.82962
4595959550,22.22,0.05113814708343386,0.002129301687433082,0.0,-0.10791,-0.90252,9.81
4601010055,22.22,0.023439771854283843,0.012775810124598492,0.001064650843716541,-0.41202000000000005,-1.10853,9.751140000000001
4606060560,22.22,0.04366813788489812,-0.004258603374866164,0.0,-0.41202000000000005,-0.8240400000000001,9.888480000000001
4611111065,22.22,0.06284930636431581,-0.014905111812031574,-0.003193952531149623,-0.25506,-0.86328,9.99639
4616161570,22.22,0.03728023282259888,-0.004258603374866164,0.0,-0.06867000000000001,-1.03005,9.99639
4621212075,22.22,0.05007349623971732,0.006387905062299246,0.0,-0.32373,-0.9319500000000001,9.96696
4626262580,22.22,0.06284930636431581,0.003193952531149623,0.0,-0.25506,-0.7749900000000001,9.85905
4631313085,22.22,0.05859070298944965,0.00958185759344887,0.0,-0.23544,-0.9123300000000001,9.908100000000001
4636363590,22.22,0.05007349623971732,0.008517206749732328,0.002129301687433082,-0.42183,-0.8240400000000001,9.82962
4641414095,22.22,0.06497860805174888,-0.013840460968315033,0.0,-0.3924,-0.7848,9.751140000000001
4646464600,22.22,0.044732788728614664,-0.004258603374866164,-0.004258603374866164,-0.17658,-0.84366,9.84924
4651515105,22.22,0.04366813788489812,0.002129301687433082,0.0,-0.2943,-1.02024,9.94734
4656565610,22.22,0.054332099614583476,-0.008517206749732328,-0.001064650843716541,-0.32373,-0.8338500000000001,9.86886
4661616115,22.22,0.07456046564519776,-0.005323254218582705,0.001064650843716541,-0.14715,-0.71613,9.84924
4666666620,22.22,0.05859070298944965,0.011711159280881954,-0.001064650843716541,-0.18639,-0.89271,9.888480000000001
4671717125,22.22,0.04794419455228423,0.008517206749732328,-0.002129301687433082,-0.36297,-0.95157,9.908100000000001
4676767630,22.22,0.07456046564519776,0.002129301687433082,0.0,-0.44145,-0.64746,9.819809999999999
4681818135,22.22,0.0756251164889143,-0.005323254218582705,0.0,-0.21582,-0.74556,9.819809999999999
4686868640,22.22,0.044732788728614664,0.005323254218582705,-0.002129301687433082,-0.28449,-0.94176,9.937529999999999
4691919145,22.22,0.04581489286485115,-0.008517206749732328,0.0,-0.43164,-0.89271,10.006200000000002
4696969650,22.22,0.08096582400001695,-0.028763026072866547,-0.001064650843716541,-0.21582,-0.71613,9.94734
4702020155,22.22,0.06497860805174888,0.004258603374866164,0.0,-0.06867000000000001,-0.8338500000000001,9.87867
4707070660,22.22,0.06391395720803235,0.02556907354171693,0.003193952531149623,-0.34335000000000004,-0.84366,9.85905
4712121165,22.22,0.07670722062515077,0.005323254218582705,0.0,-0.41202000000000005,-0.5886,9.81
4717171670,22.22,0.08203047484373349,-0.002129301687433082,-0.002129301687433082,-0.23544,-0.6867000000000001,9.74133
4722222175,22.22,0.05220279792715039,0.013840460968315033,0.002129301687433082,-0.35316,-0.87309,9.770760000000001
4727272680,22.22,0.060720004676882725,-0.008517206749732328,0.001064650843716541,-0.50031,-0.71613,9.888480000000001
4732323185,22.22,0.07136651311404815,-0.028763026072866547,-0.002129301687433082,-0.20601000000000003,-0.71613,9.937529999999999
4737373690,22.22,0.06391395720803235,-0.007452555906015787,0.0,-0.06867000000000001,-0.9221400000000001,9.95715
4742424195,22.22,0.05965535383316618,0.014905111812031574,0.0,-0.32373,-0.8240400000000001,9.92772
4747474700,22.22,0.09267698328089889,0.003193952531149623,0.001064650843716541,-0.25506,-0.60822,9.89829
4752525205,22.22,0.0852244273748831,0.013840460968315033,0.0,-0.20601000000000003,-0.73575,9.888480000000001
4757575710,22.22,0.06497860805174888,0.013840460968315033,0.0,-0.43164,-0.7848,9.86886
4762626215,22.22,0.07883652231258387,-0.00958185759344887,-0.001064650843716541,-0.44145,-0.60822,9.83943
4767676720,22.22,0.08415977653116657,-0.01064650843716541,0.0,-0.15696000000000002,-0.52974,9.79038
4772727225,22.22,0.06923721142661506,0.007452555906015787,0.0,-0.22563,-0.80442,9.751140000000001
4777777730,22.22,0.05752605214573309,-0.001064650843716541,0.0,-0.36297,-0.8240400000000001,9.80019
4782828235,22.22,0.08415977653116657,-0.008517206749732328,0.0,-0.38259000000000004,-0.59841,9.908100000000001
4787878740,22.22,0.08628907821859966,-0.008517206749732328,0.0,-0.16677000000000003,-0.69651,9.94734
4792929245,22.22,0.06710790973918197,0.004258603374866164,0.0,-0.24525000000000002,-0.7848,9.937529999999999
4797979750,22.22,0.08415977653116657,0.008517206749732328,0.0,-0.38259000000000004,-0.56898,9.91791
4803030255,22.22,0.09480628496833199,0.0,0.0,-0.26487,-0.56898,9.819809999999999
4808080760,22.22,0.0756251164889143,0.014905111812031574,0.0,-0.23544,-0.69651,9.819809999999999
4813131265,22.22,0.07349581480148122,0.004258603374866164,0.0,-0.47088,-0.59841,9.86886
4818181770,22.22,0.0852244273748831,-0.01811651763570114,0.0,-0.24525000000000002,-0.56898,9.85905
4823232275,22.22,0.07883652231258387,-0.002129301687433082,0.0,-0.12753,-0.69651,9.84924
4828282780,22.22,0.07883652231258387,0.013840460968315033,0.0,-0.3924,-0.6278400000000001,9.80019
4833333285,22.22,0.08948303074974927,-0.011711159280881954,0.0,-0.35316,-0.5591700000000001,9.888480000000001
4838383790,22.22,0.09161233243718235,0.001064650843716541,0.0,-0.1962,-0.5591700000000001,9.83943
4843434295,22.22,0.07670722062515077,0.006387905062299246,0.0,-0.37278,-0.71613,9.87867
4848484800,22.22,0.08415977653116657,0.0,0.0,-0.30411,-0.43164,9.84924
4853535305,22.22,0.10225884087434776,0.001064650843716541,0.0,-0.20601000000000003,-0.42183,9.83943
4858585810,22.22,0.0756251164889143,0.00958185759344887,0.0,-0.25506,-0.73575,9.80019
4863636315,22.22,0.07030186227033158,0.004258603374866164,0.0,-0.45126,-0.63765,9.94734
4868686820,22.22,0.10438814256178083,-0.020245819323134222,0.0,-0.38259000000000004,-0.37278,9.94734
4873737325,22.22,0.09587093581204853,-0.013840460968315033,0.0,-0.009810000000000001,-0.56898,9.83943
4878787830,22.22,0.07456046564519776,0.02769837522915001,0.0,-0.27468000000000004,-0.60822,9.819809999999999
4883838335,22.22,0.09054768159346581,0.01064650843716541,0.0,-0.47088,-0.47088,9.819809999999999
4888888840,22.22,0.10332349171806432,-0.012775810124598492,0.0,-0.24525000000000002,-0.34335000000000004,9.751140000000001
4893939345,22.22,0.09054768159346581,0.005323254218582705,0.0,-0.23544,-0.50031,9.79038
4898989850,22.22,0.07030186227033158,0.002129301687433082,0.0,-0.35316,-0.5493600000000001,9.84924
4904040355,22.22,0.10012953918691468,-0.001064650843716541,0.0,-0.31392000000000003,-0.33354000000000006,9.83943
4909090860,22.22,0.08948303074974927,-0.013840460968315033,0.0,-0.28449,-0.60822,9.87867
4914141365,22.22,0.07243116395776468,0.002129301687433082,0.0,-0.25506,-0.51993,9.95715
4919191870,22.22,0.10653489754173388,-0.008517206749732328,0.0,-0.35316,-0.36297,10.006200000000002
4924242375,22.22,0.10225884087434776,0.002129301687433082,0.0,-0.02943,-0.37278,9.82962
4929292880,22.22,0.09161233243718235,0.031956978604016174,0.0,-0.38259000000000004,-0.48069000000000006,9.74133
4934343385,22.22,0.08735372906231618,0.004258603374866164,0.0,-0.56898,-0.38259000000000004,9.80019
4939393890,22.22,0.10545279340549739,-0.020245819323134222,0.0,-0.26487,-0.22563,9.819809999999999
4944444395,22.22,0.08841837990603273,0.002129301687433082,0.0,-0.25506,-0.42183,9.79038
4949494900,22.22,0.07670722062515077,0.0,0.0,-0.36297,-0.50031,9.79038
4954545405,22.22,0.08841837990603273,-0.007452555906015787,0.0,-0.37278,-0.37278,9.908100000000001
4959595910,22.22,0.09374163412461543,-0.01064650843716541,0.0,-0.1962,-0.34335000000000004,9.97677
4964646415,22.22,0.09374163412461543,0.0,0.0,-0.13734000000000002,-0.47088,9.91791
4969696920,22.22,0.09480628496833199,0.01811651763570114,0.0,-0.26487,-0.2943,9.84924
4974747425,22.22,0.10759954838545042,0.011711159280881954,0.0,-0.36297,-0.27468000000000004,9.80019
4979797930,22.22,0.09267698328089889,0.001064650843716541,0.0,-0.2943,-0.33354000000000006,9.78057
4984848435,22.22,0.08948303074974927,0.005323254218582705,0.0,-0.43164,-0.25506,9.79038
4989898940,22.22,0.09267698328089889,-0.012775810124598492,0.0,-0.28449,-0.22563,9.760950000000001
4994949445,22.22,0.08628907821859966,0.0,0.0,-0.23544,-0.37278,9.770760000000001
4999999950,22.22,0.08096582400001695,0.0,0.0,-0.37278,-0.3924,9.89829
5005050455,22.22,0.09374163412461543,-0.013840460968315033,0.0,-0.27468000000000004,-0.28449,9.94734
5010100960,22.22,0.10438814256178083,-0.006387905062299246,0.002129301687433082,-0.13734000000000002,-0.20601000000000003,9.87867
5015151465,22.22,0.09480628496833199,0.011711159280881954,0.001064650843716541,-0.1962,-0.28449,9.819809999999999
5020201970,22.22,0.09161233243718235,0.015987215948268057,-0.001064650843716541,-0.36297,-0.22563,9.78057
5025252475,22.22,0.10438814256178083,-0.001064650843716541,-0.002129301687433082,-0.40221,-0.18639,9.760950000000001
5030302980,22.22,0.09480628496833199,-0.001064650843716541,-0.001064650843716541,-0.2943,-0.17658,9.78057
5035353485,22.22,0.08948303074974927,-0.003193952531149623,0.001064650843716541,-0.36297,-0.31392000000000003,9.819809999999999
5040403990,22.22,0.08309512568745003,-0.01064650843716541,-0.002129301687433082,-0.28449,-0.25506,9.86886
5045454495,22.22,0.09800023749948161,-0.005323254218582705,-0.001064650843716541,-0.26487,-0.20601000000000003,9.888480000000001
5050505000,22.22,0.08841837990603273,-0.002129301687433082,-0.002129301687433082,-0.24525000000000002,-0.27468000000000004,9.89829
5055555505,22.22,0.10119419003063122,0.007452555906015787,0.0,-0.27468000000000004,-0.14715,9.82962
5060606010,22.22,0.10119419003063122,0.008517206749732328,-0.002129301687433082,-0.27468000000000004,-0.019620000000000002,9.79038
5065656515,22.22,0.10012953918691468,0.00958185759344887,0.0,-0.26487,-0.17658,9.70209
5070707020,22.22,0.07777187146886733,0.00958185759344887,0.0,-0.41202000000000005,-0.1962,9.69228
5075757525,22.22,0.08841837990603273,-0.006387905062299246,-0.002129301687433082,-0.44145,-0.06867000000000001,9.81
5080808030,22.22,0.09267698328089889,-0.024504422698000388,-0.006387905062299246,-0.21582,-0.13734000000000002,9.888480000000001
5085858535,22.22,0.08628907821859966,0.001064650843716541,0.0,-0.1962,-0.23544,9.82962
5090909040,22.22,0.08309512568745003,0.004258603374866164,0.0,-0.35316,-0.20601000000000003,9.91791
5095959545,22.22,0.09693558665576507,-0.008517206749732328,-0.001064650843716541,-0.21582,-0.0981,9.91791
5101010050,22.22,0.10759954838545042,0.006387905062299246,0.0,-0.21582,-0.02943,9.83943
5106060555,22.22,0.09054768159346581,0.012775810124598492,0.0,-0.28449,-0.039240000000000004,9.80019
5111111060,22.22,0.09906488834319814,0.00958185759344887,0.0,-0.34335000000000004,0.04905,9.69228
5116161565,22.22,0.09267698328089889,0.002129301687433082,0.0,-0.3924,-0.12753,9.7119
5121212070,22.22,0.08096582400001695,-0.005323254218582705,0.0,-0.38259000000000004,-0.0981,9.78057
5126262575,22.22,0.08415977653116657,-0.01811651763570114,-0.002129301687433082,-0.31392000000000003,-0.05886,9.86886
5131313080,22.22,0.09480628496833199,-0.00958185759344887,-0.002129301687433082,-0.14715,0.019620000000000002,9.819809999999999
5136363585,22.22,0.08735372906231618,0.007452555906015787,-0.001064650843716541,-0.1962,-0.18639,9.83943
5141414090,22.22,0.08415977653116657,0.012775810124598492,0.0,-0.3924,-0.06867000000000001,9.819809999999999
5146464595,22.22,0.10438814256178083,0.0,0.003193952531149623,-0.40221,0.16677000000000003,9.86886
5151515100,22.22,0.09693558665576507,-0.007452555906015787,0.0,-0.17658,0.04905,9.751140000000001
5156565605,22.22,0.08096582400001695,0.013840460968315033,0.0,-0.31392000000000003,-0.08829,9.67266
5161616110,22.22,0.08096582400001695,0.003193952531149623,0.001064650843716541,-0.49050000000000005,0.039240000000000004,9.78057
5166666615,22.22,0.08841837990603273,-0.021310470166850764,-0.002129301687433082,-0.31392000000000003,0.02943,9.85905
5171717120,22.22,0.0852244273748831,-0.006387905062299246,0.0,-0.17658,-0.06867000000000001,9.85905
5176767625,22.22,0.07883652231258387,0.002129301687433082,-0.002129301687433082,-0.26487,-0.009810000000000001,9.87867
5181818130,22.22,0.10012953918691468,0.005323254218582705,0.0,-0.25506,0.15696000000000002,9.83943
5186868635,22.22,0.09161233243718235,0.00958185759344887,-0.002129301687433082,-0.23544,0.019620000000000002,9.760950000000001
5191919140,22.22,0.0756251164889143,0.00958185759344887,0.0,-0.3924,0.02943,9.79038
5196969645,22.22,0.08735372906231618,-0.006387905062299246,-0.002129301687433082,-0.36297,0.18639,9.79038
5202020150,22.22,0.09374163412461543,-0.00958185759344887,-0.004258603374866164,-0.18639,0.1962,9.66285
5207070655,22.22,0.07670722062515077,0.01064650843716541,-0.001064650843716541,-0.26487,0.02943,9.67266
5212121160,22.22,0.07243116395776468,0.0,0.0,-0.42183,0.019620000000000002,9.80019
5217171665,22.22,0.0852244273748831,-0.01811651763570114,0.001064650843716541,-0.32373,0.10791,9.84924
5222222170,22.22,0.08735372906231618,-0.003193952531149623,-0.001064650843716541,-0.21582,0.11772,9.86886
5227272675,22.22,0.07243116395776468,0.0,-0.001064650843716541,-0.21582,0.05886,9.85905
5232323180,22.22,0.08628907821859966,0.014905111812031574,0.0,-0.28449,0.21582,9.81
5237373685,22.22,0.0852244273748831,0.003193952531149623,-0.004258603374866164,-0.34335000000000004,0.0981,9.81
5242424190,22.22,0.0756251164889143,0.003193952531149623,-0.002129301687433082,-0.33354000000000006,0.1962,9.751140000000001
5247474695,22.22,0.08841837990603273,-0.002129301687433082,0.0,-0.37278,0.26487,9.751140000000001
5252525200,22.22,0.08415977653116657,-0.008517206749732328,0.0,-0.1962,0.18639,9.70209
5257575705,22.22,0.07136651311404815,0.011711159280881954,0.0,-0.26487,0.0981,9.70209
5262626210,22.22,0.07136651311404815,0.002129301687433082,0.0,-0.45126,0.15696000000000002,9.78057
5267676715,22.22,0.08096582400001695,-0.015987215948268057,0.0,-0.26487,0.25506,9.81
5272727220,22.22,0.07883652231258387,-0.001064650843716541,0.0,-0.22563,0.10791,9.84924
5277777725,22.22,0.06497860805174888,0.006387905062299246,-0.002129301687433082,-0.35316,0.13734000000000002,9.85905
5282828230,22.22,0.08203047484373349,0.003193952531149623,-0.001064650843716541,-0.31392000000000003,0.34335000000000004,9.80019
5287878735,22.22,0.08735372906231618,0.003193952531149623,0.0,-0.26487,0.30411,9.68247
5292929240,22.22,0.06178465552059926,0.008517206749732328,-0.001064650843716541,-0.31392000000000003,0.08829,9.73152
5297979745,22.22,0.06178465552059926,0.0,0.0,-0.49050000000000005,0.20601000000000003,9.819809999999999
5303030250,22.22,0.07777187146886733,-0.023439771854283843,-0.003193952531149623,-0.31392000000000003,0.31392000000000003,9.83943
5308080755,22.22,0.07136651311404815,-0.008517206749732328,-0.001064650843716541,-0.08829,0.22563,9.81
5313131260,22.22,0.06710790973918197,0.01918116847941768,0.0,-0.27468000000000004,0.21582,9.7119
5318181765,22.22,0.07243116395776468,0.005323254218582705,0.0,-0.36297,0.34335000000000004,9.69228
5323232270,22.22,0.07990117315630041,0.004258603374866164,0.003193952531149623,-0.24525000000000002,0.34335000000000004,9.65304
5328282775,22.22,0.05752605214573309,0.003193952531149623,-0.001064650843716541,-0.36297,0.22563,9.72171
5333333280,22.22,0.05859070298944965,-0.005323254218582705,0.0,-0.34335000000000004,0.31392000000000003,9.751140000000001
5338383785,22.22,0.06923721142661506,-0.011711159280881954,0.0,-0.27468000000000004,0.32373,9.751140000000001
5343434290,22.22,0.05752605214573309,0.0,0.0,-0.21582,0.18639,9.751140000000001
5348484795,22.22,0.05859070298944965,0.004258603374866164,0.0,-0.35316,0.28449,9.84924
5353535300,22.22,0.0756251164889143,-0.002129301687433082,0.0,-0.31392000000000003,0.38259000000000004,9.85905
5358585805,22.22,0.06284930636431581,-0.001064650843716541,0.0,-0.21582,0.26487,9.80019
5363636310,22.22,0.05965535383316618,0.012775810124598492,0.0,-0.33354000000000006,0.31392000000000003,9.78057
5368686815,22.22,0.06284930636431581,-0.004258603374866164,0.0,-0.34335000000000004,0.3924,9.819809999999999
5373737320,22.22,0.06391395720803235,0.001064650843716541,0.0,-0.20601000000000003,0.41202000000000005,9.69228
5378787825,22.22,0.05539675045830002,0.014905111812031574,0.0,-0.35316,0.37278,9.57456
5383838330,22.22,0.049008845396000776,0.0,0.0,-0.41202000000000005,0.31392000000000003,9.66285
5388888835,22.22,0.05113814708343386,-0.004258603374866164,0.0,-0.32373,0.38259000000000004,9.81
5393939340,22.22,0.05752605214573309,-0.014905111812031574,0.0,-0.32373,0.32373,9.83943
5398989845,22.22,0.046879543708567686,-0.008517206749732328,0.0,-0.17658,0.30411,9.79038
5404040350,22.22,0.054332099614583476,0.006387905062299246,0.0,-0.2943,0.3924,9.83943
5409090855,22.22,0.054332099614583476,0.004258603374866164,0.0,-0.22563,0.37278,9.79038
5414141360,22.22,0.05646140130201656,0.01064650843716541,0.0,-0.31392000000000003,0.43164,9.66285
5419191865,22.22,0.05646140130201656,0.007452555906015787,0.0,-0.43164,0.44145,9.6138
5424242370,22.22,0.04581489286485115,-0.00958185759344887,0.0,-0.28449,0.31392000000000003,9.760950000000001
5429292875,22.22,0.03834488366631542,0.0,0.0,-0.38259000000000004,0.42183,9.83943
5434343380,22.22,0.049008845396000776,-0.021310470166850764,0.0,-0.31392000000000003,0.36297,9.81
5439393885,22.22,0.04794419455228423,-0.002129301687433082,0.0,-0.11772,0.38259000000000004,9.70209
5444444390,22.22,0.049008845396000776,0.022375121010567305,0.005323254218582705,-0.27468000000000004,0.42183,9.81
5449494895,22.22,0.04794419455228423,0.004258603374866164,0.002129301687433082,-0.33354000000000006,0.42183,9.751140000000001
5454545400,22.22,0.05539675045830002,0.002129301687433082,0.002129301687433082,-0.31392000000000003,0.51993,9.58437
5459595905,22.22,0.03834488366631542,0.008517206749732328,-0.001064650843716541,-0.35316,0.50031,9.6138
5464646410,22.22,0.02769837522915001,-0.004258603374866164,-0.001064650843716541,-0.2943,0.38259000000000004,9.74133
5469696915,22.22,0.03089232776029963,-0.006387905062299246,0.0,-0.37278,0.38259000000000004,9.770760000000001
5474747420,22.22,0.03728023282259888,-0.015987215948268057,0.001064650843716541,-0.30411,0.37278,9.73152
5479797925,22.22,0.03515093113516579,-0.004258603374866164,0.002129301687433082,-0.17658,0.42183,9.82962
5484848430,22.22,0.03621558197888234,0.007452555906015787,-0.002129301687433082,-0.23544,0.38259000000000004,9.937529999999999
5489898935,22.22,0.03834488366631542,0.005323254218582705,0.0,-0.32373,0.45126,9.760950000000001
5494949440,22.22,0.046879543708567686,0.006387905062299246,0.002129301687433082,-0.30411,0.51012,9.751140000000001
5499999945,22.22,0.03834488366631542,0.002129301687433082,0.001064650843716541,-0.35316,0.51012,9.66285
5505050450,22.22,0.02663372438543347,0.004258603374866164,0.0,-0.31392000000000003,0.38259000000000004,9.65304
5510100955,22.22,0.02769837522915001,-0.004258603374866164,0.002129301687433082,-0.44145,0.49050000000000005,9.7119
5515151460,22.22,0.02982767691658309,-0.01064650843716541,-0.002129301687433082,-0.22563,0.52974,9.66285
5520201965,22.22,0.033021629447732716,0.002129301687433082,0.003193952531149623,-0.23544,0.46107000000000004,9.633420000000001
5525252470,22.22,0.013840460968315033,0.013840460968315033,0.0,-0.31392000000000003,0.3924,9.68247
5530302975,22.22,0.02663372438543347,-0.004258603374866164,-0.002129301687433082,-0.43164,0.5493600000000001,9.80019
5535353480,22.22,0.02556907354171693,-0.011711159280881954,-0.002129301687433082,-0.25506,0.45126,9.81
5540403985,22.22,0.022375121010567305,0.0,0.0,-0.23544,0.42183,9.79038
5545454490,22.22,0.01811651763570114,0.006387905062299246,0.001064650843716541,-0.37278,0.37278,9.83943
5550504995,22.22,0.02556907354171693,-0.004258603374866164,0.0,-0.30411,0.5591700000000001,9.83943
5555555500,22.22,0.03408628029144926,0.001064650843716541,0.0,-0.26487,0.51012,9.78057
5560606005,22.22,0.015987215948268057,0.0,0.001064650843716541,-0.23544,0.3924,9.68247
5565656510,22.22,0.023439771854283843,0.0170518667919846,0.001064650843716541,-0.40221,0.6180300000000001,9.65304
5570707015,22.22,0.024504422698000388,-0.006387905062299246,-0.003193952531149623,-0.2943,0.6768900000000001,9.65304
5575757520,22.22,0.0170518667919846,0.001064650843716541,0.002129301687433082,-0.20601000000000003,0.42183,9.57456
5580808025,22.22,-0.006387905062299246,0.011711159280881954,0.001064650843716541,-0.45126,0.38259000000000004,9.633420000000001
5585858530,22.22,0.013840460968315033,-0.011711159280881954,0.0,-0.45126,0.60822,9.72171
5590909035,22.22,0.021310470166850764,-0.01918116847941768,-0.003193952531149623,-0.08829,0.5886,9.73152
5595959540,22.22,0.001064650843716541,0.012775810124598492,0.001064650843716541,-0.24525000000000002,0.25506,9.751140000000001
5601010045,22.22,-0.004258603374866164,0.006387905062299246,0.001064650843716541,-0.47088,0.43164,9.83943
5606060550,22.22,0.03089232776029963,-0.01064650843716541,-0.001064650843716541,-0.31392000000000003,0.72594,9.819809999999999
5611111055,22.22,0.011711159280881954,-0.005323254218582705,-0.002129301687433082,-0.10791,0.43164,9.770760000000001
5616161560,22.22,-0.01064650843716541,0.021310470166850764,0.004258603374866164,-0.30411,0.40221,9.70209
5621212065,22.22,0.011711159280881954,0.006387905062299246,0.0,-0.48069000000000006,0.65727,9.73152
5626262570,22.22,0.021310470166850764,-0.01064650843716541,-0.002129301687433082,-0.22563,0.6180300000000001,9.623610000000001
5631313075,22.22,-0.01064650843716541,0.008517206749732328,0.0,-0.28449,0.38259000000000004,9.633420000000001
5636363580,22.22,-0.014905111812031574,0.001064650843716541,0.0,-0.46107000000000004,0.42183,9.79038
5641414085,22.22,0.003193952531149623,-0.0170518667919846,-0.002129301687433082,-0.25506,0.57879,9.819809999999999
5646464590,22.22,0.001064650843716541,-0.003193952531149623,0.002129301687433082,-0.18639,0.43164,9.81
5651515095,22.22,-0.01064650843716541,0.006387905062299246,0.002129301687433082,-0.30411,0.42183,9.79038
5656565600,22.22,0.006387905062299246,0.001064650843716541,0.0,-0.33354000000000006,0.5395500000000001,9.85905
5661616105,22.22,0.00958185759344887,-0.001064650843716541,0.0,-0.26487,0.50031,9.81
5666666610,22.22,-0.014905111812031574,0.004258603374866164,-0.001064650843716541,-0.2943,0.35316,9.80019
5671717115,22.22,-0.003193952531149623,-0.001064650843716541,0.0,-0.40221,0.51993,9.87867
5676767620,22.22,0.007452555906015787,-0.006387905062299246,0.0,-0.20601000000000003,0.60822,9.770760000000001
5681818125,22.22,-0.004258603374866164,0.011711159280881954,0.0,-0.18639,0.56898,9.5157
5686868630,22.22,-0.007452555906015787,0.013840460968315033,0.002129301687433082,-0.34335000000000004,0.52974,9.47646
5691919135,22.22,-0.00958185759344887,0.002129301687433082,0.0,-0.35316,0.5493600000000001,9.50589
5696969640,22.22,-0.013840460968315033,0.004258603374866164,0.0,-0.41202000000000005,0.52974,9.60399
5702020145,22.22,-0.020245819323134222,-0.01918116847941768,0.0,-0.40221,0.48069000000000006,9.79038
5707070650,22.22,-0.01918116847941768,-0.02663372438543347,0.0,-0.1962,0.36297,9.937529999999999
5712121155,22.22,-0.01918116847941768,0.001064650843716541,0.0,-0.16677000000000003,0.34335000000000004,9.94734
5717171660,22.22,-0.01064650843716541,0.012775810124598492,0.0,-0.24525000000000002,0.6278400000000001,9.80019
5722222165,22.22,0.011711159280881954,0.014905111812031574,0.0,-0.21582,0.73575,9.60399
5727272670,22.22,-0.020245819323134222,0.01811651763570114,0.0,-0.27468000000000004,0.35316,9.54513
5732323175,22.22,-0.0404741853537485,0.020245819323134222,0.0,-0.6180300000000001,0.41202000000000005,9.623610000000001
5737373680,22.22,-0.01064650843716541,-0.02663372438543347,0.0,-0.5591700000000001,0.8338500000000001,9.67266
5742424185,22.22,-0.014905111812031574,-0.02663372438543347,0.0,0.009810000000000001,0.59841,9.496080000000001
5747474690,22.22,-0.06391395720803235,0.007452555906015787,0.0,-0.17658,0.009810000000000001,9.59418
5752525195,22.22,-0.05326744877086694,0.011711159280881954,0.0,-0.5493600000000001,0.41202000000000005,9.82962
5757575700,22.22,0.00958185759344887,-0.024504422698000388,0.0,-0.32373,0.8142300000000001,9.94734
5762626205,22.22,-0.0170518667919846,-0.002129301687433082,0.0,0.0981,0.35316,9.770760000000001
5767676710,22.22,-0.06604325889546543,0.039409534510031964,0.0,-0.41202000000000005,0.1962,9.770760000000001
5772727215,22.22,-0.020245819323134222,-0.01064650843716541,0.006387905062299246,-0.6867000000000001,0.5493600000000001,9.97677
5777777720,22.22,-0.007452555906015787,-0.033021629447732716,-0.002129301687433082,-0.019620000000000002,0.6278400000000001,9.83943
5782828225,22.22,-0.03515093113516579,0.03089232776029963,0.001064650843716541,-0.21582,0.42183,9.60399
5787878730,22.22,-0.054332099614583476,-0.002129301687433082,-0.001064650843716541,-0.48069000000000006,0.28449,9.66285
5792929235,22.22,-0.011711159280881954,-0.004258603374866164,0.002129301687433082,-0.24525000000000002,0.6768900000000001,9.7119
5797979740,22.22,-0.028763026072866547,-0.001064650843716541,0.0,-0.31392000000000003,0.35316,9.82962
5803030245,22.22,-0.05752605214573309,-0.0,-0.001064650843716541,-0.2943,0.41202000000000005,9.70209
5808080750,22.22,-0.01918116847941768,-0.003193952531149623,0.001064650843716541,-0.38259000000000004,0.6278400000000001,9.7119
5813131255,22.22,-0.03834488366631542,-0.007452555906015787,0.0,-0.10791,0.25506,9.7119
5818181760,22.22,-0.05646140130201656,0.023439771854283843,0.001064650843716541,-0.37278,0.38259000000000004,9.74133
5823232265,22.22,-0.03089232776029963,-0.003193952531149623,0.0,-0.5493600000000001,0.63765,9.760950000000001
5828282770,22.22,-0.02663372438543347,-0.03408628029144926,-0.001064650843716541,-0.04905,0.46107000000000004,9.6138
5833333275,22.22,-0.06497860805174888,0.02982767691658309,0.004258603374866164,-0.20601000000000003,0.16677000000000003,9.751140000000001
5838383780,22.22,-0.05220279792715039,0.005323254218582705,0.001064650843716541,-0.6768900000000001,0.48069000000000006,9.83943
5843434285,22.22,-0.022375121010567305,-0.031956978604016174,-0.002129301687433082,-0.16677000000000003,0.71613,9.66285
5848484790,22.22,-0.0404741853537485,0.005323254218582705,0.002129301687433082,-0.07848000000000001,0.24525000000000002,9.68247
5853535295,22.22,-0.08628907821859966,0.0170518667919846,0.003193952531149623,-0.47088,0.02943,9.81
5858585800,22.22,-0.03089232776029963,-0.011711159280881954,0.0,-0.47088,0.72594,9.89829
5863636305,22.22,-0.015987215948268057,-0.013840460968315033,-0.003193952531149623,-0.14715,0.5395500000000001,9.770760000000001
5868686810,22.22,-0.07243116395776468,0.008517206749732328,0.0,-0.04905,0.06867000000000001,9.67266
5873737315,22.22,-0.06710790973918197,0.024504422698000388,0.003193952531149623,-0.6768900000000001,0.34335000000000004,9.770760000000001
5878787820,22.22,-0.01918116847941768,-0.02556907354171693,0.0,-0.30411,0.71613,9.83943
5883838325,22.22,-0.0404741853537485,0.0,0.0,0.0,0.36297,9.6138
5888888830,22.22,-0.07883652231258387,0.02663372438543347,0.003193952531149623,-0.45126,0.16677000000000003,9.58437
5893939335,22.22,-0.05113814708343386,-0.011711159280881954,0.001064650843716541,-0.52974,0.46107000000000004,9.751140000000001
5898989840,22.22,-0.03728023282259888,-0.015987215948268057,-0.001064650843716541,-0.10791,0.51012,9.819809999999999
5904040345,22.22,-0.06817256058289851,0.006387905062299246,-0.001064650843716541,-0.33354000000000006,0.11772,9.66285
5909090850,22.22,-0.0756251164889143,-0.002129301687433082,0.001064650843716541,-0.41202000000000005,0.31392000000000003,9.74133
5914141355,22.22,-0.03834488366631542,-0.00958185759344887,0.0,-0.24525000000000002,0.47088,9.89829
5919191860,22.22,-0.06284930636431581,0.002129301687433082,0.0,-0.13734000000000002,0.16677000000000003,9.85905
5924242365,22.22,-0.06923721142661506,0.020245819323134222,0.003193952531149623,-0.45126,0.30411,9.67266
5929292870,22.22,-0.04153883619746504,-0.007452555906015787,0.001064650843716541,-0.40221,0.48069000000000006,9.760950000000001
5934343375,22.22,-0.06391395720803235,-0.01064650843716541,-0.001064650843716541,0.0,0.17658,9.82962
5939393880,22.22,-0.0756251164889143,0.02556907354171693,0.003193952531149623,-0.44145,0.25506,9.760950000000001
5944444385,22.22,-0.054332099614583476,-0.015987215948268057,0.0,-0.51012,0.37278,9.69228
5949494890,22.22,-0.05220279792715039,-0.00958185759344887,-0.001064650843716541,-0.06867000000000001,0.41202000000000005,9.65304
5954545395,22.22,-0.0756251164889143,0.01811651763570114,0.002129301687433082,-0.28449,0.10791,9.80019
5959595900,22.22,-0.07349581480148122,0.0,0.003193952531149623,-0.43164,0.2943,9.7119
5964646405,22.22,-0.04581489286485115,-0.004258603374866164,0.002129301687433082,-0.33354000000000006,0.44145,9.68247
5969696910,22.22,-0.07777187146886733,-0.004258603374866164,0.002129301687433082,-0.26487,0.11772,9.78057
5974747415,22.22,-0.09267698328089889,-0.005323254218582705,0.0,-0.32373,0.08829,9.92772
5979797920,22.22,-0.05752605214573309,-0.01064650843716541,0.0,-0.28449,0.36297,9.908100000000001
5984848425,22.22,-0.05859070298944965,-0.001064650843716541,0.0,-0.10791,0.22563,9.751140000000001
5989898930,22.22,-0.08203047484373349,0.024504422698000388,0.001064650843716541,-0.2943,0.13734000000000002,9.66285
5994949435,22.22,-0.06497860805174888,0.007452555906015787,0.003193952531149623,-0.52974,0.35316,9.81
5999999940,22.22,-0.05859070298944965,-0.01811651763570114,0.0,-0.23544,0.23544,9.79038
6005050445,22.22,-0.08735372906231618,0.00958185759344887,0.001064650843716541,-0.32373,0.11772,9.72171
6010100950,22.22,-0.07990117315630041,-0.007452555906015787,0.001064650843716541,-0.51993,0.17658,9.819809999999999
6015151455,22.22,-0.06710790973918197,-0.021310470166850764,-0.001064650843716541,-0.06867000000000001,0.31392000000000003,9.82962
6020201960,22.22,-0.06817256058289851,0.013840460968315033,0.002129301687433082,-0.0981,0.04905,9.72171
6025252465,22.22,-0.08948303074974927,0.020245819323134222,0.002129301687433082,-0.48069000000000006,0.11772,9.69228
6030302970,22.22,-0.05752605214573309,-0.007452555906015787,0.0,-0.41202000000000005,0.42183,9.760950000000001
6035353475,22.22,-0.07136651311404815,-0.01064650843716541,0.002129301687433082,-0.20601000000000003,0.12753,9.760950000000001
6040403980,22.22,-0.10332349171806432,0.005323254218582705,0.003193952531149623,-0.28449,-0.0981,9.78057
6045454485,22.22,-0.08309512568745003,-0.001064650843716541,0.002129301687433082,-0.52974,0.24525000000000002,9.84924
6050504990,22.22,-0.05752605214573309,-0.024504422698000388,0.0,-0.11772,0.25506,9.84924
6055555495,22.22,-0.09054768159346581,0.00958185759344887,0.001064650843716541,-0.05886,-0.11772,9.78057
6060606000,22.22,-0.09480628496833199,0.023439771854283843,0.004258603374866164,-0.51012,-0.06867000000000001,9.937529999999999
6065656505,22.22,-0.06497860805174888,-0.01811651763570114,-0.002129301687433082,-0.40221,0.33354000000000006,9.92772
6070707010,22.22,-0.05646140130201656,-0.004258603374866164,0.001064650843716541,-0.02943,0.28449,9.7119
6075757515,22.22,-0.09480628496833199,0.024504422698000388,0.001064650843716541,-0.2943,-0.04905,9.60399
6080808020,22.22,-0.09800023749948161,0.011711159280881954,0.002129301687433082,-0.5493600000000001,0.11772,9.64323
6085858525,22.22,-0.07136651311404815,-0.01811651763570114,-0.001064650843716541,-0.3924,0.26487,9.770760000000001
6090909030,22.22,-0.08735372906231618,-0.01918116847941768,0.001064650843716541,-0.20601000000000003,-0.04905,9.760950000000001
6095959535,22.22,-0.11079350091660004,-0.003193952531149623,0.002129301687433082,-0.28449,-0.11772,9.819809999999999
6101010040,22.22,-0.07990117315630041,-0.002129301687433082,0.0,-0.36297,0.11772,9.908100000000001
6106060545,22.22,-0.07670722062515077,-0.014905111812031574,0.0,-0.13734000000000002,-0.039240000000000004,9.888480000000001
6111111050,22.22,-0.08948303074974927,0.01918116847941768,0.003193952531149623,-0.22563,0.019620000000000002,9.819809999999999
6116161555,22.22,-0.07670722062515077,0.007452555906015787,0.001064650843716541,-0.45126,0.07848000000000001,9.82962
6121212060,22.22,-0.08203047484373349,-0.007452555906015787,-0.002129301687433082,-0.17658,0.0,9.751140000000001
6126262565,22.22,-0.08415977653116657,0.021310470166850764,0.004258603374866164,-0.41202000000000005,0.0,9.72171
6131313070,22.22,-0.09693558665576507,-0.011711159280881954,0.002129301687433082,-0.46107000000000004,-0.02943,9.79038
6136363575,22.22,-0.0852244273748831,-0.01811651763570114,-0.001064650843716541,-0.15696000000000002,0.05886,9.74133
