#timestamp [ns], temperature [degC], w_RS_S_x [rad s^-1], w_RS_S_y [rad s^-1], w_RS_S_z [rad s^-1], a_RS_S_x [m s^-2], a_RS_S_y [m s^-2], a_RS_S_z [m s^-2]
0.0,22.09,0.0,0.0,0.0,0.33354,0.22563,9.86886
5000000.0,22.09,0.0,0.0,0.0,0.314116199805762,0.264477600388476,9.87857190009712
10000000.0,22.09,0.0,0.0,0.0,0.333147600388476,0.24564239961152398,9.83060099902881
15000000.0,22.09,0.0,0.0,0.0,0.314508599417286,0.25476570029135703,9.858167100874072
20000000.0,22.09,0.0,0.0,0.0,0.32333760038847603,0.22680719883457198,9.877885200776952
25000000.0,22.09,0.0,0.0,0.0,0.333049500485595,0.24426900097119,9.86003099902881
30000000.0,22.09,0.0,0.0,0.0,0.315097198834572,0.254471400582714,9.868271400582714
35000000.0,22.09,0.0,0.0,0.0,0.341289902039499,0.264183300679833,9.877983300679833
40000000.0,22.09,0.0,0.0,0.0,0.334324799223048,0.255844799223048,9.842569196892192
45000000.0,22.09,0.0,0.0,0.0,0.30675869737778694,0.22827869737778697,9.866211302622213
50000000.0,22.09,0.0,0.0,0.0,0.33059700291357,0.22563,9.86003099902881
55000000.0,22.09,0.0,0.0,0.0,0.33354,0.24309180213661802,9.86778090106831
60000000.0,22.09,0.0,0.0,0.0,0.32490719883457203,0.2797812046617121,9.90339120466171
65000000.0,22.09,0.0,0.0,0.0,0.32373,0.25888589621235897,9.882495896212358
70000000.0,22.09,0.0,0.0,0.0,0.30685679728066795,0.22131359456133595,9.895543202719331
75000000.0,22.09,0.0,0.0,0.0,0.32912550437035504,0.23249700291357003,9.873274495629644
80000000.0,22.09,0.0,0.0,0.0,0.33354,0.25192080310780807,9.89358120466171
85000000.0,22.09,0.0,0.0,0.0,0.325397698348977,0.25506,9.890147698348976
90000000.0,22.09,0.0,0.0,0.0,0.347862605244426,0.23897159650371597,9.84825899125929
95000000.0,22.09,0.0,0.0,0.0,0.3134294907736949,0.25927830553578307,9.863268305535783
100000000.0,22.09,0.0,0.0,0.0,0.31980600388476005,0.27271800194238,9.884556003884759
105000000.0,22.09,0.0,0.0,0.0,0.31598009796050097,0.25143029388150295,9.865230293881503
110000000.0,22.09,0.0,0.0,0.0,0.321571802136618,0.24525,9.85905
115000000.0,22.09,0.0,0.0,0.0,0.33128370223373704,0.25280370223373705,9.874157404467473
120000000.0,22.09,0.0,0.0,0.0,0.3186287953382879,0.25506,9.901036806992568
125000000.0,22.09,0.0,0.0,0.0,0.33599250728392505,0.25506,9.886027492716075
130000000.0,22.09,0.0,0.0,0.0,0.35786880505018803,0.247800597474906,9.87867
135000000.0,22.09,0.0,0.0,0.0,0.34864739475557394,0.23808869737778698,9.87867
140000000.0,22.09,0.0,0.0,0.0,0.32922359456133593,0.24250320271933204,9.885733202719331
145000000.0,22.09,0.0,0.0,0.0,0.3028346915506469,0.24525,9.860619588734195
150000000.0,22.09,0.0,0.0,0.0,0.30803400582714,0.25211700291357003,9.86984100874071
155000000.0,22.09,0.0,0.0,0.0,0.32745780602137803,0.24152219397862196,9.87190109698931
160000000.0,22.09,0.0,0.0,0.0,0.3201983937843839,0.24878160621561607,9.862189196892192
165000000.0,22.09,0.0,0.0,0.0,0.32706540640985404,0.2682054064098541,9.872195406409853
170000000.0,22.09,0.0,0.0,0.0,0.327065396697954,0.2552561900938619,9.865720793395909
175000000.0,22.09,0.0,0.0,0.0,0.3046004898025049,0.2261204898025049,9.852673496600834
180000000.0,22.09,0.0,0.0,0.0,0.3319704209777042,0.22209840349628404,9.874353613985136
185000000.0,22.09,0.0,0.0,0.0,0.359340303593403,0.23799060718680606,9.882299696406596
190000000.0,22.09,0.0,0.0,0.0,0.36905220369052205,0.2634966110715661,9.872587796309478
195000000.0,22.09,0.0,0.0,0.0,0.35482768863707687,0.2447594810617948,9.86886
200000000.0,22.09,0.0,0.0,0.0,0.33746399611524,0.23151600388476004,9.86297399611524
205000000.0,22.09,0.0,0.0,0.0,0.3161762880543629,0.23544,9.85905
210000000.0,22.09,0.0,0.0,0.0,0.3325590203949902,0.21837058776300589,9.870429608157997
215000000.0,22.09,0.0,0.0,0.0,0.3307931832955318,0.22278511252835112,9.867486591647765
220000000.0,22.09,0.0,0.0,0.0,0.3249072085464721,0.25741441709294416,9.875530812819708
225000000.0,22.09,0.0,0.0,0.0,0.33354,0.27468,9.872293486888935
230000000.0,22.09,0.0,0.0,0.0,0.32294519106505193,0.27997740446747404,9.853752595532526
235000000.0,22.09,0.0,0.0,0.0,0.32951791369377914,0.25329417261244175,9.864837913693778
240000000.0,22.09,0.0,0.0,0.0,0.3229451813531518,0.22563,9.87867
245000000.0,22.09,0.0,0.0,0.0,0.3141162095176621,0.2156237904823379,9.863660685723506
250000000.0,22.09,0.0,0.0,0.0,0.33844501456785014,0.2256300194238002,9.8590500097119
255000000.0,22.09,0.0,0.0,0.0,0.35316,0.2596707148592071,9.873666904953069
260000000.0,22.09,0.0,0.0,0.0,0.3484511949498119,0.27468,9.864543584849436
265000000.0,22.09,0.0,0.0,0.0,0.32951788455807884,0.26084788455807884,9.858461410294614
270000000.0,22.09,0.0,0.0,0.0,0.3229452104888521,0.24525,9.859834789511147
275000000.0,22.09,0.0,0.0,0.0,0.3247109893169099,0.23200648397536483,9.853654505341545
280000000.0,22.09,0.0,0.0,0.0,0.32686921631599214,0.22013640543866406,9.85905
285000000.0,22.09,0.0,0.0,0.0,0.33491338892843386,0.23406661107156612,9.863268305535783
290000000.0,22.09,0.0,0.0,0.0,0.3319704112658041,0.24937020563290205,9.872980205632901
295000000.0,22.09,0.0,0.0,0.0,0.3353057885399579,0.25506,9.870625788539957
300000000.0,22.09,0.0,0.0,0.0,0.32765400582714005,0.25506,9.87082201748142
305000000.0,22.09,0.0,0.0,0.0,0.3373659059242591,0.25123409407574093,9.880828188151481
310000000.0,22.09,0.0,0.0,0.0,0.33589438795724386,0.24152219397862193,9.857676581935866
315000000.0,22.09,0.0,0.0,0.0,0.3273597061184971,0.23544,9.857578530592486
320000000.0,22.09,0.0,0.0,0.0,0.32647678756876786,0.23190839378438394,9.874353575137535
325000000.0,22.09,0.0,0.0,0.0,0.3242205189382052,0.23936402525094025,9.85610701262547
330000000.0,22.09,0.0,0.0,0.0,0.35002081281970815,0.2581991871802919,9.865524593590147
335000000.0,22.09,0.0,0.0,0.0,0.34678346746513466,0.24848730650697307,9.868761919520919
340000000.0,22.09,0.0,0.0,0.0,0.32333761981227616,0.25192079339590795,9.879062380187724
345000000.0,22.09,0.0,0.0,0.0,0.34335,0.24829110670121107,9.862091106701211
350000000.0,22.09,0.0,0.0,0.0,0.33746398640333986,0.2462309796050098,9.86591699320167
355000000.0,22.09,0.0,0.0,0.0,0.3265749068954491,0.23131981379089814,9.85620509310455
360000000.0,22.09,0.0,0.0,0.0,0.33079319300743193,0.2534904209777042,9.84924
365000000.0,22.09,0.0,0.0,0.0,0.32108129291031295,0.2667338787309388,9.857186121269061
370000000.0,22.09,0.0,0.0,0.0,0.3164706071868061,0.24269939281319391,9.865916964065969
375000000.0,22.09,0.0,0.0,0.0,0.3310875218517752,0.23298749271607494,9.8394300291357
380000000.0,22.09,0.0,0.0,0.0,0.34845118523791185,0.22798440738104409,9.866505592618955
385000000.0,22.09,0.0,0.0,0.0,0.33805261495632616,0.23995261495632617,9.861306307478163
390000000.0,22.09,0.0,0.0,0.0,0.34668537727415377,0.25506,9.86886
395000000.0,22.09,0.0,0.0,0.0,0.3216698923275989,0.25093978465519784,9.86886
400000000.0,22.09,0.0,0.0,0.0,0.3119579922304799,0.23544,9.86886
405000000.0,22.09,0.0,0.0,0.0,0.30411,0.22984827640008276,9.874451723599917
410000000.0,22.09,0.0,0.0,0.0,0.30764161592751615,0.20954161592751616,9.891226768144968
415000000.0,22.09,0.0,0.0,0.0,0.3253977080608771,0.22896541612175417,9.857382291939123
420000000.0,22.09,0.0,0.0,0.0,0.3366792163159922,0.24995882447398823,9.853948824473989
425000000.0,22.09,0.0,0.0,0.0,0.3487454752346547,0.2702654752346547,9.877198491744885
430000000.0,22.09,0.0,0.0,0.0,0.32373,0.2466234083522341,9.871606816704467
435000000.0,22.09,0.0,0.0,0.0,0.32245469155064693,0.24868345775323458,9.88848
440000000.0,22.09,0.0,0.0,0.0,0.31509720854647205,0.20954162563941625,9.886125582907056
445000000.0,22.09,0.0,0.0,0.0,0.3258882172871822,0.23436089135640892,9.86886
450000000.0,22.09,0.0,0.0,0.0,0.3443310087407101,0.2334780699256807,9.867878991259289
455000000.0,22.09,0.0,0.0,0.0,0.3513941823243418,0.30057836464868365,9.859932908837829
460000000.0,22.09,0.0,0.0,0.0,0.3327551910650519,0.2625155731951557,9.869644808934948
465000000.0,22.09,0.0,0.0,0.0,0.32304329096793294,0.23406658193586583,9.879356709032066
470000000.0,22.09,0.0,0.0,0.0,0.31450860912918605,0.21758582738755827,9.887302781741628
475000000.0,22.09,0.0,0.0,0.0,0.3232394907736949,0.2447594907736949,9.86886
480000000.0,22.09,0.0,0.0,0.0,0.31548963729369633,0.2370096372936964,9.869252409323424
485000000.0,22.09,0.0,0.0,0.0,0.3522770717383707,0.2743856905794569,9.877492762317827
490000000.0,22.09,0.0,0.0,0.0,0.3245148380706484,0.2650662095176621,9.839822419035324
495000000.0,22.09,0.0,0.0,0.0,0.36247945192609454,0.2743856711556567,9.85914810961478
500000000.0,22.09,0.0,0.0,0.0,0.31391999028809986,0.2452499611523996,9.8688600291357
505000000.0,22.09,0.0,0.0,0.0,0.3042080901909809,0.2064023607639236,9.897995729427057
510000000.0,22.09,0.0,0.0,0.0,0.3137238099061381,0.2252376198122762,9.869448570281586
515000000.0,22.09,0.0,0.0,0.0,0.3234357100032571,0.2636928400130284,9.906922840013028
520000000.0,22.09,0.0,0.0,0.0,0.3331476101003761,0.2931228303011283,9.879847169698872
525000000.0,22.09,0.0,0.0,0.0,0.3055814694075147,0.2849804898025049,9.850711469407514
530000000.0,22.09,0.0,0.0,0.0,0.3133314102946141,0.2291615382323154,9.867682820589227
535000000.0,22.09,0.0,0.0,0.0,0.3321666207834662,0.22563,9.86886
540000000.0,22.09,0.0,0.0,0.0,0.3425652104888521,0.23465521048885213,9.86886
545000000.0,22.09,0.0,0.0,0.0,0.3254957788280578,0.2443671105859711,9.86886
550000000.0,22.09,0.0,0.0,0.0,0.3060719786338198,0.24525,9.87768901068309
555000000.0,22.09,0.0,0.0,0.0,0.3128409107802091,0.2801736431208365,9.869939089219791
560000000.0,22.09,0.0,0.0,0.0,0.3225528108773281,0.24995875649068755,9.842961567368016
565000000.0,22.09,0.0,0.0,0.0,0.3322647109744471,0.2367152890255529,9.865034132923341
570000000.0,22.09,0.0,0.0,0.0,0.3251033889284339,0.21013016678530166,9.86886
575000000.0,22.09,0.0,0.0,0.0,0.31539148883131485,0.23936404467474046,9.877198511168684
580000000.0,22.09,0.0,0.0,0.0,0.32216041126580414,0.2534904112658041,9.886910411265804
585000000.0,22.09,0.0,0.0,0.0,0.3400146227258462,0.25506,9.88848
590000000.0,22.09,0.0,0.0,0.0,0.3192173656198736,0.2631042114600421,9.864347365619873
595000000.0,22.09,0.0,0.0,0.0,0.31392,0.24103166532851666,9.85905
600000000.0,22.09,0.0,0.0,0.0,0.29822397669143974,0.2432880116542801,9.87474602330856
605000000.0,22.09,0.0,0.0,0.0,0.3097998235027982,0.21425035299440354,9.870920088248601
610000000.0,22.09,0.0,0.0,0.0,0.3062681881514819,0.22896543554555437,9.853556376302963
615000000.0,22.09,0.0,0.0,0.0,0.32677113583691136,0.23544,9.87190113583691
620000000.0,22.09,0.0,0.0,0.0,0.3633624481710245,0.26526244817102446,9.886125612042756
625000000.0,22.09,0.0,0.0,0.0,0.37278,0.27468,9.873764975720249
630000000.0,22.09,0.0,0.0,0.0,0.3292235265780352,0.25290176328901764,9.897897648947977
635000000.0,22.09,0.0,0.0,0.0,0.2995973753317738,0.2380886876658869,9.872293438329434
640000000.0,22.09,0.0,0.0,0.0,0.3013632124312321,0.24250321243123213,9.85905
645000000.0,22.09,0.0,0.0,0.0,0.30411,0.22435466241494664,9.872980225056702
650000000.0,22.09,0.0,0.0,0.0,0.31784402525094024,0.2364210378764104,9.87180298737453
655000000.0,22.09,0.0,0.0,0.0,0.34403673816776736,0.25201891272258914,9.875628912722588
660000000.0,22.09,0.0,0.0,0.0,0.33981837436058376,0.2617308128197081,9.871999187180291
665000000.0,22.09,0.0,0.0,0.0,0.33354,0.23857914833269148,9.84914186124952
670000000.0,22.09,0.0,0.0,0.0,0.3205907739721077,0.22563,9.865328452055785
675000000.0,22.09,0.0,0.0,0.0,0.31392,0.23838302622213026,9.885046513111064
680000000.0,22.09,0.0,0.0,0.0,0.31392,0.2640852396245524,9.850809520750895
685000000.0,22.09,0.0,0.0,0.0,0.31392,0.27468,9.860521566526515
690000000.0,22.09,0.0,0.0,0.0,0.31392,0.2564333597927336,9.866505573195155
695000000.0,22.09,0.0,0.0,0.0,0.3199041134995411,0.2512341134995411,9.85905
700000000.0,22.09,0.0,0.0,0.0,0.32373,0.25506,9.85905
705000000.0,22.09,0.0,0.0,0.0,0.32951791369377914,0.24348417261244173,9.870625827387558
710000000.0,22.09,0.0,0.0,0.0,0.33354,0.22975018620910187,9.890049627581796
715000000.0,22.09,0.0,0.0,0.0,0.33354,0.24799685555206855,9.875923144447931
720000000.0,22.09,0.0,0.0,0.0,0.33354,0.25937638601486385,9.875530841955408
725000000.0,22.09,0.0,0.0,0.0,0.33893551408225514,0.24966448591774487,9.872293457753234
730000000.0,22.09,0.0,0.0,0.0,0.34335,0.25054741417937415,9.864347414179374
735000000.0,22.09,0.0,0.0,0.0,0.34335,0.24986068572350686,9.86886
740000000.0,22.09,0.0,0.0,0.0,0.34335,0.2350475712527757,9.879062428747224
745000000.0,22.09,0.0,0.0,0.0,0.33334377105853774,0.2356362289414623,9.873470656587806
750000000.0,22.09,0.0,0.0,0.0,0.32373,0.24525,9.85414498543215
755000000.0,22.09,0.0,0.0,0.0,0.3381507439949074,0.25005691466496915,9.84443308533503
760000000.0,22.09,0.0,0.0,0.0,0.3437423704758237,0.25976881476208813,9.844138814762088
765000000.0,22.09,0.0,0.0,0.0,0.33354,0.26025928514079283,9.858461429718414
770000000.0,22.09,0.0,0.0,0.0,0.32000215513102154,0.24152215513102154,9.864347385043674
775000000.0,22.09,0.0,0.0,0.0,0.30852451505344514,0.23004451505344514,9.85905
780000000.0,22.09,0.0,0.0,0.0,0.31392,0.23975641515056414,9.854733584849436
785000000.0,22.09,0.0,0.0,0.0,0.3223566304953663,0.24525,9.857676630495366
790000000.0,22.09,0.0,0.0,0.0,0.3417804306896043,0.2534904306896043,9.864739784655198
795000000.0,22.09,0.0,0.0,0.0,0.34511576911615766,0.27693634632576347,9.867094230883842
800000000.0,22.09,0.0,0.0,0.0,0.3256919689219197,0.2786039378438394,9.88259401553904
805000000.0,22.09,0.0,0.0,0.0,0.31392,0.2474081687276817,9.873176337455362
810000000.0,22.09,0.0,0.0,0.0,0.31392,0.23544,9.856695631466556
815000000.0,22.09,0.0,0.0,0.0,0.3284388633215886,0.23181028416960284,9.872489715830397
820000000.0,22.09,0.0,0.0,0.0,0.34609676814496765,0.22209838407248383,9.875138384072484
825000000.0,22.09,0.0,0.0,0.0,0.33354,0.2329875801231758,9.87572703204927
830000000.0,22.09,0.0,0.0,0.0,0.33354,0.26820541612175414,9.891815416121753
835000000.0,22.09,0.0,0.0,0.0,0.33030268378112687,0.26820536756225366,9.885340735124506
840000000.0,22.09,0.0,0.0,0.0,0.32059078368400784,0.24878156736801568,9.852771567368016
845000000.0,22.09,0.0,0.0,0.0,0.31696111641311114,0.23544,9.842471116413112
850000000.0,22.09,0.0,0.0,0.0,0.32373,0.22955396697953967,9.84335396697954
855000000.0,22.09,0.0,0.0,0.0,0.33510966642939666,0.22150983321469833,9.835309833214698
860000000.0,22.09,0.0,0.0,0.0,0.35198273318212736,0.24093363340893634,9.854733633408935
865000000.0,22.09,0.0,0.0,0.0,0.3263787168015872,0.2656548672063487,9.87680615040476
870000000.0,22.09,0.0,0.0,0.0,0.33354,0.29174938310129384,9.895739383101294
875000000.0,22.09,0.0,0.0,0.0,0.32618244901252447,0.2795849660083497,9.88357496600835
880000000.0,22.09,0.0,0.0,0.0,0.30646441709294414,0.26016116581411164,9.864151165814112
885000000.0,22.09,0.0,0.0,0.0,0.31617631719006317,0.24525,9.846983682809936
890000000.0,22.09,0.0,0.0,0.0,0.3258882172871822,0.24956643457436434,9.845904651861547
895000000.0,22.09,0.0,0.0,0.0,0.3397203521529035,0.2628098826156988,9.86886
900000000.0,22.09,0.0,0.0,0.0,0.3590459650371597,0.25309798251857984,9.86886
905000000.0,22.09,0.0,0.0,0.0,0.34148608242146083,0.24711391757853918,9.874451752735617
910000000.0,22.09,0.0,0.0,0.0,0.32824254697302546,0.25152836464868367,9.892992546973025
915000000.0,22.09,0.0,0.0,0.0,0.30744543554555437,0.23377228222722282,9.865524564454445
920000000.0,22.09,0.0,0.0,0.0,0.32843885360968855,0.2334780893494809,9.853948853609689
925000000.0,22.09,0.0,0.0,0.0,0.3516884820329848,0.27468,9.877198482032984
930000000.0,22.09,0.0,0.0,0.0,0.33922974580759746,0.2733065819358658,9.867486581935866
935000000.0,22.09,0.0,0.0,0.0,0.3126446818387468,0.26231936367749364,9.857774681838746
940000000.0,22.09,0.0,0.0,0.0,0.3052872182583722,0.24525,9.850417218258372
945000000.0,22.09,0.0,0.0,0.0,0.31607823671098234,0.24093352657803527,9.864445591777455
950000000.0,22.09,0.0,0.0,0.0,0.33746407381044075,0.2109150922630509,9.905156944642169
955000000.0,22.09,0.0,0.0,0.0,0.36924832580108324,0.25594291854972917,9.876021244350811
960000000.0,22.09,0.0,0.0,0.0,0.3327551813531518,0.26487,9.850809637293697
965000000.0,22.09,0.0,0.0,0.0,0.32373,0.2634965625120656,9.86886
970000000.0,22.09,0.0,0.0,0.0,0.3243186188410862,0.24407276231782762,9.86886
975000000.0,22.09,0.0,0.0,0.0,0.3330494810617948,0.2261205189382052,9.86886
980000000.0,22.09,0.0,0.0,0.0,0.3241224190353242,0.23544,9.86886
985000000.0,22.09,0.0,0.0,0.0,0.3344229573973296,0.2360286382648864,9.869448638264886
990000000.0,22.09,0.0,0.0,0.0,0.3625775615408756,0.2546675615408756,9.88848
995000000.0,22.09,0.0,0.0,0.0,0.34295752269327523,0.23573435798004358,9.888185642019955
1000000000.0,22.09,0.0,0.0,0.0,0.3041099805761998,0.2648699805761998,9.8590500582714
1005000000.0,22.09,0.0,0.0,0.0,0.29439808047908084,0.25515808047908084,9.888185758562757
1010000000.0,22.09,0.0,0.0,0.0,0.31352763923607635,0.2262185411458854,9.859638541145886
1015000000.0,22.09,0.0,0.0,0.0,0.3234357197151572,0.2161142802848428,9.868565719715157
1020000000.0,22.09,0.0,0.0,0.0,0.32373,0.2346552396245524,9.850024760375447
1025000000.0,22.09,0.0,0.0,0.0,0.3423690398187904,0.2633985597281856,9.86787903981879
1030000000.0,22.09,0.0,0.0,0.0,0.3525714200065142,0.29253426001954264,9.859638579993486
1035000000.0,22.09,0.0,0.0,0.0,0.3257900396891004,0.2578067195854672,9.877296640207266
1040000000.0,22.09,0.0,0.0,0.0,0.3417804404015044,0.2370095595984956,9.869644779799248
1045000000.0,22.09,0.0,0.0,0.0,0.3344228797021288,0.2265128797021288,9.859932879702129
1050000000.0,22.09,0.0,0.0,0.0,0.3070529388150294,0.2079719592100196,9.867879020394989
1055000000.0,22.09,0.0,0.0,0.0,0.30411,0.24966460246054603,9.86886
1060000000.0,22.09,0.0,0.0,0.0,0.3386412823569128,0.27232564117845637,9.851594358821544
1065000000.0,22.09,0.0,0.0,0.0,0.3348152793136528,0.2661452793136528,9.866309441372694
1070000000.0,22.09,0.0,0.0,0.0,0.3588498623503986,0.2564333792165338,9.885733241566932
1075000000.0,22.09,0.0,0.0,0.0,0.3296159164776592,0.22170591647765917,9.88848
1080000000.0,22.09,0.0,0.0,0.0,0.32373,0.23230084195540843,9.871999158044591
1085000000.0,22.09,0.0,0.0,0.0,0.3074453578503536,0.2191553578503536,9.86886
1090000000.0,22.09,0.0,0.0,0.0,0.32824266351582665,0.24799688468776887,9.860815778828057
1095000000.0,22.09,0.0,0.0,0.0,0.3414861212690612,0.2709522425381224,9.874942242538122
1100000000.0,22.09,0.0,0.0,0.0,0.3355019786338198,0.27468,9.84727791453528
1105000000.0,22.09,0.0,0.0,0.0,0.33354,0.2204305497569055,9.885929528779794
1110000000.0,22.09,0.0,0.0,0.0,0.3182363568791636,0.22131364312083643,9.882986356879163
1115000000.0,22.09,0.0,0.0,0.0,0.30636627834246277,0.2180762783424628,9.886223721657537
1120000000.0,22.09,0.0,0.0,0.0,0.31902124350931244,0.24564248701862487,9.881024378245343
1125000000.0,22.09,0.0,0.0,0.0,0.33844504370355044,0.2918476092588761,9.8492399125929
1130000000.0,22.09,0.0,0.0,0.0,0.33609057805110576,0.29685057805110576,9.853948843897788
1135000000.0,22.09,0.0,0.0,0.0,0.3407013220460132,0.2584933897699339,9.844727355907974
1140000000.0,22.09,0.0,0.0,0.0,0.3221603335706033,0.19580744499807445,9.853556444286264
1145000000.0,22.09,0.0,0.0,0.0,0.3069548777597488,0.21140561120125612,9.886910488961004
1150000000.0,22.09,0.0,0.0,0.0,0.3109770223373702,0.23249702233737024,9.88455595532526
1155000000.0,22.09,0.0,0.0,0.0,0.34776461217244614,0.26928461217244615,9.865132155131022
1160000000.0,22.09,0.0,0.0,0.0,0.36297,0.29116082253160824,9.852379177468391
1165000000.0,22.09,0.0,0.0,0.0,0.3432518321138183,0.3008727226287272,9.862385445257454
1170000000.0,22.09,0.0,0.0,0.0,0.3270653772741538,0.2587876409190764,9.875334622725847
1175000000.0,22.09,0.0,0.0,0.0,0.2982239087081391,0.22268695435406954,9.872293477177035
1180000000.0,22.09,0.0,0.0,0.0,0.3221605375205054,0.20954157707991578,9.856303154159832
1185000000.0,22.09,0.0,0.0,0.0,0.33716967698279676,0.20601,9.861600646034406
1190000000.0,22.09,0.0,0.0,0.0,0.3517866693429667,0.2607500080289001,9.86886
1195000000.0,22.09,0.0,0.0,0.0,0.36297,0.2943,9.880828246422881
1200000000.0,22.09,0.0,0.0,0.0,0.3511979533828795,0.28841397669143976,9.87670795338288
1205000000.0,22.09,0.0,0.0,0.0,0.33177415318864156,0.24397453616024536,9.874647923405679
1210000000.0,22.09,0.0,0.0,0.0,0.31235035299440356,0.22150982350279824,9.87867
1215000000.0,22.09,0.0,0.0,0.0,0.3097017235999172,0.22003827640008278,9.873078276400083
1220000000.0,22.09,0.0,0.0,0.0,0.3358944947881449,0.23230087109110872,9.86886
1225000000.0,22.09,0.0,0.0,0.0,0.35316,0.266832095176621,9.874255523794154
1230000000.0,22.09,0.0,0.0,0.0,0.35316,0.2791925761087258,9.873372576108725
1235000000.0,22.09,0.0,0.0,0.0,0.33756202803482027,0.2642813520232135,9.874059323988392
1240000000.0,22.09,0.0,0.0,0.0,0.31862877591448774,0.24485755182897553,9.888872448171025
1245000000.0,22.09,0.0,0.0,0.0,0.2989106274521063,0.25044937254789373,9.883280627452105
1250000000.0,22.09,0.0,0.0,0.0,0.28449,0.25505995144049953,9.86886
1255000000.0,22.09,0.0,0.0,0.0,0.3085246218843462,0.24525,9.864053075623131
1260000000.0,22.09,0.0,0.0,0.0,0.33824882447398824,0.2546676489479765,9.849632351052023
1265000000.0,22.09,0.0,0.0,0.0,0.3479607245711072,0.2556485508577855,9.853262173713322
1270000000.0,22.09,0.0,0.0,0.0,0.33962212599532127,0.24073737533177375,9.86886
1275000000.0,22.09,0.0,0.0,0.0,0.3149009504693095,0.21778190093861902,9.87768904953069
1280000000.0,22.09,0.0,0.0,0.0,0.3127428497249285,0.20051642486246427,9.87984715027507
1285000000.0,22.09,0.0,0.0,0.0,0.32794832495958326,0.222883299838333,9.864641675040417
1290000000.0,22.09,0.0,0.0,0.0,0.32941977494329777,0.261730900226809,9.842569099773192
1295000000.0,22.09,0.0,0.0,0.0,0.32373,0.2764457496923575,9.827854250307643
1300000000.0,22.09,0.0,0.0,0.0,0.31980597474905975,0.26487,9.83943
1305000000.0,22.09,0.0,0.0,0.0,0.3215718506961185,0.2419144479116445,9.858559626740297
1310000000.0,22.09,0.0,0.0,0.0,0.33354,0.20601,9.884752174554821
1315000000.0,22.09,0.0,0.0,0.0,0.32265082337310824,0.22052890216918902,9.889559176626891
1320000000.0,22.09,0.0,0.0,0.0,0.318236502557665,0.24878162563941625,9.890441871802919
1325000000.0,22.09,0.0,0.0,0.0,0.34335,0.2619270514730705,9.862483525736534
1330000000.0,22.09,0.0,0.0,0.0,0.33667914833269147,0.27801542583365424,9.865524574166345
1335000000.0,22.09,0.0,0.0,0.0,0.32049267406922677,0.2747780222076802,9.852575348138453
1340000000.0,22.09,0.0,0.0,0.0,0.32333767808367675,0.24564232191632324,9.85198690411157
1345000000.0,22.09,0.0,0.0,0.0,0.34335,0.22258887387498874,9.88171112612501
1350000000.0,22.09,0.0,0.0,0.0,0.34629302622213026,0.2246490786663908,9.88848
1355000000.0,22.09,0.0,0.0,0.0,0.3503150736807507,0.25378477895774776,9.879945221042252
1360000000.0,22.09,0.0,0.0,0.0,0.34884365283273655,0.2719331735836317,9.856303173583632
1365000000.0,22.09,0.0,0.0,0.0,0.35502382045953823,0.26222127348651275,9.857186179540461
1370000000.0,22.09,0.0,0.0,0.0,0.3284387467787875,0.2474081201681812,9.87867
1375000000.0,22.09,0.0,0.0,0.0,0.31392,0.22563,9.871312419876825
1380000000.0,22.09,0.0,0.0,0.0,0.31627442680484424,0.23033885360968853,9.851594426804844
1385000000.0,22.09,0.0,0.0,0.0,0.32147367309803676,0.24750632690196328,9.85905
1390000000.0,22.09,0.0,0.0,0.0,0.3160782269990823,0.25506,9.861208226999082
1395000000.0,22.09,0.0,0.0,0.0,0.33197050838480513,0.2509397458075975,9.86886
1400000000.0,22.09,0.0,0.0,0.0,0.35512189122671894,0.23936405438664055,9.86689797280668
1405000000.0,22.09,0.0,0.0,0.0,0.3200021454191215,0.2606517818713178,9.866505709161757
1410000000.0,22.09,0.0,0.0,0.0,0.30411,0.2774266904497669,9.896524172612441
1415000000.0,22.09,0.0,0.0,0.0,0.30411,0.24525,9.88180909006129
1420000000.0,22.09,0.0,0.0,0.0,0.3056796275817963,0.24681962758179626,9.850809627581796
1425000000.0,22.09,0.0,0.0,0.0,0.31686305535783055,0.25064541696325415,9.863464583036746
1430000000.0,22.09,0.0,0.0,0.0,0.33354,0.22837685555206855,9.889853427776034
1435000000.0,22.09,0.0,0.0,0.0,0.33481532787315327,0.24525,9.894464016380539
1440000000.0,22.09,0.0,0.0,0.0,0.34217277202972773,0.24760445594054456,9.86886
1445000000.0,22.09,0.0,0.0,0.0,0.32922348773043486,0.26271174386521745,9.872097384202174
1450000000.0,22.09,0.0,0.0,0.0,0.2972430844935309,0.24721205632902055,9.894365887341959
1455000000.0,22.09,0.0,0.0,0.0,0.3246129282616293,0.26310414347674144,9.85905
1460000000.0,22.09,0.0,0.0,0.0,0.33354,0.24525,9.85905
1465000000.0,22.09,0.0,0.0,0.0,0.33422672845586726,0.2445632715441327,9.860423456911734
1470000000.0,22.09,0.0,0.0,0.0,0.34335,0.23544,9.878081371447013
1475000000.0,22.09,0.0,0.0,0.0,0.34335,0.2364210573002106,9.870331585950316
1480000000.0,22.09,0.0,0.0,0.0,0.34374242874722427,0.2546675712527757,9.897505142505551
1485000000.0,22.09,0.0,0.0,0.0,0.3522770134669701,0.24583865768868657,9.87778701346697
1490000000.0,22.09,0.0,0.0,0.0,0.3239262289414623,0.26408508423415084,9.84924
1495000000.0,22.09,0.0,0.0,0.0,0.33354,0.22612064519290645,9.849338129038582
1500000000.0,22.09,0.0,0.0,0.0,0.3335399708642997,0.2746798543214985,9.8590499708643
1505000000.0,22.09,0.0,0.0,0.0,0.32382807076718073,0.22612035383590354,9.84933807076718
1510000000.0,22.09,0.0,0.0,0.0,0.32373,0.2544714879898149,9.839626170670062
1515000000.0,22.09,0.0,0.0,0.0,0.3427614588541146,0.2455442705729427,9.887008647135286
1520000000.0,22.09,0.0,0.0,0.0,0.34335,0.2546676295241763,9.88848
1525000000.0,22.09,0.0,0.0,0.0,0.3153914111361141,0.2457404703787047,9.86984094075741
1530000000.0,22.09,0.0,0.0,0.0,0.3231414297184143,0.2544714297184143,9.86886
1535000000.0,22.09,0.0,0.0,0.0,0.32373,0.2733066596310666,9.850613340368934
1540000000.0,22.09,0.0,0.0,0.0,0.3056795401746954,0.26565477008734767,9.867290459825304
1545000000.0,22.09,0.0,0.0,0.0,0.3308913900293139,0.2559428699902287,9.86886
1550000000.0,22.09,0.0,0.0,0.0,0.31588193978621937,0.2374019397862194,9.86886
1555000000.0,22.09,0.0,0.0,0.0,0.3051890697959907,0.2005162791839628,9.886321860408017
1560000000.0,22.09,0.0,0.0,0.0,0.32137566060225664,0.24799698180676982,9.879847169698872
1565000000.0,22.09,0.0,0.0,0.0,0.3151952696017527,0.2721294607964946,9.887204730398247
1570000000.0,22.09,0.0,0.0,0.0,0.3307932609907326,0.27468,9.854733478018534
1575000000.0,22.09,0.0,0.0,0.0,0.33354,0.2580029388150294,9.84924
1580000000.0,22.09,0.0,0.0,0.0,0.3170591386207914,0.2468195693103957,9.865720861379208
1585000000.0,22.09,0.0,0.0,0.0,0.3057776692132767,0.22896533842655337,9.877002330786723
1590000000.0,22.09,0.0,0.0,0.0,0.32824269265152695,0.23367423088384232,9.87867
1595000000.0,22.09,0.0,0.0,0.0,0.3494322619619226,0.23544,9.862777738038076
1600000000.0,22.09,0.0,0.0,0.0,0.35316,0.25898409323424093,9.86689803107808
1605000000.0,22.09,0.0,0.0,0.0,0.35316,0.2881197935255979,9.86886
1610000000.0,22.09,0.0,0.0,0.0,0.3455081687276817,0.26369267491072673,9.876511831272317
1615000000.0,22.09,0.0,0.0,0.0,0.3282425372611254,0.23239880589168804,9.863562537261124
1620000000.0,22.09,0.0,0.0,0.0,0.32373,0.21071873706688737,9.873961262933113
1625000000.0,22.09,0.0,0.0,0.0,0.3384450631273506,0.2575127209457272,9.871312468436324
1630000000.0,22.09,0.0,0.0,0.0,0.3506094316607943,0.26016113667841134,9.86886
1635000000.0,22.09,0.0,0.0,0.0,0.33883733648417336,0.2622213317579133,9.883182663515827
1640000000.0,22.09,0.0,0.0,0.0,0.33354,0.2719332318550323,9.881416768144968
1645000000.0,22.09,0.0,0.0,0.0,0.3405051319521513,0.26074973609569735,9.885635131952151
1650000000.0,22.09,0.0,0.0,0.0,0.3090148397536484,0.23445890385218904,9.874745935901458
1655000000.0,22.09,0.0,0.0,0.0,0.3281446607319466,0.23239893214638932,9.895935728585556
1660000000.0,22.09,0.0,0.0,0.0,0.33000833551298336,0.23544,9.874745838782458
1665000000.0,22.09,0.0,0.0,0.0,0.33030273234062735,0.25515819702188197,9.85905
1670000000.0,22.09,0.0,0.0,0.0,0.3270653675622537,0.27781926487549263,9.85905
1675000000.0,22.09,0.0,0.0,0.0,0.33648306506973064,0.27173693493026935,9.846296934930269
1680000000.0,22.09,0.0,0.0,0.0,0.3370715673680157,0.2397562694720627,9.851986865263969
1685000000.0,22.09,0.0,0.0,0.0,0.34590066545820664,0.23181033272910334,9.865230332729103
1690000000.0,22.09,0.0,0.0,0.0,0.34707776717377764,0.22935776717377768,9.86886
1695000000.0,22.09,0.0,0.0,0.0,0.33138173415331734,0.243582398770024,9.862875867076658
1700000000.0,22.09,0.0,0.0,0.0,0.32961603302046033,0.2786041320818413,9.87082206604092
1705000000.0,22.09,0.0,0.0,0.0,0.3277520668824207,0.2711482675296827,9.87867
1710000000.0,22.09,0.0,0.0,0.0,0.32941983321469837,0.24937016678530166,9.867290333570603
1715000000.0,22.09,0.0,0.0,0.0,0.316764800064548,0.23406653337636532,9.864641733311817
1720000000.0,22.09,0.0,0.0,0.0,0.30411,0.21464273318212734,9.863366366591064
1725000000.0,22.09,0.0,0.0,0.0,0.30411,0.21140553350605534,9.86984106701211
1730000000.0,22.09,0.0,0.0,0.0,0.32529973441269733,0.24230716801587168,9.883967433603173
1735000000.0,22.09,0.0,0.0,0.0,0.34335,0.28566733480117334,9.878081332599413
1740000000.0,22.09,0.0,0.0,0.0,0.358653701392237,0.2939075324051753,9.873961233797411
1745000000.0,22.09,0.0,0.0,0.0,0.34276119663281196,0.254471196632812,9.863660598316406
1750000000.0,22.09,0.0,0.0,0.0,0.30901496600834966,0.21091489802504898,9.8590500679833
1755000000.0,22.09,0.0,0.0,0.0,0.30411,0.2058138681775387,9.86405306591123
1760000000.0,22.09,0.0,0.0,0.0,0.318236502557665,0.22994650255766502,9.85905
1765000000.0,22.09,0.0,0.0,0.0,0.34737220284902204,0.24525,9.863660734283007
1770000000.0,22.09,0.0,0.0,0.0,0.3584573656198736,0.27232580628075803,9.859834731239747
1775000000.0,22.09,0.0,0.0,0.0,0.33991639656826395,0.29086639656826396,9.853654534477245
1780000000.0,22.09,0.0,0.0,0.0,0.30646426170254265,0.27036356542563567,9.854733565425635
1785000000.0,22.09,0.0,0.0,0.0,0.29714500401445004,0.2479966613140666,9.853458334671483
1790000000.0,22.09,0.0,0.0,0.0,0.3221604695372047,0.22975023476860235,9.863170234768603
1795000000.0,22.09,0.0,0.0,0.0,0.33756213486572134,0.23946213486572135,9.864837865134279
1800000000.0,22.09,0.0,0.0,0.0,0.3472740349628403,0.2530980699256807,9.86689806992568
1805000000.0,22.09,0.0,0.0,0.0,0.3455081298800813,0.2610440649400407,9.87867
1810000000.0,22.09,0.0,0.0,0.0,0.3260843296858433,0.25133216484292165,9.882397835157079
1815000000.0,22.09,0.0,0.0,0.0,0.31754973525419733,0.24162026474580264,9.877590794237408
1820000000.0,22.09,0.0,0.0,0.0,0.32373,0.23190836464868364,9.85905
1825000000.0,22.09,0.0,0.0,0.0,0.33403060634530607,0.22906353544843536,9.862483535448435
1830000000.0,22.09,0.0,0.0,0.0,0.3464891289088913,0.24544630663666306,9.862189128908891
1835000000.0,22.09,0.0,0.0,0.0,0.33354,0.27134467128534673,9.862189342570693
1840000000.0,22.09,0.0,0.0,0.0,0.33040076426020765,0.28449,9.879062292780622
1845000000.0,22.09,0.0,0.0,0.0,0.32677113583691136,0.26016091330470914,9.871214543347644
1850000000.0,22.09,0.0,0.0,0.0,0.32471089219790894,0.2148391078020911,9.883574820329848
1855000000.0,22.09,0.0,0.0,0.0,0.3097998720622987,0.23259506396885066,9.860619744124596
1860000000.0,22.09,0.0,0.0,0.0,0.32098316387173165,0.2311236722565367,9.877492655486925
1865000000.0,22.09,0.0,0.0,0.0,0.31656873622538734,0.2531962086761621,9.851888736225387
1870000000.0,22.09,0.0,0.0,0.0,0.32373,0.27723063632250633,9.856499363677493
1875000000.0,22.09,0.0,0.0,0.0,0.32373,0.27713239074112395,9.851692536419625
1880000000.0,22.09,0.0,0.0,0.0,0.3190211269665113,0.24328781741627817,9.85905
1885000000.0,22.09,0.0,0.0,0.0,0.30862267322772674,0.21052267322772672,9.85905
1890000000.0,22.09,0.0,0.0,0.0,0.32157176328901765,0.2321047101329471,9.863366473421964
1895000000.0,22.09,0.0,0.0,0.0,0.31598013680810133,0.25712013680810136,9.876609863191899
1900000000.0,22.09,0.0,0.0,0.0,0.33550222143132225,0.2707561107156611,9.87082203690522
1905000000.0,22.09,0.0,0.0,0.0,0.37140637798596376,0.2905721259953213,9.87680606299766
1910000000.0,22.09,0.0,0.0,0.0,0.3254958370994584,0.26585081450270814,9.86886
1915000000.0,22.09,0.0,0.0,0.0,0.32353357682053574,0.2206267884102679,9.873863211589732
1920000000.0,22.09,0.0,0.0,0.0,0.2825281864684819,0.2024785491747855,9.89358108811891
1925000000.0,22.09,0.0,0.0,0.0,0.32667307478163077,0.23838307478163076,9.86886
1930000000.0,22.09,0.0,0.0,0.0,0.34335,0.25918031246380313,9.86886
1935000000.0,22.09,0.0,0.0,0.0,0.34335,0.28449,9.866309324829894
1940000000.0,22.09,0.0,0.0,0.0,0.3421727623178276,0.2809582869534829,9.852771713046517
1945000000.0,22.09,0.0,0.0,0.0,0.33246086222070864,0.25290172444141723,9.876511724441416
1950000000.0,22.09,0.0,0.0,0.0,0.32373,0.23544,9.86199311362923
1955000000.0,22.09,0.0,0.0,0.0,0.32549587594705875,0.23455706202647064,9.884065310132353
1960000000.0,22.09,0.0,0.0,0.0,0.34335,0.2287693522825935,9.840999676141298
1965000000.0,22.09,0.0,0.0,0.0,0.34335,0.26487,9.859736738167767
1970000000.0,22.09,0.0,0.0,0.0,0.3427613617351136,0.26545863826488636,9.86886
1975000000.0,22.09,0.0,0.0,0.0,0.3320683849139838,0.2732083849139838,9.86886
1980000000.0,22.09,0.0,0.0,0.0,0.3045024384591244,0.24446512308175122,9.86886
1985000000.0,22.09,0.0,0.0,0.0,0.31392,0.22563,9.86886
1990000000.0,22.09,0.0,0.0,0.0,0.31411623865336236,0.22661119326681192,9.868663761346637
1995000000.0,22.09,0.0,0.0,0.0,0.3239262775009628,0.2748762775009628,9.85905
2000000000.0,22.09,0.0,0.0,0.0,0.3433499611523996,0.2942998834571988,9.85905
2005000000.0,22.09,0.0,0.0,0.0,0.3336380610552806,0.26516418316584184,9.85905
2010000000.0,22.09,0.0,0.0,0.0,0.3143123219163232,0.2552561609581616,9.878277678083677
2015000000.0,22.09,0.0,0.0,0.0,0.3234357391389574,0.22651278258312782,9.907217217416871
2020000000.0,22.09,0.0,0.0,0.0,0.3143123607639236,0.2350476392360764,9.889264721527846
2025000000.0,22.09,0.0,0.0,0.0,0.3046004606668046,0.2540790786663908,9.879160460666805
2030000000.0,22.09,0.0,0.0,0.0,0.3133314394303144,0.2735028788606288,9.869448560569685
2035000000.0,22.09,0.0,0.0,0.0,0.359536697637167,0.27468,9.859736660472567
2040000000.0,22.09,0.0,0.0,0.0,0.3358942811263428,0.25662952075089523,9.840999520750895
2045000000.0,22.09,0.0,0.0,0.0,0.32461286027832864,0.23720572055665723,9.875138558886686
2050000000.0,22.09,0.0,0.0,0.0,0.3325590398187904,0.21778192036241922,9.88749903981879
2055000000.0,22.09,0.0,0.0,0.0,0.3422709399159094,0.2332818798318188,9.905941879831818
2060000000.0,22.09,0.0,0.0,0.0,0.3088186399478864,0.2440728400130284,9.890834319973942
2065000000.0,22.09,0.0,0.0,0.0,0.3382489604405896,0.24525,9.862875779669558
2070000000.0,22.09,0.0,0.0,0.0,0.3349133597927336,0.2621232804145328,9.867486640207266
2075000000.0,22.09,0.0,0.0,0.0,0.3418785403043854,0.2481929193912292,9.852182919391229
2080000000.0,22.09,0.0,0.0,0.0,0.3351095595984956,0.24525,9.857480440401504
2085000000.0,22.09,0.0,0.0,0.0,0.31725531900275317,0.2289653190027532,9.867192340498622
2090000000.0,22.09,0.0,0.0,0.0,0.3219642405957424,0.2417184811914848,9.892992721787227
2095000000.0,22.09,0.0,0.0,0.0,0.30783771861427717,0.2373038593071386,9.850613155842831
2100000000.0,22.09,0.0,0.0,0.0,0.3198060815799608,0.2589841223699412,9.870822163159922
2105000000.0,22.09,0.0,0.0,0.0,0.32373,0.2571200591129006,9.855420177338702
2110000000.0,22.09,0.0,0.0,0.0,0.3313818409842184,0.2627118409842184,9.856891840984218
2115000000.0,22.09,0.0,0.0,0.0,0.30332503567465036,0.2573162589186626,9.866603741081336
2120000000.0,22.09,0.0,0.0,0.0,0.3017556411784564,0.24014871764308718,9.861404358821543
2125000000.0,22.09,0.0,0.0,0.0,0.2967524587244246,0.2280824587244246,9.888480165102301
2130000000.0,22.09,0.0,0.0,0.0,0.3088188827453888,0.24014888274538881,9.861992793136528
2135000000.0,22.09,0.0,0.0,0.0,0.3354040244094402,0.2524113414698134,9.885046707349067
2140000000.0,22.09,0.0,0.0,0.0,0.3504132415669324,0.2762497247007973,9.855910550598406
2145000000.0,22.09,0.0,0.0,0.0,0.33922971667189716,0.25662943334379434,9.853360283328103
2150000000.0,22.09,0.0,0.0,0.0,0.31980591647765916,0.24525,9.85218295823883
2155000000.0,22.09,0.0,0.0,0.0,0.30038211628342115,0.22494317442513176,9.876315767433157
2160000000.0,22.09,0.0,0.0,0.0,0.3076416839108168,0.24250336782163368,9.868467474133775
2165000000.0,22.09,0.0,0.0,0.0,0.33363822615758226,0.24191451589494517,9.85905
2170000000.0,22.09,0.0,0.0,0.0,0.34335,0.24838928429929286,9.865524642149646
2175000000.0,22.09,0.0,0.0,0.0,0.3497265422467654,0.25506,9.86886
2180000000.0,22.09,0.0,0.0,0.0,0.3343246729683467,0.24250311531223118,9.862581557656116
2185000000.0,22.09,0.0,0.0,0.0,0.33609068488200683,0.24780068488200685,9.852869657558996
2190000000.0,22.09,0.0,0.0,0.0,0.3129387873093879,0.24289551492375516,9.867486727614367
2195000000.0,22.09,0.0,0.0,0.0,0.3122524279057243,0.24142414263524142,9.854733429459035
2200000000.0,22.09,0.0,0.0,0.0,0.34138812819708125,0.23347791453527914,9.868860213661803
2205000000.0,22.09,0.0,0.0,0.0,0.34158411434104113,0.23720588565895886,9.865328228682083
2210000000.0,22.09,0.0,0.0,0.0,0.3392298429265984,0.25662968585319684,9.860619685853196
2215000000.0,22.09,0.0,0.0,0.0,0.3377582569762826,0.25368651395256514,9.86886
2220000000.0,22.09,0.0,0.0,0.0,0.3170590706374907,0.24525,9.852379070637491
2225000000.0,22.09,0.0,0.0,0.0,0.31490108643591086,0.23985445678204456,9.866407716089777
2230000000.0,22.09,0.0,0.0,0.0,0.32902744331507444,0.22484511336985114,9.877885113369851
2235000000.0,22.09,0.0,0.0,0.0,0.3231413131756131,0.24181671706096716,9.86886
2240000000.0,22.09,0.0,0.0,0.0,0.32412248701862484,0.26487,9.863758756490688
2245000000.0,22.09,0.0,0.0,0.0,0.33354,0.26487,9.85905
2250000000.0,22.09,0.0,0.0,0.0,0.33354,0.24524982518579824,9.86395504370355
2255000000.0,22.09,0.0,0.0,0.0,0.33354,0.22563,9.86405305619933
2260000000.0,22.09,0.0,0.0,0.0,0.3288311561022116,0.2162123122044231,9.863758843897788
2265000000.0,22.09,0.0,0.0,0.0,0.3329514879898149,0.21062074399490743,9.882692231984722
2270000000.0,22.09,0.0,0.0,0.0,0.3568879322760793,0.23838322046013222,9.889264711815947
2275000000.0,22.09,0.0,0.0,0.0,0.36836545581085456,0.2736990883782909,9.86984091162171
2280000000.0,22.09,0.0,0.0,0.0,0.35002066714120667,0.28017355571373553,9.854733555713736
2285000000.0,22.09,0.0,0.0,0.0,0.3293216556166166,0.25358827808308276,9.84924
2290000000.0,22.09,0.0,0.0,0.0,0.31548951103899514,0.21326926655849268,9.857480488961004
2295000000.0,22.09,0.0,0.0,0.0,0.3121542891552429,0.20826643373286435,9.872882144577622
2300000000.0,22.09,0.0,0.0,0.0,0.3315780893494809,0.24132617869896178,9.870821910650518
2305000000.0,22.09,0.0,0.0,0.0,0.3510018895437189,0.26104405522814056,9.85905
2310000000.0,22.09,0.0,0.0,0.0,0.35924215513102153,0.2699713794759138,9.862777844868978
2315000000.0,22.09,0.0,0.0,0.0,0.3422707651017076,0.28341076510170765,9.872489744966098
2320000000.0,22.09,0.0,0.0,0.0,0.32019835493678356,0.24721177468391775,9.87867
2325000000.0,22.09,0.0,0.0,0.0,0.30361936451899363,0.21582,9.87867
2330000000.0,22.09,0.0,0.0,0.0,0.29449633577236334,0.22249089051490892,9.868663664227636
2335000000.0,22.09,0.0,0.0,0.0,0.3268693814182938,0.2483893814182938,9.862189381418293
2340000000.0,22.09,0.0,0.0,0.0,0.3500207545483075,0.2684015090966151,9.869644527289845
2345000000.0,22.09,0.0,0.0,0.0,0.33726770890237706,0.26114229109762294,9.85090801884168
2350000000.0,22.09,0.0,0.0,0.0,0.32667304564593047,0.26290781741627817,9.886517817416278
2355000000.0,22.09,0.0,0.0,0.0,0.33354,0.22690516277085163,9.85620505425695
2360000000.0,22.09,0.0,0.0,0.0,0.33354,0.20875684584016846,9.84924
2365000000.0,22.09,0.0,0.0,0.0,0.3388374918745749,0.2237662378118624,9.851888745937288
2370000000.0,22.09,0.0,0.0,0.0,0.34295741586237416,0.25545258413762584,9.861600646034406
2375000000.0,22.09,0.0,0.0,0.0,0.3237301845261018,0.28203745386847456,9.866407453868474
2380000000.0,22.09,0.0,0.0,0.0,0.3460966613140666,0.27232555377135553,9.86375889245729
2385000000.0,22.09,0.0,0.0,0.0,0.3304990389772904,0.26035730734847307,9.874157307348472
2390000000.0,22.09,0.0,0.0,0.0,0.3445270143084701,0.24093350715423506,9.865524739268647
2395000000.0,22.09,0.0,0.0,0.0,0.3180402930400029,0.23181043956000438,9.884359706959996
2400000000.0,22.09,0.0,0.0,0.0,0.33157795338287954,0.2511359067657591,9.86886
2405000000.0,22.09,0.0,0.0,0.0,0.327457893428479,0.24103184014271842,9.86886
2410000000.0,22.09,0.0,0.0,0.0,0.34158415318864155,0.26487,9.870625846811357
2415000000.0,22.09,0.0,0.0,0.0,0.3352077469084775,0.2665377469084775,9.87867
2420000000.0,22.09,0.0,0.0,0.0,0.3417803529944035,0.2636924709608247,9.880239647005595
2425000000.0,22.09,0.0,0.0,0.0,0.3291253586918536,0.20895309420543093,9.88848
2430000000.0,22.09,0.0,0.0,0.0,0.30685689439966896,0.22700344719983448,9.889853447199833
2435000000.0,22.09,0.0,0.0,0.0,0.32373,0.23926604189086043,9.895739305406092
2440000000.0,22.09,0.0,0.0,0.0,0.32373,0.26251550521185507,9.87867
2445000000.0,22.09,0.0,0.0,0.0,0.3248091474911915,0.24740829498238295,9.877590852508808
2450000000.0,22.09,0.0,0.0,0.0,0.33550209517662094,0.26290790482337906,9.86984104758831
2455000000.0,22.09,0.0,0.0,0.0,0.35051115694371154,0.24171820925828208,9.87867
2460000000.0,22.09,0.0,0.0,0.0,0.3260845433476455,0.20601,9.879454847782547
2465000000.0,22.09,0.0,0.0,0.0,0.35178650424066504,0.20875699151866992,9.887793252120332
2470000000.0,22.09,0.0,0.0,0.0,0.33177405606964055,0.24701594393035944,9.878081352023214
2475000000.0,22.09,0.0,0.0,0.0,0.3055816442217164,0.2756610961478109,9.86886
2480000000.0,22.09,0.0,0.0,0.0,0.33393244817102447,0.2927302073159021,9.868467551828974
2485000000.0,22.09,0.0,0.0,0.0,0.34276130346371303,0.2535882586592826,9.859638696536287
2490000000.0,22.09,0.0,0.0,0.0,0.32373,0.2062062483652625,9.878473751634736
2495000000.0,22.09,0.0,0.0,0.0,0.32373,0.2159181484623815,9.86886
2500000000.0,22.09,0.0,0.0,0.0,0.32372990288099907,0.22563019423800193,9.86886
2505000000.0,22.09,0.0,0.0,0.0,0.304306102686761,0.2644777946264779,9.86886
2510000000.0,22.09,0.0,0.0,0.0,0.36179309252243097,0.2744838487537385,9.849632302492523
2515000000.0,22.09,0.0,0.0,0.0,0.34393850229828504,0.255648502298285,9.877787246552572
2520000000.0,22.09,0.0,0.0,0.0,0.3339323510520235,0.22680705315607053,9.897505297895952
2525000000.0,22.09,0.0,0.0,0.0,0.314900901909809,0.19767135286471355,9.879650901909809
2530000000.0,22.09,0.0,0.0,0.0,0.3231414491422145,0.2054214491422145,9.860227101715571
2535000000.0,22.09,0.0,0.0,0.0,0.31460665076066646,0.278996793914668,9.849926650760667
2540000000.0,22.09,0.0,0.0,0.0,0.3229452493364525,0.25741425199064255,9.840214750663547
2545000000.0,22.09,0.0,0.0,0.0,0.35051144830071446,0.25506,9.83943
2550000000.0,22.09,0.0,0.0,0.0,0.3443309504693095,0.28154714859207153,9.883575247653452
2555000000.0,22.09,0.0,0.0,0.0,0.325888100744381,0.23210430223314302,9.87974905037219
2560000000.0,22.09,0.0,0.0,0.0,0.2978314508252145,0.1997314508252145,9.887302849724929
2565000000.0,22.09,0.0,0.0,0.0,0.27723050035590496,0.2559432487543325,9.897014749822047
2570000000.0,22.09,0.0,0.0,0.0,0.325299899514999,0.2733066499191665,9.839233450565835
2575000000.0,22.09,0.0,0.0,0.0,0.33354,0.258002899967429,9.84629710003257
2580000000.0,22.09,0.0,0.0,0.0,0.350020900226809,0.25506,9.873961350340213
2585000000.0,22.09,0.0,0.0,0.0,0.3287329493684295,0.23063294936842949,9.870527649789476
2590000000.0,22.09,0.0,0.0,0.0,0.2995972490770725,0.23367425030764252,9.876904250307643
2595000000.0,22.09,0.0,0.0,0.0,0.3022461504047615,0.23544,9.88661615040476
2600000000.0,22.09,0.0,0.0,0.0,0.319806101003761,0.25113610100376105,9.88848
2605000000.0,22.09,0.0,0.0,0.0,0.3314799505989995,0.270559901197999,9.872980098802001
2610000000.0,22.09,0.0,0.0,0.0,0.35649555208835554,0.26702814930388147,9.853556298607764
2615000000.0,22.09,0.0,0.0,0.0,0.31764749524057495,0.26487,9.84924
2620000000.0,22.09,0.0,0.0,0.0,0.2966543491096435,0.22013609465786094,9.856695650890357
2625000000.0,22.09,0.0,0.0,0.0,0.3016575509874755,0.22072510197495102,9.87376510197495
2630000000.0,22.09,0.0,0.0,0.0,0.3113694510845945,0.23288945108459452,9.87867
2635000000.0,22.09,0.0,0.0,0.0,0.34972675590856755,0.26408540472685404,9.885831351181713
2640000000.0,22.09,0.0,0.0,0.0,0.35590674872116745,0.27468,9.874353497442335
2645000000.0,22.09,0.0,0.0,0.0,0.3461948486240485,0.260749697248097,9.861894848624049
2650000000.0,22.09,0.0,0.0,0.0,0.30901474263464745,0.2619270514730705,9.86591705147307
2655000000.0,22.09,0.0,0.0,0.0,0.2943,0.2242562905788629,9.85532209685962
2660000000.0,22.09,0.0,0.0,0.0,0.31431255500192556,0.21268085166730852,9.862581703334618
2665000000.0,22.09,0.0,0.0,0.0,0.32373,0.22896550352885506,9.86886
2670000000.0,22.09,0.0,0.0,0.0,0.34315395558463957,0.2419146518615465,9.881809303723093
2675000000.0,22.09,0.0,0.0,0.0,0.3467834480413345,0.26437965587599654,9.882103448041335
2680000000.0,22.09,0.0,0.0,0.0,0.3182361917768619,0.28723690411156905,9.884948452055784
2685000000.0,22.09,0.0,0.0,0.0,0.3102903521529035,0.27575894354128944,9.857578239235483
2690000000.0,22.09,0.0,0.0,0.0,0.31392,0.24054099099990991,9.86375900900009
2695000000.0,22.09,0.0,0.0,0.0,0.3079358476528585,0.23161415234714153,9.860717542958575
2700000000.0,22.09,0.0,0.0,0.0,0.31588210488852103,0.2295539475557395,9.85512605244426
2705000000.0,22.09,0.0,0.0,0.0,0.3179420474586205,0.2661456677896567,9.87062590508276
2710000000.0,22.09,0.0,0.0,0.0,0.3196098526384985,0.2772304420845044,9.87867
2715000000.0,22.09,0.0,0.0,0.0,0.32373,0.26487,9.867486494528764
2720000000.0,22.09,0.0,0.0,0.0,0.32373,0.23740173583631735,9.864543652832737
2725000000.0,22.09,0.0,0.0,0.0,0.3291255529298555,0.21582,9.858068894140288
2730000000.0,22.09,0.0,0.0,0.0,0.33354,0.23700981210789812,9.85983490605395
2735000000.0,22.09,0.0,0.0,0.0,0.33873935312409353,0.26025935312409354,9.874059353124093
2740000000.0,22.09,0.0,0.0,0.0,0.34335,0.2597687467787875,9.868467493557574
2745000000.0,22.09,0.0,0.0,0.0,0.3383468466816685,0.2600631533183315,9.854046846681669
2750000000.0,22.09,0.0,0.0,0.0,0.3188248397536484,0.25505989316909894,9.859050106830901
2755000000.0,22.09,0.0,0.0,0.0,0.3137239070251391,0.24044304648743048,9.854439139462292
2760000000.0,22.09,0.0,0.0,0.0,0.31431229278062295,0.24485770721937708,9.853556560829066
2765000000.0,22.09,0.0,0.0,0.0,0.3179422611204226,0.23661698517276986,9.86886
2770000000.0,22.09,0.0,0.0,0.0,0.3290273461960735,0.24289592282355923,9.864347346196073
2775000000.0,22.09,0.0,0.0,0.0,0.3281445539010456,0.2702654460989544,9.850220892197909
2780000000.0,22.09,0.0,0.0,0.0,0.32922354600183545,0.26055354600183545,9.843746453998165
2785000000.0,22.09,0.0,0.0,0.0,0.3195116459047165,0.24662329180943293,9.857676708190567
2790000000.0,22.09,0.0,0.0,0.0,0.33040101676961015,0.23544,9.86886
2795000000.0,22.09,0.0,0.0,0.0,0.34109353713143536,0.23946215428952156,9.876904308579043
2800000000.0,22.09,0.0,0.0,0.0,0.32373,0.24917405438664053,9.880631891226718
2805000000.0,22.09,0.0,0.0,0.0,0.3160780910324809,0.25888595448375956,9.86886
2810000000.0,22.09,0.0,0.0,0.0,0.3115657091617571,0.26487,9.86886
2815000000.0,22.09,0.0,0.0,0.0,0.32010024532200243,0.2576104906440049,9.872489754677996
2820000000.0,22.09,0.0,0.0,0.0,0.32451496432534965,0.24171834522488345,9.882201654775116
2825000000.0,22.09,0.0,0.0,0.0,0.3364828902555289,0.24230710974447112,9.891913554872234
2830000000.0,22.09,0.0,0.0,0.0,0.3270654549693546,0.2483890900612909,9.888283635091936
2835000000.0,22.09,0.0,0.0,0.0,0.3400147101329471,0.2419147101329471,9.862385289867053
2840000000.0,22.09,0.0,0.0,0.0,0.3468814896728149,0.25819925516359254,9.855518510327185
2845000000.0,22.09,0.0,0.0,0.0,0.33354,0.26182884473928847,9.865818844739287
2850000000.0,22.09,0.0,0.0,0.0,0.32471083392650835,0.2580030553578306,9.86199305535783
2855000000.0,22.09,0.0,0.0,0.0,0.30695495545494955,0.2591800890901009,9.880239821819798
2860000000.0,22.09,0.0,0.0,0.0,0.3166668555520685,0.24525,9.897112577791725
2865000000.0,22.09,0.0,0.0,0.0,0.32637875564918756,0.24260124435081246,9.860913733052437
2870000000.0,22.09,0.0,0.0,0.0,0.33609065574630653,0.23544,9.841980655746307
2875000000.0,22.09,0.0,0.0,0.0,0.3408974441565744,0.23544,9.85414511168685
2880000000.0,22.09,0.0,0.0,0.0,0.33354,0.24485782376217824,9.871214455940544
2885000000.0,22.09,0.0,0.0,0.0,0.33354,0.2724236439623364,9.883182712075326
2890000000.0,22.09,0.0,0.0,0.0,0.32922348773043486,0.26487,9.891815231595652
2895000000.0,22.09,0.0,0.0,0.0,0.3180403124638031,0.26487,9.86886
2900000000.0,22.09,0.0,0.0,0.0,0.3276538310129383,0.2589838310129383,9.86689794367098
2905000000.0,22.09,0.0,0.0,0.0,0.3022460435738604,0.24289582570455825,9.86091395642614
2910000000.0,22.09,0.0,0.0,0.0,0.2995975695697757,0.2693824304302243,9.867094143476741
2915000000.0,22.09,0.0,0.0,0.0,0.32373,0.24358224337962242,9.857382243379622
2920000000.0,22.09,0.0,0.0,0.0,0.3221603432825034,0.23857931343499314,9.855518626869987
2925000000.0,22.09,0.0,0.0,0.0,0.31980622725846225,0.2565315568146156,9.887008443185383
2930000000.0,22.09,0.0,0.0,0.0,0.35041308617653083,0.26761691382346914,9.877296543088265
2935000000.0,22.09,0.0,0.0,0.0,0.33226464299114644,0.2768378579468786,9.86886
2940000000.0,22.09,0.0,0.0,0.0,0.32255274289402747,0.22445274289402742,9.867682742894027
2945000000.0,22.09,0.0,0.0,0.0,0.31392,0.22229494321854945,9.85905
2950000000.0,22.09,0.0,0.0,0.0,0.31490105730021056,0.27271788539957886,9.86003105730021
2955000000.0,22.09,0.0,0.0,0.0,0.32549591479465917,0.25417704260267043,9.870625914794658
2960000000.0,22.09,0.0,0.0,0.0,0.3425651425055514,0.24446514250555143,9.889264857494448
2965000000.0,22.09,0.0,0.0,0.0,0.33422675759156756,0.23681351518313518,9.894856212042162
2970000000.0,22.09,0.0,0.0,0.0,0.34217268462262684,0.2544713423113134,9.849828657688686
2975000000.0,22.09,0.0,0.0,0.0,0.32373,0.24623111557161115,9.85905
2980000000.0,22.09,0.0,0.0,0.0,0.3245149157658492,0.26487,9.85905
2985000000.0,22.09,0.0,0.0,0.0,0.3430556420199564,0.2645756420199564,9.859638715960086
2990000000.0,22.09,0.0,0.0,0.0,0.33334374192283744,0.2540787096141871,9.87867
2995000000.0,22.09,0.0,0.0,0.0,0.32373,0.20659894904568948,9.878277367302873
3000000000.0,22.09,0.0,0.0,0.0,0.3237301165428012,0.26486982518579827,9.839430174814202
3005000000.0,22.09,0.0,0.0,0.0,0.34315391673703916,0.23573412489444126,9.868565875105558
3010000000.0,22.09,0.0,0.0,0.0,0.32412228306872287,0.2738954338625543,9.86886
3015000000.0,22.09,0.0,0.0,0.0,0.34276151712551517,0.26516424143724243,9.878375758562758
3020000000.0,22.09,0.0,0.0,0.0,0.3339323413401234,0.26487,9.869252341340124
3025000000.0,22.09,0.0,0.0,0.0,0.33354,0.23691132372901325,9.86886
3030000000.0,22.09,0.0,0.0,0.0,0.30587562343765623,0.24466145885411458,9.859638541145886
3035000000.0,22.09,0.0,0.0,0.0,0.32235671790246717,0.2361266410487664,9.877296717902468
3040000000.0,22.09,0.0,0.0,0.0,0.33275525904835257,0.2534905180967052,9.84256896380659
3045000000.0,22.09,0.0,0.0,0.0,0.33354,0.23720568170905681,9.848357159145472
3050000000.0,22.09,0.0,0.0,0.0,0.3423690592425906,0.2619271777277718,9.85806905924259
3055000000.0,22.09,0.0,0.0,0.0,0.3346190406602904,0.27360095933970957,9.86778095933971
3060000000.0,22.09,0.0,0.0,0.0,0.29900856225268563,0.24014856225268563,9.851594281126342
3065000000.0,22.09,0.0,0.0,0.0,0.3113695190678952,0.2269052404660524,9.866309519067896
3070000000.0,22.09,0.0,0.0,0.0,0.31392,0.22563,9.86886
3075000000.0,22.09,0.0,0.0,0.0,0.3305971194563712,0.25898423891274236,9.860521440271814
3080000000.0,22.09,0.0,0.0,0.0,0.3417804598253046,0.2731104598253046,9.85905
3085000000.0,22.09,0.0,0.0,0.0,0.35149235992242356,0.2665376400775764,9.867192359922424
3090000000.0,22.09,0.0,0.0,0.0,0.3290272199413722,0.26487,9.852771479960914
3095000000.0,22.09,0.0,0.0,0.0,0.33962232023332317,0.23308535953335358,9.857186160116662
3100000000.0,22.09,0.0,0.0,0.0,0.3276538795724388,0.2177819397862194,9.86689806021378
3105000000.0,22.09,0.0,0.0,0.0,0.32373,0.2313199206217992,9.8611100396891
3110000000.0,22.09,0.0,0.0,0.0,0.3543374416320744,0.273699302040093,9.85905
3115000000.0,22.09,0.0,0.0,0.0,0.3327549579794496,0.2693824789897248,9.843942478989725
3120000000.0,22.09,0.0,0.0,0.0,0.3311856606022566,0.23504735759097356,9.846885660602256
3125000000.0,22.09,0.0,0.0,0.0,0.30410975720249755,0.22563,9.863955121398751
3130000000.0,22.09,0.0,0.0,0.0,0.3233378431859784,0.2183705392035054,9.876119460796493
3135000000.0,22.09,0.0,0.0,0.0,0.33354,0.23730408268084083,9.87867
3140000000.0,22.09,0.0,0.0,0.0,0.3264767390092674,0.2593765219814652,9.864543478018534
3145000000.0,22.09,0.0,0.0,0.0,0.3446254832635548,0.26487,9.872980322175703
3150000000.0,22.09,0.0,0.0,0.0,0.34629293881502937,0.26487,9.858068816445089
3155000000.0,22.09,0.0,0.0,0.0,0.3298120774358208,0.2581010387179104,9.86277792256418
3160000000.0,22.09,0.0,0.0,0.0,0.33707172275841724,0.21503483172474833,9.882201722758417
3165000000.0,22.09,0.0,0.0,0.0,0.3236317155710171,0.2027727614763276,9.875334477047344
3170000000.0,22.09,0.0,0.0,0.0,0.3203946615734466,0.2448579694406797,9.875334661573445
3175000000.0,22.09,0.0,0.0,0.0,0.3492362466822625,0.27762312334113126,9.872293438329434
3180000000.0,22.09,0.0,0.0,0.0,0.3441346146969462,0.28449,9.86886
3185000000.0,22.09,0.0,0.0,0.0,0.3273596381351964,0.27212927627039274,9.862679638135196
3190000000.0,22.09,0.0,0.0,0.0,0.3176477380380774,0.24662321411423216,9.846885476076155
3195000000.0,22.09,0.0,0.0,0.0,0.31392,0.21748751382287515,9.845414162059042
3200000000.0,22.09,0.0,0.0,0.0,0.31980606215616064,0.2295542486246425,9.861012124312321
3205000000.0,22.09,0.0,0.0,0.0,0.3295179622532796,0.2510379622532796,9.86886
3210000000.0,22.09,0.0,0.0,0.0,0.34491972470079724,0.2607498623503986,9.891619449401594
3215000000.0,22.09,0.0,0.0,0.0,0.34197647510496476,0.27046176244751763,9.891324712657447
3220000000.0,22.09,0.0,0.0,0.0,0.3280463374553634,0.26918633745536336,9.86218901236609
3225000000.0,22.09,0.0,0.0,0.0,0.31833443735824435,0.23249662414946623,9.876217813208777
3230000000.0,22.09,0.0,0.0,0.0,0.32981238821662384,0.20601,9.877100149044502
3235000000.0,22.09,0.0,0.0,0.0,0.33295127432801275,0.23720617701596175,9.85905
3240000000.0,22.09,0.0,0.0,0.0,0.3441350517324505,0.26997126293311263,9.853948737066887
3245000000.0,22.09,0.0,0.0,0.0,0.34796051090930513,0.2796831630302316,9.854243163030231
3250000000.0,22.09,0.0,0.0,0.0,0.33354,0.2648697474905975,9.8688601262547
3255000000.0,22.09,0.0,0.0,0.0,0.3191191103265911,0.25005696322446963,9.883476963224469
3260000000.0,22.09,0.0,0.0,0.0,0.30881886332158864,0.23151568339205683,9.88377113667841
3265000000.0,22.09,0.0,0.0,0.0,0.3185307634187076,0.20601,9.874059236581292
3270000000.0,22.09,0.0,0.0,0.0,0.32373,0.21954799054747992,9.86886
3275000000.0,22.09,0.0,0.0,0.0,0.3369736908388369,0.24426912722589128,9.860030872774109
3280000000.0,22.09,0.0,0.0,0.0,0.34884353628993536,0.26800939113019395,9.862189391130194
3285000000.0,22.09,0.0,0.0,0.0,0.33913163619281633,0.2760532723856327,9.87867
3290000000.0,22.09,0.0,0.0,0.0,0.32117920828709207,0.2566294721913947,9.87867
3295000000.0,22.09,0.0,0.0,0.0,0.2960656719971567,0.2331835079957351,9.87867
3300000000.0,22.09,0.0,0.0,0.0,0.29626219229562195,0.21189593590145936,9.88259406409854
3305000000.0,22.09,0.0,0.0,0.0,0.32157192839131926,0.2251398209782982,9.87700210741302
3310000000.0,22.09,0.0,0.0,0.0,0.33726786429277866,0.26624359287833593,9.85905
3315000000.0,22.09,0.0,0.0,0.0,0.3360904712202047,0.2699709424404094,9.866309528779794
3320000000.0,22.09,0.0,0.0,0.0,0.32726166448701666,0.24171833551298336,9.875138335512982
3325000000.0,22.09,0.0,0.0,0.0,0.3301064354158644,0.23544,9.872293564584135
3330000000.0,22.09,0.0,0.0,0.0,0.32706546468125464,0.22543360595623607,9.871999070637491
3335000000.0,22.09,0.0,0.0,0.0,0.33677736477837367,0.2189594591134946,9.862287364778373
3340000000.0,22.09,0.0,0.0,0.0,0.34335,0.2515285297509853,9.871999264875493
3345000000.0,22.09,0.0,0.0,0.0,0.34639116497261163,0.2739934949178349,9.872587670054777
3350000000.0,22.09,0.0,0.0,0.0,0.35316,0.2825277397210774,9.861993065069731
3355000000.0,22.09,0.0,0.0,0.0,0.34462510449945105,0.2493700696663007,9.86886
3360000000.0,22.09,0.0,0.0,0.0,0.3127425389441254,0.22719940420809404,9.877100595791905
3365000000.0,22.09,0.0,0.0,0.0,0.29508506144435065,0.20865876536108766,9.887694938555649
3370000000.0,22.09,0.0,0.0,0.0,0.32117933454179337,0.22602266183282663,9.86670199637462
3375000000.0,22.09,0.0,0.0,0.0,0.3237302622213026,0.262417696665977,9.881122303334022
3380000000.0,22.09,0.0,0.0,0.0,0.35551446565244466,0.28213553434755534,9.856695534347555
3385000000.0,22.09,0.0,0.0,0.0,0.3539445370017454,0.267910902751309,9.851496365749563
3390000000.0,22.09,0.0,0.0,0.0,0.32157173415331736,0.24093346830663467,9.85905
3395000000.0,22.09,0.0,0.0,0.0,0.3159801659438016,0.22356983405619835,9.861110165943801
3400000000.0,22.09,0.0,0.0,0.0,0.32569206604092066,0.21778206604092068,9.87082206604092
3405000000.0,22.09,0.0,0.0,0.0,0.3316760338619603,0.2349498306901983,9.87494206772392
3410000000.0,22.09,0.0,0.0,0.0,0.3272617324703173,0.27644586623515865,9.85905
3415000000.0,22.09,0.0,0.0,0.0,0.34001446733544466,0.2761511683386117,9.85905
3420000000.0,22.09,0.0,0.0,0.0,0.32373,0.23700966642939666,9.860619666429397
3425000000.0,22.09,0.0,0.0,0.0,0.31784373389393733,0.23936373389393734,9.86886
3430000000.0,22.09,0.0,0.0,0.0,0.28861039987090403,0.210130399870904,9.870233466623635
3435000000.0,22.09,0.0,0.0,0.0,0.31774610016226096,0.23926610016226102,9.879945366720753
3440000000.0,22.09,0.0,0.0,0.0,0.346881800453618,0.26487,9.88377093272851
3445000000.0,22.09,0.0,0.0,0.0,0.3684633323400333,0.26487,9.848160833085009
3450000000.0,22.09,0.0,0.0,0.0,0.33255893298788936,0.2609457319515573,9.842373201036333
3455000000.0,22.09,0.0,0.0,0.0,0.321081098672311,0.22474703289077033,9.86886
3460000000.0,22.09,0.0,0.0,0.0,0.296654601619046,0.2166048672063487,9.870429734412697
3465000000.0,22.09,0.0,0.0,0.0,0.32373,0.22906383651733836,9.885732930786128
3470000000.0,22.09,0.0,0.0,0.0,0.3266733370029334,0.27350266519882666,9.85100600220176
3475000000.0,22.09,0.0,0.0,0.0,0.37032716251147163,0.25604113499541137,9.878179432502295
3480000000.0,22.09,0.0,0.0,0.0,0.32451493518964936,0.27389506481035064,9.86886
3485000000.0,22.09,0.0,0.0,0.0,0.342466896924169,0.2547656323080563,9.86886
3490000000.0,22.09,0.0,0.0,0.0,0.3137237322109373,0.24466119663281197,9.86886
3495000000.0,22.09,0.0,0.0,0.0,0.3043063357723633,0.21601633577236337,9.868663664227636
3500000000.0,22.09,0.0,0.0,0.0,0.32372993201669936,0.23544020394990206,9.849240203949902
3505000000.0,22.09,0.0,0.0,0.0,0.3140180319195803,0.26457590424125904,9.878375904241258
3510000000.0,22.09,0.0,0.0,0.0,0.3523754727101547,0.2937116045326161,9.869056131822461
3515000000.0,22.09,0.0,0.0,0.0,0.324612695176027,0.2562369269013693,9.840312695176028
3520000000.0,22.09,0.0,0.0,0.0,0.3331476683717767,0.22680699488466993,9.858265336743553
3525000000.0,22.09,0.0,0.0,0.0,0.32422043153110436,0.2349495684688957,9.868369568468895
3530000000.0,22.09,0.0,0.0,0.0,0.3329514685660147,0.20777559430195594,9.878081468566014
3535000000.0,22.09,0.0,0.0,0.0,0.33354,0.24250347465253475,9.869546631336865
3540000000.0,22.09,0.0,0.0,0.0,0.32451473123974733,0.26330053752050536,9.859834731239747
3545000000.0,22.09,0.0,0.0,0.0,0.3148028311426283,0.28272433771474337,9.85905
3550000000.0,22.09,0.0,0.0,0.0,0.3227490689544907,0.25800279313652796,9.86787906895449
3555000000.0,22.09,0.0,0.0,0.0,0.3324609690516097,0.24632903094839032,9.87759096905161
3560000000.0,22.09,0.0,0.0,0.0,0.3162742617025426,0.2366171308512713,9.861404261702543
3565000000.0,22.09,0.0,0.0,0.0,0.31392,0.2269052307541523,9.867584769245848
3570000000.0,22.09,0.0,0.0,0.0,0.34766667737186674,0.25937667737186676,9.885733338685933
3575000000.0,22.09,0.0,0.0,0.0,0.34482143055991427,0.2565314305599143,9.855125722239658
3580000000.0,22.09,0.0,0.0,0.0,0.3351095304627953,0.27154093907440935,9.84924
3585000000.0,22.09,0.0,0.0,0.0,0.3416823696343237,0.2583952607313526,9.841097630365676
3590000000.0,22.09,0.0,0.0,0.0,0.34335,0.2470157302685573,9.863562809194327
3595000000.0,22.09,0.0,0.0,0.0,0.3115653206857532,0.24525,9.900644679314246
3600000000.0,22.09,0.0,0.0,0.0,0.32765420977704207,0.2374019300743193,9.861011580445915
3605000000.0,22.09,0.0,0.0,0.0,0.3180400599544006,0.2431899700227997,9.864739940045599
3610000000.0,22.09,0.0,0.0,0.0,0.3062681298800813,0.2605537402398374,9.861208129880081
3615000000.0,22.09,0.0,0.0,0.0,0.3343250808681508,0.2422086893488869,9.851496229782962
3620000000.0,22.09,0.0,0.0,0.0,0.35080567031415666,0.2578070109424701,9.84924
3625000000.0,22.09,0.0,0.0,0.0,0.34580242958872426,0.25015485917744856,9.878670281645103
3630000000.0,22.09,0.0,0.0,0.0,0.34335,0.23073105898321059,9.88848
3635000000.0,22.09,0.0,0.0,0.0,0.3505113706055137,0.24711411181654114,9.874157258788973
3640000000.0,22.09,0.0,0.0,0.0,0.31784364648683644,0.24093345859473458,9.861796729297367
3645000000.0,22.09,0.0,0.0,0.0,0.31804034159950345,0.23544,9.866015170799752
3650000000.0,22.09,0.0,0.0,0.0,0.3168629291031293,0.24917414179374142,9.855125858206259
3655000000.0,22.09,0.0,0.0,0.0,0.32068897099398974,0.22798411602404117,9.876315883975959
3660000000.0,22.09,0.0,0.0,0.0,0.3370717421822174,0.22916174218221744,9.861796515635564
3665000000.0,22.09,0.0,0.0,0.0,0.32363168643531687,0.24201277118822773,9.875531084752911
3670000000.0,22.09,0.0,0.0,0.0,0.3203946712853467,0.24525,9.88848
3675000000.0,22.09,0.0,0.0,0.0,0.32373,0.2580031427649314,9.869350285852603
3680000000.0,22.09,0.0,0.0,0.0,0.34884388591833887,0.26487,9.846493057040831
3685000000.0,22.09,0.0,0.0,0.0,0.35060925684659255,0.2525092568465926,9.864151486306815
3690000000.0,22.09,0.0,0.0,0.0,0.32510318497853186,0.24525,9.854340913304709
3695000000.0,22.09,0.0,0.0,0.0,0.3199041717709417,0.23328165645811655,9.863366687083767
3700000000.0,22.09,0.0,0.0,0.0,0.3178439281319393,0.23740214373612142,9.86689785626388
3705000000.0,22.09,0.0,0.0,0.0,0.3254959439303594,0.22788608410446085,9.882201887860719
3710000000.0,22.09,0.0,0.0,0.0,0.33354,0.23288961618689616,9.881220383813103
3715000000.0,22.09,0.0,0.0,0.0,0.33354,0.2508417721594177,9.874451772159418
3720000000.0,22.09,0.0,0.0,0.0,0.32804632774346326,0.25506,9.873176327743463
3725000000.0,22.09,0.0,0.0,0.0,0.3183344276463443,0.24966442764634428,9.86886
3730000000.0,22.09,0.0,0.0,0.0,0.3192174724507747,0.22935758264767583,9.85826505509845
3735000000.0,22.09,0.0,0.0,0.0,0.33412874509578744,0.21062062745210627,9.854439372547894
3740000000.0,22.09,0.0,0.0,0.0,0.3229449094199491,0.21111127264501273,9.864151272645012
3745000000.0,22.09,0.0,0.0,0.0,0.29910682725786825,0.2308295182263952,9.878866345484264
3750000000.0,22.09,0.0,0.0,0.0,0.3090152185177522,0.2599652185177522,9.88357492716075
3755000000.0,22.09,0.0,0.0,0.0,0.33334394587273947,0.26987302706363026,9.87386302706363
3760000000.0,22.09,0.0,0.0,0.0,0.3386411269665113,0.26487,9.873568873033488
3765000000.0,22.09,0.0,0.0,0.0,0.3289292268693923,0.25564845373878453,9.87867
3770000000.0,22.09,0.0,0.0,0.0,0.31921732677227327,0.24073732677227327,9.869644653544546
3775000000.0,22.09,0.0,0.0,0.0,0.3183345733248457,0.23102542667515427,9.863464573324846
3780000000.0,22.09,0.0,0.0,0.0,0.3323629468439295,0.24289589368785894,9.864543526578036
3785000000.0,22.09,0.0,0.0,0.0,0.3306948794427488,0.26487,9.854831626480916
3790000000.0,22.09,0.0,0.0,0.0,0.31804027361620274,0.2566294527675945,9.86572109446481
3795000000.0,22.09,0.0,0.0,0.0,0.32775217371332177,0.2573165211399652,9.880435652573356
3800000000.0,22.09,0.0,0.0,0.0,0.3217677785686778,0.2511355571373556,9.86493592618956
3805000000.0,22.09,0.0,0.0,0.0,0.30411,0.21199402609244028,9.86287597390756
3810000000.0,22.09,0.0,0.0,0.0,0.3115657480093575,0.21719362201403622,9.872587874004678
3815000000.0,22.09,0.0,0.0,0.0,0.32735977410179773,0.24995909640719097,9.867780677694606
3820000000.0,22.09,0.0,0.0,0.0,0.3441350225967502,0.27821167419891674,9.852771674198916
3825000000.0,22.09,0.0,0.0,0.0,0.34236855422378554,0.28449,9.85905
3830000000.0,22.09,0.0,0.0,0.0,0.30411,0.2678126280342263,9.85237905121369
3835000000.0,22.09,0.0,0.0,0.0,0.2976352510194525,0.22896525101945253,9.849142123470822
3840000000.0,22.09,0.0,0.0,0.0,0.297047098349571,0.21582,9.871999274587392
3845000000.0,22.09,0.0,0.0,0.0,0.3176476506309765,0.227984698738047,9.87867
3850000000.0,22.09,0.0,0.0,0.0,0.315882299126523,0.25211692521836926,9.87572692521837
3855000000.0,22.09,0.0,0.0,0.0,0.34050502512125025,0.2509399497574995,9.87170497487875
3860000000.0,22.09,0.0,0.0,0.0,0.34178062492760625,0.26487,9.884163749951737
3865000000.0,22.09,0.0,0.0,0.0,0.34972612463506125,0.25162612463506123,9.892992449854024
3870000000.0,22.09,0.0,0.0,0.0,0.3113693248298932,0.21582,9.886322025510319
3875000000.0,22.09,0.0,0.0,0.0,0.3090151505344515,0.22317772580167727,9.89583712366387
3880000000.0,22.09,0.0,0.0,0.0,0.32373,0.2499589507286895,9.856695524635656
3885000000.0,22.09,0.0,0.0,0.0,0.32598637546146375,0.2693827509229275,9.84924
3890000000.0,22.09,0.0,0.0,0.0,0.3313817244414172,0.28449,9.84924
3895000000.0,22.09,0.0,0.0,0.0,0.3196096486885965,0.27418912172149124,9.853360351311403
3900000000.0,22.09,0.0,0.0,0.0,0.3080341515056415,0.2315158484943585,9.872784151505641
3905000000.0,22.09,0.0,0.0,0.0,0.32373,0.2251398792496988,9.88475204830012
3910000000.0,22.09,0.0,0.0,0.0,0.32373,0.2595723721588237,9.86709412405294
3915000000.0,22.09,0.0,0.0,0.0,0.3270655520883555,0.2404433281325333,9.85905
3920000000.0,22.09,0.0,0.0,0.0,0.3417803238587032,0.26487,9.85905
3925000000.0,22.09,0.0,0.0,0.0,0.33501157623841576,0.26339842376158423,9.854635271284753
3930000000.0,22.09,0.0,0.0,0.0,0.3392295709933957,0.2509395709933957,9.835113905342139
3935000000.0,22.09,0.0,0.0,0.0,0.31136924713469244,0.22180387070203872,9.866309247134692
3940000000.0,22.09,0.0,0.0,0.0,0.3001863826488638,0.19973182958931832,9.856303659178636
3945000000.0,22.09,0.0,0.0,0.0,0.34442917662689176,0.22670917662689177,9.904862470119324
3950000000.0,22.09,0.0,0.0,0.0,0.35414107672401074,0.24034538362005384,9.876707846551978
3955000000.0,22.09,0.0,0.0,0.0,0.36120404635774045,0.28272404635774046,9.85816702317887
3960000000.0,22.09,0.0,0.0,0.0,0.34178024616350244,0.2625153692452537,9.851594630754747
3965000000.0,22.09,0.0,0.0,0.0,0.32304322298463223,0.23612677701536777,9.877296445969264
3970000000.0,22.09,0.0,0.0,0.0,0.31450867711248676,0.24407264577502646,9.85905
3975000000.0,22.09,0.0,0.0,0.0,0.3222582683711827,0.22661115441921154,9.860031154419211
3980000000.0,22.09,0.0,0.0,0.0,0.2958699092268991,0.24564247730672478,9.87788504538655
3985000000.0,22.09,0.0,0.0,0.0,0.33412875480768756,0.2559431322115313,9.85905
3990000000.0,22.09,0.0,0.0,0.0,0.35335627750096277,0.2839011674971117,9.858853722499036
3995000000.0,22.09,0.0,0.0,0.0,0.36287182240191823,0.2551581775980818,9.849436355196163
4000000000.0,22.09,0.0,0.0,0.0,0.3531599223047992,0.26486961152399613,9.868860077695201
4005000000.0,22.09,0.0,0.0,0.0,0.3434480222076802,0.21631011103840111,9.878571977792319
4010000000.0,22.09,0.0,0.0,0.0,0.32412224422112246,0.23504775577887757,9.87867
4015000000.0,22.09,0.0,0.0,0.0,0.30469844402688445,0.2925346679193467,9.87867
4020000000.0,22.09,0.0,0.0,0.0,0.31352767808367676,0.2472116095816161,9.888087678083677
4025000000.0,22.09,0.0,0.0,0.0,0.3605178909039789,0.2545695781807958,9.869840843638409
4030000000.0,22.09,0.0,0.0,0.0,0.33530556516625565,0.25506,9.86886
4035000000.0,22.09,0.0,0.0,0.0,0.3152932432499324,0.23681324324993244,9.896230135125101
4040000000.0,22.09,0.0,0.0,0.0,0.31392,0.22641472152784722,9.889264721527846
4045000000.0,22.09,0.0,0.0,0.0,0.3228471785692718,0.2345571785692718,9.88848
4050000000.0,22.09,0.0,0.0,0.0,0.34138815733278155,0.26192723599917234,9.835505528001656
4055000000.0,22.09,0.0,0.0,0.0,0.34335,0.27360097876350975,9.873274893817548
4060000000.0,22.09,0.0,0.0,0.0,0.3174513634181136,0.24014848455748486,9.852771363418114
4065000000.0,22.09,0.0,0.0,0.0,0.31392,0.22690522104225222,9.874844336873243
4070000000.0,22.09,0.0,0.0,0.0,0.2970466418902664,0.21719332094513322,9.861796641890265
4075000000.0,22.09,0.0,0.0,0.0,0.31931573745595737,0.2324971583039716,9.867388579151985
4080000000.0,22.09,0.0,0.0,0.0,0.3402109584982096,0.26840191699641913,9.893581437747313
4085000000.0,22.09,0.0,0.0,0.0,0.3677771380386714,0.2909647586924476,9.873862861961328
4090000000.0,22.09,0.0,0.0,0.0,0.3486471616699716,0.24603432333994324,9.860815720556657
4095000000.0,22.09,0.0,0.0,0.0,0.3354038204595382,0.2274938204595382,9.851103820459539
4100000000.0,22.09,0.0,0.0,0.0,0.3021476814496768,0.2334780796375808,9.880632318550322
4105000000.0,22.09,0.0,0.0,0.0,0.333049898673499,0.2431899797346998,9.8807300202653
4110000000.0,22.09,0.0,0.0,0.0,0.3280462403363624,0.2682056394954564,9.87867
4115000000.0,22.09,0.0,0.0,0.0,0.34639133978681336,0.3048951197157512,9.856008660213186
4120000000.0,22.09,0.0,0.0,0.0,0.3307929599218296,0.276641599869716,9.84924
4125000000.0,22.09,0.0,0.0,0.0,0.3310875801231758,0.26487,9.863955160246352
4130000000.0,22.09,0.0,0.0,0.0,0.33354,0.2576105197797052,9.88337896044059
4135000000.0,22.09,0.0,0.0,0.0,0.3192172393651724,0.2264144787303448,9.874157239365172
4140000000.0,22.09,0.0,0.0,0.0,0.31392,0.21582,9.882986560829066
4145000000.0,22.09,0.0,0.0,0.0,0.3278503610233036,0.22975036102330362,9.867584458465045
4150000000.0,22.09,0.0,0.0,0.0,0.3404070806087708,0.2629083224350832,9.85905
4155000000.0,22.09,0.0,0.0,0.0,0.35688796141177964,0.2679110192941102,9.87258796141178
4160000000.0,22.09,0.0,0.0,0.0,0.3362864767879648,0.25152823839398236,9.865328238393982
4165000000.0,22.09,0.0,0.0,0.0,0.3303027809001278,0.24525,9.872195561800256
4170000000.0,22.09,0.0,0.0,0.0,0.32059063800550636,0.23230063800550638,9.87867
4175000000.0,22.09,0.0,0.0,0.0,0.3202965810943658,0.2320065810943658,9.885046581094365
4180000000.0,22.09,0.0,0.0,0.0,0.33000848119148485,0.2542754435744544,9.88848
4185000000.0,22.09,0.0,0.0,0.0,0.35208114386581146,0.2586896187113962,9.851397712268376
4190000000.0,22.09,0.0,0.0,0.0,0.35688771861427715,0.2489777186142772,9.841784562771446
4195000000.0,22.09,0.0,0.0,0.0,0.3411916370343164,0.2392658185171582,9.873176725931367
4200000000.0,22.09,0.0,0.0,0.0,0.3276539184200392,0.24721216315992164,9.876707836840078
4205000000.0,22.09,0.0,0.0,0.0,0.3179420183229202,0.24927201832292017,9.88043596335416
4210000000.0,22.09,0.0,0.0,0.0,0.31392,0.2395601182258012,9.871410354677403
4215000000.0,22.09,0.0,0.0,0.0,0.3306953456139534,0.23544,9.853458218128683
4220000000.0,22.09,0.0,0.0,0.0,0.3378563180315632,0.2409336819684368,9.860227363936874
4225000000.0,22.09,0.0,0.0,0.0,0.3281444179344442,0.23445883586888835,9.874255582065555
4230000000.0,22.09,0.0,0.0,0.0,0.33432496432534964,0.22563,9.862777553511975
4235000000.0,22.09,0.0,0.0,0.0,0.34335,0.24122814677938148,9.854439382259793
4240000000.0,22.09,0.0,0.0,0.0,0.33824871764308717,0.23975615292926153,9.879455129427651
4245000000.0,22.09,0.0,0.0,0.0,0.32353363509193633,0.24063954736209547,9.888283635091936
4250000000.0,22.09,0.0,0.0,0.0,0.31392,0.25015491744884916,9.888480165102301
4255000000.0,22.09,0.0,0.0,0.0,0.32834094794480945,0.2596709479448095,9.89829
4260000000.0,22.09,0.0,0.0,0.0,0.3339322345092223,0.26997111725461115,9.870036703527667
4265000000.0,22.09,0.0,0.0,0.0,0.32373,0.25103765147247653,9.86248391421254
4270000000.0,22.09,0.0,0.0,0.0,0.33275536587925364,0.23995268293962682,9.87494195118112
4275000000.0,22.09,0.0,0.0,0.0,0.3301062508897625,0.22317708481627085,9.872293749110238
4280000000.0,22.09,0.0,0.0,0.0,0.31392,0.21778241566932416,9.884163516866135
4285000000.0,22.09,0.0,0.0,0.0,0.3181383832309838,0.24525,9.87867
4290000000.0,22.09,0.0,0.0,0.0,0.3360908499843085,0.24937028332810285,9.870429433343794
4295000000.0,22.09,0.0,0.0,0.0,0.3410934497243345,0.24701563314955635,9.867094366850443
4300000000.0,22.09,0.0,0.0,0.0,0.32373,0.23544,9.870821832955318
4305000000.0,22.09,0.0,0.0,0.0,0.32373,0.24309196723891968,9.87052795085838
4310000000.0,22.09,0.0,0.0,0.0,0.32373,0.25133211628342117,9.88475211628342
4315000000.0,22.09,0.0,0.0,0.0,0.3346193514410935,0.24162021618630217,9.875040216186301
4320000000.0,22.09,0.0,0.0,0.0,0.3460966321783663,0.23544,9.86886
4325000000.0,22.09,0.0,0.0,0.0,0.33354,0.23887358400793585,9.861992831984129
4330000000.0,22.09,0.0,0.0,0.0,0.33020451589494515,0.2519209682101097,9.85591096821011
4335000000.0,22.09,0.0,0.0,0.0,0.32373,0.26163261579782615,9.862385231595653
4340000000.0,22.09,0.0,0.0,0.0,0.3331478528978785,0.24564214710212148,9.84924
4345000000.0,22.09,0.0,0.0,0.0,0.3409952624143526,0.22867118439641185,9.855322368792823
4350000000.0,22.09,0.0,0.0,0.0,0.3109769155064691,0.23838308449353085,9.860030746519408
4355000000.0,22.09,0.0,0.0,0.0,0.30126501540935013,0.24240501540935017,9.84227498459065
4360000000.0,22.09,0.0,0.0,0.0,0.30803442343884424,0.23544,9.857480654063307
4365000000.0,22.09,0.0,0.0,0.0,0.3459987847848878,0.2407375695697757,9.873372430430225
4370000000.0,22.09,0.0,0.0,0.0,0.34805863023598627,0.2601613697640137,9.869252739528028
4375000000.0,22.09,0.0,0.0,0.0,0.32372966008349663,0.2697748300417483,9.883574490125245
4380000000.0,22.09,0.0,0.0,0.0,0.3037179403049794,0.24799654477126545,9.846493455228735
4385000000.0,22.09,0.0,0.0,0.0,0.33128361482663615,0.2346555406934554,9.871116385173364
4390000000.0,22.09,0.0,0.0,0.0,0.33020485581144854,0.2605534294590343,9.87867
4395000000.0,22.09,0.0,0.0,0.0,0.34903962926479626,0.24525,9.880730185367602
4400000000.0,22.09,0.0,0.0,0.0,0.3296158290705583,0.24328791453527915,9.886517914535279
4405000000.0,22.09,0.0,0.0,0.0,0.31578398556183984,0.24103195668551958,9.87680601443816
4410000000.0,22.09,0.0,0.0,0.0,0.3201982286820823,0.2613382286820823,9.872391771317917
4415000000.0,22.09,0.0,0.0,0.0,0.31244892878038927,0.24358221424392215,9.883476642731766
4420000000.0,22.09,0.0,0.0,0.0,0.35002062829360625,0.22916125658721256,9.862189371706394
4425000000.0,22.09,0.0,0.0,0.0,0.3305968280993683,0.2035579297515793,9.881613171900632
4430000000.0,22.09,0.0,0.0,0.0,0.3180404581423046,0.24662348604743486,9.895543027905129
4435000000.0,22.09,0.0,0.0,0.0,0.34335,0.25506,9.881220772289108
4440000000.0,22.09,0.0,0.0,0.0,0.34217271375832714,0.2574145724833457,9.89475814127498
4445000000.0,22.09,0.0,0.0,0.0,0.33246081366120817,0.27252162732241625,9.871018372677584
4450000000.0,22.09,0.0,0.0,0.0,0.32373,0.2540789135640891,9.886517827128177
4455000000.0,22.09,0.0,0.0,0.0,0.32284701346697015,0.24525,9.86886
4460000000.0,22.09,0.0,0.0,0.0,0.3154897732602977,0.24838954652059547,9.870429773260298
4465000000.0,22.09,0.0,0.0,0.0,0.33422678672726785,0.2824296398181964,9.886419639818197
4470000000.0,22.09,0.0,0.0,0.0,0.34276131317561315,0.25506,9.86081606047316
4475000000.0,22.09,0.0,0.0,0.0,0.3325588261569883,0.2540788261569883,9.887989413078493
4480000000.0,22.09,0.0,0.0,0.0,0.31470497403724973,0.23465502596275026,9.878277512981375
4485000000.0,22.09,0.0,0.0,0.0,0.33324561288425614,0.21640877423148774,9.86886
4490000000.0,22.09,0.0,0.0,0.0,0.32353371278713716,0.23602886163858863,9.86886
4495000000.0,22.09,0.0,0.0,0.0,0.3141163746199637,0.26496818730998184,9.868565438070053
4500000000.0,22.09,0.0,0.0,0.0,0.33354017481420173,0.2746799125928991,9.839430349628403
4505000000.0,22.09,0.0,0.0,0.0,0.35296397500843973,0.2649680124957801,9.878277950016878
4510000000.0,22.09,0.0,0.0,0.0,0.3243183371959834,0.26487,9.87867
4515000000.0,22.09,0.0,0.0,0.0,0.34276157539691576,0.20777527380925273,9.87867
4520000000.0,22.09,0.0,0.0,0.0,0.32451462440884626,0.2154276877955769,9.85041693661327
4525000000.0,22.09,0.0,0.0,0.0,0.3423691757853917,0.24377876367808762,9.89583793946348
4530000000.0,22.09,0.0,0.0,0.0,0.34335,0.2544714879898149,9.842961072061112
4535000000.0,22.09,0.0,0.0,0.0,0.31597983573919836,0.26418338808693387,9.857676776173868
4540000000.0,22.09,0.0,0.0,0.0,0.34099586455215863,0.24681942363189424,9.868075288184052
4545000000.0,22.09,0.0,0.0,0.0,0.32549562343765626,0.22739562343765624,9.877787188281172
4550000000.0,22.09,0.0,0.0,0.0,0.3325590883782909,0.2168009116217091,9.843353646486836
4555000000.0,22.09,0.0,0.0,0.0,0.3422709884754099,0.2682059308524593,9.85689197695082
4560000000.0,22.09,0.0,0.0,0.0,0.35198288857252885,0.24878133428241334,9.867682888572528
4565000000.0,22.09,0.0,0.0,0.0,0.32755563399105636,0.2537847886696479,9.860325211330352
4570000000.0,22.09,0.0,0.0,0.0,0.3321666887667669,0.25506,9.867486688766766
4575000000.0,22.09,0.0,0.0,0.0,0.3252014111361141,0.23838282227222823,9.86886
4580000000.0,22.09,0.0,0.0,0.0,0.29900853311698533,0.21895902207799023,9.901821955844019
4585000000.0,22.09,0.0,0.0,0.0,0.31872716717437166,0.2321047781162478,9.875530443767504
4590000000.0,22.09,0.0,0.0,0.0,0.3317742891552429,0.2515285783104858,9.852771421689514
4595000000.0,22.09,0.0,0.0,0.0,0.3573785677570857,0.2630061892523619,9.873078567757085
4600000000.0,22.09,0.0,0.0,0.0,0.34727382130103823,0.2491738213010382,9.839429553252595
4605000000.0,22.09,0.0,0.0,0.0,0.3356000105534001,0.23750001055340011,9.8606199577864
4610000000.0,22.09,0.0,0.0,0.0,0.3411918895437189,0.2277881104562811,9.87651188954372
4615000000.0,22.09,0.0,0.0,0.0,0.3131348414366484,0.2331837896408379,9.863562420718324
4620000000.0,22.09,0.0,0.0,0.0,0.3264770692138707,0.2428956897379569,9.873961379475913
4625000000.0,22.09,0.0,0.0,0.0,0.33354,0.2746803593403036,9.871312410164924
4630000000.0,22.09,0.0,0.0,0.0,0.33354,0.2772305100678051,9.85434102013561
4635000000.0,22.09,0.0,0.0,0.0,0.3478627800586278,0.27468,9.863562780058627
4640000000.0,22.09,0.0,0.0,0.0,0.3460967098735671,0.2393635493678355,9.890049870379299
4645000000.0,22.09,0.0,0.0,0.0,0.3154892391057924,0.21866480977644812,9.891324809776448
4650000000.0,22.09,0.0,0.0,0.0,0.3109770903206709,0.2501554516033545,9.874745819358658
4655000000.0,22.09,0.0,0.0,0.0,0.31392,0.2581010095822101,9.882397980835579
4660000000.0,22.09,0.0,0.0,0.0,0.3272617810298178,0.27507267154472675,9.875138218970182
4665000000.0,22.09,0.0,0.0,0.0,0.33354,0.2713444187759442,9.84256883755189
4670000000.0,22.09,0.0,0.0,0.0,0.30764123716341235,0.25192061858170617,9.849044072127441
4675000000.0,22.09,0.0,0.0,0.0,0.2943,0.21974363677493636,9.85905
4680000000.0,22.09,0.0,0.0,0.0,0.3068569818067698,0.2185669818067698,9.877885472710155
4685000000.0,22.09,0.0,0.0,0.0,0.3262807820010078,0.2318103910005039,9.876119217998992
4690000000.0,22.09,0.0,0.0,0.0,0.33962229109762293,0.2536868732928687,9.887106873292868
4695000000.0,22.09,0.0,0.0,0.0,0.33736580880525807,0.2708541911947419,9.880337426415775
4700000000.0,22.09,0.0,0.0,0.0,0.3453121825837218,0.28056609129186094,9.862973908708138
4705000000.0,22.09,0.0,0.0,0.0,0.33579602583306023,0.2671260258330603,9.870625982777959
4710000000.0,22.09,0.0,0.0,0.0,0.3180401085139011,0.23799032554170327,9.87867
4715000000.0,22.09,0.0,0.0,0.0,0.30832820841678205,0.23122179158321793,9.884261791583217
4720000000.0,22.09,0.0,0.0,0.0,0.3370721500820215,0.24093369168033693,9.88848
4725000000.0,22.09,0.0,0.0,0.0,0.35757440822254405,0.2722279588872796,9.877688816445088
4730000000.0,22.09,0.0,0.0,0.0,0.3425650162508502,0.27840752437627525,9.874157491874575
4735000000.0,22.09,0.0,0.0,0.0,0.3283406080283061,0.24407243211322432,9.873470608028306
4740000000.0,22.09,0.0,0.0,0.0,0.32883129206881295,0.24603516827525168,9.86886
4745000000.0,22.09,0.0,0.0,0.0,0.3385431921659319,0.25486361566813615,9.86886
4750000000.0,22.09,0.0,0.0,0.0,0.3286347232108472,0.24034490773694908,9.849239630947796
4755000000.0,22.09,0.0,0.0,0.0,0.31872699236016994,0.24986097708050978,9.84884796944068
4760000000.0,22.09,0.0,0.0,0.0,0.3284388924572889,0.2601611075427111,9.86415110754271
4765000000.0,22.09,0.0,0.0,0.0,0.3243184148911841,0.25044920744559207,9.85905
4770000000.0,22.09,0.0,0.0,0.0,0.3184326926515269,0.23171192204541924,9.868075385303053
4775000000.0,22.09,0.0,0.0,0.0,0.31931540725135404,0.22464918549729188,9.874255407251354
4780000000.0,22.09,0.0,0.0,0.0,0.32255298569152985,0.23975649284576495,9.855910521462706
4785000000.0,22.09,0.0,0.0,0.0,0.32510321411423215,0.24946839294288392,9.856303571771535
4790000000.0,22.09,0.0,0.0,0.0,0.31392,0.25506,9.866309120879992
4795000000.0,22.09,0.0,0.0,0.0,0.32196438627424384,0.2429934205886342,9.845217806862879
4800000000.0,22.09,0.0,0.0,0.0,0.33354,0.22563,9.859050466171205
4805000000.0,22.09,0.0,0.0,0.0,0.3297140066686401,0.22180400666864006,9.87700202000592
4810000000.0,22.09,0.0,0.0,0.0,0.32373,0.21954789342847894,9.862777893428479
4815000000.0,22.09,0.0,0.0,0.0,0.32010020647440207,0.24014917410239173,9.88337917410239
4820000000.0,22.09,0.0,0.0,0.0,0.31392,0.26487,9.893973225509132
4825000000.0,22.09,0.0,0.0,0.0,0.3173535937198359,0.26487,9.86886
4830000000.0,22.09,0.0,0.0,0.0,0.32706549381695493,0.24485703709827036,9.86886
4835000000.0,22.09,0.0,0.0,0.0,0.33030260608592604,0.20924739391407393,9.875334787828148
4840000000.0,22.09,0.0,0.0,0.0,0.32059070598880707,0.22523788203357883,9.882201411977613
4845000000.0,22.09,0.0,0.0,0.0,0.3230435823249358,0.2513323882166239,9.871901194108311
4850000000.0,22.09,0.0,0.0,0.0,0.33746381158913813,0.26487,9.875726905794568
4855000000.0,22.09,0.0,0.0,0.0,0.32088500569745004,0.2563350170923502,9.8745499886051
4860000000.0,22.09,0.0,0.0,0.0,0.3249075775986758,0.23269310560033107,9.88848
4865000000.0,22.09,0.0,0.0,0.0,0.34521361650963617,0.23092758899357588,9.883182411006423
4870000000.0,22.09,0.0,0.0,0.0,0.32373,0.23759791621827916,9.866309305406093
4875000000.0,22.09,0.0,0.0,0.0,0.32373,0.2207251893820519,9.861502594691025
4880000000.0,22.09,0.0,0.0,0.0,0.33079348436443484,0.24250348436443486,9.871214494788145
4885000000.0,22.09,0.0,0.0,0.0,0.350903605114736,0.262613605114736,9.880926394885263
4890000000.0,22.09,0.0,0.0,0.0,0.34550829498238295,0.25721829498238297,9.886321705017616
4895000000.0,22.09,0.0,0.0,0.0,0.3490396098409961,0.26280980492049805,9.882790390159004
4900000000.0,22.09,0.0,0.0,0.0,0.32765371447013714,0.24917371447013714,9.90025209517662
4905000000.0,22.09,0.0,0.0,0.0,0.30411,0.2293579905474799,9.900644018905039
4910000000.0,22.09,0.0,0.0,0.0,0.31293947685429474,0.24701589537085894,9.86709410462914
4915000000.0,22.09,0.0,0.0,0.0,0.35482779546797794,0.2517244090640441,9.862385590935956
4920000000.0,22.09,0.0,0.0,0.0,0.3566912177396122,0.24014908669529086,9.873960913304709
4925000000.0,22.09,0.0,0.0,0.0,0.32373,0.2589836173511362,9.850711595662215
4930000000.0,22.09,0.0,0.0,0.0,0.32510349575933495,0.22700349575933496,9.86179699151867
4935000000.0,22.09,0.0,0.0,0.0,0.32843841657418416,0.23416460414354606,9.87867
4940000000.0,22.09,0.0,0.0,0.0,0.3001864797678648,0.23033918381429183,9.87867
4945000000.0,22.09,0.0,0.0,0.0,0.34335,0.26594919605069195,9.877590803949309
4950000000.0,22.09,0.0,0.0,0.0,0.33942561540875615,0.2756610961478109,9.867878903852189
4955000000.0,22.09,0.0,0.0,0.0,0.3049929962449299,0.27919202253042025,9.85728400751014
4960000000.0,22.09,0.0,0.0,0.0,0.31392,0.22719979268409793,9.840999792684098
4965000000.0,22.09,0.0,0.0,0.0,0.31666718575667185,0.24456320356083203,9.859736796439169
4970000000.0,22.09,0.0,0.0,0.0,0.35316,0.23485130346371305,9.86886
4975000000.0,22.09,0.0,0.0,0.0,0.352178806733188,0.2285735798004358,9.868369403366593
4980000000.0,22.09,0.0,0.0,0.0,0.3323625098084251,0.284097503269475,9.858657503269475
4985000000.0,22.09,0.0,0.0,0.0,0.3046987936552879,0.27468,9.84924
4990000000.0,22.09,0.0,0.0,0.0,0.32373,0.27409110922571106,9.849436296924763
4995000000.0,22.09,0.0,0.0,0.0,0.32363180297811805,0.24495540893435408,9.858951802978117
5000000000.0,22.09,0.0,0.0,0.0,0.31392009711900093,0.21581990288099903,9.849240194238002
5005000000.0,22.09,0.0,0.0,0.0,0.32363199721612,0.20610800278388003,9.86866399443224
5010000000.0,22.09,0.0,0.0,0.0,0.314116102686761,0.22523779462647794,9.878473897313238
5015000000.0,22.09,0.0,0.0,0.0,0.3519831896414319,0.2636931896414319,9.869154202589641
5020000000.0,22.09,0.0,0.0,0.0,0.35316,0.28370539501495395,9.878277697507476
5025000000.0,22.09,0.0,0.0,0.0,0.33452080479080804,0.265850804790808,9.860030804790808
5030000000.0,22.09,0.0,0.0,0.0,0.30587550689485504,0.24642700459657005,9.849828502298285
5035000000.0,22.09,0.0,0.0,0.0,0.30411,0.23612660220116602,9.84924
5040000000.0,22.09,0.0,0.0,0.0,0.295084702104047,0.23544,9.858265297895953
5045000000.0,22.09,0.0,0.0,0.0,0.30322719799307196,0.25329439598614395,9.867977197993072
5050000000.0,22.09,0.0,0.0,0.0,0.31293909809019094,0.25506,9.86003090190981
5055000000.0,22.09,0.0,0.0,0.0,0.32265099818731,0.25506,9.86778099818731
5060000000.0,22.09,0.0,0.0,0.0,0.35826159313771594,0.24642710171557103,9.860227101715571
5065000000.0,22.09,0.0,0.0,0.0,0.3288308064738081,0.23671520161845203,9.884654395144644
5070000000.0,22.09,0.0,0.0,0.0,0.332166698478667,0.24387669847866697,9.863169904563998
5075000000.0,22.09,0.0,0.0,0.0,0.34187859857578595,0.261927197151572,9.825695605696856
5080000000.0,22.09,0.0,0.0,0.0,0.34335,0.24014850398128504,9.844531496018716
5085000000.0,22.09,0.0,0.0,0.0,0.351492398770024,0.251724797540048,9.873667196310072
5090000000.0,22.09,0.0,0.0,0.0,0.320982804531428,0.23897140226571403,9.87867
5095000000.0,22.09,0.0,0.0,0.0,0.31392,0.25133239792852397,9.87867
5100000000.0,22.09,0.0,0.0,0.0,0.31392,0.25506,9.87867
5105000000.0,22.09,0.0,0.0,0.0,0.329419998317,0.239560001683,9.87867
5110000000.0,22.09,0.0,0.0,0.0,0.33354,0.250743798511238,9.886321899255618
5115000000.0,22.09,0.0,0.0,0.0,0.34864759870547596,0.25506,9.858264802589048
5120000000.0,22.09,0.0,0.0,0.0,0.35316,0.247604300550143,9.841784300550144
5125000000.0,22.09,0.0,0.0,0.0,0.33108720135907205,0.237892400453024,9.854145199093953
5130000000.0,22.09,0.0,0.0,0.0,0.316470500355905,0.22092100071181,9.87356899928819
5135000000.0,22.09,0.0,0.0,0.0,0.321081399741214,0.230142799482428,9.87867
5140000000.0,22.09,0.0,0.0,0.0,0.309603400323334,0.270756499191665,9.885733299838332
5145000000.0,22.09,0.0,0.0,0.0,0.297144800064548,0.277524800064548,9.895445199935452
5150000000.0,22.09,0.0,0.0,0.0,0.314901300097713,0.254078699902287,9.870821599869716
5155000000.0,22.09,0.0,0.0,0.0,0.32373,0.23848099987031002,9.85905
5160000000.0,22.09,0.0,0.0,0.0,0.343742700680427,0.208756399092764,9.865720900226808
5165000000.0,22.09,0.0,0.0,0.0,0.35316,0.22249120129571204,9.875432800323928
5170000000.0,22.09,0.0,0.0,0.0,0.35316,0.254864101263141,9.859245898736859
5175000000.0,22.09,0.0,0.0,0.0,0.33403019844550197,0.245740198445502,9.84924
5180000000.0,22.09,0.0,0.0,0.0,0.32373,0.23544,9.88691100369171
5185000000.0,22.09,0.0,0.0,0.0,0.32373,0.241620400712404,9.89573919857519
5190000000.0,22.09,0.0,0.0,0.0,0.311565398380954,0.24525,9.876315398380953
5195000000.0,22.09,0.0,0.0,0.0,0.316078401813284,0.24525,9.86886
5200000000.0,22.09,0.0,0.0,0.0,0.32373,0.23347779799247798,9.86886
5205000000.0,22.09,0.0,0.0,0.0,0.32373,0.23141800110088,9.86307199889912
5210000000.0,22.09,0.0,0.0,0.0,0.340799703593997,0.23544,9.870429802395998
5215000000.0,22.09,0.0,0.0,0.0,0.347568198704882,0.23544,9.867486397409763
5220000000.0,22.09,0.0,0.0,0.0,0.337856298607763,0.24642740278447403,9.85905
5225000000.0,22.09,0.0,0.0,0.0,0.33354,0.24426879702128798,9.864445601489356
5230000000.0,22.09,0.0,0.0,0.0,0.31234999365409993,0.24073750158647503,9.863562498413526
5235000000.0,22.09,0.0,0.0,0.0,0.299499401683594,0.25044940168359403,9.853850598316406
5240000000.0,22.09,0.0,0.0,0.0,0.30411,0.25506,9.84924
5245000000.0,22.09,0.0,0.0,0.0,0.31911960563349606,0.24005039436650394,9.87425600938916
5250000000.0,22.09,0.0,0.0,0.0,0.33844510197495103,0.24034530592485306,9.868859388150293
5255000000.0,22.09,0.0,0.0,0.0,0.33854299792792997,0.24544599585585997,9.84904400414414
5260000000.0,22.09,0.0,0.0,0.0,0.338248902169189,0.24956670650756707,9.882594510845944
5265000000.0,22.09,0.0,0.0,0.0,0.32951759320107593,0.269480802266308,9.894267593201075
5270000000.0,22.09,0.0,0.0,0.0,0.31392,0.270167297636573,9.874157297636573
5275000000.0,22.09,0.0,0.0,0.0,0.32274920492109205,0.26487,9.860030795078908
5280000000.0,22.09,0.0,0.0,0.0,0.32490699488466995,0.23897098465400984,9.85787300511533
5285000000.0,22.09,0.0,0.0,0.0,0.31392,0.21022840265478404,9.86886
5290000000.0,22.09,0.0,0.0,0.0,0.32628090825570905,0.21994030275190304,9.872980302751902
5295000000.0,22.09,0.0,0.0,0.0,0.3554166085470661,0.2376966085470661,9.882692202849022
5300000000.0,22.09,0.0,0.0,0.0,0.3570835882154359,0.25506,9.880631794107718
5305000000.0,22.09,0.0,0.0,0.0,0.34119200608652006,0.25506,9.87268600304326
5310000000.0,22.09,0.0,0.0,0.0,0.34943209685962096,0.258787903140379,9.886125806280758
5315000000.0,22.09,0.0,0.0,0.0,0.3360903935250039,0.2539805902875059,9.891030393525003
5320000000.0,22.09,0.0,0.0,0.0,0.3131348899961489,0.23544,9.868074889996148
5325000000.0,22.09,0.0,0.0,0.0,0.31146801715868017,0.24230720686347207,9.862974413726944
5330000000.0,22.09,0.0,0.0,0.0,0.34001449647114496,0.24838899294228994,9.878473489413434
5335000000.0,22.09,0.0,0.0,0.0,0.330302596374026,0.2451522108779221,9.855812596374026
5340000000.0,22.09,0.0,0.0,0.0,0.32373,0.25231278510762783,9.864936518615465
5345000000.0,22.09,0.0,0.0,0.0,0.32068879617978796,0.22258879617978797,9.892207592359576
5350000000.0,22.09,0.0,0.0,0.0,0.3227493117519931,0.22759241566932417,9.866897584330676
5355000000.0,22.09,0.0,0.0,0.0,0.34619500401445,0.25221499598555,9.84796501204335
5360000000.0,22.09,0.0,0.0,0.0,0.3421723835537238,0.24525,9.863366191776862
5365000000.0,22.09,0.0,0.0,0.0,0.31127119579131196,0.24260119579131195,9.854537608417376
5370000000.0,22.09,0.0,0.0,0.0,0.30921140861161406,0.23288929569419298,9.86886
5375000000.0,22.09,0.0,0.0,0.0,0.3188247911941479,0.2305352088058521,9.86886
5380000000.0,22.09,0.0,0.0,0.0,0.3111735135001351,0.24054099099990991,9.866505495499954
5385000000.0,22.09,0.0,0.0,0.0,0.33579640459716403,0.23014280919432809,9.865819213791491
5390000000.0,22.09,0.0,0.0,0.0,0.34982491408284916,0.24740830469428304,9.890638304694283
5395000000.0,22.09,0.0,0.0,0.0,0.3624789760429898,0.2571202047914021,9.896229795208598
5400000000.0,22.09,0.0,0.0,0.0,0.32176789511147896,0.26487,9.884555790222958
5405000000.0,22.09,0.0,0.0,0.0,0.3101919900287199,0.2611419900287199,9.86886
5410000000.0,22.09,0.0,0.0,0.0,0.29959771524827716,0.24348409491724093,9.874157715248277
5415000000.0,22.09,0.0,0.0,0.0,0.32539780517987804,0.23544,9.894954389640244
5420000000.0,22.09,0.0,0.0,0.0,0.33354,0.23700970527699705,9.87867
5425000000.0,22.09,0.0,0.0,0.0,0.33354,0.2481932107482321,9.875726789251768
5430000000.0,22.09,0.0,0.0,0.0,0.32941948358629486,0.26349649452876495,9.857676494528764
5435000000.0,22.09,0.0,0.0,0.0,0.3092116222734162,0.25633540556835405,9.851790811136707
5440000000.0,22.09,0.0,0.0,0.0,0.3457046113309461,0.2625153886690539,9.86886
5445000000.0,22.09,0.0,0.0,0.0,0.36081158847481587,0.24309158847481588,9.867780794237408
5450000000.0,22.09,0.0,0.0,0.0,0.3404066824208668,0.22759221171942212,9.862974423438844
5455000000.0,22.09,0.0,0.0,0.0,0.3121539880863399,0.24701601191366013,9.894757976172679
5460000000.0,22.09,0.0,0.0,0.0,0.2966547181618472,0.26487,9.860619812107897
5465000000.0,22.09,0.0,0.0,0.0,0.3244168061510681,0.2641831938489319,9.87867
5470000000.0,22.09,0.0,0.0,0.0,0.3329512937518129,0.25329388125543884,9.87867
5475000000.0,22.09,0.0,0.0,0.0,0.32373,0.2271018190359182,9.87867
5480000000.0,22.09,0.0,0.0,0.0,0.32451501288485013,0.25466749355757495,9.879062506442425
5485000000.0,22.09,0.0,0.0,0.0,0.34335,0.24554440653954407,9.88789118692091
5490000000.0,22.09,0.0,0.0,0.0,0.3427610800900108,0.2556489199099892,9.86886
5495000000.0,22.09,0.0,0.0,0.0,0.3144110336689103,0.28419537979865384,9.868565379798653
5500000000.0,22.09,0.0,0.0,0.0,0.36296957267639574,0.25505978633819787,9.839430427323604
5505000000.0,22.09,0.0,0.0,0.0,0.3241219722879197,0.23563598614395986,9.87827802771208
5510000000.0,22.09,0.0,0.0,0.0,0.33334390702513905,0.25466781405027816,9.849828278924583
5515000000.0,22.09,0.0,0.0,0.0,0.33354,0.24554419287774193,9.858755807122257
5520000000.0,22.09,0.0,0.0,0.0,0.32412229278062293,0.2546677072193771,9.877885414438754
5525000000.0,22.09,0.0,0.0,0.0,0.34236921463299214,0.26437960731649607,9.87867
5530000000.0,22.09,0.0,0.0,0.0,0.31568547775915473,0.28331301482723015,9.860226985172769
5535000000.0,22.09,0.0,0.0,0.0,0.3412902225322022,0.23887296244632963,9.886420222532202
5540000000.0,22.09,0.0,0.0,0.0,0.3252993847842939,0.21738938478429387,9.88848
5545000000.0,22.09,0.0,0.0,0.0,0.3058755845900558,0.24260162311491623,9.906334415409944
5550000000.0,22.09,0.0,0.0,0.0,0.33059732340627324,0.23642089219790893,9.881612676593726
5555000000.0,22.09,0.0,0.0,0.0,0.34227100789921006,0.2703640315968403,9.86993899210079
5560000000.0,22.09,0.0,0.0,0.0,0.32608418400734185,0.27468,9.877492907996329
5565000000.0,22.09,0.0,0.0,0.0,0.3322648080934481,0.24907557571965575,9.853065575719656
5570000000.0,22.09,0.0,0.0,0.0,0.30822987542829877,0.24525,9.84924
5575000000.0,22.09,0.0,0.0,0.0,0.32912582486305825,0.22857278342462783,9.874255824863058
5580000000.0,22.09,0.0,0.0,0.0,0.34178050838480506,0.2173894916151949,9.86218898323039
5585000000.0,22.09,0.0,0.0,0.0,0.34335,0.22396240848192409,9.850907591518077
5590000000.0,22.09,0.0,0.0,0.0,0.34335,0.2658515428952154,9.87337292573713
5595000000.0,22.09,0.0,0.0,0.0,0.3354037913238379,0.2905724173523242,9.854831373971514
5600000000.0,22.09,0.0,0.0,0.0,0.3178437824534378,0.27075567368015674,9.84924
5605000000.0,22.09,0.0,0.0,0.0,0.3061699911295999,0.22611995564799958,9.8569900088704
5610000000.0,22.09,0.0,0.0,0.0,0.3117619089675191,0.2081680910324809,9.85139809103248
5615000000.0,22.09,0.0,0.0,0.0,0.32902761812927617,0.2211176181292762,9.871901427193913
5620000000.0,22.09,0.0,0.0,0.0,0.33354,0.22563,9.90103712748527
5625000000.0,22.09,0.0,0.0,0.0,0.32618239074112393,0.24034521851775217,9.886027172223372
5630000000.0,22.09,0.0,0.0,0.0,0.3164704906440049,0.26702852806798527,9.89318901871199
5635000000.0,22.09,0.0,0.0,0.0,0.33540422835934225,0.26751859054688587,9.876805771640658
5640000000.0,22.09,0.0,0.0,0.0,0.30803345224883455,0.22249014269860143,9.875923309550233
5645000000.0,22.09,0.0,0.0,0.0,0.3012652096473521,0.21297520964735212,9.864739580705296
5650000000.0,22.09,0.0,0.0,0.0,0.30411,0.2226871097444711,9.865917109744471
5655000000.0,22.09,0.0,0.0,0.0,0.3311860393663604,0.2527060393663604,9.86209099015841
5660000000.0,22.09,0.0,0.0,0.0,0.34335,0.2715409099387091,9.85237909006129
5665000000.0,22.09,0.0,0.0,0.0,0.34335,0.2615343799283438,9.855812810035829
5670000000.0,22.09,0.0,0.0,0.0,0.3304005797341058,0.2356358696011587,9.865524710132947
5675000000.0,22.09,0.0,0.0,0.0,0.3109767795398678,0.22563,9.862483389769933
5680000000.0,22.09,0.0,0.0,0.0,0.30411,0.2319085103271851,9.85905
5685000000.0,22.09,0.0,0.0,0.0,0.3288316416972164,0.24780082084860822,9.865230410424305
5690000000.0,22.09,0.0,0.0,0.0,0.3311853789571538,0.2611423105214231,9.850613068435731
5695000000.0,22.09,0.0,0.0,0.0,0.32373,0.2708542106185421,9.86935105309271
5700000000.0,22.09,0.0,0.0,0.0,0.32373,0.25702166785301667,9.870821667853017
5705000000.0,22.09,0.0,0.0,0.0,0.3295180108127801,0.2336739783744398,9.87062602162556
5710000000.0,22.09,0.0,0.0,0.0,0.3164702672703027,0.23131991090989912,9.901429643639595
5715000000.0,22.09,0.0,0.0,0.0,0.3152936220140362,0.2522154330210543,9.906726377985963
5720000000.0,22.09,0.0,0.0,0.0,0.3292237111041371,0.28135113331241135,9.887302577791726
5725000000.0,22.09,0.0,0.0,0.0,0.33354,0.28350877759748777,9.87867
5730000000.0,22.09,0.0,0.0,0.0,0.33354,0.25348995480649955,9.862777466104875
5735000000.0,22.09,0.0,0.0,0.0,0.32314117720901175,0.23024058860450589,9.870037645581975
5740000000.0,22.09,0.0,0.0,0.0,0.29861606552216063,0.22563,9.883378688507387
5745000000.0,22.09,0.0,0.0,0.0,0.3045028463589285,0.23063321158973213,9.888676423179463
5750000000.0,22.09,0.0,0.0,0.0,0.3286351116868511,0.24034511168685113,9.883574664939447
5755000000.0,22.09,0.0,0.0,0.0,0.33354,0.25486402356794025,9.87366701178397
5760000000.0,22.09,0.0,0.0,0.0,0.33354,0.27428782376217825,9.87396108811891
5765000000.0,22.09,0.0,0.0,0.0,0.31509675208716753,0.24760350417433505,9.864249188021791
5770000000.0,22.09,0.0,0.0,0.0,0.3078381362259814,0.20601,9.87258813622598
5775000000.0,22.09,0.0,0.0,0.0,0.32373,0.21925383651733837,9.875236163482661
5780000000.0,22.09,0.0,0.0,0.0,0.33236302453913025,0.24407302453913027,9.85905
5785000000.0,22.09,0.0,0.0,0.0,0.3475684123666841,0.25506,9.854831587633315
5790000000.0,22.09,0.0,0.0,0.0,0.3407990626085906,0.25506,9.86160093739141
5795000000.0,22.09,0.0,0.0,0.0,0.31568557487815574,0.24701557487815576,9.874647787439077
5800000000.0,22.09,0.0,0.0,0.0,0.31195822531608225,0.23544,9.861011774683918
5805000000.0,22.09,0.0,0.0,0.0,0.32755601275516016,0.23544,9.84924
5810000000.0,22.09,0.0,0.0,0.0,0.33354,0.23544,9.852967912852279
5815000000.0,22.09,0.0,0.0,0.0,0.34079962589879625,0.23906981294939814,9.862679812949398
5820000000.0,22.09,0.0,0.0,0.0,0.34609657390696574,0.24878171304651714,9.879455139139552
5825000000.0,22.09,0.0,0.0,0.0,0.32323916056909163,0.2619272262872723,9.887989160569091
5830000000.0,22.09,0.0,0.0,0.0,0.3107810264815103,0.25800243379622434,9.86886
5835000000.0,22.09,0.0,0.0,0.0,0.3204925866621259,0.2353422400136224,9.875334826675749
5840000000.0,22.09,0.0,0.0,0.0,0.32333794030497937,0.26133862686998627,9.882201373130012
5845000000.0,22.09,0.0,0.0,0.0,0.33726757293577575,0.26859757293577574,9.871901213532112
5850000000.0,22.09,0.0,0.0,0.0,0.32373,0.25506,9.875726886370769
5855000000.0,22.09,0.0,0.0,0.0,0.3180399725472997,0.24083493136824932,9.863169972547299
5860000000.0,22.09,0.0,0.0,0.0,0.31784456911734565,0.21425074147040743,9.857480741470408
5865000000.0,22.09,0.0,0.0,0.0,0.35051118607941184,0.24073762784117628,9.868074744317648
5870000000.0,22.09,0.0,0.0,0.0,0.33314714392917144,0.25506,9.849632856070828
5875000000.0,22.09,0.0,0.0,0.0,0.3090152282296523,0.25260738588517384,9.87867
5880000000.0,22.09,0.0,0.0,0.0,0.32373,0.24995902842389028,9.881024514211944
5885000000.0,22.09,0.0,0.0,0.0,0.32598641430906417,0.2603571713818717,9.886223585690935
5890000000.0,22.09,0.0,0.0,0.0,0.33354,0.2409333711876337,9.880828314406182
5895000000.0,22.024896381648965,0.0,0.0,0.0,0.33354,0.22563,9.884359570993395
5900000000.0,21.78,0.0,0.0,0.0,0.3355021146004211,0.22955422920084229,9.86689788539958
5905000000.0,21.78,0.0,0.0,0.0,0.3396219706049197,0.2489780293950803,9.86091401469754
5910000000.0,21.78,0.0,0.0,0.0,0.3272618295893183,0.25957225561602254,9.872391829589318
5915000000.0,21.78,0.0,0.0,0.0,0.3400143702164437,0.23710781489177815,9.886812185108221
5920000000.0,21.78,0.0,0.0,0.0,0.32529971498889715,0.24681971498889715,9.873960855033308
5925000000.0,21.78,0.0,0.0,0.0,0.33354,0.24917353965593542,9.850711615086016
5930000000.0,21.78,0.0,0.0,0.0,0.33354,0.21856703036627032,9.860423515183134
5935000000.0,21.78,0.0,0.0,0.0,0.33354,0.23544,9.867584584719745
5940000000.0,21.78,0.0,0.0,0.0,0.33471731537737315,0.23661731537737316,9.861404630754746
5945000000.0,21.78,0.0,0.0,0.0,0.3455084309489843,0.2430915690510157,9.877590784525507
5950000000.0,21.78,0.0,0.0,0.0,0.36002665328516653,0.22563,9.86984111557161
5955000000.0,21.78,0.0,0.0,0.0,0.33265698433126983,0.22916206267492062,9.87867
5960000000.0,21.78,0.0,0.0,0.0,0.3245149157658492,0.26722474729754747,9.877100168468301
5965000000.0,21.78,0.0,0.0,0.0,0.33354,0.2922395524110955,9.858363184137032
5970000000.0,21.78,0.0,0.0,0.0,0.33412871596008714,0.26369256807982566,9.85100614788026
5975000000.0,21.78,0.0,0.0,0.0,0.34335,0.24475938394279384,9.87867
5980000000.0,21.78,0.0,0.0,0.0,0.3421724515370245,0.23544,9.878277483845675
5985000000.0,21.78,0.0,0.0,0.0,0.31480324875433247,0.23661766500577666,9.869448832502888
5990000000.0,21.78,0.0,0.0,0.0,0.34315368365143684,0.27369841825718416,9.887694734605747
5995000000.0,21.78,0.0,0.0,0.0,0.33363821644568215,0.22592464933704648,9.849534649337047
6000000000.0,21.78,0.0,0.0,0.0,0.34335,0.25506,9.878669766914397
6005000000.0,21.78,0.0,0.0,0.0,0.34335,0.25506,9.85924596672016
6010000000.0,21.78,0.0,0.0,0.0,0.3241221665259217,0.24544608326296083,9.85905
6015000000.0,21.78,0.0,0.0,0.0,0.32373,0.23573418316584185,9.878081633668316
6020000000.0,21.78,0.0,0.0,0.0,0.31431228306872283,0.21660456613744566,9.87867
6025000000.0,21.78,0.0,0.0,0.0,0.33255923405679233,0.2437788510851885,9.87867
6030000000.0,21.78,0.0,0.0,0.0,0.33354,0.24525,9.869448482874484
6035000000.0,21.78,0.0,0.0,0.0,0.33354,0.2726202516679025,9.877983417222634
6040000000.0,21.78,0.0,0.0,0.0,0.34256531731975315,0.25662936536049363,9.869644682680246
6045000000.0,21.78,0.0,0.0,0.0,0.33442278258312785,0.25506,9.851005565166256
6050000000.0,21.78,0.0,0.0,0.0,0.3247108824860088,0.2109144124300441,9.858069117513992
6055000000.0,21.78,0.0,0.0,0.0,0.3324610176111102,0.2409340704444407,9.84158796477778
6060000000.0,21.78,0.0,0.0,0.0,0.33354,0.2538829177082292,9.856695835416458
6065000000.0,21.78,0.0,0.0,0.0,0.31647036438930365,0.27212963561069636,9.841980364389304
6070000000.0,21.78,0.0,0.0,0.0,0.3561035895123359,0.25780656419506565,9.881613589512336
6075000000.0,21.78,0.0,0.0,0.0,0.3212769100020691,0.23838276400082764,9.88848
6080000000.0,21.78,0.0,0.0,0.0,0.29743896380658963,0.24368051809670518,9.87199896380659
6085000000.0,21.78,0.0,0.0,0.0,0.31058483638764833,0.23710758180617583,9.893287254581471
6090000000.0,21.78,0.0,0.0,0.0,0.3058756817090568,0.2434843182909432,9.882201363418114
6095000000.0,21.78,0.0,0.0,0.0,0.3200024367761244,0.24525,9.87867
6100000000.0,21.78,0.0,0.0,0.0,0.33942623697036234,0.26879435545554353,9.839429407574094
6105000000.0,21.78,0.0,0.0,0.0,0.34335,0.25142994425309945,9.8528700557469
6110000000.0,21.78,0.0,0.0,0.0,0.3356980813205808,0.24525,9.889657674717677
6115000000.0,21.78,0.0,0.0,0.0,0.32598618122346185,0.2376961812234618,9.883182362446924
6120000000.0,21.78,0.0,0.0,0.0,0.3088185622526856,0.2279842811263428,9.87867
6125000000.0,21.78,0.0,0.0,0.0,0.30411,0.2182723810292238,9.863954762058448
6130000000.0,21.78,0.0,0.0,0.0,0.3113695190678952,0.2738961525431615,9.866309519067896
6135000000.0,21.78,0.0,0.0,0.0,0.29959716166997163,0.2799771616699716,9.861698580834986
6140000000.0,21.78,0.0,0.0,0.0,0.329616596310666,0.2817433192621332,9.866113319262134
6145000000.0,21.78,0.0,0.0,0.0,0.3363847806407478,0.24966390320373905,9.882790438718503
6150000000.0,21.78,0.0,0.0,0.0,0.33354,0.21483864163088642,9.881612880543628
6155000000.0,21.78,0.0,0.0,0.0,0.3132329413395294,0.22631705866047058,9.87190098044651
6160000000.0,21.78,0.0,0.0,0.0,0.3307936786024368,0.25545275895182756,9.848847241048173
6165000000.0,21.78,0.0,0.0,0.0,0.3302043605045436,0.27144281974772816,9.859148459243185
6170000000.0,21.78,0.0,0.0,0.0,0.32373,0.2876294396896944,9.862385280155152
6175000000.0,21.78,0.0,0.0,0.0,0.3109767601160676,0.2815467601160676,9.865426619941966
6180000000.0,21.78,0.0,0.0,0.0,0.3229455601172556,0.2621229599218296,9.850024439882745
6185000000.0,21.78,0.0,0.0,0.0,0.33354,0.224157899318979,9.857971260408613
6190000000.0,21.78,0.0,0.0,0.0,0.3213753595333536,0.2120923202333232,9.862777679766676
6195000000.0,21.78,0.0,0.0,0.0,0.3318726609913266,0.2397568813217688,9.85905
6200000000.0,21.78,0.0,0.0,0.0,0.3492361204275612,0.2609461204275612,9.864936120427561
6205000000.0,21.78,0.0,0.0,0.0,0.3473719794753198,0.26487,9.86886
6210000000.0,21.78,0.0,0.0,0.0,0.34335,0.2534901587564016,9.8631700793782
6215000000.0,21.78,0.0,0.0,0.0,0.32657453784324536,0.2396581792810818,9.870233641437837
6220000000.0,21.78,0.0,0.0,0.0,0.3029325583679256,0.2299462791839628,9.884163720816037
6225000000.0,21.78,0.0,0.0,0.0,0.32667372547893725,0.25260810456578103,9.877688758173687
6230000000.0,21.78,0.0,0.0,0.0,0.3425649579794496,0.27468,9.86886
6235000000.0,21.78,0.0,0.0,0.0,0.33354,0.2694805788926058,9.86886
6240000000.0,21.78,0.0,0.0,0.0,0.33354,0.24956603638646035,9.873961321204513
6245000000.0,21.78,0.0,0.0,0.0,0.3285367786983678,0.2304367786983678,9.868663557396735
6250000000.0,21.78,0.0,0.0,0.0,0.32373,0.23544024279750242,9.85905
6255000000.0,21.78,0.0,0.0,0.0,0.3333440429917404,0.23563595700825957,9.85905
6260000000.0,21.78,0.0,0.0,0.0,0.32922323522103236,0.23975676477896765,9.86375892159299
6265000000.0,21.78,0.0,0.0,0.0,0.32314164338021645,0.25967082169010824,9.882692465070324
6270000000.0,21.78,0.0,0.0,0.0,0.35159088714890885,0.2693827217872272,9.884751834638317
6275000000.0,21.78,0.0,0.0,0.0,0.35512151246261514,0.2570215124626151,9.860030756231307
6280000000.0,21.78,0.0,0.0,0.0,0.3292234780185348,0.23112347801853478,9.866506087925861
6285000000.0,21.78,0.0,0.0,0.0,0.33216684415716846,0.23828526623575266,9.875824733764247
6290000000.0,21.78,0.0,0.0,0.0,0.33922967782429675,0.25506,9.863170322175703
6295000000.0,21.78,0.0,0.0,0.0,0.3295177777271778,0.25506,9.864837777727178
6300000000.0,21.78,0.0,0.0,0.0,0.32373,0.26290824473988245,9.862974122369941
6305000000.0,21.78,0.0,0.0,0.0,0.3275560224670602,0.2555498876646989,9.86503397753294
6310000000.0,21.78,0.0,0.0,0.0,0.33354,0.22190207743582077,9.85532207743582
6315000000.0,21.78,0.0,0.0,0.0,0.32265053201610533,0.20856035467740355,9.856499645322597
6320000000.0,21.78,0.0,0.0,0.0,0.3147051682752517,0.2209220593089206,9.865328277241582
6325000000.0,21.78,0.0,0.0,0.0,0.34040724571107245,0.27173724571107244,9.862483622855535
6330000000.0,21.78,0.0,0.0,0.0,0.34982447704734476,0.28449,9.872195522952655
6335000000.0,21.78,0.0,0.0,0.0,0.33040030780090307,0.26506546170135464,9.875432576950226
6340000000.0,21.78,0.0,0.0,0.0,0.30097067685310674,0.22249067685310678,9.875138646293786
6345000000.0,21.78,0.0,0.0,0.0,0.2943,0.2249436697320367,9.885438776755988
6350000000.0,21.78,0.0,0.0,0.0,0.3031293700233937,0.24819312334113122,9.869840629976606
6355000000.0,21.78,0.0,0.0,0.0,0.3294200468765005,0.2579050234382502,9.85208502343825
6360000000.0,21.78,0.0,0.0,0.0,0.3460969235353692,0.26487,9.864543847070738
6365000000.0,21.78,0.0,0.0,0.0,0.34786235273502353,0.26751882363248825,9.881318823632489
6370000000.0,21.78,0.0,0.0,0.0,0.33098927627039276,0.2593756576223566,9.87827710508157
6375000000.0,21.78,0.0,0.0,0.0,0.31882475234654756,0.21582,9.854145247653452
6380000000.0,21.78,0.0,0.0,0.0,0.3088190478476905,0.21582,9.86886
6385000000.0,21.78,0.0,0.0,0.0,0.32373,0.2203328480419285,9.871116424020965
6390000000.0,21.78,0.0,0.0,0.0,0.332363296472333,0.25486491706274916,9.876511675881916
6395000000.0,21.78,0.0,0.0,0.0,0.35472910313919104,0.3175493273543933,9.866799775784797
6400000000.0,21.78,0.0,0.0,0.0,0.32373,0.28841362706303625,9.85905
6405000000.0,21.78,0.0,0.0,0.0,0.3200019511811195,0.25368585354335854,9.86091402440944
6410000000.0,21.78,0.0,0.0,0.0,0.30411,0.20777592450655924,9.86709407549344
6415000000.0,21.78,0.0,0.0,0.0,0.30577782460367825,0.2191556492073565,9.860717824603679
6420000000.0,21.78,0.0,0.0,0.0,0.3217686235039862,0.23230055059840551,9.865720550598406
6425000000.0,21.78,0.0,0.0,0.0,0.3659132495958325,0.2246497487874975,9.84924
6430000000.0,21.78,0.0,0.0,0.0,0.3743488506297885,0.27193295020992947,9.850613524895035
6435000000.0,21.78,0.0,0.0,0.0,0.32373,0.25378457500784574,9.861600849984308
6440000000.0,21.78,0.0,0.0,0.0,0.3213753498214535,0.240540699642907,9.87867
6445000000.0,21.78,0.0,0.0,0.0,0.30411,0.2081684503727845,9.87867
6450000000.0,21.78,0.0,0.0,0.0,0.30705337585053377,0.22661112528351124,9.87867
6455000000.0,21.78,0.0,0.0,0.0,0.3353060507612605,0.24073815228378154,9.877786974619369
6460000000.0,21.78,0.0,0.0,0.0,0.3523750745222507,0.29351507452225073,9.869644925477749
6465000000.0,21.78,0.0,0.0,0.0,0.340602697700527,0.2831163488502635,9.877296348850264
6470000000.0,21.78,0.0,0.0,0.0,0.306464902687949,0.2619263716400637,9.859638725671987
6475000000.0,21.78,0.0,0.0,0.0,0.3423687484617875,0.21631062576910626,9.869350625769107
6480000000.0,21.78,0.0,0.0,0.0,0.3233374741337748,0.22523747413377473,9.87867
6485000000.0,21.78,0.0,0.0,0.0,0.3145088519266885,0.21788098174340984,9.878375574036655
6490000000.0,21.78,0.0,0.0,0.0,0.33334367393953673,0.28429367393953675,9.868663673939537
6495000000.0,21.78,0.0,0.0,0.0,0.32373,0.27448354768483546,9.859246452315164
6500000000.0,21.78,0.0,0.0,0.0,0.3237302525094025,0.2550602525094025,9.878669747490598
6505000000.0,21.78,0.0,0.0,0.0,0.3431540527036405,0.2744840527036405,9.85924594729636
6510000000.0,21.78,0.0,0.0,0.0,0.34335,0.2266103677553037,9.878277852897877
6515000000.0,21.78,0.0,0.0,0.0,0.31480252036182516,0.20659834690788348,9.888185826546058
6520000000.0,21.78,0.0,0.0,0.0,0.33275545328635453,0.2719340865022408,9.879062273356823
6525000000.0,21.78,0.0,0.0,0.0,0.31490074651940747,0.32127813370148134,9.915948506961184
6530000000.0,21.78,0.0,0.0,0.0,0.3415845805122458,0.28684389265033894,9.862580838975509
6535000000.0,21.78,0.0,0.0,0.0,0.3251031461309315,0.2662431461309315,9.868173426934534
6540000000.0,21.78,0.0,0.0,0.0,0.32373,0.24681934593669347,9.850809345936693
6545000000.0,21.78,0.0,0.0,0.0,0.32373,0.2095410914849109,9.884948908515089
6550000000.0,21.78,0.0,0.0,0.0,0.3149008727741087,0.22366825445178254,9.879650872774109
6555000000.0,21.78,0.0,0.0,0.0,0.34884410929204107,0.2605541092920411,9.869938972676989
6560000000.0,21.78,0.0,0.0,0.0,0.3790587822603878,0.27350292742012927,9.86886
6565000000.0,21.78,0.0,0.0,0.0,0.34845068993100686,0.27468,9.86886
6570000000.0,21.78,0.0,0.0,0.0,0.3096030895425309,0.2409330895425309,9.894170182843101
6575000000.0,21.78,0.0,0.0,0.0,0.29577137228851375,0.2521172554229726,9.873274116865542
6580000000.0,21.78,0.0,0.0,0.0,0.3025405278086053,0.2220978887655789,9.852378944382789
6585000000.0,21.78,0.0,0.0,0.0,0.3366797116228971,0.23210485581144857,9.857382427905724
6590000000.0,21.78,0.0,0.0,0.0,0.34335,0.25957298400852985,9.875138656005687
6595000000.0,21.78,0.0,0.0,0.0,0.33540377190003773,0.28076245619992457,9.870723771900037
6600000000.0,21.78,0.0,0.0,0.0,0.34138812819708125,0.26094561540875616,9.86886
6605000000.0,21.78,0.0,0.0,0.0,0.32784994341159945,0.23955994341159945,9.892110084882601
6610000000.0,21.78,0.0,0.0,0.0,0.32373,0.23544,9.905941928391318
6615000000.0,21.78,0.0,0.0,0.0,0.3312838284884383,0.25810148546531486,9.870330857557809
6620000000.0,21.78,0.0,0.0,0.0,0.33354,0.2499585428288854,9.851594271414443
6625000000.0,21.78,0.0,0.0,0.0,0.32618237131732375,0.2526076286826763,9.878670514730704
6630000000.0,21.78,0.0,0.0,0.0,0.3164704712202047,0.26957905755959055,9.88848
6635000000.0,21.78,0.0,0.0,0.0,0.3210814288769143,0.2603571422461714,9.881318571123085
6640000000.0,21.78,0.0,0.0,0.0,0.3166666710259667,0.2621233289740333,9.87867
6645000000.0,21.78,0.0,0.0,0.0,0.3208852290711523,0.24397431278654313,9.871704770928847
6650000000.0,21.78,0.0,0.0,0.0,0.3305971291682713,0.23544,9.86886
6655000000.0,21.78,0.0,0.0,0.0,0.3267709707346097,0.2489780585307806,9.86886
6660000000.0,21.78,0.0,0.0,0.0,0.32373,0.2617309293625093,9.862189070637491
6665000000.0,21.78,0.0,0.0,0.0,0.3171571705403717,0.2385786821614868,9.865622829459628
6670000000.0,21.78,0.0,0.0,0.0,0.3203947295567473,0.2321047295567473,9.881809459113494
6675000000.0,21.78,0.0,0.0,0.0,0.3364832593077326,0.24819325930773262,9.907609888961598
6680000000.0,21.78,0.0,0.0,0.0,0.3370714702490147,0.2487814702490147,9.886517351245073
6685000000.0,21.78,0.0,0.0,0.0,0.33354,0.2514304298481043,9.862679570151895
6690000000.0,21.78,0.0,0.0,0.0,0.33354,0.2611423299452233,9.871214659890446
6695000000.0,21.78,0.0,0.0,0.0,0.3155873098729731,0.2588857699576577,9.87867
6700000000.0,21.78,0.0,0.0,0.0,0.3217683904183839,0.26094613013946133,9.861011609581617
6705000000.0,21.78,0.0,0.0,0.0,0.33354,0.2475059092902591,9.86081606047316
6710000000.0,21.78,0.0,0.0,0.0,0.33354,0.2240601393326014,9.885929791001097
6715000000.0,21.78,0.0,0.0,0.0,0.3279481695691817,0.21582,9.887106339138363
6720000000.0,21.78,0.0,0.0,0.0,0.3182362694720627,0.25427611369556113,9.873176269472062
6725000000.0,21.78,0.0,0.0,0.0,0.31392,0.2575118468747185,9.841881846874719
6730000000.0,21.78,0.0,0.0,0.0,0.3245150614443506,0.2460350614443506,9.841000122888701
6735000000.0,21.78,0.0,0.0,0.0,0.33354,0.2498605691807057,9.864249430819294
6740000000.0,21.78,0.0,0.0,0.0,0.32333733816717336,0.2401486690835867,9.858657338167173
6745000000.0,21.78,0.0,0.0,0.0,0.31392,0.23544,9.864249693040597
6750000000.0,21.78,0.0,0.0,0.0,0.3188251311106513,0.2501553933319539,9.873764868889348
6755000000.0,21.78,0.0,0.0,0.0,0.32853703120777034,0.2696770312077703,9.85924593758446
6760000000.0,21.78,0.0,0.0,0.0,0.3429578626097786,0.26055320608533206,9.863366793914668
6765000000.0,21.78,0.0,0.0,0.0,0.3485491685979917,0.24525,9.860226674391967
6770000000.0,21.78,0.0,0.0,0.0,0.32529907400349073,0.24073726850087268,9.866506388994763
6775000000.0,21.78,0.0,0.0,0.0,0.3085246315962463,0.23544,9.880631473615015
6780000000.0,21.78,0.0,0.0,0.0,0.32686959508009594,0.2570226584668266,9.85905
6785000000.0,21.78,0.0,0.0,0.0,0.3475684317904843,0.2718347046285471,9.85905
6790000000.0,21.78,0.0,0.0,0.0,0.35316,0.24269900433719005,9.863170331887604
6795000000.0,21.78,0.0,0.0,0.0,0.34109330404583305,0.22563,9.86886
6800000000.0,21.78,0.0,0.0,0.0,0.32765413208184135,0.23347826416368264,9.872784132081842
6805000000.0,21.78,0.0,0.0,0.0,0.32588793564207935,0.24525,9.87867
6810000000.0,21.78,0.0,0.0,0.0,0.3251037968282379,0.25643379682823797,9.871214135447842
6815000000.0,21.78,0.0,0.0,0.0,0.3397201676268017,0.25653083813400834,9.866309664746396
6820000000.0,21.78,0.0,0.0,0.0,0.3300082675296827,0.22209826752968267,9.87867
6825000000.0,21.78,0.0,0.0,0.0,0.32373,0.23298816283718163,9.882103632567436
6830000000.0,21.78,0.0,0.0,0.0,0.3304010653291107,0.26153446733544466,9.871802336677224
6835000000.0,21.78,0.0,0.0,0.0,0.3498248655233486,0.24858513447665134,9.849142298285024
6840000000.0,21.78,0.0,0.0,0.0,0.34727333570603336,0.24171866571758666,9.871999332858794
6845000000.0,21.78,0.0,0.0,0.0,0.31696123295591233,0.25201876704408765,9.872587534088176
6850000000.0,21.78,0.0,0.0,0.0,0.3207868669469687,0.24525,9.861993133053032
6855000000.0,21.78,0.0,0.0,0.0,0.31392,0.25094006630030063,9.8631699336997
6860000000.0,21.78,0.0,0.0,0.0,0.3166669332472693,0.26487,9.854733866494538
6865000000.0,21.78,0.0,0.0,0.0,0.331676500033165,0.2675188333443883,9.86886
6870000000.0,21.78,0.0,0.0,0.0,0.35316,0.2695785331169853,9.873961466883014
6875000000.0,21.78,0.0,0.0,0.0,0.34334946584549464,0.247702099384121,9.88112209938412
6880000000.0,21.78,0.0,0.0,0.0,0.31392,0.22563,9.85905
6885000000.0,21.78,0.0,0.0,0.0,0.31392,0.22563,9.863562867465728
6890000000.0,21.78,0.0,0.0,0.0,0.32039500148995,0.22563,9.87219499851005
6895000000.0,21.78,0.0,0.0,0.0,0.3412897660728976,0.23387093570840936,9.851300233927102
6900000000.0,21.78,0.0,0.0,0.0,0.33354,0.26487,9.862974268048443
6905000000.0,21.78,0.0,0.0,0.0,0.33167596587865966,0.2611419317573193,9.87680596587866
6910000000.0,21.78,0.0,0.0,0.0,0.32373,0.24348406578154067,9.87062593421846
6915000000.0,21.78,0.0,0.0,0.0,0.32539783431557834,0.23544,9.880337834315577
6920000000.0,21.78,0.0,0.0,0.0,0.33197026558730264,0.23857946882539469,9.88848
6925000000.0,21.78,0.0,0.0,0.0,0.32225836549018366,0.2580032690196327,9.887008365490184
6930000000.0,21.78,0.0,0.0,0.0,0.318040603820806,0.27330646539306463,9.874549396179194
6935000000.0,21.78,0.0,0.0,0.0,0.34207456529594565,0.26359456529594566,9.853066304112163
6940000000.0,21.78,0.0,0.0,0.0,0.33000799559648,0.2527053303976533,9.877492665198826
6945000000.0,21.78,0.0,0.0,0.0,0.3062684697965847,0.23544,9.867780765101708
6950000000.0,21.78,0.0,0.0,0.0,0.32274886500458866,0.2374022699908227,9.861012269990823
6955000000.0,21.78,0.0,0.0,0.0,0.3156860701850607,0.25241089472240896,9.87778696490747
6960000000.0,21.78,0.0,0.0,0.0,0.33275506481035066,0.22955467594824674,9.86807506481035
6965000000.0,21.78,0.0,0.0,0.0,0.32373,0.27399316471323165,9.861110505860305
6970000000.0,21.78,0.0,0.0,0.0,0.32373,0.26487,9.887891264616112
6975000000.0,21.78,0.0,0.0,0.0,0.32323936451899365,0.26437936451899363,9.878179364518994
6980000000.0,21.78,0.0,0.0,0.0,0.3147050711562507,0.25466746442187466,9.868467464421874
6985000000.0,21.78,0.0,0.0,0.0,0.33295112864951126,0.24466112864951128,9.85905
6990000000.0,21.78,0.0,0.0,0.0,0.3147053430894534,0.2266116788618168,9.859246335772363
6995000000.0,21.78,0.0,0.0,0.0,0.35316,0.27477823586948236,9.868663528261035
7000000000.0,21.78,0.0,0.0,0.0,0.35316013596660134,0.28449,9.849240271933203
7005000000.0,21.78,0.0,0.0,0.0,0.36287203606372037,0.28449,9.86866407212744
7010000000.0,21.78,0.0,0.0,0.0,0.3341281915174819,0.2556481915174819,9.87847393616084
7015000000.0,21.78,0.0,0.0,0.0,0.30499249122612493,0.23602832748408328,9.869154163742042
7020000000.0,21.78,0.0,0.0,0.0,0.31352773635507736,0.2071867909347679,9.86886
7025000000.0,21.78,0.0,0.0,0.0,0.29528072709560726,0.2339689093565891,9.86886
7030000000.0,21.78,0.0,0.0,0.0,0.3496292192958922,0.25388307309863073,9.86886
7035000000.0,21.78,0.0,0.0,0.0,0.34403656335356564,0.27330687329286873,9.86886
7040000000.0,21.78,0.0,0.0,0.0,0.3252993265128933,0.28370533674355336,9.850809326512893
7045000000.0,21.78,0.0,0.0,0.0,0.32373,0.24878105263731054,9.876021710522016
7050000000.0,21.78,0.0,0.0,0.0,0.32373,0.23642086306220864,9.869840863062208
7055000000.0,21.78,0.0,0.0,0.0,0.3149989629650896,0.23544,9.86012896296509
7060000000.0,21.78,0.0,0.0,0.0,0.31392,0.23544,9.86768293713203
7065000000.0,21.78,0.0,0.0,0.0,0.33098967445829675,0.26104451168744514,9.860325162770852
7070000000.0,21.78,0.0,0.0,0.0,0.3419767373262674,0.27330673732626737,9.875923474652534
7075000000.0,21.78,0.0,0.0,0.0,0.32667272515322726,0.2663413625766136,9.85365408772984
7080000000.0,21.78,0.0,0.0,0.0,0.3154894624794946,0.24014838743848388,9.86572107504101
7085000000.0,21.78,0.0,0.0,0.0,0.3220624376176244,0.21915512476475127,9.860717562382375
7090000000.0,21.78,0.0,0.0,0.0,0.33981867542948674,0.23190867542948676,9.867094337714743
7095000000.0,21.78,0.0,0.0,0.0,0.3354037621881376,0.2672249512474495,9.884752475623724
7100000000.0,21.78,0.0,0.0,0.0,0.34138813790898137,0.27468,9.872783724182037
7105000000.0,21.78,0.0,0.0,0.0,0.33559996199389963,0.2669299619938996,9.8766100380061
7110000000.0,21.78,0.0,0.0,0.0,0.31058418569034185,0.23426224758712247,9.886321938103219
7115000000.0,21.78,0.0,0.0,0.0,0.32677151460101517,0.2331838382003384,9.873372323599323
7120000000.0,21.78,0.0,0.0,0.0,0.33354,0.20561704681017048,9.86886
7125000000.0,21.78,0.0,0.0,0.0,0.32618236160542363,0.21827291518372915,9.876217638394577
7130000000.0,21.78,0.0,0.0,0.0,0.3527681539667816,0.2619276924584769,9.885929538491695
7135000000.0,21.78,0.0,0.0,0.0,0.34148568423355685,0.2890028771776288,9.881318561411184
7140000000.0,21.78,0.0,0.0,0.0,0.3264766613140666,0.2660466452562665,9.864543322628133
7145000000.0,21.78,0.0,0.0,0.0,0.30979952243389525,0.22023380608473805,9.872980477566104
7150000000.0,21.78,0.0,0.0,0.0,0.30411,0.21974427776034278,9.88553713888017
7155000000.0,21.78,0.0,0.0,0.0,0.32441711693187114,0.23916807795458078,9.88848
7160000000.0,21.78,0.0,0.0,0.0,0.3201981218511812,0.2519209390744094,9.875138121851181
7165000000.0,21.78,0.0,0.0,0.0,0.3402113566861135,0.25506,9.882005678343056
7170000000.0,21.78,0.0,0.0,0.0,0.3466852607313526,0.2680094785372948,9.882005260731352
7175000000.0,21.78,0.0,0.0,0.0,0.33059672126846723,0.2619267212684672,9.891423278731532
7180000000.0,21.78,0.0,0.0,0.0,0.3111729210742292,0.22994584214845842,9.892011460537114
7185000000.0,21.78,0.0,0.0,0.0,0.3288317582400176,0.2220004395600044,9.863758241759982
7190000000.0,21.78,0.0,0.0,0.0,0.3372676603428766,0.2438770189713702,9.855322339657123
7195000000.0,21.78,0.0,0.0,0.0,0.3395242397542424,0.2670284795084848,9.865034239754243
7200000000.0,21.78,0.0,0.0,0.0,0.3315777202972772,0.27468,9.851201580445915
7205000000.0,21.78,0.0,0.0,0.0,0.3295180399484804,0.2573158801545588,9.862582159793922
7210000000.0,21.78,0.0,0.0,0.0,0.33354,0.2281801798632018,9.8729800599544
7215000000.0,21.78,0.0,0.0,0.0,0.3279481598572816,0.2102281598572816,9.874451840142719
7220000000.0,21.78,0.0,0.0,0.0,0.3292237402398374,0.22798496095934961,9.873176259760163
7225000000.0,21.78,0.0,0.0,0.0,0.3389356403369564,0.2560412806739128,9.858068719326088
7230000000.0,21.78,0.0,0.0,0.0,0.3380524595659246,0.27016754043407537,9.85983508086815
7235000000.0,21.78,0.0,0.0,0.0,0.3283405594688056,0.25908167840641677,9.86886
7240000000.0,21.78,0.0,0.0,0.0,0.3135273187433732,0.23504731874337317,9.86886
7245000000.0,21.78,0.0,0.0,0.0,0.3091132407254324,0.2356364814508648,9.878866481450864
7250000000.0,21.78,0.0,0.0,0.0,0.3188251408225514,0.2354397183548972,9.868859436709794
7255000000.0,21.78,0.0,0.0,0.0,0.3285370409196704,0.2352440818393408,9.86366112275901
7260000000.0,21.78,0.0,0.0,0.0,0.3429578820335788,0.25937682305036824,9.87396105898321
7265000000.0,21.78,0.0,0.0,0.0,0.34393831777218314,0.26545831777218315,9.86886
7270000000.0,21.78,0.0,0.0,0.0,0.33354,0.24603451757794517,9.859834517577944
7275000000.0,21.78,0.0,0.0,0.0,0.3291253586918536,0.2310253586918536,9.862483923924438
7280000000.0,21.78,0.0,0.0,0.0,0.3194134585947346,0.23426308281053082,9.87867
7285000000.0,21.78,0.0,0.0,0.0,0.33079376600953764,0.24946844150238442,9.887106883004769
7290000000.0,21.78,0.0,0.0,0.0,0.3325582920024829,0.2756617079975171,9.894169658400497
