#timestamp [ns], temperature [degC], w_RS_S_x [rad s^-1], w_RS_S_y [rad s^-1], w_RS_S_z [rad s^-1], a_RS_S_x [m s^-2], a_RS_S_y [m s^-2], a_RS_S_z [m s^-2]
0,21.65,0.0,0.0,0.0,0.7651800000000001,0.50031,9.82962
5050505,21.65,0.0,0.0,0.0,0.75537,0.45126,9.80019
10101010,21.65,0.0,0.0,0.0,0.73575,0.47088,9.79038
15151515,21.65,0.0,0.0,0.0,0.75537,0.47088,9.78057
20202020,21.65,0.0,0.0,0.0,0.75537,0.49050000000000005,9.83943
25252525,21.65,0.0,0.0,0.0,0.7749900000000001,0.46107000000000004,9.888480000000001
30303030,21.65,0.0,0.0,0.0,0.7651800000000001,0.47088,9.819809999999999
35353535,21.65,0.0,0.0,0.0,0.7749900000000001,0.46107000000000004,9.80019
40404040,21.65,0.0,0.0,0.0,0.7651800000000001,0.47088,9.82962
45454545,21.65,0.0,0.0,0.0,0.7749900000000001,0.49050000000000005,9.83943
50505050,21.65,0.0,0.0,0.0,0.75537,0.46107000000000004,9.82962
55555555,21.65,0.0,0.0,0.0,0.74556,0.44145,9.81
60606060,21.65,0.0,0.0,0.0,0.7749900000000001,0.49050000000000005,9.78057
65656565,21.65,0.0,0.0,0.0,0.7749900000000001,0.47088,9.81
70707070,21.65,0.0,0.0,0.0,0.75537,0.49050000000000005,9.83943
75757575,21.65,0.0,0.0,0.0,0.73575,0.48069000000000006,9.84924
80808080,21.65,0.0,0.0,0.0,0.7651800000000001,0.48069000000000006,9.82962
85858585,21.65,0.0,0.0,0.0,0.75537,0.47088,9.80019
90909090,21.65,0.0,0.0,0.0,0.7848,0.47088,9.81
95959595,21.65,0.0,0.0,0.0,0.75537,0.47088,9.83943
101010100,21.65,0.0,0.0,0.0,0.79461,0.48069000000000006,9.888480000000001
106060605,21.65,0.0,0.0,0.0,0.7651800000000001,0.47088,9.84924
111111110,21.65,0.0,0.0,0.0,0.73575,0.46107000000000004,9.81
116161615,21.65,0.0,0.0,0.0,0.7749900000000001,0.48069000000000006,9.78057
121212120,21.65,0.0,0.0,0.0,0.75537,0.47088,9.819809999999999
126262625,21.65,0.0,0.0,0.0,0.75537,0.47088,9.82962
131313130,21.65,0.0,0.0,0.0,0.74556,0.48069000000000006,9.83943
136363635,21.65,0.0,0.0,0.0,0.7651800000000001,0.49050000000000005,9.80019
141414140,21.65,0.0,0.0,0.0,0.7848,0.45126,9.81
146464645,21.65,0.0,0.0,0.0,0.75537,0.48069000000000006,9.80019
151515150,21.65,0.0,0.0,0.0,0.75537,0.48069000000000006,9.83943
156565655,21.65,0.0,0.0,0.0,0.73575,0.48069000000000006,9.84924
161616160,21.65,0.0,0.0,0.0,0.73575,0.49050000000000005,9.81
166666665,21.65,0.0,0.0,0.0,0.74556,0.47088,9.80019
171717170,21.65,0.0,0.0,0.0,0.75537,0.48069000000000006,9.80019
176767675,21.65,0.0,0.0,0.0,0.7848,0.46107000000000004,9.86886
181818180,21.65,0.0,0.0,0.0,0.7749900000000001,0.47088,9.81
186868685,21.65,0.0,0.0,0.0,0.7848,0.47088,9.819809999999999
191919190,21.65,0.0,0.0,0.0,0.7651800000000001,0.47088,9.819809999999999
196969695,21.65,0.0,0.0,0.0,0.74556,0.50031,9.819809999999999
202020200,21.65,0.0,0.0,0.0,0.75537,0.49050000000000005,9.82962
207070705,21.65,0.0,0.0,0.0,0.7749900000000001,0.45126,9.80019
212121210,21.65,0.0,0.0,0.0,0.74556,0.47088,9.82962
217171715,21.65,0.0,0.0,0.0,0.7848,0.46107000000000004,9.82962
222222220,21.65,0.0,0.0,0.0,0.7749900000000001,0.50031,9.83943
227272725,21.65,0.0,0.0,0.0,0.7848,0.49050000000000005,9.82962
232323230,21.65,0.0,0.0,0.0,0.7651800000000001,0.48069000000000006,9.770760000000001
237373735,21.65,0.0,0.0,0.0,0.73575,0.47088,9.81
242424240,21.65,0.0,0.0,0.0,0.79461,0.47088,9.84924
247474745,21.65,0.0,0.0,0.0,0.75537,0.48069000000000006,9.819809999999999
252525250,21.65,0.0,0.0,0.0,0.7749900000000001,0.48069000000000006,9.81
257575755,21.65,0.0,0.0,0.0,0.75537,0.48069000000000006,9.81
262626260,21.65,0.0,0.0,0.0,0.75537,0.49050000000000005,9.819809999999999
267676765,21.65,0.0,0.0,0.0,0.75537,0.48069000000000006,9.84924
272727270,21.65,0.0,0.0,0.0,0.79461,0.47088,9.82962
277777775,21.65,0.0,0.0,0.0,0.7749900000000001,0.47088,9.83943
282828280,21.65,0.0,0.0,0.0,0.74556,0.48069000000000006,9.78057
287878785,21.65,0.0,0.0,0.0,0.75537,0.47088,9.819809999999999
292929290,21.65,0.0,0.0,0.0,0.7749900000000001,0.49050000000000005,9.84924
297979795,21.65,0.0,0.0,0.0,0.74556,0.48069000000000006,9.819809999999999
303030300,21.65,0.0,0.0,0.0,0.74556,0.46107000000000004,9.84924
308080805,21.65,0.0,0.0,0.0,0.75537,0.46107000000000004,9.81
313131310,21.65,0.0,0.0,0.0,0.75537,0.45126,9.819809999999999
318181815,21.65,0.0,0.0,0.0,0.7848,0.48069000000000006,9.82962
323232320,21.65,0.0,0.0,0.0,0.75537,0.48069000000000006,9.84924
328282825,21.65,0.0,0.0,0.0,0.7848,0.48069000000000006,9.86886
333333330,21.65,0.0,0.0,0.0,0.75537,0.47088,9.81
338383835,21.65,0.0,0.0,0.0,0.75537,0.47088,9.83943
343434340,21.65,0.0,0.0,0.0,0.7651800000000001,0.48069000000000006,9.85905
348484845,21.65,0.0,0.0,0.0,0.75537,0.46107000000000004,9.83943
353535350,21.65,0.0,0.0,0.0,0.7749900000000001,0.46107000000000004,9.819809999999999
358585855,21.65,0.0,0.0,0.0,0.74556,0.47088,9.81
363636360,21.65,0.0,0.0,0.0,0.7848,0.49050000000000005,9.83943
368686865,21.65,0.0,0.0,0.0,0.7651800000000001,0.47088,9.83943
373737370,21.65,0.0,0.0,0.0,0.7749900000000001,0.47088,9.82962
378787875,21.65,0.0,0.0,0.0,0.75537,0.48069000000000006,9.80019
383838380,21.65,0.0,0.0,0.0,0.7651800000000001,0.47088,9.82962
388888885,21.65,0.0,0.0,0.0,0.7651800000000001,0.47088,9.80019
393939390,21.65,0.0,0.0,0.0,0.75537,0.48069000000000006,9.83943
398989895,21.65,0.0,0.0,0.0,0.7749900000000001,0.45126,9.83943
404040400,21.65,0.0,0.0,0.0,0.73575,0.45126,9.83943
409090905,21.65,0.0,0.0,0.0,0.74556,0.51012,9.82962
414141410,21.65,0.0,0.0,0.0,0.7651800000000001,0.47088,9.819809999999999
419191915,21.65,0.0,0.0,0.0,0.79461,0.46107000000000004,9.84924
424242420,21.65,0.0,0.0,0.0,0.73575,0.47088,9.84924
429292925,21.65,0.0,0.0,0.0,0.7749900000000001,0.49050000000000005,9.82962
434343430,21.65,0.0,0.0,0.0,0.75537,0.49050000000000005,9.79038
439393935,21.65,0.0,0.0,0.0,0.7749900000000001,0.46107000000000004,9.819809999999999
444444440,21.65,0.0,0.0,0.0,0.79461,0.45126,9.83943
449494945,21.65,0.0,0.0,0.0,0.75537,0.47088,9.86886
454545450,21.65,0.0,0.0,0.0,0.7749900000000001,0.47088,9.819809999999999
459595955,21.65,0.0,0.0,0.0,0.7749900000000001,0.46107000000000004,9.78057
464646460,21.65,0.0,0.0,0.0,0.7749900000000001,0.49050000000000005,9.81
469696965,21.65,0.0,0.0,0.0,0.7749900000000001,0.48069000000000006,9.82962
474747470,21.65,0.0,0.0,0.0,0.7651800000000001,0.44145,9.87867
479797975,21.65,0.0,0.0,0.0,0.75537,0.46107000000000004,9.85905
484848480,21.65,0.0,0.0,0.0,0.75537,0.48069000000000006,9.78057
489898985,21.65,0.0,0.0,0.0,0.73575,0.48069000000000006,9.78057
494949490,21.65,0.0,0.0,0.0,0.75537,0.45126,9.81
499999995,21.65,0.0,0.0,0.0,0.7651800000000001,0.46107000000000004,9.83943
505050500,21.65,0.0,0.0,0.0,0.7749900000000001,0.49050000000000005,9.86886
510101005,21.65,0.0,0.0,0.0,0.7651800000000001,0.49050000000000005,9.82962
515151510,21.65,0.0,0.0,0.0,0.73575,0.48069000000000006,9.81
520202015,21.65,0.0,0.0,0.0,0.7749900000000001,0.48069000000000006,9.80019
525252520,21.65,0.0,0.0,0.0,0.7651800000000001,0.46107000000000004,9.819809999999999
530303025,21.65,0.0,0.0,0.0,0.7651800000000001,0.49050000000000005,9.888480000000001
535353530,21.65,0.0,0.0,0.0,0.74556,0.48069000000000006,9.83943
540404035,21.65,0.0,0.0,0.0,0.7749900000000001,0.50031,9.819809999999999
545454540,21.65,0.0,0.0,0.0,0.7749900000000001,0.47088,9.80019
550505045,21.65,0.0,0.0,0.0,0.7651800000000001,0.48069000000000006,9.82962
555555550,21.65,0.0,0.0,0.0,0.75537,0.48069000000000006,9.83943
560606055,21.65,0.0,0.0,0.0,0.73575,0.47088,9.84924
565656560,21.65,0.0,0.0,0.0,0.7651800000000001,0.48069000000000006,9.81
570707065,21.65,0.0,0.0,0.0,0.7848,0.48069000000000006,9.81
575757570,21.65,0.0,0.0,0.0,0.75537,0.46107000000000004,9.81
580808075,21.65,0.0,0.0,0.0,0.75537,0.47088,9.81
585858580,21.65,0.0,0.0,0.0,0.7651800000000001,0.48069000000000006,9.82962
590909085,21.65,0.0,0.0,0.0,0.7651800000000001,0.47088,9.819809999999999
595959590,21.65,0.0,0.0,0.0,0.75537,0.48069000000000006,9.819809999999999
601010095,21.65,0.0,0.0,0.0,0.7749900000000001,0.46107000000000004,9.819809999999999
606060600,21.65,0.0,0.0,0.0,0.7749900000000001,0.45126,9.819809999999999
611111105,21.65,0.0,0.0,0.0,0.7749900000000001,0.46107000000000004,9.83943
616161610,21.65,0.0,0.0,0.0,0.75537,0.48069000000000006,9.82962
621212115,21.65,0.0,0.0,0.0,0.73575,0.47088,9.819809999999999
626262620,21.65,0.0,0.0,0.0,0.75537,0.47088,9.81
631313125,21.65,0.0,0.0,0.0,0.7749900000000001,0.47088,9.80019
636363630,21.65,0.0,0.0,0.0,0.80442,0.47088,9.80019
641414135,21.65,0.0,0.0,0.0,0.7651800000000001,0.46107000000000004,9.84924
646464640,21.65,0.0,0.0,0.0,0.7651800000000001,0.48069000000000006,9.83943
651515145,21.65,0.0,0.0,0.0,0.7848,0.47088,9.81
656565650,21.65,0.0,0.0,0.0,0.74556,0.48069000000000006,9.81
661616155,21.65,0.0,0.0,0.0,0.75537,0.46107000000000004,9.80019
666666660,21.65,0.0,0.0,0.0,0.7651800000000001,0.46107000000000004,9.86886
671717165,21.65,0.0,0.0,0.0,0.7749900000000001,0.46107000000000004,9.82962
676767670,21.65,0.0,0.0,0.0,0.7749900000000001,0.47088,9.82962
681818175,21.65,0.0,0.0,0.0,0.7651800000000001,0.50031,9.80019
686868680,21.65,0.0,0.0,0.0,0.7651800000000001,0.47088,9.80019
691919185,21.65,0.0,0.0,0.0,0.7651800000000001,0.46107000000000004,9.84924
696969690,21.65,0.0,0.0,0.0,0.75537,0.50031,9.85905
702020195,21.65,0.0,0.0,0.0,0.74556,0.45126,9.83943
707070700,21.65,0.0,0.0,0.0,0.75537,0.48069000000000006,9.81
712121205,21.65,0.0,0.0,0.0,0.7651800000000001,0.46107000000000004,9.81
717171710,21.65,0.0,0.0,0.0,0.7749900000000001,0.46107000000000004,9.81
722222215,21.65,0.0,0.0,0.0,0.7749900000000001,0.46107000000000004,9.82962
727272720,21.65,0.0,0.0,0.0,0.7651800000000001,0.44145,9.86886
732323225,21.65,0.0,0.0,0.0,0.74556,0.46107000000000004,9.80019
737373730,21.65,0.0,0.0,0.0,0.7651800000000001,0.47088,9.819809999999999
742424235,21.65,0.0,0.0,0.0,0.7651800000000001,0.48069000000000006,9.80019
747474740,21.65,0.0,0.0,0.0,0.7651800000000001,0.45126,9.83943
752525245,21.65,0.0,0.0,0.0,0.7749900000000001,0.46107000000000004,9.81
757575750,21.65,0.0,0.0,0.0,0.75537,0.48069000000000006,9.83943
762626255,21.65,0.0,0.0,0.0,0.7651800000000001,0.46107000000000004,9.81
767676760,21.65,0.0,0.0,0.0,0.75537,0.47088,9.82962
772727265,21.65,0.0,0.0,0.0,0.75537,0.47088,9.819809999999999
777777770,21.65,0.0,0.0,0.0,0.74556,0.48069000000000006,9.83943
782828275,21.65,0.0,0.0,0.0,0.73575,0.48069000000000006,9.819809999999999
787878780,21.65,0.0,0.0,0.0,0.7749900000000001,0.50031,9.78057
792929285,21.65,0.0,0.0,0.0,0.7749900000000001,0.45126,9.819809999999999
797979790,21.65,0.0,0.0,0.0,0.7848,0.47088,9.83943
803030295,21.65,0.0,0.0,0.0,0.74556,0.46107000000000004,9.83943
808080800,21.65,0.0,0.0,0.0,0.74556,0.47088,9.80019
813131305,21.65,0.0,0.0,0.0,0.74556,0.49050000000000005,9.819809999999999
818181810,21.65,0.0,0.0,0.0,0.74556,0.48069000000000006,9.81
823232315,21.65,0.0,0.0,0.0,0.75537,0.47088,9.81
828282820,21.65,0.0,0.0,0.0,0.7848,0.47088,9.86886
833333325,21.65,0.0,0.0,0.0,0.74556,0.49050000000000005,9.83943
838383830,21.65,0.0,0.0,0.0,0.7749900000000001,0.48069000000000006,9.82962
843434335,21.65,0.0,0.0,0.0,0.7651800000000001,0.49050000000000005,9.79038
848484840,21.65,0.0,0.0,0.0,0.7651800000000001,0.46107000000000004,9.819809999999999
853535345,21.65,0.0,0.0,0.0,0.7651800000000001,0.46107000000000004,9.83943
858585850,21.65,0.0,0.0,0.0,0.7651800000000001,0.47088,9.87867
863636355,21.65,0.0,0.0,0.0,0.7848,0.47088,9.819809999999999
868686860,21.65,0.0,0.0,0.0,0.74556,0.45126,9.82962
873737365,21.65,0.0,0.0,0.0,0.75537,0.47088,9.819809999999999
878787870,21.65,0.0,0.0,0.0,0.7651800000000001,0.49050000000000005,9.81
883838375,21.65,0.0,0.0,0.0,0.7651800000000001,0.46107000000000004,9.82962
888888880,21.65,0.0,0.0,0.0,0.7749900000000001,0.49050000000000005,9.819809999999999
893939385,21.65,0.0,0.0,0.0,0.7651800000000001,0.47088,9.83943
898989890,21.65,0.0,0.0,0.0,0.75537,0.48069000000000006,9.81
904040395,21.65,0.0,0.0,0.0,0.75537,0.46107000000000004,9.819809999999999
909090900,21.65,0.0,0.0,0.0,0.7749900000000001,0.50031,9.80019
914141405,21.65,0.0,0.0,0.0,0.74556,0.48069000000000006,9.82962
919191910,21.65,0.0,0.0,0.0,0.74556,0.47088,9.84924
924242415,21.65,0.0,0.0,0.0,0.7749900000000001,0.47088,9.80019
929292920,21.65,0.0,0.0,0.0,0.79461,0.46107000000000004,9.83943
934343425,21.65,0.0,0.0,0.0,0.7749900000000001,0.48069000000000006,9.819809999999999
939393930,21.65,0.0,0.0,0.0,0.7651800000000001,0.47088,9.819809999999999
944444435,21.65,0.0,0.0,0.0,0.7848,0.48069000000000006,9.85905
949494940,21.65,0.0,0.0,0.0,0.7651800000000001,0.48069000000000006,9.819809999999999
954545445,21.65,0.0,0.0,0.0,0.74556,0.48069000000000006,9.82962
959595950,21.65,0.0,0.0,0.0,0.75537,0.47088,9.82962
964646455,21.65,0.0,0.0,0.0,0.7651800000000001,0.48069000000000006,9.83943
969696960,21.65,0.0,0.0,0.0,0.7848,0.49050000000000005,9.82962
974747465,21.65,0.0,0.0,0.0,0.75537,0.48069000000000006,9.81
979797970,21.65,0.0,0.0,0.0,0.7651800000000001,0.47088,9.80019
984848475,21.65,0.0,0.0,0.0,0.7651800000000001,0.48069000000000006,9.819809999999999
989898980,21.65,0.0,0.0,0.0,0.7651800000000001,0.46107000000000004,9.82962
994949485,21.65,0.0,0.0,0.0,0.7749900000000001,0.47088,9.83943
999999990,21.65,0.0,0.0,0.0,0.7749900000000001,0.48069000000000006,9.819809999999999
1005050495,21.65,0.0,0.0,0.0,0.7651800000000001,0.51012,9.82962
1010101000,21.65,0.0,0.0,0.0,0.7651800000000001,0.47088,9.819809999999999
1015151505,21.65,0.0,0.0,0.0,0.7651800000000001,0.46107000000000004,9.83943
1020202010,21.65,0.0,0.0,0.0,0.7749900000000001,0.48069000000000006,9.85905
1025252515,21.65,0.0,0.0,0.0,0.75537,0.46107000000000004,9.819809999999999
1030303020,21.65,0.0,0.0,0.0,0.74556,0.49050000000000005,9.81
1035353525,21.65,0.0,0.0,0.0,0.7848,0.47088,9.81
1040404030,21.65,0.0,0.0,0.0,0.7749900000000001,0.47088,9.819809999999999
1045454535,21.65,0.0,0.0,0.0,0.75537,0.47088,9.82962
1050505040,21.65,0.0,0.0,0.0,0.7749900000000001,0.47088,9.83943
1055555545,21.65,0.0,0.0,0.0,0.7651800000000001,0.48069000000000006,9.85905
1060606050,21.65,0.0,0.0,0.0,0.75537,0.47088,9.81
1065656555,21.65,0.0,0.0,0.0,0.75537,0.46107000000000004,9.84924
1070707060,21.65,0.0,0.0,0.0,0.7651800000000001,0.50031,9.81
1075757565,21.65,0.0,0.0,0.0,0.7651800000000001,0.46107000000000004,9.82962
1080808070,21.65,0.0,0.0,0.0,0.7749900000000001,0.48069000000000006,9.81
1085858575,21.65,0.0,0.0,0.0,0.7651800000000001,0.48069000000000006,9.84924
1090909080,21.65,0.0,0.0,0.0,0.75537,0.47088,9.84924
1095959585,21.65,0.0,0.0,0.0,0.74556,0.47088,9.82962
1101010090,21.65,0.0,0.0,0.0,0.75537,0.48069000000000006,9.81
1106060595,21.65,0.0,0.0,0.0,0.74556,0.46107000000000004,9.80019
1111111100,21.65,0.0,0.0,0.0,0.73575,0.47088,9.83943
1116161605,21.65,0.0,0.0,0.0,0.7749900000000001,0.50031,9.819809999999999
1121212110,21.65,0.0,0.0,0.0,0.7651800000000001,0.47088,9.82962
1126262615,21.65,0.0,0.0,0.0,0.75537,0.49050000000000005,9.79038
1131313120,21.65,0.0,0.0,0.0,0.7848,0.47088,9.819809999999999
1136363625,21.65,0.0,0.0,0.0,0.79461,0.48069000000000006,9.819809999999999
1141414130,21.65,0.0,0.0,0.0,0.7651800000000001,0.50031,9.819809999999999
1146464635,21.65,0.0,0.0,0.0,0.7749900000000001,0.48069000000000006,9.84924
1151515140,21.65,0.0,0.0,0.0,0.79461,0.48069000000000006,9.83943
1156565645,21.65,0.0,0.0,0.0,0.7651800000000001,0.46107000000000004,9.80019
1161616150,21.65,0.0,0.0,0.0,0.7848,0.47088,9.80019
1166666655,21.65,0.0,0.0,0.0,0.7848,0.48069000000000006,9.819809999999999
1171717160,21.65,0.0,0.0,0.0,0.75537,0.49050000000000005,9.82962
1176767665,21.65,0.0,0.0,0.0,0.7848,0.46107000000000004,9.82962
1181818170,21.65,0.0,0.0,0.0,0.7651800000000001,0.49050000000000005,9.79038
1186868675,21.65,0.0,0.0,0.0,0.7749900000000001,0.47088,9.819809999999999
1191919180,21.65,0.0,0.0,0.0,0.74556,0.48069000000000006,9.84924
1196969685,21.65,0.0,0.0,0.0,0.7651800000000001,0.47088,9.83943
1202020190,21.65,0.0,0.0,0.0,0.7651800000000001,0.46107000000000004,9.819809999999999
1207070695,21.65,0.0,0.0,0.0,0.7651800000000001,0.45126,9.79038
1212121200,21.65,0.0,0.0,0.0,0.75537,0.44145,9.81
1217171705,21.65,0.0,0.0,0.0,0.7848,0.47088,9.83943
1222222210,21.65,0.0,0.0,0.0,0.7749900000000001,0.47088,9.86886
1227272715,21.65,0.0,0.0,0.0,0.75537,0.46107000000000004,9.819809999999999
1232323220,21.65,0.0,0.0,0.0,0.75537,0.48069000000000006,9.81
1237373725,21.65,0.0,0.0,0.0,0.73575,0.48069000000000006,9.819809999999999
1242424230,21.65,0.0,0.0,0.0,0.79461,0.46107000000000004,9.81
1247474735,21.65,0.0,0.0,0.0,0.75537,0.49050000000000005,9.83943
1252525240,21.65,0.0,0.0,0.0,0.7749900000000001,0.44145,9.83943
1257575745,21.65,0.0,0.0,0.0,0.75537,0.46107000000000004,9.82962
1262626250,21.65,0.0,0.0,0.0,0.75537,0.47088,9.85905
1267676755,21.65,0.0,0.0,0.0,0.7749900000000001,0.47088,9.83943
1272727260,21.65,0.0,0.0,0.0,0.7651800000000001,0.46107000000000004,9.81
1277777765,21.65,0.0,0.0,0.0,0.75537,0.46107000000000004,9.81
1282828270,21.65,0.0,0.0,0.0,0.75537,0.47088,9.82962
1287878775,21.65,0.0,0.0,0.0,0.74556,0.47088,9.85905
1292929280,21.65,0.0,0.0,0.0,0.75537,0.48069000000000006,9.81
1297979785,21.65,0.0,0.0,0.0,0.75537,0.49050000000000005,9.80019
1303030290,21.65,0.0,0.0,0.0,0.7651800000000001,0.47088,9.83943
1308080795,21.65,0.0,0.0,0.0,0.7651800000000001,0.50031,9.84924
1313131300,21.65,0.0,0.0,0.0,0.75537,0.48069000000000006,9.819809999999999
1318181805,21.65,0.0,0.0,0.0,0.75537,0.47088,9.83943
1323232310,21.65,0.0,0.0,0.0,0.72594,0.51012,9.81
1328282815,21.65,0.0,0.0,0.0,0.7749900000000001,0.48069000000000006,9.81
1333333320,21.65,0.0,0.0,0.0,0.7749900000000001,0.48069000000000006,9.84924
1338383825,21.65,0.0,0.0,0.0,0.7651800000000001,0.49050000000000005,9.85905
1343434330,21.65,0.0,0.0,0.0,0.75537,0.48069000000000006,9.81
1348484835,21.65,0.0,0.0,0.0,0.72594,0.47088,9.79038
1353535340,21.65,0.0,0.0,0.0,0.73575,0.46107000000000004,9.79038
1358585845,21.65,0.0,0.0,0.0,0.74556,0.45126,9.819809999999999
1363636350,21.65,0.0,0.0,0.0,0.79461,0.47088,9.82962
1368686855,21.65,0.0,0.0,0.0,0.7651800000000001,0.47088,9.83943
1373737360,21.65,0.0,0.0,0.0,0.7848,0.48069000000000006,9.81
1378787865,21.65,0.0,0.0,0.0,0.75537,0.44145,9.82962
1383838370,21.65,0.0,0.0,0.0,0.75537,0.46107000000000004,9.81
1388888875,21.65,0.0,0.0,0.0,0.75537,0.48069000000000006,9.82962
1393939380,21.65,0.0,0.0,0.0,0.75537,0.47088,9.819809999999999
1398989885,21.65,0.0,0.0,0.0,0.7749900000000001,0.46107000000000004,9.79038
1404040390,21.65,0.0,0.0,0.0,0.7651800000000001,0.45126,9.83943
1409090895,21.65,0.0,0.0,0.0,0.7749900000000001,0.48069000000000006,9.81
1414141400,21.65,0.0,0.0,0.0,0.75537,0.45126,9.84924
1419191905,21.65,0.0,0.0,0.0,0.7651800000000001,0.50031,9.82962
1424242410,21.65,0.0,0.0,0.0,0.7651800000000001,0.47088,9.79038
1429292915,21.65,0.0,0.0,0.0,0.73575,0.47088,9.81
1434343420,21.65,0.0,0.0,0.0,0.7651800000000001,0.46107000000000004,9.82962
1439393925,21.65,0.0,0.0,0.0,0.7749900000000001,0.46107000000000004,9.82962
1444444430,21.65,0.0,0.0,0.0,0.7848,0.47088,9.819809999999999
1449494935,21.65,0.0,0.0,0.0,0.7749900000000001,0.48069000000000006,9.82962
1454545440,21.65,0.0,0.0,0.0,0.74556,0.50031,9.81
1459595945,21.65,0.0,0.0,0.0,0.7848,0.50031,9.81
1464646450,21.65,0.0,0.0,0.0,0.75537,0.47088,9.82962
1469696955,21.65,0.0,0.0,0.0,0.7848,0.47088,9.82962
1474747460,21.65,0.0,0.0,0.0,0.7651800000000001,0.46107000000000004,9.83943
1479797965,21.65,0.0,0.0,0.0,0.7749900000000001,0.50031,9.819809999999999
1484848470,21.65,0.0,0.0,0.0,0.7651800000000001,0.47088,9.819809999999999
1489898975,21.65,0.0,0.0,0.0,0.75537,0.47088,9.819809999999999
1494949480,21.65,0.0,0.0,0.0,0.74556,0.49050000000000005,9.81
1499999985,21.65,0.0,0.0,0.0,0.7651800000000001,0.46107000000000004,9.80019
1505050490,21.65,0.0,0.0,0.0,0.7651800000000001,0.47088,9.819809999999999
1510100995,21.65,0.0,0.0,0.0,0.7651800000000001,0.47088,9.84924
1515151500,21.65,0.0,0.0,0.0,0.7749900000000001,0.48069000000000006,9.83943
1520202005,21.65,0.0,0.0,0.0,0.75537,0.47088,9.80019
1525252510,21.65,0.0,0.0,0.0,0.7651800000000001,0.48069000000000006,9.79038
1530303015,21.65,0.0,0.0,0.0,0.7651800000000001,0.45126,9.83943
1535353520,21.65,0.0,0.0,0.0,0.7651800000000001,0.47088,9.83943
1540404025,21.65,0.0,0.0,0.0,0.75537,0.46107000000000004,9.82962
1545454530,21.65,0.0,0.0,0.0,0.73575,0.48069000000000006,9.819809999999999
1550505035,21.65,0.0,0.0,0.0,0.7651800000000001,0.49050000000000005,9.79038
1555555540,21.65,0.0,0.0,0.0,0.74556,0.48069000000000006,9.819809999999999
1560606045,21.65,0.0,0.0,0.0,0.7749900000000001,0.47088,9.819809999999999
1565656550,21.65,0.0,0.0,0.0,0.7651800000000001,0.46107000000000004,9.86886
1570707055,21.65,0.0,0.0,0.0,0.7651800000000001,0.46107000000000004,9.819809999999999
1575757560,21.65,0.0,0.0,0.0,0.7651800000000001,0.46107000000000004,9.819809999999999
1580808065,21.65,0.0,0.0,0.0,0.75537,0.46107000000000004,9.81
1585858570,21.65,0.0,0.0,0.0,0.75537,0.48069000000000006,9.819809999999999
1590909075,21.65,0.0,0.0,0.0,0.7651800000000001,0.48069000000000006,9.83943
1595959580,21.65,0.0,0.0,0.0,0.7749900000000001,0.47088,9.819809999999999
1601010085,21.65,0.0,0.0,0.0,0.7651800000000001,0.48069000000000006,9.819809999999999
1606060590,21.65,0.0,0.0,0.0,0.7848,0.46107000000000004,9.82962
1611111095,21.65,0.0,0.0,0.0,0.72594,0.46107000000000004,9.819809999999999
1616161600,21.65,0.0,0.0,0.0,0.75537,0.48069000000000006,9.819809999999999
1621212105,21.65,0.0,0.0,0.0,0.74556,0.45126,9.80019
1626262610,21.65,0.0,0.0,0.0,0.75537,0.46107000000000004,9.81
1631313115,21.65,0.0,0.0,0.0,0.75537,0.47088,9.85905
1636363620,21.65,0.0,0.0,0.0,0.7651800000000001,0.48069000000000006,9.83943
1641414125,21.65,0.0,0.0,0.0,0.74556,0.48069000000000006,9.82962
1646464630,21.65,0.0,0.0,0.0,0.74556,0.47088,9.78057
1651515135,21.65,0.0,0.0,0.0,0.75537,0.48069000000000006,9.819809999999999
1656565640,21.65,0.0,0.0,0.0,0.74556,0.48069000000000006,9.84924
1661616145,21.65,0.0,0.0,0.0,0.7848,0.48069000000000006,9.83943
1666666650,21.65,0.0,0.0,0.0,0.74556,0.46107000000000004,9.819809999999999
1671717155,21.65,0.0,0.0,0.0,0.7749900000000001,0.47088,9.81
1676767660,21.65,0.0,0.0,0.0,0.7651800000000001,0.45126,9.81
1681818165,21.65,0.0,0.0,0.0,0.74556,0.47088,9.819809999999999
1686868670,21.65,0.0,0.0,0.0,0.7651800000000001,0.48069000000000006,9.84924
1691919175,21.65,0.0,0.0,0.0,0.7651800000000001,0.46107000000000004,9.83943
1696969680,21.65,0.0,0.0,0.0,0.73575,0.47088,9.81
1702020185,21.65,0.0,0.0,0.0,0.7749900000000001,0.47088,9.81
1707070690,21.65,0.0,0.0,0.0,0.7749900000000001,0.48069000000000006,9.81
1712121195,21.65,0.0,0.0,0.0,0.74556,0.48069000000000006,9.85905
1717171700,21.65,0.0,0.0,0.0,0.74556,0.47088,9.82962
1722222205,21.65,0.0,0.0,0.0,0.74556,0.45126,9.79038
1727272710,21.65,0.0,0.0,0.0,0.7749900000000001,0.48069000000000006,9.80019
1732323215,21.65,0.0,0.0,0.0,0.7749900000000001,0.48069000000000006,9.81
1737373720,21.65,0.0,0.0,0.0,0.73575,0.49050000000000005,9.85905
1742424225,21.65,0.0,0.0,0.0,0.75537,0.46107000000000004,9.82962
1747474730,21.65,0.0,0.0,0.0,0.7749900000000001,0.49050000000000005,9.81
1752525235,21.65,0.0,0.0,0.0,0.7749900000000001,0.50031,9.78057
1757575740,21.65,0.0,0.0,0.0,0.75537,0.49050000000000005,9.81
1762626245,21.65,0.0,0.0,0.0,0.7749900000000001,0.47088,9.85905
1767676750,21.65,0.0,0.0,0.0,0.7651800000000001,0.48069000000000006,9.83943
1772727255,21.65,0.0,0.0,0.0,0.7651800000000001,0.48069000000000006,9.81
1777777760,21.65,0.0,0.0,0.0,0.74556,0.46107000000000004,9.79038
1782828265,21.65,0.0,0.0,0.0,0.74556,0.47088,9.81
1787878770,21.65,0.0,0.0,0.0,0.75537,0.47088,9.81
1792929275,21.65,0.0,0.0,0.0,0.75537,0.46107000000000004,9.84924
1797979780,21.65,0.0,0.0,0.0,0.75537,0.46107000000000004,9.81
1803030285,21.65,0.0,0.0,0.0,0.75537,0.49050000000000005,9.81
1808080790,21.65,0.0,0.0,0.0,0.73575,0.46107000000000004,9.82962
1813131295,21.65,0.0,0.0,0.0,0.75537,0.48069000000000006,9.819809999999999
1818181800,21.65,0.0,0.0,0.0,0.74556,0.46107000000000004,9.81
1823232305,21.65,0.0,0.0,0.0,0.7651800000000001,0.48069000000000006,9.819809999999999
1828282810,21.65,0.0,0.0,0.0,0.7749900000000001,0.47088,9.82962
1833333315,21.65,0.0,0.0,0.0,0.75537,0.47088,9.84924
1838383820,21.65,0.0,0.0,0.0,0.74556,0.48069000000000006,9.83943
1843434325,21.65,0.0,0.0,0.0,0.7749900000000001,0.49050000000000005,9.81
1848484830,21.65,0.0,0.0,0.0,0.73575,0.48069000000000006,9.80019
1853535335,21.65,0.0,0.0,0.0,0.75537,0.47088,9.83943
1858585840,21.65,0.0,0.0,0.0,0.7651800000000001,0.48069000000000006,9.82962
1863636345,21.65,0.0,0.0,0.0,0.7749900000000001,0.48069000000000006,9.82962
1868686850,21.65,0.0,0.0,0.0,0.72594,0.47088,9.79038
1873737355,21.65,0.0,0.0,0.0,0.7651800000000001,0.49050000000000005,9.81
1878787860,21.65,0.0,0.0,0.0,0.7848,0.49050000000000005,9.81
1883838365,21.65,0.0,0.0,0.0,0.75537,0.45126,9.86886
1888888870,21.65,0.0,0.0,0.0,0.74556,0.48069000000000006,9.888480000000001
1893939375,21.65,0.0,0.0,0.0,0.75537,0.47088,9.819809999999999
1898989880,21.65,0.0,0.0,0.0,0.7651800000000001,0.45126,9.81
1904040385,21.65,0.0,0.0,0.0,0.75537,0.47088,9.80019
1909090890,21.65,0.0,0.0,0.0,0.7651800000000001,0.49050000000000005,9.888480000000001
1914141395,21.65,0.0,0.0,0.0,0.7749900000000001,0.49050000000000005,9.85905
1919191900,21.65,0.0,0.0,0.0,0.7651800000000001,0.46107000000000004,9.82962
1924242405,21.65,0.0,0.0,0.0,0.7651800000000001,0.48069000000000006,9.78057
1929292910,21.65,0.0,0.0,0.0,0.7651800000000001,0.48069000000000006,9.82962
1934343415,21.65,0.0,0.0,0.0,0.75537,0.48069000000000006,9.82962
1939393920,21.65,0.0,0.0,0.0,0.7848,0.47088,9.85905
1944444425,21.65,0.0,0.0,0.0,0.7749900000000001,0.46107000000000004,9.84924
1949494930,21.65,0.0,0.0,0.0,0.75537,0.48069000000000006,9.81
1954545435,21.65,0.0,0.0,0.0,0.7651800000000001,0.48069000000000006,9.83943
1959595940,21.65,0.0,0.0,0.0,0.75537,0.48069000000000006,9.83943
1964646445,21.65,0.0,0.0,0.0,0.7749900000000001,0.47088,9.84924
1969696950,21.65,0.0,0.0,0.0,0.7749900000000001,0.49050000000000005,9.819809999999999
1974747455,21.65,0.0,0.0,0.0,0.75537,0.46107000000000004,9.819809999999999
1979797960,21.65,0.0,0.0,0.0,0.7651800000000001,0.48069000000000006,9.82962
1984848465,21.65,0.0,0.0,0.0,0.7651800000000001,0.48069000000000006,9.82962
1989898970,21.65,0.0,0.0,0.0,0.75537,0.49050000000000005,9.85905
1994949475,21.65,0.0,0.0,0.0,0.7651800000000001,0.48069000000000006,9.81
1999999980,21.65,0.0,0.0,0.0,0.72594,0.48069000000000006,9.81
2005050485,21.65,0.0,0.0,0.0,0.7749900000000001,0.48069000000000006,9.81
2010100990,21.65,0.0,0.0,0.0,0.7651800000000001,0.45126,9.81
2015151495,21.65,0.0,0.0,0.0,0.7749900000000001,0.46107000000000004,9.81
2020202000,21.65,0.0,0.0,0.0,0.7749900000000001,0.47088,9.83943
2025252505,21.65,0.0,0.0,0.0,0.75537,0.47088,9.81
2030303010,21.65,0.0,0.0,0.0,0.7651800000000001,0.47088,9.83943
2035353515,21.65,0.0,0.0,0.0,0.7651800000000001,0.48069000000000006,9.81
2040404020,21.65,0.0,0.0,0.0,0.7651800000000001,0.45126,9.819809999999999
2045454525,21.65,0.0,0.0,0.0,0.74556,0.46107000000000004,9.82962
2050505030,21.65,0.0,0.0,0.0,0.7651800000000001,0.47088,9.81
2055555535,21.65,0.0,0.0,0.0,0.7651800000000001,0.47088,9.83943
2060606040,21.65,0.0,0.0,0.0,0.7651800000000001,0.45126,9.82962
2065656545,21.65,0.0,0.0,0.0,0.7749900000000001,0.48069000000000006,9.83943
2070707050,21.65,0.0,0.0,0.0,0.7651800000000001,0.49050000000000005,9.81
2075757555,21.65,0.0,0.0,0.0,0.7651800000000001,0.47088,9.81
2080808060,21.65,0.0,0.0,0.0,0.75537,0.49050000000000005,9.819809999999999
2085858565,21.65,0.0,0.0,0.0,0.7749900000000001,0.46107000000000004,9.84924
2090909070,21.65,0.0,0.0,0.0,0.7651800000000001,0.48069000000000006,9.83943
2095959575,21.65,0.0,0.0,0.0,0.7651800000000001,0.45126,9.80019
2101010080,21.65,0.0,0.0,0.0,0.7749900000000001,0.47088,9.81
2106060585,21.65,0.0,0.0,0.0,0.7749900000000001,0.48069000000000006,9.819809999999999
2111111090,21.65,0.0,0.0,0.0,0.7651800000000001,0.47088,9.83943
2116161595,21.65,0.0,0.0,0.0,0.75537,0.47088,9.82962
2121212100,21.65,0.0,0.0,0.0,0.75537,0.46107000000000004,9.81
2126262605,21.65,0.0,0.0,0.0,0.7651800000000001,0.51012,9.79038
2131313110,21.65,0.0,0.0,0.0,0.75537,0.47088,9.82962
2136363615,21.65,0.0,0.0,0.0,0.79461,0.45126,9.83943
2141414120,21.65,0.0,0.0,0.0,0.7749900000000001,0.48069000000000006,9.819809999999999
2146464625,21.65,0.0,0.0,0.0,0.74556,0.46107000000000004,9.83943
2151515130,21.65,0.0,0.0,0.0,0.7749900000000001,0.50031,9.80019
2156565635,21.65,0.0,0.0,0.0,0.75537,0.47088,9.80019
2161616140,21.65,0.0,0.0,0.0,0.7651800000000001,0.48069000000000006,9.82962
2166666645,21.65,0.0,0.0,0.0,0.7651800000000001,0.47088,9.83943
2171717150,21.65,0.0,0.0,0.0,0.7651800000000001,0.48069000000000006,9.84924
2176767655,21.65,0.0,0.0,0.0,0.75537,0.48069000000000006,9.82962
2181818160,21.65,0.0,0.0,0.0,0.75537,0.49050000000000005,9.81
2186868665,21.65,0.0,0.0,0.0,0.7749900000000001,0.47088,9.80019
2191919170,21.65,0.0,0.0,0.0,0.75537,0.50031,9.83943
2196969675,21.65,0.0,0.0,0.0,0.7749900000000001,0.47088,9.82962
2202020180,21.65,0.0,0.0,0.0,0.7749900000000001,0.47088,9.83943
2207070685,21.65,0.0,0.0,0.0,0.7749900000000001,0.47088,9.819809999999999
2212121190,21.65,0.0,0.0,0.0,0.7848,0.46107000000000004,9.83943
2217171695,21.65,0.0,0.0,0.0,0.74556,0.46107000000000004,9.84924
2222222200,21.65,0.0,0.0,0.0,0.7651800000000001,0.48069000000000006,9.819809999999999
2227272705,21.65,0.0,0.0,0.0,0.74556,0.46107000000000004,9.819809999999999
2232323210,21.65,0.0,0.0,0.0,0.7651800000000001,0.46107000000000004,9.82962
2237373715,21.65,0.0,0.0,0.0,0.7749900000000001,0.47088,9.819809999999999
2242424220,21.65,0.0,0.0,0.0,0.7651800000000001,0.46107000000000004,9.83943
2247474725,21.65,0.0,0.0,0.0,0.7749900000000001,0.46107000000000004,9.83943
2252525230,21.65,0.0,0.0,0.0,0.75537,0.49050000000000005,9.819809999999999
2257575735,21.65,0.0,0.0,0.0,0.75537,0.48069000000000006,9.85905
2262626240,21.65,0.0,0.0,0.0,0.74556,0.48069000000000006,9.79038
2267676745,21.65,0.0,0.0,0.0,0.7749900000000001,0.47088,9.80019
2272727250,21.65,0.0,0.0,0.0,0.7651800000000001,0.49050000000000005,9.83943
2277777755,21.65,0.0,0.0,0.0,0.7749900000000001,0.48069000000000006,9.83943
2282828260,21.65,0.0,0.0,0.0,0.7749900000000001,0.44145,9.82962
2287878765,21.65,0.0,0.0,0.0,0.7848,0.47088,9.80019
2292929270,21.65,0.0,0.0,0.0,0.7749900000000001,0.48069000000000006,9.81
2297979775,21.65,0.0,0.0,0.0,0.75537,0.46107000000000004,9.82962
2303030280,21.65,0.0,0.0,0.0,0.7749900000000001,0.45126,9.85905
2308080785,21.65,0.0,0.0,0.0,0.75537,0.46107000000000004,9.83943
2313131290,21.65,0.0,0.0,0.0,0.7651800000000001,0.47088,9.83943
2318181795,21.65,0.0,0.0,0.0,0.75537,0.48069000000000006,9.819809999999999
2323232300,21.65,0.0,0.0,0.0,0.7651800000000001,0.45126,9.81
2328282805,21.65,0.0,0.0,0.0,0.74556,0.48069000000000006,9.81
2333333310,21.65,0.0,0.0,0.0,0.7749900000000001,0.49050000000000005,9.83943
2338383815,21.65,0.0,0.0,0.0,0.7848,0.45126,9.84924
2343434320,21.65,0.0,0.0,0.0,0.7651800000000001,0.48069000000000006,9.82962
2348484825,21.65,0.0,0.0,0.0,0.7651800000000001,0.47088,9.819809999999999
2353535330,21.65,0.0,0.0,0.0,0.7651800000000001,0.46107000000000004,9.80019
2358585835,21.65,0.0,0.0,0.0,0.7749900000000001,0.48069000000000006,9.81
2363636340,21.65,0.0,0.0,0.0,0.7651800000000001,0.49050000000000005,9.83943
2368686845,21.65,0.0,0.0,0.0,0.75537,0.47088,9.82962
2373737350,21.65,0.0,0.0,0.0,0.7848,0.48069000000000006,9.819809999999999
2378787855,21.65,0.0,0.0,0.0,0.72594,0.46107000000000004,9.82962
2383838360,21.65,0.0,0.0,0.0,0.75537,0.46107000000000004,9.81
2388888865,21.65,0.0,0.0,0.0,0.7651800000000001,0.47088,9.81
2393939370,21.65,0.0,0.0,0.0,0.75537,0.47088,9.819809999999999
2398989875,21.65,0.0,0.0,0.0,0.7749900000000001,0.48069000000000006,9.83943
2404040380,21.65,0.0,0.0,0.0,0.73575,0.48069000000000006,9.83943
2409090885,21.65,0.0,0.0,0.0,0.7749900000000001,0.46107000000000004,9.82962
2414141390,21.65,0.0,0.0,0.0,0.75537,0.47088,9.82962
2419191895,21.65,0.0,0.0,0.0,0.74556,0.47088,9.81
2424242400,21.65,0.0,0.0,0.0,0.75537,0.48069000000000006,9.82962
2429292905,21.65,0.0,0.0,0.0,0.7848,0.45126,9.82962
2434343410,21.65,0.0,0.0,0.0,0.7749900000000001,0.45126,9.82962
2439393915,21.65,0.0,0.0,0.0,0.7749900000000001,0.48069000000000006,9.82962
2444444420,21.65,0.0,0.0,0.0,0.7651800000000001,0.46107000000000004,9.82962
2449494925,21.65,0.0,0.0,0.0,0.7749900000000001,0.48069000000000006,9.819809999999999
2454545430,21.65,0.0,0.0,0.0,0.7651800000000001,0.47088,9.819809999999999
2459595935,21.65,0.0,0.0,0.0,0.74556,0.47088,9.81
2464646440,21.65,0.0,0.0,0.0,0.75537,0.48069000000000006,9.83943
2469696945,21.65,0.0,0.0,0.0,0.7651800000000001,0.48069000000000006,9.82962
2474747450,21.65,0.0,0.0,0.0,0.75537,0.47088,9.83943
2479797955,21.65,0.0,0.0,0.0,0.74556,0.48069000000000006,9.84924
2484848460,21.65,0.0,0.0,0.0,0.73575,0.46107000000000004,9.84924
2489898965,21.65,0.0,0.0,0.0,0.7651800000000001,0.45126,9.81
2494949470,21.65,0.0,0.0,0.0,0.7749900000000001,0.47088,9.819809999999999
2499999975,21.65,0.0,0.0,0.0,0.75537,0.48069000000000006,9.83943
2505050480,21.65,0.0,0.0,0.0,0.7651800000000001,0.47088,9.84924
2510100985,21.65,0.0,0.0,0.0,0.73575,0.47088,9.80019
2515151490,21.65,0.0,0.0,0.0,0.75537,0.48069000000000006,9.80019
2520201995,21.65,0.0,0.0,0.0,0.7651800000000001,0.48069000000000006,9.82962
2525252500,21.65,0.0,0.0,0.0,0.7749900000000001,0.44145,9.82962
2530303005,21.65,0.0,0.0,0.0,0.7749900000000001,0.49050000000000005,9.84924
2535353510,21.65,0.0,0.0,0.0,0.75537,0.46107000000000004,9.82962
2540404015,21.65,0.0,0.0,0.0,0.75537,0.47088,9.80019
2545454520,21.65,0.0,0.0,0.0,0.75537,0.46107000000000004,9.81
2550505025,21.65,0.0,0.0,0.0,0.75537,0.45126,9.85905
2555555530,21.65,0.0,0.0,0.0,0.7651800000000001,0.44145,9.82962
2560606035,21.65,0.0,0.0,0.0,0.75537,0.49050000000000005,9.80019
2565656540,21.65,0.0,0.0,0.0,0.7749900000000001,0.46107000000000004,9.81
2570707045,21.65,0.0,0.0,0.0,0.7651800000000001,0.45126,9.83943
2575757550,21.65,0.0,0.0,0.0,0.7749900000000001,0.48069000000000006,9.83943
2580808055,21.65,0.0,0.0,0.0,0.79461,0.48069000000000006,9.819809999999999
2585858560,21.65,0.0,0.0,0.0,0.74556,0.47088,9.819809999999999
2590909065,21.65,0.0,0.0,0.0,0.74556,0.47088,9.80019
2595959570,21.65,0.0,0.0,0.0,0.74556,0.49050000000000005,9.81
2601010075,21.65,0.0,0.0,0.0,0.75537,0.47088,9.83943
2606060580,21.65,0.0,0.0,0.0,0.74556,0.47088,9.86886
2611111085,21.65,0.0,0.0,0.0,0.7749900000000001,0.48069000000000006,9.80019
2616161590,21.65,0.0,0.0,0.0,0.7651800000000001,0.48069000000000006,9.770760000000001
2621212095,21.65,0.0,0.0,0.0,0.75537,0.47088,9.80019
2626262600,21.65,0.0,0.0,0.0,0.7749900000000001,0.46107000000000004,9.85905
2631313105,21.65,0.0,0.0,0.0,0.7749900000000001,0.46107000000000004,9.83943
2636363610,21.65,0.0,0.0,0.0,0.74556,0.47088,9.81
2641414115,21.65,0.0,0.0,0.0,0.74556,0.47088,9.81
2646464620,21.65,0.0,0.0,0.0,0.73575,0.48069000000000006,9.79038
2651515125,21.65,0.0,0.0,0.0,0.7651800000000001,0.46107000000000004,9.84924
2656565630,21.65,0.0,0.0,0.0,0.7651800000000001,0.46107000000000004,9.83943
2661616135,21.65,0.0,0.0,0.0,0.79461,0.49050000000000005,9.83943
2666666640,21.65,0.0,0.0,0.0,0.7651800000000001,0.49050000000000005,9.83943
2671717145,21.65,0.0,0.0,0.0,0.75537,0.50031,9.78057
2676767650,21.65,0.0,0.0,0.0,0.74556,0.46107000000000004,9.81
2681818155,21.65,0.0,0.0,0.0,0.75537,0.48069000000000006,9.83943
2686868660,21.65,0.0,0.0,0.0,0.7749900000000001,0.47088,9.819809999999999
2691919165,21.65,0.0,0.0,0.0,0.73575,0.48069000000000006,9.82962
2696969670,21.65,0.0,0.0,0.0,0.79461,0.47088,9.83943
2702020175,21.65,0.0,0.0,0.0,0.75537,0.48069000000000006,9.819809999999999
2707070680,21.65,0.0,0.0,0.0,0.7749900000000001,0.48069000000000006,9.82962
2712121185,21.65,0.0,0.0,0.0,0.7651800000000001,0.47088,9.83943
2717171690,21.65,0.0,0.0,0.0,0.75537,0.45126,9.83943
2722222195,21.65,0.0,0.0,0.0,0.7651800000000001,0.46107000000000004,9.83943
2727272700,21.65,0.0,0.0,0.0,0.74556,0.47088,9.82962
2732323205,21.65,0.0,0.0,0.0,0.75537,0.47088,9.819809999999999
2737373710,21.65,0.0,0.0,0.0,0.73575,0.49050000000000005,9.81
2742424215,21.65,0.0,0.0,0.0,0.7651800000000001,0.48069000000000006,9.819809999999999
2747474720,21.65,0.0,0.0,0.0,0.7848,0.48069000000000006,9.819809999999999
2752525225,21.65,0.0,0.0,0.0,0.75537,0.47088,9.82962
2757575730,21.65,0.0,0.0,0.0,0.7749900000000001,0.48069000000000006,9.819809999999999
2762626235,21.65,0.0,0.0,0.0,0.74556,0.45126,9.80019
2767676740,21.65,0.0,0.0,0.0,0.7848,0.48069000000000006,9.79038
2772727245,21.65,0.0,0.0,0.0,0.7651800000000001,0.47088,9.83943
2777777750,21.65,0.0,0.0,0.0,0.75537,0.47088,9.83943
2782828255,21.65,0.0,0.0,0.0,0.72594,0.49050000000000005,9.84924
2787878760,21.65,0.0,0.0,0.0,0.75537,0.49050000000000005,9.819809999999999
2792929265,21.65,0.0,0.0,0.0,0.73575,0.45126,9.80019
2797979770,21.65,0.0,0.0,0.0,0.7651800000000001,0.49050000000000005,9.819809999999999
2803030275,21.65,0.0,0.0,0.0,0.74556,0.47088,9.83943
2808080780,21.65,0.0,0.0,0.0,0.7848,0.46107000000000004,9.84924
2813131285,21.65,0.0,0.0,0.0,0.7848,0.45126,9.819809999999999
2818181790,21.65,0.0,0.0,0.0,0.7749900000000001,0.46107000000000004,9.80019
2823232295,21.65,0.0,0.0,0.0,0.75537,0.48069000000000006,9.84924
2828282800,21.65,0.0,0.0,0.0,0.7749900000000001,0.46107000000000004,9.85905
2833333305,21.65,0.0,0.0,0.0,0.75537,0.47088,9.83943
2838383810,21.65,0.0,0.0,0.0,0.75537,0.48069000000000006,9.79038
2843434315,21.65,0.0,0.0,0.0,0.7848,0.47088,9.80019
2848484820,21.65,0.0,0.0,0.0,0.7651800000000001,0.45126,9.83943
2853535325,21.65,0.0,0.0,0.0,0.7749900000000001,0.47088,9.82962
2858585830,21.65,0.0,0.0,0.0,0.7749900000000001,0.47088,9.81
2863636335,21.65,0.0,0.0,0.0,0.7651800000000001,0.47088,9.79038
2868686840,21.65,0.0,0.0,0.0,0.75537,0.48069000000000006,9.79038
2873737345,21.65,0.0,0.0,0.0,0.74556,0.50031,9.819809999999999
2878787850,21.65,0.0,0.0,0.0,0.80442,0.49050000000000005,9.84924
2883838355,21.65,0.0,0.0,0.0,0.75537,0.46107000000000004,9.83943
2888888860,21.65,0.0,0.0,0.0,0.7651800000000001,0.48069000000000006,9.819809999999999
2893939365,21.65,0.0,0.0,0.0,0.7651800000000001,0.50031,9.80019
2898989870,21.65,0.0,0.0,0.0,0.7749900000000001,0.47088,9.80019
2904040375,21.65,0.0,0.0,0.0,0.7749900000000001,0.47088,9.81
2909090880,21.65,0.0,0.0,0.0,0.7651800000000001,0.47088,9.84924
2914141385,21.65,0.0,0.0,0.0,0.7848,0.47088,9.84924
2919191890,21.65,0.0,0.0,0.0,0.75537,0.48069000000000006,9.819809999999999
2924242395,21.65,0.0,0.0,0.0,0.75537,0.49050000000000005,9.819809999999999
2929292900,21.65,0.0,0.0,0.0,0.74556,0.45126,9.819809999999999
2934343405,21.65,0.0,0.0,0.0,0.75537,0.47088,9.79038
2939393910,21.65,0.0,0.0,0.0,0.7651800000000001,0.46107000000000004,9.819809999999999
2944444415,21.65,0.0,0.0,0.0,0.7848,0.47088,9.85905
2949494920,21.65,0.0,0.0,0.0,0.75537,0.49050000000000005,9.86886
2954545425,21.65,0.0,0.0,0.0,0.7651800000000001,0.49050000000000005,9.819809999999999
2959595930,21.65,0.0,0.0,0.0,0.7651800000000001,0.47088,9.80019
2964646435,21.65,0.0,0.0,0.0,0.75537,0.47088,9.81
2969696940,21.65,0.0,0.0,0.0,0.75537,0.47088,9.81
2974747445,21.65,0.0,0.0,0.0,0.7651800000000001,0.47088,9.85905
2979797950,21.65,0.0,0.0,0.0,0.7651800000000001,0.49050000000000005,9.83943
2984848455,21.65,0.0,0.0,0.0,0.7651800000000001,0.49050000000000005,9.819809999999999
2989898960,21.65,0.0,0.0,0.0,0.7651800000000001,0.46107000000000004,9.80019
2994949465,21.65,0.0,0.0,0.0,0.79461,0.47088,9.78057
2999999970,21.65,0.0,0.0,0.0,0.7651800000000001,0.45126,9.819809999999999
3005050475,21.65,0.0,0.0,0.0,0.75537,0.45126,9.84924
3010100980,21.65,0.0,0.0,0.0,0.75537,0.47088,9.84924
3015151485,21.65,0.0,0.0,0.0,0.7651800000000001,0.49050000000000005,9.81
3020201990,21.65,0.0,0.0,0.0,0.7651800000000001,0.48069000000000006,9.81
3025252495,21.65,0.0,0.0,0.0,0.7749900000000001,0.47088,9.83943
3030303000,21.65,0.0,0.0,0.0,0.75537,0.48069000000000006,9.85905
3035353505,21.65,0.0,0.0,0.0,0.80442,0.45126,9.81
3040404010,21.65,0.0,0.0,0.0,0.75537,0.48069000000000006,9.81
3045454515,21.65,0.0,0.0,0.0,0.7749900000000001,0.45126,9.819809999999999
3050505020,21.65,0.0,0.0,0.0,0.7749900000000001,0.48069000000000006,9.819809999999999
3055555525,21.65,0.0,0.0,0.0,0.7651800000000001,0.46107000000000004,9.87867
3060606030,21.65,0.0,0.0,0.0,0.7749900000000001,0.47088,9.819809999999999
3065656535,21.65,0.0,0.0,0.0,0.7651800000000001,0.48069000000000006,9.81
3070707040,21.65,0.0,0.0,0.0,0.7651800000000001,0.48069000000000006,9.80019
3075757545,21.65,0.0,0.0,0.0,0.75537,0.48069000000000006,9.81
3080808050,21.65,0.0,0.0,0.0,0.75537,0.47088,9.87867
3085858555,21.65,0.0,0.0,0.0,0.7651800000000001,0.47088,9.83943
3090909060,21.65,0.0,0.0,0.0,0.7749900000000001,0.48069000000000006,9.79038
3095959565,21.65,0.0,0.0,0.0,0.73575,0.48069000000000006,9.81
3101010070,21.65,0.0,0.0,0.0,0.72594,0.45126,9.83943
3106060575,21.65,0.0,0.0,0.0,0.7749900000000001,0.50031,9.84924
3111111080,21.65,0.0,0.0,0.0,0.73575,0.45126,9.85905
3116161585,21.65,0.0,0.0,0.0,0.7651800000000001,0.47088,9.82962
3121212090,21.65,0.0,0.0,0.0,0.74556,0.47088,9.770760000000001
3126262595,21.65,0.0,0.0,0.0,0.74556,0.48069000000000006,9.80019
3131313100,21.65,0.0,0.0,0.0,0.75537,0.47088,9.819809999999999
3136363605,21.65,0.0,0.0,0.0,0.7848,0.47088,9.83943
3141414110,21.65,0.0,0.0,0.0,0.7848,0.47088,9.81
3146464615,21.65,0.0,0.0,0.0,0.75537,0.47088,9.81
3151515120,21.65,0.0,0.0,0.0,0.7651800000000001,0.47088,9.81
3156565625,21.65,0.0,0.0,0.0,0.74556,0.44145,9.81
3161616130,21.65,0.0,0.0,0.0,0.7848,0.46107000000000004,9.81
3166666635,21.65,0.0,0.0,0.0,0.7749900000000001,0.47088,9.81
3171717140,21.65,0.0,0.0,0.0,0.7651800000000001,0.48069000000000006,9.80019
3176767645,21.65,0.0,0.0,0.0,0.7848,0.47088,9.82962
3181818150,21.65,0.0,0.0,0.0,0.7651800000000001,0.48069000000000006,9.85905
3186868655,21.65,0.0,0.0,0.0,0.75537,0.47088,9.81
3191919160,21.65,0.0,0.0,0.0,0.7651800000000001,0.46107000000000004,9.80019
3196969665,21.65,0.0,0.0,0.0,0.75537,0.48069000000000006,9.81
3202020170,21.65,0.0,0.0,0.0,0.75537,0.47088,9.819809999999999
3207070675,21.65,0.0,0.0,0.0,0.7651800000000001,0.46107000000000004,9.84924
3212121180,21.65,0.0,0.0,0.0,0.75537,0.46107000000000004,9.82962
3217171685,21.65,0.0,0.0,0.0,0.7651800000000001,0.46107000000000004,9.81
3222222190,21.65,0.0,0.0,0.0,0.74556,0.46107000000000004,9.82962
3227272695,21.65,0.0,0.0,0.0,0.7651800000000001,0.45126,9.819809999999999
3232323200,21.65,0.0,0.0,0.0,0.7651800000000001,0.48069000000000006,9.84924
3237373705,21.65,0.0,0.0,0.0,0.74556,0.48069000000000006,9.85905
3242424210,21.65,0.0,0.0,0.0,0.7749900000000001,0.50031,9.81
3247474715,21.65,0.0,0.0,0.0,0.7749900000000001,0.48069000000000006,9.85905
3252525220,21.65,0.0,0.0,0.0,0.7651800000000001,0.47088,9.82962
3257575725,21.65,0.0,0.0,0.0,0.75537,0.48069000000000006,9.81
3262626230,21.65,0.0,0.0,0.0,0.7651800000000001,0.47088,9.819809999999999
3267676735,21.65,0.0,0.0,0.0,0.74556,0.50031,9.81
3272727240,21.65,0.0,0.0,0.0,0.7749900000000001,0.49050000000000005,9.83943
3277777745,21.65,0.0,0.0,0.0,0.7651800000000001,0.46107000000000004,9.81
3282828250,21.65,0.0,0.0,0.0,0.75537,0.46107000000000004,9.82962
3287878755,21.65,0.0,0.0,0.0,0.7749900000000001,0.46107000000000004,9.82962
3292929260,21.65,0.0,0.0,0.0,0.7848,0.45126,9.84924
3297979765,21.65,0.0,0.0,0.0,0.7848,0.49050000000000005,9.84924
3303030270,21.65,0.0,0.0,0.0,0.75537,0.46107000000000004,9.819809999999999
3308080775,21.65,0.0,0.0,0.0,0.74556,0.46107000000000004,9.81
3313131280,21.65,0.0,0.0,0.0,0.75537,0.46107000000000004,9.83943
3318181785,21.65,0.0,0.0,0.0,0.7651800000000001,0.47088,9.819809999999999
3323232290,21.65,0.0,0.0,0.0,0.7848,0.49050000000000005,9.819809999999999
3328282795,21.65,0.0,0.0,0.0,0.7848,0.48069000000000006,9.819809999999999
3333333300,21.65,0.0,0.0,0.0,0.75537,0.48069000000000006,9.82962
3338383805,21.65,0.0,0.0,0.0,0.75537,0.47088,9.80019
3343434310,21.65,0.0,0.0,0.0,0.7651800000000001,0.49050000000000005,9.819809999999999
3348484815,21.65,0.0,0.0,0.0,0.7749900000000001,0.47088,9.819809999999999
3353535320,21.65,0.0,0.0,0.0,0.7749900000000001,0.46107000000000004,9.82962
3358585825,21.65,0.0,0.0,0.0,0.74556,0.47088,9.819809999999999
3363636330,21.65,0.0,0.0,0.0,0.7651800000000001,0.48069000000000006,9.82962
3368686835,21.65,0.0,0.0,0.0,0.75537,0.45126,9.80019
3373737340,21.65,0.0,0.0,0.0,0.75537,0.47088,9.85905
3378787845,21.65,0.0,0.0,0.0,0.75537,0.48069000000000006,9.82962
3383838350,21.65,0.0,0.0,0.0,0.7651800000000001,0.49050000000000005,9.85905
3388888855,21.65,0.0,0.0,0.0,0.7651800000000001,0.46107000000000004,9.80019
3393939360,21.65,0.0,0.0,0.0,0.73575,0.45126,9.819809999999999
3398989865,21.65,0.0,0.0,0.0,0.7651800000000001,0.47088,9.819809999999999
3404040370,21.65,0.0,0.0,0.0,0.74556,0.49050000000000005,9.81
3409090875,21.65,0.0,0.0,0.0,0.80442,0.47088,9.84924
3414141380,21.65,0.0,0.0,0.0,0.75537,0.51012,9.81
3419191885,21.65,0.0,0.0,0.0,0.75537,0.50031,9.81
3424242390,21.65,0.0,0.0,0.0,0.75537,0.47088,9.81
3429292895,21.65,0.0,0.0,0.0,0.75537,0.47088,9.83943
3434343400,21.65,0.0,0.0,0.0,0.7651800000000001,0.50031,9.83943
3439393905,21.65,0.0,0.0,0.0,0.74556,0.48069000000000006,9.81
3444444410,21.65,0.0,0.0,0.0,0.7651800000000001,0.47088,9.80019
3449494915,21.65,0.0,0.0,0.0,0.75537,0.47088,9.82962
3454545420,21.65,0.0,0.0,0.0,0.74556,0.48069000000000006,9.83943
3459595925,21.65,0.0,0.0,0.0,0.7651800000000001,0.47088,9.82962
3464646430,21.65,0.0,0.0,0.0,0.75537,0.47088,9.819809999999999
3469696935,21.65,0.0,0.0,0.0,0.75537,0.48069000000000006,9.80019
3474747440,21.65,0.0,0.0,0.0,0.7651800000000001,0.48069000000000006,9.819809999999999
3479797945,21.65,0.0,0.0,0.0,0.75537,0.46107000000000004,9.819809999999999
3484848450,21.65,0.0,0.0,0.0,0.73575,0.45126,9.84924
3489898955,21.65,0.0,0.0,0.0,0.75537,0.46107000000000004,9.82962
3494949460,21.65,0.0,0.0,0.0,0.73575,0.47088,9.82962
3499999965,21.65,0.0,0.0,0.0,0.75537,0.46107000000000004,9.819809999999999
3505050470,21.65,0.0,0.0,0.0,0.7651800000000001,0.47088,9.78057
3510100975,21.65,0.0,0.0,0.0,0.7848,0.48069000000000006,9.83943
3515151480,21.65,0.0,0.0,0.0,0.7651800000000001,0.45126,9.80019
3520201985,21.65,0.0,0.0,0.0,0.7651800000000001,0.45126,9.819809999999999
3525252490,21.65,0.0,0.0,0.0,0.7848,0.48069000000000006,9.81
3530302995,21.65,0.0,0.0,0.0,0.7651800000000001,0.47088,9.83943
3535353500,21.65,0.0,0.0,0.0,0.74556,0.48069000000000006,9.82962
3540404005,21.65,0.0,0.0,0.0,0.75537,0.48069000000000006,9.81
3545454510,21.65,0.0,0.0,0.0,0.75537,0.50031,9.82962
3550505015,21.65,0.0,0.0,0.0,0.74556,0.45126,9.79038
3555555520,21.65,0.0,0.0,0.0,0.74556,0.47088,9.86886
3560606025,21.65,0.0,0.0,0.0,0.7651800000000001,0.46107000000000004,9.84924
3565656530,21.65,0.0,0.0,0.0,0.7848,0.47088,9.83943
3570707035,21.65,0.0,0.0,0.0,0.7749900000000001,0.51012,9.82962
3575757540,21.65,0.0,0.0,0.0,0.7651800000000001,0.48069000000000006,9.81
3580808045,21.65,0.0,0.0,0.0,0.7651800000000001,0.47088,9.81
3585858550,21.65,0.0,0.0,0.0,0.74556,0.46107000000000004,9.82962
3590909055,21.65,0.0,0.0,0.0,0.74556,0.45126,9.87867
3595959560,21.97,0.0,0.0,0.0,0.72594,0.48069000000000006,9.82962
3601010065,21.97,0.0,0.0,0.0,0.7651800000000001,0.49050000000000005,9.81
3606060570,21.97,0.0,0.0,0.0,0.7749900000000001,0.47088,9.81
3611111075,21.97,0.0,0.0,0.0,0.7749900000000001,0.48069000000000006,9.82962
3616161580,21.97,0.0,0.0,0.0,0.7651800000000001,0.46107000000000004,9.82962
3621212085,21.97,0.0,0.0,0.0,0.7749900000000001,0.48069000000000006,9.84924
3626262590,21.97,0.0,0.0,0.0,0.75537,0.48069000000000006,9.819809999999999
3631313095,21.97,0.0,0.0,0.0,0.75537,0.48069000000000006,9.80019
3636363600,21.97,0.0,0.0,0.0,0.75537,0.46107000000000004,9.81
3641414105,21.97,0.0,0.0,0.0,0.75537,0.48069000000000006,9.81
3646464610,21.97,0.0,0.0,0.0,0.7749900000000001,0.48069000000000006,9.82962
3651515115,21.97,0.0,0.0,0.0,0.7651800000000001,0.47088,9.83943
3656565620,21.97,0.0,0.0,0.0,0.75537,0.45126,9.819809999999999
3661616125,21.97,0.0,0.0,0.0,0.7651800000000001,0.48069000000000006,9.80019
3666666630,21.97,0.0,0.0,0.0,0.7848,0.48069000000000006,9.819809999999999
3671717135,21.97,0.0,0.0,0.0,0.75537,0.48069000000000006,9.81
3676767640,21.97,0.0,0.0,0.0,0.7651800000000001,0.47088,9.819809999999999
3681818145,21.97,0.0,0.0,0.0,0.75537,0.45126,9.81
3686868650,21.97,0.0,0.0,0.0,0.7749900000000001,0.50031,9.819809999999999
3691919155,21.97,0.0,0.0,0.0,0.74556,0.48069000000000006,9.84924
3696969660,21.97,0.0,0.0,0.0,0.75537,0.49050000000000005,9.83943
3702020165,21.97,0.0,0.0,0.0,0.7651800000000001,0.47088,9.82962
3707070670,21.97,0.0,0.0,0.0,0.7651800000000001,0.49050000000000005,9.79038
3712121175,21.97,0.0,0.0,0.0,0.75537,0.46107000000000004,9.819809999999999
3717171680,21.97,0.0,0.0,0.0,0.7651800000000001,0.47088,9.85905
3722222185,21.97,0.0,0.0,0.0,0.75537,0.49050000000000005,9.84924
3727272690,21.97,0.0,0.0,0.0,0.71613,0.48069000000000006,9.819809999999999
3732323195,21.97,0.0,0.0,0.0,0.75537,0.46107000000000004,9.80019
3737373700,21.97,0.0,0.0,0.0,0.75537,0.46107000000000004,9.79038
3742424205,21.97,0.0,0.0,0.0,0.7651800000000001,0.47088,9.81
3747474710,21.97,0.0,0.0,0.0,0.7848,0.47088,9.85905
3752525215,21.97,0.0,0.0,0.0,0.7651800000000001,0.48069000000000006,9.86886
3757575720,21.97,0.0,0.0,0.0,0.75537,0.49050000000000005,9.819809999999999
3762626225,21.97,0.0,0.0,0.0,0.73575,0.46107000000000004,9.80019
3767676730,21.97,0.0,0.0,0.0,0.74556,0.48069000000000006,9.80019
3772727235,21.97,0.0,0.0,0.0,0.72594,0.46107000000000004,9.819809999999999
3777777740,21.97,0.0,0.0,0.0,0.7651800000000001,0.48069000000000006,9.84924
3782828245,21.97,0.0,0.0,0.0,0.74556,0.46107000000000004,9.86886
3787878750,21.97,0.0,0.0,0.0,0.7749900000000001,0.46107000000000004,9.819809999999999
3792929255,21.97,0.0,0.0,0.0,0.74556,0.49050000000000005,9.81
3797979760,21.97,0.0,0.0,0.0,0.75537,0.49050000000000005,9.82962
3803030265,21.97,0.0,0.0,0.0,0.75537,0.47088,9.82962
3808080770,21.97,0.0,0.0,0.0,0.7651800000000001,0.48069000000000006,9.819809999999999
3813131275,21.97,0.0,0.0,0.0,0.75537,0.48069000000000006,9.81
3818181780,21.97,0.0,0.0,0.0,0.7651800000000001,0.46107000000000004,9.82962
3823232285,21.97,0.0,0.0,0.0,0.7749900000000001,0.46107000000000004,9.84924
3828282790,21.97,0.0,0.0,0.0,0.7749900000000001,0.46107000000000004,9.819809999999999
3833333295,21.97,0.0,0.0,0.0,0.7749900000000001,0.48069000000000006,9.82962
3838383800,21.97,0.0,0.0,0.0,0.7651800000000001,0.47088,9.819809999999999
3843434305,21.97,0.0,0.0,0.0,0.73575,0.47088,9.82962
3848484810,21.97,0.0,0.0,0.0,0.7651800000000001,0.49050000000000005,9.82962
3853535315,21.97,0.0,0.0,0.0,0.7848,0.48069000000000006,9.82962
3858585820,21.97,0.0,0.0,0.0,0.74556,0.48069000000000006,9.83943
3863636325,21.97,0.0,0.0,0.0,0.7651800000000001,0.48069000000000006,9.82962
3868686830,21.97,0.0,0.0,0.0,0.75537,0.48069000000000006,9.79038
3873737335,21.97,0.0,0.0,0.0,0.7651800000000001,0.45126,9.81
3878787840,21.97,0.0,0.0,0.0,0.79461,0.47088,9.819809999999999
3883838345,21.97,0.0,0.0,0.0,0.7651800000000001,0.47088,9.83943
3888888850,21.97,0.0,0.0,0.0,0.7651800000000001,0.48069000000000006,9.83943
3893939355,21.97,0.0,0.0,0.0,0.7651800000000001,0.47088,9.82962
3898989860,21.97,0.0,0.0,0.0,0.74556,0.48069000000000006,9.83943
3904040365,21.97,0.0,0.0,0.0,0.7651800000000001,0.47088,9.80019
3909090870,21.97,0.0,0.0,0.0,0.73575,0.45126,9.819809999999999
3914141375,21.97,0.0,0.0,0.0,0.75537,0.47088,9.819809999999999
3919191880,21.97,0.0,0.0,0.0,0.7749900000000001,0.48069000000000006,9.84924
3924242385,21.97,0.0,0.0,0.0,0.74556,0.47088,9.81
3929292890,21.97,0.0,0.0,0.0,0.75537,0.45126,9.81
3934343395,21.97,0.0,0.0,0.0,0.75537,0.51012,9.81
3939393900,21.97,0.0,0.0,0.0,0.7651800000000001,0.47088,9.83943
3944444405,21.97,0.0,0.0,0.0,0.7651800000000001,0.46107000000000004,9.83943
3949494910,21.97,0.0,0.0,0.0,0.7848,0.46107000000000004,9.84924
3954545415,21.97,0.0,0.0,0.0,0.75537,0.50031,9.82962
3959595920,21.97,0.0,0.0,0.0,0.72594,0.47088,9.79038
3964646425,21.97,0.0,0.0,0.0,0.75537,0.47088,9.83943
3969696930,21.97,0.0,0.0,0.0,0.75537,0.46107000000000004,9.82962
3974747435,21.97,0.0,0.0,0.0,0.7749900000000001,0.49050000000000005,9.81
3979797940,21.97,0.0,0.0,0.0,0.74556,0.46107000000000004,9.81
3984848445,21.97,0.0,0.0,0.0,0.7651800000000001,0.46107000000000004,9.819809999999999
3989898950,21.97,0.0,0.0,0.0,0.7749900000000001,0.47088,9.82962
3994949455,21.97,0.0,0.0,0.0,0.7651800000000001,0.45126,9.82962
3999999960,21.97,0.0,0.0,0.0,0.75537,0.47088,9.819809999999999
4005050465,21.97,0.0,0.0,0.0,0.74556,0.46107000000000004,9.80019
4010100970,21.97,0.0,0.0,0.0,0.72594,0.48069000000000006,9.81
4015151475,21.97,0.0,0.0,0.0,0.7651800000000001,0.47088,9.819809999999999
4020201980,21.97,0.0,0.0,0.0,0.7848,0.47088,9.82962
4025252485,21.97,0.0,0.0,0.0,0.7651800000000001,0.51012,9.84924
4030302990,21.97,0.0,0.0,0.0,0.74556,0.48069000000000006,9.81
4035353495,21.97,0.0,0.0,0.0,0.7651800000000001,0.46107000000000004,9.79038
4040404000,21.97,0.0,0.0,0.0,0.7651800000000001,0.45126,9.82962
4045454505,21.97,0.0,0.0,0.0,0.7848,0.48069000000000006,9.84924
4050505010,21.97,0.0,0.0,0.0,0.7651800000000001,0.50031,9.82962
4055555515,21.97,0.0,0.0,0.0,0.75537,0.48069000000000006,9.80019
4060606020,21.97,0.0,0.0,0.0,0.75537,0.47088,9.81
4065656525,21.97,0.0,0.0,0.0,0.7651800000000001,0.45126,9.83943
4070707030,21.97,0.0,0.0,0.0,0.7651800000000001,0.46107000000000004,9.83943
4075757535,21.97,0.0,0.0,0.0,0.7749900000000001,0.45126,9.84924
4080808040,21.97,0.0,0.0,0.0,0.7651800000000001,0.49050000000000005,9.82962
4085858545,21.97,0.0,0.0,0.0,0.7848,0.51012,9.80019
4090909050,21.97,0.0,0.0,0.0,0.7651800000000001,0.47088,9.81
4095959555,21.97,0.0,0.0,0.0,0.7749900000000001,0.46107000000000004,9.82962
4101010060,21.97,0.0,0.0,0.0,0.72594,0.47088,9.83943
4106060565,21.97,0.0,0.0,0.0,0.75537,0.49050000000000005,9.82962
4111111070,21.97,0.0,0.0,0.0,0.75537,0.50031,9.81
4116161575,21.97,0.0,0.0,0.0,0.79461,0.47088,9.82962
4121212080,21.97,0.0,0.0,0.0,0.75537,0.47088,9.83943
4126262585,21.97,0.0,0.0,0.0,0.7651800000000001,0.50031,9.84924
4131313090,21.97,0.0,0.0,0.0,0.7651800000000001,0.49050000000000005,9.819809999999999
4136363595,21.97,0.0,0.0,0.0,0.7848,0.46107000000000004,9.80019
4141414100,21.97,0.0,0.0,0.0,0.7651800000000001,0.46107000000000004,9.82962
4146464605,21.97,0.0,0.0,0.0,0.7651800000000001,0.49050000000000005,9.85905
4151515110,21.97,0.0,0.0,0.0,0.74556,0.48069000000000006,9.82962
4156565615,21.97,0.0,0.0,0.0,0.75537,0.49050000000000005,9.84924
4161616120,21.97,0.0,0.0,0.0,0.75537,0.47088,9.83943
4166666625,21.97,0.0,0.0,0.0,0.7749900000000001,0.47088,9.819809999999999
4171717130,21.97,0.0,0.0,0.0,0.7651800000000001,0.45126,9.81
4176767635,21.97,0.0,0.0,0.0,0.7848,0.50031,9.84924
4181818140,21.97,0.0,0.0,0.0,0.7651800000000001,0.49050000000000005,9.82962
4186868645,21.97,0.0,0.0,0.0,0.7749900000000001,0.49050000000000005,9.81
4191919150,21.97,0.0,0.0,0.0,0.7651800000000001,0.46107000000000004,9.82962
4196969655,21.97,0.0,0.0,0.0,0.74556,0.45126,9.819809999999999
4202020160,21.97,0.0,0.0,0.0,0.7749900000000001,0.47088,9.819809999999999
4207070665,21.97,0.0,0.0,0.0,0.75537,0.46107000000000004,9.82962
4212121170,21.97,0.0,0.0,0.0,0.7848,0.46107000000000004,9.82962
4217171675,21.97,0.0,0.0,0.0,0.7651800000000001,0.48069000000000006,9.84924
4222222180,21.97,0.0,0.0,0.0,0.7651800000000001,0.46107000000000004,9.82962
4227272685,21.97,0.0,0.0,0.0,0.7651800000000001,0.46107000000000004,9.82962
4232323190,21.97,0.0,0.0,0.0,0.75537,0.47088,9.83943
4237373695,21.97,0.0,0.0,0.0,0.7651800000000001,0.48069000000000006,9.83943
4242424200,21.97,0.0,0.0,0.0,0.7651800000000001,0.50031,9.83943
4247474705,21.97,0.0,0.0,0.0,0.75537,0.46107000000000004,9.80019
4252525210,21.97,0.0,0.0,0.0,0.74556,0.48069000000000006,9.81
4257575715,21.97,0.0,0.0,0.0,0.7749900000000001,0.48069000000000006,9.82962
4262626220,21.97,0.0,0.0,0.0,0.7651800000000001,0.46107000000000004,9.84924
4267676725,21.97,0.0,0.0,0.0,0.75537,0.47088,9.81
4272727230,21.97,0.0,0.0,0.0,0.74556,0.48069000000000006,9.84924
4277777735,21.97,0.0,0.0,0.0,0.75537,0.47088,9.80019
4282828240,21.97,0.0,0.0,0.0,0.75537,0.47088,9.81
4287878745,21.97,0.0,0.0,0.0,0.75537,0.48069000000000006,9.85905
4292929250,21.97,0.0,0.0,0.0,0.7749900000000001,0.48069000000000006,9.84924
4297979755,21.97,0.0,0.0,0.0,0.75537,0.46107000000000004,9.82962
4303030260,21.97,0.0,0.0,0.0,0.72594,0.47088,9.819809999999999
4308080765,21.97,0.0,0.0,0.0,0.75537,0.49050000000000005,9.81
4313131270,21.97,0.0,0.0,0.0,0.73575,0.48069000000000006,9.819809999999999
4318181775,21.97,0.0,0.0,0.0,0.7651800000000001,0.47088,9.83943
4323232280,21.97,0.0,0.0,0.0,0.7651800000000001,0.47088,9.82962
4328282785,21.97,0.0,0.0,0.0,0.7651800000000001,0.47088,9.82962
4333333290,21.97,0.0,0.0,0.0,0.7749900000000001,0.47088,9.819809999999999
4338383795,21.97,0.0,0.0,0.0,0.75537,0.48069000000000006,9.84924
4343434300,21.97,0.0,0.0,0.0,0.7749900000000001,0.48069000000000006,9.81
4348484805,21.97,0.0,0.0,0.0,0.7651800000000001,0.49050000000000005,9.82962
4353535310,21.97,0.0,0.0,0.0,0.7651800000000001,0.46107000000000004,9.81
4358585815,21.97,0.0,0.0,0.0,0.7651800000000001,0.46107000000000004,9.819809999999999
4363636320,21.97,0.0,0.0,0.0,0.7651800000000001,0.47088,9.83943
4368686825,21.97,0.0,0.0,0.0,0.7749900000000001,0.49050000000000005,9.819809999999999
4373737330,21.97,0.0,0.0,0.0,0.74556,0.51012,9.82962
4378787835,21.97,0.0,0.0,0.0,0.74556,0.47088,9.819809999999999
4383838340,21.97,0.0,0.0,0.0,0.75537,0.48069000000000006,9.819809999999999
4388888845,21.97,0.0,0.0,0.0,0.7848,0.47088,9.82962
4393939350,21.97,0.0,0.0,0.0,0.75537,0.47088,9.86886
4398989855,21.97,0.0,0.0,0.0,0.7651800000000001,0.47088,9.83943
4404040360,21.97,0.0,0.0,0.0,0.7651800000000001,0.47088,9.81
4409090865,21.97,0.0,0.0,0.0,0.74556,0.47088,9.81
4414141370,21.97,0.0,0.0,0.0,0.75537,0.49050000000000005,9.80019
4419191875,21.97,0.0,0.0,0.0,0.7651800000000001,0.46107000000000004,9.85905
4424242380,21.97,0.0,0.0,0.0,0.75537,0.47088,9.82962
4429292885,21.97,0.0,0.0,0.0,0.75537,0.48069000000000006,9.84924
4434343390,21.97,0.0,0.0,0.0,0.7749900000000001,0.47088,9.81
4439393895,21.97,0.0,0.0,0.0,0.75537,0.46107000000000004,9.81
4444444400,21.97,0.0,0.0,0.0,0.7651800000000001,0.48069000000000006,9.819809999999999
4449494905,21.97,0.0,0.0,0.0,0.7749900000000001,0.48069000000000006,9.82962
4454545410,21.97,0.0,0.0,0.0,0.73575,0.46107000000000004,9.819809999999999
4459595915,21.97,0.0,0.0,0.0,0.75537,0.46107000000000004,9.81
4464646420,21.97,0.0,0.0,0.0,0.75537,0.49050000000000005,9.819809999999999
4469696925,21.97,0.0,0.0,0.0,0.7651800000000001,0.45126,9.82962
4474747430,21.97,0.0,0.0,0.0,0.7651800000000001,0.46107000000000004,9.82962
4479797935,21.97,0.0,0.0,0.0,0.75537,0.48069000000000006,9.81
4484848440,21.97,0.0,0.0,0.0,0.73575,0.47088,9.80019
4489898945,21.97,0.0,0.0,0.0,0.7749900000000001,0.48069000000000006,9.83943
4494949450,21.97,0.0,0.0,0.0,0.7651800000000001,0.47088,9.82962
4499999955,21.97,0.0,0.0,0.0,0.75537,0.46107000000000004,9.84924
4505050460,21.97,0.0,0.0,0.0,0.7848,0.46107000000000004,9.83943
4510100965,21.97,0.0,0.0,0.0,0.7651800000000001,0.48069000000000006,9.819809999999999
4515151470,21.97,0.0,0.0,0.0,0.7848,0.49050000000000005,9.819809999999999
4520201975,21.97,0.0,0.0,0.0,0.7749900000000001,0.47088,9.85905
4525252480,21.97,0.0,0.0,0.0,0.74556,0.48069000000000006,9.85905
4530302985,21.97,0.0,0.0,0.0,0.75537,0.47088,9.83943
4535353490,21.97,0.0,0.0,0.0,0.74556,0.47088,9.80019
4540403995,21.97,0.0,0.0,0.0,0.7848,0.49050000000000005,9.819809999999999
4545454500,21.97,0.0,0.0,0.0,0.75537,0.47088,9.82962
4550505005,21.97,0.0,0.0,0.0,0.7848,0.46107000000000004,9.83943
4555555510,21.97,0.0,0.0,0.0,0.7651800000000001,0.47088,9.82962
4560606015,21.97,0.0,0.0,0.0,0.7651800000000001,0.50031,9.82962
4565656520,21.97,0.0,0.0,0.0,0.75537,0.48069000000000006,9.819809999999999
4570707025,21.97,0.0,0.0,0.0,0.75537,0.49050000000000005,9.819809999999999
4575757530,21.97,0.0,0.0,0.0,0.74556,0.47088,9.819809999999999
4580808035,21.97,0.0,0.0,0.0,0.75537,0.46107000000000004,9.819809999999999
4585858540,21.97,0.0,0.0,0.0,0.75537,0.47088,9.83943
4590909045,21.97,0.0,0.0,0.0,0.7749900000000001,0.47088,9.83943
4595959550,21.97,0.0,0.0,0.0,0.7651800000000001,0.47088,9.83943
4601010055,21.97,0.0,0.0,0.0,0.7651800000000001,0.46107000000000004,9.819809999999999
4606060560,21.97,0.0,0.0,0.0,0.7749900000000001,0.48069000000000006,9.79038
4611111065,21.97,0.0,0.0,0.0,0.75537,0.47088,9.82962
4616161570,21.97,0.0,0.0,0.0,0.7651800000000001,0.45126,9.83943
4621212075,21.97,0.0,0.0,0.0,0.75537,0.48069000000000006,9.82962
4626262580,21.97,0.0,0.0,0.0,0.75537,0.51012,9.819809999999999
4631313085,21.97,0.0,0.0,0.0,0.75537,0.48069000000000006,9.819809999999999
4636363590,21.97,0.0,0.0,0.0,0.7651800000000001,0.47088,9.82962
4641414095,21.97,0.0,0.0,0.0,0.7749900000000001,0.49050000000000005,9.84924
4646464600,21.97,0.0,0.0,0.0,0.79461,0.44145,9.83943
4651515105,21.97,0.0,0.0,0.0,0.73575,0.48069000000000006,9.81
4656565610,21.97,0.0,0.0,0.0,0.7651800000000001,0.46107000000000004,9.82962
4661616115,21.97,0.0,0.0,0.0,0.75537,0.44145,9.84924
4666666620,21.97,0.0,0.0,0.0,0.7651800000000001,0.49050000000000005,9.819809999999999
4671717125,21.97,0.0,0.0,0.0,0.7651800000000001,0.47088,9.83943
4676767630,21.97,0.0,0.0,0.0,0.7651800000000001,0.48069000000000006,9.81
4681818135,21.97,0.0,0.0,0.0,0.75537,0.45126,9.81
4686868640,21.97,0.0,0.0,0.0,0.7651800000000001,0.47088,9.819809999999999
4691919145,21.97,0.0,0.0,0.0,0.7749900000000001,0.48069000000000006,9.85905
4696969650,21.97,0.0,0.0,0.0,0.7749900000000001,0.47088,9.83943
4702020155,21.97,0.0,0.0,0.0,0.73575,0.47088,9.819809999999999
4707070660,21.97,0.0,0.0,0.0,0.7749900000000001,0.47088,9.80019
4712121165,21.97,0.0,0.0,0.0,0.74556,0.45126,9.81
4717171670,21.97,0.0,0.0,0.0,0.7651800000000001,0.47088,9.86886
4722222175,21.97,0.0,0.0,0.0,0.73575,0.49050000000000005,9.85905
4727272680,21.97,0.0,0.0,0.0,0.7749900000000001,0.49050000000000005,9.819809999999999
4732323185,21.97,0.0,0.0,0.0,0.79461,0.46107000000000004,9.82962
4737373690,21.97,0.0,0.0,0.0,0.7651800000000001,0.46107000000000004,9.81
4742424195,21.97,0.0,0.0,0.0,0.7651800000000001,0.47088,9.80019
4747474700,21.97,0.0,0.0,0.0,0.75537,0.46107000000000004,9.86886
4752525205,21.97,0.0,0.0,0.0,0.75537,0.46107000000000004,9.85905
4757575710,21.97,0.0,0.0,0.0,0.75537,0.46107000000000004,9.81
4762626215,21.97,0.0,0.0,0.0,0.73575,0.45126,9.80019
4767676720,21.97,0.0,0.0,0.0,0.7651800000000001,0.47088,9.81
4772727225,21.97,0.0,0.0,0.0,0.74556,0.47088,9.82962
4777777730,21.97,0.0,0.0,0.0,0.75537,0.46107000000000004,9.81
4782828235,21.97,0.0,0.0,0.0,0.7749900000000001,0.47088,9.819809999999999
4787878740,21.97,0.0,0.0,0.0,0.7651800000000001,0.45126,9.81
4792929245,21.97,0.0,0.0,0.0,0.79461,0.49050000000000005,9.81
4797979750,21.97,0.0,0.0,0.0,0.74556,0.46107000000000004,9.85905
4803030255,21.97,0.0,0.0,0.0,0.7651800000000001,0.48069000000000006,9.86886
4808080760,21.97,0.0,0.0,0.0,0.7749900000000001,0.47088,9.83943
4813131265,21.97,0.0,0.0,0.0,0.75537,0.47088,9.81
4818181770,21.97,0.0,0.0,0.0,0.72594,0.47088,9.819809999999999
4823232275,21.97,0.0,0.0,0.0,0.7651800000000001,0.47088,9.80019
4828282780,21.97,0.0,0.0,0.0,0.75537,0.46107000000000004,9.83943
4833333285,21.97,0.0,0.0,0.0,0.7749900000000001,0.48069000000000006,9.83943
4838383790,21.97,0.0,0.0,0.0,0.7848,0.45126,9.87867
4843434295,21.97,0.0,0.0,0.0,0.7651800000000001,0.47088,9.82962
4848484800,21.97,0.0,0.0,0.0,0.75537,0.47088,9.81
4853535305,21.97,0.0,0.0,0.0,0.7848,0.48069000000000006,9.81
4858585810,21.97,0.0,0.0,0.0,0.75537,0.48069000000000006,9.81
4863636315,21.97,0.0,0.0,0.0,0.7749900000000001,0.48069000000000006,9.84924
4868686820,21.97,0.0,0.0,0.0,0.7651800000000001,0.48069000000000006,9.82962
4873737325,21.97,0.0,0.0,0.0,0.74556,0.48069000000000006,9.819809999999999
4878787830,21.97,0.0,0.0,0.0,0.75537,0.47088,9.79038
4883838335,21.97,0.0,0.0,0.0,0.74556,0.48069000000000006,9.83943
4888888840,21.97,0.0,0.0,0.0,0.7651800000000001,0.47088,9.82962
4893939345,21.97,0.0,0.0,0.0,0.7651800000000001,0.49050000000000005,9.82962
4898989850,21.97,0.0,0.0,0.0,0.75537,0.46107000000000004,9.84924
4904040355,21.97,0.0,0.0,0.0,0.7848,0.46107000000000004,9.81
4909090860,21.97,0.0,0.0,0.0,0.7848,0.47088,9.83943
4914141365,21.97,0.0,0.0,0.0,0.74556,0.50031,9.81
4919191870,21.97,0.0,0.0,0.0,0.74556,0.48069000000000006,9.82962
4924242375,21.97,0.0,0.0,0.0,0.7651800000000001,0.47088,9.81
4929292880,21.97,0.0,0.0,0.0,0.74556,0.46107000000000004,9.80019
4934343385,21.97,0.0,0.0,0.0,0.7651800000000001,0.44145,9.819809999999999
4939393890,21.97,0.0,0.0,0.0,0.7749900000000001,0.46107000000000004,9.85905
4944444395,21.97,0.0,0.0,0.0,0.75537,0.46107000000000004,9.819809999999999
4949494900,21.97,0.0,0.0,0.0,0.73575,0.48069000000000006,9.819809999999999
4954545405,21.97,0.0,0.0,0.0,0.74556,0.47088,9.819809999999999
4959595910,21.97,0.0,0.0,0.0,0.75537,0.47088,9.78057
4964646415,21.97,0.0,0.0,0.0,0.75537,0.48069000000000006,9.84924
4969696920,21.97,0.0,0.0,0.0,0.7749900000000001,0.48069000000000006,9.82962
4974747425,21.97,0.0,0.0,0.0,0.75537,0.48069000000000006,9.83943
4979797930,21.97,0.0,0.0,0.0,0.75537,0.47088,9.81
4984848435,21.97,0.0,0.0,0.0,0.7848,0.49050000000000005,9.81
4989898940,21.97,0.0,0.0,0.0,0.7651800000000001,0.46107000000000004,9.83943
4994949445,21.97,0.0,0.0,0.0,0.7651800000000001,0.47088,9.82962
4999999950,21.97,0.0,0.0,0.0,0.7749900000000001,0.46107000000000004,9.819809999999999
5005050455,21.97,0.0,0.0,0.0,0.75537,0.47088,9.81
5010100960,21.97,0.0,0.0,0.0,0.74556,0.46107000000000004,9.819809999999999
5015151465,21.97,0.0,0.0,0.0,0.7651800000000001,0.46107000000000004,9.82962
5020201970,21.97,0.0,0.0,0.0,0.7749900000000001,0.48069000000000006,9.82962
5025252475,21.97,0.0,0.0,0.0,0.74556,0.47088,9.82962
5030302980,21.97,0.0,0.0,0.0,0.7749900000000001,0.45126,9.80019
5035353485,21.97,0.0,0.0,0.0,0.74556,0.47088,9.819809999999999
5040403990,21.97,0.0,0.0,0.0,0.75537,0.48069000000000006,9.83943
5045454495,21.97,0.0,0.0,0.0,0.72594,0.49050000000000005,9.83943
5050505000,21.97,0.0,0.0,0.0,0.75537,0.47088,9.80019
5055555505,21.97,0.0,0.0,0.0,0.7749900000000001,0.46107000000000004,9.80019
5060606010,21.97,0.0,0.0,0.0,0.75537,0.46107000000000004,9.82962
5065656515,21.97,0.0,0.0,0.0,0.75537,0.47088,9.82962
5070707020,21.97,0.0,0.0,0.0,0.7749900000000001,0.46107000000000004,9.82962
5075757525,21.97,0.0,0.0,0.0,0.7749900000000001,0.48069000000000006,9.82962
5080808030,21.97,0.0,0.0,0.0,0.75537,0.47088,9.81
5085858535,21.97,0.0,0.0,0.0,0.75537,0.48069000000000006,9.80019
5090909040,21.97,0.0,0.0,0.0,0.75537,0.47088,9.84924
5095959545,21.97,0.0,0.0,0.0,0.7651800000000001,0.46107000000000004,9.83943
5101010050,21.97,0.0,0.0,0.0,0.75537,0.48069000000000006,9.85905
5106060555,21.97,0.0,0.0,0.0,0.7749900000000001,0.48069000000000006,9.82962
5111111060,21.97,0.0,0.0,0.0,0.72594,0.47088,9.81
5116161565,21.97,0.0,0.0,0.0,0.71613,0.47088,9.819809999999999
5121212070,21.97,0.0,0.0,0.0,0.7651800000000001,0.47088,9.84924
5126262575,21.97,0.0,0.0,0.0,0.7848,0.50031,9.819809999999999
5131313080,21.97,0.0,0.0,0.0,0.74556,0.48069000000000006,9.819809999999999
5136363585,21.97,0.0,0.0,0.0,0.7651800000000001,0.48069000000000006,9.819809999999999
5141414090,21.97,0.0,0.0,0.0,0.74556,0.49050000000000005,9.82962
5146464595,21.97,0.0,0.0,0.0,0.74556,0.47088,9.82962
5151515100,21.97,0.0,0.0,0.0,0.7749900000000001,0.46107000000000004,9.819809999999999
5156565605,21.97,0.0,0.0,0.0,0.73575,0.46107000000000004,9.83943
5161616110,21.97,0.0,0.0,0.0,0.75537,0.43164,9.82962
5166666615,21.97,0.0,0.0,0.0,0.7848,0.47088,9.819809999999999
5171717120,21.97,0.0,0.0,0.0,0.74556,0.48069000000000006,9.82962
5176767625,21.97,0.0,0.0,0.0,0.73575,0.45126,9.81
5181818130,21.97,0.0,0.0,0.0,0.74556,0.46107000000000004,9.83943
5186868635,21.97,0.0,0.0,0.0,0.7651800000000001,0.49050000000000005,9.81
5191919140,21.97,0.0,0.0,0.0,0.75537,0.47088,9.83943
5196969645,21.97,0.0,0.0,0.0,0.75537,0.47088,9.819809999999999
5202020150,21.97,0.0,0.0,0.0,0.7651800000000001,0.48069000000000006,9.819809999999999
5207070655,21.97,0.0,0.0,0.0,0.7651800000000001,0.48069000000000006,9.819809999999999
5212121160,21.97,0.0,0.0,0.0,0.75537,0.47088,9.80019
5217171665,21.97,0.0,0.0,0.0,0.7651800000000001,0.47088,9.80019
5222222170,21.97,0.0,0.0,0.0,0.7651800000000001,0.46107000000000004,9.819809999999999
5227272675,21.97,0.0,0.0,0.0,0.7749900000000001,0.46107000000000004,9.84924
5232323180,21.97,0.0,0.0,0.0,0.7651800000000001,0.47088,9.819809999999999
5237373685,21.97,0.0,0.0,0.0,0.75537,0.48069000000000006,9.819809999999999
5242424190,21.97,0.0,0.0,0.0,0.75537,0.48069000000000006,9.80019
5247474695,21.97,0.0,0.0,0.0,0.75537,0.49050000000000005,9.80019
5252525200,21.97,0.0,0.0,0.0,0.75537,0.46107000000000004,9.819809999999999
5257575705,21.97,0.0,0.0,0.0,0.79461,0.45126,9.83943
5262626210,21.97,0.0,0.0,0.0,0.74556,0.47088,9.85905
5267676715,21.97,0.0,0.0,0.0,0.75537,0.48069000000000006,9.83943
5272727220,21.97,0.0,0.0,0.0,0.75537,0.47088,9.819809999999999
5277777725,21.97,0.0,0.0,0.0,0.73575,0.47088,9.819809999999999
5282828230,21.97,0.0,0.0,0.0,0.75537,0.46107000000000004,9.819809999999999
5287878735,21.97,0.0,0.0,0.0,0.75537,0.47088,9.83943
5292929240,21.97,0.0,0.0,0.0,0.7848,0.46107000000000004,9.84924
5297979745,21.97,0.0,0.0,0.0,0.7651800000000001,0.48069000000000006,9.82962
5303030250,21.97,0.0,0.0,0.0,0.7651800000000001,0.49050000000000005,9.82962
5308080755,21.97,0.0,0.0,0.0,0.7749900000000001,0.46107000000000004,9.82962
5313131260,21.97,0.0,0.0,0.0,0.75537,0.46107000000000004,9.79038
5318181765,21.97,0.0,0.0,0.0,0.7651800000000001,0.49050000000000005,9.819809999999999
5323232270,21.97,0.0,0.0,0.0,0.75537,0.45126,9.82962
5328282775,21.97,0.0,0.0,0.0,0.7749900000000001,0.48069000000000006,9.82962
5333333280,21.97,0.0,0.0,0.0,0.7749900000000001,0.47088,9.84924
5338383785,21.97,0.0,0.0,0.0,0.73575,0.47088,9.81
5343434290,21.97,0.0,0.0,0.0,0.7651800000000001,0.48069000000000006,9.81
5348484795,21.97,0.0,0.0,0.0,0.7651800000000001,0.47088,9.819809999999999
5353535300,21.97,0.0,0.0,0.0,0.7749900000000001,0.50031,9.83943
5358585805,21.97,0.0,0.0,0.0,0.7749900000000001,0.47088,9.83943
5363636310,21.97,0.0,0.0,0.0,0.75537,0.50031,9.82962
5368686815,21.97,0.0,0.0,0.0,0.75537,0.48069000000000006,9.81
5373737320,21.97,0.0,0.0,0.0,0.75537,0.48069000000000006,9.819809999999999
5378787825,21.97,0.0,0.0,0.0,0.74556,0.46107000000000004,9.819809999999999
5383838330,21.97,0.0,0.0,0.0,0.7848,0.47088,9.819809999999999
5388888835,21.97,0.0,0.0,0.0,0.7749900000000001,0.46107000000000004,9.83943
5393939340,21.97,0.0,0.0,0.0,0.75537,0.48069000000000006,9.83943
5398989845,21.97,0.0,0.0,0.0,0.75537,0.49050000000000005,9.819809999999999
5404040350,21.97,0.0,0.0,0.0,0.75537,0.48069000000000006,9.81
5409090855,21.97,0.0,0.0,0.0,0.7749900000000001,0.48069000000000006,9.83943
5414141360,21.97,0.0,0.0,0.0,0.75537,0.47088,9.819809999999999
5419191865,21.97,0.0,0.0,0.0,0.7651800000000001,0.47088,9.83943
5424242370,21.97,0.0,0.0,0.0,0.74556,0.46107000000000004,9.83943
5429292875,21.97,0.0,0.0,0.0,0.75537,0.47088,9.82962
5434343380,21.97,0.0,0.0,0.0,0.75537,0.50031,9.80019
5439393885,21.97,0.0,0.0,0.0,0.7749900000000001,0.46107000000000004,9.82962
5444444390,21.97,0.0,0.0,0.0,0.75537,0.44145,9.84924
5449494895,21.97,0.0,0.0,0.0,0.74556,0.47088,9.82962
5454545400,21.97,0.0,0.0,0.0,0.7651800000000001,0.45126,9.80019
5459595905,21.97,0.0,0.0,0.0,0.7651800000000001,0.49050000000000005,9.81
5464646410,21.97,0.0,0.0,0.0,0.7749900000000001,0.48069000000000006,9.81
5469696915,21.97,0.0,0.0,0.0,0.75537,0.49050000000000005,9.83943
5474747420,21.97,0.0,0.0,0.0,0.75537,0.48069000000000006,9.83943
5479797925,21.97,0.0,0.0,0.0,0.7848,0.48069000000000006,9.81
5484848430,21.97,0.0,0.0,0.0,0.7749900000000001,0.48069000000000006,9.819809999999999
5489898935,21.97,0.0,0.0,0.0,0.79461,0.46107000000000004,9.81
5494949440,21.97,0.0,0.0,0.0,0.73575,0.47088,9.83943
5499999945,21.97,0.0,0.0,0.0,0.74556,0.48069000000000006,9.82962
5505050450,21.97,0.0,0.0,0.0,0.7749900000000001,0.50031,9.82962
5510100955,21.97,0.0,0.0,0.0,0.74556,0.48069000000000006,9.82962
5515151460,21.97,0.0,0.0,0.0,0.75537,0.47088,9.80019
5520201965,21.97,0.0,0.0,0.0,0.7651800000000001,0.47088,9.81
5525252470,21.97,0.0,0.0,0.0,0.7848,0.49050000000000005,9.84924
5530302975,21.97,0.0,0.0,0.0,0.74556,0.48069000000000006,9.84924
5535353480,21.97,0.0,0.0,0.0,0.75537,0.48069000000000006,9.80019
5540403985,21.97,0.0,0.0,0.0,0.75537,0.47088,9.81
5545454490,21.97,0.0,0.0,0.0,0.74556,0.49050000000000005,9.81
5550504995,21.97,0.0,0.0,0.0,0.7651800000000001,0.50031,9.86886
5555555500,21.97,0.0,0.0,0.0,0.7651800000000001,0.49050000000000005,9.84924
5560606005,21.97,0.0,0.0,0.0,0.74556,0.48069000000000006,9.82962
5565656510,21.97,0.0,0.0,0.0,0.75537,0.47088,9.81
5570707015,21.97,0.0,0.0,0.0,0.74556,0.48069000000000006,9.80019
5575757520,21.97,0.0,0.0,0.0,0.7848,0.47088,9.81
5580808025,21.97,0.0,0.0,0.0,0.75537,0.47088,9.87867
5585858530,21.97,0.0,0.0,0.0,0.75537,0.48069000000000006,9.83943
5590909035,21.97,0.0,0.0,0.0,0.75537,0.48069000000000006,9.80019
5595959540,21.97,0.0,0.0,0.0,0.74556,0.49050000000000005,9.79038
5601010045,21.97,0.0,0.0,0.0,0.7651800000000001,0.48069000000000006,9.80019
5606060550,21.97,0.0,0.0,0.0,0.7651800000000001,0.48069000000000006,9.85905
5611111055,21.97,0.0,0.0,0.0,0.7651800000000001,0.47088,9.84924
5616161560,21.97,0.0,0.0,0.0,0.75537,0.48069000000000006,9.81
5621212065,21.97,0.0,0.0,0.0,0.75537,0.48069000000000006,9.81
5626262570,21.97,0.0,0.0,0.0,0.74556,0.49050000000000005,9.80019
5631313075,21.97,0.0,0.0,0.0,0.7749900000000001,0.47088,9.82962
5636363580,21.97,0.0,0.0,0.0,0.7651800000000001,0.47088,9.85905
5641414085,21.97,0.0,0.0,0.0,0.7651800000000001,0.46107000000000004,9.81
5646464590,21.97,0.0,0.0,0.0,0.75537,0.47088,9.81
5651515095,21.97,0.0,0.0,0.0,0.7651800000000001,0.48069000000000006,9.80019
5656565600,21.97,0.0,0.0,0.0,0.75537,0.49050000000000005,9.819809999999999
5661616105,21.97,0.0,0.0,0.0,0.7651800000000001,0.49050000000000005,9.85905
5666666610,21.97,0.0,0.0,0.0,0.75537,0.48069000000000006,9.83943
5671717115,21.97,0.0,0.0,0.0,0.75537,0.48069000000000006,9.83943
5676767620,21.97,0.0,0.0,0.0,0.7651800000000001,0.49050000000000005,9.80019
5681818125,21.97,0.0,0.0,0.0,0.7651800000000001,0.45126,9.82962
5686868630,21.97,0.0,0.0,0.0,0.7651800000000001,0.47088,9.84924
5691919135,21.97,0.0,0.0,0.0,0.74556,0.45126,9.82962
5696969640,21.97,0.0,0.0,0.0,0.74556,0.47088,9.81
5702020145,21.97,0.0,0.0,0.0,0.75537,0.45126,9.819809999999999
5707070650,21.97,0.0,0.0,0.0,0.7651800000000001,0.47088,9.81
5712121155,21.97,0.0,0.0,0.0,0.74556,0.47088,9.819809999999999
5717171660,21.97,0.0,0.0,0.0,0.74556,0.48069000000000006,9.81
5722222165,21.97,0.0,0.0,0.0,0.7651800000000001,0.46107000000000004,9.81
5727272670,21.97,0.0,0.0,0.0,0.7749900000000001,0.46107000000000004,9.81
5732323175,21.97,0.0,0.0,0.0,0.7749900000000001,0.47088,9.819809999999999
5737373680,21.97,0.0,0.0,0.0,0.7848,0.49050000000000005,9.84924
5742424185,21.97,0.0,0.0,0.0,0.7749900000000001,0.49050000000000005,9.819809999999999
5747474690,21.97,0.0,0.0,0.0,0.7651800000000001,0.47088,9.81
5752525195,21.97,0.0,0.0,0.0,0.7651800000000001,0.47088,9.79038
5757575700,21.97,0.0,0.0,0.0,0.7749900000000001,0.46107000000000004,9.82962
5762626205,21.97,0.0,0.0,0.0,0.7749900000000001,0.48069000000000006,9.83943
5767676710,21.97,0.0,0.0,0.0,0.7651800000000001,0.46107000000000004,9.82962
5772727215,21.97,0.0,0.0,0.0,0.7651800000000001,0.47088,9.81
5777777720,21.97,0.0,0.0,0.0,0.7749900000000001,0.49050000000000005,9.819809999999999
5782828225,21.97,0.0,0.0,0.0,0.7651800000000001,0.49050000000000005,9.82962
5787878730,21.97,0.0,0.0,0.0,0.75537,0.46107000000000004,9.82962
5792929235,21.97,0.0,0.0,0.0,0.74556,0.48069000000000006,9.78057
5797979740,21.97,0.0,0.0,0.0,0.7651800000000001,0.46107000000000004,9.81
5803030245,21.97,0.0,0.0,0.0,0.7749900000000001,0.47088,9.82962
5808080750,21.97,0.0,0.0,0.0,0.7651800000000001,0.46107000000000004,9.86886
5813131255,21.97,0.0,0.0,0.0,0.7749900000000001,0.48069000000000006,9.84924
5818181760,21.97,0.0,0.0,0.0,0.7749900000000001,0.48069000000000006,9.81
5823232265,21.97,0.0,0.0,0.0,0.7651800000000001,0.46107000000000004,9.79038
5828282770,21.97,0.0,0.0,0.0,0.73575,0.47088,9.79038
5833333275,21.97,0.0,0.0,0.0,0.75537,0.43164,9.85905
5838383780,21.97,0.0,0.0,0.0,0.75537,0.49050000000000005,9.85905
5843434285,21.97,0.0,0.0,0.0,0.7651800000000001,0.48069000000000006,9.83943
5848484790,21.97,0.0,0.0,0.0,0.75537,0.49050000000000005,9.79038
5853535295,21.97,0.0,0.0,0.0,0.74556,0.50031,9.79038
5858585800,21.97,0.0,0.0,0.0,0.75537,0.47088,9.81
5863636305,21.97,0.0,0.0,0.0,0.7651800000000001,0.45126,9.84924
5868686810,21.97,0.0,0.0,0.0,0.7848,0.49050000000000005,9.83943
5873737315,21.97,0.0,0.0,0.0,0.7651800000000001,0.47088,9.84924
5878787820,21.97,0.0,0.0,0.0,0.7749900000000001,0.48069000000000006,9.84924
5883838325,21.97,0.0,0.0,0.0,0.74556,0.48069000000000006,9.81
5888888830,21.97,0.0,0.0,0.0,0.7651800000000001,0.48069000000000006,9.79038
5893939335,21.97,0.0,0.0,0.0,0.7651800000000001,0.47088,9.81
5898989840,21.97,0.0,0.0,0.0,0.7749900000000001,0.46107000000000004,9.819809999999999
5904040345,21.97,0.0,0.0,0.0,0.7651800000000001,0.51012,9.85905
5909090850,21.97,0.0,0.0,0.0,0.75537,0.49050000000000005,9.83943
5914141355,21.97,0.0,0.0,0.0,0.7749900000000001,0.47088,9.81
5919191860,21.97,0.0,0.0,0.0,0.7651800000000001,0.47088,9.81
5924242365,21.97,0.0,0.0,0.0,0.7651800000000001,0.48069000000000006,9.79038
5929292870,21.97,0.0,0.0,0.0,0.7749900000000001,0.48069000000000006,9.83943
5934343375,21.97,0.0,0.0,0.0,0.7848,0.48069000000000006,9.84924
5939393880,21.97,0.0,0.0,0.0,0.7651800000000001,0.47088,9.84924
5944444385,21.97,0.0,0.0,0.0,0.7651800000000001,0.45126,9.79038
5949494890,21.97,0.0,0.0,0.0,0.7749900000000001,0.47088,9.79038
5954545395,21.97,0.0,0.0,0.0,0.7749900000000001,0.46107000000000004,9.819809999999999
5959595900,21.97,0.0,0.0,0.0,0.7651800000000001,0.47088,9.83943
5964646405,21.97,0.0,0.0,0.0,0.7848,0.47088,9.84924
5969696910,21.97,0.0,0.0,0.0,0.7651800000000001,0.47088,9.819809999999999
5974747415,21.97,0.0,0.0,0.0,0.74556,0.47088,9.82962
5979797920,21.97,0.0,0.0,0.0,0.75537,0.45126,9.819809999999999
5984848425,21.97,0.0,0.0,0.0,0.7651800000000001,0.46107000000000004,9.84924
5989898930,21.97,0.0,0.0,0.0,0.74556,0.48069000000000006,9.83943
5994949435,21.97,0.0,0.0,0.0,0.75537,0.46107000000000004,9.79038
5999999940,21.97,0.0,0.0,0.0,0.7651800000000001,0.47088,9.79038
6005050445,21.97,0.0,0.0,0.0,0.7848,0.48069000000000006,9.819809999999999
6010100950,21.97,0.0,0.0,0.0,0.7749900000000001,0.46107000000000004,9.85905
6015151455,21.97,0.0,0.0,0.0,0.7651800000000001,0.50031,9.85905
6020201960,21.97,0.0,0.0,0.0,0.7651800000000001,0.45126,9.81
6025252465,21.97,0.0,0.0,0.0,0.74556,0.43164,9.79038
6030302970,21.97,0.0,0.0,0.0,0.7651800000000001,0.48069000000000006,9.81
6035353475,21.97,0.0,0.0,0.0,0.7651800000000001,0.48069000000000006,9.84924
6040403980,21.97,0.0,0.0,0.0,0.75537,0.47088,9.819809999999999
6045454485,21.97,0.0,0.0,0.0,0.7651800000000001,0.45126,9.82962
6050504990,21.97,0.0,0.0,0.0,0.7749900000000001,0.47088,9.819809999999999
6055555495,21.97,0.0,0.0,0.0,0.73575,0.48069000000000006,9.81
6060606000,21.97,0.0,0.0,0.0,0.75537,0.47088,9.819809999999999
6065656505,21.97,0.0,0.0,0.0,0.73575,0.48069000000000006,9.86886
6070707010,21.97,0.0,0.0,0.0,0.7651800000000001,0.51012,9.81
6075757515,21.97,0.0,0.0,0.0,0.75537,0.46107000000000004,9.81
6080808020,21.97,0.0,0.0,0.0,0.75537,0.46107000000000004,9.82962
6085858525,21.97,0.0,0.0,0.0,0.7848,0.50031,9.82962
6090909030,21.97,0.0,0.0,0.0,0.75537,0.47088,9.81
6095959535,21.97,0.0,0.0,0.0,0.7651800000000001,0.48069000000000006,9.81
6101010040,21.97,0.0,0.0,0.0,0.74556,0.45126,9.819809999999999
6106060545,21.97,0.0,0.0,0.0,0.7651800000000001,0.45126,9.82962
6111111050,21.97,0.0,0.0,0.0,0.75537,0.48069000000000006,9.81
6116161555,21.97,0.0,0.0,0.0,0.75537,0.48069000000000006,9.83943
6121212060,21.97,0.0,0.0,0.0,0.7749900000000001,0.45126,9.81
6126262565,21.97,0.0,0.0,0.0,0.75537,0.48069000000000006,9.819809999999999
6131313070,21.97,0.0,0.0,0.0,0.74556,0.47088,9.83943
6136363575,21.97,0.0,0.0,0.0,0.75537,0.47088,9.83943
6141414080,21.97,0.0,0.0,0.0,0.74556,0.50031,9.80019
6146464585,21.97,0.0,0.0,0.0,0.7651800000000001,0.48069000000000006,9.80019
6151515090,21.97,0.0,0.0,0.0,0.75537,0.47088,9.81
6156565595,21.97,0.0,0.0,0.0,0.7651800000000001,0.48069000000000006,9.83943
6161616100,21.97,0.0,0.0,0.0,0.75537,0.48069000000000006,9.85905
6166666605,21.97,0.0,0.0,0.0,0.7848,0.47088,9.82962
6171717110,21.97,0.0,0.0,0.0,0.7749900000000001,0.47088,9.81
6176767615,21.97,0.0,0.0,0.0,0.7651800000000001,0.46107000000000004,9.81
6181818120,21.97,0.0,0.0,0.0,0.7651800000000001,0.48069000000000006,9.819809999999999
6186868625,21.97,0.0,0.0,0.0,0.74556,0.45126,9.85905
6191919130,21.97,0.0,0.0,0.0,0.75537,0.46107000000000004,9.82962
6196969635,21.97,0.0,0.0,0.0,0.74556,0.48069000000000006,9.819809999999999
6202020140,21.97,0.0,0.0,0.0,0.7651800000000001,0.49050000000000005,9.83943
6207070645,21.97,0.0,0.0,0.0,0.7749900000000001,0.47088,9.81
6212121150,21.97,0.0,0.0,0.0,0.75537,0.49050000000000005,9.82962
6217171655,21.97,0.0,0.0,0.0,0.7651800000000001,0.48069000000000006,9.84924
6222222160,21.97,0.0,0.0,0.0,0.7651800000000001,0.46107000000000004,9.81
6227272665,21.97,0.0,0.0,0.0,0.71613,0.45126,9.81
6232323170,21.97,0.0,0.0,0.0,0.7749900000000001,0.48069000000000006,9.81
6237373675,21.97,0.0,0.0,0.0,0.74556,0.47088,9.83943
6242424180,21.97,0.0,0.0,0.0,0.7651800000000001,0.49050000000000005,9.83943
6247474685,21.97,0.0,0.0,0.0,0.7749900000000001,0.46107000000000004,9.81
6252525190,21.97,0.0,0.0,0.0,0.7651800000000001,0.47088,9.83943
6257575695,21.97,0.0,0.0,0.0,0.75537,0.48069000000000006,9.819809999999999
6262626200,21.97,0.0,0.0,0.0,0.7651800000000001,0.48069000000000006,9.819809999999999
6267676705,21.97,0.0,0.0,0.0,0.7749900000000001,0.49050000000000005,9.81
6272727210,21.97,0.0,0.0,0.0,0.7848,0.46107000000000004,9.81
6277777715,21.97,0.0,0.0,0.0,0.7651800000000001,0.48069000000000006,9.81
6282828220,21.97,0.0,0.0,0.0,0.7651800000000001,0.47088,9.819809999999999
6287878725,21.97,0.0,0.0,0.0,0.7651800000000001,0.46107000000000004,9.82962
6292929230,21.97,0.0,0.0,0.0,0.73575,0.47088,9.81
6297979735,21.97,0.0,0.0,0.0,0.73575,0.48069000000000006,9.81
6303030240,21.97,0.0,0.0,0.0,0.75537,0.50031,9.83943
6308080745,21.97,0.0,0.0,0.0,0.7651800000000001,0.47088,9.82962
6313131250,21.97,0.0,0.0,0.0,0.7749900000000001,0.48069000000000006,9.85905
6318181755,21.97,0.0,0.0,0.0,0.73575,0.45126,9.819809999999999
6323232260,21.97,0.0,0.0,0.0,0.7651800000000001,0.47088,9.80019
6328282765,21.97,0.0,0.0,0.0,0.7651800000000001,0.48069000000000006,9.80019
6333333270,21.97,0.0,0.0,0.0,0.7651800000000001,0.49050000000000005,9.819809999999999
6338383775,21.97,0.0,0.0,0.0,0.74556,0.47088,9.80019
6343434280,21.97,0.0,0.0,0.0,0.75537,0.46107000000000004,9.819809999999999
6348484785,21.97,0.0,0.0,0.0,0.74556,0.44145,9.82962
6353535290,21.97,0.0,0.0,0.0,0.74556,0.47088,9.83943
6358585795,21.97,0.0,0.0,0.0,0.7651800000000001,0.48069000000000006,9.81
6363636300,21.97,0.0,0.0,0.0,0.7749900000000001,0.46107000000000004,9.81
6368686805,21.97,0.0,0.0,0.0,0.75537,0.47088,9.83943
6373737310,21.97,0.0,0.0,0.0,0.7749900000000001,0.48069000000000006,9.819809999999999
6378787815,21.97,0.0,0.0,0.0,0.7749900000000001,0.46107000000000004,9.81
6383838320,21.97,0.0,0.0,0.0,0.7651800000000001,0.47088,9.83943
6388888825,21.97,0.0,0.0,0.0,0.75537,0.49050000000000005,9.84924
6393939330,21.97,0.0,0.0,0.0,0.74556,0.48069000000000006,9.82962
6398989835,21.97,0.0,0.0,0.0,0.74556,0.48069000000000006,9.80019
6404040340,21.97,0.0,0.0,0.0,0.74556,0.46107000000000004,9.81
6409090845,21.97,0.0,0.0,0.0,0.7651800000000001,0.49050000000000005,9.82962
6414141350,21.97,0.0,0.0,0.0,0.7651800000000001,0.48069000000000006,9.83943
6419191855,21.97,0.0,0.0,0.0,0.7651800000000001,0.48069000000000006,9.86886
6424242360,21.97,0.0,0.0,0.0,0.7749900000000001,0.49050000000000005,9.81
6429292865,21.97,0.0,0.0,0.0,0.73575,0.47088,9.81
6434343370,21.97,0.0,0.0,0.0,0.74556,0.49050000000000005,9.81
6439393875,21.97,0.0,0.0,0.0,0.75537,0.47088,9.81
6444444380,21.97,0.0,0.0,0.0,0.7651800000000001,0.46107000000000004,9.84924
6449494885,21.97,0.0,0.0,0.0,0.79461,0.48069000000000006,9.84924
6454545390,21.97,0.0,0.0,0.0,0.7749900000000001,0.48069000000000006,9.81
6459595895,21.97,0.0,0.0,0.0,0.7651800000000001,0.47088,9.81
6464646400,21.97,0.0,0.0,0.0,0.74556,0.49050000000000005,9.79038
6469696905,21.97,0.0,0.0,0.0,0.7651800000000001,0.47088,9.80019
6474747410,21.97,0.0,0.0,0.0,0.7651800000000001,0.47088,9.85905
6479797915,21.97,0.0,0.0,0.0,0.74556,0.49050000000000005,9.82962
6484848420,21.97,0.0,0.0,0.0,0.7749900000000001,0.48069000000000006,9.85905
6489898925,21.97,0.0,0.0,0.0,0.74556,0.49050000000000005,9.80019
6494949430,21.97,0.0,0.0,0.0,0.74556,0.43164,9.81
6499999935,21.97,0.0,0.0,0.0,0.73575,0.48069000000000006,9.81
6505050440,21.97,0.0,0.0,0.0,0.7651800000000001,0.49050000000000005,9.82962
6510100945,21.97,0.0,0.0,0.0,0.7848,0.48069000000000006,9.85905
6515151450,21.97,0.0,0.0,0.0,0.75537,0.51012,9.819809999999999
6520201955,21.97,0.0,0.0,0.0,0.74556,0.46107000000000004,9.819809999999999
6525252460,21.97,0.0,0.0,0.0,0.74556,0.46107000000000004,9.82962
6530302965,21.97,0.0,0.0,0.0,0.75537,0.49050000000000005,9.82962
6535353470,21.97,0.0,0.0,0.0,0.75537,0.46107000000000004,9.84924
6540403975,21.97,0.0,0.0,0.0,0.74556,0.48069000000000006,9.84924
6545454480,21.97,0.0,0.0,0.0,0.79461,0.49050000000000005,9.81
6550504985,21.97,0.0,0.0,0.0,0.74556,0.46107000000000004,9.819809999999999
6555555490,21.97,0.0,0.0,0.0,0.7651800000000001,0.49050000000000005,9.82962
6560605995,21.97,0.0,0.0,0.0,0.7651800000000001,0.47088,9.819809999999999
6565656500,21.97,0.0,0.0,0.0,0.7651800000000001,0.48069000000000006,9.84924
6570707005,21.97,0.0,0.0,0.0,0.75537,0.48069000000000006,9.81
6575757510,21.97,0.0,0.0,0.0,0.72594,0.47088,9.819809999999999
6580808015,21.97,0.0,0.0,0.0,0.7651800000000001,0.45126,9.819809999999999
6585858520,21.97,0.0,0.0,0.0,0.7749900000000001,0.48069000000000006,9.819809999999999
6590909025,21.97,0.0,0.0,0.0,0.73575,0.46107000000000004,9.819809999999999
6595959530,21.97,0.0,0.0,0.0,0.74556,0.47088,9.83943
6601010035,21.97,0.0,0.0,0.0,0.7848,0.47088,9.80019
6606060540,21.97,0.0,0.0,0.0,0.79461,0.48069000000000006,9.83943
6611111045,21.97,0.0,0.0,0.0,0.7651800000000001,0.46107000000000004,9.87867
6616161550,21.97,0.0,0.0,0.0,0.75537,0.46107000000000004,9.84924
6621212055,21.97,0.0,0.0,0.0,0.75537,0.49050000000000005,9.819809999999999
6626262560,21.97,0.0,0.0,0.0,0.75537,0.49050000000000005,9.81
6631313065,21.97,0.0,0.0,0.0,0.75537,0.47088,9.80019
6636363570,21.97,0.0,0.0,0.0,0.7848,0.48069000000000006,9.84924
6641414075,21.97,0.0,0.0,0.0,0.73575,0.47088,9.83943
6646464580,21.97,0.0,0.0,0.0,0.73575,0.50031,9.83943
6651515085,21.97,0.0,0.0,0.0,0.75537,0.50031,9.81
6656565590,21.97,0.0,0.0,0.0,0.75537,0.47088,9.82962
6661616095,21.97,0.0,0.0,0.0,0.75537,0.45126,9.81
6666666600,21.97,0.0,0.0,0.0,0.74556,0.47088,9.80019
6671717105,21.97,0.0,0.0,0.0,0.7749900000000001,0.47088,9.82962
6676767610,21.97,0.0,0.0,0.0,0.7848,0.49050000000000005,9.819809999999999
6681818115,21.97,0.0,0.0,0.0,0.74556,0.48069000000000006,9.83943
6686868620,21.97,0.0,0.0,0.0,0.7848,0.48069000000000006,9.819809999999999
6691919125,21.97,0.0,0.0,0.0,0.72594,0.47088,9.83943
6696969630,21.97,0.0,0.0,0.0,0.73575,0.48069000000000006,9.80019
6702020135,21.97,0.0,0.0,0.0,0.73575,0.46107000000000004,9.80019
6707070640,21.97,0.0,0.0,0.0,0.7749900000000001,0.49050000000000005,9.82962
6712121145,21.97,0.0,0.0,0.0,0.7749900000000001,0.47088,9.83943
6717171650,21.97,0.0,0.0,0.0,0.7651800000000001,0.47088,9.87867
6722222155,21.97,0.0,0.0,0.0,0.72594,0.47088,9.81
6727272660,21.97,0.0,0.0,0.0,0.7749900000000001,0.49050000000000005,9.81
6732323165,21.97,0.0,0.0,0.0,0.74556,0.46107000000000004,9.84924
6737373670,21.97,0.0,0.0,0.0,0.7749900000000001,0.48069000000000006,9.84924
6742424175,21.97,0.0,0.0,0.0,0.7749900000000001,0.48069000000000006,9.819809999999999
6747474680,21.97,0.0,0.0,0.0,0.7651800000000001,0.49050000000000005,9.819809999999999
6752525185,21.97,0.0,0.0,0.0,0.7651800000000001,0.47088,9.78057
6757575690,21.97,0.0,0.0,0.0,0.74556,0.47088,9.79038
6762626195,21.97,0.0,0.0,0.0,0.7749900000000001,0.48069000000000006,9.85905
6767676700,21.97,0.0,0.0,0.0,0.75537,0.48069000000000006,9.84924
6772727205,21.97,0.0,0.0,0.0,0.7651800000000001,0.49050000000000005,9.83943
6777777710,21.97,0.0,0.0,0.0,0.7749900000000001,0.48069000000000006,9.82962
6782828215,21.97,0.0,0.0,0.0,0.7651800000000001,0.49050000000000005,9.80019
6787878720,21.97,0.0,0.0,0.0,0.7651800000000001,0.48069000000000006,9.80019
6792929225,21.97,0.0,0.0,0.0,0.7848,0.46107000000000004,9.819809999999999
6797979730,21.97,0.0,0.0,0.0,0.7749900000000001,0.46107000000000004,9.87867
6803030235,21.97,0.0,0.0,0.0,0.73575,0.46107000000000004,9.82962
6808080740,21.97,0.0,0.0,0.0,0.73575,0.47088,9.81
6813131245,21.97,0.0,0.0,0.0,0.7651800000000001,0.48069000000000006,9.819809999999999
6818181750,21.97,0.0,0.0,0.0,0.75537,0.46107000000000004,9.83943
6823232255,21.97,0.0,0.0,0.0,0.7651800000000001,0.48069000000000006,9.83943
6828282760,21.97,0.0,0.0,0.0,0.74556,0.46107000000000004,9.84924
6833333265,21.97,0.0,0.0,0.0,0.7651800000000001,0.49050000000000005,9.82962
6838383770,21.97,0.0,0.0,0.0,0.7749900000000001,0.49050000000000005,9.81
6843434275,21.97,0.0,0.0,0.0,0.7749900000000001,0.48069000000000006,9.819809999999999
6848484780,21.97,0.0,0.0,0.0,0.7848,0.49050000000000005,9.85905
6853535285,21.97,0.0,0.0,0.0,0.7848,0.47088,9.86886
6858585790,21.97,0.0,0.0,0.0,0.7651800000000001,0.45126,9.81
6863636295,21.97,0.0,0.0,0.0,0.7749900000000001,0.46107000000000004,9.819809999999999
6868686800,21.97,0.0,0.0,0.0,0.74556,0.47088,9.81
6873737305,21.97,0.0,0.0,0.0,0.7651800000000001,0.47088,9.819809999999999
6878787810,21.97,0.0,0.0,0.0,0.7651800000000001,0.48069000000000006,9.82962
6883838315,21.97,0.0,0.0,0.0,0.7651800000000001,0.49050000000000005,9.819809999999999
6888888820,21.97,0.0,0.0,0.0,0.74556,0.49050000000000005,9.819809999999999
6893939325,21.97,0.0,0.0,0.0,0.75537,0.46107000000000004,9.81
6898989830,21.97,0.0,0.0,0.0,0.7651800000000001,0.47088,9.819809999999999
6904040335,21.97,0.0,0.0,0.0,0.74556,0.48069000000000006,9.819809999999999
6909090840,21.97,0.0,0.0,0.0,0.7651800000000001,0.49050000000000005,9.82962
6914141345,21.97,0.0,0.0,0.0,0.75537,0.47088,9.82962
6919191850,21.97,0.0,0.0,0.0,0.75537,0.46107000000000004,9.819809999999999
6924242355,21.97,0.0,0.0,0.0,0.7651800000000001,0.47088,9.83943
6929292860,21.97,0.0,0.0,0.0,0.75537,0.47088,9.81
6934343365,21.97,0.0,0.0,0.0,0.74556,0.49050000000000005,9.82962
6939393870,21.97,0.0,0.0,0.0,0.7651800000000001,0.49050000000000005,9.84924
6944444375,21.97,0.0,0.0,0.0,0.75537,0.47088,9.81
6949494880,21.97,0.0,0.0,0.0,0.74556,0.45126,9.82962
6954545385,21.97,0.0,0.0,0.0,0.75537,0.48069000000000006,9.81
6959595890,21.97,0.0,0.0,0.0,0.7749900000000001,0.48069000000000006,9.81
6964646395,21.97,0.0,0.0,0.0,0.7651800000000001,0.44145,9.84924
6969696900,21.97,0.0,0.0,0.0,0.7848,0.47088,9.819809999999999
6974747405,21.97,0.0,0.0,0.0,0.75537,0.48069000000000006,9.819809999999999
6979797910,21.97,0.0,0.0,0.0,0.75537,0.47088,9.80019
6984848415,21.97,0.0,0.0,0.0,0.7651800000000001,0.44145,9.81
6989898920,21.97,0.0,0.0,0.0,0.7848,0.49050000000000005,9.82962
6994949425,21.97,0.0,0.0,0.0,0.75537,0.47088,9.85905
6999999930,21.97,0.0,0.0,0.0,0.74556,0.48069000000000006,9.85905
7005050435,21.97,0.0,0.0,0.0,0.74556,0.51993,9.80019
7010100940,21.97,0.0,0.0,0.0,0.74556,0.48069000000000006,9.80019
7015151445,21.97,0.0,0.0,0.0,0.75537,0.49050000000000005,9.80019
7020201950,21.97,0.0,0.0,0.0,0.7848,0.48069000000000006,9.83943
7025252455,21.97,0.0,0.0,0.0,0.75537,0.49050000000000005,9.86886
7030302960,21.97,0.0,0.0,0.0,0.75537,0.48069000000000006,9.82962
7035353465,21.97,0.0,0.0,0.0,0.74556,0.46107000000000004,9.79038
7040403970,21.97,0.0,0.0,0.0,0.7651800000000001,0.45126,9.770760000000001
7045454475,21.97,0.0,0.0,0.0,0.74556,0.48069000000000006,9.82962
7050504980,21.97,0.0,0.0,0.0,0.75537,0.47088,9.85905
7055555485,21.97,0.0,0.0,0.0,0.7651800000000001,0.47088,9.84924
7060605990,21.97,0.0,0.0,0.0,0.74556,0.47088,9.82962
7065656495,21.97,0.0,0.0,0.0,0.74556,0.46107000000000004,9.79038
7070707000,21.97,0.0,0.0,0.0,0.7651800000000001,0.49050000000000005,9.81
7075757505,21.97,0.0,0.0,0.0,0.75537,0.48069000000000006,9.819809999999999
7080808010,21.97,0.0,0.0,0.0,0.75537,0.50031,9.84924
7085858515,21.97,0.0,0.0,0.0,0.7749900000000001,0.46107000000000004,9.82962
7090909020,21.97,0.0,0.0,0.0,0.75537,0.49050000000000005,9.81
7095959525,21.97,0.0,0.0,0.0,0.7651800000000001,0.47088,9.819809999999999
7101010030,21.97,0.0,0.0,0.0,0.7651800000000001,0.49050000000000005,9.83943
7106060535,21.97,0.0,0.0,0.0,0.7749900000000001,0.48069000000000006,9.82962
7111111040,21.97,0.0,0.0,0.0,0.7651800000000001,0.46107000000000004,9.81
7116161545,21.97,0.0,0.0,0.0,0.7749900000000001,0.47088,9.819809999999999
7121212050,21.97,0.0,0.0,0.0,0.7651800000000001,0.45126,9.80019
7126262555,21.97,0.0,0.0,0.0,0.7848,0.47088,9.82962
7131313060,21.97,0.0,0.0,0.0,0.7651800000000001,0.46107000000000004,9.83943
7136363565,21.97,0.0,0.0,0.0,0.75537,0.46107000000000004,9.81
7141414070,21.97,0.0,0.0,0.0,0.75537,0.46107000000000004,9.80019
7146464575,21.97,0.0,0.0,0.0,0.74556,0.47088,9.81
7151515080,21.97,0.0,0.0,0.0,0.79461,0.48069000000000006,9.83943
7156565585,21.97,0.0,0.0,0.0,0.75537,0.49050000000000005,9.82962
7161616090,21.97,0.0,0.0,0.0,0.7651800000000001,0.47088,9.819809999999999
7166666595,21.97,0.0,0.0,0.0,0.7651800000000001,0.46107000000000004,9.82962
7171717100,21.97,0.0,0.0,0.0,0.74556,0.48069000000000006,9.82962
7176767605,21.97,0.0,0.0,0.0,0.80442,0.48069000000000006,9.82962
7181818110,21.97,0.0,0.0,0.0,0.7651800000000001,0.45126,9.85905
7186868615,21.97,0.0,0.0,0.0,0.7651800000000001,0.48069000000000006,9.81
7191919120,21.97,0.0,0.0,0.0,0.75537,0.50031,9.82962
7196969625,21.97,0.0,0.0,0.0,0.75537,0.47088,9.819809999999999
7202020130,21.97,0.0,0.0,0.0,0.74556,0.49050000000000005,9.84924
7207070635,21.97,0.0,0.0,0.0,0.75537,0.48069000000000006,9.81
7212121140,21.97,0.0,0.0,0.0,0.7651800000000001,0.46107000000000004,9.819809999999999
7217171645,21.97,0.0,0.0,0.0,0.74556,0.48069000000000006,9.81
7222222150,21.97,0.0,0.0,0.0,0.74556,0.46107000000000004,9.83943
7227272655,21.97,0.0,0.0,0.0,0.75537,0.48069000000000006,9.87867
7232323160,21.97,0.0,0.0,0.0,0.73575,0.48069000000000006,9.82962
7237373665,21.97,0.0,0.0,0.0,0.75537,0.46107000000000004,9.78057
7242424170,21.97,0.0,0.0,0.0,0.7651800000000001,0.47088,9.79038
7247474675,21.97,0.0,0.0,0.0,0.7749900000000001,0.49050000000000005,9.83943
7252525180,21.97,0.0,0.0,0.0,0.75537,0.47088,9.86886
7257575685,21.97,0.0,0.0,0.0,0.7651800000000001,0.49050000000000005,9.83943
7262626190,21.97,0.0,0.0,0.0,0.7651800000000001,0.48069000000000006,9.78057
7267676695,21.97,0.0,0.0,0.0,0.74556,0.47088,9.79038
7272727200,21.97,0.0,0.0,0.0,0.7749900000000001,0.48069000000000006,9.86886
7277777705,21.97,0.0,0.0,0.0,0.74556,0.47088,9.85905
7282828210,21.97,0.0,0.0,0.0,0.7651800000000001,0.50031,9.84924
7287878715,21.97,0.0,0.0,0.0,0.7651800000000001,0.47088,9.79038
7292929220,21.97,0.0,0.0,0.0,0.7651800000000001,0.45126,9.79038
7297979725,21.97,0.0,0.0,0.0,0.7651800000000001,0.46107000000000004,9.82962
7303030230,21.97,0.0,0.0,0.0,0.75537,0.47088,9.82962
7308080735,21.97,0.0,0.0,0.0,0.7651800000000001,0.48069000000000006,9.82962
7313131240,21.97,0.0,0.0,0.0,0.74556,0.47088,9.819809999999999
7318181745,21.97,0.0,0.0,0.0,0.75537,0.48069000000000006,9.83943
7323232250,21.97,0.0,0.0,0.0,0.7651800000000001,0.48069000000000006,9.83943
7328282755,21.97,0.0,0.0,0.0,0.7749900000000001,0.45126,9.83943
7333333260,21.97,0.0,0.0,0.0,0.7651800000000001,0.47088,9.83943
7338383765,21.97,0.0,0.0,0.0,0.7848,0.47088,9.80019
7343434270,21.97,0.0,0.0,0.0,0.7749900000000001,0.47088,9.819809999999999
7348484775,21.97,0.0,0.0,0.0,0.7749900000000001,0.48069000000000006,9.85905
7353535280,21.97,0.0,0.0,0.0,0.75537,0.47088,9.85905
7358585785,21.97,0.0,0.0,0.0,0.7651800000000001,0.48069000000000006,9.819809999999999
7363636290,21.97,0.0,0.0,0.0,0.75537,0.47088,9.82962
7368686795,21.97,0.0,0.0,0.0,0.75537,0.44145,9.81
7373737300,21.97,0.0,0.0,0.0,0.75537,0.48069000000000006,9.82962
7378787805,21.97,0.0,0.0,0.0,0.75537,0.49050000000000005,9.82962
7383838310,21.97,0.0,0.0,0.0,0.7848,0.49050000000000005,9.819809999999999
7388888815,21.97,0.0,0.0,0.0,0.7651800000000001,0.49050000000000005,9.819809999999999
7393939320,21.97,0.0,0.0,0.0,0.7749900000000001,0.48069000000000006,9.80019
7398989825,21.97,0.0,0.0,0.0,0.75537,0.46107000000000004,9.81
7404040330,21.97,0.0,0.0,0.0,0.75537,0.47088,9.84924
7409090835,21.97,0.0,0.0,0.0,0.75537,0.48069000000000006,9.819809999999999
7414141340,21.97,0.0,0.0,0.0,0.7651800000000001,0.47088,9.80019
7419191845,21.97,0.0,0.0,0.0,0.7749900000000001,0.49050000000000005,9.819809999999999
7424242350,21.97,0.0,0.0,0.0,0.7848,0.49050000000000005,9.82962
7429292855,21.97,0.0,0.0,0.0,0.7651800000000001,0.46107000000000004,9.83943
7434343360,21.97,0.0,0.0,0.0,0.7651800000000001,0.45126,9.819809999999999
7439393865,21.97,0.0,0.0,0.0,0.75537,0.48069000000000006,9.82962
7444444370,21.97,0.0,0.0,0.0,0.74556,0.47088,9.819809999999999
7449494875,21.97,0.0,0.0,0.0,0.7749900000000001,0.48069000000000006,9.84924
7454545380,21.97,0.0,0.0,0.0,0.73575,0.46107000000000004,9.87867
7459595885,21.97,0.0,0.0,0.0,0.74556,0.47088,9.819809999999999
7464646390,21.97,0.0,0.0,0.0,0.75537,0.45126,9.79038
7469696895,21.97,0.0,0.0,0.0,0.7651800000000001,0.46107000000000004,9.81
7474747400,21.97,0.0,0.0,0.0,0.75537,0.48069000000000006,9.84924
7479797905,21.97,0.0,0.0,0.0,0.75537,0.49050000000000005,9.84924
7484848410,21.97,0.0,0.0,0.0,0.7651800000000001,0.48069000000000006,9.82962
7489898915,21.97,0.0,0.0,0.0,0.75537,0.49050000000000005,9.80019
7494949420,21.97,0.0,0.0,0.0,0.7651800000000001,0.47088,9.78057
7499999925,21.97,0.0,0.0,0.0,0.75537,0.46107000000000004,9.84924
7505050430,21.97,0.0,0.0,0.0,0.7651800000000001,0.45126,9.82962
7510100935,21.97,0.0,0.0,0.0,0.75537,0.49050000000000005,9.83943
7515151440,21.97,0.0,0.0,0.0,0.7749900000000001,0.47088,9.79038
7520201945,21.97,0.0,0.0,0.0,0.73575,0.50031,9.819809999999999
7525252450,21.97,0.0,0.0,0.0,0.7651800000000001,0.47088,9.819809999999999
7530302955,21.97,0.0,0.0,0.0,0.75537,0.47088,9.83943
7535353460,21.97,0.0,0.0,0.0,0.7749900000000001,0.46107000000000004,9.819809999999999
7540403965,21.97,0.0,0.0,0.0,0.7749900000000001,0.47088,9.82962
7545454470,21.97,0.0,0.0,0.0,0.7651800000000001,0.47088,9.81
7550504975,21.97,0.0,0.0,0.0,0.74556,0.48069000000000006,9.81
7555555480,21.97,0.0,0.0,0.0,0.73575,0.48069000000000006,9.83943
7560605985,21.97,0.0,0.0,0.0,0.75537,0.48069000000000006,9.80019
7565656490,21.97,0.0,0.0,0.0,0.75537,0.48069000000000006,9.80019
7570706995,21.97,0.0,0.0,0.0,0.7749900000000001,0.48069000000000006,9.83943
7575757500,21.97,0.0,0.0,0.0,0.75537,0.47088,9.85905
7580808005,21.97,0.0,0.0,0.0,0.7749900000000001,0.47088,9.84924
7585858510,21.97,0.0,0.0,0.0,0.75537,0.49050000000000005,9.81
7590909015,21.97,0.0,0.0,0.0,0.75537,0.47088,9.81
7595959520,21.97,0.0,0.0,0.0,0.74556,0.48069000000000006,9.82962
7601010025,21.97,0.0,0.0,0.0,0.7651800000000001,0.47088,9.86886
7606060530,21.97,0.0,0.0,0.0,0.7651800000000001,0.48069000000000006,9.83943
7611111035,21.97,0.0,0.0,0.0,0.75537,0.47088,9.82962
7616161540,21.97,0.0,0.0,0.0,0.79461,0.48069000000000006,9.80019
7621212045,21.97,0.0,0.0,0.0,0.7848,0.49050000000000005,9.80019
7626262550,21.97,0.0,0.0,0.0,0.7749900000000001,0.47088,9.85905
7631313055,21.97,0.0,0.0,0.0,0.7651800000000001,0.47088,9.86886
7636363560,21.97,0.0,0.0,0.0,0.80442,0.49050000000000005,9.82962
7641414065,21.97,0.0,0.0,0.0,0.75537,0.49050000000000005,9.819809999999999
7646464570,21.97,0.0,0.0,0.0,0.74556,0.46107000000000004,9.80019
7651515075,21.97,0.0,0.0,0.0,0.75537,0.48069000000000006,9.82962
7656565580,21.97,0.0,0.0,0.0,0.7651800000000001,0.49050000000000005,9.84924
7661616085,21.97,0.0,0.0,0.0,0.7749900000000001,0.47088,9.84924
7666666590,21.97,0.0,0.0,0.0,0.7749900000000001,0.47088,9.82962
7671717095,21.97,0.0,0.0,0.0,0.7651800000000001,0.46107000000000004,9.81
7676767600,21.97,0.0,0.0,0.0,0.7749900000000001,0.48069000000000006,9.84924
7681818105,21.97,0.0,0.0,0.0,0.75537,0.50031,9.81
7686868610,21.97,0.0,0.0,0.0,0.7651800000000001,0.48069000000000006,9.82962
7691919115,21.97,0.0,0.0,0.0,0.75537,0.48069000000000006,9.83943
7696969620,21.97,0.0,0.0,0.0,0.7848,0.47088,9.81
7702020125,21.97,0.0,0.0,0.0,0.75537,0.46107000000000004,9.85905
7707070630,21.97,0.0,0.0,0.0,0.7848,0.45126,9.84924
7712121135,21.97,0.0,0.0,0.0,0.74556,0.47088,9.83943
7717171640,21.97,0.0,0.0,0.0,0.73575,0.47088,9.819809999999999
7722222145,21.97,0.0,0.0,0.0,0.7749900000000001,0.47088,9.82962
7727272650,21.97,0.0,0.0,0.0,0.7749900000000001,0.48069000000000006,9.84924
7732323155,21.97,0.0,0.0,0.0,0.7651800000000001,0.47088,9.819809999999999
7737373660,21.97,0.0,0.0,0.0,0.7651800000000001,0.47088,9.82962
7742424165,21.97,0.0,0.0,0.0,0.75537,0.46107000000000004,9.81
7747474670,21.97,0.0,0.0,0.0,0.72594,0.48069000000000006,9.81
7752525175,21.97,0.0,0.0,0.0,0.7749900000000001,0.46107000000000004,9.81
7757575680,21.97,0.0,0.0,0.0,0.73575,0.46107000000000004,9.819809999999999
7762626185,21.97,0.0,0.0,0.0,0.7749900000000001,0.47088,9.82962
7767676690,21.97,0.0,0.0,0.0,0.74556,0.47088,9.819809999999999
7772727195,21.97,0.0,0.0,0.0,0.7848,0.47088,9.83943
7777777700,21.97,0.0,0.0,0.0,0.71613,0.47088,9.81
7782828205,21.97,0.0,0.0,0.0,0.75537,0.47088,9.819809999999999
7787878710,21.97,0.0,0.0,0.0,0.73575,0.46107000000000004,9.79038
7792929215,21.97,0.0,0.0,0.0,0.7651800000000001,0.48069000000000006,9.82962
7797979720,21.97,0.0,0.0,0.0,0.74556,0.48069000000000006,9.819809999999999
7803030225,21.97,0.0,0.0,0.0,0.75537,0.49050000000000005,9.83943
7808080730,21.97,0.0,0.0,0.0,0.7749900000000001,0.48069000000000006,9.81
7813131235,21.97,0.0,0.0,0.0,0.7651800000000001,0.49050000000000005,9.819809999999999
7818181740,21.97,0.0,0.0,0.0,0.7749900000000001,0.49050000000000005,9.819809999999999
7823232245,21.97,0.0,0.0,0.0,0.80442,0.48069000000000006,9.83943
7828282750,21.97,0.0,0.0,0.0,0.7749900000000001,0.50031,9.84924
7833333255,21.97,0.0,0.0,0.0,0.75537,0.48069000000000006,9.84924
7838383760,21.97,0.0,0.0,0.0,0.74556,0.48069000000000006,9.819809999999999
7843434265,21.97,0.0,0.0,0.0,0.74556,0.48069000000000006,9.81
7848484770,21.97,0.0,0.0,0.0,0.75537,0.47088,9.78057
7853535275,21.97,0.0,0.0,0.0,0.7749900000000001,0.48069000000000006,9.819809999999999
7858585780,21.97,0.0,0.0,0.0,0.75537,0.49050000000000005,9.87867
7863636285,21.97,0.0,0.0,0.0,0.75537,0.47088,9.83943
7868686790,21.97,0.0,0.0,0.0,0.7848,0.49050000000000005,9.82962
7873737295,21.97,0.0,0.0,0.0,0.75537,0.46107000000000004,9.81
7878787800,21.97,0.0,0.0,0.0,0.7651800000000001,0.47088,9.819809999999999
7883838305,21.97,0.0,0.0,0.0,0.74556,0.46107000000000004,9.83943
7888888810,21.97,0.0,0.0,0.0,0.7749900000000001,0.47088,9.85905
7893939315,21.97,0.0,0.0,0.0,0.7651800000000001,0.49050000000000005,9.83943
7898989820,21.97,0.0,0.0,0.0,0.7651800000000001,0.46107000000000004,9.81
7904040325,21.97,0.0,0.0,0.0,0.75537,0.47088,9.819809999999999
7909090830,21.97,0.0,0.0,0.0,0.7651800000000001,0.48069000000000006,9.80019
7914141335,21.97,0.0,0.0,0.0,0.75537,0.47088,9.819809999999999
7919191840,21.97,0.0,0.0,0.0,0.7651800000000001,0.47088,9.81
7924242345,21.97,0.0,0.0,0.0,0.7749900000000001,0.49050000000000005,9.81
7929292850,21.97,0.0,0.0,0.0,0.7651800000000001,0.47088,9.83943
7934343355,21.97,0.0,0.0,0.0,0.7651800000000001,0.45126,9.81
7939393860,21.97,0.0,0.0,0.0,0.7651800000000001,0.46107000000000004,9.83943
7944444365,21.97,0.0,0.0,0.0,0.75537,0.48069000000000006,9.81
7949494870,21.97,0.0,0.0,0.0,0.7651800000000001,0.49050000000000005,9.79038
7954545375,21.97,0.0,0.0,0.0,0.75537,0.46107000000000004,9.81
7959595880,21.97,0.0,0.0,0.0,0.7749900000000001,0.45126,9.83943
7964646385,21.97,0.0,0.0,0.0,0.74556,0.48069000000000006,9.84924
7969696890,21.97,0.0,0.0,0.0,0.7651800000000001,0.49050000000000005,9.81
7974747395,21.97,0.0,0.0,0.0,0.75537,0.49050000000000005,9.81
7979797900,21.97,0.0,0.0,0.0,0.73575,0.49050000000000005,9.81
7984848405,21.97,0.0,0.0,0.0,0.7651800000000001,0.48069000000000006,9.81
7989898910,21.97,0.0,0.0,0.0,0.7651800000000001,0.49050000000000005,9.84924
7994949415,21.97,0.0,0.0,0.0,0.7848,0.49050000000000005,9.83943
7999999920,21.97,0.0,0.0,0.0,0.75537,0.47088,9.84924
8005050425,21.97,0.0,0.0,0.0,0.73575,0.49050000000000005,9.80019
8010100930,21.97,0.0,0.0,0.0,0.73575,0.45126,9.85905
8015151435,21.97,0.0,0.0,0.0,0.75537,0.46107000000000004,9.81
8020201940,21.97,0.0,0.0,0.0,0.75537,0.47088,9.82962
8025252445,21.97,0.0,0.0,0.0,0.75537,0.47088,9.82962
8030302950,21.97,0.0,0.0,0.0,0.75537,0.45126,9.82962
8035353455,21.97,0.0,0.0,0.0,0.7651800000000001,0.48069000000000006,9.819809999999999
8040403960,21.97,0.0,0.0,0.0,0.7651800000000001,0.49050000000000005,9.83943
8045454465,21.97,0.0,0.0,0.0,0.73575,0.48069000000000006,9.82962
8050504970,21.97,0.0,0.0,0.0,0.7651800000000001,0.47088,9.80019
8055555475,21.97,0.0,0.0,0.0,0.7848,0.49050000000000005,9.84924
8060605980,21.97,0.0,0.0,0.0,0.7651800000000001,0.49050000000000005,9.83943
8065656485,21.97,0.0,0.0,0.0,0.7848,0.51012,9.82962
8070706990,21.97,0.0,0.0,0.0,0.7848,0.49050000000000005,9.81
8075757495,21.97,0.0,0.0,0.0,0.75537,0.47088,9.819809999999999
8080808000,21.97,0.0,0.0,0.0,0.7749900000000001,0.46107000000000004,9.82962
8085858505,21.97,0.0,0.0,0.0,0.7651800000000001,0.47088,9.83943
8090909010,21.97,0.0,0.0,0.0,0.74556,0.48069000000000006,9.84924
8095959515,21.97,0.0,0.0,0.0,0.75537,0.48069000000000006,9.819809999999999
8101010020,21.97,0.0,0.0,0.0,0.74556,0.46107000000000004,9.78057
8106060525,21.97,0.0,0.0,0.0,0.7651800000000001,0.48069000000000006,9.81
8111111030,21.97,0.0,0.0,0.0,0.7651800000000001,0.47088,9.86886
8116161535,21.97,0.0,0.0,0.0,0.75537,0.48069000000000006,9.85905
8121212040,21.97,0.0,0.0,0.0,0.7749900000000001,0.47088,9.83943
8126262545,21.97,0.0,0.0,0.0,0.74556,0.47088,9.79038
8131313050,21.97,0.0,0.0,0.0,0.73575,0.46107000000000004,9.80019
8136363555,21.97,0.0,0.0,0.0,0.7749900000000001,0.48069000000000006,9.82962
8141414060,21.97,0.0,0.0,0.0,0.75537,0.47088,9.85905
8146464565,21.97,0.0,0.0,0.0,0.7651800000000001,0.47088,9.888480000000001
8151515070,21.97,0.0,0.0,0.0,0.7848,0.48069000000000006,9.82962
8156565575,21.97,0.0,0.0,0.0,0.74556,0.46107000000000004,9.819809999999999
8161616080,21.97,0.0,0.0,0.0,0.7749900000000001,0.47088,9.819809999999999
8166666585,21.97,0.0,0.0,0.0,0.7749900000000001,0.44145,9.80019
8171717090,21.97,0.0,0.0,0.0,0.7651800000000001,0.45126,9.82962
8176767595,21.97,0.0,0.0,0.0,0.7651800000000001,0.47088,9.82962
8181818100,21.97,0.0,0.0,0.0,0.7749900000000001,0.47088,9.819809999999999
8186868605,21.97,0.0,0.0,0.0,0.7749900000000001,0.48069000000000006,9.81
8191919110,21.97,0.0,0.0,0.0,0.74556,0.46107000000000004,9.83943
8196969615,21.97,0.0,0.0,0.0,0.75537,0.48069000000000006,9.82962
8202020120,21.97,0.0,0.0,0.0,0.75537,0.46107000000000004,9.81
8207070625,21.97,0.0,0.0,0.0,0.79461,0.46107000000000004,9.81
8212121130,21.97,0.0,0.0,0.0,0.7749900000000001,0.48069000000000006,9.82962
8217171635,21.97,0.0,0.0,0.0,0.74556,0.48069000000000006,9.84924
8222222140,21.97,0.0,0.0,0.0,0.75537,0.47088,9.819809999999999
8227272645,21.97,0.0,0.0,0.0,0.73575,0.47088,9.82962
8232323150,21.97,0.0,0.0,0.0,0.75537,0.48069000000000006,9.82962
8237373655,21.97,0.0,0.0,0.0,0.74556,0.46107000000000004,9.82962
8242424160,21.97,0.0,0.0,0.0,0.7651800000000001,0.48069000000000006,9.83943
8247474665,21.97,0.0,0.0,0.0,0.7749900000000001,0.48069000000000006,9.819809999999999
8252525170,21.97,0.0,0.0,0.0,0.75537,0.50031,9.819809999999999
8257575675,21.97,0.0,0.0,0.0,0.75537,0.48069000000000006,9.80019
8262626180,21.97,0.0,0.0,0.0,0.7651800000000001,0.48069000000000006,9.82962
8267676685,21.97,0.0,0.0,0.0,0.74556,0.48069000000000006,9.81
8272727190,21.97,0.0,0.0,0.0,0.7651800000000001,0.48069000000000006,9.82962
8277777695,21.97,0.0,0.0,0.0,0.7651800000000001,0.47088,9.81
8282828200,21.97,0.0,0.0,0.0,0.7749900000000001,0.47088,9.81
8287878705,21.97,0.0,0.0,0.0,0.7749900000000001,0.50031,9.82962
8292929210,21.97,0.0,0.0,0.0,0.7651800000000001,0.47088,9.84924
8297979715,21.97,0.0,0.0,0.0,0.75537,0.48069000000000006,9.819809999999999
8303030220,21.97,0.0,0.0,0.0,0.7651800000000001,0.48069000000000006,9.82962
8308080725,21.97,0.0,0.0,0.0,0.7749900000000001,0.46107000000000004,9.83943
8313131230,21.97,0.0,0.0,0.0,0.7651800000000001,0.48069000000000006,9.819809999999999
8318181735,21.97,0.0,0.0,0.0,0.7651800000000001,0.46107000000000004,9.83943
8323232240,21.97,0.0,0.0,0.0,0.7651800000000001,0.47088,9.80019
8328282745,21.97,0.0,0.0,0.0,0.75537,0.45126,9.78057
8333333250,21.97,0.0,0.0,0.0,0.75537,0.47088,9.819809999999999
8338383755,21.97,0.0,0.0,0.0,0.7749900000000001,0.46107000000000004,9.84924
8343434260,21.97,0.0,0.0,0.0,0.74556,0.48069000000000006,9.82962
8348484765,21.97,0.0,0.0,0.0,0.74556,0.47088,9.83943
8353535270,21.97,0.0,0.0,0.0,0.74556,0.49050000000000005,9.82962
8358585775,21.97,0.0,0.0,0.0,0.73575,0.50031,9.81
8363636280,21.97,0.0,0.0,0.0,0.7651800000000001,0.47088,9.83943
8368686785,21.97,0.0,0.0,0.0,0.7749900000000001,0.47088,9.83943
8373737290,21.97,0.0,0.0,0.0,0.7651800000000001,0.45126,9.83943
8378787795,21.97,0.0,0.0,0.0,0.7749900000000001,0.49050000000000005,9.819809999999999
8383838300,21.97,0.0,0.0,0.0,0.75537,0.49050000000000005,9.82962
8388888805,21.97,0.0,0.0,0.0,0.74556,0.50031,9.81
8393939310,21.97,0.0,0.0,0.0,0.7651800000000001,0.44145,9.81
8398989815,21.97,0.0,0.0,0.0,0.7749900000000001,0.47088,9.81
8404040320,21.97,0.0,0.0,0.0,0.7651800000000001,0.45126,9.819809999999999
8409090825,21.97,0.0,0.0,0.0,0.79461,0.46107000000000004,9.83943
8414141330,21.97,0.0,0.0,0.0,0.75537,0.48069000000000006,9.84924
8419191835,21.97,0.0,0.0,0.0,0.74556,0.48069000000000006,9.85905
8424242340,21.97,0.0,0.0,0.0,0.75537,0.50031,9.80019
8429292845,21.97,0.0,0.0,0.0,0.7651800000000001,0.46107000000000004,9.80019
8434343350,21.97,0.0,0.0,0.0,0.74556,0.47088,9.84924
8439393855,21.97,0.0,0.0,0.0,0.7848,0.46107000000000004,9.84924
8444444360,21.97,0.0,0.0,0.0,0.7651800000000001,0.46107000000000004,9.86886
8449494865,21.97,0.0,0.0,0.0,0.7651800000000001,0.47088,9.819809999999999
8454545370,21.97,0.0,0.0,0.0,0.75537,0.46107000000000004,9.79038
8459595875,21.97,0.0,0.0,0.0,0.7749900000000001,0.48069000000000006,9.81
8464646380,21.97,0.0,0.0,0.0,0.7749900000000001,0.47088,9.83943
8469696885,21.97,0.0,0.0,0.0,0.7749900000000001,0.47088,9.86886
8474747390,21.97,0.0,0.0,0.0,0.74556,0.47088,9.82962
8479797895,21.97,0.0,0.0,0.0,0.75537,0.47088,9.81
8484848400,21.97,0.0,0.0,0.0,0.75537,0.46107000000000004,9.819809999999999
8489898905,21.97,0.0,0.0,0.0,0.7651800000000001,0.46107000000000004,9.83943
8494949410,21.97,0.0,0.0,0.0,0.75537,0.48069000000000006,9.86886
8499999915,21.97,0.0,0.0,0.0,0.75537,0.48069000000000006,9.82962
8505050420,21.97,0.0,0.0,0.0,0.7651800000000001,0.50031,9.82962
8510100925,21.97,0.0,0.0,0.0,0.7651800000000001,0.46107000000000004,9.819809999999999
8515151430,21.97,0.0,0.0,0.0,0.7651800000000001,0.49050000000000005,9.81
8520201935,21.97,0.0,0.0,0.0,0.7848,0.50031,9.83943
8525252440,21.97,0.0,0.0,0.0,0.7651800000000001,0.47088,9.81
8530302945,21.97,0.0,0.0,0.0,0.7651800000000001,0.49050000000000005,9.819809999999999
8535353450,21.97,0.0,0.0,0.0,0.75537,0.48069000000000006,9.81
8540403955,21.97,0.0,0.0,0.0,0.7651800000000001,0.47088,9.83943
8545454460,21.97,0.0,0.0,0.0,0.7651800000000001,0.48069000000000006,9.84924
8550504965,21.97,0.0,0.0,0.0,0.7651800000000001,0.47088,9.81
8555555470,21.97,0.0,0.0,0.0,0.7749900000000001,0.47088,9.80019
8560605975,21.97,0.0,0.0,0.0,0.7848,0.49050000000000005,9.81
8565656480,21.97,0.0,0.0,0.0,0.7749900000000001,0.45126,9.819809999999999
8570706985,21.97,0.0,0.0,0.0,0.7749900000000001,0.48069000000000006,9.83943
8575757490,21.97,0.0,0.0,0.0,0.7651800000000001,0.50031,9.82962
8580807995,21.97,0.0,0.0,0.0,0.72594,0.48069000000000006,9.81
8585858500,21.97,0.0,0.0,0.0,0.74556,0.49050000000000005,9.81
8590909005,21.97,0.0,0.0,0.0,0.74556,0.48069000000000006,9.81
8595959510,21.97,0.0,0.0,0.0,0.74556,0.50031,9.84924
8601010015,21.97,0.0,0.0,0.0,0.7848,0.44145,9.84924
8606060520,21.97,0.0,0.0,0.0,0.7749900000000001,0.49050000000000005,9.81
8611111025,21.97,0.0,0.0,0.0,0.7749900000000001,0.48069000000000006,9.81
8616161530,21.97,0.0,0.0,0.0,0.7848,0.46107000000000004,9.82962
8621212035,21.97,0.0,0.0,0.0,0.75537,0.47088,9.82962
8626262540,21.97,0.0,0.0,0.0,0.75537,0.49050000000000005,9.83943
8631313045,21.97,0.0,0.0,0.0,0.7651800000000001,0.45126,9.83943
8636363550,21.97,0.0,0.0,0.0,0.75537,0.47088,9.79038
8641414055,21.97,0.0,0.0,0.0,0.7651800000000001,0.46107000000000004,9.81
8646464560,21.97,0.0,0.0,0.0,0.74556,0.45126,9.819809999999999
8651515065,21.97,0.0,0.0,0.0,0.7749900000000001,0.46107000000000004,9.82962
8656565570,21.97,0.0,0.0,0.0,0.7749900000000001,0.48069000000000006,9.82962
8661616075,21.97,0.0,0.0,0.0,0.7651800000000001,0.48069000000000006,9.819809999999999
8666666580,21.97,0.0,0.0,0.0,0.75537,0.48069000000000006,9.81
8671717085,21.97,0.0,0.0,0.0,0.7848,0.47088,9.82962
8676767590,21.97,0.0,0.0,0.0,0.74556,0.48069000000000006,9.819809999999999
8681818095,21.97,0.0,0.0,0.0,0.75537,0.46107000000000004,9.819809999999999
8686868600,21.97,0.0,0.0,0.0,0.74556,0.48069000000000006,9.82962
8691919105,21.97,0.0,0.0,0.0,0.7749900000000001,0.47088,9.83943
8696969610,21.97,0.0,0.0,0.0,0.7749900000000001,0.47088,9.83943
8702020115,21.97,0.0,0.0,0.0,0.7749900000000001,0.45126,9.819809999999999
8707070620,21.97,0.0,0.0,0.0,0.74556,0.47088,9.819809999999999
8712121125,21.97,0.0,0.0,0.0,0.79461,0.47088,9.82962
8717171630,21.97,0.0,0.0,0.0,0.75537,0.47088,9.819809999999999
8722222135,21.97,0.0,0.0,0.0,0.74556,0.46107000000000004,9.83943
8727272640,21.97,0.0,0.0,0.0,0.72594,0.49050000000000005,9.83943
8732323145,21.97,0.0,0.0,0.0,0.79461,0.48069000000000006,9.83943
8737373650,21.97,0.0,0.0,0.0,0.75537,0.45126,9.819809999999999
8742424155,21.97,0.0,0.0,0.0,0.7651800000000001,0.46107000000000004,9.82962
8747474660,21.97,0.0,0.0,0.0,0.75537,0.45126,9.81
8752525165,21.97,0.0,0.0,0.0,0.74556,0.48069000000000006,9.819809999999999
8757575670,21.97,0.0,0.0,0.0,0.7848,0.48069000000000006,9.819809999999999
8762626175,21.97,0.0,0.0,0.0,0.7651800000000001,0.47088,9.819809999999999
8767676680,21.97,0.0,0.0,0.0,0.75537,0.47088,9.85905
8772727185,21.97,0.0,0.0,0.0,0.74556,0.50031,9.85905
8777777690,21.97,0.0,0.0,0.0,0.74556,0.48069000000000006,9.81
8782828195,21.97,0.0,0.0,0.0,0.7749900000000001,0.47088,9.80019
8787878700,21.97,0.0,0.0,0.0,0.74556,0.48069000000000006,9.81
8792929205,21.97,0.0,0.0,0.0,0.7848,0.48069000000000006,9.85905
8797979710,21.97,0.0,0.0,0.0,0.7651800000000001,0.45126,9.82962
8803030215,21.97,0.0,0.0,0.0,0.7651800000000001,0.49050000000000005,9.83943
8808080720,21.97,0.0,0.0,0.0,0.7848,0.49050000000000005,9.81
8813131225,21.97,0.0,0.0,0.0,0.75537,0.47088,9.81
8818181730,21.97,0.0,0.0,0.0,0.75537,0.46107000000000004,9.84924
8823232235,21.97,0.0,0.0,0.0,0.7749900000000001,0.48069000000000006,9.83943
8828282740,21.97,0.0,0.0,0.0,0.7651800000000001,0.47088,9.86886
8833333245,21.97,0.0,0.0,0.0,0.7749900000000001,0.49050000000000005,9.81
8838383750,21.97,0.0,0.0,0.0,0.7848,0.48069000000000006,9.82962
8843434255,21.97,0.0,0.0,0.0,0.7651800000000001,0.49050000000000005,9.84924
8848484760,21.97,0.0,0.0,0.0,0.74556,0.47088,9.84924
8853535265,21.97,0.0,0.0,0.0,0.75537,0.48069000000000006,9.819809999999999
8858585770,21.97,0.0,0.0,0.0,0.73575,0.49050000000000005,9.81
8863636275,21.97,0.0,0.0,0.0,0.7651800000000001,0.48069000000000006,9.83943
8868686780,21.97,0.0,0.0,0.0,0.7749900000000001,0.47088,9.82962
8873737285,21.97,0.0,0.0,0.0,0.75537,0.47088,9.83943
8878787790,21.97,0.0,0.0,0.0,0.7651800000000001,0.46107000000000004,9.819809999999999
8883838295,21.97,0.0,0.0,0.0,0.7651800000000001,0.47088,9.79038
8888888800,21.97,0.0,0.0,0.0,0.7749900000000001,0.50031,9.83943
8893939305,21.97,0.0,0.0,0.0,0.71613,0.47088,9.86886
8898989810,21.97,0.0,0.0,0.0,0.7848,0.50031,9.83943
8904040315,21.97,0.0,0.0,0.0,0.7651800000000001,0.47088,9.819809999999999
8909090820,21.97,0.0,0.0,0.0,0.75537,0.47088,9.81
8914141325,21.97,0.0,0.0,0.0,0.7651800000000001,0.48069000000000006,9.81
8919191830,21.97,0.0,0.0,0.0,0.7651800000000001,0.50031,9.84924
8924242335,21.97,0.0,0.0,0.0,0.7749900000000001,0.48069000000000006,9.83943
8929292840,21.97,0.0,0.0,0.0,0.7651800000000001,0.47088,9.81
8934343345,21.97,0.0,0.0,0.0,0.74556,0.49050000000000005,9.81
8939393850,21.97,0.0,0.0,0.0,0.7749900000000001,0.48069000000000006,9.80019
8944444355,21.97,0.0,0.0,0.0,0.75537,0.47088,9.83943
8949494860,21.97,0.0,0.0,0.0,0.7749900000000001,0.49050000000000005,9.82962
8954545365,21.97,0.0,0.0,0.0,0.75537,0.48069000000000006,9.81
8959595870,21.97,0.0,0.0,0.0,0.75537,0.48069000000000006,9.80019
8964646375,21.97,0.0,0.0,0.0,0.75537,0.47088,9.81
8969696880,21.97,0.0,0.0,0.0,0.7749900000000001,0.46107000000000004,9.84924
8974747385,21.97,0.0,0.0,0.0,0.75537,0.48069000000000006,9.85905
8979797890,21.97,0.0,0.0,0.0,0.7651800000000001,0.48069000000000006,9.819809999999999
8984848395,21.97,0.0,0.0,0.0,0.7651800000000001,0.46107000000000004,9.80019
8989898900,21.97,0.0,0.0,0.0,0.75537,0.46107000000000004,9.82962
8994949405,21.97,0.0,0.0,0.0,0.7651800000000001,0.47088,9.83943
8999999910,21.97,0.0,0.0,0.0,0.7651800000000001,0.49050000000000005,9.83943
9005050415,21.97,0.0,0.0,0.0,0.7651800000000001,0.50031,9.81
9010100920,21.97,0.0,0.0,0.0,0.75537,0.47088,9.819809999999999
9015151425,21.97,0.0,0.0,0.0,0.7651800000000001,0.48069000000000006,9.81
9020201930,21.97,0.0,0.0,0.0,0.7651800000000001,0.47088,9.84924
9025252435,21.97,0.0,0.0,0.0,0.7651800000000001,0.46107000000000004,9.84924
9030302940,21.97,0.0,0.0,0.0,0.75537,0.47088,9.81
9035353445,21.97,0.0,0.0,0.0,0.75537,0.47088,9.80019
9040403950,21.97,0.0,0.0,0.0,0.7651800000000001,0.48069000000000006,9.83943
9045454455,21.97,0.0,0.0,0.0,0.7651800000000001,0.46107000000000004,9.84924
9050504960,21.97,0.0,0.0,0.0,0.74556,0.48069000000000006,9.82962
9055555465,21.97,0.0,0.0,0.0,0.7651800000000001,0.49050000000000005,9.82962
9060605970,21.97,0.0,0.0,0.0,0.7749900000000001,0.48069000000000006,9.81
9065656475,21.97,0.0,0.0,0.0,0.7749900000000001,0.49050000000000005,9.80019
9070706980,21.97,0.0,0.0,0.0,0.7651800000000001,0.50031,9.819809999999999
9075757485,21.97,0.0,0.0,0.0,0.75537,0.48069000000000006,9.819809999999999
9080807990,21.97,0.0,0.0,0.0,0.7651800000000001,0.47088,9.85905
9085858495,21.97,0.0,0.0,0.0,0.74556,0.47088,9.819809999999999
9090909000,21.97,0.0,0.0,0.0,0.74556,0.51012,9.80019
9095959505,21.97,0.0,0.0,0.0,0.75537,0.48069000000000006,9.81
9101010010,21.97,0.0,0.0,0.0,0.7848,0.46107000000000004,9.81
9106060515,21.97,0.0,0.0,0.0,0.7651800000000001,0.48069000000000006,9.819809999999999
9111111020,21.97,0.0,0.0,0.0,0.7651800000000001,0.48069000000000006,9.819809999999999
9116161525,21.97,0.0,0.0,0.0,0.7848,0.47088,9.819809999999999
9121212030,21.97,0.0,0.0,0.0,0.7651800000000001,0.47088,9.82962
9126262535,21.97,0.0,0.0,0.0,0.74556,0.49050000000000005,9.81
9131313040,21.97,0.0,0.0,0.0,0.74556,0.49050000000000005,9.81
9136363545,21.97,0.0,0.0,0.0,0.7651800000000001,0.48069000000000006,9.84924
9141414050,21.97,0.0,0.0,0.0,0.7651800000000001,0.45126,9.83943
9146464555,21.97,0.0,0.0,0.0,0.75537,0.45126,9.819809999999999
9151515060,21.97,0.0,0.0,0.0,0.75537,0.49050000000000005,9.82962
9156565565,21.97,0.0,0.0,0.0,0.7749900000000001,0.50031,9.819809999999999
9161616070,21.97,0.0,0.0,0.0,0.74556,0.47088,9.84924
