#timestamp [ns], temperature [degC], w_RS_S_x [rad s^-1], w_RS_S_y [rad s^-1], w_RS_S_z [rad s^-1], a_RS_S_x [m s^-2], a_RS_S_y [m s^-2], a_RS_S_z [m s^-2]
0.0,21.84,0.0,0.0,0.0,0.34335,0.23544,9.86886
5000000.0,21.84,0.0,0.0,0.0,0.32392619980576204,0.24515190009711899,9.888283800194237
10000000.0,21.84,0.0,0.0,0.0,0.32373,0.24525,9.859638599417286
15000000.0,21.84,0.0,0.0,0.0,0.304698599417286,0.226218599417286,9.878081400582714
20000000.0,21.84,0.0,0.0,0.0,0.32294520077695205,0.253882801165428,9.87867
25000000.0,21.84,0.0,0.0,0.0,0.32373,0.22710149854321499,9.87867
30000000.0,21.84,0.0,0.0,0.0,0.305287198834572,0.244072801165428,9.887891400582713
35000000.0,21.84,0.0,0.0,0.0,0.30411,0.254373300679833,9.88848
40000000.0,21.84,0.0,0.0,0.0,0.33118560233085603,0.25506,9.879454799223048
45000000.0,21.84,0.0,0.0,0.0,0.324612899125929,0.25506,9.851888697377786
50000000.0,21.84,0.0,0.0,0.0,0.35904600388476005,0.27271800194238,9.84041099902881
55000000.0,21.84,0.0,0.0,0.0,0.31931549465845493,0.25721819786338196,9.84816090106831
60000000.0,21.84,0.0,0.0,0.0,0.33118560233085603,0.263692801165428,9.875138403496283
65000000.0,21.84,0.0,0.0,0.0,0.325005298737453,0.26487,9.870135298737452
70000000.0,21.84,0.0,0.0,0.0,0.332166601359666,0.273306601359666,9.86886
75000000.0,21.84,0.0,0.0,0.0,0.31686299708642995,0.25800299708643,9.902214005827139
80000000.0,21.84,0.0,0.0,0.0,0.322160401553904,0.246819598446096,9.883378795338288
85000000.0,21.84,0.0,0.0,0.0,0.331872301651023,0.28596150825511507,9.870527698348976
90000000.0,21.84,0.0,0.0,0.0,0.349628403496284,0.2621231930074319,9.852771596503716
95000000.0,21.84,0.0,0.0,0.0,0.36110610184526104,0.25506,9.865132203690521
100000000.0,21.84,0.0,0.0,0.0,0.33942599417285996,0.27075600388476,9.884556003884759
105000000.0,21.84,0.0,0.0,0.0,0.325790097960501,0.25143029388150295,9.872980195921002
110000000.0,21.84,0.0,0.0,0.0,0.29312279145352793,0.24525,9.861208197863382
115000000.0,21.84,0.0,0.0,0.0,0.3147048089349481,0.26791110670121104,9.866603702233737
120000000.0,21.84,0.0,0.0,0.0,0.30881879533828793,0.25976879533828795,9.876315602330855
125000000.0,21.84,0.0,0.0,0.0,0.31882500485595006,0.24770249757202498,9.856597492716075
130000000.0,21.84,0.0,0.0,0.0,0.330989402525094,0.252509402525094,9.84924
135000000.0,21.84,0.0,0.0,0.0,0.34070130262221304,0.26938260524442603,9.84924
140000000.0,21.84,0.0,0.0,0.0,0.32922359456133593,0.26761679728066795,9.84924
145000000.0,21.84,0.0,0.0,0.0,0.33766020563290206,0.2370095887341959,9.863170205632901
150000000.0,21.84,0.0,0.0,0.0,0.34335,0.22563,9.86886
155000000.0,21.84,0.0,0.0,0.0,0.336581096989311,0.23239890301068902,9.87562890301069
160000000.0,21.84,0.0,0.0,0.0,0.33354,0.2621232124312321,9.885340803107807
165000000.0,21.84,0.0,0.0,0.0,0.34668540640985407,0.2549618903852189,9.868761890385219
170000000.0,21.84,0.0,0.0,0.0,0.34021079339590793,0.25819920660409207,9.865524603302045
175000000.0,21.84,0.0,0.0,0.0,0.3207869932016699,0.2521169932016699,9.862483496600834
180000000.0,21.84,0.0,0.0,0.0,0.32019840349628403,0.23269319300743194,9.871606806992569
185000000.0,21.84,0.0,0.0,0.0,0.32373,0.23181030359340304,9.872489696406596
190000000.0,21.84,0.0,0.0,0.0,0.3358944073810441,0.2536866110715661,9.887106611071566
195000000.0,21.84,0.0,0.0,0.0,0.349334103787641,0.26487,9.880337688637077
200000000.0,21.84,0.0,0.0,0.0,0.34727399611523996,0.2766420077695201,9.86886
205000000.0,21.84,0.0,0.0,0.0,0.337562096018121,0.2729141920362419,9.86307209601812
210000000.0,21.84,0.0,0.0,0.0,0.31647058776300585,0.23073117552601174,9.85905
215000000.0,21.84,0.0,0.0,0.0,0.29851829582388295,0.20601,9.853458295823883
220000000.0,21.84,0.0,0.0,0.0,0.3162744170929442,0.22798441709294417,9.84924
225000000.0,21.84,0.0,0.0,0.0,0.3443310087407101,0.27222752185177523,9.865426513111064
230000000.0,21.84,0.0,0.0,0.0,0.35845740446747404,0.2837051910650519,9.868075191065051
235000000.0,21.84,0.0,0.0,0.0,0.36297,0.2694806954354069,9.864249304564593
240000000.0,21.84,0.0,0.0,0.0,0.33746397669143974,0.24956638601486386,9.873961204661711
245000000.0,21.84,0.0,0.0,0.0,0.3239262095176621,0.22043068572350685,9.873666895241168
250000000.0,21.84,0.0,0.0,0.0,0.3188249854321499,0.23053502427975026,9.86886
255000000.0,21.84,0.0,0.0,0.0,0.31853071485920714,0.25025309504693094,9.873666904953069
260000000.0,21.84,0.0,0.0,0.0,0.32883119494981194,0.2546676101003761,9.87867
265000000.0,21.84,0.0,0.0,0.0,0.3329514102946141,0.2556485897053859,9.869448589705385
270000000.0,21.84,0.0,0.0,0.0,0.33883739475557395,0.24525,9.863562605244425
275000000.0,21.84,0.0,0.0,0.0,0.3247109893169099,0.23642098931690989,9.86886
280000000.0,21.84,0.0,0.0,0.0,0.3225528108773281,0.22563,9.873176405438663
285000000.0,21.84,0.0,0.0,0.0,0.3251033889284339,0.23406661107156612,9.87867
290000000.0,21.84,0.0,0.0,0.0,0.32628061689870613,0.2534904112658041,9.862189177468391
295000000.0,21.84,0.0,0.0,0.0,0.33932789426997895,0.2769363171900632,9.851496317190064
300000000.0,21.84,0.0,0.0,0.0,0.33746400582714003,0.27467997086429974,9.85708798251858
305000000.0,21.84,0.0,0.0,0.0,0.3356981881514819,0.24525,9.850907717772778
310000000.0,21.84,0.0,0.0,0.0,0.32000219397862195,0.23779438795724386,9.872587806021377
315000000.0,21.84,0.0,0.0,0.0,0.3102902938815029,0.22563,9.87867
320000000.0,21.84,0.0,0.0,0.0,0.3147048186468482,0.22916160621561607,9.864543575137535
325000000.0,21.84,0.0,0.0,0.0,0.33354,0.25947454418914545,9.849730518938205
330000000.0,21.84,0.0,0.0,0.0,0.3402108128197081,0.3007745935901459,9.865524593590147
335000000.0,21.84,0.0,0.0,0.0,0.3402107739721077,0.28782538698605387,9.85905
340000000.0,21.84,0.0,0.0,0.0,0.31392,0.2652623801877238,9.852771586791816
345000000.0,21.84,0.0,0.0,0.0,0.3108788932987889,0.23308557319515572,9.854635533506055
350000000.0,21.84,0.0,0.0,0.0,0.30705300679833003,0.20895300679833007,9.88553699320167
355000000.0,21.84,0.0,0.0,0.0,0.31676490689544906,0.23004453447724535,9.87867
360000000.0,21.84,0.0,0.0,0.0,0.33197042097770424,0.26761680699256807,9.87592319300743
365000000.0,21.84,0.0,0.0,0.0,0.35316,0.27468,9.866211292910313
370000000.0,21.84,0.0,0.0,0.0,0.35316,0.2695787856263878,9.861600607186807
375000000.0,21.84,0.0,0.0,0.0,0.3433499708642997,0.2526074927160749,9.86395498543215
380000000.0,21.84,0.0,0.0,0.0,0.31392,0.24054118523791185,9.853948814762088
385000000.0,21.84,0.0,0.0,0.0,0.31617630747816305,0.22563,9.871116307478163
390000000.0,21.84,0.0,0.0,0.0,0.32373,0.23210462272584623,9.87867
395000000.0,21.84,0.0,0.0,0.0,0.32373,0.25506,9.874549784655198
400000000.0,21.84,0.0,0.0,0.0,0.32765401553904017,0.26094602330856026,9.86493602330856
405000000.0,21.84,0.0,0.0,0.0,0.3414860921333609,0.2751704606668046,9.88848
410000000.0,21.84,0.0,0.0,0.0,0.3353058079637581,0.23190838407248385,9.884948384072484
415000000.0,21.84,0.0,0.0,0.0,0.34335,0.21748770806087708,9.872195416121754
420000000.0,21.84,0.0,0.0,0.0,0.3402107836840078,0.23033882447398824,9.88063195921002
425000000.0,21.84,0.0,0.0,0.0,0.32373,0.2565315082551151,9.84237301651023
430000000.0,21.84,0.0,0.0,0.0,0.33059704176117044,0.2676168167044682,9.86591704176117
435000000.0,21.84,0.0,0.0,0.0,0.36767876620258766,0.2793887662025877,9.90427407465194
440000000.0,21.84,0.0,0.0,0.0,0.33589441709294415,0.24171837436058374,9.877492791453527
445000000.0,21.84,0.0,0.0,0.0,0.34560623949486236,0.21582,9.86993910864359
450000000.0,21.84,0.0,0.0,0.0,0.2864520174814202,0.2168010087407101,9.87670798251858
455000000.0,21.84,0.0,0.0,0.0,0.3049929088378291,0.22916163535131634,9.858167091162171
460000000.0,21.84,0.0,0.0,0.0,0.31470480893494807,0.26800923573979235,9.847670382130104
465000000.0,21.84,0.0,0.0,0.0,0.3264768361282684,0.30067645483966454,9.828933290967933
470000000.0,21.84,0.0,0.0,0.0,0.36120417261244175,0.25329417261244175,9.82275304564593
475000000.0,21.84,0.0,0.0,0.0,0.3330494907736949,0.2251394907736949,9.86984101845261
480000000.0,21.84,0.0,0.0,0.0,0.32255277202972776,0.2166048186468482,9.888872409323424
485000000.0,21.84,0.0,0.0,0.0,0.2948886188410862,0.23661723768217238,9.89829
490000000.0,21.84,0.0,0.0,0.0,0.31392,0.2744837904823379,9.89829
495000000.0,21.84,0.0,0.0,0.0,0.31392,0.26487,9.897897561540875
500000000.0,21.84,0.0,0.0,0.0,0.3139200291357003,0.26487,9.8590500291357
505000000.0,21.84,0.0,0.0,0.0,0.3430557294270573,0.26487,9.888185729427057
510000000.0,21.84,0.0,0.0,0.0,0.3241223801877238,0.26487,9.859638570281586
515000000.0,21.84,0.0,0.0,0.0,0.3332457100032571,0.2458385799934858,9.868565710003256
520000000.0,21.84,0.0,0.0,0.0,0.3052871696988717,0.2264147797992478,9.86886
525000000.0,21.84,0.0,0.0,0.0,0.3227490203949902,0.2442690203949902,9.887499020394989
530000000.0,21.84,0.0,0.0,0.0,0.31450858970538587,0.2729142308838423,9.897701410294614
535000000.0,21.84,0.0,0.0,0.0,0.3412899311751993,0.3020499311751993,9.8709200688248
540000000.0,21.84,0.0,0.0,0.0,0.34335,0.2409335265780353,9.895935631466555
545000000.0,21.84,0.0,0.0,0.0,0.33442288941402887,0.2265128894140289,9.871508668242086
550000000.0,21.84,0.0,0.0,0.0,0.33354,0.21680098931690991,9.86886
555000000.0,21.84,0.0,0.0,0.0,0.3248090892197909,0.2507436431208364,9.851398178439581
560000000.0,21.84,0.0,0.0,0.0,0.35826124350931243,0.2636928108773281,9.866505621754657
565000000.0,21.84,0.0,0.0,0.0,0.34590057805110574,0.2734047109744471,9.86886
570000000.0,21.84,0.0,0.0,0.0,0.34335,0.24937016678530166,9.877296611071566
575000000.0,21.84,0.0,0.0,0.0,0.31833446649394465,0.2619270223373702,9.853654466493944
580000000.0,21.84,0.0,0.0,0.0,0.32216041126580414,0.23190835493678355,9.840999588734196
585000000.0,21.84,0.0,0.0,0.0,0.3074453772741538,0.24191462272584624,9.855714622725847
590000000.0,21.84,0.0,0.0,0.0,0.32824263438012635,0.2532942114600421,9.85905
595000000.0,21.84,0.0,0.0,0.0,0.34148611155716113,0.26300611155716114,9.85905
600000000.0,21.84,0.0,0.0,0.0,0.3276539766914398,0.2570219883457199,9.85905
605000000.0,21.84,0.0,0.0,0.0,0.32373,0.2628099117513991,9.866799911751398
610000000.0,21.84,0.0,0.0,0.0,0.3390336236970362,0.24956637630296374,9.876511811848518
615000000.0,21.84,0.0,0.0,0.0,0.32824257610872576,0.2528037119456371,9.87867
620000000.0,21.84,0.0,0.0,0.0,0.30881877591448775,0.25506,9.871214387957243
625000000.0,21.84,0.0,0.0,0.0,0.28939497572024975,0.2477024878601249,9.85414497572025
630000000.0,21.84,0.0,0.0,0.0,0.30626823671098236,0.25250941223699414,9.841980587763006
635000000.0,21.84,0.0,0.0,0.0,0.32824262466822623,0.2622213123341131,9.860913937002339
640000000.0,21.84,0.0,0.0,0.0,0.3264767875687679,0.2789964248624643,9.861796787568768
645000000.0,21.84,0.0,0.0,0.0,0.30979977494329775,0.24269932482989326,9.879945337585053
650000000.0,21.84,0.0,0.0,0.0,0.3109770126254701,0.24623103787641037,9.88848
655000000.0,21.84,0.0,0.0,0.0,0.32068891272258915,0.24152217455482175,9.868173261832233
660000000.0,21.84,0.0,0.0,0.0,0.3304008128197081,0.24211081281970812,9.85905
665000000.0,21.84,0.0,0.0,0.0,0.33354,0.2518227129168271,9.872195425833654
670000000.0,21.84,0.0,0.0,0.0,0.34001461301394614,0.26153461301394615,9.859246160958161
675000000.0,21.84,0.0,0.0,0.0,0.3242204606668046,0.25211697377786974,9.84924
680000000.0,21.84,0.0,0.0,0.0,0.31392,0.23897158679181588,9.874353652832736
685000000.0,21.84,0.0,0.0,0.0,0.33246093991590936,0.24162031330530315,9.882299686694697
690000000.0,21.84,0.0,0.0,0.0,0.33118557319515574,0.2513322134024221,9.87867
695000000.0,21.84,0.0,0.0,0.0,0.32971411349954116,0.24907588650045887,9.854733546001835
700000000.0,21.84,0.0,0.0,0.0,0.34531202719332027,0.2570220271933203,9.83354398640334
705000000.0,21.84,0.0,0.0,0.0,0.3415841726124417,0.26487,9.846983741081337
710000000.0,21.84,0.0,0.0,0.0,0.33354,0.2591801862091019,9.864739813790898
715000000.0,21.84,0.0,0.0,0.0,0.3279482861119829,0.25506,9.874451713888018
720000000.0,21.84,0.0,0.0,0.0,0.31823638601486387,0.23308554405945545,9.873176386014864
725000000.0,21.84,0.0,0.0,0.0,0.3193155140822551,0.22121551408225515,9.87965102816451
730000000.0,21.84,0.0,0.0,0.0,0.32902741417937414,0.2680093134349931,9.877885171641251
735000000.0,21.84,0.0,0.0,0.0,0.33354,0.2781134286175343,9.874059314276494
740000000.0,21.84,0.0,0.0,0.0,0.32843878562638784,0.27036364312083644,9.873568785626388
745000000.0,21.84,0.0,0.0,0.0,0.32873311447073117,0.28449,9.86886
750000000.0,21.84,0.0,0.0,0.0,0.3188249562964496,0.2550599125928991,9.86886
755000000.0,21.84,0.0,0.0,0.0,0.29930308533503086,0.22082308533503087,9.859246170670062
760000000.0,21.84,0.0,0.0,0.0,0.2895911852379119,0.22052881476208816,9.84924
765000000.0,21.84,0.0,0.0,0.0,0.32137571887365723,0.2440728594368286,9.84924
770000000.0,21.84,0.0,0.0,0.0,0.36297,0.26487,9.862777844868978
775000000.0,21.84,0.0,0.0,0.0,0.35855548494655487,0.26045548494655485,9.874255484946554
780000000.0,21.84,0.0,0.0,0.0,0.3358943393977434,0.23779433939774341,9.864543584849436
785000000.0,21.84,0.0,0.0,0.0,0.31813831524768316,0.22003831524768316,9.87170494574305
790000000.0,21.84,0.0,0.0,0.0,0.31960978465519785,0.22150978465519786,9.859638492586384
795000000.0,21.84,0.0,0.0,0.0,0.3340305772096058,0.22386423088384233,9.835898461767684
800000000.0,21.84,0.0,0.0,0.0,0.35904598446095987,0.24328803107808034,9.87082204661712
805000000.0,21.84,0.0,0.0,0.0,0.3455081687276817,0.2665377469084775,9.873176337455362
810000000.0,21.84,0.0,0.0,0.0,0.3186287370668874,0.28076218426672184,9.864151262933113
815000000.0,21.84,0.0,0.0,0.0,0.30518914749119147,0.2637908525088085,9.87396113667841
820000000.0,21.84,0.0,0.0,0.0,0.3166667681449677,0.23112353628993537,9.852771615927516
825000000.0,21.84,0.0,0.0,0.0,0.31441054807390545,0.21287703204927033,9.855616483975364
830000000.0,21.84,0.0,0.0,0.0,0.33687541612175415,0.23563624836526248,9.855910832243508
835000000.0,21.84,0.0,0.0,0.0,0.34011268378112686,0.2647719486566195,9.865622683781126
840000000.0,21.84,0.0,0.0,0.0,0.3366792163159922,0.28449,9.865328432631983
845000000.0,21.84,0.0,0.0,0.0,0.3403088835868888,0.2692844179344442,9.87867
850000000.0,21.84,0.0,0.0,0.0,0.3247109504693095,0.23544,9.869840950469309
855000000.0,21.84,0.0,0.0,0.0,0.3126447498220475,0.2297501667853017,9.854929833214698
860000000.0,21.84,0.0,0.0,0.0,0.33354,0.21582,9.86886
865000000.0,21.84,0.0,0.0,0.0,0.32824256639682564,0.23171230080952301,9.866211283198412
870000000.0,21.84,0.0,0.0,0.0,0.3215718506961185,0.27723061689870615,9.853948766202588
875000000.0,21.84,0.0,0.0,0.0,0.34089748300417483,0.2771324490125245,9.8492400679833
880000000.0,21.84,0.0,0.0,0.0,0.33589441709294415,0.25270558290705586,9.876315582907056
885000000.0,21.84,0.0,0.0,0.0,0.3410936828099368,0.2362247312397473,9.871116317190063
890000000.0,21.84,0.0,0.0,0.0,0.33354,0.20385178271281784,9.882986434574365
895000000.0,21.84,0.0,0.0,0.0,0.33354,0.21474105645871058,9.892109647847096
900000000.0,21.84,0.0,0.0,0.0,0.33354,0.28449,9.86886
905000000.0,21.84,0.0,0.0,0.0,0.33540391757853916,0.2863539175785392,9.861404329685843
910000000.0,21.84,0.0,0.0,0.0,0.33805254697302545,0.2854709116217091,9.834917453026975
915000000.0,21.84,0.0,0.0,0.0,0.31725543554555435,0.24191456445444565,9.855714564454445
920000000.0,21.84,0.0,0.0,0.0,0.32883114639031147,0.22406038213010382,9.844138853609689
925000000.0,21.84,0.0,0.0,0.0,0.30852455390104555,0.22023455390104554,9.86886
930000000.0,21.84,0.0,0.0,0.0,0.33491341806413416,0.24662341806413418,9.870233418064133
935000000.0,21.84,0.0,0.0,0.0,0.34335,0.25888595448375956,9.87867
940000000.0,21.84,0.0,0.0,0.0,0.34335,0.28919887303348873,9.875138345224883
945000000.0,21.84,0.0,0.0,0.0,0.3422708816445088,0.3172552898670529,9.84924
950000000.0,21.84,0.0,0.0,0.0,0.33354,0.2580028708317287,9.847277963094779
955000000.0,21.84,0.0,0.0,0.0,0.33000832580108325,0.1970829185497292,9.832268755649189
960000000.0,21.84,0.0,0.0,0.0,0.29665445594054457,0.20914927458739274,9.859834818646847
965000000.0,21.84,0.0,0.0,0.0,0.3251034374879344,0.24731015623190156,9.869546718743967
970000000.0,21.84,0.0,0.0,0.0,0.3439386188410862,0.27526861884108617,9.877492762317827
975000000.0,21.84,0.0,0.0,0.0,0.35316,0.28399948106179485,9.86003103787641
980000000.0,21.84,0.0,0.0,0.0,0.3508054857880548,0.2731103238587032,9.87867
985000000.0,21.84,0.0,0.0,0.0,0.2943,0.23455704260267043,9.878081361735113
990000000.0,21.84,0.0,0.0,0.0,0.2946924384591244,0.20659865768868657,9.858853780770438
995000000.0,21.84,0.0,0.0,0.0,0.31392,0.235930596633406,9.849436238653363
1000000000.0,21.84,0.0,0.0,0.0,0.31392005827140057,0.28449,9.8688599805762
1005000000.0,21.84,0.0,0.0,0.0,0.34305575856275755,0.28449,9.85914808047908
1010000000.0,21.84,0.0,0.0,0.0,0.34335,0.2556485411458854,9.868663819618037
1015000000.0,21.84,0.0,0.0,0.0,0.3338342802848428,0.25506,9.859344280284843
1020000000.0,21.84,0.0,0.0,0.0,0.29586952075089523,0.2173895207508952,9.868467619812275
1025000000.0,21.84,0.0,0.0,0.0,0.3036195199093952,0.21582,9.878179519909395
1030000000.0,21.84,0.0,0.0,0.0,0.35021710003257095,0.2250414200065142,9.87867
1035000000.0,21.84,0.0,0.0,0.0,0.34403667989636677,0.2621232804145328,9.869546679896366
1040000000.0,21.84,0.0,0.0,0.0,0.36140044040150443,0.2738952202007522,9.841784339397744
1045000000.0,21.84,0.0,0.0,0.0,0.3361886391063864,0.27468,9.848357120297871
1050000000.0,21.84,0.0,0.0,0.0,0.31588195921001955,0.23936391842003918,9.86689804078998
1055000000.0,21.84,0.0,0.0,0.0,0.3226509204921092,0.20924723852367239,9.86886
1060000000.0,21.84,0.0,0.0,0.0,0.32373,0.2146428205892282,9.886125641178456
1065000000.0,21.84,0.0,0.0,0.0,0.32373,0.2670283241180832,9.862875837940958
1070000000.0,21.84,0.0,0.0,0.0,0.3321666207834662,0.27468,9.875923241566932
1075000000.0,21.84,0.0,0.0,0.0,0.3502170417611704,0.27468,9.870331479119415
1080000000.0,21.84,0.0,0.0,0.0,0.35316,0.26643957902229576,9.852379158044592
1085000000.0,21.84,0.0,0.0,0.0,0.3287330367755304,0.21601607355106073,9.881809284299292
1090000000.0,21.84,0.0,0.0,0.0,0.32373,0.20601,9.872391557656115
1095000000.0,21.84,0.0,0.0,0.0,0.3078377574618776,0.2457406063453061,9.860913878730939
1100000000.0,21.84,0.0,0.0,0.0,0.3355020854647208,0.27860406409854066,9.86689802136618
1105000000.0,21.84,0.0,0.0,0.0,0.34335,0.2999898429265984,9.86886
1110000000.0,21.84,0.0,0.0,0.0,0.3356981784395818,0.27350271375832713,9.876511821560419
1115000000.0,21.84,0.0,0.0,0.0,0.30332511336985113,0.23465511336985112,9.856008835027389
1120000000.0,21.84,0.0,0.0,0.0,0.31666686526396864,0.21071875649068755,9.864151243509312
1125000000.0,21.84,0.0,0.0,0.0,0.3163724781482248,0.20601,9.876217521851775
1130000000.0,21.84,0.0,0.0,0.0,0.34295768779557684,0.24956653169336532,9.87867
1135000000.0,21.84,0.0,0.0,0.0,0.34599867795398676,0.27919264409202643,9.85718603386196
1140000000.0,21.84,0.0,0.0,0.0,0.3150971114274711,0.29861644428626444,9.84924
1145000000.0,21.84,0.0,0.0,0.0,0.32500536672075364,0.2483890220779902,9.863170244480502
1150000000.0,21.84,0.0,0.0,0.0,0.31293893298788933,0.23936404467474046,9.87572702233737
1155000000.0,21.84,0.0,0.0,0.0,0.3108789224344892,0.23171215513102156,9.898976767303466
1160000000.0,21.84,0.0,0.0,0.0,0.31392,0.23230082253160822,9.86807506481035
1165000000.0,21.84,0.0,0.0,0.0,0.32706544525745446,0.26830361314363615,9.836094554742546
1170000000.0,21.84,0.0,0.0,0.0,0.32059075454830754,0.28449,9.849043868177539
1175000000.0,21.84,0.0,0.0,0.0,0.3075434771770348,0.25260738588517384,9.865426522822965
1180000000.0,21.84,0.0,0.0,0.0,0.3355021146004211,0.22916157707991577,9.875138422920084
1185000000.0,21.84,0.0,0.0,0.0,0.32843870793118707,0.23181032301720322,9.884850323017202
1190000000.0,21.84,0.0,0.0,0.0,0.30783777688567776,0.23544,9.870233330657033
1195000000.0,21.84,0.0,0.0,0.0,0.3100941232114412,0.2533923696343237,9.85905
1200000000.0,21.84,0.0,0.0,0.0,0.3315780699256807,0.2766420466171205,9.85905
1205000000.0,21.84,0.0,0.0,0.0,0.33756207659432075,0.2787020765943208,9.853262076594321
1210000000.0,21.84,0.0,0.0,0.0,0.33354,0.27468,9.854929823502799
1215000000.0,21.84,0.0,0.0,0.0,0.3279482764000828,0.25790482920024826,9.864641723599917
1220000000.0,21.84,0.0,0.0,0.0,0.31274275260592754,0.23426275260592752,9.863366376302963
1225000000.0,21.84,0.0,0.0,0.0,0.30950552379415525,0.23642104758831048,9.864445523794155
1230000000.0,21.84,0.0,0.0,0.0,0.32451484778254847,0.25584484778254846,9.863562576108725
1235000000.0,21.84,0.0,0.0,0.0,0.32834067601160677,0.2804679719651797,9.869448647976785
1240000000.0,21.84,0.0,0.0,0.0,0.3390336722565367,0.2789963277434633,9.873568775914487
1245000000.0,21.84,0.0,0.0,0.0,0.35316,0.23485125490421255,9.863856875817369
1250000000.0,21.84,0.0,0.0,0.0,0.3286348786012488,0.21091502427975026,9.868860048559501
1255000000.0,21.84,0.0,0.0,0.0,0.3137238487537385,0.21582,9.873863075623131
1260000000.0,21.84,0.0,0.0,0.0,0.32373,0.21582,9.873568824473988
1265000000.0,21.84,0.0,0.0,0.0,0.3329514491422145,0.234262898284429,9.869448550857784
1270000000.0,21.84,0.0,0.0,0.0,0.34335,0.2595726246682262,9.85905
1275000000.0,21.84,0.0,0.0,0.0,0.3345209504693095,0.26045547523465473,9.854635475234655
1280000000.0,21.84,0.0,0.0,0.0,0.306464300550143,0.25506,9.866505699449856
1285000000.0,21.84,0.0,0.0,0.0,0.2929266499191665,0.24240502512125026,9.880043350080832
1290000000.0,21.84,0.0,0.0,0.0,0.31647067517010674,0.22975022505670226,9.877100450113405
1295000000.0,21.84,0.0,0.0,0.0,0.3254957496923575,0.23544,9.876413624538536
1300000000.0,21.84,0.0,0.0,0.0,0.3256920757528207,0.251136101003761,9.85905
1305000000.0,21.84,0.0,0.0,0.0,0.3356981493038815,0.2708540746519407,9.866701850696119
1310000000.0,21.84,0.0,0.0,0.0,0.3125465236644652,0.26487,9.87867
1315000000.0,21.84,0.0,0.0,0.0,0.3124486277114863,0.25398082337310823,9.871410548915405
1320000000.0,21.84,0.0,0.0,0.0,0.3327551230817512,0.23544,9.862581625639416
1325000000.0,21.84,0.0,0.0,0.0,0.3070529485269295,0.23544,9.879160577209605
1330000000.0,21.84,0.0,0.0,0.0,0.3043062775009628,0.23877542583365427,9.884948296665382
1335000000.0,21.84,0.0,0.0,0.0,0.33344197779231977,0.24848732593077327,9.865524651861547
1340000000.0,21.84,0.0,0.0,0.0,0.35316,0.24878154794421548,9.881809226027892
1345000000.0,21.84,0.0,0.0,0.0,0.3440366216249662,0.24152225225002252,9.88848
1350000000.0,21.84,0.0,0.0,0.0,0.3266730262221303,0.2609460524442605,9.885536973777869
1355000000.0,21.84,0.0,0.0,0.0,0.33069507368075074,0.27468,9.8729801473615
1360000000.0,21.84,0.0,0.0,0.0,0.32647682641636827,0.2691863471672635,9.853556347167263
1365000000.0,21.84,0.0,0.0,0.0,0.32824254697302546,0.24976254697302547,9.847376179540461
1370000000.0,21.84,0.0,0.0,0.0,0.3190212532212125,0.2430918798318188,9.866309373389393
1375000000.0,21.84,0.0,0.0,0.0,0.3359925267077253,0.2624174732922747,9.856597473292275
1380000000.0,21.84,0.0,0.0,0.0,0.34335,0.25506,9.86572098763391
1385000000.0,21.84,0.0,0.0,0.0,0.34335,0.25280367309803675,9.908884692392146
1390000000.0,21.84,0.0,0.0,0.0,0.34119177300091774,0.24525,9.882986453998164
1395000000.0,21.84,0.0,0.0,0.0,0.3356001270962013,0.24525,9.896229872903799
1400000000.0,21.84,0.0,0.0,0.0,0.34335,0.24328797280667971,9.882593918420039
1405000000.0,21.84,0.0,0.0,0.0,0.3377582181286822,0.24475963645219637,9.857186072709561
1410000000.0,21.84,0.0,0.0,0.0,0.31568582738755824,0.28095834522488344,9.851005827387558
1415000000.0,21.84,0.0,0.0,0.0,0.32373,0.26320227251532274,9.85905
1420000000.0,21.84,0.0,0.0,0.0,0.32373,0.2566296275817963,9.857480372418204
1425000000.0,21.84,0.0,0.0,0.0,0.32373,0.2589838892843389,9.84924
1430000000.0,21.84,0.0,0.0,0.0,0.32647685555206857,0.22700342777603427,9.84924
1435000000.0,21.84,0.0,0.0,0.0,0.34079934425369346,0.24054131149261312,9.854341311492613
1440000000.0,21.84,0.0,0.0,0.0,0.32490722797027227,0.27468,9.886125544059455
1445000000.0,21.84,0.0,0.0,0.0,0.3324608719326087,0.27144261579782614,9.866701743865217
1450000000.0,21.84,0.0,0.0,0.0,0.32274897183548973,0.24819308449353084,9.84924
1455000000.0,21.84,0.0,0.0,0.0,0.31568585652325853,0.2702653586918536,9.851888784784888
1460000000.0,21.84,0.0,0.0,0.0,0.33432482835874827,0.2264148283587483,9.877885171641251
1465000000.0,21.84,0.0,0.0,0.0,0.34266327154413273,0.23406654308826544,9.872293642279336
1470000000.0,21.84,0.0,0.0,0.0,0.33236274289402745,0.21817451421194514,9.914966857235068
1475000000.0,21.84,0.0,0.0,0.0,0.31392,0.2555505286501053,9.86886
1480000000.0,21.84,0.0,0.0,0.0,0.3150972862416728,0.2644775712527757,9.867682713758327
1485000000.0,21.84,0.0,0.0,0.0,0.34335,0.25506,9.83943
1490000000.0,21.84,0.0,0.0,0.0,0.3431537710585377,0.25447131317561317,9.840018686824386
1495000000.0,21.84,0.0,0.0,0.0,0.33334374192283744,0.22563,9.868761870961418
1500000000.0,21.84,0.0,0.0,0.0,0.31392,0.2256299417285994,9.85905
1505000000.0,21.84,0.0,0.0,0.0,0.31392,0.2062061415343614,9.85905
1510000000.0,21.84,0.0,0.0,0.0,0.3043061706700617,0.2540791466496915,9.868663829329938
1515000000.0,21.84,0.0,0.0,0.0,0.3326571882811719,0.25506,9.878375729427058
1520000000.0,21.84,0.0,0.0,0.0,0.33354,0.2644776295241763,9.869252370475824
1525000000.0,21.84,0.0,0.0,0.0,0.3521790592425906,0.26487,9.878179529621296
1530000000.0,21.84,0.0,0.0,0.0,0.32549571084475715,0.2372057108447571,9.860227140563172
1535000000.0,21.84,0.0,0.0,0.0,0.3146066701844667,0.2263166701844667,9.840803340368934
1540000000.0,21.84,0.0,0.0,0.0,0.30489477008734767,0.25270568973795693,9.857480459825304
1545000000.0,21.84,0.0,0.0,0.0,0.3398185200390852,0.2461328699902287,9.867977130009772
1550000000.0,21.84,0.0,0.0,0.0,0.3345209698931097,0.2540790301068903,9.86886
1555000000.0,21.84,0.0,0.0,0.0,0.3160781395919814,0.25506,9.87759093020401
1560000000.0,21.84,0.0,0.0,0.0,0.3052871696988717,0.25506,9.887302830301127
1565000000.0,21.84,0.0,0.0,0.0,0.3211794607964946,0.2294558088052581,9.879945269601752
1570000000.0,21.84,0.0,0.0,0.0,0.31529336950463366,0.2509398914860989,9.870233369504634
1575000000.0,21.84,0.0,0.0,0.0,0.3305970611849706,0.25506,9.860521469407514
1580000000.0,21.84,0.0,0.0,0.0,0.3417804306896043,0.28802172275841725,9.867290430689604
1585000000.0,21.84,0.0,0.0,0.0,0.35149233078672326,0.27801533842655335,9.852575338426554
1590000000.0,21.84,0.0,0.0,0.0,0.31293884558078844,0.23445884558078844,9.881416923535369
1595000000.0,21.84,0.0,0.0,0.0,0.3200022619619226,0.22563,9.848749345095193
1600000000.0,21.84,0.0,0.0,0.0,0.3315780310780803,0.23347803107808032,9.8786701553904
1605000000.0,21.84,0.0,0.0,0.0,0.3490398623503986,0.25868979352559796,9.8729801376496
1610000000.0,21.84,0.0,0.0,0.0,0.3455081687276817,0.2572181687276817,9.853556337455363
1615000000.0,21.84,0.0,0.0,0.0,0.34335,0.25506,9.841686268630562
1620000000.0,21.84,0.0,0.0,0.0,0.3358943685334437,0.25506,9.869252525866225
1625000000.0,21.84,0.0,0.0,0.0,0.33354,0.23298740530897405,9.87867
1630000000.0,21.84,0.0,0.0,0.0,0.3262805683392057,0.21111113667841136,9.856891705017617
1635000000.0,21.84,0.0,0.0,0.0,0.32373,0.22749399527373995,9.885046658789566
1640000000.0,21.84,0.0,0.0,0.0,0.32373,0.27781939113019394,9.884163536289934
1645000000.0,21.84,0.0,0.0,0.0,0.33766026390430265,0.2873348680478487,9.871704868047848
1650000000.0,21.84,0.0,0.0,0.0,0.322748903852189,0.2913570320492703,9.86199296795073
1655000000.0,21.84,0.0,0.0,0.0,0.3071510678536107,0.24691747497527475,9.85228106785361
1660000000.0,21.84,0.0,0.0,0.0,0.3107808322435083,0.21895916775649168,9.855910832243508
1665000000.0,21.84,0.0,0.0,0.0,0.30734726765937265,0.2223927323406273,9.865622732340627
1670000000.0,21.84,0.0,0.0,0.0,0.33000852975098527,0.24505389731323898,9.86886
1675000000.0,21.84,0.0,0.0,0.0,0.35610306506973066,0.274189597604596,9.86886
1680000000.0,21.84,0.0,0.0,0.0,0.35669156736801566,0.27821156736801567,9.86886
1685000000.0,21.84,0.0,0.0,0.0,0.32843866908358665,0.26849966727089664,9.86886
1690000000.0,21.84,0.0,0.0,0.0,0.3200022328262223,0.2405410686951107,9.86886
1695000000.0,21.84,0.0,0.0,0.0,0.2997934683066347,0.23161413292334132,9.86886
1700000000.0,21.84,0.0,0.0,0.0,0.28449,0.23544,9.86886
1705000000.0,21.84,0.0,0.0,0.0,0.301853799352738,0.2585917324703173,9.86307206688242
1710000000.0,21.84,0.0,0.0,0.0,0.3366793328587933,0.2803698332146983,9.864739833214697
1715000000.0,21.84,0.0,0.0,0.0,0.35316,0.2788982666881827,9.880043466623635
1720000000.0,21.84,0.0,0.0,0.0,0.336679099773191,0.258199099773191,9.866505466364254
1725000000.0,21.84,0.0,0.0,0.0,0.32373,0.229063399481834,9.854635533506055
1730000000.0,21.84,0.0,0.0,0.0,0.32373,0.21582,9.85905
1735000000.0,21.84,0.0,0.0,0.0,0.32373,0.2418166685014667,9.864249333700293
1740000000.0,21.84,0.0,0.0,0.0,0.339033701392237,0.2750724675948247,9.853556298607764
1745000000.0,21.84,0.0,0.0,0.0,0.34815686610546864,0.28449,9.849436267789063
1750000000.0,21.84,0.0,0.0,0.0,0.3482550339916503,0.269774898025049,9.87376510197495
1755000000.0,21.84,0.0,0.0,0.0,0.3435461318224613,0.23583226364492266,9.88848
1760000000.0,21.84,0.0,0.0,0.0,0.3099958290705583,0.21111116581411166,9.883771165814112
1765000000.0,21.84,0.0,0.0,0.0,0.2937114685660147,0.2152314685660147,9.874059265716992
1770000000.0,21.84,0.0,0.0,0.0,0.3086226343801263,0.23916790314037903,9.873372634380127
1775000000.0,21.84,0.0,0.0,0.0,0.327163603431736,0.29037627581796277,9.87867
1780000000.0,21.84,0.0,0.0,0.0,0.34335,0.2990085234050852,9.861404261702543
1785000000.0,21.84,0.0,0.0,0.0,0.33069499598554997,0.24240499598554996,9.856303338685933
1790000000.0,21.84,0.0,0.0,0.0,0.31392,0.22563,9.870429530462795
1795000000.0,21.84,0.0,0.0,0.0,0.3179421348657213,0.22160786513427866,9.863072134865721
1800000000.0,21.84,0.0,0.0,0.0,0.32765403496284035,0.21974403496284037,9.87278403496284
1805000000.0,21.84,0.0,0.0,0.0,0.33354,0.2409337402398374,9.882495935059959
1810000000.0,21.84,0.0,0.0,0.0,0.33726783515707837,0.27605350547123503,9.881024329685843
1815000000.0,21.84,0.0,0.0,0.0,0.34335,0.2797810589832106,9.854341058983211
1820000000.0,21.84,0.0,0.0,0.0,0.35041327070263273,0.24446509394605095,9.84021490605395
1825000000.0,21.84,0.0,0.0,0.0,0.3595364645515646,0.22219646455156464,9.862483535448435
1830000000.0,21.84,0.0,0.0,0.0,0.3364828222722282,0.2324971777277718,9.858853693363336
1835000000.0,21.84,0.0,0.0,0.0,0.3170593425706934,0.2616326643573266,9.84914200692802
1840000000.0,21.84,0.0,0.0,0.0,0.34021076426020763,0.2644777072193771,9.865720764260207
1845000000.0,21.84,0.0,0.0,0.0,0.3396222716738227,0.28753113583691137,9.868173407510733
1850000000.0,21.84,0.0,0.0,0.0,0.35610303593403037,0.2795848203298482,9.885536964065968
1855000000.0,21.84,0.0,0.0,0.0,0.3572801279377013,0.2367151919065519,9.87867
1860000000.0,21.84,0.0,0.0,0.0,0.34335,0.2103263277434633,9.864935819358658
1865000000.0,21.84,0.0,0.0,0.0,0.34070126377461263,0.20679494490154945,9.837566208676161
1870000000.0,21.84,0.0,0.0,0.0,0.32843872735498725,0.23544,9.85905
1875000000.0,21.84,0.0,0.0,0.0,0.32373014567850145,0.24525014567850145,9.861502536419625
1880000000.0,21.84,0.0,0.0,0.0,0.3508055634832556,0.27703443651674436,9.86886
1885000000.0,21.84,0.0,0.0,0.0,0.33883732677227324,0.2732083169306832,9.86886
1890000000.0,21.84,0.0,0.0,0.0,0.31509705315607056,0.22896528986705292,9.866701763289017
1895000000.0,21.84,0.0,0.0,0.0,0.2927305472324055,0.20601,9.856989863191899
1900000000.0,21.84,0.0,0.0,0.0,0.32373,0.2118961107156611,9.84924
1905000000.0,21.84,0.0,0.0,0.0,0.3311857480093575,0.23730393700233937,9.851103937002339
1910000000.0,21.84,0.0,0.0,0.0,0.3576724887016249,0.24878167419891672,9.860815837099459
1915000000.0,21.84,0.0,0.0,0.0,0.33187226280342264,0.26153452560684526,9.867192262803423
1920000000.0,21.84,0.0,0.0,0.0,0.32373,0.24525,9.85905
1925000000.0,21.84,0.0,0.0,0.0,0.32078692521836927,0.24083538782755387,9.86199307478163
1930000000.0,21.84,0.0,0.0,0.0,0.3068568749758687,0.21856687497586877,9.874549687536197
1935000000.0,21.84,0.0,0.0,0.0,0.3301066879252669,0.2367153375850534,9.851790675170106
1940000000.0,21.84,0.0,0.0,0.0,0.3680710492713105,0.24760447536434474,9.86886
1945000000.0,21.84,0.0,0.0,0.0,0.33354,0.26379086222070863,9.86886
1950000000.0,21.84,0.0,0.0,0.0,0.33255896212358965,0.25309792424717925,9.867878962123589
1955000000.0,21.84,0.0,0.0,0.0,0.3246129379735294,0.23544,9.86081587594706
1960000000.0,21.84,0.0,0.0,0.0,0.33354,0.23700967614129678,9.87788516192935
1965000000.0,21.84,0.0,0.0,0.0,0.33216652366446525,0.2557467381677674,9.868173261832233
1970000000.0,21.84,0.0,0.0,0.0,0.31509727652977276,0.26428136173511363,9.861404553059545
1975000000.0,21.84,0.0,0.0,0.0,0.3330494616379946,0.25506,9.895837308189973
1980000000.0,21.84,0.0,0.0,0.0,0.32451487691824876,0.25427512308175126,9.84924
1985000000.0,21.84,0.0,0.0,0.0,0.3427613228875132,0.2360286771124868,9.849828677112487
1990000000.0,21.84,0.0,0.0,0.0,0.3241224773067248,0.25466752269327525,9.869056238653362
1995000000.0,21.84,0.0,0.0,0.0,0.3431537224990372,0.23524372249903724,9.87876813875048
2000000000.0,21.84,0.0,0.0,0.0,0.3237300776952008,0.21582015539040156,9.888479922304798
2005000000.0,21.84,0.0,0.0,0.0,0.34315387788943874,0.25466775577887757,9.86905612211056
2010000000.0,21.84,0.0,0.0,0.0,0.3048946438326464,0.25506,9.859246160958161
2015000000.0,21.84,0.0,0.0,0.0,0.33265721741687215,0.2645757391389574,9.85905
2020000000.0,21.84,0.0,0.0,0.0,0.3523752784721528,0.26487,9.868467639236076
2025000000.0,21.84,0.0,0.0,0.0,0.3252013820004138,0.24623092133360922,9.859540460666805
2030000000.0,21.84,0.0,0.0,0.0,0.32373,0.24525,9.877492878860629
2035000000.0,21.84,0.0,0.0,0.0,0.3146066604725666,0.2270033209451332,9.87867
2040000000.0,21.84,0.0,0.0,0.0,0.3319704792491048,0.2436804792491048,9.869644760375447
2045000000.0,21.84,0.0,0.0,0.0,0.31568572055665717,0.24525,9.851005720556657
2050000000.0,21.84,0.0,0.0,0.0,0.3404071194563712,0.23642096018120962,9.866898079637581
2055000000.0,21.84,0.0,0.0,0.0,0.3346190600840906,0.25290187983181883,9.877590939915908
2060000000.0,21.84,0.0,0.0,0.0,0.33354,0.25506,9.87867
2065000000.0,21.84,0.0,0.0,0.0,0.3164705197797052,0.25506,9.870135259889853
2070000000.0,21.84,0.0,0.0,0.0,0.3223566402072664,0.2466233597927336,9.877296640207266
2075000000.0,21.84,0.0,0.0,0.0,0.32373,0.25358854030438543,9.836977298478073
2080000000.0,21.84,0.0,0.0,0.0,0.3319704404015044,0.2468195595984956,9.862581761606018
2085000000.0,21.84,0.0,0.0,0.0,0.33354,0.2371076595013766,9.877002340498622
2090000000.0,21.84,0.0,0.0,0.0,0.3415842405957424,0.25957272178722723,9.894758481191484
2095000000.0,21.84,0.0,0.0,0.0,0.3274577186142772,0.23308543722855438,9.89829
2100000000.0,21.84,0.0,0.0,0.0,0.3472741223699412,0.22563,9.859049796050098
2105000000.0,21.84,0.0,0.0,0.0,0.33766011822580116,0.2411298817741988,9.84924
2110000000.0,21.84,0.0,0.0,0.0,0.31823631803156316,0.2375981590157816,9.879847363936873
2115000000.0,21.84,0.0,0.0,0.0,0.3290274821626748,0.23544,9.865818776755988
2120000000.0,21.84,0.0,0.0,0.0,0.32608435882154363,0.2578069235353692,9.866505641178456
2125000000.0,21.84,0.0,0.0,0.0,0.32373,0.25015491744884916,9.88357508255115
2130000000.0,21.84,0.0,0.0,0.0,0.3309894413726944,0.25250944137269443,9.852182793136528
2135000000.0,21.84,0.0,0.0,0.0,0.3478626829396268,0.25506,9.86091402440944
2140000000.0,21.84,0.0,0.0,0.0,0.33903351686613514,0.24093351686613518,9.875923241566932
2145000000.0,21.84,0.0,0.0,0.0,0.3474702833281028,0.24240514166405142,9.864739716671897
2150000000.0,21.84,0.0,0.0,0.0,0.33255887471648876,0.2589840835223408,9.86591704176117
2155000000.0,21.84,0.0,0.0,0.0,0.32373,0.2581010581417106,9.889166825574868
2160000000.0,21.84,0.0,0.0,0.0,0.3304008419554084,0.24838915804459158,9.884948316089183
2165000000.0,21.84,0.0,0.0,0.0,0.3072490317898903,0.24525,9.885242742052528
2170000000.0,21.84,0.0,0.0,0.0,0.3266732107482321,0.24525,9.882005357850353
2175000000.0,21.84,0.0,0.0,0.0,0.33697345775323456,0.25162654224676545,9.86591691550647
2180000000.0,21.84,0.0,0.0,0.0,0.3272615576561156,0.24878155765611557,9.871606884687768
2185000000.0,21.84,0.0,0.0,0.0,0.32373,0.24525,9.866309315117993
2190000000.0,21.84,0.0,0.0,0.0,0.3298122425381224,0.26349672761436727,9.85905
2195000000.0,21.84,0.0,0.0,0.0,0.33952414263524144,0.2567275720942757,9.865034142635242
2200000000.0,21.84,0.0,0.0,0.0,0.33157791453527913,0.22759187180291873,9.86886
2205000000.0,21.84,0.0,0.0,0.0,0.32373,0.24475971414739714,9.86886
2210000000.0,21.84,0.0,0.0,0.0,0.32373,0.2534903141468031,9.863170157073402
2215000000.0,21.84,0.0,0.0,0.0,0.31813825697628256,0.2508417430237174,9.88141697209487
2220000000.0,21.84,0.0,0.0,0.0,0.3358945724833457,0.26604728624167284,9.887302713758327
2225000000.0,21.84,0.0,0.0,0.0,0.3423689135640891,0.2638889135640891,9.86787891356409
2230000000.0,21.84,0.0,0.0,0.0,0.33354,0.24976255668492556,9.864347443315074
2235000000.0,21.84,0.0,0.0,0.0,0.33354,0.24525,9.86886
2240000000.0,21.84,0.0,0.0,0.0,0.3284387564906876,0.24525,9.84845502596275
2245000000.0,21.84,0.0,0.0,0.0,0.32873314360643147,0.24525,9.844629430819294
2250000000.0,21.84,0.0,0.0,0.0,0.3433500874071009,0.2599651311106513,9.85905
2255000000.0,21.84,0.0,0.0,0.0,0.3387391685979917,0.26987305619933055,9.85905
2260000000.0,21.84,0.0,0.0,0.0,0.32843884389778844,0.2789965316933653,9.868467687795576
2265000000.0,21.84,0.0,0.0,0.0,0.3289292560050926,0.26663553603055534,9.87867
2270000000.0,21.84,0.0,0.0,0.0,0.32373,0.2444652881840529,9.86513206772392
2275000000.0,21.84,0.0,0.0,0.0,0.3325590883782909,0.25064545581085457,9.853654544189146
2280000000.0,21.84,0.0,0.0,0.0,0.3476664442862644,0.2538828885725289,9.854733555713736
2285000000.0,21.84,0.0,0.0,0.0,0.35316,0.2733066887667669,9.857676688766766
2290000000.0,21.84,0.0,0.0,0.0,0.3490397555194975,0.27624951103899514,9.864739755519498
2295000000.0,21.84,0.0,0.0,0.0,0.34335,0.2528035662671357,9.863072144577622
2300000000.0,21.84,0.0,0.0,0.0,0.33157786597577865,0.23544,9.861011910650518
2305000000.0,21.84,0.0,0.0,0.0,0.31009405522814054,0.23161405522814055,9.85689188954372
2310000000.0,21.84,0.0,0.0,0.0,0.30038215513102157,0.23681353460693536,9.872587844868978
2315000000.0,21.84,0.0,0.0,0.0,0.30881897986438983,0.27320872483048725,9.87867
2320000000.0,21.84,0.0,0.0,0.0,0.34060329012643287,0.2899834197471342,9.86807506481035
2325000000.0,21.84,0.0,0.0,0.0,0.3565935451603354,0.2511358193586582,9.862974180641341
2330000000.0,21.84,0.0,0.0,0.0,0.3596345547425456,0.2189591094850911,9.88848
2335000000.0,21.84,0.0,0.0,0.0,0.34992265464542655,0.20924734535457346,9.88848
2340000000.0,21.84,0.0,0.0,0.0,0.34335,0.23465547271015472,9.891619245451691
2345000000.0,21.84,0.0,0.0,0.0,0.34639114554881145,0.27772114554881144,9.886125417804754
2350000000.0,21.84,0.0,0.0,0.0,0.3443308630622086,0.28449,9.85905
2355000000.0,21.84,0.0,0.0,0.0,0.3294198914860989,0.2731102170278022,9.85905
2360000000.0,21.84,0.0,0.0,0.0,0.33236261663932615,0.23975630831966308,9.861796845840168
2365000000.0,21.84,0.0,0.0,0.0,0.31205623781186237,0.23092749187457492,9.871508745937287
2370000000.0,21.84,0.0,0.0,0.0,0.3233374158623742,0.23759806189678062,9.876119353965594
2375000000.0,21.84,0.0,0.0,0.0,0.30411018452610183,0.22317763839457638,9.873765092263051
2380000000.0,21.84,0.0,0.0,0.0,0.33589444622864445,0.25231333868593336,9.88377110754271
2385000000.0,21.84,0.0,0.0,0.0,0.34109365367423655,0.28144903897729034,9.86886
2390000000.0,21.84,0.0,0.0,0.0,0.33354,0.2976352607313526,9.864543507154234
2395000000.0,21.84,0.0,0.0,0.0,0.3252994139199941,0.2623191208799912,9.851300146520002
2400000000.0,21.84,0.0,0.0,0.0,0.29233795338287955,0.2217061398513614,9.85708795338288
2405000000.0,21.84,0.0,0.0,0.0,0.29008184014271843,0.24152210657152107,9.84924
2410000000.0,21.84,0.0,0.0,0.0,0.3192175404340754,0.23269338724543387,9.858069234056792
2415000000.0,21.84,0.0,0.0,0.0,0.3416822530915225,0.2682054938169549,9.891619012366089
2420000000.0,21.84,0.0,0.0,0.0,0.33824894101678943,0.28449,9.860619647005596
2425000000.0,21.84,0.0,0.0,0.0,0.3644415471027155,0.2786038115891381,9.867388452897284
2430000000.0,21.84,0.0,0.0,0.0,0.3659127640008276,0.24112965840049658,9.85905
2435000000.0,21.84,0.0,0.0,0.0,0.32373,0.21582,9.85522395810914
2440000000.0,21.84,0.0,0.0,0.0,0.32255275260592753,0.21935174218221742,9.831974494788145
2445000000.0,21.84,0.0,0.0,0.0,0.31499914749119146,0.24740829498238295,9.853556589964766
2450000000.0,21.84,0.0,0.0,0.0,0.32373,0.2638889524116895,9.88749895241169
2455000000.0,21.84,0.0,0.0,0.0,0.32373,0.25594294768542947,9.87778705231457
2460000000.0,21.84,0.0,0.0,0.0,0.3229451522174515,0.2640851522174515,9.86886
2465000000.0,21.84,0.0,0.0,0.0,0.3159802436390024,0.2523130084813301,9.870920243639002
2470000000.0,21.84,0.0,0.0,0.0,0.34158405606964054,0.21758594393035946,9.895346760116068
2475000000.0,21.84,0.0,0.0,0.0,0.31293890385218903,0.24574054807390547,9.848749451926095
2480000000.0,21.84,0.0,0.0,0.0,0.2958697926840979,0.2566297926840979,9.839822448171025
2485000000.0,21.84,0.0,0.0,0.0,0.3338343482681435,0.2931226069274261,9.850711741340717
2490000000.0,21.84,0.0,0.0,0.0,0.34276125490421255,0.2544712549042126,9.897701254904211
2495000000.0,21.84,0.0,0.0,0.0,0.3138218515376185,0.22543370307523702,9.869056296924763
2500000000.0,21.84,0.0,0.0,0.0,0.3041101456785015,0.2060102913570029,9.88848
2505000000.0,21.84,0.0,0.0,0.0,0.33324584596985846,0.2642816919397169,9.88848
2510000000.0,21.84,0.0,0.0,0.0,0.3431538487537385,0.24564230249252303,9.88848
2515000000.0,21.84,0.0,0.0,0.0,0.324318502298285,0.264281497701715,9.859932753447428
2520000000.0,21.84,0.0,0.0,0.0,0.3331476489479765,0.26487,9.840214702104047
2525000000.0,21.84,0.0,0.0,0.0,0.33354,0.246230901909809,9.848749549045095
2530000000.0,21.84,0.0,0.0,0.0,0.33354,0.21758565257335655,9.84924
2535000000.0,21.84,0.0,0.0,0.0,0.33354,0.21582,9.903980095436001
2540000000.0,21.84,0.0,0.0,0.0,0.33354,0.26094624668226246,9.881024251990642
2545000000.0,21.84,0.0,0.0,0.0,0.3246128505664285,0.2559428505664285,9.851888551699286
2550000000.0,21.84,0.0,0.0,0.0,0.3325590495306905,0.28154714859207153,9.88455619812276
2555000000.0,21.84,0.0,0.0,0.0,0.32480905037219054,0.267028100744381,9.844825251860952
2560000000.0,21.84,0.0,0.0,0.0,0.306464300550143,0.2389714508252145,9.873961398899713
2565000000.0,21.84,0.0,0.0,0.0,0.33824899928818997,0.2098357505338575,9.861600500355905
2570000000.0,21.84,0.0,0.0,0.0,0.326476700161667,0.239756599676666,9.8843599497575
2575000000.0,21.84,0.0,0.0,0.0,0.32373,0.2369114499837145,9.880141449983714
2580000000.0,21.84,0.0,0.0,0.0,0.340210900226809,0.268401800453618,9.895150900226808
2585000000.0,21.84,0.0,0.0,0.0,0.3352076497894765,0.26653764978947647,9.857578248947382
2590000000.0,21.84,0.0,0.0,0.0,0.31745149938471495,0.2729142503076425,9.865328500615284
2595000000.0,21.84,0.0,0.0,0.0,0.3218661504047615,0.2667338495952385,9.860913849595239
2600000000.0,21.84,0.0,0.0,0.0,0.3001858484943585,0.23347779799247798,9.882594151505641
2605000000.0,21.84,0.0,0.0,0.0,0.32529980239599804,0.241129901197999,9.872980098802001
2610000000.0,21.84,0.0,0.0,0.0,0.33354,0.25290185069611854,9.86886
2615000000.0,21.84,0.0,0.0,0.0,0.3410937507932375,0.2626137507932375,9.853752498413526
2620000000.0,21.84,0.0,0.0,0.0,0.34335,0.2574143491096435,9.841784349109643
2625000000.0,21.84,0.0,0.0,0.0,0.32127734703757344,0.240344898025049,9.861502652962427
2630000000.0,21.84,0.0,0.0,0.0,0.30666054891540545,0.2426994510845945,9.876119451084595
2635000000.0,21.84,0.0,0.0,0.0,0.30411,0.24525,9.857185946454859
2640000000.0,21.84,0.0,0.0,0.0,0.31823650255766506,0.25231325127883253,9.84924
2645000000.0,21.84,0.0,0.0,0.0,0.309799697248097,0.2620251513759515,9.84924
2650000000.0,21.84,0.0,0.0,0.0,0.317844102946141,0.2580029485269295,9.85610705147307
2655000000.0,21.84,0.0,0.0,0.0,0.33049895157018955,0.24829104842981048,9.85905
2660000000.0,21.84,0.0,0.0,0.0,0.3402108516673085,0.23190829666538296,9.872391703334618
2665000000.0,21.84,0.0,0.0,0.0,0.3499227517644275,0.22563,9.898388255293282
2670000000.0,21.84,0.0,0.0,0.0,0.35316,0.2644779111692791,9.86925208883072
2675000000.0,21.84,0.0,0.0,0.0,0.33403034412400345,0.29724310391733105,9.836486896082668
2680000000.0,21.84,0.0,0.0,0.0,0.28605928766529287,0.29783154794421546,9.798227739721078
2685000000.0,21.84,0.0,0.0,0.0,0.2401485913883859,0.30666070430580705,9.78057
2690000000.0,21.84,0.0,0.015192872588217665,0.0,0.28645252250022524,0.11320567574925675,9.713665225249754
2695000000.0,21.84,-0.012999500516579924,0.05179166252109159,0.0,0.3835715234714152,-0.26712855092708554,9.834232113372822
2700000000.0,21.84,-0.004052500755991936,0.1248438968463119,0.0,-0.1079147199834472,-0.2197421120066211,9.93164394755574
2705000000.0,21.84,0.041393234775784,0.1512356498082573,-0.0031407484997813474,-1.647600270982803,0.3440405355207054,10.072418813534489
2710000000.0,21.84,0.05386355041468416,0.11971225947740102,-0.0053232542185827,-2.2672853050140533,0.734377494854475,10.110381620976517
2715000000.0,21.84,0.039129520648508775,0.030003099196826546,-0.002288970697772572,-2.432098153194582,1.1902509387576092,10.048284741793147
2720000000.0,21.84,-0.008860402435239063,-0.09668495340728422,0.0029810510313245183,-1.7179180599365806,1.2780448451887483,9.936744249010742
2725000000.0,21.84,-0.05373879690522461,-0.2160907023733551,0.007079945343686034,-1.1600343525449435,0.2604470841529707,9.972356611526967
2730000000.0,21.84,-0.08643976173821843,-0.31685559612291636,0.00621753790784964,0.40183478073974777,-0.9764927557244276,10.250470855944108
2735000000.0,21.84,-0.07039382091837622,-0.2833382466601075,0.00200152052457198,2.030279299970993,-1.0319098094447983,10.023657868817079
2740000000.0,21.84,0.00874040200157386,-0.1902078046187099,0.0,2.473692686830327,-0.34530854062118543,10.100772764139428
2745000000.0,21.84,0.0793605850401606,-0.05045623549007146,-0.0010859554335585471,2.996957665916577,0.671207771203078,9.871502141845221
2750000000.0,21.84,0.09533850024673607,0.08308664261122706,-0.001064639249668696,2.6977441243004416,1.3930204273236044,9.422506549048066
2755000000.0,21.84,0.0351084853261553,0.18845197729336477,-0.0031301083259102805,1.9466940454469408,1.2111401384218015,9.026371206592213
2760000000.0,21.84,-0.04005696450672967,0.2958063198097287,-0.0033216757237716507,0.7471184491847846,0.14753291108512911,8.861573703213837
2765000000.0,21.84,-0.06898174185327528,0.28797408382321815,0.0,-1.079305115330051,-1.0596797446492974,9.746534616973946
2770000000.0,21.84,-0.04360529871599942,0.21971804924086508,-0.0024487261364684212,-2.29436699670627,-0.8838748125484481,10.35151307607853
2775000000.0,21.84,0.024077215004296115,0.09374581658664728,-0.004365056759789566,-2.6943163382968636,0.30362656103696567,10.572238401427184
2780000000.0,21.84,0.07750675146629475,-0.05811864837844128,-0.0027255002996501333,-2.2723833241725333,1.2909995098806952,10.518279570082596
2785000000.0,21.84,0.0581593112440676,-0.1309230829989951,0.00015972698057854914,-1.4269583805678838,1.3781053379018535,10.182484563999045
2790000000.0,21.84,-0.021733949864462632,-0.15987753671911395,0.004982589473970361,-0.7806770361874703,0.6164550891445509,9.883768815534289
2795000000.0,21.84,-0.0732795060166237,-0.1633509709951009,0.0074525559060157,-0.15666119396971195,-0.18649141166081418,9.589176302815263
2800000000.0,21.84,-0.0664723499912631,-0.14573148417574947,0.004897358466550001,0.6219581333846813,-0.4571448578805486,9.639307577212577
2805000000.0,21.84,-0.01632462357754914,-0.10226592863888309,0.0006494311017026849,1.3562365862819659,-0.2225873199709732,9.622528230295783
2810000000.0,21.84,0.02256682332098488,-0.017854084756732596,0.0,1.6671093805074937,0.07024134658811346,9.549253420271834
2815000000.0,21.84,0.031009457155241792,0.016604406007363896,-0.0015757069848783248,1.4456997546779975,0.3374650935599509,9.879061962576019
2820000000.0,21.84,0.023433339956911672,0.0450864121283623,-0.0042586033748661,1.25763898736859,0.4186901426986014,9.801366761799068
2825000000.0,21.84,0.006015271311873871,0.09965675157635939,-0.003513335874015407,0.6822818235602182,0.3570842194889422,9.75114
2830000000.0,21.84,0.002789343450885181,0.1333702119905831,-0.0017673144349047926,0.051597246869372476,0.35924181521451815,9.761146364908063
2835000000.0,21.84,-0.0007239386689086569,0.13582905943704557,-0.0014159915983475858,-0.6379493110490931,0.284783804401738,9.855029166528892
2840000000.0,21.84,0.0038327729711028855,0.08300410505143685,-0.0014479131739650714,-1.349073185889332,0.2915543584354436,9.962250427709705
2845000000.0,21.84,0.002831887282299778,0.029338763143209413,0.0003300477588368427,-1.5953023105214232,0.3921049816107498,9.957053502560635
2850000000.0,21.84,-0.011929409645416906,-0.04666538517896943,0.0010646508437165,-1.4734594535397947,0.18050167497111674,10.15629305535783
2855000000.0,21.84,-0.024536404351865555,-0.11573357712528179,0.0016821603698017283,-0.915758786329288,-0.12497973272969733,10.131865489995555
2860000000.0,21.84,-0.022668191532351167,-0.1245487234994643,0.002299627735713138,-0.06277872255348721,-0.06238948902139489,10.047009433343794
2865000000.0,21.84,0.006094732734062781,-0.09598029396383392,0.0,0.6903314251248143,0.3093114703183147,9.890733461891434
2870000000.0,21.84,0.029099067487891508,-0.024090398317866003,0.00027681526935123497,0.9072286885073869,0.6447144264187443,9.563769836194599
2875000000.0,21.84,0.010912580240219672,0.0340908376507317,0.0010646508437165,0.7847975428892754,0.6866973195155732,9.616251215601212
2880000000.0,21.84,-0.006945852025257986,0.06425894364692258,0.000809128570159508,0.3080303638646036,0.253488498021485,9.49882803069198
2885000000.0,21.84,-0.026058825093036666,0.06438082283469483,0.0,-0.232988900941589,-0.027076272451962726,9.753104241506543
2890000000.0,21.84,-0.024415325516245753,0.01153301984655001,0.00023422927776274883,-0.3808231334391313,-0.11772,10.018559645708695
2895000000.0,21.84,-0.010092816766210789,-0.009628255383114563,0.0008410680638508727,-0.14067281333252815,-0.03737390695583907,9.95646515565275
2900000000.0,21.84,0.005113961525965125,-0.02833712294280342,0.0,0.27075757721257576,0.33157991518669916,10.129803634181137
2905000000.0,21.84,0.02597365310985969,-0.017112270398742725,-0.0006068693522141716,0.4252615250851152,0.6226414335398144,9.775958566460186
2910000000.0,21.84,0.020987718519834588,0.010884051210852497,-0.0028106659588010563,0.14891585652325856,0.6676667347324674,9.66029900433719
2915000000.0,21.84,-0.014290741249118208,0.045814346078498255,-0.0008836540554393588,0.10359178814791786,0.3288287087033871,9.577305894073959
2920000000.0,21.84,-0.03523602933803848,0.08586017903798662,0.0,-0.25427871648478717,-0.04198725373997254,9.52865214930982
2925000000.0,21.84,-0.020668913583451885,0.04192336663317173,0.0003194075849657961,-0.7769524545169246,-0.06964952281999523,9.958621556814617
2930000000.0,21.84,0.0033029538247095636,-0.010523896871881601,0.0019802443928472234,-0.8326723447061234,0.19110062117550622,9.980694569117347
2935000000.0,21.84,0.015250257405578099,-0.05344025991949175,0.00078782925033919,-0.664426796300568,0.45086714392917143,10.072712142053122
2940000000.0,21.84,0.0008921006562004189,-0.08053774521491773,-0.0008091222461334331,0.04865948449709485,0.3625766291984663,10.08742502971485
2945000000.0,21.84,-0.016221451550056835,-0.06049635971076063,0.0009475330428220881,0.3454107292340073,0.21474084279690844,9.82628494321855
2950000000.0,21.84,-0.017050059174531475,-0.0450658541364511,0.00010647130299729033,0.47676806280758066,0.2236690314037903,9.84629510909305
2955000000.0,21.84,-0.0070692566856150165,0.0024930158310487484,0.0009688260386163312,0.765472405888124,0.3755263408213634,9.558471829589319
2960000000.0,21.84,-0.003960557295977049,0.0282094450723683,0.0,0.4567525650999257,0.28370370514433707,9.59888914496669
2965000000.0,21.84,-0.012850341933904332,0.035727201929119067,0.00014906361861185142,0.26408266597102664,0.05454406073254061,9.659907575915677
2970000000.0,21.84,-0.013201607854226935,0.05471300384337146,0.0018737604417977832,-0.14911315377373152,0.13165060382080604,9.775863622924836
2975000000.0,21.84,-0.0028212808365678113,0.00862256075628677,-0.001969585246897952,-0.31686103528261034,0.20846394464513945,10.164631673357416
2980000000.0,21.84,0.003832680218720477,-0.032469796954050306,0.0010220585281019389,0.011773736487737366,0.4438047472975475,10.191412626351225
2985000000.0,21.84,-0.006771778576838282,-0.09593482744748338,0.0,0.3204978602238786,0.4944228403991284,10.1516800387783
2990000000.0,21.84,-0.0191811684794176,-0.09704141893838987,6.3897959460956e-05,1.1679787742314878,0.30253993538269935,9.776056064225262
2995000000.0,21.84,-0.019202474123263997,-0.05002005749367634,0.0031619940653800096,1.1978997399170974,0.2245502600829026,9.556510530788506
3000000000.0,21.84,-0.021310406822917394,-0.044732390107626765,1.8972078224749404e-08,1.3047300000000002,0.11772046617120467,9.711898310129383
3005000000.0,21.84,-0.010753084604955722,0.021704441198531634,0.003162032009536459,1.3047300000000002,0.19541566694815668,9.430253207312932
3010000000.0,21.84,-0.013776600953010493,0.03280876273005101,-0.0030662325005405867,1.0643835383590354,0.09044755687797557,9.840805914022459
3015000000.0,21.84,-0.015922826114352744,0.07331454853366667,0.0009369181650553376,1.0880272756882727,-0.05444637844136378,9.81117696574897
3020000000.0,21.84,0.012647532249230351,0.08275379031961361,4.257966756241122e-05,0.08122052339320529,0.08240487989814882,10.007770831857409
3025000000.0,21.84,0.008783337577029975,0.08107227633093597,-0.005057123391285026,0.1697138225979382,0.4424332327658323,10.081246911298969
3030000000.0,21.84,0.011519541290811931,0.09297516216433552,-0.0003193633167832841,-0.47814357864213586,0.6086133416658335,9.835700610938906
3035000000.0,21.84,-0.003140815956059426,0.007551482749578231,-0.0009901316824627241,-0.565546794756168,0.6089066410487664,10.12088084539071
3040000000.0,21.84,-0.02190539383122085,-0.03911029885764784,0.0038327750791116045,-0.3794495599845956,0.37356326474283263,9.764479119969192
3045000000.0,21.84,-0.02828396528762639,-0.09010834789078051,0.0013520873148605657,-0.2558440902543409,0.09427238478132388,9.829718750600188
3050000000.0,21.84,-0.039303140149351906,-0.10727849149102846,0.0020228430324878595,0.6464849835016498,-0.10791118485181185,9.945378710911088
3055000000.0,21.84,-0.020575725845388703,-0.09633057171188535,0.003076847378307327,0.8241386340573864,-0.14499191867941918,9.878571365942614
3060000000.0,21.84,-0.002173872351925985,-0.08918488981046903,-0.00149054343373607,1.3777201445202016,0.13773436141534362,10.032884329299742
3065000000.0,21.84,0.014835227591691636,-0.030034091175168455,0.0006494563978069845,1.6140404311450043,0.47529658368816585,9.696790099574201
3070000000.0,21.84,0.011543219671228403,0.019921828581697543,-0.0025977739450150795,1.4611001477476016,0.6211699155727992,9.685413298155334
3075000000.0,21.84,-0.0020229273528355497,0.07010146076096384,-0.0004790734332922597,1.3655515221745154,0.4125088873389889,9.500493126251731
3080000000.0,21.84,-0.027525407483125285,0.128777045692329,0.0,0.46381033886710343,0.14204712489147125,9.35952402227104
3085000000.0,21.84,-0.03107331190052459,0.0907449014784037,-0.0017673334069830174,0.0011750427927503804,0.0655305603103056,9.868373394957533
3090000000.0,21.84,-0.011671571430573208,0.03466712949021439,-0.0003832612762442256,-0.1875681603126816,0.0508157399804574,9.952637219941373
3095000000.0,21.84,-0.006590182198318435,-0.025541526896236254,0.0,-0.15225071906670717,0.128511601166616,10.153940163033202
3100000000.0,21.84,-0.003832723432898688,-0.0423905960813999,0.0008517272098001441,0.2864552515441525,0.28841508384805087,10.084679096793291
3105000000.0,21.84,-0.0015117911073434756,-0.03693949218967361,0.0010646508437165,0.33815027782370277,0.362479801554498,9.993250317512803
3110000000.0,21.84,-0.0035559534857342806,-0.04429932116487041,0.00023421662971059897,0.6910192995848929,0.4033874416320744,9.999725581224057
3115000000.0,21.84,-0.010816905103736566,-0.019799670791202807,0.0008197877161087795,0.817271281515413,0.29871359242293594,9.72671086130991
3120000000.0,21.84,-0.024117051789696725,-0.007665453189823458,0.00025550962550484205,0.7420277333751774,0.13066810915938107,9.717786606022566
3125000000.0,21.84,-0.02210891218694802,0.003194031581475536,0.0007984947203145364,0.7749904855950049,0.044144635803746356,9.697184635803746
3130000000.0,21.84,-0.013142269776747408,0.012690690841638739,0.00027680262129908513,0.6494207840701078,0.051208382389483824,9.79136191194742
3135000000.0,21.84,-0.002874491191962175,0.004024287668747028,0.0,0.6485395262552953,0.2092485787658858,9.994331300553112
3140000000.0,21.84,0.0007665552266231718,-0.009198662719478348,-0.0007665552266231718,0.7023963049536631,0.30018630495366305,10.062313260990733
3145000000.0,21.84,-0.002714892799913822,-0.014287627582050572,-0.00030874211499044976,0.8693635439327354,0.31392,10.044164516736444
3150000000.0,21.84,-0.0042586033748661,0.001490657266205491,0.0029810489233157845,0.9182158776300587,0.33452118355491184,9.92575702104047
3155000000.0,21.84,-0.007197066306593466,0.012924901147323281,0.0013201404431388026,0.702492200255222,0.3095051935895519,9.810980387179104
3160000000.0,21.84,-0.009241175984766986,0.014181142576996814,0.0,0.5948782772415828,0.26094569310395693,9.760557415862374
3165000000.0,21.84,-0.013873487831637268,0.014553783705452563,0.0,0.4768630549024305,0.19266790818937907,9.72484895409469
3170000000.0,21.84,-0.017392568426748953,-0.004067146647461106,0.0,0.4283046615734466,0.17324466157344662,9.841393231468931
3175000000.0,21.84,-0.015337053920469627,-0.029076460027726705,0.0,0.6356899734580997,0.1383206299766063,9.95273593169396
3180000000.0,21.84,-0.009070778264191412,-0.031829166875029014,0.0,0.9150784677274846,0.11772,9.98932692353537
3185000000.0,21.84,-0.001692747843455529,-0.007288454530941953,0.0,0.9733478288111783,0.23514687543126878,9.934586381351963
3190000000.0,21.84,0.0023848313390204745,0.0073035249615386304,0.0,0.8542538086092382,0.3953439294288393,9.940865833733458
3195000000.0,21.84,0.0012456212818850348,-0.0012244494965905264,0.0,0.8843724308856243,0.40338670352766703,9.8951500552915
3200000000.0,21.84,-0.0031939862592886862,0.016832211750674307,0.0,0.7769502596275026,0.2962611919699119,9.684430259627502
3205000000.0,21.84,-0.012243210065493094,0.03427793095565389,0.0,0.4818652078950521,0.15843056620080564,9.713471094078711
3210000000.0,21.84,-0.016434362535921072,0.023408227249368124,0.0,0.19953371653923713,0.058270963547209634,9.84982903645279
3215000000.0,21.84,-0.014156694185930073,-0.005131142695297512,0.0012137155163326973,0.20571701139787013,0.0965311493702115,9.984913486502835
3220000000.0,21.84,-0.0032364299602904868,-0.03157383326824996,0.002129301687433,0.4646035388837354,0.278997901071279,10.059566337455363
3225000000.0,21.84,0.0036730386124939943,-0.045168302875059456,0.0003726074003166833,0.787254692461447,0.33942549886595497,10.049854437358244
3230000000.0,21.84,-0.0048549031715004465,-0.034051545630068986,-0.000489732579241516,1.0953864194273644,0.21405313343913132,9.960680596178005
3235000000.0,21.84,-0.0117111592808819,0.013692880074636347,0.0,1.0650697520841976,0.12694127432801275,9.748097203428172
3240000000.0,21.84,-0.006728531862755023,0.0447327887286146,0.0,0.7180894826754948,0.25035283626092836,9.746040310394703
3245000000.0,21.84,0.0016715497080524375,0.02028984275202651,0.0005429787707836194,0.5347431630302316,0.3927926521209265,9.894072141211621
3250000000.0,21.84,-0.001597065328942022,-0.006387946168468687,0.0005323185708300021,0.5199297474905975,0.28939342181623423,9.859049116217092
3255000000.0,21.84,-0.015307674050413961,-0.012190286468395779,0.0,0.5531865954691659,0.1235073309797733,9.900940154162802
3260000000.0,21.84,-0.0177673898236697,-0.016446607336375426,0.0,0.6929795397885954,0.026682503462525035,10.01601
3265000000.0,21.84,-0.005770311215866347,-0.011603208345849433,0.0005003927791951332,0.8447399244431992,0.06739603179286031,10.05750687076837
3270000000.0,21.84,0.00800625706300937,0.007013589722550825,8.515828112047662e-05,0.8807413553892135,0.28939658789566586,10.005021402651813
3275000000.0,21.84,0.011551413328225135,0.023120418023539632,-0.0005855510603156098,0.6935648371598484,0.41741543638705436,9.866407181935271
3280000000.0,21.84,0.002768023050977883,0.018662338969811607,0.0,0.4885376814496768,0.42928585484025855,9.813531217739612
3285000000.0,21.84,-0.007314213619609552,0.0039391388736657006,0.000457806787606647,0.4737250914215509,0.3753294514706945,9.7552598171569
3290000000.0,21.84,-0.014571781779989225,-0.008844036529628774,0.0010646508437165,0.5028607917129079,0.1922747219139472,9.787634222468842
3295000000.0,21.84,-0.017488380583797005,-0.02815633484738676,0.000628137051904096,0.5842846240227463,0.03021403198294032,9.951068952025588
3300000000.0,21.84,-0.016406067028992118,-0.042177619747266214,0.0004258672939152824,0.8142322434489225,-0.019619679507296792,10.039553743605836
3305000000.0,21.84,-0.003875161863878788,-0.03406486186913783,0.0006494300476983391,1.1311929616741296,0.10163314069583139,9.993054214826042
3310000000.0,21.84,0.01454981173327224,-0.00213314137342863,-0.0004045742981210393,1.252539899901099,0.297440100098901,9.890048442729984
3315000000.0,21.84,0.01562936044461165,0.04114090839891241,-0.0014585786439404178,1.0584970683030706,0.38621976438989764,9.78057
3320000000.0,21.84,0.005749044570180729,0.0712452692662725,-0.0005961764781258151,0.6929751111621512,0.3570833551298336,9.734658361668785
3325000000.0,21.84,-0.0021825552570055593,0.08181121161557961,0.0013840320785736505,0.17363325412013253,0.30460069375240695,9.75604693752407
3330000000.0,21.84,-0.002086673535670747,0.03611424543948265,0.0,-0.22288371745003718,0.31372360595623605,9.96068185872502
3335000000.0,21.84,-0.0031408254420986392,-0.028565834663324654,0.0,-0.15166013842180137,0.239264798767648,10.01247891822699
3340000000.0,21.84,-0.01589021800177344,-0.0759715729874068,0.0,0.2895951574050516,0.07102323224113233,10.077617059501971
3345000000.0,21.84,-0.015289676494240085,-0.09183584565276111,0.0003300488128411885,0.818156598904466,-0.024720680219106804,10.061723690383436
3350000000.0,21.84,0.0005324313492950554,-0.0775535357127015,0.00042584621382836605,1.1948603425103035,0.11477888702218886,9.958130804790809
3355000000.0,21.84,0.013877511570981854,-0.03803232349833661,-0.0013734066607634455,1.498969303336993,0.34521461683534616,9.86071594049506
3360000000.0,21.84,0.016195188249900412,0.04235071732589177,-0.001831192368283176,1.5201547936493478,0.3449177726088777,9.642444482096344
3365000000.0,21.84,0.00420526443094163,0.12960507124722334,-0.0007771880224637976,0.9197782795581828,0.09152592741715929,9.615076541860665
3370000000.0,21.84,-0.004130760025748627,0.17193475691856236,-0.0002768163233555808,-0.1603025349445254,-0.0027453599194536063,9.799602643705926
3375000000.0,21.84,0.0087878253893044,0.14087363126077532,-0.0007984810182580407,-1.059482884434329,0.2550626222130262,9.991486442217164
3380000000.0,21.84,0.0191811684794176,0.03838724823059747,0.0,-1.362019809127998,0.570550190872002,10.172185725219556
3385000000.0,21.84,0.011092204351984604,-0.09446502863354272,0.00024487682966421617,-1.0850779852905799,0.6038045137565452,10.211522708253927
3390000000.0,21.84,-0.018563749597706153,-0.2036740695256989,0.0015331115072507112,-0.1322311617848116,0.3825867076658671,10.083108556292887
3395000000.0,21.84,-0.028592710564629913,-0.2595669559679378,0.0031939525311496,0.9840484197619841,0.020601659438016597,9.899762489157025
3400000000.0,21.84,-0.025352430412857913,-0.28676472804899245,0.004045701875041026,2.0483348682557487,0.10987239624552397,10.070947849145778
3405000000.0,21.84,0.0008623600056407699,-0.2898874943188598,0.006643392553712761,3.0378688508376888,0.13459240634352404,10.137844776680748
3410000000.0,21.84,0.002683020762500609,-0.1964056441183892,0.0026190195106137563,3.8916313052853138,0.04806933117579331,9.47214307011873
3415000000.0,21.84,0.017985042308559226,-0.026376620206862152,-0.0005429935268444777,4.261065497430455,0.1600039522879395,9.326069449718394
3420000000.0,21.84,0.028589701848749125,0.15978843012043534,-0.0026828984979964878,3.39896401708344,0.4881446699884467,8.91297300213543
3425000000.0,21.84,0.0016474246371384667,0.3678355633659214,-0.0015970484648724986,2.546664291333243,0.20796454903024547,8.79466300420453
3430000000.0,21.84,-0.019926460222368242,0.5369647168122283,-0.0106465084371654,0.6519518800496188,-0.7602766655908667,8.839805324081453
3435000000.0,21.84,-0.013978314905133838,0.5366641265223572,-0.011340836737363098,-2.2791733797016342,-0.8143198933472989,10.730182003245222
3440000000.0,21.84,0.06656114771483214,0.3190258880739159,-0.014707467906328906,-4.2759793922884946,0.31902594406895946,11.268159869993198
3445000000.0,21.84,0.13722281105989115,0.01751603107462382,-0.004269184524493848,-3.7623266497805665,1.065766697458967,11.42570499255025
3450000000.0,21.84,0.09704991234731113,-0.1972916704957084,0.004897437516875947,-3.0283374172681743,2.1052230514671306,11.06469223177682
3455000000.0,21.84,-0.030571167504336805,-0.3878911951038342,0.010550682578060876,-1.4532296433326966,1.5092527293310274,10.168555164453851
3460000000.0,21.84,-0.16631653286236464,-0.4550821456121272,0.008815243342582237,1.8042635335872352,-0.698481408888814,10.109007523079375
3465000000.0,21.84,-0.1461302614672473,-0.45905021134132495,0.0007453286331027433,2.9515374594421746,-1.91186598684686,9.924481421234114
3470000000.0,21.84,-0.014470439797780243,-0.305829346628513,0.010007644783033877,3.3514913656258143,-1.1616905617161057,9.71228795156128
3475000000.0,21.84,0.0953939620936431,-0.1307124529822078,-5.3239867516028444e-05,3.7518337575252376,0.24820555457325552,9.108095107479352
3480000000.0,21.84,0.1452187648675662,0.0627252362470837,-0.0010646508437165,3.613997916465779,1.9855446759482467,9.170384282284642
3485000000.0,21.84,0.09855090887778624,0.18988085478599045,-0.001160491458881859,2.749935409251154,2.0411578323553785,8.659190456914706
3490000000.0,21.84,-0.023548056977808915,0.2688335651985207,-0.004237303001041436,2.1980220244609203,0.7573191200780912,8.878246267789063
3495000000.0,21.84,-0.1333431130550469,0.34028472521151526,-0.0032152602830046854,1.245365583332756,-1.0752782410570825,8.89316106585381
3500000000.0,21.84,-0.15233124456080613,0.3866942114572436,-0.005323246840552279,-0.7455699935451999,-1.6676961249518614,9.41761298481043
3505000000.0,21.84,0.003747792419305479,0.2527492657393397,-0.004269242494732801,-2.173219307821693,-1.1141178194160783,11.272585903360158
3510000000.0,21.84,0.16714749032905257,0.04677791073476539,-0.006345333826771553,-2.5145015180363153,1.3910757261600577,10.522200545796906
3515000000.0,21.84,0.1456466754612178,-0.06485005012224246,-0.00019159269396566963,-1.9026450621472506,2.6029937295082375,10.411352317253423
3520000000.0,21.84,0.014992831565614956,-0.14385617146201035,0.006132433380950799,-0.5838817646948176,1.593528810732788,10.069373938616039
3525000000.0,21.84,-0.0754276461656323,-0.1895055444001683,0.007399330794560514,-0.23151380899533808,-0.30461412531024123,10.167084821626748
3530000000.0,21.84,-0.11494485257600526,-0.2258011780263944,0.0024486597341945547,0.9921923821479238,-1.1583704224132043,10.099198251471883
3535000000.0,21.84,-0.06170150936833239,-0.19328779775074179,0.003119434423900163,1.9633801289871013,-1.151889788021198,10.012379682031797
3540000000.0,21.84,0.02871690830278155,-0.1269785009704274,0.00025549381543966314,2.292402794047328,-0.4167232304195322,9.943023118678232
3545000000.0,21.84,0.10117549246006288,-0.05455830200993868,-0.0019376794813456538,2.5651207280064074,0.8966436400320366,9.848258311426283
3550000000.0,21.84,0.09800190787174579,0.04793796206907852,-0.0011711084446572946,2.254335379729354,1.6029585509963855,9.406805621229955
3555000000.0,21.84,0.027733607173236238,0.13065085625980888,-0.0020121975885950836,1.8067044545743445,1.2224205783679056,9.271430309483904
3560000000.0,21.84,-0.04832172636457707,0.18641689835898373,0.001618299300492849,1.1775877670351775,-0.16207184890421855,9.338335822338557
3565000000.0,21.84,-0.0927388790986293,0.18817525372239163,0.00027679418926431854,-0.03640430969774311,-1.0346663089136632,9.835411847013317
3570000000.0,21.84,-0.020128591283752426,0.11786709724912448,-0.0027468217535617434,-0.4675467496319675,-0.7498732102235321,10.498666854007668
3575000000.0,21.84,0.07765826116981185,0.03228360950538768,-0.0013840310245693194,-0.48510429167974295,0.3722983188908833,10.569784291679742
3580000000.0,21.84,0.09714855455786393,-0.029141123090670233,-0.0001703365883235239,-0.4065257741651578,1.259609910662399,10.351117792032678
3585000000.0,21.84,0.03257985073142526,-0.08344091201196617,0.0008836677574958545,0.03100322098483216,1.0917523235300233,9.984615214627052
3590000000.0,21.84,-0.027990603186771414,-0.09093094076170133,0.002810693362914048,0.5199334865721349,0.3784641517531415,9.660493368593833
3595000000.0,21.84,-0.049569892859612164,-0.07673554811506404,0.0023315777694479073,0.8227665853711659,-0.20159934057089338,9.540420641371506
3600000000.0,21.84,-0.027488715518396146,-0.05560952126158619,0.00127757342362851,1.108532097770421,-0.39828683910816837,9.658927188736572
3605000000.0,21.84,0.0064590163337640595,-0.00905648233672264,0.0002235690778091316,1.244889700227997,-0.1660809892476099,9.7000299700228
3610000000.0,21.84,0.03878074639445976,0.0320385850287213,-0.0016608705360204937,1.0894969872418698,0.437530908394309,9.732697480479674
3615000000.0,21.84,0.04745447040507743,0.01750666063041431,-0.002129301687433,0.8736770552251707,0.8001055660770557,9.877297863906678
3620000000.0,21.84,0.02527494630282184,0.002555085715005059,-0.0005110171430009925,0.9582420656548207,0.6694325718319257,9.813530615601806
3625000000.0,21.84,-0.012252501977739486,0.006387966194551282,-0.0007984957743188822,1.022692711233827,0.1667657753234577,9.721709436709794
3630000000.0,21.84,-0.023162970286989062,0.031377751327872766,0.0005110477091270214,0.7977469437313695,-0.1183099396594994,9.607716883390868
3635000000.0,21.84,-0.00011094746938764347,0.026974290053637235,0.00028744806519186085,0.5657412172842122,0.11968482422054824,9.724948782715789
3640000000.0,21.84,0.028460236542452246,0.007797985182240119,-0.0015331125612550352,0.6090057898368579,0.40221176756581767,9.787633270702633
3645000000.0,21.84,0.029412393934308452,0.018015799088423243,-0.0006174821219722079,0.5847734628022346,0.4360541460012415,9.839136195598263
3650000000.0,21.84,0.005008871694368793,0.011822729424935268,0.0,0.3737590857844909,0.14028009322830093,10.05132798511238
3655000000.0,21.84,-0.007931687309547002,0.007122521849235354,0.0,0.32137588397595884,-0.02776279695792798,10.086347203042072
3660000000.0,21.84,0.007069459054449466,-0.003406998429570111,-0.0007239702890390314,0.36689435545554355,0.17108874600658744,10.091743484364436
3665000000.0,21.84,0.02561666251180226,-0.022795376405212675,-0.0003513270525745901,0.5600548220821482,0.4455720508939205,10.038572288117724
3670000000.0,21.84,0.024568232121096243,-0.03615177255578636,0.0,0.6604093425706935,0.5491640138560402,9.902605259434454
3675000000.0,21.84,0.005382417106716962,-0.044957125639950316,-0.0006920307953476668,0.8392474273265743,0.3359900016137,9.798227428940274
3680000000.0,21.84,-0.008645026910754153,-0.007027626002096658,0.00234227064353629,0.9570638859183388,0.10908598484705985,9.632633627449136
3685000000.0,21.84,-0.002991567886687139,0.0012199886564601779,0.00023417657754549494,0.7363358800852589,0.005787398963073988,9.876319321988595
3690000000.0,21.84,0.005429758195714635,-0.0034920080960777634,-0.0008091190841203956,0.9329349420602495,0.06553180343351805,10.004237283261773
3695000000.0,21.84,0.018503764206049433,0.007378131605153092,0.0,0.8626880985366812,0.29724515312825156,9.93105496937435
3700000000.0,21.84,0.023013880318268544,0.010220616901150104,0.0,0.9103707309863074,0.40613392813193927,9.955188574944485
3705000000.0,21.84,0.020682318358885763,0.026743906751338548,-0.001256303615929875,0.6774738502981386,0.49481755144287554,9.795576925149069
3710000000.0,21.84,0.012208127254382304,0.0054264963805608635,-0.000894291067297368,0.5656465456820655,0.416923198442532,9.79940692949517
3715000000.0,21.84,-0.0015012594959200563,0.018473923390519467,0.0006068588121706945,0.5594627846522279,0.2859611392029114,9.585150759072606
3720000000.0,21.84,-0.006260131277468555,0.006903996735141353,0.0010646508437165,0.3884749161519492,0.0780851432777514,9.70052502441835
3725000000.0,21.84,-0.004737688402206193,0.0030363695509193663,-0.00010648078903640278,0.3938724405975244,0.012263585304835858,9.701595809963559
3730000000.0,21.84,0.012423481767895355,0.024419234904758187,-0.0004897315252371701,0.3612029683368297,0.13145472450774723,9.74663109498951
3735000000.0,21.84,0.024376633103104513,0.05336473209335782,0.0005642728205822083,0.2013000392337004,0.20257686273946862,9.898779411781595
3740000000.0,21.84,0.022928747333252387,0.07767759202420448,-4.260180165367353e-05,-0.45401508153145076,0.3174529076102291,9.875531453805115
3745000000.0,21.84,0.01365723369949696,0.060421681394850664,-0.0010646508437165,-0.7406513628934136,0.5923305642010057,9.877884618062946
3750000000.0,21.84,0.012252330054079753,-6.803511658423633e-07,-0.0005323175168256563,-0.5787911654280117,0.6082175234654753,9.922816238267263
3755000000.0,21.84,0.005630035868211206,-0.053118508470763506,0.0005216868289937221,-0.49863989309979895,0.33569659539986596,9.785079244926994
3760000000.0,21.84,-0.020322082256823668,-0.08935501863898512,0.0025977718370063492,-0.07926085619160855,0.07023718989487188,9.771548159540483
3765000000.0,21.84,-0.030455797104417617,-0.09684044199448558,0.0032578157084670947,0.44979252218342525,-0.04277072243270723,9.74338593155536
3770000000.0,21.84,-0.010144598686535226,-0.08500231097424382,0.0016395543521306425,0.9433329684754297,0.07377207873272078,9.785480492079504
3775000000.0,21.84,0.016030920929617797,-0.06822697319439741,0.000585550006311264,1.4386406795162068,0.2741917730702177,9.900247307209872
3780000000.0,21.84,0.01896819846931004,-0.015383140657902035,0.0,1.6771164252485644,0.3810193720924937,9.762130724254307
3785000000.0,21.84,0.012317248168796117,0.04382303277391387,-0.0009156156832219857,1.4078299386793993,0.3209834940763349,9.726315480145054
3790000000.0,21.84,0.006558233218587958,0.1033234917180643,-0.0016821403437191286,0.932534403876444,0.29390671660556716,9.613608879517988
3795000000.0,21.84,0.01187813288691314,0.10201394718061398,-0.0006281359978997502,0.23415784466107847,0.3100956479797565,9.837268704040488
3800000000.0,21.84,0.012360253412211654,0.08053261373428441,0.0,-0.32765444286264445,0.357082597601626,9.778611469090714
3805000000.0,21.84,-0.009791116609763614,0.0428269031674092,-0.00041522185002250666,-0.4203596086133961,0.15725260012612602,9.974904547941245
3810000000.0,21.84,-0.016150783133204852,0.0027078635585377486,-0.0006600754915911148,-0.4952085039812851,0.012164251990642519,10.002082834191828
3815000000.0,21.84,0.0024381871470146033,-0.038781334217867044,0.0,-0.4236929366766294,0.13067186766471867,10.10625903592809
3820000000.0,21.84,0.015379873710956529,-0.037919103854760765,0.0,-0.2020830320433303,0.4061351129837511,9.947341854972919
3825000000.0,21.84,0.013638778549928203,-0.03802534327680199,0.0003726358584340205,0.09025289155242891,0.47970855422378555,9.973824176750641
3830000000.0,21.84,0.0002554031710659448,-0.031722892670844424,0.0010646508437165,0.21680211589732115,0.39141788410267886,9.778216641504166
3835000000.0,21.84,-0.011338571906647752,-0.032770749424004916,0.0017673365689960879,0.36895536633465364,0.27487575305835754,9.732890271408502
3840000000.0,21.84,-0.015592089727824119,-0.022922747940515978,0.0021718634369216,0.5403362171604622,0.1600974099025741,9.598107356432672
3845000000.0,21.84,-0.017381916658830134,-0.038436428349833504,0.0,0.7126976202676764,0.006082349369023494,9.773601837935018
3850000000.0,21.84,-0.013639634349620722,-0.016507364777576073,0.0,0.8524899721611998,0.03139229912652299,9.6491198886448
3855000000.0,21.84,0.004221273962131689,-0.006341636949725525,-0.0006175137421025825,0.8791705526675055,0.18972884442248844,9.881021105335012
3860000000.0,21.84,0.023567562503184005,0.030679478960691807,-0.0015330809411246604,0.7314337499517375,0.5403356247345563,9.68443499903475
3865000000.0,21.84,0.021742125983518205,0.050427791472202284,-0.00028746387525704816,0.5998773709856737,0.5888934741971348,9.874252872445428
3870000000.0,21.84,0.002427224447813706,0.07533970113157898,-0.0007878334663565733,0.12183771938647718,0.39789029251530295,9.715434306123843
3875000000.0,21.84,-0.015441817027997523,0.05060137651919836,0.0,-0.24034876336128763,0.08583772580167726,9.890929865647099
3880000000.0,21.84,-0.01449243405203969,0.021897634285784437,-0.00025552438156568354,-0.5564215419844154,0.11261895072868951,9.727599014573789
3885000000.0,21.84,-0.005653271411293491,-0.041953992699218096,-0.0008197729600479379,-0.30214498154144986,0.17040113376781135,9.931052230618521
3890000000.0,21.84,-0.003896646688463943,-0.04348059479658037,0.0,0.06043171564031715,0.2837041421798414,9.706605849019057
3895000000.0,21.84,-0.006164320174424881,-0.0580543017068679,0.0,0.3364852696710527,0.20542245917982457,9.944982271149122
3900000000.0,21.84,-0.0034068087087878634,-0.01683896950817683,-0.0006388151699316121,0.5277764091907642,0.3315786817753868,9.694245484629754
3905000000.0,21.84,0.0034494358065457775,-0.013566870623965558,-0.002587076854909353,0.44312096154740965,0.40221,9.990010845252108
3910000000.0,21.84,-0.0013415177592807164,0.01433017562948262,0.0,0.6982720785941208,0.34923372158823723,9.759578650570587
3915000000.0,21.84,-0.009265512063895186,0.016239098883048978,0.0,0.2991066718674667,0.0995711197791112,9.915062286365423
3920000000.0,21.84,-0.01555843899760166,0.032379757060441605,0.0,0.20247489750034897,0.10281093195630932,9.67658704565187
3925000000.0,21.84,-0.001490478085466641,-0.0006921140616910463,0.0,-0.09122857817188576,0.3482557623841576,9.95469483165545
3930000000.0,21.84,0.0018311828822440636,-0.014822615306574513,0.0,0.3484487572628876,0.4069174259603743,9.712295148079251
3935000000.0,21.84,-0.0029089400626558216,-0.036319529148816504,0.0002768258093946932,0.15627796239187963,0.22700171848161718,9.97519795415508
3940000000.0,21.84,-0.020456530377304823,-0.0037877551668647775,0.0018737688738325498,0.5874169837372699,0.047480935708409354,9.729167360184773
3945000000.0,21.84,-0.005216705973268131,0.031595047213718246,0.0,-0.00931528552095285,0.13812694555296945,9.915849057104191
3950000000.0,21.84,0.005003917251908003,0.03749317964461077,0.0,0.3933749388031494,0.39534399741214,9.826677537068075
3955000000.0,21.84,0.010369582497357808,0.034231739336149675,0.00028748073932659024,-0.2767377185449772,0.4880455794717558,9.892011907284518
3960000000.0,21.84,-0.004728596405210333,-0.016667054176852113,0.0029384112855143753,-0.03924384591243846,0.26487,9.912807338553273
3965000000.0,21.84,-0.022300587093252673,-0.004996216195073474,0.0001490678346292347,-0.43761816981668167,0.24426668953896688,9.757125871353459
3970000000.0,21.84,-0.02105492048918071,-0.06791449779601409,0.0019376394291805124,0.26310396866253966,-0.013535717962857182,9.950477040850371
3975000000.0,21.84,-0.016092657402625693,-0.016663975412879214,-0.0010114099221961257,0.2638934781571348,0.22710018743670188,9.712884242803442
3980000000.0,21.84,0.0017459518748237175,-0.06578475855854737,-4.259442362325272e-05,0.7973554084789541,0.08122927381519274,10.07957392967634
3985000000.0,21.84,-0.006909441168671452,0.041261150424196626,-0.0010646508437165,0.6248962259615624,0.37905747115387467,9.50422702163447
3990000000.0,21.84,0.010412192731046287,-0.0004454412777364718,-0.0010646508437165,0.5250293399768934,0.2689918275202183,10.072903349942234
3995000000.0,21.84,-0.0010220311239889466,0.0814760691453102,-0.0010539959137846118,0.28840934411509345,0.4694073360287734,9.501970655884906
4000000000.0,21.84,0.0031937331600155913,0.0266337496815377,2.5296104299665874e-08,-0.2942982907055829,0.3237289899623899,10.084677591448777
4005000000.0,21.84,-0.024227658591056727,0.029795762718995936,0.0031620383335625338,-0.08063648856896488,0.1974742886998429,9.783608688438088
4010000000.0,21.84,-0.01509702181314154,-0.031765142331374056,-0.000979512588678592,-0.5014906271353063,0.17697224422112243,10.01130306934653
4015000000.0,21.84,-0.0149051118120315,-0.08159331886953552,0.0020335085024632054,0.38436313073643125,0.13851688805376888,9.93036799812098
4020000000.0,21.84,-0.004684378970403313,-0.04730580544201091,8.515511910743914e-05,0.1765780479080805,0.20326374658573748,9.758201794493818
4025000000.0,21.84,-0.015400878790776744,-0.029615483517611976,0.0010114267862656589,1.0707690835371908,0.13145337455363376,9.81637704726557
4030000000.0,21.84,-0.0019598856768724034,0.06035563829464334,6.387055534796265e-05,0.45439356399013564,0.33962400039204,9.598494521330045
4035000000.0,21.84,0.012797222222883787,0.04325395001313881,0.0,0.27516932437449326,0.35316,9.894564864751148
4040000000.0,21.84,0.00012763887227442046,0.0728984867285744,0.0,-0.31274782221777825,0.3982863923607639,9.81863193680632
4045000000.0,21.84,-0.012690740379843028,0.012618699562938984,0.0,-0.5058048571083485,0.2058120714760207,9.917126142831263
4050000000.0,21.84,-0.0349364436007028,-0.01374988327330846,0.0,-0.10496330267963305,0.062782898670529,9.980694471998344
4055000000.0,21.84,-0.014523552078934146,-0.05579975707182609,0.0,-0.1985556602161566,0.06651195752701958,9.899270212364902
4060000000.0,21.84,-0.008900455377924388,-0.07008901768674113,0.0,0.43164591454715917,0.24132757721257575,9.974808788606287
4065000000.0,21.84,0.005376615296598433,-0.02781735286390946,0.0,0.5540691158309912,0.3502177895774779,9.687862736478827
4070000000.0,21.84,-0.005365960366666555,0.0006791391299638509,0.0,0.601353395274334,0.3882800371646004,9.871020334481402
4075000000.0,21.84,-0.006547594098721256,0.03232725484045876,0.0,0.5081570501761705,0.2589827335682274,9.774682733568227
4080000000.0,21.84,-0.01445140375358683,0.060547091773641495,0.0,-0.03689067194270673,0.1365542490107425,9.78410191699642
4085000000.0,21.84,-0.016870884759768282,0.03403571327528165,0.0,-0.19433665542356654,0.09329286196132862,10.042793759732938
4090000000.0,21.84,-0.00743430950114375,0.02333326366113444,0.0,-0.38298414775354145,0.15264423554674234,9.869250175586401
4095000000.0,21.84,-0.002736126771464666,-0.035446470567096586,0.0,-0.30263730689307305,0.32569359080923593,10.089980104375702
4100000000.0,21.84,-0.004684489640859667,-0.03621894285316594,0.0,0.14126822079178225,0.402210398187904,9.776642177396122
4105000000.0,21.84,-0.011210833957964857,-0.02376971842870345,0.0,0.1910001418571014,0.31902024318360245,9.837469594693996
4110000000.0,21.84,-0.01777204176688312,-0.0071794389824051535,0.0,0.291358197477282,0.12595864369998644,9.809803081513632
4115000000.0,21.84,-0.0191811684794176,0.02223297119393744,0.0,0.18776196127911962,0.040711100355311,9.767718660213186
4120000000.0,21.84,-0.011076470572521696,0.014440689073703645,0.0,0.04277047963520478,0.1934549605732496,9.947342000651421
4125000000.0,21.84,0.001863252018470039,0.012775844906741862,0.0,0.024525160246351603,0.2893954807390548,9.829618077043781
4130000000.0,21.84,-0.00649450073780934,0.0035984066727752454,0.0,0.014911039559410397,0.2532936384579364,9.92320908462619
4135000000.0,21.84,-0.015322472478774399,-0.0038860191626450707,0.0,-0.025996901587069014,0.19247171809551716,9.876510675556206
4140000000.0,21.84,-0.014739628274406407,-0.003023582214686966,0.0,-0.09574624331626243,0.17658,9.83943
4145000000.0,21.84,-0.008549085111171594,-0.014992177892854229,0.0,-0.027172653348526546,0.28802288818642885,9.888186263581563
4150000000.0,21.84,-0.007878433739974511,-0.0016019934040153554,0.0,0.14028453156664533,0.2442679520859795,9.811960871477208
4155000000.0,21.84,-0.009986442431613366,0.013746126387129756,0.0,-0.0813282089414821,0.17216509647055095,9.892601652706016
4160000000.0,21.84,-0.012094451123252154,0.007628370949747474,0.0,-0.11261766875787667,0.1703017616060176,9.933998238393983
4165000000.0,21.84,-0.00992251074401331,-0.0010859965397280675,0.0,-0.10153390450063904,0.18972556180025563,9.986875028101151
4170000000.0,21.84,-0.005706493360735631,-0.015151003751553333,0.0,-0.0011757420495574072,0.17677595700825957,9.996585957008259
4175000000.0,21.84,-0.009102826320330382,-0.01785031092009051,0.0,0.02060051343380514,0.18589974328309744,9.961073675622536
4180000000.0,21.84,-0.008985617875062208,-0.022801069462817167,0.0,0.14440506740415066,0.20875696238296965,9.953618481191485
4185000000.0,21.84,-0.00678181705245793,0.007595948583835676,0.0,0.2812534315974343,0.18491809355698094,9.815001230362112
4190000000.0,21.84,-0.007708089773620558,0.036939668208399376,0.0,-0.038852320371923266,0.2154282510857825,9.85924790910018
4195000000.0,21.84,-0.00656886917644166,0.02375891051263257,0.0,-0.23710745555147456,0.2691867259313673,9.985403451862734
4200000000.0,21.84,-0.008517251017914845,0.006600764401950481,0.0,-0.24917432631984326,0.19619877630058774,9.998351755260117
4205000000.0,21.84,-0.0106465084371654,0.0031939525311496,0.0,-0.2880219267083193,0.11418807329168074,9.98658
4210000000.0,21.84,-0.01002900207309318,-0.003598617473644411,0.0,-0.29842011822580117,0.11516964532259646,10.043478817741988
4215000000.0,21.84,-0.008368137861098662,-0.02855353085590572,0.0,-0.19923970818759706,0.22259029181240292,10.039945745029458
4220000000.0,21.84,-0.005663915801181888,-0.041879497780064286,0.0,0.16912882629558826,0.27781895409468954,9.896326360631264
4225000000.0,21.84,-0.007772004597151048,-0.01704191108162427,0.0,0.3320674331477743,0.26487,9.750648597278886
4230000000.0,21.84,-0.0106465084371654,0.002129301687433,0.0,0.26408503567465036,0.19600273188522732,9.797444678928146
4235000000.0,21.84,-0.01347712820148492,0.01624539894348408,0.0,0.19266741288247413,0.08534617740206177,9.821476795142267
4240000000.0,21.84,-0.007120102062602537,0.02710214394279815,0.0,-0.036103600135036024,0.16167077656590773,9.882988211852082
4245000000.0,21.84,0.003779555237678157,0.011442669367234485,0.0,-0.20120318245403182,0.3197086420862864,10.006592729816127
4250000000.0,21.84,0.0005322268724519156,-0.013317050479361837,0.0,-0.14224392683503928,0.3090140919373409,10.016009834897698
4255000000.0,21.84,-0.01315712472393101,-0.02033091963401561,0.0,0.05130853150328532,0.1300784511449845,9.948516208220763
4260000000.0,21.84,-0.018235844128620293,0.0034491121408178477,0.0,0.09221234509222345,0.02354441372694414,9.813137876073778
4265000000.0,21.84,-0.007899583391177717,0.013987926871847382,0.0,-0.03286391421253915,0.18737348527523487,9.823735656850157
4270000000.0,21.84,0.004407735503760468,0.0011498049088195933,0.0,0.008830244094402438,0.38396414645664145,9.864542438845225
4275000000.0,21.84,0.004311736787943266,0.00574922269691516,0.0,0.030900420522304205,0.35217750533857506,9.834525830367458
4280000000.0,21.84,-0.00869535679322269,0.007154345402448701,0.0,-0.12125317954343179,0.17736330359043304,9.931644831338648
4285000000.0,21.84,-0.015213126145660586,-0.005493706747384235,0.0,-0.19188293415212934,0.048951317383113174,10.020327065847871
4290000000.0,21.84,-0.009198510942852536,-0.009645673340570796,0.0,-0.0853457500784575,0.03865198329671983,10.040338300031385
4295000000.0,21.84,-0.0016395079759394856,-0.0009580952203715803,0.0,0.0,0.14283493480354936,9.986089082873892
4300000000.0,21.84,0.002129301687433,0.002342168405114802,0.0,0.0,0.2982253363574534,9.933605498865955
4305000000.0,21.84,0.0017140787834061474,-0.005866307823674829,0.0,0.0420858198140582,0.37327008190270083,9.871508114663781
4310000000.0,21.84,-0.0009582311869321925,-0.006047089595065476,0.0,0.051991744251317445,0.2911596279678963,9.825892116283422
4315000000.0,21.84,-0.006622182824261868,0.002012162806451735,0.0,-0.046499567627395676,0.17697172949041728,9.88877589246026
4320000000.0,21.84,-0.0106465084371654,-0.007671951541305695,0.0,-0.03060652871346529,0.08868147698101478,10.04151683910817
4325000000.0,21.84,-0.00803805005009673,-0.022801017816604235,0.0,0.06769017611110176,0.05738942408729424,10.083698495952385
4330000000.0,21.84,-0.00029802921481953976,-0.02665504478534067,0.0,0.23367613441626134,0.1608848410505484,10.042104515894945
4335000000.0,21.84,0.004620566385294421,-0.01997366842042464,0.0,0.40201430521304304,0.22563,9.954695394945654
4340000000.0,21.84,0.0018311628561615612,0.008097206078563407,0.0,0.40691787270777874,0.18481930410919306,9.777822862802829
4345000000.0,21.84,-0.0010646508437165,0.04667109522159475,0.0,0.1875631489722315,0.1315530283605303,9.726810524828705
4350000000.0,21.84,0.0037264155005750296,0.08032168731765207,0.0,-0.2844942246765423,0.2737009433512094,9.74035094335121
4355000000.0,21.84,0.013670080111808923,0.0605549241317716,0.0,-0.684739691812997,0.4117251078654511,9.926739845906498
4360000000.0,21.84,0.006771059884104558,0.021560713278214717,0.0,-0.8487619621899197,0.31352607562016077,10.015618192814381
4365000000.0,21.84,-0.0075106390098946185,-0.026466504626190584,0.0,-0.8567055195173552,0.1572533673662337,10.088899063063991
4370000000.0,21.84,-0.018350713185324757,-0.08474811959715796,0.0,-0.5303227431415274,0.11163890346608903,10.125292466297925
4375000000.0,21.84,-0.012256445405408614,-0.13954816954710592,0.0,0.22563883782908833,0.2354410197495102,10.025819320166992
4380000000.0,21.84,-0.0013201762792865294,-0.16358802814924475,0.0,1.1909412314808123,0.28841272385632727,9.903388902941389
4385000000.0,21.84,-0.0011497859367413687,-0.12133830728220286,0.0,1.856249392427094,0.15852891861308918,9.724653851733638
4390000000.0,21.84,0.0016608368078814273,-0.04071342604204288,0.0,1.9749497116228971,0.12399942324579424,9.741916297696964
4395000000.0,21.84,0.001788687535029381,0.06748946682862905,0.0,1.8807673950030739,0.16637555117755554,9.485875551177555
4400000000.0,21.84,0.008943085637695407,0.17853380464117244,0.0,1.0575050948271512,-0.001961230817512309,9.378363418588835
4405000000.0,21.84,0.010039629598912097,0.2322335102703654,-0.0010114647304221463,-0.347480296297103,0.050030144381601444,9.737015653484157
4410000000.0,21.84,0.008602434595139555,0.22667262152788123,-0.004939961322208082,-1.4405079379883796,-0.07004537015605371,9.955974170543342
4415000000.0,21.84,0.019092426739030215,0.1928282504218274,-0.004641952133471079,-2.2501249311207494,-0.14832171161101712,10.119703500877636
4420000000.0,21.84,0.04746123664645105,0.13081410126499116,-0.01102974547130964,-2.757787800972378,0.4418461775406618,10.289120314146803
4425000000.0,21.84,0.0587476052383813,0.012092723644686918,-0.005695779406560365,-2.7772087652917876,0.8927151570189515,10.252919866944
4430000000.0,21.84,0.034083369753481425,-0.0678614767121542,0.004854845201261383,-2.4862417534385175,1.3325866139128661,10.10273091628461
4435000000.0,21.84,-0.02431590584789716,-0.1745697645001466,0.008378792791030595,-1.9018559994000601,0.7841013259070133,10.145697683132676
4440000000.0,21.84,-0.11070847860204011,-0.26265170272868427,0.007580323366820283,-0.8373667664322677,-0.49521561309215617,10.174545464433756
4445000000.0,21.84,-0.11937024070005835,-0.3860413941505954,0.00840008578682484,0.8622180814195809,-1.192308608743086,10.690343701639737
4450000000.0,21.84,-0.05730692870274578,-0.3282048398408445,0.007133132510984707,2.6359501981287026,-1.2311476529475767,10.132750642282307
4455000000.0,21.84,0.04622700528110218,-0.22878545279048632,0.003491979637960432,3.023546070779061,-0.33234826245098265,10.271361444410013
4460000000.0,21.84,0.10617834983284678,-0.07316275345415327,-0.004173421905650015,3.6088994214241943,1.2160529710692296,9.941450101643301
4465000000.0,21.84,0.1204986603272278,0.08731723533679783,-0.0034175574451064963,3.192362047636821,1.7323424361821242,9.498233516727536
4470000000.0,21.84,0.03069657800407894,0.22402599012719,-0.0061962396420336685,2.2611941469516412,1.045140816542108,8.980266466551365
4475000000.0,21.84,-0.07402929604277717,0.3821717746389784,-0.0033536784577237653,0.9745997704288977,-0.7416405199183053,8.63967690905167
4480000000.0,21.84,-0.10114948968904622,0.43368198667334484,-0.006515691495181999,-1.6378927412407276,-1.2078031101246312,9.743693623974236
4485000000.0,21.84,-0.019571850291831647,0.3277155011654893,-0.009454061674526889,-3.296558323870583,-0.751638192675782,10.73753419326384
4490000000.0,21.84,0.10645470849369237,0.10489121539756721,-0.0053871616640827685,-3.934394500995446,-0.269362802680128,10.587341085911211
4495000000.0,21.84,0.15493986115219932,-0.08112731006201235,-0.00831474305494385,-3.4673309669528094,1.9209031721085317,10.220252628420328
4500000000.0,21.84,0.09693453308338817,-0.20240636488299027,0.011711092878608113,-1.9619865393064653,2.7075509970686102,10.045434231131342
4505000000.0,21.84,-0.02012906434163733,-0.2614651657684129,0.004333062457872167,-0.4663539243501391,1.7072252870653528,9.404448824721488
4510000000.0,21.84,-0.17790109217368194,-0.2777116971963696,0.008432072710711773,0.6639509617553097,-0.9274613151655133,9.23454391077724
4515000000.0,21.84,-0.20693031393831027,-0.2490978365831251,0.0043863234054751146,0.9055631170645312,-2.3322418531810185,9.963925652781256
4520000000.0,21.84,-0.07579772136370497,-0.1674091342598501,0.0022144546985317514,1.7410865260107653,-1.526428098398081,9.826479307475193
4525000000.0,21.84,0.07239236712907815,-0.06082811433460239,-0.0019164096736470188,2.297506921990969,0.13980788122177867,9.633418242146082
4530000000.0,21.84,0.1589957117067898,0.05275325952403268,-0.002129301687433,2.435627855877778,1.6457391504314915,10.0570199355213
4535000000.0,21.84,0.11848106183029825,0.15772739859255597,-0.0011391668429572384,1.6307084602628845,1.663382895304529,9.601140431392505
4540000000.0,21.84,-0.015300131733545316,0.2111762138998804,-0.0059620925766098835,0.8475769452757695,0.5387542651774426,9.573775288184052
4545000000.0,21.84,-0.07220105657998066,0.20452438314288376,-0.0005748539702099074,-0.661404501549845,-0.7458660413958605,10.074482543745626
4550000000.0,21.84,-0.05752760548895741,0.13826607598264343,-0.0028745860523532807,-1.4047980097237802,-0.86328,10.22986906053949
4555000000.0,21.84,0.011925818859955868,0.05327626024719795,-0.00129885482537496,-1.5675408732295089,-0.2695727836721279,10.23290901152459
4560000000.0,21.84,0.07555377637755509,-0.004129241274601396,-0.00012774848872634608,-1.6398402200077025,0.7275190772605906,10.223197111427472
4565000000.0,21.84,0.075669894308458,-0.06811992514367785,0.0,-1.1701318344997182,1.2887442221520424,10.367111407384014
4570000000.0,21.84,0.02142510283284277,-0.10419051139052411,0.0018312187183918216,-0.5250251638598517,0.8053952301601524,10.220056224664662
4575000000.0,21.84,-0.046981409634609034,-0.11680886498085634,0.003939227410030663,-0.06474208998902092,-0.19277618616356196,10.142558466816684
4580000000.0,21.84,-0.06378626668954493,-0.10840857682519703,0.0024699706480626805,0.4037839590892396,-0.7322224922062249,10.03484413246794
4585000000.0,21.84,-0.015464122801016819,-0.07381013973558878,0.0012456318219284538,0.8552398966736989,-0.5357211610819116,9.828735051663152
4590000000.0,21.84,0.046213748187227996,-0.012951837230548775,0.00019162747610907533,1.0123928915524287,0.30765033721380336,9.589272771118928
4595000000.0,21.84,0.07478772686567271,0.03690820607500414,-0.0017247537394206062,0.8393414579433146,1.005138490655885,9.58486094626181
4600000000.0,21.84,0.04899803371316022,0.05433219658298324,-0.0012775713156198184,0.48853451537024517,0.8848592301660925,9.69620516154325
4605000000.0,21.84,-0.004748353388376314,0.06907765941075787,-0.00022356696980043995,0.14077036936900367,0.28154073873800733,9.7682099366796
4610000000.0,21.84,-0.031169302184307024,0.0583137285654421,0.001660874752037877,-0.298620698098507,-0.18403936083619357,9.941259680418097
4615000000.0,21.84,-0.0097239747186651,0.01741463170965362,-0.00033007094693245087,-0.3719948414366484,-0.22180347251413474,10.054564106767542
4620000000.0,21.84,0.015685139339481773,-0.007367549401521076,-0.0010646508437165,-0.24367896419268964,0.09221758951827588,9.888477756551078
4625000000.0,21.84,0.03807892569573043,-0.013308155045537123,-0.0010646508437165,-0.1986524101649241,0.5469119019187191,9.653037843958177
4630000000.0,21.84,0.035001772656162757,-0.013840460968315,-0.00027679945928604766,-0.13812408054244082,0.7541938791863388,9.557882550339025
4635000000.0,21.84,0.00862809094430167,-0.003736797443381335,0.0,-0.06759026979480269,0.5627969090912691,9.537968609970687
4640000000.0,21.84,-0.014577175915049772,0.01840996785823096,0.0,-0.1338094815171948,0.06395588254045881,9.634206061770062
4645000000.0,21.84,-0.017978083650916864,0.02934863299541248,0.0022677356722173338,-0.4175168480478685,-0.20257785335327855,9.839824565365245
4650000000.0,21.84,-0.0006438106840043201,0.0033052907596894075,0.0009581563526236316,-0.5336641806413419,-0.025503109738531093,10.017973445130735
4655000000.0,21.84,0.021826944788845542,-0.04012990509776983,0.0,-0.194331488692715,0.33266062629380627,10.08536697125337
4660000000.0,21.84,0.026591108881723266,-0.04854032043820142,0.0,0.20758294905162952,0.5112980146341802,9.927717737127278
4665000000.0,21.84,0.008437558094902632,-0.04009659180444686,0.0,0.3894579061202791,0.3555118628632187,9.84924
4670000000.0,21.84,-0.006324114611281518,-0.008458858036758315,0.0,0.44772876283658763,0.12890149510791496,9.771543711490237
4675000000.0,21.84,0.0007986359568969009,0.01885584212440851,0.0,0.3080318206496182,0.10987272645012727,9.79528590806266
4680000000.0,21.84,0.012531552980374516,0.03306432400176876,-0.0006813864054592369,0.17540207277292072,0.11222603638646036,9.917518872647388
4685000000.0,21.84,0.01463474039695419,0.03929245254528527,-0.0017353907512786153,-0.04444212101562123,0.06719804499748046,10.022583519004534
4690000000.0,21.84,0.011200087329654902,0.029912690799108167,-0.002129301687433,-0.2056183287809833,0.06121458219524582,10.14040207536672
4695000000.0,21.84,0.01868476102888407,0.027336453324891156,-0.0008304078638972554,-0.2713451471684515,0.272132500621225,10.120779705663097
4700000000.0,21.84,0.03153122725057886,-0.007243691363786484,-0.0006388004138707507,-0.42379400842094006,0.5140457345453574,10.169047460669775
4705000000.0,21.84,0.02112959039033474,-0.03823851776375262,-0.0004364969277428708,-0.12232457693834575,0.49020414638734144,10.029250301385703
4710000000.0,21.84,0.00014888232986442346,-0.02530315626261113,0.0,-0.012166961610769633,0.22837368947263686,9.740542821361428
4715000000.0,21.84,-0.010486860506912745,-0.012168949204419013,0.0,0.04581553907975541,0.03237208416782084,9.784398372746884
4720000000.0,21.84,-0.0014477361012350393,-0.002171728524365332,0.0,0.02825032463090324,0.08907645024606452,9.782922474712924
4725000000.0,21.84,0.014488970472807974,-0.013424518835912818,-0.001171135848770286,0.04120420265894202,0.11820967400289673,9.843356569768765
4730000000.0,21.84,0.015637022969812,0.009775559384668016,-0.0004045374079689357,0.06768762188137623,0.26389221561012216,9.760357816891577
4735000000.0,21.84,0.01962025868982022,0.009857040365577281,-6.389901346529991e-05,-0.0779908795754088,0.43742817591508176,9.82354203069792
4740000000.0,21.84,0.01776659361841959,-0.002563239682690687,-0.0010646508437165,0.03649651447726518,0.5022729206881292,9.795869272765792
4745000000.0,21.84,0.00795291179505878,-0.004065531135259152,0.0005642949546734704,0.05091104285611042,0.4292833880176339,9.694636611982366
4750000000.0,21.84,-0.0031941327658927352,-0.007461042075136686,0.0010646308176339293,-0.03923889284338893,0.25996398510643987,9.657942139845423
4755000000.0,21.84,-0.009645676502583819,-0.017639611287180144,0.0,0.029233984720339848,0.17236105347881053,9.64529277844493
4760000000.0,21.84,-0.0063879050622992,-0.04921285052894802,0.0005110424391052922,0.2511401605780016,0.16559335474373355,9.715037720683377
4765000000.0,21.84,0.0056298007388482525,-0.06353080344023128,0.0005642549025083293,0.5682950585337506,0.26075109576171096,9.716414265979342
4770000000.0,21.84,0.01378589592359731,-0.057560348064845196,0.0004897494433110492,0.8069734721973347,0.35610346325763464,9.769385766136258
4775000000.0,21.84,0.005057041178945973,-0.03637514875080022,0.0005855478983025724,1.0815548187161481,0.31195651602166513,9.787928891229688
4780000000.0,21.84,0.0011923887923993878,-0.010485545005816707,-0.000468456447516806,1.20780701430847,0.19541455007964548,9.752314693164347
4785000000.0,21.84,-0.0004578099496196845,0.022855134097373178,-0.0015224607933361845,1.133544105856741,0.16539678588576784,9.70101303768633
4790000000.0,21.84,0.004748474028676987,0.04829632572378084,-0.002129301687433,0.938422087919921,0.16009882783998827,9.738973553119935
4795000000.0,21.84,0.008847157540169303,0.07458913705154539,-0.002129301687433,0.5877125362810254,0.15745096568560965,9.714354828428048
4800000000.0,21.84,0.009163120397030372,0.09054773218567438,-0.002129301687433,0.09220896535098963,0.2099345594054456,9.827657254126073
4805000000.0,21.84,0.016033590895413348,0.08543034801385944,-0.0017140777294018016,-0.4245816532307165,0.3255958599585586,9.903001786603518
4810000000.0,21.84,0.013996174922379938,0.04773867405482647,-0.0010646508437165,-0.7730289342847894,0.4661715737139157,10.109401573713916
4815000000.0,21.84,0.008890000743375728,-0.008311140468089884,0.0005110730052313578,-0.670509291348093,0.4179041294880413,10.162768348204784
4820000000.0,21.84,-0.008566218383781896,-0.054711005520246825,0.0024273836024698964,-0.339424595659246,0.2342612084138121,10.1910198382637
4825000000.0,21.84,-0.015129305085037266,-0.10178619246148118,0.0018099267766019593,0.056906247345562516,0.1000612502413125,10.101846094202461
4830000000.0,21.84,-0.006323934376538382,-0.1163022238219965,0.002107978125512794,0.6613914196204143,0.08574043198650431,9.882786728772668
4835000000.0,21.84,0.00035134497064846906,-0.0860699806073581,0.00035134497064846906,0.9948393313836934,0.18609654522666544,9.639992606085926
4840000000.0,21.84,0.004130937098478756,-0.036732274866170506,0.0007239523709651524,1.3816368275746684,0.25780717604477177,9.598887765876878
4845000000.0,21.84,0.008996248562894209,0.02991232226044105,-0.000330051974854226,1.1585619410831196,0.3422726880579269,9.52246880589169
4850000000.0,21.84,0.0066008761264111475,0.08053998411021461,-0.0007452453667593955,1.0055179345926795,0.4061319274805193,9.603992826162928
4855000000.0,21.84,0.006494267802848884,0.0820304748437334,0.0,0.3567852677801527,0.2806649487229495,9.8043100113949
4860000000.0,21.84,-0.0004684258813907773,0.061446052373929805,-0.00029811248116286135,-0.02276099359370994,0.3186279504029795,9.859052359991724
4865000000.0,21.84,-0.0023849409554724853,0.0062174788836063,-0.0007771848604507601,-0.0986865210706652,0.24976241100642413,9.934975809122058
4870000000.0,21.84,-0.008112505971089758,-0.013019591861026168,0.0,0.06906277837562778,0.2737004189086042,9.72151597565986
4875000000.0,21.84,0.0015969557124900064,-0.04501184598616075,0.0,0.1545096778935968,0.37523221592692213,9.780565833594858
4880000000.0,21.84,-0.001533158937446299,-0.02906109744785985,-0.0002555264895743752,0.3378569687288697,0.3249060625422606,9.508638885339188
4885000000.0,21.84,-0.008346944995717299,-0.017079390283927104,-0.0005748908603619927,0.4186923181642232,0.22415802557368025,9.645583261376833
4890000000.0,21.84,-0.012094309886669805,0.013499710849350663,0.0008304173499363678,0.498542395334724,0.17991511505285115,9.626163734418638
4895000000.0,21.84,-0.0016821276956669787,0.010533155073267717,0.0004471739917660211,0.3820027311130273,0.17962214587452144,9.874549609840996
4900000000.0,21.84,0.000851761991943576,0.01513185983606271,0.0019163611894471109,0.43556133505461336,0.26683209517662093,9.892405618002556
4905000000.0,21.84,0.0040563093747773326,0.0001595425298179928,0.0008623568436277324,0.25869189129601894,0.29145595746365954,9.9978600708939
4910000000.0,21.84,0.002235715020191352,-0.01699519693514579,-0.00019164750219164594,0.4379182092582821,0.3594382092582821,9.901626639821167
4915000000.0,21.84,-0.0028533057046111316,-0.03476757394452605,-0.0008836498394219755,0.47853504591125046,0.32500424985224247,9.94949495408875
4920000000.0,21.84,-0.007239677594286246,-0.027187311709957758,-0.00017035450639740285,0.7490912177396122,0.21346426208864264,9.71347208469252
4925000000.0,21.84,-0.011391743263881322,-0.01779145001284069,-0.0009049428352162186,0.7308459566221597,0.08338404337784044,9.885043725795738
4930000000.0,21.84,-0.007644057955607667,0.02158737291856268,-0.00014906151060315977,0.7414347247552473,0.02884341094603411,9.694049343095394
4935000000.0,21.84,0.004812263425690279,0.03273666128197887,-0.0009262358310104617,0.31343093784680937,0.236619500554895,9.989619853866099
4940000000.0,21.84,0.008772743779350145,0.048367647917066124,-0.0001277685148089167,0.3990673456713735,0.44380459190714594,9.911634286700043
4945000000.0,21.84,0.00935816625113561,0.017432970884186886,-0.0007132847929811146,0.10771552891245528,0.44811964739169646,10.136082863188928
4950000000.0,21.84,-0.002342357071892633,-0.005962107332670762,0.0018098751303889792,0.23838040400910404,0.3247091731915917,9.984616846226269
4955000000.0,21.84,-0.014033689978109413,-0.01286267850185187,-0.0009688218225989479,0.02472389485803895,0.15784299624492995,9.87248902628549
4960000000.0,21.84,-0.015730271943799806,-0.02441924017477987,0.0,0.2801742743943427,0.16833979268409793,9.802151036579511
4965000000.0,21.84,-0.011806841795395354,-0.02373791595557705,0.0,0.3605199109791991,0.18982398219583982,9.70846601780416
4970000000.0,21.84,0.0008729822614379376,-0.025972310619340806,0.0,0.5821243381008434,0.2501574134071741,9.66285
4975000000.0,21.84,-0.002022815628374868,0.0004789775188967551,5.3243029529065904e-05,0.4924643192017432,0.47136866396528665,9.67020894950109
4980000000.0,21.84,-0.0007248393415403254,-0.009282721121145886,0.0010646508437165,0.704747594814776,0.294692496730525,9.806860026155801
4985000000.0,21.84,-0.017860393594777674,0.0224168470037246,0.0010646508437165,0.43782233338052334,0.29969404758534046,9.738291127035811
4990000000.0,21.84,-0.00968837527263731,-0.010305651863762168,0.0010433473078787987,0.6347055461285556,0.15872667232286672,9.95243887380569
4995000000.0,21.84,-0.01484116958438802,0.006057362180601207,-1.0657037940579736e-05,0.4931513195908132,0.24515180297811803,9.722495576175056
5000000000.0,21.84,-0.008517238369862675,-0.026633323690994394,-0.0010646403036730417,0.7553693201669932,0.23544067983300682,9.800186503715965
5005000000.0,21.84,-0.011679251407320908,0.013436120209910963,-1.0635957853663298e-05,0.6873860194871603,0.3034239805128398,9.45055810021968
5010000000.0,21.84,-0.002320843789190072,-0.001810064851171217,-0.0010433683879657151,0.6674722053735221,0.294496102686761,9.754674714023647
5015000000.0,21.84,-0.007292911137776161,0.04332739134263703,0.0010007929364206872,0.5243430388446304,0.28478420258964204,9.589665646613556
5020000000.0,21.84,-0.0023421789451581482,0.023269205493012916,4.257545154502792e-05,0.02079203210372027,0.26565460498504606,10.008166387836463
5025000000.0,21.84,-0.010220732841628184,0.025409407693390448,0.0010114288942743505,0.29822712334707124,0.27418959760459594,9.97922201197702
5030000000.0,21.84,-0.008644943644410848,-0.01949894683284625,6.3868447339271e-05,-0.00883241956002423,0.17324352528113526,10.188864447139446
5035000000.0,21.84,-0.01546438977513395,-0.04019756718320988,0.002970407695440415,0.6000844481195445,0.1302764088046641,10.029055441822154
5040000000.0,21.84,-0.007155754139732552,-0.039579857396298934,0.0012349737299835362,0.26839748836997485,0.22680827685548277,9.943807616832377
5045000000.0,21.84,-0.010263276673042838,-0.045238474596683155,9.580794103063563e-05,0.9942518294111183,0.17294961404849613,9.821476426090065
5050000000.0,21.84,-0.009688312032376568,0.0002099508405771222,0.0,0.7161260763923609,0.32569376562343766,9.695221724827517
5055000000.0,21.84,-0.004844108058990515,-0.00604734466411711,0.0,0.9213579492446795,0.22984702356497025,9.86582096193351
5060000000.0,21.84,-0.008943120419838774,0.04410784973324084,0.0,0.7530133394581334,0.31078188112871885,9.793518118871281
5065000000.0,21.84,-0.006803086860156579,0.02518776903318002,0.0,0.4869656453166564,0.11889483884284838,10.019544354683342
5070000000.0,21.84,-0.013712788367901511,0.03321340553845447,0.0,0.45969669847866695,0.1473468893506689,10.021503206085331
5075000000.0,21.84,0.0022892025787286593,0.004367322540836677,0.0,0.12752605696856056,0.33207057009150576,10.007671401424215
5080000000.0,21.84,0.0008516671315524646,-0.030591786559385038,0.0,0.48069493364524934,0.4124129920374299,9.997959501327095
5085000000.0,21.84,-0.000883670919508892,-0.030029885542319806,0.0,0.5021732086098321,0.42183,9.662551650429016
5090000000.0,21.84,-0.01941247557332851,-0.03400117260253729,0.0,0.6594302762100027,0.22876682718856828,9.73093308074143
5095000000.0,21.84,-0.02430214977799845,-0.017026857394145663,0.0,0.8395415813567159,0.1069280103573801,9.633810816571808
5100000000.0,21.84,-0.019394034143094978,0.005962281243387841,0.0,0.7553685140792852,0.09613809906138099,9.658926693429667
5105000000.0,21.84,-0.006327540367308086,0.0030767440858814315,0.0,0.756939996634,0.2065999882189999,9.843159981487
5110000000.0,21.84,0.004279993339060192,0.02350010219910048,0.0,0.6810091081881912,0.3272627910674279,9.758397712654476
5115000000.0,21.84,-0.00017043039471025586,0.022449549527447307,0.0,0.5213016116507161,0.345606200647262,9.918108783171188
5120000000.0,21.84,-0.004556737990120276,0.019436673888905083,0.0,0.40613300550143006,0.395539896148999,9.812744612103145
5125000000.0,21.84,-0.010114247836574369,-0.006383887629701938,0.0,0.3090140045302401,0.34580160407721605,9.87131399320464
5130000000.0,21.84,-0.02039045171740985,-0.02358440424855945,0.0,0.5385724875433249,0.25839450320314505,9.77742900640629
5135000000.0,21.84,-0.022662565913746123,-0.021193282801669447,0.0,0.606355800776358,0.11369620439936204,9.710035800776359
5140000000.0,21.84,-0.02390823989584841,-0.026080203463182884,0.0,0.753802596443326,0.089859899514999,9.871609196119993
5145000000.0,21.84,-0.0071060329534131245,-0.013632375162509622,0.0,0.842090799741808,0.24436919864449197,9.853947600774577
5150000000.0,21.84,-0.000745266446846312,-0.004471490118630382,0.0,0.915273900293139,0.24917319973943197,9.977753300749132
5155000000.0,21.84,-0.00694161043531023,0.011510489397817507,0.0,0.92822199974062,0.27301300090783004,10.02513299961093
5160000000.0,21.84,-0.007409937240292526,0.023908305244117856,0.0,0.7420256938761569,0.24093279818552799,9.975984598639146
5165000000.0,21.84,-0.009241212874919124,0.015208799250475854,0.0,0.5915419967607201,0.209247199676072,10.02945080356321
5170000000.0,21.84,-0.009241147526649682,0.013809459676721463,0.0,0.572119400842094,0.20601,9.87081898736859
5175000000.0,21.84,-0.009901274664453773,0.006287395726244652,0.0,0.4703877911911779,0.199633399481834,9.891915409845154
5180000000.0,21.84,-0.00928373351823817,-0.005749223750919519,0.0,0.45596950430699507,0.24014950430699505,9.89436499384715
5185000000.0,21.84,-0.010529429634431747,-0.014288040077882555,0.0,0.5115920035620201,0.26487,9.939395209261251
5190000000.0,21.84,-0.005110214644188256,-0.026293189283355663,0.0,0.7061267234761673,0.258787699190477,10.035238406476184
5195000000.0,21.84,-0.004311890672577712,-0.019606820566380016,0.0,0.8202142009066421,0.20718639274686393,9.999233790026938
5200000000.0,21.84,-0.010859515337425057,-0.016832043179093953,0.0,0.7887233939774341,0.16480779799247797,9.986580505018805
5205000000.0,21.84,-0.008815221208491025,-0.013953972000895525,0.0,0.9503960352281604,0.24378001651320014,9.878863975780641
5210000000.0,21.84,-0.002235711858178317,-0.0003192305122357089,0.0,1.027890889218009,0.2870402964060029,9.73348098802001
5215000000.0,21.84,-0.0024274478967349846,0.01671450718037685,0.0,0.8118723585562236,0.285863602590236,9.653137390934173
5220000000.0,21.84,-0.009028327185159151,0.02331199174542708,0.0,0.6164592846853929,0.2558440902543409,9.700521819491318
5225000000.0,21.84,-0.01219024114620891,0.0223751210105673,0.0,0.5797712029787121,0.20404759404257594,9.782532405957424
5230000000.0,21.84,-0.007686701917435167,0.025824655893521613,0.0,0.5144349777893498,0.2181750095188501,9.858462517451224
5235000000.0,21.84,-0.0042586033748661,0.015211152064635912,0.0,0.35767076969530764,0.24525,9.991290426937505
5240000000.0,21.84,-0.008134009767753126,-0.007887713056005052,0.0,0.37670603561426036,0.2146421893157219,10.008945680412157
5245000000.0,21.84,-0.01008221032047884,-0.023546347503711332,0.0,0.4958960093891601,0.2614380281674803,9.897111577466015
5250000000.0,21.84,-0.005323187816308863,-0.03461872745080944,0.0,0.6229371414739714,0.36787571382465717,9.824714694075148
5255000000.0,21.84,-0.006302821615487272,-0.03577897543468747,0.0,0.8605360580179606,0.3349119709910197,9.7619299792793
5260000000.0,21.84,-0.01729845160977304,-0.017596819177266382,0.0,1.0477090216918903,0.11889403275514032,9.740153413015134
5265000000.0,21.84,-0.01999264651165777,0.015328939521143909,0.0,0.9926715478749154,-0.016185988668459887,9.789203209065231
5270000000.0,21.84,-0.00511010186572328,0.029848825513781933,0.0,0.7422216314606164,0.15872917799309177,9.922817559085676
5275000000.0,21.84,0.008783425059390657,0.011347874860021737,0.0,0.6857212541320126,0.38651522952655226,10.086152217223821
5280000000.0,21.84,0.007495041767191357,0.0016183583247363024,0.0,0.7698879795386798,0.3865124616350246,10.067805466750354
5285000000.0,21.84,-0.004280052363303597,0.0031832280369309017,0.0,0.6753191681425916,0.2239603495591035,10.025918818583488
5290000000.0,21.84,-0.011434316607417632,-0.0015118153494434088,0.0,0.5876184862404848,0.09711848624048486,10.015616366977165
5295000000.0,21.84,-0.006962749546469995,0.0009263243673755927,0.0,0.5873254199431542,0.10084762279217623,9.919184580056847
5300000000.0,21.84,-0.001916338001351563,0.008730226298044146,0.0,0.5807507646463077,0.19423923535369236,9.87474589705386
5305000000.0,21.84,-0.00041522501203554413,0.00719686077574606,0.0,0.5177720060865201,0.24956598782695988,9.89946802434608
5310000000.0,21.84,-0.0038967004426855726,-0.009673841192022619,0.0,0.5893864502460645,0.24054161256151613,9.973435321982654
5315000000.0,21.84,-0.002608226506112599,-0.02182154738809944,0.0,0.6975894097124942,0.2866488194249882,9.990601377337514
5320000000.0,21.84,0.004769557277606371,-0.0245044226980003,0.0,0.7655738466846385,0.3025397799922978,9.979125330011554
5325000000.0,21.84,-0.003353751184023627,-0.02152331053442373,0.0,0.9049740514760405,0.20993234509222344,10.011594775977848
5330000000.0,21.84,-0.008857872548348893,-0.011275378851470279,0.0,0.997284496471145,0.0979034894134349,9.923598454124885
5335000000.0,21.84,-0.004641787708793115,0.0017355045837480626,0.0,0.9810977891220779,0.1399906688935067,9.816768174618181
5340000000.0,21.84,0.0027681484774950307,0.016401433366706478,0.0,0.9174297478766975,0.25231278510762783,9.736227659045976
5345000000.0,21.84,0.0034174278025719605,0.035518480869710906,0.0,0.7692983312361834,0.22563,9.684138426741484
5350000000.0,21.84,-0.0012775133453808384,0.049328364705427175,0.0,0.5179634276374343,0.24623172742131727,9.740349311751993
5355000000.0,21.84,0.0038114725972782865,0.05134578984455991,0.0,0.14469489963874899,0.3227500401445004,9.834920104375701
5360000000.0,21.84,0.0056213677537499075,0.01921333626008309,0.0,-0.026683095888430958,0.3978938082231381,10.051719753450397
5365000000.0,21.84,0.0012134983914374965,-0.03514541565137537,0.0,0.09692738518227385,0.33520467794804676,10.106456741078368
5370000000.0,21.84,-0.016379015178076144,-0.06640534206238907,0.0,0.4961932420916324,0.08161732249547322,9.97304084402451
5375000000.0,21.84,-0.02263675025441897,-0.07216494459410193,0.0,0.8510224069375241,-0.022071351567813518,9.856596560373665
5380000000.0,21.84,-0.0063025401963269995,-0.05794726986362502,0.0,1.2627461260012613,0.09653207200072073,9.759771441499415
5385000000.0,21.84,0.00990538080620363,-0.005721665511391104,0.0,1.4444231448340314,0.2338712367773124,9.658337190805673
5390000000.0,21.84,0.015067628603883347,0.07900181913593093,0.0,1.1940654526230547,0.24250068733720687,9.679921179802813
5395000000.0,21.84,0.0042586033748661,0.1489613208896091,0.0,0.4135787016941871,0.07122122874841229,9.857384710202247
5400000000.0,21.84,0.007456217499834349,0.15681372756463077,0.0,-0.551330495970205,0.17069683199006833,10.080758412435983
5405000000.0,21.84,0.02004352426904107,0.0909553203660254,0.0,-1.2336101246410012,0.4385101495692015,10.25007597008616
5410000000.0,21.84,0.014770109907299867,-0.017197434468247758,0.0,-1.331603410282734,0.6539332339241324,10.193570474586206
5415000000.0,21.84,-0.009851272922911977,-0.14075204681408715,0.0,-0.6729533784146338,0.514336091222561,10.116658286042682
5420000000.0,21.84,-0.031445911922810835,-0.22949681034516045,0.0,0.49718374907063745,0.28841031530510314,9.920263241953034
5425000000.0,21.84,-0.023809426953870352,-0.28596547983652193,0.0009582543750277927,1.6417128782963288,0.03973334510113345,9.913501506324616
5430000000.0,21.84,0.004407665939473619,-0.30395934353942033,0.005940717368476669,2.530795085422151,0.20306225379442253,10.342090813978007
5435000000.0,21.84,0.004631173885030754,-0.2703444003239226,0.0031939525311496,3.5419094733100946,-0.16892756658987565,9.996581343855713
5440000000.0,21.84,0.0014054652569459355,-0.13660115800081987,0.0024273351182700006,4.248513109352431,-0.04943627140256271,9.5427701053954
5445000000.0,21.84,0.012884310040386248,0.0671725216397177,-0.003076829460233448,4.041320831194108,0.46852729220147293,9.090632382712224
5450000000.0,21.84,0.01971146116750124,0.2390464748618396,-0.0027681611255471463,3.350100708939007,0.5925223062446231,8.987913742942537
5455000000.0,21.84,-0.00502524397584131,0.4712476955190046,-0.008229716524366597,1.9851308324613086,0.34265026730990267,8.380496548028365
5460000000.0,21.84,-0.011327689311777155,0.548778026738555,-0.005408437795807477,-0.028288434126884393,-0.7797020876724209,9.360331022897709
5465000000.0,21.84,0.011886182957416294,0.5069926590282754,-0.006835127538265142,-3.1843451071922515,-0.9358548928077489,11.22254795061088
5470000000.0,21.84,0.0998965132883759,0.23292237355803008,-0.012073013728862509,-4.747044656494747,0.772843806045138,11.706070212612403
5475000000.0,21.84,0.11127136316066887,-0.0680214774055662,-0.00047896592484895104,-3.4442784512538847,1.8447769870636699,11.123556660403267
5480000000.0,21.84,0.07418960507565726,-0.2946881965782259,0.010774301194074274,-2.2912091238301913,2.3492814498847148,10.880064368642344
5485000000.0,21.84,-0.06716532215072168,-0.46512106387905716,0.013808509880575828,-0.9597920751984207,0.7482829351421295,9.956561186920911
5490000000.0,21.84,-0.20532154905745711,-0.48477839986722815,0.01266928717538816,0.7230220596158207,-1.3879213592799133,9.937137386726674
5495000000.0,21.84,-0.13789281630914543,-0.3832860027369455,0.007420581630180923,2.989409091566091,-1.6072580188812802,9.91368711044737
5500000000.0,21.84,0.026634826390173855,-0.2567185425195308,0.00425854540462708,3.698376516684965,-0.480674402688444,9.496075619933055
5505000000.0,21.84,0.12681707552232133,-0.08061342296885018,-0.0010114763244699117,4.290802422609224,0.9372630114909302,9.097887715951178
5510000000.0,21.84,0.1497557771145183,0.08924858434709117,-2.1281401746439015e-05,3.5853508801397087,1.8552772603630725,8.99773092974861
5515000000.0,21.84,0.047895744426090736,0.20531150372216983,-0.0051636147203648905,2.7524805874858065,1.645330629065806,8.710295786332258
5520000000.0,21.84,-0.08309378844967405,0.3069633433036939,-0.004301177772406786,2.02085195854672,0.18794308821593075,8.92749497326505
5525000000.0,21.84,-0.13394930839740005,0.3808909881781348,-0.0032471734265874033,1.0687888756668888,-1.8109483218311833,9.067384502430944
5530000000.0,21.84,-0.07526451812037491,0.3495056140489304,-0.006196302882294418,-1.0914851977178521,-1.7377413591413138,10.485140634283105
5535000000.0,21.84,0.057416217722213364,0.17884748882703172,-0.0053977681098147465,-2.41229297639543,0.20760239227562405,10.994856745493767
5540000000.0,21.84,0.19256297402920025,0.017209962882264895,-0.0033642733094079447,-1.887829082665991,1.8062345248643452,10.32246600658746
5545000000.0,21.84,0.13463491520904758,-0.09364228431429261,0.0016502672523015412,-1.36132799163648,1.9682788308198889,10.555857854264078
5550000000.0,21.84,-0.035159902509139696,-0.1464737936738793,0.0059620915226055345,-0.7318188850619889,1.1418738666034387,10.0905599630829
5555000000.0,21.84,-0.13764608515754057,-0.22901346593075012,0.008283006984091222,-0.07337146285371465,-0.4433323507649236,10.14040209479052
