#timestamp [ns], temperature [degC], w_RS_S_x [rad s^-1], w_RS_S_y [rad s^-1], w_RS_S_z [rad s^-1], a_RS_S_x [m s^-2], a_RS_S_y [m s^-2], a_RS_S_z [m s^-2]
0.0,21.59,0.0,0.0,0.0,0.7749900000000001,0.45126,9.81
5000000.0,21.59,0.0,0.0,0.0,0.7652780999028811,0.470683800194238,9.81
10000000.0,21.59,0.0,0.0,0.0,0.755566199805762,0.47088,9.829227600388476
15000000.0,21.59,0.0,0.0,0.0,0.75537,0.451848599417286,9.848651400582714
20000000.0,21.59,0.0,0.0,0.0,0.764787600388476,0.479512801165428,9.84924
25000000.0,21.59,0.0,0.0,0.0,0.755860499514405,0.471370499514405,9.858559500485596
30000000.0,21.59,0.0,0.0,0.0,0.746148599417286,0.480101400582714,9.81294299708643
35000000.0,21.59,0.0,0.0,0.0,0.754683300679833,0.46244339864033396,9.81
40000000.0,21.59,0.0,0.0,0.0,0.7643952007769521,0.488145602330856,9.81
45000000.0,21.59,0.0,0.0,0.0,0.7741071008740711,0.481572899125929,9.845708403496284
50000000.0,21.59,0.0,0.0,0.0,0.75733199805762,0.46303199805761996,9.82275299708643
55000000.0,21.59,0.0,0.0,0.0,0.737908197863382,0.478531802136618,9.837271802136618
60000000.0,21.59,0.0,0.0,0.0,0.744382801165428,0.47205719883457203,9.830797198834572
65000000.0,21.59,0.0,0.0,0.0,0.737025298737453,0.47941470126254704,9.795481194949813
70000000.0,21.59,0.0,0.0,0.0,0.7273133986403341,0.48069,9.815689804078998
75000000.0,21.59,0.0,0.0,0.0,0.7759710087407101,0.48069,9.844825504370355
80000000.0,21.59,0.0,0.0,0.0,0.7683191968921921,0.472449598446096,9.824518795338289
85000000.0,21.59,0.0,0.0,0.0,0.7651800000000001,0.462737698348977,9.811667698348977
90000000.0,21.59,0.0,0.0,0.0,0.757135798251858,0.48520260524442604,9.81
95000000.0,21.59,0.0,0.0,0.0,0.75537,0.4587155926189559,9.817946101845262
100000000.0,21.59,0.0,0.0,0.0,0.75537,0.48265200776952005,9.81981
105000000.0,21.59,0.0,0.0,0.0,0.747620097960501,0.4595003918420039,9.835309804078998
110000000.0,21.59,0.0,0.0,0.0,0.7685154064098542,0.45891180213661803,9.854733604273235
115000000.0,21.59,0.0,0.0,0.0,0.7523288932987889,0.46862370223373706,9.836388893298789
120000000.0,21.59,0.0,0.0,0.0,0.74556,0.47833560233085604,9.82962
125000000.0,21.59,0.0,0.0,0.0,0.7602750048559501,0.473332497572025,9.822262497572025
130000000.0,21.59,0.0,0.0,0.0,0.7651800000000001,0.48539880505018806,9.805291194949813
135000000.0,21.59,0.0,0.0,0.0,0.7580186973777869,0.4905,9.814512605244426
140000000.0,21.59,0.0,0.0,0.0,0.748306797280668,0.4905,9.833936405438664
145000000.0,21.59,0.0,0.0,0.0,0.738594897183549,0.47656979436709795,9.832464897183549
150000000.0,21.59,0.0,0.0,0.0,0.7563510087407102,0.47088,9.83648700291357
155000000.0,21.59,0.0,0.0,0.0,0.7651800000000001,0.477648903010689,9.83266109698931
160000000.0,21.59,0.0,0.0,0.0,0.751838393784384,0.48069,9.816278393784385
165000000.0,21.59,0.0,0.0,0.0,0.752132703204927,0.48069,9.816572703204928
170000000.0,21.59,0.0,0.0,0.0,0.7683192066040921,0.48069,9.813335396697955
175000000.0,21.59,0.0,0.0,0.0,0.7622369932016699,0.4679369932016699,9.82275300679833
180000000.0,21.59,0.0,0.0,0.0,0.761648403496284,0.46734840349628404,9.82962
185000000.0,21.59,0.0,0.0,0.0,0.7651800000000001,0.47088,9.835800303593404
190000000.0,21.59,0.0,0.0,0.0,0.7712622036905221,0.45871559261895595,9.827265592618955
195000000.0,21.59,0.0,0.0,0.0,0.7630217924247179,0.4632282075752821,9.801857688637078
200000000.0,21.59,0.0,0.0,0.0,0.7612560038847601,0.47088,9.79038
205000000.0,21.59,0.0,0.0,0.0,0.7709679039818791,0.47088,9.819319519909396
210000000.0,21.59,0.0,0.0,0.0,0.7522307836840079,0.47088,9.850809608157997
215000000.0,21.59,0.0,0.0,0.0,0.741341704176117,0.465288295823883,9.84227488747165
220000000.0,21.59,0.0,0.0,0.0,0.74556,0.46656360427323607,9.818632791453528
225000000.0,21.59,0.0,0.0,0.0,0.7401644956296449,0.4816710087407101,9.81
230000000.0,21.59,0.0,0.0,0.0,0.73575,0.485202595532526,9.820594808934949
235000000.0,21.59,0.0,0.0,0.0,0.7461486091291861,0.48069,9.82962
240000000.0,21.59,0.0,0.0,0.0,0.75537,0.47558879533828796,9.824518795338289
245000000.0,21.59,0.0,0.0,0.0,0.7653762095176622,0.4808862095176621,9.824813104758832
250000000.0,21.59,0.0,0.0,0.0,0.7651799902880999,0.48559499514404997,9.8198099902881
255000000.0,21.59,0.0,0.0,0.0,0.7601769049530691,0.47107619009386187,9.824420714859208
260000000.0,21.59,0.0,0.0,0.0,0.760471194949812,0.47519641515056416,9.825303584849436
265000000.0,21.59,0.0,0.0,0.0,0.750759294852693,0.4905,9.819221410294615
270000000.0,21.59,0.0,0.0,0.0,0.7365347895111479,0.4905,9.820594789511148
275000000.0,21.59,0.0,0.0,0.0,0.7391835160246352,0.4905,9.796756483975365
280000000.0,21.59,0.0,0.0,0.0,0.75537,0.4818671891226719,9.815101243509313
285000000.0,21.59,0.0,0.0,0.0,0.7511516944642169,0.47931661107156615,9.85905
290000000.0,21.59,0.0,0.0,0.0,0.7538004112658041,0.48637979436709794,9.850809588734196
295000000.0,21.59,0.0,0.0,0.0,0.7571357885399579,0.48069,9.827363682809937
300000000.0,21.59,0.0,0.0,0.0,0.7534080116542802,0.47676599417286,9.79430397669144
305000000.0,21.59,0.0,0.0,0.0,0.761354094075741,0.46705409407574094,9.789889529621295
310000000.0,21.59,0.0,0.0,0.0,0.751642193978622,0.4685256120427561,9.834721224085513
315000000.0,21.59,0.0,0.0,0.0,0.7491897061184971,0.4879494122369941,9.873568824473988
320000000.0,21.59,0.0,0.0,0.0,0.75537,0.49677839378438393,9.866505544059455
325000000.0,21.59,0.0,0.0,0.0,0.7485029873745299,0.4801994810617948,9.80313298737453
330000000.0,21.59,0.0,0.0,0.0,0.73575,0.46774081281970814,9.793715406409854
335000000.0,21.59,0.0,0.0,0.0,0.7422246130139462,0.47745269349302694,9.816376532534866
340000000.0,21.59,0.0,0.0,0.0,0.75537,0.47088,9.855518413208184
345000000.0,21.59,0.0,0.0,0.0,0.7523288932987889,0.4800033201036332,9.859736679896367
350000000.0,21.59,0.0,0.0,0.0,0.7514460135966602,0.49736699320166994,9.82177195921002
355000000.0,21.59,0.0,0.0,0.0,0.7594901862091019,0.4876550931045509,9.777725093104552
360000000.0,21.59,0.0,0.0,0.0,0.74556,0.48069,9.787240841955407
365000000.0,21.59,0.0,0.0,0.0,0.7561548283587483,0.48069,9.834917414179374
370000000.0,21.59,0.0,0.0,0.0,0.7694963568791636,0.48324060718680606,9.844138785626388
375000000.0,21.59,0.0,0.0,0.0,0.7332975218517752,0.4905,9.822262478148225
380000000.0,21.59,0.0,0.0,0.0,0.7506611852379118,0.4881455926189559,9.795481185237913
385000000.0,21.59,0.0,0.0,0.0,0.7380063074781631,0.48069,9.785082614956327
390000000.0,21.59,0.0,0.0,0.0,0.7498764151505641,0.48069,9.808822830301128
395000000.0,21.59,0.0,0.0,0.0,0.7610597846551979,0.47862989232759895,9.83943
400000000.0,21.59,0.0,0.0,0.0,0.74752200776952,0.4689179922304799,9.83746799223048
405000000.0,21.59,0.0,0.0,0.0,0.753506092133361,0.46479781573327816,9.824028276400083
410000000.0,21.59,0.0,0.0,0.0,0.747325807963758,0.4789241920362419,9.80195580796376
415000000.0,21.59,0.0,0.0,0.0,0.75537,0.47088,9.813335416121754
420000000.0,21.59,0.0,0.0,0.0,0.7569396081579961,0.4724496081579961,9.82962
425000000.0,21.59,0.0,0.0,0.0,0.7695945247653453,0.47774698348976985,9.834034524765345
430000000.0,21.59,0.0,0.0,0.0,0.7904897749432978,0.46107,9.853556366591064
435000000.0,21.59,0.0,0.0,0.0,0.7613540746519408,0.46234530844935307,9.81981
440000000.0,21.59,0.0,0.0,0.0,0.7381044170929442,0.4720572085464721,9.81981
445000000.0,21.59,0.0,0.0,0.0,0.7532117827128179,0.48069,9.821968217287182
450000000.0,21.59,0.0,0.0,0.0,0.7386930262221303,0.48069,9.84041100874071
455000000.0,21.59,0.0,0.0,0.0,0.7651800000000001,0.4815729088378291,9.846591273486514
460000000.0,21.59,0.0,0.0,0.0,0.7651800000000001,0.4889303821301038,9.821379617869896
465000000.0,21.59,0.0,0.0,0.0,0.7651800000000001,0.46950658193586586,9.836683163871731
470000000.0,21.59,0.0,0.0,0.0,0.7651800000000001,0.45184860912918606,9.800778609129187
475000000.0,21.59,0.0,0.0,0.0,0.7656705092263052,0.46107,9.811471527678917
480000000.0,21.59,0.0,0.0,0.0,0.7742051813531519,0.4614624093234241,9.839037590676575
485000000.0,21.59,0.0,0.0,0.0,0.75537,0.4711743094205431,9.830208618841086
490000000.0,21.59,0.0,0.0,0.0,0.7555662095176621,0.48029758096467584,9.848651371447014
495000000.0,21.59,0.0,0.0,0.0,0.765081890385219,0.46107,9.819908109614781
500000000.0,21.59,0.0,0.0,0.0,0.7553699805761998,0.4610700097119001,9.82962
505000000.0,21.59,0.0,0.0,0.0,0.7359461803819618,0.47078190980901913,9.82962
510000000.0,21.59,0.0,0.0,0.0,0.7549776198122762,0.4901076198122762,9.800778570281587
515000000.0,21.59,0.0,0.0,0.0,0.7458542899967429,0.46195286999022867,9.838252840013029
520000000.0,21.59,0.0,0.0,0.0,0.7549776101003761,0.4799052202007522,9.83943
525000000.0,21.59,0.0,0.0,0.0,0.7646895101974952,0.48069,9.848749510197495
530000000.0,21.59,0.0,0.0,0.0,0.7375157691161577,0.4714685897053859,9.812354358821544
535000000.0,21.59,0.0,0.0,0.0,0.7722432415669325,0.47088,9.828246620783467
540000000.0,21.59,0.0,0.0,0.0,0.7569395790222958,0.4618547895111479,9.811569579022295
545000000.0,21.59,0.0,0.0,0.0,0.7464428894140289,0.4878513317579133,9.81
550000000.0,21.59,0.0,0.0,0.0,0.75438901068309,0.4905,9.83648703204927
555000000.0,21.59,0.0,0.0,0.0,0.7728318215604183,0.46430726765937264,9.848160910780209
560000000.0,21.59,0.0,0.0,0.0,0.7749900000000001,0.4697028108773281,9.823341567368017
565000000.0,21.59,0.0,0.0,0.0,0.7579205780511058,0.4623452890255529,9.828344710974447
570000000.0,21.59,0.0,0.0,0.0,0.7300601667853017,0.4695066110715661,9.846493222143133
575000000.0,21.59,0.0,0.0,0.0,0.7676325558434256,0.47088,9.840901488831316
580000000.0,21.59,0.0,0.0,0.0,0.766749588734196,0.47088,9.814708766202589
585000000.0,21.59,0.0,0.0,0.0,0.7733223113629232,0.46273768863707687,9.81
590000000.0,21.59,0.0,0.0,0.0,0.766945788539958,0.47715842292008426,9.818044211460043
595000000.0,21.59,0.0,0.0,0.0,0.7572338884428389,0.4727438884428389,9.835702223114323
600000000.0,21.59,0.0,0.0,0.0,0.75537,0.47872801165428014,9.85512602330856
605000000.0,21.59,0.0,0.0,0.0,0.75537,0.4884399117513991,9.820300441243004
610000000.0,21.59,0.0,0.0,0.0,0.7477181881514818,0.4905,9.794696376302964
615000000.0,21.59,0.0,0.0,0.0,0.7531137119456371,0.4829462880543629,9.797933711945637
620000000.0,21.59,0.0,0.0,0.0,0.75537,0.48069,9.82255683612827
625000000.0,21.59,0.0,0.0,0.0,0.7921575606993756,0.48804751213987513,9.822262487860126
630000000.0,21.59,0.0,0.0,0.0,0.7753823510520236,0.47598117552601177,9.834328824473989
635000000.0,21.59,0.0,0.0,0.0,0.7723413123341132,0.46371868766588686,9.810784750663547
640000000.0,21.59,0.0,0.0,0.0,0.7608635751375358,0.48225963729369636,9.793126787568768
645000000.0,21.632600076625998,0.0,0.0,0.0,0.75537,0.4765697749432978,9.804310225056703
650000000.0,21.65,0.0,0.0,0.0,0.7485029873745299,0.47774701262547015,9.82373402525094
655000000.0,21.65,0.0,0.0,0.0,0.7387910872774108,0.4739210872774109,9.843157825445179
660000000.0,21.65,0.0,0.0,0.0,0.7424208128197082,0.47088,9.84924
665000000.0,21.65,0.0,0.0,0.0,0.7389872870831729,0.4774527129168271,9.82952186124952
670000000.0,21.65,0.0,0.0,0.0,0.7616484520557846,0.48069,9.826284613013947
675000000.0,21.65,0.0,0.0,0.0,0.7749900000000001,0.48706651311106514,9.80411394755574
680000000.0,21.65,0.0,0.0,0.0,0.768711586791816,0.47794317358363175,9.802936826416369
685000000.0,21.65,0.0,0.0,0.0,0.7528193733893938,0.46469968669469686,9.828540939915909
690000000.0,21.65,0.0,0.0,0.0,0.74556,0.46107,9.851594426804844
695000000.0,21.65,0.0,0.0,0.0,0.7575282269990823,0.4790223404986234,9.847081773000918
700000000.0,21.65,0.0,0.0,0.0,0.7592939864033399,0.4787279728066797,9.82177195921002
705000000.0,21.65,0.0,0.0,0.0,0.75537,0.46509208630622084,9.81
710000000.0,21.65,0.0,0.0,0.0,0.7496801862091018,0.4781394413726944,9.81
715000000.0,21.65,0.0,0.0,0.0,0.7623351416640515,0.4849082861119829,9.821183427776035
720000000.0,21.65,0.0,0.0,0.0,0.7640027720297278,0.4697027720297277,9.835113613985136
725000000.0,21.65,0.0,0.0,0.0,0.75537,0.46107,9.834034485917744
730000000.0,21.65,0.0,0.0,0.0,0.7606674141793742,0.4716648283587483,9.834917414179374
735000000.0,21.65,0.0,0.0,0.0,0.7547813714470137,0.4858893142764931,9.83943
740000000.0,21.65,0.0,0.0,0.0,0.7506612143736121,0.48539878562638783,9.819025142505552
745000000.0,21.65,0.0,0.0,0.0,0.7503668855292689,0.4706837710585377,9.815199343412194
750000000.0,21.65,0.0,0.0,0.0,0.7357499708642997,0.46107,9.82962
755000000.0,21.65,0.0,0.0,0.0,0.7547814879898149,0.4754907439949074,9.83442691466497
760000000.0,21.65,0.0,0.0,0.0,0.7659647409516475,0.4810823704758237,9.825303555713736
765000000.0,21.65,0.0,0.0,0.0,0.7593921445776215,0.4754907148592072,9.819221429718414
770000000.0,21.65,0.0,0.0,0.0,0.7704773850436739,0.48520261495632616,9.82962
775000000.0,21.65,0.0,0.0,0.0,0.7563509698931098,0.48608548494655485,9.816376454839665
780000000.0,21.65,0.0,0.0,0.0,0.7369271696988717,0.48069,9.795873584849437
785000000.0,21.65,0.0,0.0,0.0,0.7385949457430495,0.4722533695046337,9.79038
790000000.0,21.65,0.0,0.0,0.0,0.7594902153448022,0.46519021534480215,9.806860861379208
795000000.0,21.65,0.0,0.0,0.0,0.7692021154419212,0.47892423088384234,9.837664230883842
800000000.0,21.65,0.0,0.0,0.0,0.7749900000000001,0.4905,9.84924
805000000.0,21.65,0.0,0.0,0.0,0.7673381687276817,0.4905,9.833936337455363
810000000.0,21.65,0.0,0.0,0.0,0.7516421842667218,0.4793165528001655,9.795088737066887
815000000.0,21.65,0.0,0.0,0.0,0.7528194316607943,0.4755888633215886,9.788908579151986
820000000.0,21.65,0.0,0.0,0.0,0.7651800000000001,0.4861835362899354,9.830404847782548
825000000.0,21.65,0.0,0.0,0.0,0.7583129679507298,0.46450351602463513,9.84924
830000000.0,21.65,0.0,0.0,0.0,0.74556,0.47088,9.839233751634737
835000000.0,21.65,0.0,0.0,0.0,0.7487973162188731,0.47088,9.813335367562255
840000000.0,21.65,0.0,0.0,0.0,0.75537,0.47088,9.793911567368017
845000000.0,21.65,0.0,0.0,0.0,0.7523288835868889,0.47088,9.795775582065556
850000000.0,21.65,0.0,0.0,0.0,0.7514460330204603,0.4738230165102302,9.83256301651023
855000000.0,21.65,0.0,0.0,0.0,0.7651800000000001,0.48069,9.83658508339265
860000000.0,21.65,0.0,0.0,0.0,0.7651800000000001,0.48069,9.826873183295532
865000000.0,21.65,0.0,0.0,0.0,0.7625312831984129,0.4780412831984128,9.817161283198413
870000000.0,21.65,0.0,0.0,0.0,0.7477181493038815,0.47088,9.81765185069612
875000000.0,21.65,0.0,0.0,0.0,0.7382025849791259,0.47578503399165034,9.836977483004175
880000000.0,21.65,0.0,0.0,0.0,0.7702811658141117,0.48814558290705584,9.831974417092944
885000000.0,21.65,0.0,0.0,0.0,0.75537,0.4829463171900632,9.837173682809937
890000000.0,21.65,0.0,0.0,0.0,0.7596864345743644,0.4905,9.820987130851272
895000000.0,21.65,0.0,0.0,0.0,0.7749900000000001,0.48637976523139764,9.800680586921507
900000000.0,21.65,0.0,0.0,0.0,0.7710659650371597,0.46891798251857986,9.83943
905000000.0,21.65,0.0,0.0,0.0,0.7516421648429217,0.46479783515707834,9.835702164842921
910000000.0,21.65,0.0,0.0,0.0,0.7410474530269746,0.4789241823243418,9.818044182324343
915000000.0,21.65,0.0,0.0,0.0,0.7668477177727773,0.4725477177727772,9.815003153318331
920000000.0,21.65,0.0,0.0,0.0,0.7734203821301039,0.48382923573979236,9.837860382130104
925000000.0,21.65,0.0,0.0,0.0,0.7578224101649241,0.4958954460989545,9.831091517967016
930000000.0,21.65,0.0,0.0,0.0,0.7216236722565368,0.4722534180641342,9.835309745807598
935000000.0,21.65,0.0,0.0,0.0,0.7528193636774936,0.4743134091937341,9.81
940000000.0,21.65,0.0,0.0,0.0,0.7416360912918609,0.4339944365167444,9.81
945000000.0,21.65,0.0,0.0,0.0,0.7815626449335265,0.4555764734219647,9.812158236710983
950000000.0,21.65,0.0,0.0,0.0,0.7583130553578306,0.49148101845261016,9.83060101845261
955000000.0,21.65,0.0,0.0,0.0,0.7821512443508125,0.4976612443508125,9.837664162900541
960000000.0,21.65,0.0,0.0,0.0,0.7545851813531518,0.4724496372936964,9.820594818646848
965000000.0,21.65,0.0,0.0,0.0,0.7462467187439672,0.4891265625120656,9.828933281256033
970000000.0,21.65,0.0,0.0,0.0,0.7547813811589138,0.4720572376821724,9.820398618841086
975000000.0,21.65,0.0,0.0,0.0,0.7460505189382052,0.48951896212358964,9.830601037876411
980000000.0,21.65,0.0,0.0,0.0,0.7549775809646758,0.47205725710597257,9.84924
985000000.0,21.65,0.0,0.0,0.0,0.7458543191324432,0.49972136173511367,9.848062723470226
990000000.0,21.65,0.0,0.0,0.0,0.7555662192295621,0.4810824384591244,9.809803780770439
995000000.0,21.65,0.0,0.0,0.0,0.7652781193266813,0.5001137613466377,9.800484357980045
1000000000.0,21.65,0.0,0.0,0.0,0.7749899028809991,0.4806900194238002,9.82962
1005000000.0,21.65,0.0,0.0,0.0,0.726430402395404,0.49040191952091916,9.82962
1010000000.0,21.65,0.0,0.0,0.0,0.7355538196180382,0.4905,9.848847639236077
1015000000.0,21.65,0.0,0.0,0.0,0.7452657197151572,0.4809842802848428,9.811177121139371
1020000000.0,21.65,0.0,0.0,0.0,0.74556,0.48069,9.819417619812276
1025000000.0,21.65,0.0,0.0,0.0,0.74556,0.47137048009060484,9.81981
1030000000.0,21.65,0.0,0.0,0.0,0.7547814200065142,0.47088,9.81981
1035000000.0,21.65,0.0,0.0,0.0,0.7827399603108997,0.4800033201036332,9.81981
1040000000.0,21.65,0.0,0.0,0.0,0.739673898996239,0.46263955959849556,9.846885660602256
1045000000.0,21.65,0.0,0.0,0.0,0.7625313608936137,0.4521428797021288,9.813531518808515
1050000000.0,21.65,0.0,0.0,0.0,0.7651800000000001,0.46891804078998045,9.81
1055000000.0,21.65,0.0,0.0,0.0,0.7564490795078908,0.47961092049210924,9.81873092049211
1060000000.0,21.65,0.0,0.0,0.0,0.75537,0.4893228205892282,9.837075641178457
1065000000.0,21.65,0.0,0.0,0.0,0.7468352793136528,0.4819652793136528,9.847964720686347
1070000000.0,21.65,0.0,0.0,0.0,0.7708698623503987,0.4638167584330676,9.832366758433068
1075000000.0,21.65,0.0,0.0,0.0,0.7416359164776591,0.47774704176117044,9.821281479119415
1080000000.0,21.65,0.0,0.0,0.0,0.7439904209777042,0.46420915804459156,9.811569579022295
1085000000.0,21.65,0.0,0.0,0.0,0.7699869632244697,0.46921232107482325,9.818142321074824
1090000000.0,21.65,0.0,0.0,0.0,0.7749900000000001,0.47088,9.81981
1095000000.0,21.65,0.0,0.0,0.0,0.7590977574618776,0.4470416361928164,9.843648363807183
1100000000.0,21.65,0.0,0.0,0.0,0.75537,0.4806901068309011,9.81784791453528
1105000000.0,21.65,0.0,0.0,0.0,0.7708698429265984,0.48275007853670077,9.779000314146803
1110000000.0,21.65,0.0,0.0,0.0,0.7596863568791635,0.48069,9.801367286241673
1115000000.0,21.65,0.0,0.0,0.0,0.75537,0.48069,9.817553721657537
1120000000.0,21.65,0.0,0.0,0.0,0.7702812435093125,0.48069,9.834721243509312
1125000000.0,21.65,0.0,0.0,0.0,0.7602749562964496,0.4733324781482248,9.85414504370355
1130000000.0,21.65,0.0,0.0,0.0,0.75537,0.4853988438977884,9.82275289025553
1135000000.0,21.65,0.0,0.0,0.0,0.7482086779539868,0.4905,9.795677355907975
1140000000.0,21.65,0.0,0.0,0.0,0.773812888572529,0.4622471114274711,9.804506444286265
1145000000.0,21.65,0.0,0.0,0.0,0.7639046332792463,0.4582251222402512,9.830895366720753
1150000000.0,21.65,0.0,0.0,0.0,0.7622370223373702,0.48167106701211065,9.846297022337371
1155000000.0,21.65,0.0,0.0,0.0,0.7516421551310216,0.4701932326965323,9.842471077565511
1160000000.0,21.65,0.0,0.0,0.0,0.74556,0.46107,9.812746709873567
1165000000.0,21.65,0.0,0.0,0.0,0.7652781678861817,0.45449727737127277,9.806762722628728
1170000000.0,21.65,0.0,0.0,0.0,0.7555661318224614,0.4706838681775387,9.84237311362923
1175000000.0,21.65,0.0,0.0,0.0,0.7519365228229652,0.4679369543540695,9.852673477177035
1180000000.0,21.65,0.0,0.0,0.0,0.7490915770799158,0.4799052687602527,9.842961577079915
1185000000.0,21.65,0.0,0.0,0.0,0.7517403230172032,0.47813935396559354,9.814708707931187
1190000000.0,21.65,0.0,0.0,0.0,0.75537,0.47696222311432224,9.794107776885678
1195000000.0,21.65,0.0,0.0,0.0,0.7493858767885587,0.4866741232114412,9.808332369634325
1200000000.0,21.65,0.0,0.0,0.0,0.7573320466171205,0.48461397669143974,9.8492401165428
1205000000.0,21.65,0.0,0.0,0.0,0.7593920765943208,0.4691141531886415,9.86886
1210000000.0,21.65,0.0,0.0,0.0,0.7496801764972018,0.47244964700559644,9.840410882486008
1215000000.0,21.65,0.0,0.0,0.0,0.74556,0.4750982764000828,9.791851382000413
1220000000.0,21.65,0.0,0.0,0.0,0.7510536236970362,0.4818672473940725,9.78724087109111
1225000000.0,21.65,0.0,0.0,0.0,0.75537,0.48510447620584474,9.832563142764931
1230000000.0,21.65,0.0,0.0,0.0,0.7659648477825485,0.47539257610872576,9.853752576108725
1235000000.0,21.65,0.0,0.0,0.0,0.7749900000000001,0.4864779719651797,9.86483797196518
1240000000.0,21.65,0.0,0.0,0.0,0.7596863277434633,0.4850063277434633,9.853163879572438
1245000000.0,21.65,0.0,0.0,0.0,0.7355537516347376,0.47588312418263123,9.809607503269476
1250000000.0,21.65,0.0,0.0,0.0,0.7455600971190011,0.48069,9.795285024279751
1255000000.0,21.65,0.0,0.0,0.0,0.7651800000000001,0.4710761512462615,9.819417697507477
1260000000.0,21.65,0.0,0.0,0.0,0.7651800000000001,0.4657788244739882,9.844138824473989
1265000000.0,21.65,0.0,0.0,0.0,0.7744014491422145,0.4570478262866783,9.840018550857785
1270000000.0,21.65,0.0,0.0,0.0,0.7712621259953213,0.45498787400467877,9.825107375331774
1275000000.0,21.65,0.0,0.0,0.0,0.75537,0.47088,9.81981
1280000000.0,21.65,0.0,0.0,0.0,0.75537,0.4751964248624643,9.824126424862465
1285000000.0,21.65,0.0,0.0,0.0,0.7595883249595833,0.4722533500808335,9.81696502512125
1290000000.0,21.65,0.0,0.0,0.0,0.7610597749432978,0.46519022505670227,9.80019
1295000000.0,21.65,0.0,0.0,0.0,0.75537,0.4789242503076425,9.808234250307644
1300000000.0,21.65,0.0,0.0,0.0,0.75537,0.474803898996239,9.81588597474906
1305000000.0,21.65,0.0,0.0,0.0,0.7515440746519407,0.466563701392237,9.832955552088356
1310000000.0,21.65,0.0,0.0,0.0,0.74556,0.4793165236644652,9.861404349109643
1315000000.0,21.65,0.0,0.0,0.0,0.7419302744577028,0.46469972554229727,9.834721097830812
1320000000.0,21.65,0.0,0.0,0.0,0.7428132512788325,0.47441162563941625,9.81
1325000000.0,21.65,0.0,0.0,0.0,0.7519364742634648,0.47725647426346474,9.81
1330000000.0,21.65,0.0,0.0,0.0,0.7488954258336542,0.47088,9.813335425833655
1335000000.0,21.65,0.0,0.0,0.0,0.7618446518615465,0.47088,9.823047325930773
1340000000.0,21.65,0.0,0.0,0.0,0.762433095888431,0.4677407739721077,9.823341547944215
1345000000.0,21.65,0.0,0.0,0.0,0.7387911261250113,0.46411112612501126,9.81
1350000000.0,21.65,0.0,0.0,0.0,0.7426169737778697,0.4797090786663908,9.81
1355000000.0,21.65,0.0,0.0,0.0,0.73575,0.488930294723003,9.8156898526385
1360000000.0,21.65,0.0,0.0,0.0,0.73575,0.46381682641636823,9.837860479249105
1365000000.0,21.65,0.0,0.0,0.0,0.7436961795404619,0.47352872651348726,9.851103820459539
1370000000.0,21.65,0.0,0.0,0.0,0.7677306266106063,0.4781393733893937,9.827069373389394
1375000000.0,21.65,0.0,0.0,0.0,0.7725374732922748,0.46842747329227474,9.817357473292276
1380000000.0,21.65,0.0,0.0,0.0,0.7675344268048443,0.4657788536096885,9.81
1385000000.0,21.65,0.0,0.0,0.0,0.7727336730980368,0.4739210192941102,9.812256326901963
1390000000.0,21.65,0.0,0.0,0.0,0.7630217730009178,0.4577346809972468,9.821968226999083
1395000000.0,21.65,0.0,0.0,0.0,0.7594902541924026,0.48069,9.82962
1400000000.0,21.65,0.0,0.0,0.0,0.7730279728066798,0.48069,9.82569594561336
1405000000.0,21.65,0.0,0.0,0.0,0.7651800000000001,0.47696214541912146,9.813727854580879
1410000000.0,21.65,0.0,0.0,0.0,0.7634141726124418,0.46283582738755824,9.826088345224884
1415000000.0,21.65,0.0,0.0,0.0,0.7520345450306455,0.4742154549693546,9.811667727484679
1420000000.0,21.65,0.0,0.0,0.0,0.7404588827453888,0.4889303724182037,9.818240372418204
1425000000.0,21.65,0.0,0.0,0.0,0.7637084723210847,0.4792184723210847,9.811471527678917
1430000000.0,21.65,0.0,0.0,0.0,0.7567434277760343,0.47088,9.823930283328103
1435000000.0,21.65,0.0,0.0,0.0,0.7613540163805402,0.46960467212684676,9.846689344253694
1440000000.0,21.65,0.0,0.0,0.0,0.7369272279702723,0.46107,9.830797227970272
1445000000.0,21.65,0.0,0.0,0.0,0.7434017438652174,0.4599908719326087,9.834034359663043
1450000000.0,21.65,0.0,0.0,0.0,0.7279020563290206,0.45420308449353086,9.792342056329021
1455000000.0,21.65,0.0,0.0,0.0,0.7482087847848878,0.4798070717383707,9.813531713046517
1460000000.0,21.65,0.0,0.0,0.0,0.7734203432825035,0.47088,9.850024828358748
1465000000.0,21.65,0.0,0.0,0.0,0.7560567284558672,0.4722534569117346,9.856989814632398
1470000000.0,21.65,0.0,0.0,0.0,0.7645913714470138,0.4899113714470137,9.827265485788056
1475000000.0,21.65,0.0,0.0,0.0,0.75537,0.4797089426997894,9.791361057300211
1480000000.0,21.65,0.0,0.0,0.0,0.75537,0.46146242874722426,9.81
1485000000.0,21.65,0.0,0.0,0.0,0.7550756711556567,0.4711743288443433,9.810588657688687
1490000000.0,21.65,0.0,0.0,0.0,0.7457562289414623,0.48069,9.830012457882924
1495000000.0,21.65,0.0,0.0,0.0,0.7554681290385813,0.4805918709614187,9.849338129038582
1500000000.0,21.65,0.0,0.0,0.0,0.7651800291357004,0.47088,9.859049854321498
1505000000.0,21.65,0.0,0.0,0.0,0.7748919292328194,0.47088,9.810490353835904
1510000000.0,21.65,0.0,0.0,0.0,0.7461485120101852,0.4901076586598766,9.819613829329938
1515000000.0,21.65,0.0,0.0,0.0,0.7645914588541147,0.47146854114588543,9.81981
1520000000.0,21.65,0.0,0.0,0.0,0.7557623704758237,0.4802976295241763,9.81981
1525000000.0,21.65,0.0,0.0,0.0,0.7646895296212953,0.4620509407574094,9.810490470378705
1530000000.0,21.65,0.0,0.0,0.0,0.7744014297184144,0.4795128594368286,9.819221429718414
1535000000.0,21.65,0.0,0.0,0.0,0.7384966807378668,0.47156667018446674,9.838056659631066
1540000000.0,21.65,0.0,0.0,0.0,0.7447752299126523,0.47990522991265233,9.812354310262043
1545000000.0,21.65,0.0,0.0,0.0,0.7544871300097713,0.48069,9.836781390029314
1550000000.0,21.65,0.0,0.0,0.0,0.7641990301068904,0.4718609698931097,9.812942909679329
1555000000.0,21.65,0.0,0.0,0.0,0.7739109302040094,0.4621490697959907,9.827461860408018
1560000000.0,21.65,0.0,0.0,0.0,0.7749900000000001,0.4956013212045132,9.838252830301128
1565000000.0,21.65,0.0,0.0,0.0,0.7493858088052581,0.4832405392035054,9.83943
1570000000.0,21.65,0.0,0.0,0.0,0.7624332609907327,0.48069,9.822556739009269
1575000000.0,21.65,0.0,0.0,0.0,0.7568414694075147,0.46401293881502936,9.81981
1580000000.0,21.65,0.0,0.0,0.0,0.75537,0.4528295693103957,9.811569569310397
1585000000.0,21.65,0.0,0.0,0.0,0.7309430076398301,0.45126,9.826284661573446
1590000000.0,21.65,0.0,0.0,0.0,0.7500726926515269,0.46734846176768463,9.837664230883842
1595000000.0,21.65,0.0,0.0,0.0,0.7712622619619227,0.46293386901903866,9.831483869019038
1600000000.0,21.65,0.0,0.0,0.0,0.7671419689219198,0.46891803107808033,9.79822787568768
1605000000.0,21.65,0.0,0.0,0.0,0.7806798623503987,0.47088,9.8058798623504
1610000000.0,21.65,0.0,0.0,0.0,0.7694963374553635,0.4785318312723183,9.832955493816955
1615000000.0,21.65,0.0,0.0,0.0,0.7651800000000001,0.48069,9.824322537261125
1620000000.0,21.65,0.0,0.0,0.0,0.7577243685334437,0.4732343685334437,9.812354368533445
1625000000.0,21.65,0.0,0.0,0.0,0.7480124684363246,0.47088,9.817357531563676
1630000000.0,21.65,0.0,0.0,0.0,0.74556,0.47088,9.81981
1635000000.0,21.65,0.0,0.0,0.0,0.74556,0.48520266351582664,9.848455327031653
1640000000.0,21.65,0.0,0.0,0.0,0.7526232318550323,0.48343676814496767,9.844923536289935
1645000000.0,21.65,0.0,0.0,0.0,0.734474604143546,0.48069,9.825499736095697
1650000000.0,21.65,0.0,0.0,0.0,0.7328070320492703,0.4738229679507297,9.81981
1655000000.0,21.65,0.0,0.0,0.0,0.7492878642927786,0.4776489321463893,9.81981
1660000000.0,21.65,0.0,0.0,0.0,0.775382496730525,0.48736083224350835,9.833151664487017
1665000000.0,21.65,0.0,0.0,0.0,0.7782272676593728,0.4773545353187454,9.852575464681255
1670000000.0,21.65,0.0,0.0,0.0,0.7685153675622538,0.47735463243774634,9.839626102686761
1675000000.0,21.65,0.0,0.0,0.0,0.7715565325348654,0.48069,9.797737337325675
1680000000.0,21.65,0.0,0.0,0.0,0.737319404208094,0.46813313473603135,9.79312686526397
1685000000.0,21.65,0.0,0.0,0.0,0.73467099818731,0.4672503327291033,9.812550665458208
1690000000.0,21.65,0.0,0.0,0.0,0.7577244656524447,0.48304446565244463,9.838056698478667
1695000000.0,21.65,0.0,0.0,0.0,0.7651800000000001,0.48451586707665867,9.837271734153317
1700000000.0,21.65,0.0,0.0,0.0,0.7651800000000001,0.4865760330204603,9.82962
1705000000.0,21.65,0.0,0.0,0.0,0.7593920668824207,0.473136200647262,9.812256200647262
1710000000.0,21.65,0.0,0.0,0.0,0.7496801667853017,0.46107,9.817259499644095
1715000000.0,21.65,0.0,0.0,0.0,0.7399682666881827,0.4666617333118173,9.846395199935452
1720000000.0,21.65,0.0,0.0,0.0,0.7412436334089363,0.47637363340893635,9.853556366591064
1725000000.0,21.65,0.0,0.0,0.0,0.74556,0.4752944664939447,9.822262332469723
1730000000.0,21.65,0.0,0.0,0.0,0.7614523008095231,0.4761774336031743,9.805487433603174
1735000000.0,21.65,0.0,0.0,0.0,0.7749900000000001,0.4702913325994133,9.830797334801174
1740000000.0,21.65,0.0,0.0,0.0,0.7545850648103507,0.4661712337974123,9.82883506481035
1745000000.0,21.65,0.0,0.0,0.0,0.7507594016835941,0.4808862677890627,9.825009401683594
1750000000.0,21.65,0.0,0.0,0.0,0.7602749660083497,0.48559496600834967,9.819809864033399
1755000000.0,21.65,0.0,0.0,0.0,0.75537,0.4854969340887693,9.80499693408877
1760000000.0,21.65,0.0,0.0,0.0,0.7600788341858884,0.4905,9.828835336743554
1765000000.0,21.65,0.0,0.0,0.0,0.7559585314339854,0.4812785314339853,9.84924
1770000000.0,21.65,0.0,0.0,0.0,0.7410473656198736,0.47088,9.840214731239747
1775000000.0,21.65,0.0,0.0,0.0,0.7534081379089814,0.47529453447724535,9.82079093104551
1780000000.0,21.65,0.0,0.0,0.0,0.7663571308512713,0.48069,9.814316434574366
1785000000.0,21.65,0.0,0.0,0.0,0.7511516653285166,0.4722533306570333,9.81981
1790000000.0,21.65,0.0,0.0,0.0,0.74556,0.4775509390744094,9.81981
1795000000.0,21.65,0.0,0.0,0.0,0.74556,0.48824359540283596,9.81578786513428
1800000000.0,21.65,0.0,0.0,0.0,0.7573321048885211,0.47872806992568073,9.81
1805000000.0,21.65,0.0,0.0,0.0,0.7711640649400407,0.4828481298800813,9.817651870119919
1810000000.0,21.65,0.0,0.0,0.0,0.7577243296858434,0.4783356703141567,9.837075670314157
1815000000.0,21.65,0.0,0.0,0.0,0.7419302647458027,0.4832405294916053,9.852869735254197
1820000000.0,21.65,0.0,0.0,0.0,0.7428132707026327,0.4779432707026327,9.841391823243418
1825000000.0,21.65,0.0,0.0,0.0,0.7485029291031293,0.4905,9.799699393654695
1830000000.0,21.65,0.0,0.0,0.0,0.7424208710911088,0.4838291289088913,9.790576306636664
1835000000.0,21.65,0.0,0.0,0.0,0.7650820069280201,0.46764266435732665,9.813237335642674
1840000000.0,21.65,0.0,0.0,0.0,0.7816607642602077,0.46107,9.826088471479585
1845000000.0,21.65,0.0,0.0,0.0,0.7780311358369114,0.4701934075107341,9.827265456652356
1850000000.0,21.65,0.0,0.0,0.0,0.7789139281319394,0.48461392813193926,9.803133035934032
1855000000.0,21.65,0.0,0.0,0.0,0.7594901279377013,0.47088,9.81
1860000000.0,21.65,0.0,0.0,0.0,0.7510536722565367,0.47088,9.804506327743464
1865000000.0,21.65,0.0,0.0,0.0,0.7678287362253874,0.4735287362253874,9.795677472450775
1870000000.0,21.65,0.0,0.0,0.0,0.7724393636774937,0.47813936367749366,9.825303817935039
1875000000.0,21.65,0.0,0.0,0.0,0.7651800000000001,0.47578507283925076,9.856597317901873
1880000000.0,21.65,0.0,0.0,0.0,0.7581166904497669,0.4928544365167444,9.817455563483255
1885000000.0,21.65,0.0,0.0,0.0,0.7402626732277268,0.4935409901584099,9.81
1890000000.0,21.65,0.0,0.0,0.0,0.7575282367109824,0.47088,9.822949420265894
1895000000.0,21.65,0.0,0.0,0.0,0.7610597263837974,0.4729401368081014,9.866799863191899
1900000000.0,21.65,0.0,0.0,0.0,0.7494840738104408,0.47676592618955926,9.851201852379118
1905000000.0,21.65,0.0,0.0,0.0,0.7614521259953213,0.46293393700233937,9.816082125995322
1910000000.0,21.65,0.0,0.0,0.0,0.7508575112983751,0.47088,9.798424162900542
1915000000.0,21.65,0.0,0.0,0.0,0.7683190512136906,0.47421547439315476,9.798718685982887
1920000000.0,21.65,0.0,0.0,0.0,0.7404589118810891,0.4905,9.834721088118911
1925000000.0,21.65,0.0,0.0,0.0,0.7637084626091847,0.4919715373908154,9.808528462609186
1930000000.0,21.65,0.0,0.0,0.0,0.7581168749758688,0.4961896875361969,9.80019
1935000000.0,21.65,0.0,0.0,0.0,0.7724393248298933,0.4721553375850534,9.802740675170106
1940000000.0,21.65,0.0,0.0,0.0,0.7541927623178276,0.4818672376821724,9.822164475364344
1945000000.0,21.65,0.0,0.0,0.0,0.74556,0.48726258666212585,9.83835086222071
1950000000.0,21.65,0.0,0.0,0.0,0.7445789621235896,0.46303207575282074,9.827657924247179
1955000000.0,21.65,0.0,0.0,0.0,0.7375158759470588,0.4815729379735294,9.809117062026472
1960000000.0,21.65,0.0,0.0,0.0,0.75537,0.4897151619293516,9.80097483807065
1965000000.0,21.65,0.0,0.0,0.0,0.7546832618322326,0.48069,9.812060214503303
1970000000.0,21.65,0.0,0.0,0.0,0.7473259147946592,0.48069,9.83943
1975000000.0,21.65,0.0,0.0,0.0,0.7740089232759892,0.48069,9.83943
1980000000.0,21.65,0.0,0.0,0.0,0.7545851230817512,0.48069,9.83864512308175
1985000000.0,21.65,0.0,0.0,0.0,0.7360443385562434,0.4809843385562434,9.819221322887513
1990000000.0,21.65,0.0,0.0,0.0,0.7457562386533624,0.4905,9.799993761346638
1995000000.0,21.65,0.0,0.0,0.0,0.75537,0.4904018612495186,9.790772555001926
2000000000.0,21.65,0.0,0.0,0.0,0.7553700776952008,0.48069,9.82962
2005000000.0,21.65,0.0,0.0,0.0,0.7747938778894389,0.48069,9.82962
2010000000.0,21.65,0.0,0.0,0.0,0.7653761609581617,0.4903038390418384,9.82962
2015000000.0,21.65,0.0,0.0,0.0,0.7651800000000001,0.47146852172208525,9.82962
2020000000.0,21.65,0.0,0.0,0.0,0.7463447215278473,0.4897152784721528,9.810784721527847
2025000000.0,21.65,0.0,0.0,0.0,0.7362404606668046,0.4905,9.819319539333195
2030000000.0,21.65,0.0,0.0,0.0,0.7634143182909433,0.4720571211393712,9.81981
2035000000.0,21.65,0.0,0.0,0.0,0.7469333209451332,0.47088,9.8471800185823
2040000000.0,21.65,0.0,0.0,0.0,0.7636104792491049,0.47088,9.858265239624552
2045000000.0,21.65,0.0,0.0,0.0,0.7562528602783286,0.4619528602783286,9.85905
2050000000.0,21.65,0.0,0.0,0.0,0.7465409601812096,0.4787280796375808,9.788417681449678
2055000000.0,21.65,0.0,0.0,0.0,0.74556,0.4719590600840906,9.806762819747728
2060000000.0,21.65,0.0,0.0,0.0,0.7714585200390852,0.47088,9.81
2065000000.0,21.65,0.0,0.0,0.0,0.7579205197797052,0.4879494802202948,9.84413896044059
2070000000.0,21.65,0.0,0.0,0.0,0.7638066402072665,0.4905,9.857676640207266
2075000000.0,21.65,0.0,0.0,0.0,0.7735185403043855,0.4738229193912292,9.834034379086845
2080000000.0,21.65,0.0,0.0,0.0,0.7337877979924781,0.47088,9.821379559598496
2085000000.0,21.65,0.0,0.0,0.0,0.7503670214958702,0.4871646809972468,9.811667659501378
2090000000.0,21.65,0.0,0.0,0.0,0.7473257594042576,0.4905,9.826088481191485
2095000000.0,21.65,0.0,0.0,0.0,0.7614522813857229,0.4905,9.845512281385723
2100000000.0,21.65,0.0,0.0,0.0,0.7651800000000001,0.4748039184200392,9.84924
2105000000.0,21.65,0.0,0.0,0.0,0.7651800000000001,0.48637988177419883,9.825990177338703
2110000000.0,21.65,0.0,0.0,0.0,0.7498763180315632,0.46754447704734475,9.812158159015782
2115000000.0,21.65,0.0,0.0,0.0,0.7304525178373252,0.4761774821626748,9.825107482162675
2120000000.0,21.65,0.0,0.0,0.0,0.7632182058922821,0.48069,9.82962
2125000000.0,21.65,0.0,0.0,0.0,0.7602749174488492,0.48069,9.836977541275576
2130000000.0,21.65,0.0,0.0,0.0,0.7698888827453889,0.46617111725461113,9.824911117254612
2135000000.0,21.65,0.0,0.0,0.0,0.7678286585301867,0.4897153658792537,9.81981
2140000000.0,21.65,0.0,0.0,0.0,0.7651800000000001,0.5073732415669324,9.833936483133865
2145000000.0,21.65,0.0,0.0,0.0,0.7582148583359486,0.4892245750078458,9.853360283328103
2150000000.0,21.65,0.0,0.0,0.0,0.7416359164776591,0.48755704176117043,9.824714791194149
2155000000.0,21.65,0.0,0.0,0.0,0.7492878837165788,0.47019317442513175,9.796462116283422
2160000000.0,21.65,0.0,0.0,0.0,0.7687116839108169,0.48108252586622524,9.79038
2165000000.0,21.65,0.0,0.0,0.0,0.7618445158949452,0.4839272579474726,9.81667096821011
2170000000.0,21.65,0.0,0.0,0.0,0.7488953578503535,0.47421535785035357,9.849043926448939
2175000000.0,21.65,0.0,0.0,0.0,0.7519365422467654,0.4645034577532346,9.839920373259703
2180000000.0,21.65,0.0,0.0,0.0,0.75537,0.4799053270316533,9.817063115312232
2185000000.0,21.65,0.0,0.0,0.0,0.7615503424410035,0.4905,9.797639315117994
2190000000.0,21.65,0.0,0.0,0.0,0.7773444850762449,0.47833551492375515,9.808626727614367
2195000000.0,21.65,0.0,0.0,0.0,0.7608634294590343,0.47088,9.825794142635242
2200000000.0,21.65,0.0,0.0,0.0,0.7396739572676396,0.47676604273236045,9.84139208546472
2205000000.0,21.65,0.0,0.0,0.0,0.7589017713179178,0.4922658856589589,9.837664114341042
2210000000.0,21.65,0.0,0.0,0.0,0.7693001570734016,0.50031,9.82962
2215000000.0,21.65,0.0,0.0,0.0,0.7595882569762826,0.4891265139525652,9.824028256976282
2220000000.0,21.65,0.0,0.0,0.0,0.7608636431208364,0.47519635687916356,9.808822713758328
2225000000.0,21.65,0.0,0.0,0.0,0.7489933703461338,0.4654844567820446,9.81098108643591
2230000000.0,21.65,0.0,0.0,0.0,0.7463448866301489,0.48225977326029773,9.81981
2235000000.0,21.65,0.0,0.0,0.0,0.7449713131756132,0.48991131317561315,9.81981
2240000000.0,21.65,0.0,0.0,0.0,0.7408512435093124,0.4755887564906876,9.824911243509312
2245000000.0,21.65,0.0,0.0,0.0,0.7505631436064314,0.4658768563935686,9.839626287212862
2250000000.0,21.65,0.0,0.0,0.0,0.7504649562964496,0.4659750437035504,9.834524868889348
2255000000.0,21.65,0.0,0.0,0.0,0.7503669438006695,0.4804938876013389,9.81981
2260000000.0,21.65,0.0,0.0,0.0,0.7600788438977885,0.4857911561022116,9.815101156102212
2265000000.0,21.65,0.0,0.0,0.0,0.7651800000000001,0.47146851201018514,9.814610743994908
2270000000.0,21.65,0.0,0.0,0.0,0.7606673559079736,0.4700952881840529,9.837860576368106
2275000000.0,21.65,0.0,0.0,0.0,0.7597845441891454,0.48510454418914545,9.854635455810854
2280000000.0,21.65,0.0,0.0,0.0,0.7565471114274711,0.48618355571373556,9.831974222854942
2285000000.0,21.65,0.0,0.0,0.0,0.74556,0.48069,9.805781655616617
2290000000.0,21.65,0.0,0.0,0.0,0.7538004889610049,0.47656975551949754,9.796069755519499
2295000000.0,21.65,0.0,0.0,0.0,0.7571357108447572,0.47088,9.806468578310486
2300000000.0,21.65,0.0,0.0,0.0,0.7494840446747404,0.4669559553252596,9.841392134024222
2305000000.0,21.65,0.0,0.0,0.0,0.763021889543719,0.47254783431557834,9.839920276140703
2310000000.0,21.65,0.0,0.0,0.0,0.7638064653930647,0.48677215513102157,9.806272155131023
2315000000.0,21.65,0.0,0.0,0.0,0.7419302550339025,0.47706025503390254,9.803819744966098
2320000000.0,21.65,0.0,0.0,0.0,0.73575,0.47088,9.813531645063216
2325000000.0,21.65,0.0,0.0,0.0,0.73575,0.47088,9.823243545160336
2330000000.0,21.65,0.0,0.0,0.0,0.7390854452574545,0.47421544525745446,9.82962
2335000000.0,21.65,0.0,0.0,0.0,0.74556,0.4742153092908531,9.826382654645426
2340000000.0,21.65,0.0,0.0,0.0,0.7424207545483076,0.46107,9.81981
2345000000.0,21.65,0.0,0.0,0.0,0.7387911455488114,0.46107,9.810686563353567
2350000000.0,21.65,0.0,0.0,0.0,0.7485030456459304,0.46107,9.805095228229654
2355000000.0,21.65,0.0,0.0,0.0,0.7639048372291484,0.4667598914860989,9.84227494574305
2360000000.0,21.65,0.0,0.0,0.0,0.7765594624794947,0.48069,9.851986845840168
2365000000.0,21.65,0.0,0.0,0.0,0.75537,0.48069,9.843157524376275
2370000000.0,21.65,0.0,0.0,0.0,0.7528193539655935,0.47813935396559354,9.80019
2375000000.0,21.65,0.0,0.0,0.0,0.7504650922630509,0.47088,9.797737453868475
2380000000.0,21.65,0.0,0.0,0.0,0.7651800000000001,0.47088,9.804506677371867
2385000000.0,21.65,0.0,0.0,0.0,0.7606673073484731,0.4663673073484731,9.842470961022709
2390000000.0,21.65,0.0,0.0,0.0,0.749876492845765,0.4577347392686474,9.815493507154235
2395000000.0,21.65,0.0,0.0,0.0,0.7651800000000001,0.47656970695999706,9.802250146520002
2400000000.0,21.65,0.0,0.0,0.0,0.7592938601486386,0.46695613985136136,9.81
2405000000.0,21.65,0.0,0.0,0.0,0.7394778934284789,0.48677210657152103,9.819319733571199
2410000000.0,21.65,0.0,0.0,0.0,0.758901693622717,0.47264584681135846,9.853752459565925
2415000000.0,21.65,0.0,0.0,0.0,0.7699867592745676,0.48069,9.82962
2420000000.0,21.65,0.0,0.0,0.0,0.7439903529944035,0.4759810589832106,9.823341411977614
2425000000.0,21.65,0.0,0.0,0.0,0.7372215471027155,0.4542030942054309,9.794794641308147
2430000000.0,21.65,0.0,0.0,0.0,0.7483068943996689,0.47088,9.821183447199834
2435000000.0,21.65,0.0,0.0,0.0,0.7651800000000001,0.47343069459390696,9.830895347296954
2440000000.0,21.65,0.0,0.0,0.0,0.7592937630296377,0.4857910104237101,9.840607247394072
2445000000.0,21.65,0.0,0.0,0.0,0.718288294982383,0.45341829498238295,9.844923410035234
2450000000.0,21.65,0.0,0.0,0.0,0.7367310475883105,0.47088,9.81098104758831
2455000000.0,21.65,0.0,0.0,0.0,0.7446770523145705,0.47088,9.818044104629141
2460000000.0,21.65,0.0,0.0,0.0,0.737319695565097,0.4732345433476455,9.802544543347645
2465000000.0,21.65,0.0,0.0,0.0,0.7574302436390025,0.49962325212033254,9.82962
2470000000.0,21.65,0.0,0.0,0.0,0.7830340560696406,0.489322704046427,9.829031352023215
2475000000.0,21.65,0.0,0.0,0.0,0.754388903852189,0.47038945192609455,9.820300548073906
2480000000.0,21.65,0.0,0.0,0.0,0.737319792684098,0.46107,9.828050207315902
2485000000.0,21.65,0.0,0.0,0.0,0.7746956517318566,0.46195304480443045,9.79038
2490000000.0,21.65,0.0,0.0,0.0,0.7649837516347376,0.4903037516347375,9.790968745095789
2495000000.0,21.65,0.0,0.0,0.0,0.7554681484623814,0.4805918515376185,9.819908148462382
2500000000.0,21.65,0.0,0.0,0.0,0.7651800485595006,0.4708800485595005,9.829619902881
2505000000.0,21.65,0.0,0.0,0.0,0.7748919486566196,0.48059194865661947,9.810196102686762
2510000000.0,21.65,0.0,0.0,0.0,0.7749900000000001,0.48069,9.829227697507477
2515000000.0,21.65,0.0,0.0,0.0,0.7654742511491426,0.48069,9.820104251149143
2520000000.0,21.65,0.0,0.0,0.0,0.7745976489479766,0.48069,9.838645297895953
2525000000.0,21.65,0.0,0.0,0.0,0.756350901909809,0.462050901909809,9.830110450954905
2530000000.0,21.65,0.0,0.0,0.0,0.75537,0.4702914491422145,9.838841449142215
2535000000.0,21.65,0.0,0.0,0.0,0.7644933492393335,0.48912669847866697,9.812059952282
2540000000.0,21.65,0.0,0.0,0.0,0.747129501327095,0.4634242519906425,9.81
2545000000.0,21.65,0.0,0.0,0.0,0.7544871494335715,0.46107,9.81
2550000000.0,21.65,0.0,0.0,0.0,0.790686198122762,0.4875571485920715,9.818829049530692
2555000000.0,21.65,0.0,0.0,0.0,0.7509552518609526,0.48176905037219053,9.82854094962781
2560000000.0,21.65,0.0,0.0,0.0,0.74556,0.497955699449857,9.82962
2565000000.0,21.65,0.0,0.0,0.0,0.7370252501779525,0.50031,9.804015750533859
2570000000.0,21.65,0.0,0.0,0.0,0.73575,0.50031,9.808626649919168
2575000000.0,21.65,0.0,0.0,0.0,0.7774427500814276,0.4752943499511435,9.81
2580000000.0,21.65,0.0,0.0,0.0,0.7600786496597864,0.4461586496597865,9.851202250567022
2585000000.0,21.65,0.0,0.0,0.0,0.7635123502105235,0.45773470042104697,9.842765299578954
2590000000.0,21.65,0.0,0.0,0.0,0.7651800000000001,0.4369372490770725,9.831385749692357
2595000000.0,21.65,0.0,0.0,0.0,0.749287699190477,0.4554784512142845,9.82167384959524
2600000000.0,21.65,0.0,0.0,0.0,0.7612561010037611,0.4532219494981195,9.80411389899624
2605000000.0,21.65,0.0,0.0,0.0,0.7651800000000001,0.46675990119799904,9.831189802395999
2610000000.0,21.65,0.0,0.0,0.0,0.749876298607763,0.47853185069611853,9.831778149303881
2615000000.0,21.65,0.0,0.0,0.0,0.7606675015864751,0.4731362492067625,9.852281252379713
2620000000.0,21.65,0.0,0.0,0.0,0.7651800000000001,0.485791301780713,9.83668304732893
2625000000.0,21.65,0.0,0.0,0.0,0.7578224490125245,0.4905,9.81490489802505
2630000000.0,21.65,0.0,0.0,0.0,0.7626294510845946,0.505018902169189,9.802740548915406
2635000000.0,21.65,0.0,0.0,0.0,0.7580186488182865,0.495797297636573,9.814512702363427
2640000000.0,21.65,0.0,0.0,0.0,0.741243497442335,0.49756325127883255,9.826873251278833
2645000000.0,21.65,0.0,0.0,0.0,0.7636106055038061,0.4933448486240485,9.815689697248098
2650000000.0,21.65,0.0,0.0,0.0,0.7681229485269295,0.4698988455807884,9.816867051473071
2655000000.0,21.65,0.0,0.0,0.0,0.7651800000000001,0.46107,9.813041048429811
2660000000.0,21.65,0.0,0.0,0.0,0.751838296665383,0.4677408516673085,9.81
2665000000.0,21.65,0.0,0.0,0.0,0.7652782552932826,0.48402550352885504,9.803427248235574
2670000000.0,21.65,0.0,0.0,0.0,0.7685153481384536,0.4905,9.806664651861547
2675000000.0,21.65,0.0,0.0,0.0,0.7779331039173311,0.4649937921653379,9.822753103917332
2680000000.0,21.65,0.0,0.0,0.0,0.772243095888431,0.45126,9.848455356167353
2685000000.0,21.65,0.0,0.0,0.0,0.7589996478470965,0.45126,9.846689295694192
2690000000.0,21.65,0.0,0.0,0.0,0.7371232432499324,0.4755890090000901,9.81510099099991
2695000000.0,21.65,0.0,0.0,0.0,0.737908304694283,0.4845158476528585,9.776253390611434
2700000000.0,21.65,0.0,0.0,0.0,0.7632181573327816,0.4983481573327816,9.790380262221303
2705000000.0,21.65,0.0,0.0,0.0,0.7576261423758615,0.5159079525413796,9.833151810165518
2710000000.0,21.65,0.0,0.0,0.0,0.7626295579154956,0.5369995579154956,9.81510088416901
2715000000.0,21.65,0.0,0.0,0.0,0.7638064945287649,0.5325847417931474,9.801563505471236
2720000000.0,21.65,0.0,0.0,0.0,0.7718509584982096,0.4759807773381078,9.77703808300358
2725000000.0,21.65,-0.005855637083677817,0.0029278185418389084,0.0,0.7578222353507224,0.4576366587895666,9.783513317579134
2730000000.0,21.65,-0.007197005174341409,0.0035985025871706775,0.0,0.7463449060539491,0.48147490605394905,9.778215281838152
2735000000.0,21.65,-0.0036943326622925834,0.002129301687433,0.0,0.7397719406277194,0.5060980593722806,9.80833288436503
2740000000.0,21.65,-0.0031939525311496,-8.519517127258047e-05,0.0,0.7208387467787875,0.5148287467787874,9.843746240336362
2745000000.0,21.65,-0.004279907964708198,-0.0015863239706537264,0.0,0.7461489199099892,0.49511054004500543,9.79960108009001
2750000000.0,21.65,-0.006387916656347004,-0.002129313281480854,0.0,0.7749900000000001,0.4757849465845495,9.800190320492703
2755000000.0,21.65,-0.0074525559060157,-0.0016288983681944597,0.0,0.7749900000000001,0.4660730464874305,9.848847814050279
2760000000.0,21.65,-0.01000774702145534,0.0010220764461758179,0.0,0.7749900000000001,0.45636114639031145,9.892404268048443
2765000000.0,21.65,-0.01027385149864437,-0.0008730486637117708,0.0,0.7611577388795774,0.44664924629319247,9.844137940691079
2770000000.0,21.65,-0.006962810678722034,-0.00034064155651668086,0.0,0.7590979614117797,0.4549879614117796,9.756437346196073
2775000000.0,21.65,-0.003513312685919844,0.005216800833659233,0.0,0.7705754460989546,0.4885382156041822,9.821772862416728
2780000000.0,21.65,-0.002342261157497202,0.0063879050622992,0.0,0.7349648220128483,0.49717063800550637,9.912416453998164
2785000000.0,21.65,-0.0076122828865942925,0.004098876394287607,0.0,0.7091650622858506,0.45116152133301524,9.913691645904716
2790000000.0,21.65,-0.0106465084371654,-0.0016183045705146619,0.0,0.7053387290379873,0.41202,9.850416441306363
2795000000.0,21.65,-0.009336970223741144,-0.006632792432006915,0.0,0.7211336971847371,0.4039756914209569,9.74662707426287
2800000000.0,21.65,-0.004897358466550001,-0.0055361430703556236,0.0,0.7887240543866406,0.4159443263198433,9.798229196506092
2805000000.0,21.65,0.00018100838232494522,-0.002725529811771838,0.0,0.8022619089675191,0.4589119089675191,9.920068091032482
2810000000.0,21.65,0.0033430214197831564,-0.005727827462699393,0.0,0.8179578545808787,0.4783357091617571,9.859637890448578
2815000000.0,21.65,0.00414147397992391,-0.00205471085388376,0.0,0.8204102453220026,0.4941297546779976,9.776940245322002
2820000000.0,21.65,0.0009794609424656486,0.007622935708517475,0.0,0.8177616547751166,0.50031,9.763696690449766
2825000000.0,21.65,-0.004045720847119236,0.012829060532157922,0.0,0.7897044512776445,0.4865757805110578,9.778608438977884
2830000000.0,21.65,-0.0095818575934488,0.013095175549390395,0.0,0.7125981801225818,0.45106363509193637,9.8663100046629
2835000000.0,21.65,-0.008176494574924423,0.006419790801768929,0.0,0.6640385145346852,0.44135206519942066,9.908393804401738
2840000000.0,21.65,-0.003619782934912815,-0.0034069425673397707,0.0,0.6337262758179628,0.47676627581796277,9.799011917382519
2845000000.0,21.65,0.0,-0.012302157850346988,0.0,0.6974915526071156,0.51012,9.670991913175019
2850000000.0,21.65,-0.0015970063046986658,-0.015023776079203877,0.0,0.7740091660734917,0.5071769446421694,9.670698885725288
2855000000.0,21.65,-0.006249518507710528,-0.010614526783300144,0.0,0.8173696436395965,0.5059999109098992,9.800484688184648
2860000000.0,21.65,-0.008815315014877778,-0.0032364963625642973,0.0,0.8621025777917258,0.5144362888958629,9.846493144447932
2865000000.0,21.65,-0.009294395826200444,0.0029916869891781234,0.0,0.8391475112983752,0.5029587556491876,9.820888710455687
2870000000.0,21.65,-0.007686760941678569,0.007260961104041397,0.0,0.8279634425369344,0.5177719672389197,9.758006721268467
2875000000.0,21.65,-0.005057085447128562,0.012243472581690173,0.0,0.7431072207828722,0.5444551116868512,9.724162555843426
2880000000.0,21.65,-0.0055362147426511075,0.010135463890051393,0.0,0.6992566321783663,0.5544610881189109,9.750355647524357
2885000000.0,21.65,-0.012524381258345403,0.006313324768793397,0.0,0.6656082198116823,0.519242795661028,9.82353813622598
2890000000.0,21.65,-0.024483184510432104,-0.002470026510293037,0.0,0.6386312806739128,0.4210444141130441,9.86886
2895000000.0,21.65,-0.03218056138388175,-0.007228973126150073,0.0,0.6830704686957048,0.30361921884049214,9.885341249855212
2900000000.0,21.65,-0.03025345778214201,-0.007026713908204737,0.0,0.723978506961185,0.27271822531608225,9.939491774683917
2905000000.0,21.65,-0.015941215708306946,-0.008974988241234627,0.0,0.7983379128522792,0.3078379128522791,9.891324392164744
2910000000.0,21.65,-0.000979441970387406,-0.005812975203776394,0.0,0.8159958565232587,0.3449202782791028,9.810980717383707
2915000000.0,21.65,0.004439600163143258,-0.0022889685897638772,0.0,0.8290432698611327,0.44478551324075516,9.775763269861132
2920000000.0,21.65,0.00447150276668257,0.00366245430085324,0.0,0.8503306865650069,0.46734862686998624,9.826874164197442
2925000000.0,21.65,-0.0003194075849657961,0.012190270658330608,0.0,0.8220775454830755,0.49589532955615334,9.975789340887694
2930000000.0,21.65,-0.0028745881603619104,0.0149051118120315,0.0,0.7430088877943889,0.46950654308826545,10.009338517059184
2935000000.0,21.65,-0.0071757343126383905,0.013244182251767576,0.0,0.6619785719645859,0.46107,9.881317502814074
2940000000.0,21.65,-0.004939961322208076,0.0007238944007260965,0.0,0.6313717713179178,0.4681335426358354,9.693849200258192
2945000000.0,21.65,-0.0023635372892218346,-0.010286484362764388,0.0,0.6691407292340074,0.5177716855938168,9.650686515249465
2950000000.0,21.65,-0.0043650746778634,-0.015559585305082148,0.0,0.7730284584016847,0.5012910573002106,9.810001146004213
2955000000.0,21.65,-0.005419079023682868,-0.010848736034980344,0.0,0.8427770426026704,0.5110029573973296,9.980399298218693
2960000000.0,21.65,-0.006813796598314452,-0.0016182318442147085,0.0,0.8307105700222058,0.5152208550333085,9.903782565099926
2965000000.0,21.65,-0.011785691090187825,0.0045567306120898165,0.0,0.7932364848168649,0.4596964848168648,9.734462424084324
2970000000.0,21.65,-0.01283969543600721,0.008581092061141105,0.0,0.7738126846226269,0.43968402693394026,9.643818657688687
2975000000.0,21.65,-0.013414550460221525,0.009422141152913746,0.0,0.75537,0.4139822311432223,9.665794502430945
2980000000.0,21.65,-0.005152884956124448,0.006174943484226386,0.0,0.7530152527024525,0.45243737364877373,9.911239663063396
2985000000.0,21.65,-0.0011285424791513822,0.0009688133905641814,0.0,0.6962156420199563,0.48157307394013077,9.981870272319302
2990000000.0,21.65,-0.003385646409532468,-0.002214498966714276,0.0,0.6867000000000001,0.5085499353826993,9.826676128842562
2995000000.0,21.65,-0.012829248870639355,-0.0063879050622992,0.0,0.687190790871408,0.43134552547715527,9.682371841825718
3000000000.0,21.65,-0.018116530283753252,-0.006387898738273125,0.0,0.7357504661712047,0.4022098251857983,9.672660699256808
3005000000.0,21.65,-0.020224538975392108,-0.005333894392453747,0.0,0.8134456669481568,0.37307412489444125,9.789203500422236
3010000000.0,21.65,-0.011881801616859517,-0.00010643335884084459,0.0,0.8334577169312772,0.4016215753969158,9.93458787698458
3015000000.0,21.65,-0.0013839825403694096,0.0030981530221537274,0.0,0.7957869657489697,0.4497887928137879,9.86140393149794
3020000000.0,21.65,0.0009794915085916775,0.004216023707303689,0.0,0.7663570240203703,0.5360189279388894,9.727202778761727
3025000000.0,21.65,5.322616545953276e-05,0.0012243293400951033,0.0,0.7465408824860088,0.5488695587569956,9.656473088701032
3030000000.0,21.65,-0.009007003623238892,0.0070693199258757625,0.0,0.7547814588541146,0.5493600000000001,9.763697506249374
3035000000.0,21.65,-0.015538879355151004,0.002501897493701894,0.0,0.7279999231462992,0.5037432052438321,9.925857102170971
3040000000.0,21.65,-0.018925671501964902,0.00017033131830179477,0.0,0.7078894819032948,0.45518370475823705,9.892403704758237
3045000000.0,21.65,-0.022087684539423225,-0.000968838686668481,0.0,0.6973928408545284,0.4244785225635852,9.843844204272642
3050000000.0,21.65,-0.0223751210105673,-0.004897419598802118,0.0,0.69651,0.3953428222722282,9.795284703787047
3055000000.0,21.65,-0.01763739255619593,-0.007218345600331176,0.0,0.7663576747176768,0.3574761626411616,9.729263284622032
3060000000.0,21.65,-0.016114967599007397,-0.0037049591341071463,0.0,0.8181542971841431,0.35316,9.8425700321156
3065000000.0,21.65,-0.015045778782776808,0.0023635636393305424,0.0,0.8069704809321049,0.34462524046605236,9.97000187394132
3070000000.0,21.65,-0.010327080826116962,0.005940771122698306,0.0,0.7875466807378668,0.3686599788931998,9.8853400844272
3075000000.0,21.65,-0.0068669784955914595,0.0063879050622992,0.0,0.7764614402718145,0.4228113583691136,9.79381296244633
3080000000.0,21.65,-0.00012771265257861993,0.005493591860910569,0.0,0.733787700873477,0.5140445982530459,9.772329540174695
3085000000.0,21.65,0.004599317657682701,0.0009049207011249906,0.0,0.7096552801551528,0.5948788793793888,9.803329439689694
3090000000.0,21.65,0.0009581531906106,-0.0026190606167832433,0.0,0.70632,0.6162642600195427,9.818044260019542
3095000000.0,21.65,-0.009486110784670244,-0.005781073654241478,0.0,0.7381046404666464,0.5703530393000305,9.811863839883339
3100000000.0,21.65,-0.022797575749428485,-0.002980996223098463,0.0,0.7612561204275613,0.4885374580759746,9.841392240855123
3105000000.0,21.65,-0.03397988066074744,-0.002129301687433,0.0,0.7729299603108997,0.3856304365801044,9.8569899603109
3110000000.0,21.65,-0.0362155819788823,0.00036200095458470286,0.0,0.7749900000000001,0.2941032563278326,9.874353720816037
3115000000.0,21.65,-0.027197917101685343,0.0010646508437165,0.0,0.7674362394948625,0.2520187184845872,9.840901197474311
3120000000.0,21.65,-0.01235403981469039,0.00025550962550484205,0.0,0.7577243393977434,0.29743962421579623,9.769974715181947
3125000000.0,21.65,-0.002129248987215784,0.0,0.0,0.7700851213987513,0.3727804855950049,9.729067317901873
3130000000.0,21.65,0.002363544667252318,0.0,0.0,0.7749900000000001,0.46499460796494607,9.808823529557936
3135000000.0,21.65,0.006302759429230847,0.0023316051735609526,0.0,0.7749900000000001,0.5406295262552953,9.889559526255296
3140000000.0,21.65,0.0051528902261461125,0.002427397304526356,0.0,0.7749900000000001,0.6086128269351283,9.865720434055604
3145000000.0,21.65,-0.0033004839123946155,0.002885210416159121,0.0,0.7262338723850387,0.6139096778242967,9.779588389121484
3150000000.0,21.65,-0.013852744784208951,0.0009581658386627443,0.0,0.6925858776300589,0.573884694075147,9.696203510520235
3155000000.0,21.65,-0.02660187132009844,0.0,0.0,0.740851690256717,0.4982493484611935,9.713273767692538
3160000000.0,21.65,-0.0359601124055426,-0.0014479384700693712,0.0,0.7451674158623742,0.41084224758712246,9.844924643446546
3165000000.0,21.65,-0.0383448836663154,-0.002129301687433,0.0,0.7686138073816381,0.31686238523672383,9.924581045905311
3170000000.0,21.65,-0.034128826230872544,-2.1272969711672637e-05,0.0,0.7653760152796601,0.26506601527966017,9.872783384265533
3175000000.0,21.65,-0.02365262170789592,-0.0010114383803134627,0.0,0.75537,0.2614365616705656,9.743781574941515
3180000000.0,21.65,-0.01031201609751104,-0.0028106849308792634,0.0,0.7679269235353693,0.32765461767684617,9.679723076464631
3185000000.0,21.65,-0.0006280969997390293,-0.0011817422945023036,0.0,0.7873507237296072,0.4494950661072507,9.771545789836859
3190000000.0,21.65,0.0060898431733449245,0.0013201804953039127,0.0,0.7824454760761548,0.5672148815811489,9.890442619619227
3195000000.0,21.65,0.0033216567516934385,0.004727076686452461,0.0,0.7630216758819168,0.6201883241180832,9.909767513822874
3200000000.0,21.65,-0.012147619871393036,0.007026702314156913,0.0,0.7200536270630362,0.5866375649068757,9.845315440594554
3205000000.0,21.65,-0.031552532894425264,0.0043118021362126245,0.0,0.7022979622532796,0.4723505662008057,9.746332415213924
3210000000.0,21.65,-0.04374218732306755,0.0002767889192425894,0.0,0.70632,0.33236192709441925,9.753298761153587
3215000000.0,21.65,-0.043228448671730625,-0.0028852241182156027,0.0,0.7175035248950352,0.24112942531489426,9.86307291181773
3220000000.0,21.65,-0.030338593929171244,-0.00545102589540461,0.0,0.7479146501785465,0.23230098763390988,9.91791
3225000000.0,21.65,-0.010654226340790747,-0.008144599349415572,0.0,0.781366687925267,0.3261834396263344,9.880141061507711
3230000000.0,21.65,0.0023848587431335114,-0.00728218453554881,0.0,0.7893125372611254,0.4294822391721224,9.785670447133505
3235000000.0,21.65,0.0025018953856932816,-0.0013733518525375571,0.0,0.8055974513439746,0.47666808850798087,9.73152
3240000000.0,21.65,-0.003875376880765291,0.006004678568198342,0.0,0.8138374741337748,0.4905,9.797836418130464
3245000000.0,21.65,-0.015063159988311026,0.0095818575934488,0.0,0.7744010218186103,0.4754905109093051,9.894072141211621
3250000000.0,21.65,-0.023439785556340294,0.009049525320562302,0.0,0.7161296212358963,0.44144974749059746,9.92281493687265
3255000000.0,21.65,-0.023982736923010926,0.004343720549817143,0.0,0.6770860735510609,0.4170230367755304,9.855419478081895
3260000000.0,21.65,-0.020373536191730175,-0.004599353493830437,0.0,0.6906243166079432,0.41202,9.738582503462526
3265000000.0,21.65,-0.015542485294084451,-0.009081464814253667,0.0,0.7437945805122459,0.4212415268374153,9.747020687861907
3270000000.0,21.65,-0.014330207249613012,-0.009496699312328369,0.0,0.7795026635158266,0.42261467296834676,9.842373317579133
3275000000.0,21.65,-0.018266664390647742,-0.007292809953359034,0.0,0.8068728180647282,0.40319087277410876,9.886518254451783
3280000000.0,21.65,-0.023780480867078648,-0.0003832328181269007,0.0,0.8209006088698062,0.37513414515974147,9.89946707257987
3285000000.0,21.65,-0.025111266754110212,0.0027361457435429097,0.0,0.7959832723856327,0.32363145334971455,9.82942290669943
3290000000.0,21.65,-0.02226862124945259,0.0043651031359807115,0.0,0.7724392082870921,0.30921158342581584,9.755260263904303
3295000000.0,21.65,-0.013935847013868363,0.005269986946953599,0.0,0.7473256719971567,0.35943865600568653,9.768994328002844
3300000000.0,21.65,-0.005536170474468595,0.0029810362752636047,0.0,0.7318259359014594,0.4139825127883251,9.796266256394164
3305000000.0,21.65,-0.0034281617828297393,0.0021824993947752564,0.0,0.72594,0.4801998209782982,9.838939820978299
3310000000.0,21.65,-0.004961321774280389,-0.0010646508437165,0.0,0.7333957285855573,0.5213035928783359,9.857676407121664
3315000000.0,21.65,-0.01313366562825475,-0.0014585786439404178,0.0,0.74556,0.5286607068303071,9.828540706830307
3320000000.0,21.65,-0.021480856293378488,-0.003662426896740257,0.0,0.7490916644870167,0.4889300130779001,9.77821501961685
3325000000.0,21.65,-0.02817751717272473,-0.005270000649010141,0.0,0.7622371291682714,0.4306586124951861,9.725143564584135
3330000000.0,21.65,-0.03229765283466756,-0.0031939525311496,0.0,0.7816609293625093,0.36571628254996286,9.758203717450037
3335000000.0,21.65,-0.02843293509985148,-0.001437243487972409,0.0,0.79461,0.3236320943351209,9.819712094335122
3340000000.0,21.65,-0.020027233577872058,0.002129301687433,0.0,0.7914707351245074,0.3559070595019706,9.848847794626478
3345000000.0,21.65,-0.010795517247551206,0.0031194481259566274,0.0,0.7756765050821651,0.40387815480828154,9.847571845191718
3350000000.0,21.65,-0.007026709692187364,0.004684449588694536,0.0,0.7318254794421548,0.4630322602789226,9.779588544511887
3355000000.0,21.65,-0.01160982649097312,0.00257644089705568,0.0,0.6911148258342483,0.4848100696663007,9.740054895500549
3360000000.0,21.65,-0.022758480309215626,0.0004684322054168522,0.0,0.7176994042080941,0.44066448209634485,9.791165517903655
3365000000.0,21.65,-0.03253190424652153,-0.0010646508437165,0.0,0.7124025921665259,0.34707740783347407,9.887401357527613
3370000000.0,21.65,-0.03242538235131567,-0.0018950998137832683,0.0,0.75537,0.3092113309164133,9.924776672708967
3375000000.0,21.65,-0.025036676974565304,-0.004790943025783043,0.0,0.7578225655553257,0.331087696665977,9.85414408222544
3380000000.0,21.65,-0.016281107902291345,-0.004854765096931125,0.0,0.7698889313048893,0.3625778626097786,9.734658740432888
3385000000.0,21.65,-0.01359558413865076,0.0,0.0,0.7938254629982547,0.4036818287478183,9.711802754744328
3390000000.0,21.65,-0.01441926228847252,0.0016396123223697068,0.0,0.8197234683066348,0.4371334683066347,9.835899190160193
3395000000.0,21.65,-0.021810906160224075,0.008570475075365607,0.0,0.79205900433719,0.4074088383933884,9.929780165943802
3400000000.0,21.65,-0.027911312565122852,0.01149818610876125,0.0,0.7259393395907934,0.35119793395907933,9.912023141468032
3405000000.0,21.65,-0.027346990206336335,0.004971869195769051,0.0,0.6511879322760794,0.34335,9.785768440205485
3410000000.0,21.65,-0.01939088505456982,-0.0024061612249668134,0.0,0.6741434649406347,0.3557110636461106,9.691299331175793
3415000000.0,21.65,-0.010103514910320905,-0.009968156665726575,0.0,0.7179943643259437,0.4253621306582213,9.741526597993666
3420000000.0,21.65,-0.008818159306080589,-0.01568626339191971,0.0,0.7844079985763801,0.4873606671412067,9.802937331435174
3425000000.0,21.65,-0.018223083799089504,-0.007239567977834304,0.0,0.8367931330530314,0.46057903431439035,9.864445300420453
3430000000.0,21.65,-0.03238291124620088,0.0011924667887210205,0.0,0.849349600129096,0.3871018671400187,9.835309600129095
3435000000.0,21.65,-0.041123600645385984,0.00934767785389033,0.0,0.8112863327924634,0.290473899837739,9.812550733441508
3440000000.0,21.65,-0.03630063802158125,0.013755223636868551,0.0,0.718876399092764,0.27428813454298134,9.830797266817873
3445000000.0,21.65,-0.019200410797445132,0.004386303379392605,0.0,0.6649216661700168,0.35198333531993337,9.83295499851005
3450000000.0,21.65,-0.002022829330431364,-0.004365148458167638,0.0,0.6553085360968854,0.4316406701211067,9.771740396891005
3455000000.0,21.65,-0.0025994355051118176,-0.014809285952926986,0.0,0.7312378026553781,0.5163981315630813,9.697577802655378
3460000000.0,21.65,-0.019564566776226838,-0.01273312927261885,0.0,0.7887243360317434,0.4728413279365133,9.763697875301578
3465000000.0,21.65,-0.03681184488536449,0.0005217300431719148,0.0,0.8338500000000001,0.37572232696532326,9.916341207641612
3470000000.0,21.65,-0.044221697805309386,0.0074525559060157,0.0,0.8291406607953067,0.28154666299706665,10.018167323792373
3475000000.0,21.65,-0.03531050423110978,0.00729283630346761,0.0,0.7519360275160603,0.23887397248393974,9.88798808254818
3480000000.0,21.65,-0.01768988568755105,0.003917856417914836,0.0,0.6859150648103507,0.30842714354307144,9.688747791646579
3485000000.0,21.65,-0.007580343392902848,-0.0043224971183096735,0.0,0.6694349415355495,0.412903103075831,9.608699883071099
3490000000.0,21.65,-0.012031014074708012,-0.006302703567000541,0.0,0.7467376067343761,0.44027239326562395,9.765464159148442
3495000000.0,21.65,-0.027804913988425425,-0.0020334168040851176,0.0,0.8045181678861817,0.3817064890243649,9.987659846747999
3500000000.0,21.65,-0.03834486153222414,0.0074525485279852794,0.0,0.8142295921001961,0.29429952411689525,10.094488640333987
3505000000.0,21.65,-0.03518284849476581,0.0063985441821659,0.0,0.7559581915174819,0.22631622343706223,9.900250638391606
3510000000.0,21.65,-0.024717278875638533,0.002214444158488293,0.0,0.6976867909347678,0.2833132090652321,9.677171031916611
3515000000.0,21.65,-0.008996711961952392,-0.005099729408956087,0.0,0.69651,0.35110037792260373,9.644112695176029
3520000000.0,21.65,-0.004428917829098369,-0.0053232542185827,0.0,0.7530160102306601,0.4473366837177668,9.72798901534599
3525000000.0,21.65,-0.008304306303911543,-0.0002661255572759449,0.0,0.8019678423444785,0.4698991369377914,9.92723093784681
3530000000.0,21.65,-0.0215437430134241,0.00400311693745686,0.0,0.7859770628679706,0.4616585314339853,9.974415874264059
3535000000.0,21.65,-0.035246846584639675,0.008219134320734567,0.0,0.7483065253474652,0.3880830506949305,9.87641294470553
3540000000.0,21.65,-0.03817455445602229,0.0016608030797423852,0.0,0.691408387438484,0.30136258115772585,9.724455699835957
3545000000.0,21.65,-0.03350068496295108,-0.003779547859647725,0.0,0.6956271688573716,0.2675184934278849,9.631555480283653
3550000000.0,21.65,-0.02823066323385399,-0.008091376345969101,0.0,0.758313482681435,0.31784441372694416,9.676584413726944
3555000000.0,21.65,-0.01727536103548513,-0.006622113259975043,0.0,0.7913729071548291,0.34992290715482904,9.839627442928974
3560000000.0,21.65,-0.013161156186881157,0.00017039666657121203,0.0,0.8205086074461861,0.39632434574364345,9.954011560636015
3565000000.0,21.65,-0.02112727835404777,0.0019909045928008405,0.0,0.7642966152790661,0.4107447692458477,9.89014707678737
3570000000.0,21.65,-0.029699979020065312,0.0002980871850585616,0.0,0.7384966613140667,0.3867099919710999,9.718373282483633
3575000000.0,21.65,-0.034512170773460076,-0.003619843013160475,0.0,0.73575,0.31588144447931443,9.600555736159057
3580000000.0,21.65,-0.03336230262437975,0.0011072821574918401,0.0,0.7934332867604329,0.30411,9.70797704305807
3585000000.0,21.65,-0.02241761635778203,0.006547640474912438,0.0,0.7881352607313526,0.36110658744026586,9.943221610492417
3590000000.0,21.65,-0.016753734284739107,0.004833492127219419,0.0,0.7687114605371147,0.4290898881200989,10.034845618388655
3595000000.0,21.65,-0.022023839280179525,-5.3270433642038303e-05,0.0,0.7095568112000681,0.42555766034287656,9.862678093943082
3600000000.0,21.65,-0.03536396754754714,-0.00873020521795723,0.0,0.6886619300743194,0.33550123081751226,9.662848601486386
3605000000.0,21.65,-0.048451653082874795,-0.007282181373535769,0.0,0.7719496702507967,0.22092035972640361,9.584860149886001
3610000000.0,21.65,-0.046141921782453924,0.001086012349793256,0.0,0.8099137402398375,0.1885481298800813,9.857679194436992
3615000000.0,21.65,-0.02751722455623835,0.0023741637610363974,0.0,0.8066762297829624,0.23926639151926393,10.118820485208904
3620000000.0,21.65,-0.014270433660993538,0.0013201594152169962,0.0,0.752230307800903,0.3221610328274103,10.001489582774395
3625000000.0,21.65,-0.012509655055200781,-0.002927828027877986,0.0,0.7210348591774486,0.36542271123382714,9.704540176427901
3630000000.0,21.65,-0.018303670621459545,-0.001895055545600744,0.0,0.7742057640671577,0.3945584115251841,9.54375582440766
3635000000.0,21.65,-0.028795049886905524,0.00670737694153011,0.0,0.8017713706055137,0.3735645175779452,9.759186600587466
3640000000.0,21.65,-0.035023203726526314,0.011114970154703908,0.0,0.754977105081571,0.3488434585947346,10.117644286700044
3645000000.0,21.65,-0.0362155819788823,0.005663881019038519,0.0,0.6800286336019864,0.28066346280223464,10.152368292002484
3650000000.0,21.65,-0.03323452883954906,-0.005003943602016699,0.0,0.6641370708968708,0.2413258582062586,9.82863595143456
3655000000.0,21.65,-0.029018511456271417,-0.012924907471349355,0.0,0.7347697099398972,0.24220897099398972,9.519327783162279
3660000000.0,21.65,-0.021906612916837476,-0.008389379210680014,0.0,0.8452304530933046,0.2786043554555436,9.603991777277718
3665000000.0,21.65,-0.015602855691066274,0.0025233074839785766,0.0,0.8763272288117723,0.35345494069404937,9.925662533964426
3670000000.0,21.65,-0.016662689441183518,0.009198614235278485,0.0,0.8212926297172263,0.3696406574293066,10.110186712853467
3675000000.0,21.65,-0.02711291797522109,0.004418231279036139,0.0,0.74997400032274,0.34384028585260284,9.913983430231236
3680000000.0,21.65,-0.030594210009114945,0.0010646508437165,0.0,0.7071045855612459,0.30842611408166115,9.558076555255365
3685000000.0,21.65,-0.025803250119262332,0.0024061264428234105,0.0,0.69651,0.3252018578835186,9.54483705995737
3690000000.0,21.65,-0.017488128970497247,0.0025338612294932357,0.0,0.7208390866952908,0.39809044506440444,9.832761780257618
3695000000.0,21.65,-0.015799442015719836,-0.001117922331362964,0.0,0.7177974846871749,0.4495925153128251,10.014833374167534
3700000000.0,21.65,-0.024717446462329547,-0.00894313728390831,0.0,0.7180921437361214,0.4139814250555142,9.910060347034603
3705000000.0,21.65,-0.039888403414644766,-0.012147658316633463,0.0,0.7780317476866175,0.3131343364178434,9.657746784974968
3710000000.0,21.65,-0.04811455432870329,-0.0012135690097286808,0.0,0.836989488249195,0.2421105117508051,9.613408464747586
3715000000.0,21.65,-0.043537167581346695,0.01002905793532348,0.0,0.8143275948840759,0.23122177215941772,9.852970253420203
3720000000.0,21.65,-0.03344741136729595,0.009794748553230424,0.0,0.7353569496911695,0.2574146890261469,10.001883672256538
3725000000.0,21.65,-0.024664065358231176,0.0004257661094980653,0.0,0.6803232829390329,0.2908667170609672,9.833541684683018
3730000000.0,21.65,-0.022460308803809417,-0.008197850810979457,0.0,0.725352196958522,0.32000241735232415,9.60222296833683
3735000000.0,21.65,-0.024568317495448272,-0.004439507410760897,0.0,0.795787490191575,0.3595368627394686,9.655494313697343
3740000000.0,21.65,-0.027229952509772212,0.004940035102512263,0.0,0.8193312726450128,0.37238745470997453,9.918696906705367
3745000000.0,21.65,-0.03527878397032234,0.007431247100156318,0.0,0.7489924088680242,0.32294461806294616,10.05525
3750000000.0,21.65,-0.04207116952435584,0.0005322384664997199,0.0,0.6916052185177523,0.25996463580374635,9.883572450626223
3755000000.0,21.65,-0.041038426554200286,-0.004279880560595207,0.0,0.7351618376182184,0.24024697293636973,9.630181460081715
3760000000.0,21.65,-0.034810171530162304,-0.0016608315378597504,0.0,0.7793066191004663,0.2782121112344211,9.672269571904197
3765000000.0,21.65,-0.02682531391738603,0.001000787666398958,0.0,0.7992207731306078,0.31853077313060774,9.897604689481547
3770000000.0,21.65,-0.025888508530795683,0.0031087963580377605,0.0,0.7728312874059129,0.3147046535445465,10.000902673227728
3775000000.0,21.65,-0.03211673193470329,0.0004257966756241226,0.0,0.73575,0.26879341340123414,9.91349396017824
3780000000.0,21.65,-0.03902630801593107,-0.0019163316773254837,0.0,0.7530158936878589,0.21699705315607054,9.761341739202317
3785000000.0,21.65,-0.04077225567473749,0.0024380743685495213,0.0,0.7749900000000001,0.20179162648091628,9.796267470381675
3790000000.0,21.65,-0.032531786198034825,0.002917119343724444,0.0,0.7626291791513918,0.20444054723240548,9.916340547232405
3795000000.0,21.65,-0.02275836331473326,-0.0002448936937337492,0.0,0.7375156525733565,0.2359308685666087,9.875431741726818
3800000000.0,21.65,-0.021097556018973496,-0.0029810383832722964,0.0,0.7377122214313222,0.2727181476208815,9.764873335706033
3805000000.0,21.65,-0.023205564710612313,-0.0042586033748661,0.0,0.7591959739075598,0.2921419478151195,9.757811686890717
3810000000.0,21.65,-0.026527299458627304,-0.0026403019663645212,0.0,0.7763636220140363,0.29665425199064255,9.874354488056145
3815000000.0,21.65,-0.03140339233349613,0.001969644271141392,0.0,0.79461,0.27723045179640454,9.929191129491011
3820000000.0,21.65,-0.03216986850979342,0.004173407149589202,0.0,0.7734199548064996,0.26840167419891675,9.824124841822748
3825000000.0,21.65,-0.027645118497564406,0.0028745734043010757,0.0,0.7254492771118928,0.29528144577621446,9.688846425703964
3830000000.0,21.65,-0.02484509482064307,0.0020866672116446722,0.0,0.7129909487863094,0.33354,9.749179487863096
3835000000.0,21.65,-0.02414245757956339,-0.002831987412712588,0.0,0.7356521234708212,0.3303026255097263,9.885144748980547
3840000000.0,21.65,-0.02795394809491559,-0.0028958179158954443,0.0,0.75537,0.32686927458739273,9.870036528713465
3845000000.0,21.65,-0.03401177904826933,0.0,0.0,0.7614523493690235,0.3244164759464648,9.761341205047813
3850000000.0,21.65,-0.03781259882362442,0.0006388067378968256,0.0,0.7749900000000001,0.28939462609184624,9.65304
3855000000.0,21.65,-0.0424651068106189,0.0015117879453304174,0.0,0.7636101004850011,0.24368010048500102,9.718474422211244
3860000000.0,21.65,-0.043540347235997895,-0.0005962207463083394,0.0,0.746737499903475,0.2213137499517375,9.895151249855212
3865000000.0,21.65,-0.037312082725920834,-0.0012669100616618553,0.0,0.785585100291951,0.25398142551091424,9.90309592405116
3870000000.0,21.65,-0.02710212180870689,0.0018951029757963058,0.0,0.7938245986391461,0.3194140510206405,9.764087846938079
3875000000.0,21.65,-0.024238317166806984,0.0034600907364776595,0.0,0.725939698931097,0.353159698931097,9.653040602137805
3880000000.0,21.65,-0.03366473156435638,0.0005536020805851329,0.0,0.7129913275504133,0.30724867244958676,9.747217130465172
3885000000.0,21.65,-0.04728416016686252,-0.0008197729600479379,0.0,0.7696927509229275,0.23700899630828998,9.899664758306347
3890000000.0,21.65,-0.05126587238406452,0.0,0.0,0.7783251733242518,0.17226344888283449,10.009730693297007
3895000000.0,21.65,-0.04525751057176153,-0.0006707546636229777,0.0,0.7533098243442983,0.16314052696710526,9.868465784263158
3900000000.0,21.65,-0.03387330079530248,-0.0029810141411723825,0.0,0.7435979242471793,0.1962003787641038,9.68247
3905000000.0,21.65,-0.029167609857026672,-0.0025338854715931704,0.0,0.7487978309495783,0.23544,9.716021565298917
3910000000.0,21.65,-0.03127561854866553,-0.0034920217981342645,0.0,0.8026541240529412,0.24073762784117628,9.890835767047058
3915000000.0,21.65,-0.0339266239291619,0.00036199779257166555,0.0,0.7862711197791112,0.2531955676907557,10.032294447911644
3920000000.0,21.65,-0.0383448836663154,0.0019589492890442887,0.0,0.7486993522825935,0.19463032385870324,9.975198420326285
3925000000.0,21.65,-0.03850458956680699,0.002022886246666068,0.0,0.759293695046337,0.1790321188079212,9.744762661377425
3930000000.0,21.65,-0.03836611869187058,0.005812902477476509,0.0,0.7273134763355348,0.14283390534213905,9.683256479381765
3935000000.0,21.65,-0.03154173988992404,-0.004673842088958153,0.0,0.7383007528653075,0.18168150573061503,9.886715270057152
3940000000.0,21.65,-0.028251960445665577,-0.0074525559060157,0.0,0.760079106119091,0.22052910611909107,9.994427234702274
3945000000.0,21.65,-0.024270182880194092,-0.006398476725887747,0.0,0.7989267065075671,0.25721835325378356,9.891912350596623
3950000000.0,21.65,-0.02301396147660321,0.002981088975480896,0.0,0.8269824629319247,0.2736989232759892,9.764874306896042
3955000000.0,21.65,-0.029529641377737413,0.010071546958512211,0.0,0.761648092715481,0.2631040463577405,9.799307023178871
3960000000.0,21.65,-0.0372802328225988,0.003917881714019136,0.0,0.7275097538364975,0.24289536924525368,9.793519507672995
3965000000.0,21.65,-0.037131164987969555,0.0,0.0,0.74556,0.21513322298463225,9.827559668953898
3970000000.0,21.65,-0.03483149403807821,0.0001277748388349916,0.0,0.7461486771124868,0.2101307397874074,9.79842396866254
3975000000.0,21.65,-0.029774435995062628,0.0020228198443922514,0.0,0.7538982683711827,0.27369884558078844,9.77174115441921
3980000000.0,21.65,-0.02893340376735952,-0.00017037769449301487,0.0,0.7271174319201743,0.2558449546134495,9.788417613466377
3985000000.0,21.65,-0.03327721285354176,-0.004194707523413835,0.0,0.7562531322115313,0.2732081129807811,9.741918754807687
3990000000.0,21.65,-0.04160274048095203,-0.0020866988317749806,0.0,0.7846037224990373,0.2246486124951861,9.76310905251059
3995000000.0,21.65,-0.044722133798682714,0.0,0.0,0.7751863551961636,0.17658,9.868270934411509
4000000000.0,21.65,-0.04366807042861997,4.216017383277672e-08,0.0,0.794609689219197,0.17658038847600388,9.809999300743193
4005000000.0,21.65,-0.03523603566206454,0.005270063889270923,0.0,0.7557620888307208,0.2251398889615989,9.722592199869123
4010000000.0,21.65,-0.027847367175466337,0.004279887938625578,0.0,0.7169144884422449,0.27369938944719385,9.750551633668316
4015000000.0,21.65,-0.038025573049749406,-0.0019377153174934079,0.0,0.7351615559731156,0.27468,9.808234667919347
4020000000.0,21.65,-0.046538225239358265,-0.0031513749715958764,0.0,0.7451676780836768,0.20875625341426252,9.89475910275309
4025000000.0,21.65,-0.04484010936904827,-0.002182525744883846,0.0,0.7921578909039789,0.20601,9.851692109096021
4030000000.0,21.65,-0.04173044786350889,0.004876160331146949,0.0,0.7853885217220853,0.19678852172208522,9.812354086888341
4035000000.0,21.65,-0.04749587064177687,0.0053232542185827,0.0,0.7209363513747635,0.12321297299972975,9.901233783750337
4040000000.0,21.65,-0.0479441945522842,-0.006430593292309198,0.0,0.71613,0.09064416458354163,9.835897772222777
4045000000.0,21.65,-0.04600651296292977,-0.005514874316661355,0.0,0.805401785692718,0.08829,9.802838464292185
4050000000.0,21.65,-0.03717543609060442,-0.001490477031462315,0.0,0.8318881573327817,0.09711907866639079,9.91496802266308
4055000000.0,21.65,-0.03432048638111635,0.002725540351815307,0.0,0.7814641274189413,0.0981,10.032491745162117
4060000000.0,21.65,-0.03127557638849169,0.0031939525311496,0.0,0.7577242422787425,0.13263151544251514,9.915946817090568
4065000000.0,21.65,-0.028113563351033453,0.0031939525311496,0.0,0.7383004420845044,0.18001389478873894,9.787337873549278
4070000000.0,21.65,-0.02678276692395835,-0.0013840889948083107,0.0,0.7526233581097336,0.18639,9.762323320945132
4075000000.0,21.65,-0.030253571614611344,0.002395507349039302,0.0,0.75537,0.18639,9.877690108127801
4080000000.0,21.65,-0.026420751213312825,-0.00038330870643977144,0.0,0.7388890415017905,0.23583287549462875,9.939492396245525
4085000000.0,21.65,-0.02026706067271545,-0.0019483196552167003,0.0,0.7683195173848952,0.2696771380386714,9.80077717176797
4090000000.0,21.65,-0.03053045855625812,0.0004897652533762363,0.0,0.7267243233399433,0.2505471616699716,9.762715720556656
4095000000.0,21.65,-0.04250776342049856,-0.003247228234813367,0.0,0.7320223590809236,0.18168056367630564,9.729165281838153
4100000000.0,21.65,-0.046450210139934105,-0.006813791328292688,0.0,0.7906865574630656,0.1432257610872576,9.768798477825486
4105000000.0,21.65,-0.0384549272665008,0.00011718947318988503,0.0,0.8121699797346998,0.19933983787759837,9.8270698784082
4110000000.0,21.65,-0.0362155819788823,0.00628148329750612,0.0,0.7530149613454497,0.2081681201681812,9.84708187983182
4115000000.0,21.65,-0.03703537180299977,0.0025338169613107198,0.0,0.7055348802842488,0.1909024401421244,9.728379521136995
4120000000.0,21.65,-0.03647108949637845,-0.0029810657873853234,0.0,0.733788400130284,0.2162127201042272,9.647545919843658
4125000000.0,21.65,-0.03861107246385206,-0.0018631128898963407,0.0,0.7602751602463517,0.21827241987682422,9.706995801231757
4130000000.0,21.65,-0.04334878616216258,0.0036624511388402862,0.0,0.7796989604405896,0.2085605197797052,9.854931163745011
4135000000.0,21.65,-0.043955584896085614,0.003768846553524657,0.0,0.748993098412931,0.20601,9.955581042539311
4140000000.0,21.65,-0.0406019085463705,-0.0037050634805373866,0.0,0.73575,0.2130732804145328,9.828441111294811
4145000000.0,21.65,-0.048492856531779205,-0.0018524400418906068,0.0,0.7496803610233036,0.13920301437183014,9.68717783386018
4150000000.0,21.65,-0.05518385528250092,-0.0014905286776752407,0.0,0.7485029193912291,0.06670751634737518,9.749179128522792
4155000000.0,21.65,-0.05352292993825437,-0.002129301687433,0.0,0.813249807058898,0.04228101929411019,9.932528594823687
4160000000.0,21.65,-0.044951216114043444,0.0036624690569141533,0.0,0.8236473575909736,0.052581761606017616,10.029744404015043
4165000000.0,21.65,-0.040825511352318745,0.005674580217152944,0.0,0.748502190998722,0.045714438199744384,9.913984381997444
4170000000.0,21.65,-0.041879542048246766,0.0032152191768351655,0.0,0.7031806380055063,0.045714680997246813,9.790967871024778
4175000000.0,21.65,-0.03360707299960501,-0.001330857559327128,0.0,0.7475226487549265,0.1255689731323897,9.80558606766056
4180000000.0,21.65,-0.027400255369956654,-0.0011497964767848631,0.0,0.7687115188085153,0.1730484811914848,9.904961774297819
4185000000.0,21.65,-0.03199963521389575,0.0020122165606733713,0.0,0.7837211438658115,0.15803885613418855,9.934979237422793
4190000000.0,21.65,-0.034490838779505054,0.004514137242470958,0.0,0.7337871861427718,0.14715,9.909473155842832
4195000000.0,21.65,-0.0340862802914492,0.0007771332142378932,0.0,0.7084783629656837,0.1531341814828418,9.874353274068632
4200000000.0,21.65,-0.03791907645064781,-0.002768101047299465,0.0,0.751446489479765,0.10398526578035265,9.817847428940274
4205000000.0,21.65,-0.04235864393965641,-0.0019376468072109742,0.0,0.7692020183229202,0.07445798167707982,9.79616798167708
4210000000.0,21.65,-0.03564055515195965,-0.002917169935933043,0.0,0.7708698817741989,0.12968893596778935,9.777430472903205
4215000000.0,21.65,-0.029827676916583,-0.0006174441778158016,0.0,0.7805817818713179,0.1611782181286822,9.78890890935659
4220000000.0,21.65,-0.03519359723108449,0.003321728423988893,0.0,0.7628252721262527,0.15146631803156319,9.799012636063127
4225000000.0,21.65,-0.0394095345100319,0.002501902763723653,0.0,0.74556,0.14715,9.795775582065556
4230000000.0,21.65,-0.03653493264761341,0.0004897304712328243,0.0,0.74556,0.18423237513872376,9.816082446488025
4235000000.0,21.65,-0.0340862802914492,0.0005642738745865541,0.0,0.7351612354804123,0.1950224709608247,9.808822470960825
4240000000.0,21.65,-0.03574716242151755,0.0005110234670270674,0.0,0.7310412823569128,0.17658,9.724063329360135
4245000000.0,21.65,-0.03945215633776814,0.0,0.0,0.7207404526379045,0.1965927298161273,9.66285
4250000000.0,21.65,-0.04260350495925543,-0.0031940062853712363,0.0,0.735750495306905,0.1961996697953967,9.770761816125319
4255000000.0,21.65,-0.04941525685825409,-0.0027360898813126263,0.0,0.7892149132413492,0.1429311214621112,9.955581722372317
4260000000.0,21.65,-0.0553967504583,0.0005536094586155536,0.0,0.790685586273056,0.07965670352766704,9.936743462346834
4265000000.0,21.65,-0.05289477602228078,0.0010007897744076497,0.0,0.7559584343149844,0.05827156568501565,9.732793560307336
4270000000.0,21.65,-0.0500734962397173,0.0011498049088195933,0.0,0.7590980488188805,0.04159390236223902,9.664224146456641
4275000000.0,21.65,-0.049594394348307674,0.0009582037828191635,0.0,0.7749900000000001,0.005395416963254169,9.8178499928819
4280000000.0,21.65,-0.042911245683723516,0.0011923909004080795,0.0,0.7793064831338649,0.02158241566932416,10.003454280740243
4285000000.0,21.65,-0.031946268865858246,-0.0013734266868460588,0.0,0.7679264670760647,0.074360299385903,9.98628395214934
4290000000.0,21.65,-0.03306432400176881,-0.0005109781448402132,0.0,0.7538005666562057,0.0955491500156915,9.78233405010984
4295000000.0,21.65,-0.04266392085121177,0.0036304684309706953,0.0,0.7531134497243346,0.07848,9.711116201102662
4300000000.0,21.65,-0.044956172595397824,0.003832733972942126,0.0,0.73575,0.07455591647765916,9.851203503402136
4305000000.0,21.65,-0.044083360788924955,0.0011178380110152984,0.0,0.7395759836194599,0.04954008190270082,9.991583852575138
4310000000.0,21.65,-0.04311448310409564,-0.001724725281303269,0.0,0.7381042325668423,0.03825941858289418,10.000705395401054
4315000000.0,21.65,-0.03653488627142222,-0.0030343003848796214,0.0,0.7368293514410935,0.07955935144109351,9.836975404657554
4320000000.0,21.65,-0.030977527147589536,-0.005621338241628188,0.0,0.7624333678216337,0.0981,9.654216528713466
4325000000.0,21.65,-0.03563008783480137,-0.002022781900235867,0.0,0.7852907520238076,0.08779924797619248,9.700130352222203
4330000000.0,21.65,-0.04011219493920722,0.0014053208583505103,0.0,0.8077554841050549,0.07534096821010967,9.945379682101096
4335000000.0,21.65,-0.03800415884345534,0.0017567195832206822,0.0,0.7883309263826094,0.09800215260652152,10.036021389573914
4340000000.0,21.65,-0.034469536297671695,0.0029383722873536243,0.0,0.7263321471021215,0.12085928429929285,9.822160775130408
4345000000.0,21.65,-0.033681731289432464,-0.0014691998457332395,0.0,0.7124023687928237,0.13665355318923553,9.514031709225117
4350000000.0,21.65,-0.03610914440402404,0.0,0.0,0.7288830844935309,0.16873233797412338,9.596145717715357
4355000000.0,21.65,-0.040820008672089354,-0.0006175158501112741,0.0,0.7414399691812997,0.17913009245610093,9.940964768859747
4360000000.0,21.65,-0.05015876940731141,-0.0018311902602744844,0.0,0.7636106540633065,0.11261803781008037,10.001489844995698
4365000000.0,21.65,-0.05830323806018818,-0.0016395807022393152,0.0,0.7768536456453365,0.030508506505785064,9.83815308908713
4370000000.0,21.65,-0.056418778420275886,-0.0018098603743282116,0.0,0.7579206848820068,-0.027272054646020547,9.681684520943945
4375000000.0,21.65,-0.052202761036998245,0.0026616455543673266,0.0,0.7578222450626225,-0.03923966008349661,9.675114284561642
4380000000.0,21.65,-0.0451717749208834,0.0027254507614458993,0.0,0.7404589701524897,0.004316910457469106,9.862582791067428
4385000000.0,21.65,-0.03130747688402228,-0.0026190595627788387,0.0,0.7621391555200916,0.06710108138691082,9.964703614826636
4390000000.0,21.65,-0.027442933059923257,-0.0033216736157629326,0.0,0.7804834294590344,0.12537171472951716,9.907509438778895
4395000000.0,21.65,-0.03677297693730276,0.0006707578256360152,0.0,0.767240185367602,0.10741907316199073,9.71915888779439
4400000000.0,21.65,-0.04794424092847536,0.004045710307075793,0.0,0.7691037436058374,0.05885957267639572,9.715825880223859
4405000000.0,21.65,-0.0528096767654036,0.0066433841216779945,0.0,0.7362400721908007,0.012164057752640577,9.925759711236797
4410000000.0,21.65,-0.05443851821736346,0.0014691344974638448,0.0,0.7018076569768765,-0.026683542635835424,10.051128172479782
4415000000.0,21.65,-0.04699352987248429,-0.006568905012589378,0.0,0.7309433572682336,-0.045517713951377145,9.858263141854131
4420000000.0,21.65,-0.03178662515162304,-0.007111849001229586,0.0,0.7600790575595906,0.03060780097237801,9.655001570734017
4425000000.0,21.65,-0.03153115557828336,-0.004365012491607057,0.0,0.7892147578509476,0.08240365619873656,9.650589648757895
4430000000.0,21.65,-0.03559811250496217,0.001213711300315314,0.0,0.8087360558102606,0.055917430237174305,9.890640179091001
4435000000.0,21.65,-0.03876012554242049,0.002267715646134705,0.0,0.7737146138554462,0.0917230692772307,10.055346118675262
4440000000.0,21.65,-0.04205200058922108,0.0034494874527587534,0.0,0.7616481412749815,0.044340855033308556,9.839036133891561
4445000000.0,21.65,-0.04557873092325083,0.00497189132986033,0.0,0.7346708136612081,0.014126745355167454,9.683646509289666
4450000000.0,21.65,-0.0430292910948361,0.0017034038273916888,0.0,0.7249589135640891,0.05493651861546519,9.633421728718217
4455000000.0,21.65,-0.037855200625278064,-0.002225129654546215,0.0,0.71613,0.10261208080182081,9.832074663325747
4460000000.0,21.65,-0.04435098605615493,-0.003705041346446124,0.0,0.7216242064110421,0.04512556684925567,10.041906927287469
4465000000.0,21.65,-0.05235186786978824,-0.009060112794216037,0.0,0.7861735734545358,-0.003433933636339337,9.876804625636446
4470000000.0,21.65,-0.05414043419431787,-0.0018098593203237858,0.0,0.80442,-0.05199343412193434,9.722887373648774
4475000000.0,21.65,-0.050764580435489856,0.0033536784577237653,0.0,0.8039294130784942,-0.09613765231397653,9.747707629979576
4480000000.0,21.65,-0.0431995876309945,0.006345309584671601,0.0,0.791862590869626,-0.05532761683237617,9.873177357204874
4485000000.0,21.65,-0.03173333574590275,0.005003764421277918,0.0,0.726234387115744,0.030607548462975486,9.972354193263842
4490000000.0,21.65,-0.024674842552667154,-0.00525934677308263,0.0,0.7363388616385886,0.06886628721286286,9.827264553445646
4495000000.0,21.65,-0.03311753330315881,-0.002107989719560532,0.0,0.7653763746199638,0.07828362538003625,9.712292749239927
4500000000.0,21.65,-0.04260356308500324,2.8458117337124106e-08,0.0,0.7848001748142018,0.05885947555739476,9.751140611849706
4505000000.0,21.65,-0.05105287661132615,0.003162041495575571,0.0,0.8042239750084398,0.0005880749746807537,9.81912391252954
4510000000.0,21.65,-0.055311616419279466,0.006324054533033805,0.0,0.7467366743919668,-0.04806943800669439,10.012087752026778
4515000000.0,21.65,-0.04816770460584997,-0.001873861626214975,0.0,0.7170126369046265,-0.030018424603084248,9.892304759920048
4520000000.0,21.65,-0.03668462151542624,-0.007239673378268823,0.0,0.7255476877955769,0.017658438977884387,9.653037805110579
4525000000.0,21.65,-0.0341927262983422,-0.0044182723852055905,0.0,0.7725379394634795,0.04757876367808764,9.605951648429215
4530000000.0,21.65,-0.03808940566094092,-0.0022570406901202397,0.0,0.7934329759796298,0.05827148798981488,9.788419759796298
4535000000.0,21.65,-0.04529205929640787,0.007772046757324895,0.0,0.8128567761738679,0.040613223826132236,10.019151314086413
4540000000.0,21.65,-0.05267131129090186,0.006558230056574928,0.0,0.7691035590797357,-0.032962305472423056,9.927326541791365
4545000000.0,21.65,-0.0532674487708669,0.0015436958188914255,0.0,0.7294712468753125,-0.048167188281171884,9.801856552344766
4550000000.0,21.65,-0.04847647201694474,0.000106455492932103,0.0,0.72594,-0.031391823243418236,9.702089116217092
4555000000.0,21.65,-0.04129581899432079,-0.0018950977057745509,0.0,0.7434019769508198,-0.01196802304918023,9.73593494237705
4560000000.0,21.65,-0.0404741853537485,-0.001192399332442846,0.0,0.7541928885725289,-0.00981,9.89672199430552
4565000000.0,21.65,-0.046973160875647374,-0.003843418414995684,0.0,0.7895091546785916,-0.052483943348239435,9.969118732017888
4570000000.0,21.65,-0.05710028814424365,-0.0033429940156701893,0.0,0.8030466887667669,-0.11791682136736822,9.917713178632631
4575000000.0,21.65,-0.054970851544254275,0.002235824636643305,0.0,0.7960814111361142,-0.15254576659165767,9.76634398931394
4580000000.0,21.65,-0.045374275056576235,0.0031939525311496,0.0,0.7698885331169854,-0.12399804415598045,9.80725391168804
4585000000.0,21.65,-0.035715109095356856,0.0005429429346358785,0.0,0.7407528328256283,-0.06886566565125665,9.827952389058124
4590000000.0,21.65,-0.0340862802914492,0.0,0.0,0.73575,-0.02668284337902844,9.845708578310486
4595000000.0,21.65,-0.029774395942897526,-0.003449507478841293,0.0,0.7436961892523619,0.03600332476653326,9.857186189252362
4600000000.0,21.65,-0.037280329790998636,4.848419988753849e-08,0.0,0.7848004467474045,0.009809553252595533,9.811961463903115
4605000000.0,21.65,-0.048675245383337055,0.002746818591548699,0.0,0.7558600527670005,-0.01549997889319979,9.854439926126199
4610000000.0,21.65,-0.04698596020333896,0.0007026404030927068,0.0,0.7379081104562811,-0.027271889543718897,9.86120811045628
4615000000.0,21.65,-0.04334208103576222,-0.0024593726343655276,0.0,0.73575,-0.03698378964083789,9.791065893232458
4620000000.0,21.65,-0.0458533292240513,-0.005621385671823761,0.0,0.73575,-0.03924,9.696203102620432
4625000000.0,21.65,-0.041276968403055905,-0.003992411415316404,0.0,0.7651803593403036,-0.0245248203298482,9.72416312884553
4630000000.0,21.65,-0.03783383174117092,0.002321007159863714,0.0,0.8112874496609745,0.0094179597287796,9.821184389254144
4635000000.0,21.65,-0.04351061297857937,0.005813013147932834,0.0,0.7739102697948027,-0.0018641700879417009,9.877885560117255
4640000000.0,21.65,-0.04964768480803229,0.0063879050622992,0.0,0.7341801296207013,-0.002746709873567098,9.846100259241403
4645000000.0,21.65,-0.05189405897417289,0.0033642574993427068,0.0,0.6911140488822406,-0.02786076089420761,9.787828858658688
4650000000.0,21.65,-0.0522027979271503,-0.0008517598839348646,0.0,0.7249596322446964,-0.09417672256536722,9.729557458075975
4655000000.0,21.65,-0.0522027979271503,-0.002129301687433,0.0,0.7658669712533698,-0.1380269712533697,9.75928293292453
4660000000.0,21.65,-0.04930690833895934,-0.0006813568933375538,0.0,0.8016735620596357,-0.10045376639563766,9.91398781029818
4665000000.0,21.65,-0.04436587118933183,-0.001426651798301203,0.0,0.7682204657158047,-0.09819837183608372,9.943906046939862
4670000000.0,21.65,-0.048236441585656355,-0.00072394288492604,0.0,0.7649840721274408,-0.12085938141829382,9.86297309290853
4675000000.0,21.65,-0.04975408127672102,0.0006920329033563584,0.0,0.7686134091937342,-0.10840022758120228,9.778607273549872
4680000000.0,21.65,-0.04422797028884392,0.0024274236546350378,0.0,0.7651800000000001,-0.10437849090338491,9.782532454516925
4685000000.0,21.65,-0.03885587656721641,0.003864692438711715,0.0,0.771360391000504,-0.08318843599798437,9.849633128004031
4690000000.0,21.65,-0.03596004600326875,0.0029384165555360504,0.0,0.7384962534142626,-0.044340835609508356,9.927328328780984
4695000000.0,21.65,-0.03580037804693363,-0.0011179328714064221,0.0,0.7101458088052581,-0.017461617610516178,9.873371323273613
4700000000.0,21.65,-0.043252858669393136,-0.0025551521172787893,0.0,0.712206091291861,-0.04512654775116547,9.790379543540695
4705000000.0,21.65,-0.04982865630020515,-0.002757455603406688,0.0,0.7277059827779598,-0.06867,9.799699956944899
4710000000.0,21.65,-0.04928562482920422,-0.0013414302769200193,0.0,0.7698893489165936,-0.09711945743049458,9.831189782972197
4715000000.0,21.65,-0.0479441945522842,0.0006068609201793861,0.0,0.7778346252503463,-0.13449537474965376,9.850613583166435
4720000000.0,21.65,-0.044357134011667805,0.0004684364214342354,0.0,0.7596863083196631,-0.1141878499179785,9.853556308319662
4725000000.0,21.65,-0.039782132424309516,-0.001171135848770286,0.0,0.7445788164450882,-0.08289440822254407,9.816866449335265
4730000000.0,21.65,-0.03604519796036321,-0.000979458834456957,0.0,0.7569399674982997,-0.06788501625085017,9.742702573128826
4735000000.0,21.65,-0.03747192986299476,0.0016928247857727525,0.0,0.7645912160566122,-0.04326182408491824,9.769682095632021
4740000000.0,21.65,-0.04158144221513606,0.0031939525311496,0.0,0.7349648317247484,-0.02943,9.870430336550504
4745000000.0,21.65,-0.0474992257795122,0.0015650067327595786,0.0,0.7111268078340681,-0.06945553732745538,9.868074462672544
4750000000.0,21.65,-0.053799804231849005,0.0,0.0,0.711225092263051,-0.1324354613152546,9.8198098154739
4755000000.0,21.65,-0.05330999471029025,-0.004695200433021871,0.0,0.7497789465211895,-0.17138097708050976,9.81
4760000000.0,21.65,-0.04960501976611788,-0.00600456051971161,0.0,0.7848,-0.2005166773718668,9.781746645256266
4765000000.0,21.65,-0.04543401163409227,-0.0011285098050166586,0.0,0.7940215851088159,-0.18815524467355244,9.788026340435263
4770000000.0,21.65,-0.03868549149469297,0.0,0.0,0.80442,-0.12085845878778458,9.870234233863743
4775000000.0,21.65,-0.036002692073105004,0.0014373088362418275,0.0,0.7823470362567704,-0.08289459274864593,9.887007850759478
4780000000.0,21.65,-0.04068716590389952,0.004130865426183256,0.0,0.7467370143084702,-0.09260649284576493,9.819024550079646
4785000000.0,21.65,-0.04275251798565869,0.0030342044704841915,0.0,0.7484051788286519,-0.08122642822846429,9.78057
4790000000.0,21.65,-0.042433163100910165,0.0026829807103354616,0.0,0.7528191208799913,-0.07946146520001465,9.776449706959998
4795000000.0,21.65,-0.04454832780818549,0.0037688033393464696,0.0,0.7317278068628781,-0.11595438627424387,9.806959738234097
4800000000.0,21.65,-0.04410442955825369,-0.0017034818237133193,0.0,0.7337881864684819,-0.11575772029727721,9.870822279702722
4805000000.0,21.65,-0.041954060155496194,-0.0046738273328973375,0.0,0.7532119866627199,-0.10957797999407981,9.86552404001184
4810000000.0,21.65,-0.04544216167949942,-0.0053232542185827,0.0,0.7763636802854369,-0.13125789342847893,9.784885278858253
4815000000.0,21.65,-0.0500734962397173,-0.00335359940739785,0.0,0.8054993805767938,-0.14459958705119585,9.73004896762799
4820000000.0,21.65,-0.04815079056614362,0.001149853393019537,0.0,0.8134449191318492,-0.14283322550913224,9.799798629849885
4825000000.0,21.65,-0.045111535514179346,0.0028213145647068526,0.0,0.7774420314008204,-0.14175515603885155,9.865426406280164
4830000000.0,21.65,-0.044722984172844676,0.0024912931559786244,0.0,0.748895493816955,-0.16304154328131543,9.85905
4835000000.0,21.65,-0.04119810715858759,0.00213991761920416,0.0,0.7488952121718521,-0.10477042434370425,9.84286303042963
4840000000.0,21.65,-0.039707677557320825,0.0,0.0,0.7483071760447718,-0.09103717604477175,9.78802494192165
4845000000.0,21.65,-0.045909417477836265,0.0,0.0,0.7597840294584404,-0.14204955286649554,9.783906717516366
4850000000.0,21.65,-0.053906259724781136,-0.0006388109539142089,0.0,0.7377123768217239,-0.19914309420543094,9.88161309420543
4855000000.0,21.65,-0.054779232500180006,-0.001511783729313034,0.0,0.76802499430255,-0.22307996581529965,9.8941699886051
4860000000.0,21.65,-0.05057954935054592,-0.0011924499246514734,0.0,0.7722431056003312,-0.24838863360198632,9.891618633601986
4865000000.0,21.65,-0.041080944035506335,-0.0031087394418031133,0.0,0.767828794496788,-0.19276602751606026,9.828049644025697
4870000000.0,21.65,-0.032979002349974675,0.0,0.0,0.7673379162182792,-0.14165583243655833,9.77076
4875000000.0,21.65,-0.031158541853940534,0.00026617298747149673,0.0,0.748012594691026,-0.09319481061794811,9.775665189382051
4880000000.0,21.65,-0.03745066954133518,0.002342283291588424,0.0,0.757724494788145,-0.08554348436443485,9.81863393745774
4885000000.0,21.65,-0.045961203113094,0.005653265087267416,0.0,0.7629236051147361,-0.12821755396737555,9.892305235803152
4890000000.0,21.65,-0.05054196322727756,0.0031939525311496,0.0,0.7488951150528511,-0.2005165899647659,9.832955115052851
4895000000.0,21.65,-0.0508612759518522,0.0022996045476175366,0.0,0.7218196098409961,-0.21169960984099612,9.8079398049205
4900000000.0,21.65,-0.04432081855111399,-0.002129353333645985,0.0,0.7141683807064838,-0.19031371447013715,9.77664485788055
4905000000.0,21.65,-0.039356353666759276,-0.0063879050622992,0.0,0.7511519858212199,-0.16677,9.69551796691618
4910000000.0,21.65,-0.043093195378323144,-0.005812962555724244,0.0,0.7820535814834358,-0.1597064185165642,9.774096639821165
4915000000.0,21.65,-0.04101718836663209,-0.0017459444967933538,0.0,0.8142300000000001,-0.13420118187191182,9.87867
4920000000.0,21.65,-0.044011639594519106,0.006004672244172327,0.0,0.8048118266094184,-0.16520030443490305,9.869251826609418
4925000000.0,21.65,-0.04533315067527646,0.008783317550947363,0.0,0.7480120216889202,-0.15401680867556808,9.813923617351136
4930000000.0,21.65,-0.04290161006238783,0.0036623573324534465,0.0,0.704946504240665,-0.14146048727800486,9.772329025443991
4935000000.0,21.65,-0.045703962916125856,-0.00041524503811812765,0.0,0.6977853958564539,-0.17187158342581585,9.729362375138724
4940000000.0,21.65,-0.05194726089753247,-0.0031939525311496,0.0,0.7098518878607188,-0.20601,9.79587484739645
4945000000.0,21.65,-0.05019061825662909,-0.0029597084973259987,0.0,0.7400667842027678,-0.2114059802534598,9.907020803949308
4950000000.0,21.65,-0.05156404915949252,-0.0007452242866724792,0.0,0.7749900000000001,-0.2609465768868658,9.893384519260945
4955000000.0,21.65,-0.05453428926824199,0.0018418146240803438,0.0,0.7741070037550701,-0.3095050187753502,9.84835700375507
4960000000.0,21.65,-0.045132036244280735,-0.0010646508437165,0.0,0.767534689026147,-0.2625153109738531,9.836290414631804
4965000000.0,21.65,-0.0372802328225988,-0.000990114818393191,0.0,0.7925496106824962,-0.23337961068249613,9.799503203560832
4970000000.0,21.65,-0.037088564240320226,0.0001916685822785683,0.0,0.766357393072574,-0.20188912424599123,9.793323482681435
4975000000.0,21.65,-0.03413952332097827,0.0033004385902077366,0.0,0.7828376134663761,-0.1353776134663761,9.842373579800435
4980000000.0,21.65,-0.03557759475528241,0.005238061155318807,0.0,0.74477500653895,-0.10280996076629961,9.89829
4985000000.0,21.65,-0.04610244316846452,0.003034202362475483,0.0,0.7253512063447121,-0.2167031904829319,9.896229222206491
4990000000.0,21.65,-0.055226322171598376,-0.002193212294946108,0.0,0.7071051876990518,-0.24505370307523702,9.828834812300949
4995000000.0,21.65,-0.046847397889205854,-0.005312597180642119,0.0,0.7457563940437639,-0.23553819702188197,9.78979081786871
5000000000.0,21.65,-0.043668127344854646,-0.0042586033748661,0.0,0.765180291357003,-0.24524980576199806,9.731520194238001
5005000000.0,21.65,-0.042614122999035164,-0.0042586033748661,0.0,0.79431599164836,-0.22582600556776006,9.75094399443224
5010000000.0,21.65,-0.03425653993745549,-0.002171866598934572,0.0,0.79461,-0.19678830806028308,9.837665075819151
5015000000.0,21.65,-0.03821716785172377,-6.385790729581276e-05,0.0,0.823157392231074,-0.16765260776892607,9.848945797410359
5020000000.0,21.65,-0.04756031753015688,0.005110376960857552,0.0,0.7769515124626152,-0.23269388255233886,9.830404604985047
5025000000.0,21.65,-0.04287046927936672,0.004311825324308254,0.0,0.7190724143724242,-0.21680080479080804,9.783022011977021
5030000000.0,21.65,-0.0426034870411815,0.0012562561857343193,0.0,0.706908502298285,-0.20659850229828502,9.76212700459657
5035000000.0,21.65,-0.0426034870411815,0.0010646508437165,0.0,0.715443397798834,-0.23338019339650196,9.76095
5040000000.0,21.65,-0.04456246584234756,-0.003832796159198521,0.0,0.7432058936878589,-0.22641470210404702,9.905354766335247
5045000000.0,21.65,-0.042795102923242775,-0.005227446277552055,0.0,0.763414395986144,-0.21670280200692804,9.900055604013856
5050000000.0,21.65,-0.045493784393331294,-0.004365057813793867,0.0,0.791667294270573,-0.23347819618038196,9.801169921007899
5055000000.0,21.65,-0.048657542585526056,-0.0014159536541911472,0.0,0.7771480036253801,-0.26163299456192995,9.78164900181269
5060000000.0,21.65,-0.0490088453960007,-0.00012774743472200025,0.0,0.7663571017155711,-0.26487,9.78920289828443
5065000000.0,21.65,-0.045288633212084865,0.002778770733292221,0.0,0.782249596763096,-0.29900919352619193,9.83305399190774
5070000000.0,21.65,-0.042901567902214,0.0031939525311496,0.0,0.7426165076066651,-0.2619265076066651,9.940670381744004
5075000000.0,21.65,-0.03807866746466565,0.0031939525311496,0.0,0.73575,-0.21336700712107007,9.840409619938997
5080000000.0,21.65,-0.039963185074817005,0.0031939525311496,0.0,0.743990498672905,-0.23897199469161995,9.745645511943854
5085000000.0,21.65,-0.04224152719276628,0.0005429397726228412,0.0,0.737417601229976,-0.261534797540048,9.780374392620145
5090000000.0,21.65,-0.039111389354734336,-0.001746048843223541,0.0,0.775971494335715,-0.24878140226571402,9.84669009207
5095000000.0,21.65,-0.04351915120860346,-0.0004045458400037021,0.0,0.760961403107214,-0.26908859689278597,9.922619591714096
5100000000.0,21.65,-0.0447327887286146,-0.0017034628516350548,0.0,0.763218099061381,-0.290376198122762,9.835504712202047
5105000000.0,21.65,-0.0422095339448533,-0.005493641399114782,0.0,0.7729299991585,-0.23230000673200007,9.7247500092565
5110000000.0,21.65,-0.041538836197465,-0.0014052744821593383,0.0,0.790293798511238,-0.23877569776685698,9.671482402977524
5115000000.0,21.65,-0.043998211993843565,0.00491875159275713,0.0,0.75684100323631,-0.23769620064726202,9.813925987054759
5120000000.0,21.65,-0.04068706155746924,0.0047696141938410415,0.0,0.7679270983495711,-0.22798430055014302,9.970885491747856
5125000000.0,21.65,-0.04100653238269581,0.0010646076295383463,0.0,0.723486803171168,-0.22563,9.888478407248385
5130000000.0,21.65,-0.048642423757123285,0.0,0.0,0.72083899928819,-0.247408498932285,9.73308800569448
5135000000.0,21.65,-0.0534697649050469,-0.0007772059405376766,0.0,0.733101399741214,-0.29086699870606997,9.735248398447284
5140000000.0,21.65,-0.051265861844021106,-0.0010646508437165,0.0,0.73575,-0.353553098868331,9.835899598059996
5145000000.0,21.65,-0.049317583294973794,-0.0010646508437165,0.0,0.7775411996127121,-0.36581480006454803,9.945477199289972
5150000000.0,21.65,-0.04154396344480214,-0.004045716631101888,0.0,0.767141599869716,-0.328634499837145,9.935567399804574
5155000000.0,21.65,-0.03467178392156931,-0.00458863426963344,0.0,0.76890800025938,-0.26653699909217,9.76899199714682
5160000000.0,21.65,-0.0330216294477327,8.523733144638092e-05,0.0,0.7683190997731911,-0.258591800453618,9.682077299319573
5165000000.0,21.65,-0.03944157202612743,0.004269282546897976,0.0,0.778325600647856,-0.291161201295712,9.77782480518285
5170000000.0,21.65,-0.04190080658592367,0.007431295584356243,0.0,0.778325299578953,-0.278211198315812,9.946164607578847
5175000000.0,21.65,-0.04292290411218647,0.006441104877650122,0.0,0.7303537963728379,-0.271246600518166,9.980693597927337
5180000000.0,21.65,-0.04504208309004602,0.0005535420023374937,0.0,0.69376299876943,-0.31862950430699505,9.809997484617876
5185000000.0,21.65,-0.04177945134198387,-0.0054830064952654314,0.0,0.7114216028496161,-0.31244799643798,9.666086393588364
5190000000.0,21.65,-0.03544896772801574,-0.006132366978677021,0.0,0.7502692032380921,-0.282135398380954,9.67599610566666
5195000000.0,21.65,-0.038866661139682845,-0.0027254623554937053,0.0,0.7891168036265681,-0.27468,9.82177401813284
5200000000.0,21.65,-0.0413258841054313,0.0014905550277839461,0.0,0.798533898996239,-0.25113559598495594,9.945378808030087
5205000000.0,21.65,-0.03921787541379249,0.0025657975611715657,0.0,0.77145799559648,-0.23544,9.85522197688152
5210000000.0,21.65,-0.04204993449880064,0.005834352519918295,0.0,0.7667498023959981,-0.25819960479199605,9.674031679634016
5215000000.0,21.65,-0.04595646123393593,0.00791034477554851,0.0,0.735847390934174,-0.269088198704882,9.699050622017005
5220000000.0,21.65,-0.04388869230293304,0.003279047572009315,0.0,0.70632,-0.259376298607763,9.836684416706843
5225000000.0,21.65,-0.04329554313263352,-0.00234227591355801,0.0,0.717111202978712,-0.27124680446806804,9.893875601489356
5230000000.0,21.65,-0.04761682608977317,-0.0054084483358508885,0.0,0.7471300063459001,-0.32687001269180016,9.892992498413525
5235000000.0,21.65,-0.052330600170098336,-0.00469507711451341,0.0,0.759980598316406,-0.3889670084179701,9.815688376429684
5240000000.0,21.65,-0.05211758167579085,-0.0015330640770551756,0.0,0.7757752071228521,-0.42732390534213904,9.76644390534214
5245000000.0,21.65,-0.04844454727931419,0.0021719319472040615,0.0,0.79461,-0.44145,9.820595615022656
5250000000.0,21.65,-0.04101511550293773,0.0031939303970582875,0.0,0.7700844901252449,-0.39730408222544084,9.898290815799609
5255000000.0,21.65,-0.02993403122509791,0.0016076116964262404,0.0,0.74075299792793,-0.3098969813513698,9.88465297720723
5260000000.0,21.65,-0.027059640163548587,0.0005536073506068619,0.0,0.745167804338378,-0.269578902169189,9.806075489154056
5265000000.0,21.65,-0.0348316468687084,0.0015011909856375962,0.0,0.759980802266308,-0.28390160453261604,9.803624011331541
5270000000.0,21.65,-0.04440021802894908,0.0027042020338341587,0.0,0.751641892909719,-0.3078381070902811,9.84315810709028
5275000000.0,21.65,-0.050446157394255564,0.001171093688596453,0.0,0.73575,-0.3634614221449142,9.88112301230273
5280000000.0,21.65,-0.048915915785329646,-0.0018738300060846512,0.0,0.7443830051153301,-0.407703497442335,9.886517487211675
5285000000.0,21.65,-0.04152811170324626,-0.0042586033748661,0.0,0.75537,-0.3811179867260799,9.804210765487808
5290000000.0,21.65,-0.0337029167767834,-0.002917109857685332,0.0,0.7594903027519031,-0.3243178807366788,9.727399697248098
5295000000.0,21.65,-0.028326508065036712,-0.0015011688515462873,0.0,0.7692022028490221,-0.2684011886039119,9.753887622792176
5300000000.0,21.65,-0.03067947579867874,-0.0012775586675676685,0.0,0.7710658970538591,-0.24525,9.80019
5305000000.0,21.65,-0.03930998822293174,0.0016609000481422154,0.0,0.75752799391348,-0.26438001521630017,9.81549401217304
5310000000.0,21.65,-0.04702862840726641,0.0042586033748661,0.0,0.7492879031403791,-0.31293951570189515,9.831974193719242
5315000000.0,21.65,-0.0486149133797594,0.0038646713586247988,0.0,0.7444805902875059,-0.34335,9.823439803237498
5320000000.0,21.65,-0.045254912554721666,0.0020440959761170254,0.0,0.7118131866615319,-0.32922318666153183,9.811961483326915
5325000000.0,21.65,-0.0404741853537485,-0.0007452780408941159,0.0,0.6970008102952082,-0.3144108102952081,9.76340198284132
5330000000.0,21.65,-0.04119817039884837,-0.0032152792550828773,0.0,0.7361430211731302,-0.3435465105865651,9.761539531759695
5335000000.0,21.65,-0.04330617909048716,-0.005674600243235515,0.0,0.7847022108779221,-0.37268221087792214,9.839234421755844
5340000000.0,21.65,-0.04576047254702527,-0.004003008375009283,0.0,0.8075593037230931,-0.4143751260616513,9.894366518615465
5345000000.0,21.65,-0.04860430061000137,0.0020548099302922463,0.0,0.7990239808989399,-0.46411120382021204,9.915555184719151
5350000000.0,21.65,-0.047193601288425424,0.003300383781981719,0.0,0.7534075843306759,-0.4473351686613517,9.859048960826689
5355000000.0,21.65,-0.03707782499004074,-0.00017038928854084374,0.0,0.7344750120433501,-0.37532997591329975,9.7733099759133
5360000000.0,21.65,-0.02965736667836815,-0.0022996119256479507,0.0,0.75537,-0.34178071233470714,9.76173594522726
5365000000.0,21.65,-0.03339431379036658,-0.0005749340745401713,0.0,0.7633164126260641,-0.36297,9.863269237878193
5370000000.0,21.65,-0.037557053361971786,-0.0015756606086870717,0.0,0.782249295694193,-0.35786859138838595,9.92006788708258
5375000000.0,21.65,-0.039941927915170504,0.0010646961659033951,0.0,0.7651795823882959,-0.3605182308204823,9.886026977985368
5380000000.0,21.65,-0.045759087879053764,0.003236493200551192,0.0,0.73575,-0.4261470270002703,9.83982198199982
5385000000.0,21.65,-0.04729066363285762,-0.0012244052284080434,0.0,0.731237190805672,-0.45959797701417976,9.794205167819852
5390000000.0,21.65,-0.03872802162405115,-0.005557488766367178,0.0,0.7290798281656984,-0.4045635624457356,9.743488304694283
5395000000.0,21.65,-0.0287630260728665,-0.00504637676297502,0.0,0.7770502047914021,-0.3392295904171959,9.775862457496824
5400000000.0,21.65,-0.02918890917684699,0.0006388246559707245,0.0,0.7848,-0.3256921048885211,9.872784209777041
5405000000.0,21.65,-0.03170150797667207,0.0029916574770564677,0.0,0.78107199002872,-0.3298119900287199,9.87356796011488
5410000000.0,21.65,-0.036109173916145716,0.0025125987998250014,0.0,0.761648189834482,-0.31921771524827713,9.801170474586206
5415000000.0,21.65,-0.041925169066996865,0.003896599258268342,0.0,0.7405565844603659,-0.3550246362591464,9.76928902589939
5420000000.0,21.65,-0.04798391931948522,0.0017885905666295025,0.0,0.7176997052769971,-0.40731088416900885,9.814709115830992
5425000000.0,21.65,-0.04084668735363054,-0.0006388362500185235,0.0,0.72594,-0.37228876238118763,9.835015183877651
5430000000.0,21.65,-0.03163764058333716,-0.0042586033748661,0.0,0.7300605164137052,-0.315293505471235,9.811373505471236
5435000000.0,21.65,-0.038017259961965075,-0.003981771241445319,0.0,0.75537,-0.3390348668202487,9.818534594431647
5440000000.0,21.65,-0.050329035377343824,-0.002384840825059537,0.0,0.7577246113309462,-0.45086844532378445,9.800581554676215
5445000000.0,21.65,-0.051500059501653435,-0.003204495736620798,0.0,0.7803860288129604,-0.521009205762592,9.743391263388512
5450000000.0,21.65,-0.045067811336127465,0.0059621136566968365,0.0,0.8171722589820227,-0.5248344707014447,9.854146587895666
5455000000.0,21.65,-0.037099092689730676,0.010848688604784783,0.0,0.7491889583021896,-0.4709769344748693,9.975100922561209
5460000000.0,21.65,-0.024078504811876403,0.0015330166468595495,0.0,0.6882698121078982,-0.3649309394605094,9.840212254705222
5465000000.0,21.65,-0.02000107635202184,-0.005546865456565671,0.0,0.7097540307553403,-0.2767404184532042,9.632538479963884
5470000000.0,21.65,-0.031722905318896565,-0.008006082098288016,0.0,0.7571361187445612,-0.3129405937228059,9.760559299970993
5475000000.0,21.65,-0.0450531260836435,0.00021297633413365187,0.0,0.7857812126906122,-0.45076939365469393,9.914968488834283
5480000000.0,21.65,-0.05092515915525234,0.004130810617957225,0.0,0.8016724549030245,-0.44184250644242506,10.041122429133324
5485000000.0,21.65,-0.0458148928648511,0.0010966019314556687,0.0,0.735455593460456,-0.45390965885589657,9.929581023432311
5490000000.0,21.65,-0.045771934429595824,0.0020014741483807153,0.0,0.7255473867266738,-0.5397463066366631,9.67266
5495000000.0,21.65,-0.04348695032183436,-0.004269261466811026,0.0,0.7068110336689103,-0.5479851057270512,9.673249240402694
5500000000.0,21.65,-0.025569003977430078,-0.005323184654295876,0.0,0.7553706409854064,-0.41201914535279144,9.731522350279823
5505000000.0,21.65,-0.01924497790251351,0.0010008414206205919,0.0,0.8136420415681205,-0.33432394457583947,9.945184152416441
5510000000.0,21.65,-0.02648475457320832,0.0021080202856865607,0.0,0.7853882789245828,-0.33354,9.976181721075417
5515000000.0,21.65,-0.03696095382616318,6.385579928712111e-05,0.0,0.7277051572664516,-0.36208742136677424,9.815001278921613
5520000000.0,21.65,-0.042390615053478076,-0.0010220764461758179,0.0,0.7541931216581312,-0.41005853609688536,9.612228148393081
5525000000.0,21.65,-0.047677217601399466,0.0039924988976770765,0.0,0.75537,-0.4772572512154725,9.725144895114449
5530000000.0,21.65,-0.04192308756392268,0.0042586033748661,0.0,0.7369269851727699,-0.46224698517276985,9.943614670513147
5535000000.0,21.65,-0.029657192767651098,-0.0026723552925252587,0.0,0.726626592489266,-0.3789593324033933,9.920656369957063
5540000000.0,21.65,-0.0287630260728665,-0.005152933440324355,0.0,0.7530159228235592,-0.34570407717644075,9.737403847842938
5545000000.0,21.65,-0.04428041206772505,-0.0014478783918216772,0.0,0.7642972077049721,-0.45940370016463705,9.72171
5550000000.0,21.65,-0.05539686745278235,-0.0010646508437165,0.0,0.8004964312083643,-0.5591710780209108,9.81000107802091
5555000000.0,21.65,-0.04507525614895472,0.002725552999867457,0.0,0.7694959684031597,-0.5340559684031597,9.950775118488151
5560000000.0,21.65,-0.03429909325490929,0.0031939525311496,0.0,0.7565470920036709,-0.49520836801468365,9.906529644025696
5565000000.0,21.65,-0.029316597587325632,0.00041517863584434114,0.0,0.7212307676262077,-0.46489557571965573,9.778802686691726
5570000000.0,21.65,-0.02601619167125261,-0.005493668803227786,0.0,0.7330034163811342,-0.3767029180943292,9.70189304266603
5575000000.0,21.65,-0.021949213664486808,-0.004577975123684153,0.0,0.7857816497261165,-0.3462927834246278,9.767327474589175
5580000000.0,21.65,-0.034725247238006594,0.002895944396416943,0.0,0.786369491615195,-0.4010335586936356,9.928899150926492
5585000000.0,21.65,-0.04701511095704009,0.006025947321892659,0.0,0.7522303660723036,-0.4853016763373168,10.022289267855392
5590000000.0,21.65,-0.04638976896915227,0.0028958031598345702,0.0,0.7214270742628708,-0.5244429257371293,9.794300742628707
5595000000.0,21.65,-0.044938376526841586,-0.0021825932011620545,0.0,0.7558610433808105,-0.5774172520569725,9.669814121914541
5600000000.0,21.65,-0.03791892889003937,0.001064709867959846,0.0,0.7180913473603134,-0.5729037824534379,9.778609740372499
5605000000.0,21.65,-0.026122550195784886,-0.005440472149889923,0.0,0.7295700266112003,-0.47597989355519893,9.8952500975744
5610000000.0,21.65,-0.018457134950117863,-0.004130797969905101,0.0,0.7816614538051145,-0.37474091032480905,9.803131365487213
5615000000.0,21.65,-0.022790417694898313,-0.0007345735727579974,0.0,0.8097176181292762,-0.3456061909353619,9.73299095467681
5620000000.0,21.65,-0.033405034068567936,0.005664025417633862,0.0,0.8067742908382429,-0.425362800779328,9.811178509941085
5625000000.0,21.65,-0.04260358190157265,0.0074525559060157,0.0,0.7529167351878674,-0.45861760925887607,9.883575655553257
5630000000.0,21.65,-0.03921781428154037,0.0019375814589415443,0.0,0.7139714719320147,-0.4538104906440049,9.767618831592088
5635000000.0,21.65,-0.03650302582805678,0.0015544139890840446,0.0,0.7421270472655704,-0.4584214094531141,9.678741543281316
5640000000.0,21.65,-0.0369821424755272,0.0005961806941431984,0.0,0.7271167617990677,-0.4469433808995338,9.77586295280373
5645000000.0,21.65,-0.03198883483136413,-0.0037795699937390385,0.0,0.7091647903526479,-0.4135891614105916,9.81284479035265
5650000000.0,21.65,-0.032808746919985775,-0.004577986717731972,0.0,0.7612568779557688,-0.4296784389778844,9.796265780511058
5655000000.0,21.65,-0.04069786931803131,0.002352985651715933,0.0,0.7915690098415902,-0.509140098415901,9.83776306889113
5660000000.0,21.65,-0.04294416337984162,0.002427356198356905,0.0,0.7545845403677455,-0.5462209099387092,9.899075459632254
5665000000.0,21.65,-0.037610190991066245,-0.002501989192080032,0.0,0.7094587598566876,-0.5559328100358282,9.773308179211782
5670000000.0,21.65,-0.0351509311351657,-0.0028532403563416905,0.0,0.7483076810635768,-0.5591700000000001,9.663241739202318
5675000000.0,21.65,-0.033766861112435605,0.0006388383580272,0.0,0.7941198306901983,-0.5336635590797356,9.860034747822247
5680000000.0,21.65,-0.028251909853457012,0.0007665246604971431,0.0,0.7793059586912596,-0.4759804277097043,10.02699808261748
5685000000.0,21.65,-0.0255690735417169,-0.002012226046712484,0.0,0.7589995895756959,-0.4388991791513918,9.894559328968093
5690000000.0,21.65,-0.03150993320078026,-0.001213665978128482,0.0,0.7675346210428462,-0.49246310521423103,9.690708410614384
5695000000.0,21.65,-0.04165606803817386,0.005845041177989258,0.0,0.7749900000000001,-0.5776136849483369,9.755262633607925
5700000000.0,21.65,-0.04133280303920502,0.007026647505930971,0.0,0.7455594464216945,-0.5787894464216945,9.980696657175868
5705000000.0,21.65,-0.028922543306580235,-0.0003301499972583645,0.0,0.7317280108127802,-0.5070779026849791,9.953321772931618
5710000000.0,21.65,-0.021757611484482044,-0.0042586033748661,0.0,0.7414399109098991,-0.4538102672703027,9.73230213816242
5715000000.0,21.65,-0.023737922279603127,-0.0018311512621137318,0.0,0.7343763779859638,-0.4302663779859638,9.711705354098253
5720000000.0,21.65,-0.02914637272346275,-0.0023848661211638804,0.0,0.7589022666248227,-0.43831113331241134,9.787241133312412
5725000000.0,21.65,-0.03429925873359155,-0.0030874633100783757,0.0,0.7848,-0.4944248896100489,9.84335488961005
5730000000.0,21.65,-0.03736542904787578,0.0007453159850506195,0.0,0.7900975112983751,-0.5403350225967503,9.883967511298374
5735000000.0,21.65,-0.03495922144671769,0.004322506604348836,0.0,0.7582141202315412,-0.5181635316270353,9.82608706325407
5740000000.0,21.65,-0.030849717526611108,0.002555101525070246,0.0,0.7106360655221606,-0.47009475402954753,9.729949508059095
5745000000.0,21.65,-0.030913644998193747,-0.0016289521224160963,0.0,0.7165228463589285,-0.46126642317946426,9.687276788410268
5750000000.0,21.65,-0.033021653689832606,-0.0031939525311496,0.0,0.7504653350605534,-0.4757851116868511,9.72661600518166
5755000000.0,21.65,-0.03565135342648257,0.0004578847839282357,0.0,0.7555659764320598,-0.49511103535191037,9.857286212111463
5760000000.0,21.65,-0.0372802328225988,0.0022144251864101164,0.0,0.7502689118810891,-0.5007021762378218,9.94734
5765000000.0,21.65,-0.036279436724165025,0.0010007960984337245,0.0,0.7507591880217919,-0.4905,9.845902136479422
5770000000.0,21.65,-0.035640682686485486,0.0006600470334737778,0.0,0.7500727120753271,-0.5130635603766356,9.686392879246728
5775000000.0,21.65,-0.03717379208572758,-0.0005855457902938807,0.0,0.7641992243448923,-0.5395500000000001,9.686395346069352
5780000000.0,21.65,-0.03459721522211125,0.0,0.0,0.770673487730435,-0.5352334877304349,9.863369319008694
5785000000.0,21.65,-0.029369864858954625,0.0,0.0,0.7651800000000001,-0.5044295257998953,9.997763175266632
5790000000.0,21.65,-0.03189318499098541,0.0004471655597312546,0.0,0.7528190626085907,-0.503842499710425,9.895933125796331
5795000000.0,21.65,-0.037961658226218914,0.0006281317818823669,0.0,0.7317277874390778,-0.5855599130482992,9.742604512073544
5800000000.0,21.65,-0.04090005791768551,0.0,0.0,0.7337882253160822,-0.63765,9.77272402784474
5805000000.0,21.65,-0.03697134947102602,-0.0012456781981197089,0.0,0.7417339872448399,-0.6185199362241994,9.924582153061921
5810000000.0,21.65,-0.02659104037144074,-0.002384793394864025,0.0,0.7469337385568374,-0.5550487843294879,9.929287568658976
5815000000.0,21.65,-0.019340804815622392,-0.0026403831246991616,0.0,0.7651800000000001,-0.4966801870506019,9.787141683455417
5820000000.0,21.65,-0.0179036488100107,-0.003023534784491476,0.0,0.7757751391395514,-0.48343657390696576,9.752710278279103
5825000000.0,21.65,-0.025409510985816317,0.0018099309926193426,0.0,0.7808755474254555,-0.48461445257454455,9.828149744579997
5830000000.0,21.65,-0.03410761017739558,0.003917939684258198,0.0,0.7520344867592449,-0.5301330794445308,9.908296539722265
5835000000.0,21.65,-0.0362155819788823,0.004269212982611152,0.0,0.7390851733242517,-0.56898,9.888871039945512
5840000000.0,21.65,-0.03451207907508204,0.0011071999451528825,0.0,0.7322186268699863,-0.5783979403049795,9.772328238780084
5845000000.0,21.65,-0.028912003263122002,-0.0007345967608535823,0.0,0.7486012135321122,-0.5892863594036636,9.71965092178901
5850000000.0,21.65,-0.022587977188205464,-0.0012776303398632143,0.0,0.7435975454830754,-0.5483782045953821,9.80705802266308
5855000000.0,21.65,-0.018425278722769774,-0.0048761255490034775,0.0,0.7388901098108012,-0.4946199725472997,9.840409862736498
5860000000.0,21.65,-0.02186419978196169,-0.004599217527269826,0.0,0.7891161723530618,-0.47794308617653086,9.779000741470407
5865000000.0,21.65,-0.02962543034668982,0.0005749361825488629,0.0,0.7776388139205882,-0.4867728835235289,9.78694593039706
5870000000.0,21.65,-0.031126513823884143,0.004343874434451583,0.0,0.7720464299114643,-0.5220878579468786,9.774096426159364
5875000000.0,21.65,-0.02849685097738631,0.008250932577843605,0.0,0.7283921576555216,-0.49049954354069547,9.849240456459304
