#timestamp [ns], temperature [degC], w_RS_S_x [rad s^-1], w_RS_S_y [rad s^-1], w_RS_S_z [rad s^-1], a_RS_S_x [m s^-2], a_RS_S_y [m s^-2], a_RS_S_z [m s^-2]
0.0,22.35,0.0,0.0,0.0,-0.30411,-0.25506,9.81981
5000000.0,22.35,0.0,0.0,0.0,-0.28468619980576204,-0.25506,9.82952190009712
10000000.0,22.35,0.0,0.0,0.0,-0.303717600388476,-0.264673800194238,9.82962
15000000.0,22.35,0.0,0.0,0.0,-0.313625700291357,-0.24583859941728597,9.82962
20000000.0,22.35,0.0,0.0,0.0,-0.304502399611524,-0.264085200776952,9.848455200776952
25000000.0,22.35,0.0,0.0,0.0,-0.30411,-0.22759199805761998,9.858559500485596
30000000.0,22.35,0.0,0.0,0.0,-0.28566719883457203,-0.244072801165428,9.822164397669145
35000000.0,22.35,0.0,0.0,0.0,-0.33010650339916503,-0.236126699320167,9.810686699320167
40000000.0,22.35,0.0,0.0,0.0,-0.30646439766914396,-0.262515602330856,9.828050401553904
45000000.0,22.35,0.0,0.0,0.0,-0.313037100874071,-0.23808869737778698,9.838547100874072
50000000.0,22.35,0.0,0.0,0.0,-0.30509099902881,-0.25309800194238,9.83060099902881
55000000.0,22.35,0.0,0.0,0.0,-0.30411,-0.25506,9.83835090106831
60000000.0,22.35,0.0,0.0,0.0,-0.295477198834572,-0.25506,9.830797198834572
65000000.0,22.35,0.0,0.0,0.0,-0.2943,-0.263594701262547,9.812550597474907
70000000.0,22.35,0.0,0.0,0.0,-0.2943,-0.24799679728066798,9.81
75000000.0,22.35,0.0,0.0,0.0,-0.31097700291357,-0.253588501456785,9.818338501456786
80000000.0,22.35,0.0,0.0,0.0,-0.28919879533828796,-0.263300401553904,9.836290803107808
85000000.0,22.35,0.0,0.0,0.0,-0.30077460330204603,-0.23230079339590792,9.847572301651024
90000000.0,22.35,0.0,0.0,0.0,-0.29606579825185797,-0.26585100874071005,9.833151596503717
95000000.0,22.35,0.0,0.0,0.0,-0.2943,-0.25878779630947796,9.82962
100000000.0,22.35,0.0,0.0,0.0,-0.2943,-0.26290800194238,9.82962
105000000.0,22.35,0.0,0.0,0.0,-0.302049902039499,-0.24937019592100196,9.814120195921003
110000000.0,22.35,0.0,0.0,0.0,-0.28115459359014594,-0.24525,9.817651802136618
115000000.0,22.35,0.0,0.0,0.0,-0.29734110670121106,-0.26791110670121104,9.812256297766263
120000000.0,22.35,0.0,0.0,0.0,-0.30411,-0.26722439766914396,9.824911204661712
125000000.0,22.35,0.0,0.0,0.0,-0.30411,-0.24279749271607493,9.82962
130000000.0,22.35,0.0,0.0,0.0,-0.2750723898996239,-0.23544,9.822360597474907
135000000.0,22.35,0.0,0.0,0.0,-0.2935152104888521,-0.24976260524442606,9.81981
140000000.0,22.35,0.0,0.0,0.0,-0.28998359456133593,-0.24799679728066798,9.826873202719332
145000000.0,22.35,0.0,0.0,0.0,-0.3053853084493531,-0.24525,9.82962
150000000.0,22.35,0.0,0.0,0.0,-0.2933189912592899,-0.25898400582714004,9.83648700291357
155000000.0,22.35,0.0,0.0,0.0,-0.291258903010689,-0.26487,9.819123290967934
160000000.0,22.35,0.0,0.0,0.0,-0.30097080310780805,-0.25819919689219195,9.823341606215616
165000000.0,22.35,0.0,0.0,0.0,-0.30411,-0.26163270320492704,9.836192703204928
170000000.0,22.35,0.0,0.0,0.0,-0.30411,-0.25839539669795397,9.845904603302046
175000000.0,22.35,0.0,0.0,0.0,-0.30411,-0.25506,9.836486993201671
180000000.0,22.35,0.0,0.0,0.0,-0.310388403496284,-0.24878159650371598,9.835898403496284
185000000.0,22.35,0.0,0.0,0.0,-0.2953790892197909,-0.2637909107802091,9.83943
190000000.0,22.35,0.0,0.0,0.0,-0.29057220369052206,-0.2625155926189559,9.821183388928434
195000000.0,22.35,0.0,0.0,0.0,-0.30028410378764103,-0.25506,9.827952311362923
200000000.0,22.35,0.0,0.0,0.0,-0.30411,-0.23740198834571988,9.83943
205000000.0,22.35,0.0,0.0,0.0,-0.3156858079637581,-0.24878161592751616,9.810490480090605
210000000.0,22.35,0.0,0.0,0.0,-0.30097078368400787,-0.2762496081579961,9.81882902039499
215000000.0,22.35,0.0,0.0,0.0,-0.3068568167044682,-0.26212318329553186,9.833838295823883
220000000.0,22.35,0.0,0.0,0.0,-0.30724918718029187,-0.2562372085464721,9.835113604273236
225000000.0,22.35,0.0,0.0,0.0,-0.2943,-0.26487,9.834034495629645
230000000.0,22.35,0.0,0.0,0.0,-0.2943,-0.24368038213010382,9.82962
235000000.0,22.35,0.0,0.0,0.0,-0.2943,-0.2464272182583722,9.82962
240000000.0,22.35,0.0,0.0,0.0,-0.29940120466171205,-0.25976879533828795,9.844923613985136
245000000.0,22.35,0.0,0.0,0.0,-0.30411,-0.25506,9.839037580964677
250000000.0,22.35,0.0,0.0,0.0,-0.30901500485595,-0.2452499902880999,9.8296200097119
255000000.0,22.35,0.0,0.0,0.0,-0.2994992851407928,-0.24024690495306905,9.83943
260000000.0,22.35,0.0,0.0,0.0,-0.29861641515056414,-0.24054119494981197,9.834721194949813
265000000.0,22.35,0.0,0.0,0.0,-0.31392,-0.24005070514730706,9.825009294852693
270000000.0,22.35,0.0,0.0,0.0,-0.30940739475557394,-0.24525,9.828835210488853
275000000.0,22.35,0.0,0.0,0.0,-0.2952809893169099,-0.24966450534154505,9.84825901068309
280000000.0,22.35,0.0,0.0,0.0,-0.2974392163159922,-0.2593764054386641,9.850417189122672
285000000.0,22.35,0.0,0.0,0.0,-0.30126508339265085,-0.26487,9.830993388928434
290000000.0,22.35,0.0,0.0,0.0,-0.2886102056329021,-0.2731104112658041,9.823930205632902
295000000.0,22.35,0.0,0.0,0.0,-0.3023442114600421,-0.27242368280993684,9.825597894269979
300000000.0,22.35,0.0,0.0,0.0,-0.30607198834571986,-0.24328798251857983,9.815885994172861
305000000.0,22.35,0.0,0.0,0.0,-0.2981259059242591,-0.2447595296212953,9.817651811848519
310000000.0,22.35,0.0,0.0,0.0,-0.30783780602137806,-0.2709521939786219,9.825892193978623
315000000.0,22.35,0.0,0.0,0.0,-0.3030308816445088,-0.25035117552601177,9.827069412236995
320000000.0,22.35,0.0,0.0,0.0,-0.28449,-0.23269321243123212,9.83943
325000000.0,22.35,0.0,0.0,0.0,-0.29135701262547015,-0.23838298737452987,9.82569597474906
330000000.0,22.35,0.0,0.0,0.0,-0.30411,-0.23563621922956218,9.813531625639417
335000000.0,22.35,0.0,0.0,0.0,-0.2943980804790808,-0.2582973065069731,9.836192693493027
340000000.0,22.35,0.0,0.0,0.0,-0.2872368264163682,-0.26173079339590793,9.826480793395909
345000000.0,22.35,0.0,0.0,0.0,-0.3017555731951557,-0.25506,9.825892213402422
350000000.0,22.35,0.0,0.0,0.0,-0.2805660135966601,-0.2521169932016699,9.836486993201671
355000000.0,22.35,0.0,0.0,0.0,-0.2971449068954491,-0.2537847206863472,9.835309813790898
360000000.0,22.35,0.0,0.0,0.0,-0.30685680699256807,-0.26918638601486383,9.843746386014864
365000000.0,22.35,0.0,0.0,0.0,-0.30862258582062585,-0.24976258582062585,9.832268707089687
370000000.0,22.35,0.0,0.0,0.0,-0.29685060718680606,-0.24309182156041823,9.836879392813193
375000000.0,22.35,0.0,0.0,0.0,-0.31637253641962537,-0.25996498543214985,9.832072507283925
380000000.0,22.35,0.0,0.0,0.0,-0.33903355571373556,-0.24525,9.83943
385000000.0,22.35,0.0,0.0,0.0,-0.29204369252183693,-0.24976261495632615,9.834917385043674
390000000.0,22.35,0.0,0.0,0.0,-0.28880641515056416,-0.26702820757528206,9.821968207575283
395000000.0,22.35,0.0,0.0,0.0,-0.30411,-0.26849967698279675,9.831680107672401
400000000.0,22.35,0.0,0.0,0.0,-0.30018598446095984,-0.24721200776952007,9.83550598446096
405000000.0,22.35,0.0,0.0,0.0,-0.28821781573327815,-0.25506,9.823537815733278
410000000.0,22.35,0.0,0.0,0.0,-0.3023441920362419,-0.24976257610872576,9.835898384072484
415000000.0,22.35,0.0,0.0,0.0,-0.29096458387824586,-0.22896541612175417,9.821477708060877
420000000.0,22.35,0.0,0.0,0.0,-0.27624960815799604,-0.24838921631599215,9.831189608157997
425000000.0,22.35,0.0,0.0,0.0,-0.2859615082551151,-0.2633984917448849,9.83943
430000000.0,22.35,0.0,0.0,0.0,-0.2943,-0.25780681670446814,9.83943
435000000.0,22.35,0.0,0.0,0.0,-0.29174938310129384,-0.26957876620258764,9.838154691550647
440000000.0,22.35,0.0,0.0,0.0,-0.27821162563941626,-0.23897162563941626,9.830797208546473
445000000.0,22.35,0.0,0.0,0.0,-0.30411,-0.2627117827128178,9.841588217287182
450000000.0,22.35,0.0,0.0,0.0,-0.30018596503715966,-0.24721201748142016,9.855125965037159
455000000.0,22.35,0.0,0.0,0.0,-0.27016745302697454,-0.26487,9.81981
460000000.0,22.35,0.0,0.0,0.0,-0.32137557319515575,-0.2640851910650519,9.820594808934949
465000000.0,22.35,0.0,0.0,0.0,-0.2963601270962013,-0.25437329096793293,9.828933290967933
470000000.0,22.35,0.0,0.0,0.0,-0.32137556348325563,-0.24525,9.819221390870814
475000000.0,22.35,0.0,0.0,0.0,-0.28498050922630513,-0.24623101845261017,9.810490509226305
480000000.0,22.35,0.0,0.0,0.0,-0.2943,-0.2640851813531518,9.819417590676576
485000000.0,22.35,0.0,0.0,0.0,-0.2945943094205431,-0.2455443094205431,9.810588618841086
490000000.0,22.35,0.0,0.0,0.0,-0.30411,-0.2554524190353242,9.82962
495000000.0,22.35,0.0,0.0,0.0,-0.3040118903852189,-0.2745818903852189,9.829816219229562
500000000.0,22.35,0.0,0.0,0.0,-0.2943000097119001,-0.2648700097119001,9.8492399902881
505000000.0,22.35,0.0,0.0,0.0,-0.3040119098090191,-0.2745819098090191,9.839528090190981
510000000.0,22.35,0.0,0.0,0.0,-0.2944961900938619,-0.2458385702815857,9.810588570281586
515000000.0,22.35,0.0,0.0,0.0,-0.31333142000651415,-0.2357342899967429,9.81
520000000.0,22.35,0.0,0.0,0.0,-0.3045023898996239,-0.2731104404015044,9.81
525000000.0,22.35,0.0,0.0,0.0,-0.27615146940751467,-0.2467214694075147,9.82863902039499
530000000.0,22.35,0.0,0.0,0.0,-0.3300084617676846,-0.2544714102946141,9.811177179410773
535000000.0,22.35,0.0,0.0,0.0,-0.3152933792165338,-0.25506,9.8373699311752
540000000.0,22.35,0.0,0.0,0.0,-0.3229452104888521,-0.24603478951114788,9.830404789511148
545000000.0,22.35,0.0,0.0,0.0,-0.3148028894140289,-0.2363228894140289,9.82962
550000000.0,22.35,0.0,0.0,0.0,-0.30509098931690987,-0.2530980213661802,9.81196197863382
555000000.0,22.35,0.0,0.0,0.0,-0.2953790892197909,-0.2375981784395818,9.818730910780209
560000000.0,22.35,0.0,0.0,0.0,-0.3115656217546562,-0.2613384326319843,9.837075621754657
565000000.0,22.35,0.0,0.0,0.0,-0.29685057805110576,-0.23926586707665867,9.830895289025554
570000000.0,22.35,0.0,0.0,0.0,-0.2943,-0.23544,9.846493222143133
575000000.0,22.35,0.0,0.0,0.0,-0.2776229776626298,-0.2521170223373702,9.824224466493945
580000000.0,22.35,0.0,0.0,0.0,-0.29116082253160824,-0.23857917746839177,9.81981
585000000.0,22.35,0.0,0.0,0.0,-0.3024423113629231,-0.27615155681461556,9.827952311362923
590000000.0,22.35,0.0,0.0,0.0,-0.32019842292008427,-0.2523131541598315,9.82962
595000000.0,22.35,0.0,0.0,0.0,-0.29194555377135556,-0.2373038884428389,9.789889442214195
600000000.0,22.35,0.0,0.0,0.0,-0.29233801165428014,-0.2511360233085602,9.8198100582714
605000000.0,22.35,0.0,0.0,0.0,-0.3020499117513991,-0.2628099117513991,9.82962
610000000.0,22.35,0.0,0.0,0.0,-0.2888063763029638,-0.26487,9.837271811848519
615000000.0,22.35,0.0,0.0,0.0,-0.2769362880543629,-0.24976257610872576,9.83943
620000000.0,22.35,0.0,0.0,0.0,-0.28959122408551224,-0.26016122408551223,9.817063163871731
625000000.0,22.35,0.0,0.0,0.0,-0.2943,-0.2575124878601249,9.832072536419625
630000000.0,22.35,0.0,0.0,0.0,-0.2943,-0.24780058776300587,9.817651763289017
635000000.0,22.35,0.0,0.0,0.0,-0.27997737533177375,-0.2524113123341131,9.817161312334113
640000000.0,22.35,0.0,0.0,0.0,-0.2817432124312321,-0.26918642486246425,9.81981
645000000.0,22.35,0.0,0.0,0.0,-0.29842022505670224,-0.2537846624149466,9.847670450113405
650000000.0,22.35,0.0,0.0,0.0,-0.29724298737452987,-0.25211701262547015,9.83158194949812
655000000.0,22.35,0.0,0.0,0.0,-0.2875310872774109,-0.2347532618322326,9.826578912722589
660000000.0,22.35,0.0,0.0,0.0,-0.2911608128197081,-0.25898406409854063,9.836290812819708
665000000.0,22.35,0.0,0.0,0.0,-0.3205908516673085,-0.26153457416634573,9.832857287083174
670000000.0,22.35,0.0,0.0,0.0,-0.30116693493026936,-0.25506,9.836094613013946
675000000.0,22.35,0.0,0.0,0.0,-0.28449,-0.26143651311106514,9.833053486888936
680000000.0,22.35,0.0,0.0,0.0,-0.3033252396245524,-0.2460347603754476,9.848455239624553
685000000.0,22.35,0.0,0.0,0.0,-0.30773968669469687,-0.23544,9.828148433473485
690000000.0,22.35,0.0,0.0,0.0,-0.29194557319515574,-0.2536866402072664,9.822164426804845
695000000.0,22.35,0.0,0.0,0.0,-0.30842645399816454,-0.26487,9.82363588650046
700000000.0,22.35,0.0,0.0,0.0,-0.31195797280667975,-0.2530979728066797,9.82569601359666
705000000.0,22.35,0.0,0.0,0.0,-0.29832208630622087,-0.23946208630622087,9.835407913693778
710000000.0,22.35,0.0,0.0,0.0,-0.2999898137908981,-0.2468196275817963,9.828050372418204
715000000.0,22.35,0.0,0.0,0.0,-0.2873348583359486,-0.24387657222396572,9.830993427776034
720000000.0,22.35,0.0,0.0,0.0,-0.3021480699256807,-0.2629080699256807,9.828442772029728
725000000.0,22.35,0.0,0.0,0.0,-0.31293897183548974,-0.2790944859177449,9.825205514082256
730000000.0,22.35,0.0,0.0,0.0,-0.30411,-0.26938258582062585,9.824322585820626
735000000.0,22.35,0.0,0.0,0.0,-0.30411,-0.2700693142764931,9.830208628552986
740000000.0,22.35,0.0,0.0,0.0,-0.28880635687916356,-0.2695787856263878,9.824126356879164
745000000.0,22.35,0.0,0.0,0.0,-0.28968934341219343,-0.25986688552926884,9.830012457882924
750000000.0,22.35,0.0,0.0,0.0,-0.30411,-0.24524997086429973,9.8394299708643
755000000.0,22.35,0.0,0.0,0.0,-0.29449617067006173,-0.24986074399490743,9.83442691466497
760000000.0,22.35,0.0,0.0,0.0,-0.29861644428626444,-0.2601611852379119,9.83943
765000000.0,22.35,0.0,0.0,0.0,-0.31853071485920714,-0.25506,9.834819285140792
770000000.0,22.35,0.0,0.0,0.0,-0.31921738504367386,-0.25506,9.82962
775000000.0,22.35,0.0,0.0,0.0,-0.3183345150534451,-0.24623096989310972,9.825205484946554
780000000.0,22.35,0.0,0.0,0.0,-0.3150971696988717,-0.23975641515056414,9.824126415150564
785000000.0,22.35,0.0,0.0,0.0,-0.30411,-0.26212326099073263,9.825401684752316
790000000.0,22.35,0.0,0.0,0.0,-0.2999897846551978,-0.2762495693103957,9.823930215344802
795000000.0,22.35,0.0,0.0,0.0,-0.29027788455807885,-0.26084788455807884,9.825597884558078
800000000.0,22.35,0.0,0.0,0.0,-0.28449,-0.25506,9.81981
805000000.0,22.35,0.0,0.0,0.0,-0.2921418312723183,-0.25506,9.82363591563616
810000000.0,22.35,0.0,0.0,0.0,-0.3078378157332781,-0.25506,9.833347815733278
815000000.0,22.35,0.0,0.0,0.0,-0.3030308525088085,-0.2478005683392057,9.835800284169602
820000000.0,22.35,0.0,0.0,0.0,-0.2880216159275162,-0.23544,9.826088384072484
825000000.0,22.35,0.0,0.0,0.0,-0.29086648397536485,-0.23887351602463516,9.82667703204927
830000000.0,22.35,0.0,0.0,0.0,-0.2811545838782458,-0.2519208322435083,9.832759167756493
835000000.0,22.35,0.0,0.0,0.0,-0.2876292648754926,-0.2551580513433805,9.826284632437746
840000000.0,22.35,0.0,0.0,0.0,-0.3045023510520235,-0.2511360815799608,9.833151567368017
845000000.0,22.35,0.0,0.0,0.0,-0.28449,-0.2753666507606665,9.828933349239334
850000000.0,22.35,0.0,0.0,0.0,-0.28154698348976986,-0.25506,9.84335396697954
855000000.0,22.35,0.0,0.0,0.0,-0.27468,-0.26074983321469836,9.82962
860000000.0,22.35,0.0,0.0,0.0,-0.2801736334089363,-0.26643954988659546,9.832366816704468
865000000.0,22.35,0.0,0.0,0.0,-0.2943,-0.2531961504047615,9.836781283198412
870000000.0,22.35,0.0,0.0,0.0,-0.29174938310129384,-0.2721293831012938,9.827069383101295
875000000.0,22.35,0.0,0.0,0.0,-0.2795849660083497,-0.2599649660083497,9.81981
880000000.0,22.35,0.0,0.0,0.0,-0.27428766837177665,-0.24760441709294417,9.817455582907057
885000000.0,22.35,0.0,0.0,0.0,-0.2928284140496841,-0.2573163171900632,9.81676895157019
890000000.0,22.35,0.0,0.0,0.0,-0.26800930372309306,-0.2627117827128178,9.83943
895000000.0,22.35,0.0,0.0,0.0,-0.3118598826156988,-0.25093976523139766,9.837369882615699
900000000.0,22.35,0.0,0.0,0.0,-0.29822394755573944,-0.23740201748142017,9.82765798251858
905000000.0,22.35,0.0,0.0,0.0,-0.2802717527356175,-0.24525,9.81981
910000000.0,22.35,0.0,0.0,0.0,-0.3058758176756582,-0.24525,9.823341635351317
915000000.0,22.35,0.0,0.0,0.0,-0.3122522822272228,-0.24525,9.837762282227223
920000000.0,22.35,0.0,0.0,0.0,-0.30411,-0.24368038213010382,9.82962
925000000.0,22.35,0.0,0.0,0.0,-0.3026384820329848,-0.23691151796701518,9.831091517967016
930000000.0,22.35,0.0,0.0,0.0,-0.29567341806413416,-0.24799683612826837,9.835309745807598
935000000.0,22.35,0.0,0.0,0.0,-0.30155936367749364,-0.2597687273549873,9.812550636322507
940000000.0,22.35,0.0,0.0,0.0,-0.28449,-0.2268072182583722,9.830797218258372
945000000.0,22.35,0.0,0.0,0.0,-0.2866482367109824,-0.2365191183554912,9.838350881644509
950000000.0,22.35,0.0,0.0,0.0,-0.30411,-0.24525,9.82962
955000000.0,22.35,0.0,0.0,0.0,-0.30146124435081245,-0.2443670814502708,9.83050291854973
960000000.0,22.35,0.0,0.0,0.0,-0.27703445594054454,-0.2362248186468482,9.83943
965000000.0,22.35,0.0,0.0,0.0,-0.3054834374879344,-0.2459367187439672,9.838056562512065
970000000.0,22.35,0.0,0.0,0.0,-0.32255276231782765,-0.2544713811589138,9.821575856523259
975000000.0,22.35,0.0,0.0,0.0,-0.30411,-0.24623103787641037,9.847768443185384
980000000.0,22.35,0.0,0.0,0.0,-0.30411,-0.26447758096467583,9.81981
985000000.0,22.35,0.0,0.0,0.0,-0.3044043191324432,-0.2553543191324432,9.820398638264887
990000000.0,22.35,0.0,0.0,0.0,-0.31392,-0.26487,9.83943
995000000.0,22.35,0.0,0.0,0.0,-0.3138218806733188,-0.26447752269327524,9.839528119326681
1000000000.0,22.35,0.0,0.0,0.0,-0.30411,-0.22563003884760038,9.849239922304799
1005000000.0,22.35,0.0,0.0,0.0,-0.30411,-0.2450538390418384,9.810392321916323
1010000000.0,22.35,0.0,0.0,0.0,-0.2944961803819618,-0.26447763923607637,9.838841458854114
1015000000.0,22.35,0.0,0.0,0.0,-0.3133314394303144,-0.2458385605696856,9.810882840854529
1020000000.0,22.35,0.0,0.0,0.0,-0.2950847603754476,-0.2546676198122762,9.847670479249105
1025000000.0,22.35,0.0,0.0,0.0,-0.28498048009060484,-0.24574048009060478,9.81196192036242
1030000000.0,22.35,0.0,0.0,0.0,-0.28449,-0.2544714200065142,9.837664260019542
1035000000.0,22.35,0.0,0.0,0.0,-0.2936133201036332,-0.2368133597927336,9.83943
1040000000.0,22.35,0.0,0.0,0.0,-0.2943,-0.2534904404015044,9.83943
1045000000.0,22.35,0.0,0.0,0.0,-0.3032271202978712,-0.2639871202978712,9.812648639106387
1050000000.0,22.35,0.0,0.0,0.0,-0.31293902039499016,-0.2472119592100196,9.83648706118497
1055000000.0,22.35,0.0,0.0,0.0,-0.2877272385236724,-0.24525,9.821968159015782
1060000000.0,22.35,0.0,0.0,0.0,-0.2672243588215436,-0.25388282058922823,9.811177179410773
1065000000.0,22.35,0.0,0.0,0.0,-0.30754360343173603,-0.24652527931365278,9.835604162059042
1070000000.0,22.35,0.0,0.0,0.0,-0.3054833792165338,-0.24525,9.822556758433068
1075000000.0,22.35,0.0,0.0,0.0,-0.30411,-0.2535885208805852,9.81981
1080000000.0,22.35,0.0,0.0,0.0,-0.29586957902229577,-0.26330042097770423,9.81981
1085000000.0,22.35,0.0,0.0,0.0,-0.3024423210748232,-0.24044303677553036,9.836094642149646
1090000000.0,22.35,0.0,0.0,0.0,-0.2880215576561156,-0.25957266351582664,9.83943
1095000000.0,22.35,0.0,0.0,0.0,-0.3003822425381224,-0.2569238787309388,9.831483878730939
1100000000.0,22.35,0.0,0.0,0.0,-0.2962619786338198,-0.25506,9.82962
1105000000.0,22.35,0.0,0.0,0.0,-0.30204992146329923,-0.23181023561010236,9.8373699214633
1110000000.0,22.35,0.0,0.0,0.0,-0.28115453531874535,-0.24858546468125464,9.831778178439581
1115000000.0,22.35,0.0,0.0,0.0,-0.28223372165753724,-0.25506,9.837173721657537
1120000000.0,22.35,0.0,0.0,0.0,-0.28449,-0.25506,9.846885621754657
1125000000.0,22.35,0.0,0.0,0.0,-0.28449,-0.24034495629644959,9.827167434444675
1130000000.0,22.35,0.0,0.0,0.0,-0.30626826584668265,-0.24995884389778844,9.81981
1135000000.0,22.35,0.0,0.0,0.0,-0.29959735590797354,-0.25506,9.826971322046013
1140000000.0,22.35,0.0,0.0,0.0,-0.2731103335706033,-0.2621232221431322,9.843746444286264
1145000000.0,22.35,0.0,0.0,0.0,-0.2996956112012561,-0.25093975551949754,9.835309755519498
1150000000.0,22.35,0.0,0.0,0.0,-0.31392,-0.22464893298788935,9.84335404467474
1155000000.0,22.35,0.0,0.0,0.0,-0.29361323269653233,-0.23612676730346768,9.856008922434489
1160000000.0,22.35,0.0,0.0,0.0,-0.29783164506321647,-0.26526246759482464,9.852379177468391
1165000000.0,22.35,0.0,0.0,0.0,-0.31725544525745447,-0.2483891094850911,9.842667277371273
1170000000.0,22.35,0.0,0.0,0.0,-0.31078075454830756,-0.23544,9.820006131822462
1175000000.0,22.35,0.0,0.0,0.0,-0.29135695435406955,-0.25456956846889567,9.803623477177036
1180000000.0,22.35,0.0,0.0,0.0,-0.29076842292008426,-0.27114842292008423,9.819025268760253
1185000000.0,22.35,0.0,0.0,0.0,-0.30666064603440646,-0.2623193539655935,9.835800323017203
1190000000.0,22.35,0.0,0.0,0.0,-0.28959110754271106,-0.24289555377135555,9.821183330657034
1195000000.0,22.35,0.0,0.0,0.0,-0.3046006160572062,-0.2593764928457649,9.827952369634325
1200000000.0,22.35,0.0,0.0,0.0,-0.31784397669143977,-0.26879397669143973,9.84531602330856
1205000000.0,22.35,0.0,0.0,0.0,-0.290768306377283,-0.2475062297829623,9.837664153188642
1210000000.0,22.35,0.0,0.0,0.0,-0.27468,-0.22975017649720178,9.82962
1215000000.0,22.35,0.0,0.0,0.0,-0.2914551707997517,-0.25358861799958615,9.824028276400083
1220000000.0,22.35,0.0,0.0,0.0,-0.30411,-0.24721188151481882,9.830797247394072
1225000000.0,22.35,0.0,0.0,0.0,-0.30411,-0.23642104758831048,9.844825523794155
1230000000.0,22.35,0.0,0.0,0.0,-0.28821772832617726,-0.26643969556509695,9.843942576108725
1235000000.0,22.35,0.0,0.0,0.0,-0.2954772959535729,-0.27409135202321355,9.83943
1240000000.0,22.35,0.0,0.0,0.0,-0.30881877591448775,-0.25976877591448777,9.824126327743464
1245000000.0,22.35,0.0,0.0,0.0,-0.2991068758173688,-0.24005062745210629,9.830012496730525
1250000000.0,22.35,0.0,0.0,0.0,-0.2943,-0.24525009711900098,9.839429951440499
1255000000.0,22.35,0.0,0.0,0.0,-0.3039138487537385,-0.26967692437686924,9.820006151246261
1260000000.0,22.35,0.0,0.0,0.0,-0.295084702104047,-0.26997117552601174,9.824126473421964
1265000000.0,22.35,0.0,0.0,0.0,-0.2839014491422145,-0.25103782628667826,9.83943
1270000000.0,22.35,0.0,0.0,0.0,-0.28076212599532124,-0.2444652493364525,9.83943
1275000000.0,22.35,0.0,0.0,0.0,-0.26928452476534526,-0.26830357429603574,9.835015475234655
1280000000.0,22.35,0.0,0.0,0.0,-0.291945699449857,-0.267224300550143,9.82962
1285000000.0,22.35,0.0,0.0,0.0,-0.3054833500808335,-0.23681335008083348,9.825401675040418
1290000000.0,22.35,0.0,0.0,0.0,-0.2943,-0.22975022505670226,9.81981
1295000000.0,22.35,0.0,0.0,0.0,-0.2943,-0.2434842503076425,9.823832125153821
1300000000.0,22.35,0.0,0.0,0.0,-0.2982240252509403,-0.25113597474905974,9.841392075752822
1305000000.0,22.35,0.0,0.0,0.0,-0.30411,-0.23759814930388148,9.843746298607764
1310000000.0,22.35,0.0,0.0,0.0,-0.2966543491096435,-0.23681347633553476,9.81981
1315000000.0,22.35,0.0,0.0,0.0,-0.29174945108459455,-0.25868972554229724,9.81981
1320000000.0,22.35,0.0,0.0,0.0,-0.3076416256394162,-0.2578067487211675,9.823341625639417
1325000000.0,22.35,0.0,0.0,0.0,-0.2967523713173237,-0.24181647426346475,9.82962
1330000000.0,22.35,0.0,0.0,0.0,-0.2748762775009628,-0.2454462775009628,9.82962
1335000000.0,22.35,0.0,0.0,0.0,-0.29753732593077326,-0.25515802220768025,9.82962
1340000000.0,22.35,0.0,0.0,0.0,-0.30411,-0.23544,9.832759226027893
1345000000.0,22.35,0.0,0.0,0.0,-0.3010688738749887,-0.24152225225002252,9.84247112612501
1350000000.0,22.35,0.0,0.0,0.0,-0.29135697377786973,-0.25211697377786974,9.84335394755574
1355000000.0,22.35,0.0,0.0,0.0,-0.29017985263849855,-0.24240507368075073,9.82962
1360000000.0,22.35,0.0,0.0,0.0,-0.2958695207508952,-0.2436804792491048,9.832366826416369
1365000000.0,22.35,0.0,0.0,0.0,-0.2799774530269745,-0.26222127348651275,9.834132546973025
1370000000.0,22.35,0.0,0.0,0.0,-0.2943,-0.25506,9.81981
1375000000.0,22.35,0.0,0.0,0.0,-0.2967525267077253,-0.25260747329227473,9.822262526707725
1380000000.0,22.35,0.0,0.0,0.0,-0.30646442680484426,-0.24525,9.82962
1385000000.0,22.35,0.0,0.0,0.0,-0.31617632690196323,-0.24073734619607345,9.827363673098038
1390000000.0,22.35,0.0,0.0,0.0,-0.31941354600183547,-0.22994645399816455,9.81981
1395000000.0,22.35,0.0,0.0,0.0,-0.3020498729037987,-0.2514303812886038,9.825990381288603
1400000000.0,22.35,0.0,0.0,0.0,-0.2943,-0.2727179728066797,9.84727797280668
1405000000.0,22.35,0.0,0.0,0.0,-0.2887082181286822,-0.2574142908382429,9.831974290838243
1410000000.0,22.35,0.0,0.0,0.0,-0.27016748216267483,-0.23092748216267484,9.803721654775117
1415000000.0,22.35,0.0,0.0,0.0,-0.2943,-0.25506,9.81981
1420000000.0,22.35,0.0,0.0,0.0,-0.29743925516359254,-0.2503511172546112,9.81981
1425000000.0,22.35,0.0,0.0,0.0,-0.3095054169632542,-0.23004458303674583,9.82275305535783
1430000000.0,22.35,0.0,0.0,0.0,-0.28861028332810285,-0.2564334277760343,9.833936288895863
1435000000.0,22.35,0.0,0.0,0.0,-0.3126446721268467,-0.26359467212684673,9.802740655746307
1440000000.0,22.35,0.0,0.0,0.0,-0.3005783160891832,-0.25270554405945544,9.822164455940545
1445000000.0,22.35,0.0,0.0,0.0,-0.2779173842021738,-0.23975651226956513,9.840509128067392
1450000000.0,22.35,0.0,0.0,0.0,-0.3080341126580411,-0.2727179436709794,9.84531588734196
1455000000.0,22.35,0.0,0.0,0.0,-0.3389353586918536,-0.2506453586918536,9.813531713046517
1460000000.0,22.35,0.0,0.0,0.0,-0.2943,-0.211503798511238,9.848455171641252
1465000000.0,22.35,0.0,0.0,0.0,-0.29498672845586726,-0.27468,9.838056543088266
1470000000.0,22.35,0.0,0.0,0.0,-0.3046986285529863,-0.27350274289402743,9.821575885658959
1475000000.0,22.35,0.0,0.0,0.0,-0.3124484140496841,-0.25506,9.847768414049684
1480000000.0,22.35,0.0,0.0,0.0,-0.28645214373612143,-0.25506,9.820987286241673
1485000000.0,22.35,0.0,0.0,0.0,-0.3329513423113134,-0.25506,9.848651342311314
1490000000.0,22.35,0.0,0.0,0.0,-0.31333131317561314,-0.25486377105853775,9.829816228941462
1495000000.0,22.35,0.0,0.0,0.0,-0.28458812903858133,-0.24534812903858128,9.83943
1500000000.0,22.35,0.0,0.0,0.0,-0.2943000874071009,-0.2550599417285994,9.8394299708643
1505000000.0,22.35,0.0,0.0,0.0,-0.3234357876984579,-0.2356361415343614,9.82971807076718
1510000000.0,22.35,0.0,0.0,0.0,-0.3141161706700617,-0.23544,9.839233829329938
1515000000.0,22.35,0.0,0.0,0.0,-0.2948885411458854,-0.2639871882811719,9.848945729427058
1520000000.0,22.35,0.0,0.0,0.0,-0.31313525904835254,-0.23661711142747113,9.830404740951648
1525000000.0,22.35,0.0,0.0,0.0,-0.31392,-0.2447595296212953,9.81098094075741
1530000000.0,22.35,0.0,0.0,0.0,-0.27703428112634276,-0.27291428915524285,9.819221429718414
1535000000.0,22.35,0.0,0.0,0.0,-0.32029664907766653,-0.2381866807378668,9.8471799894466
1540000000.0,22.35,0.0,0.0,0.0,-0.3056795401746954,-0.2444652299126523,9.81313908034939
1545000000.0,22.35,0.0,0.0,0.0,-0.3130371300097713,-0.2541771300097713,9.81
1550000000.0,22.35,0.0,0.0,0.0,-0.3050909698931097,-0.25506,9.81882903010689
1555000000.0,22.35,0.0,0.0,0.0,-0.30411,-0.2812527906120279,9.82854093020401
1560000000.0,22.35,0.0,0.0,0.0,-0.2782115090966151,-0.2240601878921019,9.846885660602256
1565000000.0,22.35,0.0,0.0,0.0,-0.3002841911947419,-0.25849365199123653,9.823635808805259
1570000000.0,22.35,0.0,0.0,0.0,-0.30411,-0.26487,9.81981
1575000000.0,22.35,0.0,0.0,0.0,-0.30411,-0.23151587763005876,9.83648706118497
1580000000.0,22.35,0.0,0.0,0.0,-0.2958695693103957,-0.24211086137920862,9.831189569310396
1585000000.0,22.35,0.0,0.0,0.0,-0.28615766921327673,-0.2615346615734466,9.82962
1590000000.0,22.35,0.0,0.0,0.0,-0.28449,-0.2568257691161577,9.82962
1595000000.0,22.35,0.0,0.0,0.0,-0.29243613098096133,-0.2391677380380774,9.82962
1600000000.0,22.35,0.0,0.0,0.0,-0.2943,-0.25113606215616063,9.82962
1605000000.0,22.35,0.0,0.0,0.0,-0.2788001376496014,-0.2705598623503986,9.8218700688248
1610000000.0,22.35,0.0,0.0,0.0,-0.3129391563615916,-0.25172450618304504,9.81981
1615000000.0,22.35,0.0,0.0,0.0,-0.2859613431528134,-0.22258880589168806,9.79714880589169
1620000000.0,22.35,0.0,0.0,0.0,-0.27468,-0.18599747413377474,9.715823685334437
1625000000.0,22.35,0.0,0.0,0.0,-0.29675259469102594,-0.19865259469102595,9.640777279054273
1630000000.0,22.35,0.0,0.0,0.0,-0.325888294982383,-0.22778829498238296,9.630869431660793
1635000000.0,22.35,-0.008549184187580106,-0.0007771985625072558,0.0,-0.35502399527373996,-0.25692399527373994,9.662065327031653
1640000000.0,22.35,-0.009411503087051425,-0.0056639632313774495,0.0,-0.3276538407248384,-0.25074353628993534,9.764482014115421
1645000000.0,22.35,-0.007005395616306203,-0.006696650339302687,0.0,-0.26516407633494077,-0.23828486804784868,9.828050527808605
1650000000.0,22.35,-0.009368941337562905,-0.0034068687870354945,0.0,-0.2383829679507297,-0.21483890385218904,9.81196187180292
1655000000.0,22.35,-0.008442670724408954,-0.0006600765455954606,0.0,-0.22190213570722137,-0.2398546607319466,9.705424949950551
1660000000.0,22.35,-0.011796352344145793,0.013767223683690873,0.0,-0.2625158257045583,-0.24171833551298336,9.616154174295442
1665000000.0,22.35,-0.011700502242941353,0.013100929808361996,0.0,-0.3370718587250186,-0.15656721191247214,9.659907323406273
1670000000.0,22.35,-0.0106465084371654,0.0011497806667196755,0.0,-0.3888685297509853,-0.26016191363041913,9.698754632437746
1675000000.0,22.35,-0.021038251825141824,-0.0025019259518192513,0.0,-0.37032733732567336,-0.22513894690728947,9.804114520557846
1680000000.0,22.35,-0.021864063815401076,-0.019856353969965285,-0.000681380081433162,-0.42850119158381195,-0.3174523831676238,9.90299902842389
1685000000.0,22.35,-0.021193369230025846,-0.017743476780416878,-0.00039391726018045956,-0.16186336354483366,-0.17353768902317687,9.7423100181269
1690000000.0,22.35,-0.0210549468392894,-0.004045637580775963,-0.001980261256916818,-0.09594242369822424,-0.4224206680520067,9.809804751960447
1695000000.0,22.35,-0.024791903437326963,0.01884442361152499,0.0033004533462685564,-0.20865893046338932,-0.46577774645307746,9.87003693661327
1700000000.0,22.35,-0.005968904140170459,0.020661150288524645,0.0036197913669475256,-0.4473371887365719,-0.13733884428388843,9.880632231143222
1705000000.0,22.35,0.006004616381941965,-0.008783149843305093,-0.00019164434017860852,-0.3628706084144061,0.02893966558789666,9.798129270765992
1710000000.0,22.35,-0.016129055697553834,-0.007204269095832647,-0.00044714974966606727,-0.12635233499422333,-0.309409492525995,9.716020166785302
1715000000.0,22.35,-0.04485993190782882,0.009571236391655993,0.0012137091923066223,-0.38739879877358807,-0.6304890664299907,9.851693332795433
1720000000.0,22.35,-0.02556679773898913,-0.00929366341413148,0.0009368854909206207,-0.545435498865955,-0.29233566137445666,9.979124533635746
1725000000.0,22.35,0.010177091290605537,-0.024291477983997074,-0.0011711232007181362,-0.15156245613062458,0.07455640207266402,9.866897195854671
1730000000.0,22.35,-0.007943870372992764,0.0035149082757118325,-0.0009794714825091069,0.03296106234921063,-0.2750749538412496,9.633811593523816
1735000000.0,22.35,-0.042687332395741046,0.03008322237823566,0.0,-0.3356020209167202,-0.5296413270950133,9.608699339204694
1740000000.0,22.35,-0.019520942089273685,0.010271453932496635,-0.0005536221066677035,-0.6035112337974123,-0.11457856937078564,9.718178636581886
1745000000.0,22.35,0.00630270356700054,-0.018235767825617158,-0.0026935776700282967,-0.3030288324335883,0.03609971537499718,9.71611806273828
1750000000.0,22.35,-0.028230911045826607,-0.003193804849589865,-0.001064628709625288,-0.1324358497912585,-0.41202203949902033,9.677564966008351
1755000000.0,22.35,-0.057025655150520535,0.008717678428143461,0.002129301687433,-0.47617896808338966,-0.5476911750706117,9.783219484041695
1760000000.0,22.35,-0.025739900501242672,-0.024589067419823026,0.0011072294572745654,-0.4426252855902528,-0.2083631351221313,9.940669507672995
1765000000.0,22.35,-0.0016183288126146132,-0.026038388398019013,-0.0005003896171820958,-0.009416502943765004,-0.1902171684712717,9.922029720037898
1770000000.0,22.35,-0.03221126283715702,0.019193174832987245,-8.516460514655156e-05,-0.06867171900631719,-0.5134563970236641,9.795088387438483
1775000000.0,22.35,-0.03595099609733167,0.02896801239746599,0.0005855542223286473,-0.47921963774909637,-0.3757207245018073,9.771250810295209
1780000000.0,22.35,-0.00021285512363387014,-0.0014983220203658443,-0.0009369002469814623,-0.45871400957924013,-0.05415147659491477,9.867290780318008
1785000000.0,22.35,-0.013483050081705032,-0.009549114516477029,-0.0012136944362457808,-0.15538998394219983,-0.2963617295597173,9.830698302555884
1790000000.0,22.35,-0.047326700836264134,0.012825771883090129,0.001788628510785994,-0.32314338181033386,-0.4602843655535437,9.714450704305808
1795000000.0,22.35,-0.03003294690658162,-0.002903555880160936,0.0016395395960698599,-0.5026631448340315,-0.24730943755129436,9.779785618388656
1800000000.0,22.35,-0.011505274996416077,-0.021729220114993918,-0.00127757342362851,-0.1687308811891088,-0.2315168391081684,9.817847720297276
1805000000.0,22.35,-0.03276236870715486,0.00789594189255674,0.0008304352680102468,-0.16785081793800818,-0.43399496095934964,9.793715610359756
1810000000.0,22.35,-0.0396970769518096,0.005263422659724218,0.0013201594152169962,-0.40888030780090306,-0.4216327804447278,9.844531340628313
1815000000.0,22.35,-0.01583162287640634,-0.009326594743190999,0.00039392463821088033,-0.23661635389926355,-0.23073105898321059,9.857970794237408
1820000000.0,22.35,-0.01410239086258665,0.008985668467270808,0.0006813727034027412,-0.19070742518817424,-0.3296172372960724,9.853556541405265
1825000000.0,22.35,-0.03616233789534885,0.006866947929465476,0.0,-0.3796470708968707,-0.42231918840789195,9.844334645515646
1830000000.0,22.35,-0.02322079177316626,-0.003577242265511131,-0.0007239702890390314,-0.3490393379077934,-0.16971282227222823,9.757221951181121
1835000000.0,22.35,-0.016545705498840987,-0.006036566415676806,-0.002129301687433,-0.20983529407455292,-0.318630795989708,9.718374671285346
1840000000.0,22.35,-0.045468615598933594,0.0038810189141922167,-0.0007665330925319094,-0.2142517223723172,-0.554852098928721,9.762912357397923
1845000000.0,22.35,-0.03086546080939194,0.00890694204896501,0.0017992560366048489,-0.4549877283261773,-0.2229806907725069,9.82657886416309
1850000000.0,22.35,-0.008309614027894478,-0.021523376936697564,-0.0005323449209386777,-0.27369695176026954,-0.1873719702188197,9.772721425055515
1855000000.0,22.35,-0.0326384177096927,-0.0009866056923508032,-0.001479829479560841,-0.044441353775513545,-0.41545404046724044,9.691299360311493
1860000000.0,22.35,-0.043242257942930615,0.021044952580016,0.003832723432898712,-0.46891836128268366,-0.4787274580759746,9.799405705795756
1865000000.0,22.35,-0.029343733983213077,-0.01854824519377916,-0.0002874596592396649,-0.42035686985756876,-0.2721280234352802,9.855910220393802
1870000000.0,22.35,-0.0115454870937576,-0.0025551226051571626,-0.0016182771664016128,-0.1465620901276209,-0.15048754302787545,9.759184454257545
1875000000.0,22.35,-0.04500341364037652,0.004524754228246384,-0.0023954525408133097,-0.2943001456785015,-0.571432390741124,9.81490507283925
1880000000.0,22.35,-0.05219422206398746,0.00034066052859485,0.0,-0.36140098426790984,-0.46695472191394727,9.879063166851632
1885000000.0,22.35,-0.013429289276860722,-0.00973499455872458,0.0,-0.39043653544546536,-0.25564940550499404,10.00855396063364
1890000000.0,22.35,-0.024099939044252998,-0.014190747649485207,0.00046845433950811437,-0.1141888405317884,-0.42398823671098235,9.892011159468211
1895000000.0,22.35,-0.03930302947889556,0.018570584332083546,0.001458559671862193,-0.26781410424304103,-0.41309876872708773,9.818731231272913
1900000000.0,22.35,-0.027694824426738984,0.0006387224175491402,-0.0008517166697566859,-0.4179044499807445,-0.3256916678530167,9.861011483326914
1905000000.0,22.35,-0.017740455468320166,-0.006959363790772331,0.0004045753521253851,-0.12556874004678742,-0.29047480304444806,9.739956377985964
1910000000.0,22.35,-0.03136080634190764,0.019497361679425163,0.001937660509267429,-0.32510425328754256,-0.4114307693092077,9.697577511298375
1915000000.0,22.35,-0.03508697942148317,0.0016790762494133101,0.0005216668029111516,-0.4684265700855657,-0.27134452560684524,9.72171
1920000000.0,22.35,-0.022417783944472962,-0.017730365743899065,-0.0012775607755763443,-0.2507432643567326,-0.292731295048713,9.720140362706303
1925000000.0,22.35,-0.04132857278412366,0.0009049491592422936,0.002714847477726966,-0.2148399721611997,-0.5037438365173383,9.72808691129897
1930000000.0,22.35,-0.0490701954813826,-0.0013414966791938058,0.0,-0.41378531265685314,-0.5307196879222968,9.821183437487935
1935000000.0,22.35,-0.027057234148087243,-0.008889814150048957,0.0,-0.28880594897935946,-0.24309202551032028,9.82962
1940000000.0,22.35,-0.013887407686899823,-0.002980981467037646,0.0,-0.18403552463565526,-0.3449212203334122,9.83432895072869
1945000000.0,22.35,-0.05092321498376083,0.007560981920548021,0.0004684627715428919,-0.20993551117165513,-0.6783601777248018,9.879651377792914
1950000000.0,22.35,-0.030145256892570697,0.013002546589139383,0.003619788204934498,-0.5375871667189717,-0.36983688637076884,9.968922075752822
1955000000.0,22.35,-0.015183549591482475,-0.021617569745658923,-0.002129301687433,-0.317744798767648,-0.35041350378823505,9.975101806344117
1960000000.0,22.35,-0.029785140463198807,-0.0018311333440398621,-0.0019589492890442887,-0.08475965633139657,-0.4367419233423192,9.865328704565187
1965000000.0,22.35,-0.04049542037930368,0.012647985747559213,0.0,-0.3798430473289305,-0.5883045931347459,9.925855451147955
1970000000.0,22.35,-0.026250425165032714,-0.003002302920949256,0.0,-0.33452042602670423,-0.32373,9.771937276529773
1975000000.0,22.35,-0.02093789649467311,0.0006388404660359118,5.3236705502990985e-05,-0.2020864603440646,-0.32863538362005384,9.784984078017942
1980000000.0,22.35,-0.03425664112187269,0.01222213742572208,0.0010220606361106305,-0.3158821922956219,-0.4226148769182487,9.68325487691825
1985000000.0,22.35,-0.03796155914981041,-0.001032707134007752,0.0,-0.36208698433126985,-0.4355632288751323,9.701795661443757
1990000000.0,22.35,-0.025782045659833174,-0.00012778327086976216,-2.129721181162636e-05,-0.33255880673318805,-0.25054844364078444,9.692083761346638
1995000000.0,22.35,-0.03640746943121084,-0.006366603634470189,-0.0010220479880584798,-0.2846862775009628,-0.5095311674971117,9.68315697125337
2000000000.0,22.35,-0.055396628124680845,-0.0042586033748661,0.00319393988309745,-0.3041102719332027,-0.4512596892191969,9.751140466171204
2005000000.0,22.35,-0.0248132233361501,-0.0042586033748661,3.192684563921603e-05,-0.3720935726130357,-0.3735644884422449,9.867683267336632
2010000000.0,22.35,-0.042241577784974865,-0.013648861950323254,-0.0020867241278792804,-0.14204786299587863,-0.6611951712551518,9.859246160958161
2015000000.0,22.35,-0.03950534034305385,0.01819065134238194,0.0009688450106945558,-0.3942649567518496,-0.5053124346377244,9.963723130528532
2020000000.0,22.35,-0.032255051033013835,-0.01866889750321412,-0.0009794872925742942,-0.3645394430556944,-0.5191452784721527,10.108224588541146
2025000000.0,22.35,-0.021842752901532966,-0.009103590352529813,-0.0030874959842131467,-0.06474474133774744,-0.38013691000206906,9.946358292002483
2030000000.0,22.35,-0.03131823089036261,0.023524033730626327,0.0008091517582551099,-0.2703645463275455,-0.6217588646184886,9.909865681709055
2035000000.0,22.35,-0.029976719455107943,0.011691027866991827,7.45212692624675e-05,-0.43958677196636775,-0.3730731537044315,9.771249907088498
2040000000.0,22.35,-0.013160407515499222,-0.0011072884815178981,-0.000979483076556911,-0.2707552075089521,-0.28998332262813326,9.76095
2045000000.0,22.35,-0.029166100263622072,0.004652554363185707,-0.0010646508437165,-0.2461328602783286,-0.418397095825071,9.600261485009915
2050000000.0,22.35,-0.04911364732890183,0.006281444299345368,-0.00010646076295383212,-0.3511984778254848,-0.5817336769194368,9.619686159275162
2055000000.0,22.35,-0.030276654759032563,0.0016501871479712906,0.0,-0.4677412789909128,-0.24917240336362406,9.667264699579547
2060000000.0,22.35,-0.03144596356902379,-0.022373135249101006,-0.002810691254905362,-0.2476033196482332,-0.45636236037782363,9.741722720104226
2065000000.0,22.35,-0.052349675955439226,-0.0033238750161511607,0.0014373004042070028,-0.1646115593391156,-0.5929168813217688,9.75114
2070000000.0,22.35,-0.046225699663456576,0.0027468122675226307,0.00029809350908463657,-0.40162256601072566,-0.5744734391709344,9.877689603108996
2075000000.0,22.35,-0.03115842485945819,-0.013110119482186846,-0.0027148727738312652,-0.2830177342166773,-0.46891751634737516,9.939982701521927
2080000000.0,22.35,-0.026080092792726602,0.0001250445701678378,-0.0005110192510097001,-0.2056173575909736,-0.5419048444165485,10.029744404015043
2085000000.0,22.35,-0.039707707069442474,0.0014266233401838825,-0.0008836645954828171,-0.3101927669807277,-0.6080240429917405,10.053582340498622
2090000000.0,22.35,-0.027762179382224104,-0.007665530132140701,-0.0019376689413021955,-0.2772303158298032,-0.5214991128510912,10.015028797021289
2095000000.0,22.35,-0.016728941061463685,0.006803202800634671,0.0004578131116327218,-0.24897771861427717,-0.4764715779214158,9.918792452378524
2100000000.0,22.35,-0.025991500841907572,0.012349958640748305,0.00021292574192504753,-0.31588236710982365,-0.5258162855298629,9.835505673680156
2105000000.0,22.35,-0.032968419092338316,0.009411495709020997,0.0,-0.3490398817741988,-0.4388007684677077,9.734560650241907
2110000000.0,22.35,-0.0241210950194823,0.0010433177957571817,0.0,-0.3455081590157816,-0.41202,9.643033431142033
2115000000.0,22.35,-0.035246825504552735,-0.00024486523561641216,0.0,-0.2602588481052885,-0.5177723751387238,9.570733812430639
2120000000.0,22.35,-0.0394095345100319,0.0064731128816239575,0.0,-0.42183102946141027,-0.45243666468006666,9.622040770606109
2125000000.0,22.35,-0.03781254928542013,-0.014652169049962749,0.0,-0.35561179831521794,-0.4880478714801787,9.702090330204603
2130000000.0,22.35,-0.0372802328225988,-0.00896882155554617,0.0,-0.22680670352766702,-0.5173794413726944,9.714450558627306
2135000000.0,22.35,-0.046619369198058286,-0.0011498049088196202,0.0,-0.3251041464566415,-0.6989635367453354,9.855126829396267
2140000000.0,22.35,-0.039329186134546654,-0.009198637423374048,0.0,-0.33746379216533795,-0.5815357192597572,9.978732415669326
2145000000.0,22.35,-0.02834777154870926,-0.015811828519283054,0.0,-0.26104372502353723,-0.6076319832967199,10.110677124960771
2150000000.0,22.35,-0.03078589440145877,-0.005115487447797719,0.0,-0.18050366591063666,-0.64746,10.105280707671808
2155000000.0,22.35,-0.029348561323116983,0.003673068124615715,0.0,-0.2652630697326307,-0.6880736511497365,10.057604232566842
2160000000.0,22.35,-0.017550967137227834,0.010391024107764792,0.0,-0.2872366321783663,-0.4261446378728464,9.932035686758056
2165000000.0,22.35,-0.009922527608082843,0.00706924509156722,0.0,-0.23524354768483546,-0.4454730672081307,9.806369837422197
2170000000.0,22.35,-0.02890627580350682,0.01340488632893221,0.0,-0.2676171371971714,-0.5328792842992929,9.66069108345601
2175000000.0,22.35,-0.030413175276681394,0.011876924220388637,0.0,-0.4537135561691356,-0.4439018662985187,9.610366542246766
2180000000.0,22.35,-0.028294598083466998,-0.01057263522506675,0.0,-0.37003205671512057,-0.4112353270316533,9.601243115312231
2185000000.0,22.35,-0.031169146191663836,-0.006543312491165982,0.0,-0.2499586302359863,-0.48363342441003426,9.600360342441004
2190000000.0,22.35,-0.048470003212141705,-0.007111932267572955,0.0,-0.30842691045746906,-0.6841505485293056,9.689141395533714
2195000000.0,22.35,-0.04429234028674295,-0.007580276990629071,0.0,-0.2873344310123443,-0.5873232930370329,9.759282427905724
2200000000.0,22.35,-0.026207799121279098,-0.004897398518715182,0.0,-0.26879417092944174,-0.5493606409854064,9.870822726450127
2205000000.0,22.35,-0.03469323818002844,-0.0034388082807268816,0.0,-0.2208226288757263,-0.689251199612712,9.966469714147397
2210000000.0,22.35,-0.03608775865584735,0.003428217645060123,0.0,-0.32451591609155916,-0.6943514136606141,10.083307329752174
2215000000.0,22.35,-0.026793398665794603,-0.007728783801207484,0.0,-0.3253968825493688,-0.6125360558102606,10.15335
2220000000.0,22.35,-0.022119586088958105,-0.007247211513677665,0.0,-0.17932628254996283,-0.6007645724833458,10.087426282549963
2225000000.0,22.35,-0.02551588321240509,0.007984928231067358,0.0,-0.2516274940129749,-0.6342166296538664,9.981674567820447
2230000000.0,22.35,-0.02235376688252093,0.0081764808728679,0.0,-0.31607789679447895,-0.5415111336985113,9.836878577013586
2235000000.0,22.35,-0.015987215948268,0.00707995166771206,0.0,-0.26369262635122626,-0.5136521209463212,9.709545252702453
2240000000.0,22.35,-0.020969824394316654,0.013466295507672544,0.0,-0.31156616562106165,-0.5179675649068757,9.606343834378938
2245000000.0,22.35,-0.0255690735417169,0.007269385605268764,0.0,-0.3877894308192943,-0.47088,9.575148861638588
2250000000.0,22.35,-0.029295384695861695,-0.005323282676699987,0.0,-0.3335393881502939,-0.47578504370355046,9.5941799125929
2255000000.0,22.35,-0.03719509878357832,-0.005908788414828779,0.0,-0.2937116628040166,-0.5864427636147276,9.637246381807364
2260000000.0,22.35,-0.044613436870476066,-0.008304324221985423,0.0,-0.3472742194889422,-0.7247630633867306,9.758203814569038
2265000000.0,22.35,-0.03992974068754367,-0.01283967962594207,0.0,-0.31745107206111073,-0.6631551201018512,9.875727439949076
2270000000.0,22.35,-0.02844360689385291,-0.012690647627460586,0.0,-0.21895884726378848,-0.6268596613803966,9.995409661380398
2275000000.0,22.35,-0.030360050295639065,-0.004258507460470715,0.0,-0.1677509116217091,-0.7548799860805999,10.061626367432563
2280000000.0,22.35,-0.02872036313896076,0.011676296030971513,0.0,-0.28213688430166883,-0.7235846699884467,10.071338665717587
2285000000.0,22.35,-0.015053421368288342,0.005141440127689797,0.0,-0.35708311233233114,-0.5955649668498497,10.09164496684985
2290000000.0,22.35,-0.012719295327349882,-0.0021505029848492632,0.0,-0.208167799675478,-0.5911507334415074,10.013066332792464
2295000000.0,22.35,-0.02054396026241442,0.012208083625513864,0.0,-0.2695800481734005,-0.6243085783104858,9.867387831335678
2300000000.0,22.35,-0.02471734316990368,0.007037065647739021,0.0,-0.3688552852041529,-0.6160676426020765,9.753101687276818
2305000000.0,22.35,-0.018035122046422623,0.0015012500098809875,0.0,-0.28615783431557834,-0.5077648836502489,9.677466497053265
2310000000.0,22.35,-0.015657072776119715,0.0073673059265172095,0.0,-0.3227492243448922,-0.520127501200375,9.612426465393064
2315000000.0,22.35,-0.030690107540515026,-0.0020121754545038848,0.0,-0.33501127516951273,-0.6747315302034153,9.590550255033902
2320000000.0,22.35,-0.03404362578957822,-0.0003832791943181046,0.0,-0.35002138582181386,-0.5988019043046191,9.62321809569538
2325000000.0,22.35,-0.026740218876526306,-0.008896046201285658,0.0,-0.3423678258312782,-0.6018444483670444,9.733482541924026
2330000000.0,22.35,-0.03451218974553835,-0.014384182691211136,0.0,-0.19325722628727227,-0.7324145547425456,9.823341781029818
2335000000.0,22.35,-0.035917400987436926,0.002139933429269347,0.0,-0.3000889431551894,-0.7000412371634124,9.875138762836588
2340000000.0,22.35,-0.0245044226980003,-0.005797369580874701,0.0,-0.3602218819009188,-0.6757132090652321,9.952833963613541
2345000000.0,22.35,-0.026814749631827874,-0.006884108467958668,0.0,-0.19718145548811455,-0.7296677089023771,10.021405727744058
2350000000.0,22.35,-0.02780477591385607,0.012042677634962619,0.0,-0.30312959339709594,-0.683756497894765,10.043477817416278
2355000000.0,22.35,-0.01595018013621951,-0.0030555628145478193,0.0,-0.3155864649376647,-0.6281346202013462,9.990405488312556
2360000000.0,22.35,-0.01303625312975586,0.0018362058522660733,0.0,-0.18796060848370608,-0.6713963083196631,9.913985770799158
2365000000.0,22.35,-0.019468629192661638,0.013629510447812805,0.0,-0.35129623781186237,-0.6678649837491498,9.870723762188137
2370000000.0,22.35,-0.01802676766240249,-0.003981789159519211,0.0,-0.33707095551830957,-0.6505983713806837,9.826284185690342
2375000000.0,22.35,-0.013046361273334896,-0.0007984430741016161,0.0,-0.2550603690522037,-0.556718191972882,9.748687269342373
2380000000.0,22.35,-0.020118121426616446,0.004854777744983276,0.0,-0.31156555377135553,-0.6600166613140667,9.700127768856778
2385000000.0,22.35,-0.025905667030395187,0.0002448747216555246,0.0,-0.3153917316288173,-0.6286246146969462,9.680900770606108
2390000000.0,22.35,-0.015590388616646219,-0.00034071849883396204,0.0,-0.3380522750398227,-0.6243089570745896,9.739171753577118
2395000000.0,22.35,-0.026463400445162048,-0.0035346004116923856,0.0,-0.2865501465200015,-0.7017089743599898,9.73152
2400000000.0,22.35,-0.027698324636941322,0.0014904707074362604,0.0,-0.3080343263198433,-0.651384093234241,9.755064559405445
2405000000.0,22.35,-0.020597189589886926,-0.006536986598984968,0.0,-0.3312829058579291,-0.7043589342847895,9.869743413856634
2410000000.0,22.35,-0.026825366617603336,-0.00921981026267291,0.0,-0.2297510894158109,-0.8314947573955477,9.96951092767951
2415000000.0,22.35,-0.02371350193196354,-0.00022364285811340718,0.0,-0.3559060494643605,-0.6700225309152253,10.014145771640658
2420000000.0,22.35,-0.0068166345309337,-0.008985571498871024,0.0,-0.20208529491605295,-0.6294108221455083,9.946162470960825
2425000000.0,22.35,-0.021204035754005545,0.008519927065833835,0.0,-0.13587033700590337,-0.8274729818701297,9.887008452897284
2430000000.0,22.35,-0.023202987307132796,0.02141431242015557,0.0,-0.4500824224013242,-0.6959200312048003,9.874549658400497
2435000000.0,22.35,-0.0018524822020643816,-0.009954459723743828,0.0,-0.34177888649748883,-0.4703902094543021,9.831385137842652
2440000000.0,22.35,-0.004346044802187281,-0.001871552129905767,0.0,-0.10281017442810172,-0.6443226483688265,9.713077247394072
2445000000.0,22.35,-0.035747114991322014,0.020158582994691508,0.0,-0.38013868727978684,-0.9399923953347239,9.72926403243834
2450000000.0,22.35,-0.0275899529813873,-0.008519055456076093,0.0,-0.5542628585260286,-0.5807506675273066,9.789398952411691
2455000000.0,22.35,0.009026523369033257,-0.025205386819493,0.0,-0.1375351509205515,-0.3882827564966276,9.771740523145706
2460000000.0,22.35,-0.02101394059287015,0.0024715366911755277,0.0,0.011769133047091332,-0.9456842389127424,9.690318477825485
2465000000.0,22.35,-0.05075217972878607,0.027610530895708602,0.0,-0.5379809745560097,-0.9502918750996188,9.792931461834016
2470000000.0,22.35,-0.002427341442296076,-0.017009364066739377,0.0,-0.6027227537642276,-0.42202701560537015,9.954795408092854
2475000000.0,22.35,0.007025572386940682,-0.030038569415010014,0.0,0.08730794237407943,-0.6057701440648015,9.916438355778283
2480000000.0,22.35,-0.04128328862780369,0.026292994292551667,0.0,-0.1412668902614689,-1.1069590030402898,9.893189378052293
2485000000.0,22.35,-0.03355264558020889,0.01639045302589191,0.0,-0.6945460692742607,-0.8206043279335433,10.00855478614515
2490000000.0,22.35,0.017817992762378856,-0.03879153564947006,0.0,-0.3041075817368758,-0.3990724444189245,10.080558784329488
2495000000.0,22.35,0.002799662499005901,-0.00800574727048124,0.0,0.17167257688092574,-0.7282955630971557,9.877099624601897
2500000000.0,22.35,-0.036215439601901815,0.04260333939417928,0.0,-0.31392145678501454,-0.9613777662629777,9.721709854321498
2505000000.0,22.35,-0.007740043505009921,0.013073938951468012,0.0,-0.6052784596985845,-0.5146303617955037,9.692574154030142
2510000000.0,22.35,0.02073535259188178,-0.016455461491243162,0.0,-0.26212144486541444,-0.4235953612163536,9.70189384875374
2515000000.0,22.35,-0.02519563729657288,0.0015539621495161034,0.0,-0.18844975804399758,-0.8595544471394445,9.711605748850857
2520000000.0,22.35,-0.03685442560693121,0.004173441931732582,0.0,-0.5160077131791772,-0.7035723189364231,9.721317648947977
2525000000.0,22.35,-0.001863825258604082,-0.021043567946602025,0.0,-0.3340294700529947,-0.4914799210078992,9.731029549045095
2530000000.0,22.35,-0.011008548389910874,-0.0113501664382571,0.0,-0.019422178306921778,-0.8218836182619362,9.759184347426643
2535000000.0,22.35,-0.03747078727044758,0.013116626645836519,0.0,-0.3923040172913401,-0.9622635401113354,9.91604693706867
2540000000.0,22.35,-0.0119679217374212,-0.009581991452000747,0.0,-0.475981496018715,-0.6192052758783528,10.017972493364525
2545000000.0,22.35,0.010763732692498678,-0.019477742926337343,0.0,-0.12360402265714021,-0.6153814483007145,9.981184252832143
2550000000.0,22.35,-0.0188602053741038,0.009473813906033884,0.0,-0.12360619812276198,-0.9535338821662388,9.967940950469309
2555000000.0,22.35,-0.020480031736827428,0.015633977553845428,0.0,-0.41565133771771334,-0.7812672089325721,9.940767151116573
2560000000.0,22.35,0.017260824207547643,-0.0008923095391272472,0.0,-0.34766580330085806,-0.45322025962750256,9.808037254126074
2565000000.0,22.35,0.002908652094845539,0.002363557315304468,0.0,-0.19698400284724002,-0.6936667441275675,9.687963002135431
2570000000.0,22.35,-0.027483164215736797,0.00960318853339955,0.0,-0.39593289789832903,-0.9129196483024965,9.757026499191664
2575000000.0,22.35,-0.00931817708435257,-0.01107249904958911,0.0,-0.49000985011399856,-0.658249299446293,9.904176800260569
2580000000.0,22.35,0.005408491550029048,-0.019391333403828294,0.0,-0.15421109523701093,-0.5834986496597865,9.804113248298933
2585000000.0,22.35,-0.015537237302774072,0.008929633432065959,0.0,-0.15342880168418802,-0.806775805894658,9.682861797473718
2590000000.0,22.35,-0.01849978101995404,0.007920958599310923,0.0,-0.4161417595369176,-0.7649832466159324,9.735248252768782
2595000000.0,22.35,0.0017321906558546638,-0.008272430050480922,0.0,-0.28811854069048537,-0.6025292927142929,9.814709203238092
2600000000.0,22.35,0.0012775481275242506,0.0044716376792388254,0.0,-0.21385779799247798,-0.7259410100376102,9.782531696988716
2605000000.0,22.35,-0.01851754066488466,0.005993967776036191,0.0,-0.3920088143759881,-0.8504294565889946,9.817259703593997
2610000000.0,22.35,-0.008478361315894536,-0.012129455799811305,0.0,-0.4184944479116445,-0.7277048367737484,9.98265701392237
2615000000.0,22.35,-0.0009794567264482883,-0.021970586764611357,0.0,-0.2080687285825873,-0.7622375079323751,10.071142504759425
2620000000.0,22.35,-0.011327962298902748,-0.005625423648866423,0.0,-0.14715,-0.8817234615746345,9.987756538425366
2625000000.0,22.35,-0.004524694149998646,0.011178911328343043,0.0,-0.2795859177745592,-0.7946091842003918,9.927719796050097
2630000000.0,22.35,0.011553819378244052,0.006238792959487444,0.0,-0.29469219566162197,-0.6464782337310824,9.888872195661621
2635000000.0,22.35,0.007425267577993623,0.012533101571939926,0.0,-0.2200378393645784,-0.6511881070902812,9.749765678729156
2640000000.0,22.35,-0.001873830006084651,0.017520324293505727,0.0,-0.37278128197081284,-0.6741432512788326,9.652647241048172
2645000000.0,22.35,-0.0035026957001443957,-3.765848671421351e-05,0.0,-0.42055454587214547,-0.6559945458721456,9.626454848624048
2650000000.0,22.35,-0.006174997238448002,-0.008943078259664936,0.0,-0.3227483308500833,-0.688662308838423,9.678546411784565
2655000000.0,22.35,-0.011860243979580675,-0.0095818575934488,0.0,-0.30479685471056855,-0.7807784672720848,9.769779515701895
2660000000.0,22.35,-0.011668556425223913,-0.010305825774479208,0.0,-0.2738948899961489,-0.760863186661532,9.826873406669234
2665000000.0,22.35,-0.0035132916058329498,-0.004939934972099385,0.0,-0.24191449647114496,-0.7554682552932827,9.89201201411542
2670000000.0,22.35,-0.002108025555708356,-0.0007239513169608066,0.0,-0.22896534813845348,-0.7975532593077327,9.950283259307733
2675000000.0,22.35,0.0009582195928843802,0.0055362294987119955,0.0,-0.28301896762798967,-0.7504644804133449,9.973336551958665
2680000000.0,22.35,0.007963627857242767,0.0023847670447554254,0.0,-0.30764154794421544,-0.703573095888431,9.957934643832647
2685000000.0,22.35,0.0032684158301730963,-0.0010646508437165,0.0,-0.26702788708257885,-0.7706742258348424,9.91025788708258
2690000000.0,22.35,-0.0023848292310117833,0.002235795124521614,0.0,-0.2999902702502027,-0.7959832432499325,9.88848
2695000000.0,22.35,0.0026510317306049835,0.0003619472003631055,0.0,-0.3036192382642924,-0.6830694100985941,9.840606781222867
2700000000.0,22.35,0.00894308985371279,0.0029810678953940592,0.0,-0.21974342311313422,-0.6121439475557395,9.715823160891832
2705000000.0,22.35,-0.0006601861620474398,0.009528653562080547,0.0,-0.25761133557931337,-0.718191098286211,9.624100237293103
2710000000.0,22.35,-0.0085172067497323,0.0024486112499947452,0.0,-0.34805911583099114,-0.7434013262535133,9.655198673746487
2715000000.0,22.35,-0.002448639708112101,-0.0042586033748661,0.0,-0.33363773085067727,-0.7230952582068526,9.731422269149322
2720000000.0,22.35,-0.003236590168951043,-0.0024699727560714,0.0,-0.3096036528327365,-0.7742055698291557,9.799405569829155
2725000000.0,22.35,-0.006281428489280181,-0.003992469385555408,0.0,-0.31931555292985553,-0.7882333412104334,9.910553293947833
2730000000.0,22.35,-0.002448668166229401,-0.010987242746064467,0.0,-0.3025401878921019,-0.7802874530269746,10.019149624215796
2735000000.0,22.35,0.0016928121377206026,-0.009262404686296122,0.0,-0.2116990562626906,-0.8055974124963742,10.050050646875906
2740000000.0,22.35,0.006515697819208074,0.0045993840599564805,0.0,-0.2134662918757629,-0.7883312274515123,10.0046299742303
2745000000.0,22.35,0.01229674617734527,0.008974966107143382,0.0,-0.28468630663666306,-0.7203479267716792,9.926934773453347
2750000000.0,22.35,0.014372780593149347,0.004258591780818346,0.0,-0.2795848397536484,-0.6817949465845495,9.859049679507297
2755000000.0,22.35,0.008623613758464498,0.0037156372521346304,0.0,-0.31293953512569533,-0.7009247675628477,9.810392185949722
2760000000.0,22.35,0.002171876084973734,0.002214450482514416,0.0,-0.36297,-0.7306488536096886,9.771544585561246
2765000000.0,22.35,0.0050677846452429395,-0.003502742076335606,0.0,-0.3491377388795774,-0.7311392462931925,9.764972261120423
2770000000.0,22.35,0.007133131456980378,-0.006962810678722034,0.0,-0.2974387695685877,-0.7575285766274859,9.79410796141178
2775000000.0,22.35,0.0033004059160729664,-0.004950608874109522,0.0,-0.26388910780209107,-0.7548790148905902,9.805585446098956
2780000000.0,22.35,0.00634537177092798,-0.0027255002996501333,0.0,-0.27036354600183543,-0.6717883680146837,9.795873546001836
2785000000.0,22.35,0.008964324879268007,0.0006175327141808499,0.0,-0.2437782295235823,-0.6953336655245367,9.773506583618866
2790000000.0,22.35,0.003981776511467077,0.008730195731918064,0.0,-0.27762381288603816,-0.7559582206531823,9.759380508384805
2795000000.0,22.35,0.004311865376473373,0.007920908007102365,0.0,-0.3790586171580862,-0.7000413828419139,9.782826462868565
2800000000.0,22.35,0.006600823426193827,-0.004258632886987763,0.0,-0.3551213473603135,-0.6965102719332028,9.815886217546563
2805000000.0,22.35,0.0011710567984443932,-0.006206896679974216,0.0,-0.2883159544837596,-0.7871552717401528,9.889167408288873
2810000000.0,22.35,-0.0033003879979991565,-0.006281469595449643,0.0,-0.3092114183235142,-0.8568050179338502,10.004238545808786
2815000000.0,22.35,0.007491065993683945,-0.007218297116131294,0.0,-0.30450196257601964,-0.7597836798300369,10.03602196257602
2820000000.0,22.35,0.019862539074811714,-0.0008942710412148257,0.0,-0.2268067617990676,-0.6706116547751166,9.947731797473718
2825000000.0,22.35,0.013958187223455829,0.002448685030298907,0.0,-0.19374777436117774,-0.7180926584668267,9.851201561022116
2830000000.0,22.35,0.007516488647620102,0.006500393848894393,0.0,-0.25564909472419095,-0.7679263602451636,9.783512725153228
2835000000.0,22.35,0.01806230970839033,0.015640744088958023,0.0,-0.3462935506647355,-0.6740443841358439,9.77056413039884
2840000000.0,22.35,0.024930253101763517,0.010390950327460586,0.0,-0.3994629793456298,-0.5729037241820373,9.775468193200481
2845000000.0,22.35,0.015694247647626846,-0.0002875576816438116,0.0,-0.3788623105214231,-0.6064554157356542,9.723378086824981
2850000000.0,22.35,0.0003193411826920194,-0.016294460081180382,0.0,-0.3482541696325417,-0.781857498220475,9.785475276789152
2855000000.0,22.35,-0.003609112194915716,-0.018324265883655586,0.0,-0.23387017818020178,-0.8237453118153532,9.814120089090101
2860000000.0,22.35,0.008266680059363003,-0.0008090864099856913,0.0,-0.21974427776034278,-0.720052888958629,9.794696288895864
2865000000.0,22.35,0.021597931934099084,0.007622948356569633,0.0,-0.2444649774032498,-0.5920337782459378,9.769974977403251
2870000000.0,22.35,0.019048799823117066,0.014398629462252751,0.0,-0.2642824591798246,-0.668650491940905,9.761735245970453
2875000000.0,22.35,0.007186338650361703,0.010659477096702688,0.0,-0.4144727792171278,-0.7798948883131489,9.84678811427768
2880000000.0,22.35,0.004092545266642471,-0.008393710390997155,0.0,-0.4230065287134653,-0.7345720727729208,9.92772
2885000000.0,22.35,0.016068349332367025,-0.015418869746464392,0.0,-0.2996946594350466,-0.6624699164142992,9.918694575849345
2890000000.0,22.35,0.010901975902496343,-0.002874465895857857,0.0,-0.20149779294347794,-0.7585095368086954,9.892796512269564
2895000000.0,22.35,0.007839593144189482,0.007793195354523719,0.0,-0.2736014060871141,-0.7817582814490829,9.912220312463802
2900000000.0,22.35,0.022588087858661794,0.00042584199781098276,0.0,-0.32569149303881495,-0.6847376620258766,9.904175324051755
2905000000.0,22.35,0.025877767172507466,9.588593735228301e-05,0.0,-0.25506,-0.6432418692784188,9.80813604357386
2910000000.0,22.35,0.018308160921875365,0.009965144165797343,0.0,-0.2709527087093271,-0.6564848608604487,9.789594860860449
2915000000.0,22.35,0.0191811684794176,0.010625178551219019,0.0,-0.34668551324075514,-0.6132232698611327,9.731323460277734
2920000000.0,22.35,0.017815573528666254,0.00361975131478244,0.0,-0.36610931343499314,-0.6470679403049795,9.68717897015249
2925000000.0,22.35,0.009528581889785068,-0.006760588350928827,0.0,-0.37523221592692213,-0.7023962272584623,9.735444909033848
2930000000.0,22.35,0.004985083628385306,-0.014606997222859932,0.0,-0.31843197397091977,-0.7316296292647962,9.86886
2935000000.0,22.35,0.016679269931711302,-0.011253291361023144,0.0,-0.22435464299114644,-0.7139721420531214,9.876512142053121
2940000000.0,22.35,0.02054178987739997,-0.00029806505096727557,0.0,-0.22759257105972572,-0.7698890284238904,9.930074514211945
2945000000.0,22.35,0.015609738581347088,0.004503429612321795,0.0,-0.3171574716092747,-0.7839160131412601,9.951656628812367
2950000000.0,22.35,0.022588125802818236,-0.0023422442934275907,0.0,-0.3286341404968414,-0.6160678853995789,9.979712598898526
2955000000.0,22.35,0.03293638263024713,-0.0021488867642180526,0.0,-0.1970829573973296,-0.6151861905492619,9.909963383424033
2960000000.0,22.35,0.02088457863083545,0.019095990172214555,0.0,-0.22955572483345724,-0.7816605700222058,9.828050285011104
2965000000.0,22.35,0.017328788515774712,0.015879341523583806,0.0,-0.49412918167589187,-0.7222102418867025,9.811373515183135
2970000000.0,22.35,0.034959275200939284,-0.013840460968315,0.0,-0.3914169808959698,-0.4214385230189852,9.824910738490507
2975000000.0,22.35,0.030412180244742626,-0.012509490630522889,0.0,-0.0775000401445004,-0.5905645425754454,9.749177768856777
2980000000.0,22.35,0.0012776124217893133,0.012562848546525587,0.0,-0.25859356801943567,-0.987668889863489,9.713862289414623
2985000000.0,22.35,0.007698730992573861,0.0066214409434324495,0.0,-0.5708423345388234,-0.6645269648381698,9.76271614788026
2990000000.0,22.35,0.049647160674133536,-0.019989878316112993,0.0,-0.30705096729930964,-0.27468290385812905,9.818632451537026
2995000000.0,22.35,0.02835804420336005,-0.007079532502278841,0.0,0.024816565808765657,-0.7576276380084763,9.76095
3000000000.0,22.35,-0.011710956808374943,0.029827436499919598,0.0,-0.4316414567850146,-0.9809969698871697,9.76095104888521
3005000000.0,22.35,0.022034461017613936,-0.010242007400985756,0.0,-0.6744389592129897,-0.47597816483698174,9.935765250633352
3010000000.0,22.35,0.05577987884360283,-0.03361762455071722,0.0,-0.0616030581991307,-0.4612661415343614,9.93753
3015000000.0,22.35,0.012020681721942268,0.01551802765888128,0.0,-0.0014712071862120688,-0.965405203826152,9.842372414372424
3020000000.0,22.35,-0.0016183456766840475,0.02114015149660105,0.0,-0.6027301542321015,-0.6984702402037024,9.848847658659876
3025000000.0,22.35,0.05252079240330612,-0.023225377141318376,0.0,-0.30165544350515444,-0.3232372084771721,9.886518235027982
3030000000.0,22.35,0.03836711519250388,-0.001533991013401674,0.0,0.0105966833316668,-0.7559614838516149,9.851594164583542
3035000000.0,22.35,-0.00036100277791169255,0.028730050458345695,0.0,-0.4541080244153803,-0.8669102305611023,9.8218699231463
3040000000.0,22.35,0.03012460087825535,-0.008303136756499133,0.0,-0.6078283676285837,-0.4308523066307231,9.882986813338468
3045000000.0,22.35,0.043678855001086356,-0.028197299555667472,-0.00678187080667955,-0.03776465554434649,-0.5441617054730171,9.861698522563586
3050000000.0,22.35,0.009263969675404604,0.018113348659323472,0.001171173792926714,-0.15696118485181185,-0.9035033104610332,9.814904703787047
3055000000.0,22.35,0.013851165436451108,0.010158598646128001,0.00023421030568452402,-0.5694731702869318,-0.6361764231101642,9.853654796698548
3060000000.0,22.35,0.052411797537444696,-0.019605128042745768,0.0,-0.22955132534271322,-0.37395565464245656,9.807252843379029
3065000000.0,22.35,0.03435455029832114,0.008994256943928351,-0.0009262526950799949,-0.07416288559262886,-0.6847403813579038,9.783120480932105
3070000000.0,22.35,0.001577919512787837,0.015686683300339534,0.0016821677478321198,-0.44694634302906344,-0.8876098733591987,9.848063277048533
3075000000.0,22.35,0.032114311145902366,-0.010271450735926023,-0.0014905371097100072,-0.426734402718144,-0.37866217739612174,9.850711440271814
3080000000.0,22.35,0.055351495364853925,-0.007750606200922206,-0.002129301687433,-0.14832528559025288,-0.42457781703017816,9.742114022271041
3085000000.0,22.35,0.009076394915120273,0.009518095600548455,-0.0012456349839414912,-0.179523599224236,-0.9072321556557217,9.72171
3090000000.0,22.35,0.012030652240199717,0.014521850535787256,0.0006813895674722744,-0.558191700879417,-0.6225397790814979,9.826285380254054
3095000000.0,22.35,0.04856596096001953,-0.026502963431335434,-0.0015224702793752967,-0.3356959155668591,-0.4283037583667376,9.912809280933294
3100000000.0,22.35,0.02748871342766625,-0.005539439684931764,-0.0012775744776328559,0.009812107482321086,-0.6533479268409793,9.778606855938168
3105000000.0,22.35,0.013503385419517885,0.0256933498291104,0.0022996720038956685,-0.3865176186539762,-0.7626297618653977,9.795579722176297
3110000000.0,22.35,0.024181286166610368,-0.008761525233553419,-0.0017886527528859619,-0.471860697959907,-0.5760416293915163,9.909474185304243
3115000000.0,22.35,0.040814978686890935,-0.007935564438614973,-0.0015543770989319638,-0.12870453777394542,-0.4670536764640368,9.884653676464037
3120000000.0,22.35,0.022885975836899004,0.007878514898309149,-0.00025550962550484205,-0.2903781210789812,-0.7494864240902642,9.883771321204513
3125000000.0,22.35,0.012780146989627532,-0.003460240405094815,0.0,-0.33599219650312195,-0.7112239074112392,9.910552682098126
3130000000.0,22.35,0.047978008601343984,-0.003002269192810174,0.0,-0.32373,-0.427517793715678,9.954207303982473
3135000000.0,22.35,0.039722817102956554,-0.0041734577417978196,-0.0023316051735609526,-0.159018699446887,-0.6584498793189988,9.902507751957478
3140000000.0,22.35,0.023524871111160923,0.019219079512484673,-0.0008942868512800128,-0.2534917417961174,-0.5630921702780217,9.793910868111208
3145000000.0,22.35,0.04066774694511087,0.003049737349807343,0.0,-0.4532232217570322,-0.48069,9.788810644351408
3150000000.0,22.35,0.039308218981604096,-0.009688342598502625,0.0,-0.19423518549135188,-0.5630947342196473,9.717785265780353
3155000000.0,22.35,0.02853938953877923,0.015077085096316521,0.0007346157329318071,-0.35669429641194295,-0.6051789612820896,9.736621690256717
3160000000.0,22.35,0.023397165836612777,-0.008140535592463385,-0.0011072568613875566,-0.45047483172474834,-0.5948782772415828,9.794304306896043
3165000000.0,22.35,0.03521493027904392,-0.015932856036986316,-0.002129301687433,-0.2081661098048611,-0.47029029342610296,9.75741790818938
3170000000.0,22.35,0.027485311412655623,-0.0018736919315153755,0.0006814032695287701,-0.20169458517514588,-0.6904304476582046,9.802741277307913
3175000000.0,22.35,0.021629878805820905,0.0045780120138363065,5.321246340303726e-05,-0.3124490550350906,-0.6361765882124659,9.813923753317738
3180000000.0,22.35,0.03873948907038237,0.0012349547579053764,-0.0010646508437165,-0.34335,-0.47951230585852306,9.862974617676846
3185000000.0,22.35,0.04055509466689079,-0.0017353875892655779,-0.0010646508437165,-0.25682493389274935,-0.5316047042424471,9.848847105081571
3190000000.0,22.35,0.02367386727349463,0.0038115105414347305,-0.0010646508437165,-0.28507940550499405,-0.7247642870861429,9.898879405504994
3195000000.0,22.35,0.02832664719361035,0.0009581184084671698,0.00023423665579316963,-0.40534994470849944,-0.6047843279335434,10.007181620590416
3200000000.0,22.35,0.04580801284284436,-0.013425180646969435,0.0004258535918587867,-0.27467813531518137,-0.5003103107808031,10.004237564906875
3205000000.0,22.35,0.037745033032712566,-0.0007628483970115625,-0.0006281507539605917,-0.14538407549344073,-0.6009614715459147,9.878374641694247
3210000000.0,22.35,0.03263840927765793,0.01215830586853493,0.0007878619244739106,-0.319415595212756,-0.6174409635472097,9.844139174102391
3215000000.0,22.35,0.04411468132288394,0.002608292908386385,0.0009155861711003027,-0.317057701259577,-0.4488059388120594,9.812942375524823
3220000000.0,22.35,0.050669707499986526,0.004684565529172586,-0.0011924225205384542,-0.24328831272318313,-0.38180563781245636,9.70483604946436
3225000000.0,22.35,0.034147169552308135,0.009954464993765528,-0.0027148664498051604,-0.3242211890593119,-0.541513503402135,9.647644437358245
3230000000.0,22.35,0.02312041064550923,-0.00010656721739272894,-0.0020441160021995777,-0.4098622391721224,-0.520320894267009,9.690907164649872
3235000000.0,22.35,0.03290460650722938,-0.010273914738905118,-0.0005003790771386375,-0.3426621061161211,-0.41202,9.762716177015962
3240000000.0,22.35,0.03276603128586275,-0.0127758101245984,0.0,-0.22445242240132424,-0.5548553621271537,9.780177474133774
3245000000.0,22.35,0.022832872989947912,-0.004088149792060236,0.0,-0.27124744545347446,-0.661684184848842,9.835801119393011
3250000000.0,22.35,0.03142481075580755,-0.006396768841436145,-0.0005323322728864978,-0.33353987374529875,-0.55916898996239,9.971865946910258
3255000000.0,22.35,0.041581394784940495,-0.008696342166334758,-0.0005429650687271237,-0.19874895616378957,-0.533566595469166,10.02140518387765
3260000000.0,22.35,0.036854338124570535,0.008696045403635732,0.0,-0.20522703632607037,-0.5744734100352341,9.99168113667841
3265000000.0,22.35,0.03858981530420559,0.009101244449873721,-0.0010007855583902664,-0.34393847316258475,-0.5222838926503389,9.963526182906461
3270000000.0,22.35,0.04661464420024855,-0.0010646508437165,-0.0011498091248369766,-0.27487537429425374,-0.4445886918733869,9.905941355389213
3275000000.0,22.35,0.046232843877700165,0.007087899568908778,0.0,-0.25015563612945635,-0.43311194529061947,9.815885236644652
3280000000.0,22.35,0.03685430334242714,0.009548934661866574,-0.002342266427518931,-0.3386417096805171,-0.4795129274201293,9.74250707257987
3285000000.0,22.35,0.03455478206115291,0.001831227150426631,-0.003492027068156026,-0.37837163619281633,-0.43144290669942903,9.701991453349715
3290000000.0,22.35,0.03851521393061281,-0.0042447726261677764,-0.0015118111334260255,-0.32745709705267095,-0.40260316685163167,9.69169184733012
3295000000.0,22.35,0.03335160869628704,-0.007686297940031853,-0.001692787895620596,-0.23671485199004852,-0.47490216400142166,9.711409179992891
3300000000.0,22.35,0.030679446286557055,0.0038327360809508174,-0.0006387835498012175,-0.2707572178722722,-0.4767659359014594,9.721710640985407
3305000000.0,22.35,0.03598137272720206,-0.0001278138369958039,0.0,-0.35580825063038246,-0.47088,9.78822192839132
3310000000.0,22.35,0.036066509928235645,-0.00572782851670374,-0.0008091485962420786,-0.29155281424332813,-0.4857914571711146,9.867291557270017
3315000000.0,22.35,0.03566199149234495,-0.004812193861403455,-0.0013414460869851643,-0.2877278795090788,-0.521009293169693,9.973140235610103
3320000000.0,22.35,0.0383448836663154,-0.005195552106047514,0.0003832813023267962,-0.2797800392337004,-0.5572083224350833,9.9881499869221
3325000000.0,22.35,0.03983542288403413,-0.0031938123485716263,0.00031938123485715064,-0.23200772709857725,-0.5336629666538297,10.001785047911051
3330000000.0,22.35,0.04369538619531253,0.0059406604522420385,-0.0007026625371839468,-0.29979256509992563,-0.43164,9.963820929362509
3335000000.0,22.35,0.046517576482122,0.0006708073638402798,-0.0003513418086354316,-0.2156241886702419,-0.41545317610813176,9.918497433989275
3340000000.0,22.35,0.04521304689734911,0.01090765909392905,-0.0007239555329781899,-0.2707563243774632,-0.3951470595019706,9.778215145871552
3345000000.0,22.35,0.0403996809485555,0.011031073119373916,-0.000660097625682377,-0.34972747458917475,-0.39445951524649514,9.719355340109553
3350000000.0,22.35,0.04292288935612559,0.0,-0.002129301687433,-0.3865125684659257,-0.2982232191632322,9.671678544511886
3355000000.0,22.35,0.042124358799663315,-0.0015437790852347853,-0.0018205458703860545,-0.26104468650164686,-0.3040139201723392,9.637834825834249
3360000000.0,22.35,0.03208458796416885,-0.0023421610270843492,-0.00017032288626702829,-0.3292237305279373,-0.5144362694720627,9.67540686526397
3365000000.0,22.35,0.022311398015827696,-0.0007181775329907179,0.0018418388661802976,-0.37248641897196416,-0.47117358102803586,9.751337899388279
3370000000.0,22.35,0.0394095345100319,-0.018435948408762556,-4.261444970584923e-05,-0.3645373744209737,-0.40770399274923996,9.934979334541794
3375000000.0,22.35,0.038078685382739556,-0.016248851585260907,-0.002129273229315738,-0.12998282777662828,-0.5003113111065132,9.94488795888728
3380000000.0,22.35,0.0335752336363265,0.004940058290607835,0.0005536041885938246,-0.2209227100062271,-0.5980162212986623,10.005807862609778
3385000000.0,22.35,0.03857266737920699,0.009432678034358946,-0.0017992813327091716,-0.34952905075829055,-0.40083541650785415,10.024348171252182
3390000000.0,22.35,0.058377701359211664,-0.0006348077417362612,-0.003790142711331888,-0.20601,-0.29724398770023985,9.958522543993125
3395000000.0,22.35,0.046716073422915595,0.01575996680564605,-0.0014585501858230807,-0.2369124891570249,-0.4223208297190083,9.844628838393389
3400000000.0,22.35,0.037709705778987364,0.012136926444384329,0.0008517135077436484,-0.3649323962455239,-0.4120183489769835,9.774683471672635
3405000000.0,22.35,0.051393634574847365,-0.0007559666989651274,-0.00040458167615146007,-0.39151637248156373,-0.23259569524235696,9.70817206772392
3410000000.0,22.35,0.04487474339893161,-0.006984052028303378,-0.001746013007075783,-0.3005782675296827,-0.34295905717349057,9.699343464940634
3415000000.0,22.35,0.029263347179766152,-0.0005429935268444777,0.0,-0.30783872865188733,-0.5032523366772234,9.744862130658221
3420000000.0,22.35,0.026083100454603027,-0.005752015341905078,-0.0005110540331531121,-0.39357600427086004,-0.40299400284724,9.813139332858794
3425000000.0,22.35,0.04969818535281106,-0.016303863130409615,-0.0027148379916878533,-0.22317650210226503,-0.32912663095076633,9.844335665265158
3430000000.0,22.35,0.04019731106015384,0.0025364355055172557,0.00029811669718024465,-0.13930399870903998,-0.4722534666236347,9.923599600129096
3435000000.0,22.35,0.03417383726183687,0.015484423425801329,0.0018524779860469983,-0.39112463327924635,-0.45263193214341935,9.895739266558492
3440000000.0,22.35,0.04964767215998012,-0.002001536334637121,-0.0002555307055917585,-0.3566901300068013,-0.26957906727149067,9.872783665910637
3445000000.0,22.35,0.051753564825582785,0.0008111708158915331,-0.0018950639776354845,-0.1840366706398667,-0.32353500446985006,9.831778333829984
3450000000.0,22.35,0.031850578973314364,0.013643078645756493,0.00010647235700163615,-0.3374649381695494,-0.4640118607941186,9.85022106701211
3455000000.0,22.35,0.041817318296934775,-0.008027511060642815,0.0007771732664029562,-0.44076175648771754,-0.3006754933615549,9.851986263126163
3460000000.0,22.35,0.05437320174084062,-0.01239241182778927,-0.002129301687433,-0.22916106234921063,-0.19188575060315752,9.782139734412699
3465000000.0,22.35,0.040664410744896164,0.0045567348281072,-0.0020547688241227286,-0.1713821133728211,-0.4813767673034677,9.802937069213872
3470000000.0,22.35,0.01752654742890233,0.007814456730187627,-0.0010646508437165,-0.3659133370029334,-0.4693079735788797,9.843550671804106
3475000000.0,22.35,0.05832450365186945,-0.0036731113387938707,-0.0010646508437165,-0.39485013758030135,-0.14617021495870214,9.905647162511471
3480000000.0,22.35,0.05224450964805213,-0.011539904153689091,-0.0010646508437165,-0.07651935189649352,-0.31902207873272076,9.857087662025876
3485000000.0,22.35,0.028209525176698582,0.017764578327552894,-0.0010327039719947146,-0.27311229537442294,-0.43585701385307013,9.810588735383888
3490000000.0,22.35,0.044967442027142056,0.0058976472778757725,-6.390112147399346e-05,-0.532876895171869,-0.2536861254765613,9.829227464421875
3495000000.0,22.35,0.05631207238532718,-0.01781803445602618,-0.003161990903366972,-0.20610816788618166,-0.18845152560981526,9.809803664227637
3500000000.0,22.35,0.04153871814897827,0.011711078122547272,-7.378030420735649e-09,-0.215821699582517,-0.39240020394990205,9.790380135966602
3505000000.0,22.35,0.02467464861586752,0.0001170303185337139,-0.0010540117238497992,-0.458619202010492,-0.42153590424125903,9.80980393616084
3510000000.0,22.35,0.053735753372642844,-0.011477017485479845,-0.0021080160696691774,-0.27840650462676503,-0.13341395467383954,9.781158395467385
3515000000.0,22.35,0.04813578724624987,-0.002416690728381507,-0.004194739143544209,-0.18903808552808085,-0.3844557434157575,9.885243451021234
3520000000.0,22.35,0.025441850206336106,0.008091420614151634,-0.0011923866843907,-0.3559080306919803,-0.43007067348710676,9.850809326512893
3525000000.0,22.35,0.046772369557459295,-0.004631327769665244,-5.322511145518694e-05,-0.4095678423444784,-0.1986507882776079,9.914476979282268
3530000000.0,22.35,0.05695120766156221,-0.012328708859132228,-0.003002337703092668,-0.17226181728361817,-0.22327587426405876,9.908688531433985
3535000000.0,22.35,0.030776236576916752,0.009997242814144953,-0.002203819794682437,-0.2208235806419358,-0.39897400459954,9.86248315668433
3540000000.0,22.35,0.03757840221999641,0.009752186803741911,-0.0011498154488630515,-0.49638806280758063,-0.267615699835957,9.840999462479495
3545000000.0,22.35,0.05579988161712644,-0.012701456442026946,-0.0030023303250622446,-0.3056779474230795,-0.13007963599679634,9.759085480283654
3550000000.0,22.35,0.045053831903701276,0.005216946286258944,-0.0022357592883738044,-0.16971210359162103,-0.27664324118083244,9.76879813790898
3555000000.0,22.35,0.027559843221961554,0.012190289630408796,-0.0011817549425544162,-0.39269616439346167,-0.3466858143096581,9.74456709284517
3560000000.0,22.35,0.04713313824273369,-0.004088394321068448,-0.00012775059673503773,-0.37866565425635657,-0.07690818724068182,9.715431392553814
3565000000.0,22.35,0.0500734962397173,-0.0063879050622992,-0.0009262537490843407,-0.22768892282058922,-0.23553969265449692,9.763108615475085
3570000000.0,22.35,0.02075905424678763,0.006430596454322299,-0.0001490435925292808,-0.31568670145856703,-0.42516671751636714,9.829816685400766
3575000000.0,22.35,0.036801313273941094,-0.005057204549619589,0.0009049607532900976,-0.45027997216119975,-0.25113433343794334,9.8977999860806
3580000000.0,22.35,0.05658650284025529,-0.013712755693766784,-0.0007239776670694522,-0.2483873224954732,-0.18285812185118122,9.932821408611614
3585000000.0,22.35,0.03843284129658454,0.0018845755803903151,-0.0019483186012123545,-0.14087104292541042,-0.3557121319551213,9.945672369634325
3590000000.0,22.35,0.034959301551047935,0.011434403035773994,-0.00038325916823553395,-0.39299090113760904,-0.3360901118799011,9.923207190805671
3595000000.0,22.35,0.05758681223058397,-0.00705880939453931,-0.0008623747617016115,-0.3400136224001362,-0.14096809394308096,9.91791
3600000000.0,22.35,0.056887208517684126,-0.0006386918514232117,-0.00191637910752099,-0.17265474133774739,-0.1608845594054456,9.808037021040471
3605000000.0,22.35,0.038561326914481345,0.014759316401714658,-0.002129301687433,-0.3310892505699925,-0.2308297901595979,9.741820149886001
3610000000.0,22.35,0.04239063297155198,0.002324633850587697,-0.0012988664194227531,-0.3749381298800813,-0.13812381832113818,9.723868129880081
3615000000.0,22.35,0.049664960509459344,-0.0037688792276593273,-0.0018844396138296253,-0.2896885276125853,-0.1381250808681508,9.729263770217038
3620000000.0,22.35,0.03413289473948369,0.0005962502584299983,-0.0013201594152169962,-0.3319710328274103,-0.2738963953406639,9.73152
3625000000.0,22.35,0.0343524964930989,-0.009049639153031652,-0.0010646508437165,-0.3605175704112757,-0.23298672547596727,9.819810844935308
3630000000.0,22.35,0.04725838741069592,-0.010412262295333045,-0.0002768015672947393,-0.26859688339086885,-0.20601,9.900056293558762
3635000000.0,22.35,0.040244567154932305,-0.002587032586726829,-0.0007772027785246391,-0.17814903515589034,-0.2919464472661645,9.932232741211028
3640000000.0,22.35,0.040814919662647546,0.006899006525647874,-0.0002980945630889824,-0.326478496863185,-0.203654398055244,9.923403458594734
3645000000.0,22.35,0.0509308866148675,-0.0010008793647770988,-0.002267729348191259,-0.3088179504029795,-0.14302965840049658,9.883084146001242
3650000000.0,22.35,0.049860519905583614,0.002874641914583599,-0.0017034259614829809,-0.23347757461877575,-0.15794121269061212,9.848258787309389
3655000000.0,22.35,0.04278983414558446,0.011530222570852478,0.00040458273015580594,-0.32412353590383536,-0.1735389709939897,9.792047203042072
3660000000.0,22.35,0.04482987545337688,0.0044288472108072515,-0.0011072600234005943,-0.3794508710911087,-0.10320041799780418,9.757418257817783
3665000000.0,22.35,0.044727878502500165,-0.004279942746851593,-0.0007026541051491802,-0.3168622881177229,-0.10810662712936628,9.731421686435317
3670000000.0,22.35,0.03383065577947067,-0.003577195889319914,-0.0014053545864895767,-0.31038868514138684,-0.21817539799485397,9.786456712853468
3675000000.0,22.35,0.029455056868214168,-0.004205394073476131,-0.003513363278128398,-0.30460028585260285,-0.23298714308767143,9.883575713824657
3680000000.0,22.35,0.04210376450507773,-0.0066860228134837905,-0.001533066185063855,-0.26290764260207644,-0.1781491711224917,9.911631528520415
3685000000.0,22.35,0.04631489849615488,-0.002086653509588184,-0.0006707377995534237,-0.22670888526988886,-0.15696,9.901919628423295
3690000000.0,22.35,0.043412606125301935,0.004365107351998135,-0.0010646508437165,-0.2523136300429363,-0.15087772832617727,9.861796369957064
3695000000.0,22.35,0.04716024730362318,0.00703734986605838,-0.0017140956474756806,-0.29263251531282514,-0.12321331291623314,9.845414171770942
3700000000.0,22.35,0.04239744446599747,0.004897362682567404,-0.002129301687433,-0.32765428747224284,-0.10202392813193929,9.784493209451332
3705000000.0,22.35,0.04231574485694089,0.0025658007231846034,-0.00024484626353818754,-0.36071391589553914,-0.07494811213928113,9.73554202803482
3710000000.0,22.35,0.040247222036370586,-0.0021932354830418274,-0.0020228757066226375,-0.32157115143931153,-0.1157587206229872,9.77134910443609
3715000000.0,22.35,0.033788146730199406,-0.004109536594241254,-0.001831168126183265,-0.3124488607970886,-0.1849188607970886,9.80019
3720000000.0,22.35,0.0367266771182049,-0.003790164845423173,0.0,-0.3555146890261469,-0.1620606219477062,9.84963305030883
3725000000.0,22.35,0.04458274550799653,-0.010114261538630834,-0.0005855658163764514,-0.2810552699878527,-0.12753,9.899271144707312
3730000000.0,22.35,0.04391033441606843,-0.0034067254424445265,-0.0010646508437165,-0.17952263774612637,-0.1699097796061978,9.91869494490155
3735000000.0,22.35,0.03934563971258403,0.012039883642229429,-0.0010646508437165,-0.28694431369734313,-0.16441501961685018,9.901723137260532
3740000000.0,22.35,0.04444384905720709,0.00929202243303755,-0.003279156134456951,-0.37160236412992365,-0.045909637679796375,9.837859818839899
3745000000.0,22.35,0.0500734962397173,0.0010433420378570695,-0.0031513349194307373,-0.3033246180629462,-0.02060172742131727,9.790183654515737
3750000000.0,22.35,0.03888576959915849,0.0015969999806725807,-0.0021293174974982374,-0.3286359469102595,-0.13243594691025948,9.751139562964497
3755000000.0,22.35,0.031871869861099925,-0.0009795421008003237,-0.0021505788731621066,-0.3875930270636303,-0.11448146008171461,9.740937891745478
3760000000.0,22.35,0.04184540333129097,-0.0068563752118725495,-0.0010646508437165,-0.3213746505646465,-0.020012253933022542,9.751532253933021
3765000000.0,22.35,0.03942929621029927,-0.004013662250936848,-0.001565044676915979,-0.23200613434696135,-0.10663623574276238,9.759773092522432
3770000000.0,22.35,0.028358434910675884,0.0035133875202283792,-0.002129301687433,-0.2872381180990812,-0.18423128740591288,9.825696732277267
3775000000.0,22.35,0.03670269608303235,-0.00031950666137432835,-0.001171100012622528,-0.36934628002546277,-0.08093140012731401,9.891913719974537
3780000000.0,22.35,0.048071936716984426,-0.005238026373175367,-0.0009369086790162287,-0.25819758471677584,-0.05179768106357681,9.912416473421963
3785000000.0,22.35,0.040004921037818685,0.005344658938837615,-0.0012136860042110142,-0.23014421741984215,-0.11772,9.88416301184733
3790000000.0,22.35,0.03715991708612541,0.007580202156320591,0.0,-0.35728027361620274,-0.06827671660556717,9.851790820848608
3795000000.0,22.35,0.04756095224811818,-0.0041202547644338715,-0.0008730296916334995,-0.31470391544013915,0.0,9.832660436580104
3800000000.0,22.35,0.043252621224676435,-0.0021291815309376766,-0.0008516966436741154,-0.27271851667308517,-0.058861107156611074,9.772721852379119
3805000000.0,22.35,0.03426729499780026,0.004130781105835568,0.0010646508437165,-0.34070181735291816,-0.08976039138660391,9.783905843445359
3810000000.0,22.35,0.042695419995710436,-0.003087527604343502,-0.00014907521265965533,-0.3415833859485338,0.03355086604210866,9.793714881967249
3815000000.0,22.35,0.04813991581582995,-0.0028425453742447165,-0.0013414439789764727,-0.2383822589820226,-0.00971390074853902,9.754769774101797
3820000000.0,22.35,0.03327701680873341,0.004727081956474205,-0.00038328235633114204,-0.2754668775696688,-0.16245330320433302,9.775076696795667
3825000000.0,22.35,0.030579218680680545,-0.0014968134809655856,-0.0014372867021505205,-0.42035783133567833,-0.0652349397832494,9.844826465848465
3830000000.0,22.35,0.044361001170891375,-0.014490689778519875,-0.002491291047969933,-0.28625408895744087,0.041986204854762045,9.894365256068452
3835000000.0,22.35,0.03697137898314773,-0.00042569865321992126,-0.0017885810805904573,-0.1891379918443799,-0.06484536633465365,9.842569497961096
3840000000.0,22.35,0.030764642511833997,0.008730015497175002,0.00038325811423118824,-0.3319712950487129,-0.12635160660171604,9.878277823762177
3845000000.0,22.35,0.042566441345682396,-0.0034495011548151995,-0.0013947007105620344,-0.35119650630976507,0.019915270898652707,9.877001777208417
3850000000.0,22.35,0.049216409590606164,-0.002235661265969713,-0.0011710915805877614,-0.21287692521836926,0.03139005567760056,9.838449224344892
3855000000.0,22.35,0.03388390724103448,0.008378826519169632,0.0007558939726652087,-0.25721954781749545,-0.11016532657625328,9.836290200970002
3860000000.0,22.35,0.03302671992586902,0.005578632093544347,0.0,-0.371602500096525,0.0408112494691125,9.769582500096526
3865000000.0,22.35,0.049323446652034524,-0.006015236529730406,-0.0005749277505140963,-0.290374498540245,0.153819598832196,9.725437349562073
3870000000.0,22.35,0.03600248865026626,0.002857949094838635,-0.0015756669327131466,-0.20071417857224177,-0.009222828232028288,9.702875401360854
3875000000.0,22.35,0.022641357238299523,0.011990256625150738,-0.0005323417589256102,-0.3850434784739348,-0.07847789251767892,9.76585515053445
3880000000.0,22.35,0.03494235347218484,-0.0077975803236200476,-0.002640350450564391,-0.41241021443400216,0.10398524635655246,9.801760278279103
3885000000.0,22.35,0.044522429832846835,-0.016738915294654627,-0.003279091840191829,-0.20071275092292754,-0.020210260152202602,9.880141877307318
3890000000.0,22.35,0.021906658239024396,0.003066227230518806,-0.00023423138577144048,-0.24387758226157583,-0.1626489688555897,9.935176204468661
3895000000.0,22.35,0.027180616173269077,0.0021397921926869937,-0.001288235731590819,-0.33510929737719297,-0.022855257296052568,9.977848419098684
3900000000.0,22.35,0.05262863360093529,-0.00979463155874811,-0.0012775481275242103,-0.2570201819323018,0.15303471220204712,9.88063093946051
3905000000.0,22.35,0.045012882677189295,0.008616432135706025,0.0017247179032728482,-0.13018120304801203,-0.006475661899156625,9.778215903399758
3910000000.0,22.35,0.026506098161211196,0.01600527657191503,0.0,-0.40299525568235256,-0.06650959753529598,9.801170620264706
3915000000.0,22.35,0.04210614261534213,0.0024029621489896546,-0.0005429966888575152,-0.4245755832931558,0.1751088802208888,9.757614447911644
3920000000.0,22.35,0.04598224601611939,-0.012960616568386709,-0.002342190539206028,-0.2770335624457356,0.17657809646758096,9.724063562445735
3925000000.0,22.35,0.023705893195542324,0.007239559545799537,0.002129301687433,-0.2290657109140571,-0.03237315247683153,9.649607338622573
3930000000.0,22.35,0.022013297128712608,-0.001192475220755787,0.0018311828822440636,-0.45165133130251334,-0.01883352061823521,9.750944334348743
3935000000.0,22.35,0.03885588289124249,-0.009347684177916406,-0.000692064523486759,-0.31440935351019356,0.14381322421223225,9.818927635028576
3940000000.0,22.35,0.032978902219561804,-0.01222201726922669,-0.00468442218458155,-0.19934004182750042,-0.018050935708409356,9.885733659178637
3945000000.0,22.35,0.018808665425531217,0.006398476725887747,-0.000468479635612425,-0.2953791766268918,-0.06984658698486587,9.942925883134459
3950000000.0,22.35,0.03430105584555873,-0.0012775143993851244,-0.0038327097308421616,-0.29724246293192463,0.01373507413615074,9.980693539655935
3955000000.0,22.35,0.04466339897454295,0.00600459740986374,-0.00028748073932659024,-0.23544,0.125861301325313,9.920656185430962
3960000000.0,22.35,0.03310680986294444,0.0031514666699739066,-0.0029384112855143753,-0.24485852301898525,0.014519261509492613,9.840606353899263
3965000000.0,22.35,0.034533483795336925,0.013712569134997587,-7.453391731461735e-05,-0.3524732229846322,0.07347743910757439,9.746137439107574
3970000000.0,22.35,0.03996308599840851,-0.0018098645903455149,-0.0011285382631339958,-0.3392292602125926,0.13380793732507937,9.803524551762646
3975000000.0,22.35,0.03158429215337347,0.0028745070020273445,-0.002129301687433,-0.2800763493056635,0.07798942279039422,9.703561731628817
3980000000.0,22.35,0.024887772510609592,-0.0032791413783961093,-0.0020441128401864944,-0.37748779501257795,0.07063238653362386,9.730342568079825
3985000000.0,22.35,0.03405433236572307,-0.005099618738499775,0.0,-0.25447124519231246,0.11742562259615623,9.702678754807687
3990000000.0,22.35,0.03278731374161359,0.0022571102544070637,-2.1301427829009637e-05,-0.23799160751251608,0.10516211498652116,9.722102555001925
3995000000.0,22.35,0.021385054676373923,0.008346727870822085,-0.0010539959137846118,-0.36287182240191823,-0.02795733602877336,9.742606308775063
4000000000.0,22.35,0.028763042936936035,-0.008517265912205745,8.432034766555027e-09,-0.35315937843839373,0.11771906765759069,9.868860543866406
4005000000.0,22.35,0.03087105162857489,-0.01591257509270918,0.001054012777854145,-0.27546417766144177,0.001176266492162667,9.936843844546239
4010000000.0,22.35,0.025675496360514288,0.0017671151762471415,2.1284563759476488e-05,-0.20738285477392854,0.03845551155775512,9.956757755778877
4015000000.0,22.35,0.028667232887896705,-0.0030342972228666067,0.0,-0.35826244778492444,-0.046402001879020036,9.976181555973115
4020000000.0,22.35,0.0338733924936806,-0.00012773267866116305,0.0,-0.24995786299587863,0.20522730825927307,9.910846253414261
4025000000.0,22.35,0.040154841009043436,0.0,-0.005057133931328484,-0.28252831272318313,0.02942843638408435,9.926739156361592
4030000000.0,22.35,0.022460140163114078,0.00700546201857995,-0.0003193527767398254,-0.21071817377668173,0.12105626105706262,9.780176347553363
4035000000.0,22.35,0.04210327976675127,0.014383492439315889,0.0,-0.4249710810008108,0.20051702700027027,9.752513243249933
4040000000.0,22.35,0.0328937776665804,-0.006643608624603708,0.0,-0.2699697090290971,0.1518583291670833,9.678937772222778
4045000000.0,22.35,0.030988137809338928,0.006015405170425744,0.0009688407946771727,-0.3264774285541743,0.15607717856927178,9.690514357138543
4050000000.0,22.35,0.021310384792498728,-0.005003969952125324,0.00010645654693644882,-0.37768539333195394,0.07749829200248291,9.727596314665563
4055000000.0,22.35,0.02403601051866601,-0.00733545286118213,0.0018950955977658592,-0.2341633610203336,0.17344174516211747,9.679134127418942
4060000000.0,22.35,0.0273151266009579,0.0009795558028567472,-0.000681402215524424,-0.3107816674669167,0.1000612113937121,9.767621667466917
4065000000.0,22.35,0.013789368677850465,-0.006206991540365353,-0.0010646508437165,-0.28959088416900886,-0.014127347492973466,9.814709115830992
4070000000.0,22.35,0.025460293830972192,0.0026191354510917706,-0.000149042538524935,-0.3604201114938011,0.1477402601522026,9.921050148658402
4075000000.0,22.35,0.028603337036444444,-0.008410861927256534,-0.0009049618072944435,-0.3394256833920568,0.05150131272021313,9.979222895759928
4080000000.0,22.35,0.022502818907084998,-0.004386301271383895,-0.0010646508437165,-0.1934518527652185,0.054151437747314374,9.945377603754476
4085000000.0,22.35,0.02749615184735235,0.005642735583852651,-0.0001809820322162996,-0.33775996627069965,0.09957189673111896,9.945672379346224
4090000000.0,22.35,0.030509070700072742,-0.0012776672300153337,-0.0017460446272061577,-0.2440715289065153,0.15617567666005677,9.907118602783285
4095000000.0,22.35,0.0360665826545355,0.014930076907130312,-0.0004045500560210854,-0.26349707724277077,0.21444707724277076,9.810882025054921
4100000000.0,22.35,0.03131812759793671,0.004687807300965083,0.0,-0.38455311492613115,0.13930112398661126,9.751139601812095
4105000000.0,22.35,0.01889360025773032,-0.003981846075753943,-0.0025232484597352213,-0.28027034451010346,0.1874698176122982,9.7180800607959
4110000000.0,22.35,0.029274197100502032,0.009624599577680514,0.00012779275690884837,-0.3676800773091008,0.2978325579818256,9.673640600840907
4115000000.0,22.35,0.020724782085970173,-0.01158646275677204,0.00024486101959902886,-0.28890330106593304,0.08200904227399045,9.647742440142125
4120000000.0,22.35,0.016242723465764174,0.003488109299445128,0.0,-0.3147054402084544,0.18129064059930639,9.66559704007817
4125000000.0,22.35,0.021576693746530824,-0.004524931300976455,0.0,-0.4218309614781096,0.1692217788914178,9.81245402234034
4130000000.0,22.35,0.016336203301261263,-0.012733258915153374,-0.003939251652130681,-0.18265923184909227,0.10359311867823118,9.800974158237642
4135000000.0,22.35,0.016962017344865958,0.007933987388932251,-0.0029916427209955992,-0.3031314095224141,0.14558104253931042,9.802054140952242
4140000000.0,22.35,0.02348241897812436,-0.0024227265965798273,-0.0005961870181692731,-0.3684634391709344,0.1526434391709344,9.852379682487197
4145000000.0,22.35,0.020277697684573496,-0.004290481736305394,-0.0007559108367347419,-0.2236663897669639,0.09839373641843735,9.882790361023304
4150000000.0,22.35,0.017371253296863478,0.008304399056293965,0.0004258778339587407,-0.35904825704558263,0.11281540304385404,9.902214161217541
4155000000.0,22.35,0.023663427360449296,-0.009274768019042545,-0.0011392026791049962,-0.3331463087057631,0.1478369421176694,9.9081
4160000000.0,22.35,0.024461810356303203,-0.005413844578920144,-0.002129301687433,-0.2044394303638943,0.11693471518194715,9.934783523212035
4165000000.0,22.35,0.019873147628552388,0.008197899295179325,-0.0007026519971404886,-0.2982256180025562,0.0981,9.934194438199745
4170000000.0,22.35,0.025143301108192705,0.003279019113892027,-0.002810713388996602,-0.2982231900275319,0.2275936199449362,9.82412510404405
4175000000.0,22.35,0.034299280867682795,0.005855667649803821,-0.002182507826809997,-0.25211683781126837,0.25604051343380513,9.713370770150707
4180000000.0,22.35,0.018190272730197913,0.008219086890538954,-0.0024274215466263465,-0.32687025548930254,0.09731341378733413,9.701305443574455
4185000000.0,22.35,0.012147727880920275,0.0027573839311111877,-0.0011817359704762286,-0.4222230503088305,0.21739220123532202,9.724260762577208
4190000000.0,22.35,0.027457687755742654,-0.009241292979249381,0.0,-0.3661080605998806,0.30921087445710876,9.749766844157168
4195000000.0,22.35,0.01176023360227196,-0.008410653234395993,-0.00194833757329064,-0.2062047333088473,0.08485364810053647,9.725044911102948
4200000000.0,22.35,0.0012776429879153544,0.006600985742863143,-0.0012775544515503255,-0.35512501845855016,0.12753244739882447,9.760950815799609
4205000000.0,22.35,0.02374163968381576,-0.007527033926542567,-0.0012563057239385667,-0.3556104580730046,0.30312981677079814,9.829129908385399
4210000000.0,22.35,0.0249301055411551,-0.006309832489541756,-0.0039818207796496015,-0.1241927191934272,0.16127378322563782,9.79803106403221
4215000000.0,22.35,0.0032332102361954124,0.018077259930655343,-0.0022889548877073848,-0.32020265730852665,0.02943,9.816867818713177
4220000000.0,22.35,0.010315843239127015,-0.0027280545323127812,0.0005962133682779187,-0.49010686228406863,0.24368359676903598,9.902999455747494
4225000000.0,22.35,0.029295440558091995,-0.02018288935435289,-0.00303431724894919,-0.20306322498443224,0.320295104885551,9.905156507606666
4230000000.0,22.35,0.014529562702864474,0.006951287266488037,-0.001788542082429687,-0.14303201839222018,0.04394567781835676,9.830992660535927
4235000000.0,22.35,-0.0010007539382598917,0.012581524034838986,0.0010007539382598917,-0.4208514677938147,0.05444837909278383,9.831975058078351
4240000000.0,22.35,0.02769952055174118,-0.0100169725487068,-0.0005536273766894326,-0.39082768222187686,0.39946616484886166,9.848454870572349
4245000000.0,22.35,0.03642614020242278,-0.006662396027444095,-0.0010646508437165,-0.08034134392501344,0.3088145123903452,9.74956908073549
4250000000.0,22.35,0.003202392341358079,0.02396366642497056,1.7918073879014465e-08,-0.20601462286444622,0.0392396697953967,9.638324422141944
4255000000.0,22.35,0.004427167196995062,0.017532641319175996,0.000542962960718432,-0.6008645662067457,0.2022853406342534,9.690515687668857
4260000000.0,22.35,0.024461854624485743,-0.02381425795687124,-0.001533124155302887,-0.4339892697858927,0.34060228980072293,9.794696648236167
4265000000.0,22.35,0.010549023730729419,-0.01601049375519682,-0.0016927678695380784,-0.1361631313700313,0.16922042893730432,9.791556868629968
4270000000.0,22.35,-0.005408408283685747,0.008857823010144636,0.0,-0.3329546346454464,0.06631609763776097,9.802348780577388
4275000000.0,22.35,0.010601409388198825,-0.0024488231048682696,-0.0009582037828191635,-0.411527091934371,0.20404999288189993,9.857088332146983
4280000000.0,22.35,0.023610016744229263,-0.005961954502040622,-0.002129301687433,-0.22916110119681102,0.21699495538564956,9.913201865070919
4285000000.0,22.35,0.009261610502661013,0.002289044478076779,-0.0012136838962023225,-0.2594757484647575,0.08554353292393532,9.944494850307048
4290000000.0,22.35,0.011910389221222376,0.0030874422299915303,0.0,-0.33098915001569146,0.24387934982739354,9.902998300031383
4295000000.0,22.35,0.028518129217119673,0.0017460635992844233,-0.0013095476994633276,-0.2576094320468943,0.35119633149556334,9.796460698346007
4300000000.0,22.35,0.013424791460184434,0.008517297394106,-0.001916344325377638,-0.2432894198797942,0.14911016250850162,9.700128167044682
4305000000.0,22.35,0.0006708843061575265,0.01116810567578971,0.000830445808053705,-0.4389995904864959,0.1535294266810943,9.73485590171676
4310000000.0,22.35,0.016572708554539333,-0.006416093959280425,0.0005109960629140762,-0.4581240699197407,0.3517863488502635,9.763304232566842
4315000000.0,22.35,0.015043647033069282,-0.016502227785018454,-0.001341441870967781,-0.19443302660823025,0.24279540465755406,9.729361297117812
4320000000.0,22.35,-0.0033643513057294997,0.0031514666699740106,0.0,-0.22798725296777256,0.08829,9.745255258662253
4325000000.0,22.35,0.0022421126192254124,0.0031937701883977933,0.0,-0.37621190384921904,0.1912975202380752,9.832562831984129
4330000000.0,22.35,0.019883828908592922,-0.001958738488175219,0.0,-0.23504709536967097,0.35590612715956127,9.779784190739342
4335000000.0,22.35,0.010391810826975809,0.012797048312166694,-0.00035134391664412324,-0.26742245244782453,0.21022585813695854,9.721514305213043
4340000000.0,22.35,-0.005408371393533626,0.0020439557935390444,-0.0010646508437165,-0.41202,0.07612711738727118,9.814317833087978
4345000000.0,22.35,0.005211727323265032,-0.013366824555964985,-0.0010646508437165,-0.36640223405382233,0.22052947517129476,9.939884737585649
4350000000.0,22.35,0.01470427041999762,-0.011616755463706312,-0.0007452464207637413,-0.21778064810350647,0.23936298607762985,9.911041394622915
4355000000.0,22.35,0.0033323295996991594,0.005392323399824362,-0.00030875792505563707,-0.17334464558494644,0.17118492295324922,9.7748800308187
4360000000.0,22.35,0.004940099396777343,0.011808768895472258,-0.0007665394165579844,-0.32529934593669346,0.22798507750215077,9.771937538751075
4365000000.0,22.35,0.014617646882770105,0.002501975490023524,-0.000287464929261394,-0.2882172912906729,0.2791924304302243,9.773702152151122
4370000000.0,22.35,0.010241821360579328,0.007495178787756342,-0.001618287706445071,-0.28861164299411646,0.26487,9.694437945353979
4375000000.0,22.35,0.0013308596673358047,0.00479072590088788,-0.002395436730748122,-0.4095674150208741,0.25260707510437075,9.687375509874755
4380000000.0,22.35,0.003534576169592446,-0.0127758101245984,0.0,-0.36689272385632726,0.19933860446628604,9.759773820914939
4385000000.0,22.35,-0.0026190595627788387,-0.012041173311579653,-0.0007346368130187464,-0.2685983110401831,0.1426372296532723,9.86052192586682
4390000000.0,22.35,-0.0026189762964355517,-0.009113392713897205,-0.002725487651598005,-0.2901788620246886,0.14911285270482852,9.896131714729517
4395000000.0,22.35,0.004311882240542965,-0.00432235271971431,-0.0010646508437165,-0.21013037073520371,0.22150962926479628,9.892600370735202
4400000000.0,22.35,0.00787838841778765,0.00809137423796037,-0.0008517113997349567,-0.24328876918248768,0.20208582907055828,9.904175829070558
4405000000.0,22.35,0.006132426002920406,0.009230457814574392,0.0,-0.3176479711236797,0.21062181230391813,9.8791600721908
4410000000.0,22.35,0.009965150489823419,0.0030023060829622817,-0.0007665857927492184,-0.3300082286820823,0.3086223430231234,9.82353702906937
4415000000.0,22.35,0.009177159976819314,0.0019483017371428213,-0.004077603424575921,-0.3105844284878443,0.26781214243922147,9.746136642731766
4420000000.0,22.35,-0.002682892173970413,0.001235004296109557,-0.002682892173970413,-0.3068574868255749,0.18952937170639372,9.727988743412787
4425000000.0,22.35,0.001916483453951286,0.0006919390969695504,0.0,-0.36100731239747313,0.22808378925473788,9.759478414049683
4430000000.0,22.35,0.010987084645412577,-0.007005374536219244,-0.00014906045659881395,-0.28193862557308624,0.33255770928847705,9.738778625573087
4435000000.0,22.35,-0.0012457256283152707,-0.0030128777465508287,-0.0009262368850148075,-0.21748847530098475,0.19453152469901525,9.673053089156431
4440000000.0,22.35,-0.008815252828621351,0.00442888199295068,-0.00025553492160914173,-0.30607286241672865,0.12949286241672864,9.7542801486584
4445000000.0,22.35,-0.0019056219391676134,-0.0023635436132479096,-0.002012180724525551,-0.3816081366120814,0.22229511803275118,9.851398372677584
4450000000.0,22.35,0.007239513169608327,-0.004045654444845434,-0.0009581763787061721,-0.2923378271281783,0.2638880492049805,9.86787891356409
4455000000.0,22.35,-0.004833571177545364,-0.0023209576216594212,-0.0002874839013396277,-0.2773289595990896,0.16058909426879095,9.86523090573121
4460000000.0,22.35,-0.009709512275788437,-0.004003058967217837,-0.0031939525311496,-0.30332511336985113,0.10437909304119093,9.931644433150746
4465000000.0,22.35,0.0018100005569061596,-0.0009901158723975368,-0.00289581264587374,-0.29155285309092854,0.1827610805454108,9.971962492909125
4470000000.0,22.35,0.01126393996692899,0.000511107787374751,0.0010007623702946583,-0.25623737364877375,0.26428131317561315,9.899269697634196
4475000000.0,22.35,0.004045635472767214,0.008357480823158134,5.324197552472008e-05,-0.2786046953720469,0.2530976523139765,9.760459413078493
4480000000.0,22.35,0.0,0.005067681352817101,0.0010220553660889014,-0.3527675129813751,0.21660497403724976,9.75192497403725
4485000000.0,22.35,3.1948979730477e-05,-0.001032701863986023,3.1948979730477e-05,-0.3424668386527684,0.2366175484629755,9.770171225768511
4490000000.0,22.35,0.0009794409163830762,-4.260496366671092e-05,0.0010007433982164337,-0.3137237127871371,0.2738948511485485,9.750158563935685
4495000000.0,22.35,-0.0032578884347670054,-0.002129301687433,-0.002107989719560532,-0.30420818730998184,0.23494906345009064,9.702777311169873
4500000000.0,22.35,-0.009581829135331463,-0.002129320659511225,0.0,-0.31391982518579825,0.18639017481420175,9.770760174814201
4505000000.0,22.35,-0.006419816097873229,-0.00423732935115008,0.0,-0.29449602499156025,0.20581397500843976,9.790183975008441
4510000000.0,22.35,-0.0032578030604149943,-8.513403902052526e-05,0.0,-0.2654583371959834,0.2444655504053555,9.761538337195983
4515000000.0,22.35,-0.0011285108590210072,0.005163604180321433,0.0,-0.27438578769845784,0.23573421230154212,9.770465787698457
4520000000.0,22.35,-0.00719709687271945,0.004301179880415477,0.0,-0.36885687795576877,0.17893387322653873,9.836683814569039
4525000000.0,22.35,-0.006441128065745695,-0.0048442471875642275,0.0,-0.30754288475112884,0.2324975273561753,9.858069175785392
4530000000.0,22.35,-0.002384779692807479,-0.0033216915338368396,0.0,-0.2764455360305553,0.28154743994907444,9.812942560050926
4535000000.0,22.35,-0.00906024559876361,0.0027468565357051554,0.0,-0.2655566119130661,0.21150289530452895,9.73701289530453
4540000000.0,22.35,-0.01252032263318481,0.0041734408777282395,0.0,-0.3190217291043173,0.25113644092026444,9.740545288184052
4545000000.0,22.35,-0.002118549789101332,0.0003832359801399349,0.0,-0.3326571882811719,0.2818415648435157,9.74133
4550000000.0,22.35,-0.011604799702345226,0.0,0.0,-0.2717363813519638,0.19619911621709116,9.758988176756581
4555000000.0,22.35,-0.01563399027101262,0.0018950977057745509,0.0,-0.3434488962786889,0.1340040691475407,9.822066919327868
4560000000.0,22.35,-0.008476638053346617,-0.007239721862468802,0.0,-0.3876915542901156,0.17932733143517332,9.941847551442876
4565000000.0,22.35,-0.001895020763457332,-0.011295974321011483,0.0,-0.23023901527669013,0.20345957733929576,9.991289154678592
4570000000.0,22.35,-0.0038114789213043176,0.001107371747861281,0.0,-0.2144466887667669,0.1553898673993987,9.937333178632633
4575000000.0,22.35,-0.006973491958762553,0.004098915392448389,0.0,-0.24917435545554356,0.22219729977497302,9.827656933633369
4580000000.0,22.35,0.000596291364599477,0.006941552465071187,0.0,-0.2468195110389951,0.34256635649306355,9.72759511038995
4585000000.0,22.35,-0.00405638737109899,0.013638244964547772,0.0,-0.29410433434874333,0.33040044376750444,9.622333720360636
4590000000.0,22.35,-0.014067799753142608,0.008793948238779282,0.0,-0.3684643132419431,0.2271985301370853,9.563768554223786
4595000000.0,22.35,-0.015987215948268,0.0005535409483331125,0.0,-0.44615951401889514,0.2536871355141713,9.642348081775982
4600000000.0,22.35,-0.02024586780733407,-0.019816681816587727,0.0,-0.34334865975778656,0.19423719585467195,9.780571340242213
4605000000.0,22.35,-0.0246748056625151,-0.019457919454503786,0.0,-0.22867011608740118,0.11458008442720084,9.81
4610000000.0,22.35,-0.020586449285603037,-0.008968092772016701,0.0,-0.20601,0.14401133726231335,9.87121511634975
4615000000.0,22.35,-0.006870866112866608,0.0034495854751629106,0.0,-0.1909024207183242,0.19472894820418948,9.858264841436648
4620000000.0,22.35,-0.0023848081509248286,0.015301757906742094,0.0,-0.28331396659343966,0.22092137947591378,9.841784310262042
4625000000.0,22.35,-0.010114280510709037,0.007722955036223738,0.0,-0.41692625769106256,0.18148446098954463,9.876217949175379
4630000000.0,22.35,-0.013563661509028926,-0.005195613238299623,0.0,-0.3931840805424408,0.1740294899321949,9.910258469796585
4635000000.0,22.35,-0.013063256081781596,-0.010071616522799035,0.0,-0.2868433196482332,0.16941860997068608,9.88210304985343
4640000000.0,22.35,-0.016621168598740882,-0.0037474829394392286,0.0,-0.2338701296207013,0.2091497407585974,9.833543549367835
4645000000.0,22.35,-0.009033182948622888,0.005738556172935502,0.0,-0.23956038044710382,0.22563,9.78498404888224
4650000000.0,22.35,-0.009049581182792671,0.010753002928258268,0.0,-0.2864525419240254,0.18442745807597458,9.708956187113962
4655000000.0,22.35,-0.013584984016944846,0.006568827016267781,0.0,-0.36503091376010915,0.20061495208894953,9.72985293292453
4660000000.0,22.35,-0.014181139414983777,-0.002981120595611334,0.0,-0.36571643794036435,0.289199795663998,9.764481781029817
4665000000.0,22.35,-0.017418784331267305,-0.00781455686060047,0.0,-0.2874320938797209,0.23828372204363724,9.731323256327832
4670000000.0,22.35,-0.02761332129445969,-8.505393469027817e-05,0.0,-0.27448407212744075,0.07965556723535566,9.750748144254882
4675000000.0,22.35,-0.027112748280521397,-0.0005856269486285391,0.0,-0.3737622712877227,0.08338590806265908,9.872785452900255
4680000000.0,22.35,-0.015635229158087974,-0.014107305287439765,0.0,-0.3213741455458414,0.20561887264738876,9.95283396361354
4685000000.0,22.35,-0.009305028622041106,-0.00883224515838822,0.0,-0.12890139798891398,0.21179726299647264,9.911336480995464
4690000000.0,22.35,-0.013808775230489602,0.011083387709304414,0.0,-0.16461353085483532,0.08907334243803343,9.83609396231664
4695000000.0,22.35,-0.019000207527288277,0.01853172156764973,0.0,-0.3850447798685478,0.13116125031061251,9.804015808805259
4700000000.0,22.35,-0.008098139321657176,0.0027748355648702615,0.0,-0.4571456348325564,0.3256940084209401,9.806076091291862
4705000000.0,22.35,-0.008166000907657475,-0.008708863737963018,0.0,-0.27359824971958246,0.3252001291653013,9.73475611194326
4710000000.0,22.35,-0.02558322498419657,0.0009157685138521769,0.0,-0.21954880634708807,0.1112429298753293,9.659710434055604
4715000000.0,22.35,-0.03287255845109037,0.006089763069014641,0.0,-0.3934812064140121,0.04473433266574333,9.721515082165052
4720000000.0,22.35,-0.021215344996012252,-0.01006031676683139,0.0,-0.4026009331146093,0.24878444209044442,9.813532150082022
4725000000.0,22.35,-0.011019106351442915,-0.014274055600058486,0.0,-0.18785902200869023,0.3016561233381612,9.817847632890176
4730000000.0,22.35,-0.022814475344091645,0.003556143206516583,0.0,-0.16402485374234854,0.050027784389877816,9.7790000325017
4735000000.0,22.35,-0.035214830148631054,0.011583361253951294,0.0,-0.3960323671791237,0.006476623377266233,9.81294391971694
4740000000.0,22.35,-0.01572225416729873,-0.0031515963125085186,0.0,-0.4328154506925545,0.30175909861489103,9.904961628619317
4745000000.0,22.35,-0.003864812595207194,-0.009475292484064727,0.0,-0.1882510428561104,0.3205878506901785,9.877295309676954
4750000000.0,22.35,-0.03036037314926534,0.009590844742930486,0.0,-0.166772398839324,0.019617232108472327,9.775664354158643
4755000000.0,22.35,-0.03910947628501041,0.013519129773581792,0.0,-0.4577377402457774,0.06474969440679693,9.799013908322038
4760000000.0,22.35,-0.011336639432876681,-0.014189868143334356,-0.002555212195526557,-0.39710426959284273,0.3355033868593339,9.868467784914577
4765000000.0,22.35,-0.008632176386097416,-0.012997588587254194,-0.002320878571333582,-0.07798811168388112,0.19531274994282752,9.800286526575064
4770000000.0,22.35,-0.03733108886058106,0.020854123469001912,0.002044149730338644,-0.2707615590916156,-0.02648653674236537,9.72543807795458
4775000000.0,22.35,-0.03147921802816974,0.008678115891217829,0.0017566436949077724,-0.5532832580108326,0.18982748819177486,9.811963483978335
4780000000.0,22.35,-0.008389468801049356,-0.023312033905600913,-0.000936912895033612,-0.2813458791744588,0.2707527503982275,9.889657014308469
4785000000.0,22.35,-0.0288248856397589,-0.0038879648028311495,-0.0007558718385739466,-0.10830500240075001,-0.01432464474344644,9.85757803528558
4790000000.0,22.35,-0.04001553861107197,0.014936335723165892,0.0019589777471616682,-0.4008396703200967,0.06043406592014064,9.850221465200015
4795000000.0,22.35,-0.00888922250803585,-0.006416576468646946,-0.0011712170071049369,-0.38346815000678147,0.32549561372575614,9.862581227451512
4800000000.0,22.35,-0.01129272563771511,-0.0031970381202326183,-0.0040455922585890605,-0.10398637293696372,0.16480445709884453,9.79626497442335
4805000000.0,22.35,-0.0394095345100319,0.020714225178442427,0.0010646508437165,-0.3150036732366367,0.025311853289918522,9.75447595998816
4810000000.0,22.35,-0.02564726844809353,0.0031338867759812296,0.0010646508437165,-0.49638319714563195,0.22406208171262082,9.779196319714563
4815000000.0,22.35,-0.010685098698278866,-0.012243600150773578,0.0006707198814795447,-0.25947309711603095,0.22464619423206195,9.764579793525597
4820000000.0,22.35,-0.03341145127899428,0.0031939525311496,-0.0007665689286796674,-0.2585940341906403,0.014518144640981445,9.784886774490868
4825000000.0,22.35,-0.0414434511368009,-0.004637553583269633,-0.0025019396538757473,-0.3771932816421328,0.06671062415540624,9.813433593719836
4830000000.0,22.35,-0.01908993994536696,-0.010849430416499125,-0.002107978125512794,-0.22759012366090126,0.22523703709827037,9.81313901236609
4835000000.0,22.35,-0.019787237427643135,0.008842463678684697,0.0007026899412969381,-0.16932266610962665,0.08603078866370788,9.790477818257779
4840000000.0,22.35,-0.03698208977530995,0.010871153636132834,0.0014479047419303048,-0.364148704179087,-0.01412329763063297,9.789595764067156
4845000000.0,22.35,-0.025829570231980858,-0.0036305717233966095,-0.0009901559245627089,-0.41613850605038505,0.2425043292997433,9.832661194108312
4850000000.0,22.35,-0.01831757827791764,-0.00883650998826784,-0.0028745470541924655,-0.22660883327508835,0.1765752897284529,9.830600717383707
4855000000.0,22.35,-0.04459947644468561,0.005594734411674362,-0.001511783729313034,-0.1938497493121975,-0.10987011394900113,9.81284499430255
4860000000.0,22.35,-0.037926395093971166,0.01018524942247219,-0.00029811248116286135,-0.48932242240132423,0.07338031039470311,9.869254099194041
4865000000.0,22.35,-0.01720955223526023,-0.023759064552775894,-0.0010646508437165,-0.32598148066381477,0.15990205503212054,9.964604466038544
4870000000.0,22.35,-0.02703842516407597,-0.0035212630579791217,-0.00023419238761064512,-0.057686394568463945,0.06278305406093054,9.868467221624371
4875000000.0,22.35,-0.03568319489776977,0.021838041588500966,0.0015969557124900064,-0.3531607575282076,0.019621136292311363,9.834524810617948
4880000000.0,22.35,-0.02398892358294571,-0.005450888874839702,0.0,-0.3484486407200864,0.1714813592799136,9.800974041694841
4885000000.0,22.35,-0.009724595855521222,0.006956297709409065,0.0,-0.19904708236107083,0.2667294403925944,9.732304420458943
4890000000.0,22.35,-0.0393709739165489,0.01270410714200537,-0.0007027004813404183,-0.38357147491191473,-0.058073870246638695,9.695615115052851
4895000000.0,22.35,-0.04582846304985219,-0.0016183931068797107,-0.0025231915435005472,-0.4280105852385058,0.09849468190804683,9.699442536033526
4900000000.0,22.35,-0.018102761755868765,-0.013844055088576716,0.0,-0.37670038328840383,0.2079682881117829,9.80019
4905000000.0,22.35,-0.03778406943140321,-0.01407443441676068,0.00020229400008876748,-0.12135189129601891,-0.07946004726260048,9.79646200945252
4910000000.0,22.35,-0.04459781108326166,0.016707788351920033,0.001256298345908146,-0.33589611667546115,0.022956639821166396,9.796463058337732
4915000000.0,22.35,-0.02341841667223312,-0.0055256104049278216,0.0015862986745494266,-0.41231038581290386,0.13753677280786772,9.857185431724155
4920000000.0,22.35,-0.021523607763649286,-0.0064273768857360395,-0.0010646508437165,-0.10830421573684215,0.13772943748199437,9.801759695565098
4925000000.0,22.35,-0.04084952475060826,0.018752523866772328,-0.0012243588522167813,-0.30313148721761485,-0.09711766072897661,9.818829573973296
4930000000.0,22.35,-0.044534556446584384,0.0008277449996719416,-0.0018311786662266803,-0.4910865890539659,0.04296942790869428,9.87984796607468
4935000000.0,22.35,-0.01954333702069338,-0.018859400097504808,-0.00013841501270603823,-0.29351366629673664,0.155780499445105,9.946064604143547
4940000000.0,22.35,-0.03723773009735367,-0.008048635415741752,-0.0009368823289075832,-0.1769740312107403,-0.0549364797678648,9.931643520232136
4945000000.0,22.35,-0.04239034839037861,0.003076830514237794,0.00011712201691179515,-0.32049241184792415,-0.07327849083408491,9.886321607898616
4950000000.0,22.35,-0.02226679564481063,0.0025552037634917145,0.0006387487676577956,-0.2884134231131342,0.12753,9.855124653930647
4955000000.0,22.35,-0.01468342990308543,0.0073477662410340655,-0.002906465467796935,-0.23720599248985993,0.10987007510140076,9.72622202253042
4960000000.0,22.35,-0.043369868357087664,0.016709740264295964,0.00017036504644086104,-0.27546730489327304,-0.04512310973853109,9.67344489634205
4965000000.0,22.35,-0.02740023112785675,0.010613043488167884,0.001905693611463073,-0.4922632925816329,0.21532805341248054,9.685217185756672
4970000000.0,22.35,-0.024782499299535857,-0.01664601113559667,-0.0010007613162903125,-0.25506,0.07259303463713034,9.715234338100844
4975000000.0,22.35,-0.04613435104202551,0.005802231737479455,0.0,-0.2663437225683372,-0.02452596633405966,9.623611932668119
4980000000.0,22.35,-0.051477958585609974,-0.005835110901963296,-8.519306326388873e-05,-0.47166257519792576,-0.10594509808425098,9.81
4985000000.0,22.35,-0.0339584801565099,-0.017700643426103554,-0.0020654016199633542,-0.25211603172356034,0.16745369834303697,9.813827158759372
4990000000.0,22.35,-0.03031800747914257,-0.004002960944813677,4.260707167540255e-05,-0.1606896415704964,-0.12851148462381484,9.937726296924764
4995000000.0,22.35,-0.05407615599846947,0.008368008218564179,0.0020973305736112606,-0.3440373791531738,-0.17412507445295072,9.948420167240702
5000000000.0,22.35,-0.028762888879513948,-0.006387894522255742,-0.0010646613837599582,-0.4120179605009796,0.06867048559500485,10.055248834571987
5005000000.0,22.35,-0.015043553624093943,-0.005333890176436363,-0.0021186657295793367,-0.20806805846148058,0.11722998608059987,9.938706033406561
5010000000.0,22.35,-0.035789583971149355,0.010327271600903614,0.0010008034764641452,-0.12909882149408822,-0.16108302208393027,9.851004924180849
5015000000.0,22.35,-0.04241191331929405,0.018925213424764706,0.0020973727337850936,-0.5176776938246769,0.03306174561751746,9.830208405179285
5020000000.0,22.35,-0.02113990380557982,-0.013541999404368503,-0.002981075273424456,-0.3225506548355065,0.1145815800598158,9.810784604985047
5025000000.0,22.35,-0.032382966054426886,0.0012777504963585803,-0.001171094742600804,-0.18344563353565632,0.03384362155863621,9.642247243117271
5030000000.0,22.35,-0.0470489892658075,0.012137125651205664,-6.3868447339271e-05,-0.34256695863086956,-0.0996709678240097,9.697970483912005
5035000000.0,22.35,-0.03802660383144204,-0.003066364251083784,0.001980271796960215,-0.4352705801895058,0.11105154717201546,9.674719806603498
5040000000.0,22.35,-0.026505849416185587,-0.013074007980113342,0.00017032288626702818,-0.22484285049712852,0.05532761683237618,9.73583708527167
5045000000.0,22.35,-0.050774871682086165,0.002629868377345239,-0.0009688429026858643,-0.27742758394457584,-0.09378516788915167,9.687766812041568
5050000000.0,22.35,-0.04943466315171175,0.003300406970077357,0.0018099383706497282,-0.3286354904509549,-0.11673909809019098,9.814906471352865
5055000000.0,22.35,-0.04141291253583649,-0.005333996630875259,0.00023420187364975743,-0.4121189836857898,-0.0042170235649702376,9.9169299818731
5060000000.0,22.35,-0.03766347512676482,-0.016709201633517697,-0.0009369034089944997,-0.21464044117370443,-0.11968347426643476,10.00541608455986
5065000000.0,22.35,-0.04655798647309917,-0.006059993251908513,-0.0010646508437165,-0.2461335886708359,-0.145874798381548,9.998940403236904
5070000000.0,22.35,-0.03236380752110541,0.008559942409937923,0.0007665699826840133,-0.21287650760666507,-0.06278301521333016,10.004826698478668
5075000000.0,22.35,-0.02711278517067351,0.005216724945346334,-0.001650240902192905,-0.28105738718207385,-0.03237280284842803,9.88112102136321
5080000000.0,22.35,-0.030210994055057623,0.014110755907601585,0.0005536505647850405,-0.27781900265419,0.020012992037429917,9.801366509289666
5085000000.0,22.35,-0.032659669599317466,0.002717665747117619,-0.000702690995301284,-0.38053118401031183,-0.011281993850119933,9.733383208609832
5090000000.0,22.35,-0.033894653869344475,0.006984195372894409,0.000681397999507041,-0.2654569192585692,-0.0035314022657140197,9.609089815859997
5095000000.0,22.35,-0.042710059528596016,0.003342939207444163,0.00020227292000185105,-0.41025637721376373,-0.055623392749833925,9.62410099482131
5100000000.0,22.35,-0.046450214390509004,-0.003832818293289851,0.0,-0.40417140563171405,0.056899584982095866,9.649116198122762
