#timestamp [ns], temperature [degC], w_RS_S_x [rad s^-1], w_RS_S_y [rad s^-1], w_RS_S_z [rad s^-1], a_RS_S_x [m s^-2], a_RS_S_y [m s^-2], a_RS_S_z [m s^-2]
0,22.47,0.0,0.0,0.0,0.0,0.11772,9.81
5050505,22.47,0.0,0.0,0.0,0.02943,0.13734000000000002,9.80019
10101010,22.47,0.0,0.0,0.0,0.009810000000000001,0.15696000000000002,9.80019
15151515,22.47,0.0,0.0,0.0,0.05886,0.17658,9.78057
20202020,22.47,0.0,0.0,0.0,0.019620000000000002,0.17658,9.78057
25252525,22.47,0.0,0.0,0.0,0.02943,0.16677000000000003,9.78057
30303030,22.47,0.0,0.0,0.0,0.02943,0.13734000000000002,9.80019
35353535,22.47,0.0,0.0,0.0,0.02943,0.16677000000000003,9.81
40404040,22.47,0.0,0.0,0.0,0.009810000000000001,0.15696000000000002,9.79038
45454545,22.47,0.0,0.0,0.0,0.02943,0.12753,9.81
50505050,22.47,0.0,0.0,0.0,0.009810000000000001,0.15696000000000002,9.79038
55555555,22.47,0.0,0.0,0.0,0.04905,0.15696000000000002,9.79038
60606060,22.47,0.0,0.0,0.0,0.02943,0.17658,9.80019
65656565,22.47,0.0,0.0,0.0,0.009810000000000001,0.17658,9.79038
70707070,22.47,0.0,0.0,0.0,0.039240000000000004,0.14715,9.81
75757575,22.47,0.0,0.0,0.0,0.02943,0.15696000000000002,9.819809999999999
80808080,22.47,0.0,0.0,0.0,0.02943,0.14715,9.80019
85858585,22.47,0.0,0.0,0.0,0.039240000000000004,0.13734000000000002,9.79038
90909090,22.47,0.0,0.0,0.0,0.039240000000000004,0.15696000000000002,9.770760000000001
95959595,22.47,0.0,0.0,0.0,0.02943,0.15696000000000002,9.79038
101010100,22.47,0.0,0.0,0.0,0.039240000000000004,0.15696000000000002,9.79038
106060605,22.47,0.0,0.0,0.0,0.02943,0.15696000000000002,9.81
111111110,22.47,0.0,0.0,0.0,0.009810000000000001,0.17658,9.81
116161615,22.47,0.0,0.0,0.0,0.02943,0.14715,9.80019
121212120,22.47,0.0,0.0,0.0,0.039240000000000004,0.14715,9.81
126262625,22.47,0.0,0.0,0.0,0.02943,0.14715,9.81
131313130,22.47,0.0,0.0,0.0,0.009810000000000001,0.14715,9.79038
136363635,22.47,0.0,0.0,0.0,0.02943,0.15696000000000002,9.80019
141414140,22.47,0.0,0.0,0.0,0.019620000000000002,0.15696000000000002,9.78057
146464645,22.47,0.0,0.0,0.0,0.039240000000000004,0.18639,9.79038
151515150,22.47,0.0,0.0,0.0,0.039240000000000004,0.16677000000000003,9.80019
156565655,22.47,0.0,0.0,0.0,0.039240000000000004,0.14715,9.80019
161616160,22.47,0.0,0.0,0.0,0.019620000000000002,0.15696000000000002,9.81
166666665,22.47,0.0,0.0,0.0,0.02943,0.14715,9.78057
171717170,22.47,0.0,0.0,0.0,0.02943,0.15696000000000002,9.80019
176767675,22.47,0.0,0.0,0.0,0.04905,0.16677000000000003,9.79038
181818180,22.47,0.0,0.0,0.0,0.039240000000000004,0.16677000000000003,9.80019
186868685,22.47,0.0,0.0,0.0,0.05886,0.17658,9.80019
191919190,22.47,0.0,0.0,0.0,0.02943,0.15696000000000002,9.81
196969695,22.47,0.0,0.0,0.0,0.039240000000000004,0.13734000000000002,9.80019
202020200,22.47,0.0,0.0,0.0,0.04905,0.15696000000000002,9.79038
207070705,22.47,0.0,0.0,0.0,0.039240000000000004,0.13734000000000002,9.80019
212121210,22.47,0.0,0.0,0.0,0.039240000000000004,0.16677000000000003,9.819809999999999
217171715,22.47,0.0,0.0,0.0,0.02943,0.14715,9.80019
222222220,22.47,0.0,0.0,0.0,0.009810000000000001,0.17658,9.760950000000001
227272725,22.47,0.0,0.0,0.0,0.04905,0.13734000000000002,9.79038
232323230,22.47,0.0,0.0,0.0,0.039240000000000004,0.15696000000000002,9.79038
237373735,22.47,0.0,0.0,0.0,0.039240000000000004,0.15696000000000002,9.78057
242424240,22.47,0.0,0.0,0.0,0.0,0.14715,9.78057
247474745,22.47,0.0,0.0,0.0,0.019620000000000002,0.14715,9.80019
252525250,22.47,0.0,0.0,0.0,0.019620000000000002,0.15696000000000002,9.81
257575755,22.47,0.0,0.0,0.0,0.019620000000000002,0.15696000000000002,9.79038
262626260,22.47,0.0,0.0,0.0,0.04905,0.13734000000000002,9.79038
267676765,22.47,0.0,0.0,0.0,0.02943,0.15696000000000002,9.760950000000001
272727270,22.47,0.0,0.0,0.0,0.02943,0.14715,9.79038
277777775,22.47,0.0,0.0,0.0,0.05886,0.14715,9.80019
282828280,22.47,0.0,0.0,0.0,0.04905,0.15696000000000002,9.81
287878785,22.47,0.0,0.0,0.0,0.02943,0.1962,9.80019
292929290,22.47,0.0,0.0,0.0,0.039240000000000004,0.17658,9.78057
297979795,22.47,0.0,0.0,0.0,0.02943,0.13734000000000002,9.770760000000001
303030300,22.47,0.0,0.0,0.0,0.02943,0.14715,9.81
308080805,22.47,0.0,0.0,0.0,0.019620000000000002,0.18639,9.819809999999999
313131310,22.47,0.0,0.0,0.0,0.04905,0.16677000000000003,9.80019
318181815,22.47,0.0,0.0,0.0,0.04905,0.16677000000000003,9.81
323232320,22.47,0.0,0.0,0.0,0.0,0.13734000000000002,9.819809999999999
328282825,22.47,0.0,0.0,0.0,0.02943,0.11772,9.770760000000001
333333330,22.47,0.0,0.0,0.0,0.009810000000000001,0.15696000000000002,9.78057
338383835,22.47,0.0,0.0,0.0,0.019620000000000002,0.17658,9.78057
343434340,22.47,0.0,0.0,0.0,0.04905,0.18639,9.78057
348484845,22.47,0.0,0.0,0.0,0.02943,0.15696000000000002,9.79038
353535350,22.47,0.0,0.0,0.0,0.04905,0.14715,9.79038
358585855,22.47,0.0,0.0,0.0,0.039240000000000004,0.14715,9.81
363636360,22.47,0.0,0.0,0.0,0.019620000000000002,0.12753,9.80019
368686865,22.47,0.0,0.0,0.0,0.04905,0.15696000000000002,9.79038
373737370,22.47,0.0,0.0,0.0,0.039240000000000004,0.13734000000000002,9.80019
378787875,22.47,0.0,0.0,0.0,0.009810000000000001,0.17658,9.81
383838380,22.47,0.0,0.0,0.0,0.039240000000000004,0.17658,9.78057
388888885,22.47,0.0,0.0,0.0,0.039240000000000004,0.16677000000000003,9.80019
393939390,22.47,0.0,0.0,0.0,0.04905,0.14715,9.78057
398989895,22.47,0.0,0.0,0.0,0.019620000000000002,0.15696000000000002,9.78057
404040400,22.47,0.0,0.0,0.0,0.019620000000000002,0.14715,9.81
409090905,22.47,0.0,0.0,0.0,0.039240000000000004,0.14715,9.79038
414141410,22.47,0.0,0.0,0.0,0.019620000000000002,0.12753,9.79038
419191915,22.47,0.0,0.0,0.0,0.04905,0.17658,9.79038
424242420,22.47,0.0,0.0,0.0,0.039240000000000004,0.16677000000000003,9.81
429292925,22.47,0.0,0.0,0.0,0.05886,0.16677000000000003,9.81
434343430,22.47,0.0,0.0,0.0,0.019620000000000002,0.17658,9.770760000000001
439393935,22.47,0.0,0.0,0.0,0.02943,0.14715,9.81
444444440,22.47,0.0,0.0,0.0,0.039240000000000004,0.12753,9.81
449494945,22.47,0.0,0.0,0.0,0.039240000000000004,0.13734000000000002,9.80019
454545450,22.47,0.0,0.0,0.0,0.02943,0.18639,9.81
459595955,22.47,0.0,0.0,0.0,0.019620000000000002,0.17658,9.80019
464646460,22.47,0.0,0.0,0.0,0.019620000000000002,0.16677000000000003,9.79038
469696965,22.47,0.0,0.0,0.0,0.019620000000000002,0.16677000000000003,9.78057
474747470,22.47,0.0,0.0,0.0,0.039240000000000004,0.15696000000000002,9.80019
479797975,22.47,0.0,0.0,0.0,0.039240000000000004,0.16677000000000003,9.81
484848480,22.47,0.0,0.0,0.0,0.009810000000000001,0.17658,9.81
489898985,22.47,0.0,0.0,0.0,0.009810000000000001,0.14715,9.819809999999999
494949490,22.47,0.0,0.0,0.0,0.019620000000000002,0.14715,9.80019
499999995,22.47,0.0,0.0,0.0,0.02943,0.12753,9.80019
505050500,22.47,0.0,0.0,0.0,0.02943,0.14715,9.79038
510101005,22.47,0.0,0.0,0.0,0.02943,0.16677000000000003,9.79038
515151510,22.47,0.0,0.0,0.0,0.02943,0.1962,9.80019
520202015,22.47,0.0,0.0,0.0,0.02943,0.15696000000000002,9.80019
525252520,22.47,0.0,0.0,0.0,0.04905,0.15696000000000002,9.78057
530303025,22.47,0.0,0.0,0.0,0.04905,0.11772,9.81
535353530,22.47,0.0,0.0,0.0,0.019620000000000002,0.13734000000000002,9.79038
540404035,22.47,0.0,0.0,0.0,0.02943,0.16677000000000003,9.81
545454540,22.47,0.0,0.0,0.0,0.0,0.15696000000000002,9.80019
550505045,22.47,0.0,0.0,0.0,0.02943,0.16677000000000003,9.79038
555555550,22.47,0.0,0.0,0.0,0.04905,0.17658,9.78057
560606055,22.47,0.0,0.0,0.0,0.04905,0.16677000000000003,9.78057
565656560,22.47,0.0,0.0,0.0,0.02943,0.12753,9.770760000000001
570707065,22.47,0.0,0.0,0.0,0.009810000000000001,0.12753,9.80019
575757570,22.47,0.0,0.0,0.0,0.02943,0.13734000000000002,9.819809999999999
580808075,22.47,0.0,0.0,0.0,0.019620000000000002,0.15696000000000002,9.79038
585858580,22.47,0.0,0.0,0.0,0.02943,0.18639,9.80019
590909085,22.47,0.0,0.0,0.0,0.039240000000000004,0.17658,9.80019
595959590,22.47,0.0,0.0,0.0,0.02943,0.15696000000000002,9.81
601010095,22.47,0.0,0.0,0.0,0.04905,0.17658,9.770760000000001
606060600,22.47,0.0,0.0,0.0,0.02943,0.12753,9.81
611111105,22.47,0.0,0.0,0.0,0.009810000000000001,0.16677000000000003,9.81
616161610,22.47,0.0,0.0,0.0,0.009810000000000001,0.12753,9.81
621212115,22.47,0.0,0.0,0.0,0.02943,0.15696000000000002,9.80019
626262620,22.47,0.0,0.0,0.0,0.019620000000000002,0.16677000000000003,9.80019
631313125,22.47,0.0,0.0,0.0,0.02943,0.15696000000000002,9.760950000000001
636363630,22.47,0.0,0.0,0.0,0.019620000000000002,0.17658,9.760950000000001
641414135,22.47,0.0,0.0,0.0,0.06867000000000001,0.14715,9.79038
646464640,22.47,0.0,0.0,0.0,0.019620000000000002,0.16677000000000003,9.81
651515145,22.47,0.0,0.0,0.0,0.019620000000000002,0.16677000000000003,9.81
656565650,22.47,0.0,0.0,0.0,0.009810000000000001,0.15696000000000002,9.80019
661616155,22.47,0.0,0.0,0.0,0.04905,0.13734000000000002,9.79038
666666660,22.47,0.0,0.0,0.0,0.05886,0.13734000000000002,9.78057
671717165,22.47,0.0,0.0,0.0,0.019620000000000002,0.12753,9.78057
676767670,22.47,0.0,0.0,0.0,0.02943,0.15696000000000002,9.80019
681818175,22.47,0.0,0.0,0.0,0.039240000000000004,0.16677000000000003,9.81
686868680,22.47,0.0,0.0,0.0,0.02943,0.16677000000000003,9.81
691919185,22.47,0.0,0.0,0.0,0.02943,0.14715,9.81
696969690,22.47,0.0,0.0,0.0,0.02943,0.11772,9.78057
702020195,22.47,0.0,0.0,0.0,0.039240000000000004,0.15696000000000002,9.79038
707070700,22.47,0.0,0.0,0.0,0.04905,0.17658,9.80019
712121205,22.47,0.0,0.0,0.0,0.039240000000000004,0.17658,9.80019
717171710,22.47,0.0,0.0,0.0,0.02943,0.14715,9.81
722222215,22.47,0.0,0.0,0.0,0.019620000000000002,0.13734000000000002,9.80019
727272720,22.47,0.0,0.0,0.0,0.019620000000000002,0.14715,9.80019
732323225,22.47,0.0,0.0,0.0,0.0,0.12753,9.80019
737373730,22.47,0.0,0.0,0.0,0.019620000000000002,0.13734000000000002,9.80019
742424235,22.47,0.0,0.0,0.0,0.0,0.1962,9.81
747474740,22.47,0.0,0.0,0.0,0.04905,0.17658,9.81
752525245,22.47,0.0,0.0,0.0,0.039240000000000004,0.16677000000000003,9.79038
757575750,22.47,0.0,0.0,0.0,0.02943,0.18639,9.80019
762626255,22.47,0.0,0.0,0.0,0.009810000000000001,0.15696000000000002,9.80019
767676760,22.47,0.0,0.0,0.0,0.009810000000000001,0.13734000000000002,9.78057
772727265,22.47,0.0,0.0,0.0,0.039240000000000004,0.12753,9.81
777777770,22.47,0.0,0.0,0.0,0.02943,0.14715,9.81
782828275,22.47,0.0,0.0,0.0,0.0,0.16677000000000003,9.81
787878780,22.47,0.0,0.0,0.0,0.009810000000000001,0.1962,9.81
792929285,22.47,0.0,0.0,0.0,0.039240000000000004,0.16677000000000003,9.80019
797979790,22.47,0.0,0.0,0.0,0.04905,0.16677000000000003,9.80019
803030295,22.47,0.0,0.0,0.0,0.02943,0.14715,9.79038
808080800,22.47,0.0,0.0,0.0,0.0,0.15696000000000002,9.80019
813131305,22.47,0.0,0.0,0.0,0.02943,0.12753,9.81
818181810,22.47,0.0,0.0,0.0,0.04905,0.16677000000000003,9.80019
823232315,22.47,0.0,0.0,0.0,0.02943,0.15696000000000002,9.80019
828282820,22.47,0.0,0.0,0.0,0.019620000000000002,0.16677000000000003,9.81
833333325,22.47,0.0,0.0,0.0,0.04905,0.15696000000000002,9.770760000000001
838383830,22.47,0.0,0.0,0.0,0.019620000000000002,0.14715,9.80019
843434335,22.47,0.0,0.0,0.0,0.05886,0.13734000000000002,9.80019
848484840,22.47,0.0,0.0,0.0,0.02943,0.15696000000000002,9.80019
853535345,22.47,0.0,0.0,0.0,0.039240000000000004,0.17658,9.80019
858585850,22.47,0.0,0.0,0.0,0.04905,0.16677000000000003,9.80019
863636355,22.47,0.0,0.0,0.0,0.02943,0.14715,9.78057
868686860,22.47,0.0,0.0,0.0,0.02943,0.15696000000000002,9.81
873737365,22.47,0.0,0.0,0.0,0.019620000000000002,0.15696000000000002,9.770760000000001
878787870,22.47,0.0,0.0,0.0,0.039240000000000004,0.16677000000000003,9.78057
883838375,22.47,0.0,0.0,0.0,0.02943,0.17658,9.81
888888880,22.47,0.0,0.0,0.0,0.019620000000000002,0.16677000000000003,9.81
893939385,22.47,0.0,0.0,0.0,0.02943,0.14715,9.81
898989890,22.47,0.0,0.0,0.0,0.039240000000000004,0.14715,9.80019
904040395,22.47,0.0,0.0,0.0,0.019620000000000002,0.13734000000000002,9.819809999999999
909090900,22.47,0.0,0.0,0.0,0.039240000000000004,0.15696000000000002,9.80019
914141405,22.47,0.0,0.0,0.0,0.039240000000000004,0.13734000000000002,9.81
919191910,22.47,0.0,0.0,0.0,0.039240000000000004,0.16677000000000003,9.819809999999999
924242415,22.47,0.0,0.0,0.0,0.039240000000000004,0.16677000000000003,9.81
929292920,22.47,0.0,0.0,0.0,0.02943,0.16677000000000003,9.819809999999999
934343425,22.47,0.0,0.0,0.0,0.039240000000000004,0.14715,9.81
939393930,22.47,0.0,0.0,0.0,0.02943,0.14715,9.79038
944444435,22.47,0.0,0.0,0.0,0.02943,0.15696000000000002,9.80019
949494940,22.47,0.0,0.0,0.0,0.02943,0.15696000000000002,9.79038
954545445,22.47,0.0,0.0,0.0,0.02943,0.15696000000000002,9.79038
959595950,22.47,0.0,0.0,0.0,0.05886,0.16677000000000003,9.81
964646455,22.47,0.0,0.0,0.0,0.02943,0.15696000000000002,9.79038
969696960,22.47,0.0,0.0,0.0,0.039240000000000004,0.17658,9.80019
974747465,22.47,0.0,0.0,0.0,0.009810000000000001,0.11772,9.79038
979797970,22.47,0.0,0.0,0.0,0.04905,0.15696000000000002,9.80019
984848475,22.47,0.0,0.0,0.0,0.039240000000000004,0.13734000000000002,9.80019
989898980,22.47,0.0,0.0,0.0,0.04905,0.16677000000000003,9.81
994949485,22.47,0.0,0.0,0.0,0.039240000000000004,0.17658,9.81
999999990,22.47,0.0,0.0,0.0,0.02943,0.18639,9.78057
1005050495,22.47,0.0,0.0,0.0,0.039240000000000004,0.15696000000000002,9.80019
1010101000,22.47,0.0,0.0,0.0,0.019620000000000002,0.13734000000000002,9.78057
1015151505,22.47,0.0,0.0,0.0,0.039240000000000004,0.14715,9.819809999999999
1020202010,22.47,0.0,0.0,0.0,0.009810000000000001,0.15696000000000002,9.81
1025252515,22.47,0.0,0.0,0.0,0.019620000000000002,0.14715,9.78057
1030303020,22.47,0.0,0.0,0.0,0.04905,0.15696000000000002,9.770760000000001
1035353525,22.47,0.0,0.0,0.0,0.019620000000000002,0.16677000000000003,9.79038
1040404030,22.47,0.0,0.0,0.0,0.02943,0.16677000000000003,9.79038
1045454535,22.47,0.0,0.0,0.0,0.019620000000000002,0.14715,9.81
1050505040,22.47,0.0,0.0,0.0,0.039240000000000004,0.15696000000000002,9.81
1055555545,22.47,0.0,0.0,0.0,0.02943,0.14715,9.81
1060606050,22.47,0.0,0.0,0.0,0.04905,0.17658,9.78057
1065656555,22.47,0.0,0.0,0.0,0.039240000000000004,0.13734000000000002,9.79038
1070707060,22.47,0.0,0.0,0.0,0.019620000000000002,0.15696000000000002,9.79038
1075757565,22.47,0.0,0.0,0.0,0.039240000000000004,0.17658,9.81
1080808070,22.47,0.0,0.0,0.0,0.019620000000000002,0.16677000000000003,9.81
1085858575,22.47,0.0,0.0,0.0,0.019620000000000002,0.16677000000000003,9.80019
1090909080,22.47,0.0,0.0,0.0,0.039240000000000004,0.15696000000000002,9.81
1095959585,22.47,0.0,0.0,0.0,0.019620000000000002,0.15696000000000002,9.80019
1101010090,22.47,0.0,0.0,0.0,0.039240000000000004,0.14715,9.770760000000001
1106060595,22.47,0.0,0.0,0.0,0.04905,0.15696000000000002,9.80019
1111111100,22.47,0.0,0.0,0.0,0.0,0.13734000000000002,9.80019
1116161605,22.47,0.0,0.0,0.0,0.019620000000000002,0.14715,9.81
1121212110,22.47,0.0,0.0,0.0,0.02943,0.17658,9.81
1126262615,22.47,0.0,0.0,0.0,0.019620000000000002,0.17658,9.770760000000001
1131313120,22.47,0.0,0.0,0.0,0.04905,0.16677000000000003,9.79038
1136363625,22.47,0.0,0.0,0.0,0.019620000000000002,0.15696000000000002,9.79038
1141414130,22.47,0.0,0.0,0.0,0.0,0.16677000000000003,9.78057
1146464635,22.47,0.0,0.0,0.0,0.009810000000000001,0.12753,9.79038
1151515140,22.47,0.0,0.0,0.0,0.02943,0.17658,9.81
1156565645,22.47,0.0,0.0,0.0,0.039240000000000004,0.15696000000000002,9.81
1161616150,22.47,0.0,0.0,0.0,0.02943,0.1962,9.81
1166666655,22.47,0.0,0.0,0.0,0.02943,0.14715,9.81
1171717160,22.47,0.0,0.0,0.0,0.009810000000000001,0.14715,9.81
1176767665,22.47,0.0,0.0,0.0,0.019620000000000002,0.14715,9.78057
1181818170,22.47,0.0,0.0,0.0,0.009810000000000001,0.14715,9.80019
1186868675,22.47,0.0,0.0,0.0,0.039240000000000004,0.16677000000000003,9.79038
1191919180,22.47,0.0,0.0,0.0,0.019620000000000002,0.16677000000000003,9.81
1196969685,22.47,0.0,0.0,0.0,0.039240000000000004,0.16677000000000003,9.81
1202020190,22.47,0.0,0.0,0.0,0.019620000000000002,0.16677000000000003,9.80019
1207070695,22.47,0.0,0.0,0.0,0.02943,0.14715,9.79038
1212121200,22.47,0.0,0.0,0.0,0.039240000000000004,0.17658,9.80019
1217171705,22.47,0.0,0.0,0.0,0.019620000000000002,0.15696000000000002,9.79038
1222222210,22.47,0.0,0.0,0.0,0.039240000000000004,0.16677000000000003,9.81
1227272715,22.47,0.0,0.0,0.0,0.02943,0.17658,9.81
1232323220,22.47,0.0,0.0,0.0,0.02943,0.11772,9.80019
1237373725,22.47,0.0,0.0,0.0,0.04905,0.14715,9.80019
1242424230,22.47,0.0,0.0,0.0,0.02943,0.16677000000000003,9.79038
1247474735,22.47,0.0,0.0,0.0,0.039240000000000004,0.14715,9.80019
1252525240,22.47,0.0,0.0,0.0,0.02943,0.16677000000000003,9.80019
1257575745,22.47,0.0,0.0,0.0,0.019620000000000002,0.17658,9.79038
1262626250,22.47,0.0,0.0,0.0,0.039240000000000004,0.14715,9.78057
1267676755,22.47,0.0,0.0,0.0,0.02943,0.15696000000000002,9.79038
1272727260,22.47,0.0,0.0,0.0,0.02943,0.15696000000000002,9.78057
1277777765,22.47,0.0,0.0,0.0,0.009810000000000001,0.13734000000000002,9.81
1282828270,22.47,0.0,0.0,0.0,0.02943,0.14715,9.81
1287878775,22.47,0.0,0.0,0.0,0.02943,0.18639,9.80019
1292929280,22.47,0.0,0.0,0.0,0.04905,0.17658,9.819809999999999
1297979785,22.47,0.0,0.0,0.0,0.02943,0.13734000000000002,9.81
1303030290,22.47,0.0,0.0,0.0,0.039240000000000004,0.13734000000000002,9.79038
1308080795,22.47,0.0,0.0,0.0,0.019620000000000002,0.11772,9.770760000000001
1313131300,22.47,0.0,0.0,0.0,0.04905,0.14715,9.79038
1318181805,22.47,0.0,0.0,0.0,0.039240000000000004,0.17658,9.81
1323232310,22.47,0.0,0.0,0.0,0.019620000000000002,0.15696000000000002,9.81
1328282815,22.47,0.0,0.0,0.0,0.009810000000000001,0.17658,9.819809999999999
1333333320,22.47,0.0,0.0,0.0,0.039240000000000004,0.15696000000000002,9.81
1338383825,22.47,0.0,0.0,0.0,0.02943,0.13734000000000002,9.79038
1343434330,22.47,0.0,0.0,0.0,0.019620000000000002,0.15696000000000002,9.79038
1348484835,22.47,0.0,0.0,0.0,0.019620000000000002,0.14715,9.81
1353535340,22.47,0.0,0.0,0.0,0.05886,0.15696000000000002,9.79038
1358585845,22.47,0.0,0.0,0.0,0.019620000000000002,0.13734000000000002,9.81
1363636350,22.47,0.0,0.0,0.0,0.02943,0.14715,9.81
1368686855,22.47,0.0,0.0,0.0,0.02943,0.13734000000000002,9.80019
1373737360,22.47,0.0,0.0,0.0,0.039240000000000004,0.15696000000000002,9.78057
1378787865,22.47,0.0,0.0,0.0,0.0,0.14715,9.770760000000001
1383838370,22.47,0.0,0.0,0.0,0.02943,0.16677000000000003,9.79038
1388888875,22.47,0.0,0.0,0.0,0.04905,0.15696000000000002,9.81
1393939380,22.47,0.0,0.0,0.0,0.02943,0.15696000000000002,9.79038
1398989885,22.47,0.0,0.0,0.0,0.02943,0.16677000000000003,9.80019
1404040390,22.47,0.0,0.0,0.0,0.02943,0.16677000000000003,9.81
1409090895,22.47,0.0,0.0,0.0,0.019620000000000002,0.16677000000000003,9.79038
1414141400,22.47,0.0,0.0,0.0,0.0,0.15696000000000002,9.80019
1419191905,22.47,0.0,0.0,0.0,0.019620000000000002,0.17658,9.81
1424242410,22.47,0.0,0.0,0.0,0.019620000000000002,0.16677000000000003,9.81
1429292915,22.47,0.0,0.0,0.0,0.02943,0.14715,9.81
1434343420,22.47,0.0,0.0,0.0,0.02943,0.14715,9.81
1439393925,22.47,0.0,0.0,0.0,0.0,0.15696000000000002,9.81
1444444430,22.47,0.0,0.0,0.0,0.019620000000000002,0.12753,9.78057
1449494935,22.47,0.0,0.0,0.0,0.02943,0.14715,9.81
1454545440,22.47,0.0,0.0,0.0,0.02943,0.17658,9.819809999999999
1459595945,22.47,0.0,0.0,0.0,0.019620000000000002,0.15696000000000002,9.819809999999999
1464646450,22.47,0.0,0.0,0.0,0.009810000000000001,0.16677000000000003,9.81
1469696955,22.47,0.0,0.0,0.0,0.07848000000000001,0.16677000000000003,9.79038
1474747460,22.47,0.0,0.0,0.0,0.02943,0.13734000000000002,9.80019
1479797965,22.47,0.0,0.0,0.0,0.02943,0.13734000000000002,9.79038
1484848470,22.47,0.0,0.0,0.0,0.0,0.14715,9.81
1489898975,22.47,0.0,0.0,0.0,0.05886,0.18639,9.81
1494949480,22.47,0.0,0.0,0.0,0.009810000000000001,0.15696000000000002,9.81
1499999985,22.47,0.0,0.0,0.0,0.02943,0.14715,9.79038
1505050490,22.47,0.0,0.0,0.0,0.0,0.16677000000000003,9.78057
1510100995,22.47,0.0,0.0,0.0,0.019620000000000002,0.15696000000000002,9.80019
1515151500,22.47,0.0,0.0,0.0,0.02943,0.14715,9.819809999999999
1520202005,22.47,0.0,0.0,0.0,0.019620000000000002,0.14715,9.819809999999999
1525252510,22.47,0.0,0.0,0.0,0.019620000000000002,0.17658,9.819809999999999
1530303015,22.47,0.0,0.0,0.0,0.019620000000000002,0.16677000000000003,9.79038
1535353520,22.47,0.0,0.0,0.0,0.009810000000000001,0.15696000000000002,9.79038
1540404025,22.47,0.0,0.0,0.0,0.019620000000000002,0.14715,9.80019
1545454530,22.47,0.0,0.0,0.0,0.019620000000000002,0.14715,9.78057
1550505035,22.47,0.0,0.0,0.0,0.009810000000000001,0.14715,9.81
1555555540,22.47,0.0,0.0,0.0,0.039240000000000004,0.16677000000000003,9.81
1560606045,22.47,0.0,0.0,0.0,0.02943,0.15696000000000002,9.80019
1565656550,22.47,0.0,0.0,0.0,0.04905,0.13734000000000002,9.80019
1570707055,22.47,0.0,0.0,0.0,0.02943,0.14715,9.80019
1575757560,22.47,0.0,0.0,0.0,0.02943,0.17658,9.81
1580808065,22.47,0.0,0.0,0.0,0.04905,0.14715,9.81
1585858570,22.47,0.0,0.0,0.0,0.039240000000000004,0.17658,9.80019
1590909075,22.47,0.0,0.0,0.0,0.019620000000000002,0.18639,9.81
1595959580,22.47,0.0,0.0,0.0,0.019620000000000002,0.12753,9.81
1601010085,22.47,0.0,0.0,0.0,0.039240000000000004,0.16677000000000003,9.79038
1606060590,22.47,0.0,0.0,0.0,0.009810000000000001,0.15696000000000002,9.79038
1611111095,22.47,0.0,0.0,0.0,0.02943,0.14715,9.81
1616161600,22.47,0.0,0.0,0.0,0.02943,0.15696000000000002,9.81
1621212105,22.47,0.0,0.0,0.0,0.05886,0.13734000000000002,9.81
1626262610,22.47,0.0,0.0,0.0,0.02943,0.17658,9.79038
1631313115,22.47,0.0,0.0,0.0,0.02943,0.17658,9.79038
1636363620,22.47,0.0,0.0,0.0,0.05886,0.15696000000000002,9.79038
1641414125,22.47,0.0,0.0,0.0,0.039240000000000004,0.16677000000000003,9.78057
1646464630,22.47,0.0,0.0,0.0,0.019620000000000002,0.14715,9.79038
1651515135,22.47,0.0,0.0,0.0,0.009810000000000001,0.15696000000000002,9.80019
1656565640,22.47,0.0,0.0,0.0,0.039240000000000004,0.17658,9.80019
1661616145,22.47,0.0,0.0,0.0,0.039240000000000004,0.17658,9.81
1666666650,22.47,0.0,0.0,0.0,0.039240000000000004,0.1962,9.79038
1671717155,22.47,0.0,0.0,0.0,0.039240000000000004,0.15696000000000002,9.79038
1676767660,22.47,0.0,0.0,0.0,0.009810000000000001,0.15696000000000002,9.770760000000001
1681818165,22.47,0.0,0.0,0.0,0.02943,0.14715,9.80019
1686868670,22.47,0.0,0.0,0.0,0.039240000000000004,0.15696000000000002,9.79038
1691919175,22.47,0.0,0.0,0.0,0.02943,0.13734000000000002,9.79038
1696969680,22.47,0.0,0.0,0.0,0.039240000000000004,0.14715,9.770760000000001
1702020185,22.47,0.0,0.0,0.0,0.039240000000000004,0.16677000000000003,9.79038
1707070690,22.47,0.0,0.0,0.0,0.02943,0.16677000000000003,9.80019
1712121195,22.47,0.0,0.0,0.0,0.02943,0.15696000000000002,9.80019
1717171700,22.47,0.0,0.0,0.0,0.02943,0.13734000000000002,9.81
1722222205,22.47,0.0,0.0,0.0,0.0,0.17658,9.81
1727272710,22.47,0.0,0.0,0.0,0.019620000000000002,0.16677000000000003,9.80019
1732323215,22.47,0.0,0.0,0.0,0.02943,0.16677000000000003,9.819809999999999
1737373720,22.47,0.0,0.0,0.0,0.019620000000000002,0.15696000000000002,9.80019
1742424225,22.47,0.0,0.0,0.0,0.02943,0.17658,9.79038
1747474730,22.47,0.0,0.0,0.0,0.019620000000000002,0.17658,9.81
1752525235,22.47,0.0,0.0,0.0,0.02943,0.13734000000000002,9.79038
1757575740,22.47,0.0,0.0,0.0,0.02943,0.15696000000000002,9.819809999999999
1762626245,22.47,0.0,0.0,0.0,0.009810000000000001,0.13734000000000002,9.82962
1767676750,22.47,0.0,0.0,0.0,0.02943,0.13734000000000002,9.819809999999999
1772727255,22.47,0.0,0.0,0.0,0.019620000000000002,0.16677000000000003,9.80019
1777777760,22.47,0.0,0.0,0.0,0.039240000000000004,0.16677000000000003,9.78057
1782828265,22.47,0.0,0.0,0.0,0.039240000000000004,0.16677000000000003,9.78057
1787878770,22.47,0.0,0.0,0.0,0.039240000000000004,0.16677000000000003,9.79038
1792929275,22.47,0.0,0.0,0.0,0.019620000000000002,0.14715,9.80019
1797979780,22.47,0.0,0.0,0.0,0.039240000000000004,0.16677000000000003,9.79038
1803030285,22.47,0.0,0.0,0.0,0.0,0.15696000000000002,9.78057
1808080790,22.47,0.0,0.0,0.0,0.039240000000000004,0.16677000000000003,9.819809999999999
1813131295,22.47,0.0,0.0,0.0,0.019620000000000002,0.12753,9.81
1818181800,22.47,0.0,0.0,0.0,0.039240000000000004,0.14715,9.78057
1823232305,22.47,0.0,0.0,0.0,0.04905,0.15696000000000002,9.80019
1828282810,22.47,0.0,0.0,0.0,0.05886,0.13734000000000002,9.80019
1833333315,22.47,0.0,0.0,0.0,0.02943,0.16677000000000003,9.80019
1838383820,22.47,0.0,0.0,0.0,0.02943,0.13734000000000002,9.81
1843434325,22.47,0.0,0.0,0.0,0.02943,0.13734000000000002,9.819809999999999
1848484830,22.47,0.0,0.0,0.0,0.039240000000000004,0.13734000000000002,9.80019
1853535335,22.47,0.0,0.0,0.0,0.019620000000000002,0.15696000000000002,9.81
1858585840,22.47,0.0,0.0,0.0,0.019620000000000002,0.15696000000000002,9.80019
1863636345,22.47,0.0,0.0,0.0,0.02943,0.17658,9.819809999999999
1868686850,22.47,0.0,0.0,0.0,0.05886,0.16677000000000003,9.79038
1873737355,22.47,0.0,0.0,0.0,0.05886,0.16677000000000003,9.78057
1878787860,22.47,0.0,0.0,0.0,0.009810000000000001,0.14715,9.80019
1883838365,22.47,0.0,0.0,0.0,0.05886,0.12753,9.81
1888888870,22.47,0.0,0.0,0.0,0.009810000000000001,0.13734000000000002,9.80019
1893939375,22.47,0.0,0.0,0.0,0.019620000000000002,0.14715,9.819809999999999
1898989880,22.47,0.0,0.0,0.0,0.039240000000000004,0.15696000000000002,9.81
1904040385,22.47,0.0,0.0,0.0,0.02943,0.16677000000000003,9.80019
1909090890,22.47,0.0,0.0,0.0,0.05886,0.16677000000000003,9.79038
1914141395,22.47,0.0,0.0,0.0,0.02943,0.14715,9.79038
1919191900,22.47,0.0,0.0,0.0,0.04905,0.15696000000000002,9.80019
1924242405,22.47,0.0,0.0,0.0,0.02943,0.16677000000000003,9.81
1929292910,22.47,0.0,0.0,0.0,0.039240000000000004,0.13734000000000002,9.81
1934343415,22.47,0.0,0.0,0.0,0.05886,0.15696000000000002,9.81
1939393920,22.47,0.0,0.0,0.0,0.019620000000000002,0.17658,9.80019
1944444425,22.47,0.0,0.0,0.0,0.019620000000000002,0.17658,9.770760000000001
1949494930,22.47,0.0,0.0,0.0,0.04905,0.15696000000000002,9.80019
1954545435,22.47,0.0,0.0,0.0,0.039240000000000004,0.15696000000000002,9.80019
1959595940,22.47,0.0,0.0,0.0,0.009810000000000001,0.14715,9.770760000000001
1964646445,22.47,0.0,0.0,0.0,0.019620000000000002,0.14715,9.79038
1969696950,22.47,0.0,0.0,0.0,0.009810000000000001,0.16677000000000003,9.80019
1974747455,22.47,0.0,0.0,0.0,0.019620000000000002,0.14715,9.79038
1979797960,22.47,0.0,0.0,0.0,0.019620000000000002,0.17658,9.78057
1984848465,22.47,0.0,0.0,0.0,0.02943,0.16677000000000003,9.78057
1989898970,22.47,0.0,0.0,0.0,0.02943,0.16677000000000003,9.79038
1994949475,22.47,0.0,0.0,0.0,0.039240000000000004,0.16677000000000003,9.81
1999999980,22.47,0.0,0.0,0.0,0.039240000000000004,0.14715,9.80019
2005050485,22.47,0.0,0.0,0.0,0.039240000000000004,0.17658,9.80019
2010100990,22.47,0.0,0.0,0.0,0.039240000000000004,0.14715,9.79038
2015151495,22.47,0.0,0.0,0.0,0.0,0.15696000000000002,9.80019
2020202000,22.47,0.0,0.0,0.0,0.009810000000000001,0.14715,9.80019
2025252505,22.47,0.0,0.0,0.0,0.009810000000000001,0.13734000000000002,9.79038
2030303010,22.47,0.0,0.0,0.0,0.039240000000000004,0.15696000000000002,9.81
2035353515,22.47,0.0,0.0,0.0,0.039240000000000004,0.17658,9.79038
2040404020,22.47,0.0,0.0,0.0,0.019620000000000002,0.17658,9.79038
2045454525,22.47,0.0,0.0,0.0,0.02943,0.15696000000000002,9.81
2050505030,22.47,0.0,0.0,0.0,0.039240000000000004,0.15696000000000002,9.80019
2055555535,22.47,0.0,0.0,0.0,0.02943,0.12753,9.819809999999999
2060606040,22.47,0.0,0.0,0.0,0.039240000000000004,0.16677000000000003,9.80019
2065656545,22.47,0.0,0.0,0.0,0.04905,0.14715,9.79038
2070707050,22.47,0.0,0.0,0.0,0.019620000000000002,0.15696000000000002,9.80019
2075757555,22.47,0.0,0.0,0.0,0.0,0.16677000000000003,9.760950000000001
2080808060,22.47,0.0,0.0,0.0,0.04905,0.16677000000000003,9.79038
2085858565,22.47,0.0,0.0,0.0,0.039240000000000004,0.12753,9.81
2090909070,22.47,0.0,0.0,0.0,0.009810000000000001,0.14715,9.80019
2095959575,22.47,0.0,0.0,0.0,0.019620000000000002,0.15696000000000002,9.81
2101010080,22.47,0.0,0.0,0.0,0.039240000000000004,0.13734000000000002,9.80019
2106060585,22.47,0.0,0.0,0.0,0.02943,0.14715,9.81
2111111090,22.47,0.0,0.0,0.0,0.04905,0.13734000000000002,9.81
2116161595,22.47,0.0,0.0,0.0,0.02943,0.17658,9.80019
2121212100,22.47,0.0,0.0,0.0,0.019620000000000002,0.15696000000000002,9.78057
2126262605,22.47,0.0,0.0,0.0,0.02943,0.16677000000000003,9.81
2131313110,22.47,0.0,0.0,0.0,0.019620000000000002,0.15696000000000002,9.79038
2136363615,22.47,0.0,0.0,0.0,0.04905,0.15696000000000002,9.82962
2141414120,22.47,0.0,0.0,0.0,0.009810000000000001,0.15696000000000002,9.81
2146464625,22.47,0.0,0.0,0.0,0.02943,0.15696000000000002,9.80019
2151515130,22.47,0.0,0.0,0.0,0.02943,0.16677000000000003,9.81
2156565635,22.47,0.0,0.0,0.0,0.02943,0.17658,9.78057
2161616140,22.47,0.0,0.0,0.0,0.009810000000000001,0.16677000000000003,9.79038
2166666645,22.47,0.0,0.0,0.0,0.019620000000000002,0.15696000000000002,9.79038
2171717150,22.47,0.0,0.0,0.0,0.009810000000000001,0.16677000000000003,9.81
2176767655,22.47,0.0,0.0,0.0,0.009810000000000001,0.14715,9.79038
2181818160,22.47,0.0,0.0,0.0,0.009810000000000001,0.14715,9.81
2186868665,22.47,0.0,0.0,0.0,0.02943,0.13734000000000002,9.80019
2191919170,22.47,0.0,0.0,0.0,0.02943,0.15696000000000002,9.80019
2196969675,22.47,0.0,0.0,0.0,0.02943,0.15696000000000002,9.81
2202020180,22.47,0.0,0.0,0.0,0.04905,0.13734000000000002,9.80019
2207070685,22.47,0.0,0.0,0.0,0.039240000000000004,0.16677000000000003,9.80019
2212121190,22.47,0.0,0.0,0.0,0.02943,0.16677000000000003,9.770760000000001
2217171695,22.47,0.0,0.0,0.0,0.039240000000000004,0.13734000000000002,9.80019
2222222200,22.47,0.0,0.0,0.0,0.019620000000000002,0.17658,9.819809999999999
2227272705,22.47,0.0,0.0,0.0,0.02943,0.17658,9.79038
2232323210,22.47,0.0,0.0,0.0,0.039240000000000004,0.16677000000000003,9.81
2237373715,22.47,0.0,0.0,0.0,0.039240000000000004,0.16677000000000003,9.80019
2242424220,22.47,0.0,0.0,0.0,0.019620000000000002,0.15696000000000002,9.79038
2247474725,22.47,0.0,0.0,0.0,0.009810000000000001,0.15696000000000002,9.78057
2252525230,22.47,0.0,0.0,0.0,0.039240000000000004,0.16677000000000003,9.81
2257575735,22.47,0.0,0.0,0.0,0.019620000000000002,0.13734000000000002,9.79038
2262626240,22.47,0.0,0.0,0.0,0.019620000000000002,0.14715,9.80019
2267676745,22.47,0.0,0.0,0.0,0.019620000000000002,0.15696000000000002,9.80019
2272727250,22.47,0.0,0.0,0.0,0.04905,0.15696000000000002,9.80019
2277777755,22.47,0.0,0.0,0.0,0.019620000000000002,0.16677000000000003,9.79038
2282828260,22.47,0.0,0.0,0.0,0.039240000000000004,0.15696000000000002,9.80019
2287878765,22.47,0.0,0.0,0.0,0.019620000000000002,0.15696000000000002,9.79038
2292929270,22.47,0.0,0.0,0.0,0.019620000000000002,0.14715,9.79038
2297979775,22.47,0.0,0.0,0.0,0.019620000000000002,0.14715,9.80019
2303030280,22.47,0.0,0.0,0.0,0.019620000000000002,0.16677000000000003,9.80019
2308080785,22.47,0.0,0.0,0.0,0.019620000000000002,0.13734000000000002,9.81
2313131290,22.47,0.0,0.0,0.0,0.04905,0.15696000000000002,9.79038
2318181795,22.47,0.0,0.0,0.0,0.009810000000000001,0.18639,9.80019
2323232300,22.47,0.0,0.0,0.0,0.02943,0.17658,9.79038
2328282805,22.47,0.0,0.0,0.0,0.04905,0.14715,9.80019
2333333310,22.47,0.0,0.0,0.0,0.04905,0.16677000000000003,9.79038
2338383815,22.47,0.0,0.0,0.0,0.0,0.16677000000000003,9.81
2343434320,22.47,0.0,0.0,0.0,0.02943,0.16677000000000003,9.81
2348484825,22.47,0.0,0.0,0.0,0.039240000000000004,0.17658,9.78057
2353535330,22.47,0.0,0.0,0.0,0.02943,0.15696000000000002,9.81
2358585835,22.47,0.0,0.0,0.0,0.019620000000000002,0.15696000000000002,9.80019
2363636340,22.47,0.0,0.0,0.0,0.04905,0.17658,9.80019
2368686845,22.47,0.0,0.0,0.0,0.039240000000000004,0.16677000000000003,9.80019
2373737350,22.47,0.0,0.0,0.0,0.009810000000000001,0.17658,9.819809999999999
2378787855,22.47,0.0,0.0,0.0,0.019620000000000002,0.14715,9.79038
2383838360,22.47,0.0,0.0,0.0,0.02943,0.14715,9.81
2388888865,22.47,0.0,0.0,0.0,0.02943,0.16677000000000003,9.82962
2393939370,22.47,0.0,0.0,0.0,0.02943,0.17658,9.80019
2398989875,22.47,0.0,0.0,0.0,0.009810000000000001,0.16677000000000003,9.80019
2404040380,22.47,0.0,0.0,0.0,0.02943,0.16677000000000003,9.81
2409090885,22.47,0.0,0.0,0.0,0.02943,0.14715,9.80019
2414141390,22.47,0.0,0.0,0.0,0.02943,0.15696000000000002,9.80019
2419191895,22.47,0.0,0.0,0.0,0.039240000000000004,0.14715,9.81
2424242400,22.47,0.0,0.0,0.0,0.02943,0.15696000000000002,9.79038
2429292905,22.47,0.0,0.0,0.0,0.019620000000000002,0.16677000000000003,9.760950000000001
2434343410,22.47,0.0,0.0,0.0,0.02943,0.18639,9.79038
2439393915,22.47,0.0,0.0,0.0,0.039240000000000004,0.18639,9.80019
2444444420,22.47,0.0,0.0,0.0,0.02943,0.16677000000000003,9.79038
2449494925,22.47,0.0,0.0,0.0,0.039240000000000004,0.15696000000000002,9.770760000000001
2454545430,22.47,0.0,0.0,0.0,0.009810000000000001,0.12753,9.80019
2459595935,22.47,0.0,0.0,0.0,0.04905,0.14715,9.80019
2464646440,22.47,0.0,0.0,0.0,0.02943,0.13734000000000002,9.81
2469696945,22.47,0.0,0.0,0.0,0.02943,0.17658,9.78057
2474747450,22.47,0.0,0.0,0.0,0.02943,0.17658,9.79038
2479797955,22.47,0.0,0.0,0.0,0.02943,0.17658,9.78057
2484848460,22.47,0.0,0.0,0.0,0.039240000000000004,0.16677000000000003,9.80019
2489898965,22.47,0.0,0.0,0.0,0.02943,0.18639,9.80019
2494949470,22.47,0.0,0.0,0.0,0.019620000000000002,0.14715,9.80019
2499999975,22.47,0.0,0.0,0.0,0.019620000000000002,0.14715,9.80019
2505050480,22.47,0.0,0.0,0.0,0.039240000000000004,0.16677000000000003,9.770760000000001
2510100985,22.47,0.0,0.0,0.0,0.019620000000000002,0.14715,9.80019
2515151490,22.47,0.0,0.0,0.0,0.04905,0.15696000000000002,9.770760000000001
2520201995,22.47,0.0,0.0,0.0,0.04905,0.16677000000000003,9.79038
2525252500,22.47,0.0,0.0,0.0,0.02943,0.16677000000000003,9.78057
2530303005,22.47,0.0,0.0,0.0,0.019620000000000002,0.18639,9.81
2535353510,22.47,0.0,0.0,0.0,0.019620000000000002,0.15696000000000002,9.79038
2540404015,22.47,0.0,0.0,0.0,0.019620000000000002,0.17658,9.80019
2545454520,22.47,0.0,0.0,0.0,0.019620000000000002,0.14715,9.78057
2550505025,22.47,0.0,0.0,0.0,0.009810000000000001,0.14715,9.80019
2555555530,22.47,0.0,0.0,0.0,0.019620000000000002,0.15696000000000002,9.79038
2560606035,22.47,0.0,0.0,0.0,0.02943,0.17658,9.80019
2565656540,22.47,0.0,0.0,0.0,0.039240000000000004,0.16677000000000003,9.80019
2570707045,22.47,0.0,0.0,0.0,0.02943,0.18639,9.81
2575757550,22.47,0.0,0.0,0.0,0.05886,0.15696000000000002,9.80019
2580808055,22.47,0.0,0.0,0.0,0.02943,0.16677000000000003,9.79038
2585858560,22.47,0.0,0.0,0.0,0.02943,0.15696000000000002,9.80019
2590909065,22.47,0.0,0.0,0.0,0.009810000000000001,0.15696000000000002,9.80019
2595959570,22.47,0.0,0.0,0.0,0.02943,0.15696000000000002,9.79038
2601010075,22.47,0.0,0.0,0.0,0.02943,0.15696000000000002,9.80019
2606060580,22.47,0.0,0.0,0.0,0.04905,0.17658,9.78057
2611111085,22.47,0.0,0.0,0.0,0.06867000000000001,0.14715,9.80019
2616161590,22.47,0.0,0.0,0.0,0.04905,0.13734000000000002,9.78057
2621212095,22.47,0.0,0.0,0.0,0.02943,0.16677000000000003,9.78057
2626262600,22.47,0.0,0.0,0.0,0.039240000000000004,0.18639,9.81
2631313105,22.47,0.0,0.0,0.0,0.02943,0.14715,9.81
2636363610,22.47,0.0,0.0,0.0,0.019620000000000002,0.14715,9.819809999999999
2641414115,22.47,0.0,0.0,0.0,0.039240000000000004,0.14715,9.81
2646464620,22.47,0.0,0.0,0.0,0.019620000000000002,0.16677000000000003,9.79038
2651515125,22.47,0.0,0.0,0.0,0.009810000000000001,0.1962,9.81
2656565630,22.47,0.0,0.0,0.0,0.039240000000000004,0.15696000000000002,9.78057
2661616135,22.47,0.0,0.0,0.0,0.0,0.15696000000000002,9.79038
2666666640,22.47,0.0,0.0,0.0,0.019620000000000002,0.15696000000000002,9.79038
2671717145,22.47,0.0,0.0,0.0,0.02943,0.13734000000000002,9.81
2676767650,22.47,0.0,0.0,0.0,0.02943,0.14715,9.81
2681818155,22.47,0.0,0.0,0.0,0.02943,0.16677000000000003,9.81
2686868660,22.47,0.0,0.0,0.0,0.02943,0.13734000000000002,9.82962
2691919165,22.47,0.0,0.0,0.0,0.02943,0.15696000000000002,9.78057
2696969670,22.47,0.0,0.0,0.0,0.019620000000000002,0.16677000000000003,9.81
2702020175,22.47,0.0,0.0,0.0,0.02943,0.13734000000000002,9.81
2707070680,22.47,0.0,0.0,0.0,0.019620000000000002,0.14715,9.81
2712121185,22.47,0.0,0.0,0.0,0.02943,0.15696000000000002,9.78057
2717171690,22.47,0.0,0.0,0.0,0.039240000000000004,0.14715,9.80019
2722222195,22.47,0.0,0.0,0.0,0.02943,0.15696000000000002,9.79038
2727272700,22.47,0.0,0.0,0.0,0.039240000000000004,0.14715,9.78057
2732323205,22.47,0.0,0.0,0.0,0.04905,0.15696000000000002,9.79038
2737373710,22.47,0.0,0.0,0.0,0.02943,0.16677000000000003,9.81
2742424215,22.47,0.0,0.0,0.0,0.02943,0.16677000000000003,9.79038
2747474720,22.47,0.0,0.0,0.0,0.02943,0.14715,9.81
2752525225,22.47,0.0,0.0,0.0,0.039240000000000004,0.15696000000000002,9.78057
2757575730,22.47,0.0,0.0,0.0,0.039240000000000004,0.13734000000000002,9.81
2762626235,22.47,0.0,0.0,0.0,0.019620000000000002,0.15696000000000002,9.80019
2767676740,22.47,0.0,0.0,0.0,0.02943,0.17658,9.79038
2772727245,22.47,0.0,0.0,0.0,0.039240000000000004,0.16677000000000003,9.81
2777777750,22.47,0.0,0.0,0.0,0.039240000000000004,0.12753,9.80019
2782828255,22.47,0.0,0.0,0.0,0.05886,0.14715,9.80019
2787878760,22.47,0.0,0.0,0.0,0.02943,0.14715,9.80019
2792929265,22.47,0.0,0.0,0.0,0.009810000000000001,0.17658,9.78057
2797979770,22.47,0.0,0.0,0.0,0.039240000000000004,0.16677000000000003,9.80019
2803030275,22.47,0.0,0.0,0.0,0.02943,0.16677000000000003,9.78057
2808080780,22.47,0.0,0.0,0.0,0.039240000000000004,0.14715,9.80019
2813131285,22.47,0.0,0.0,0.0,0.039240000000000004,0.16677000000000003,9.80019
2818181790,22.47,0.0,0.0,0.0,0.019620000000000002,0.16677000000000003,9.81
2823232295,22.47,0.0,0.0,0.0,0.019620000000000002,0.17658,9.80019
2828282800,22.47,0.0,0.0,0.0,0.039240000000000004,0.15696000000000002,9.79038
2833333305,22.47,0.0,0.0,0.0,0.019620000000000002,0.13734000000000002,9.79038
2838383810,22.47,0.0,0.0,0.0,0.039240000000000004,0.14715,9.79038
2843434315,22.47,0.0,0.0,0.0,0.04905,0.16677000000000003,9.79038
2848484820,22.47,0.0,0.0,0.0,0.04905,0.15696000000000002,9.79038
2853535325,22.47,0.0,0.0,0.0,0.05886,0.13734000000000002,9.81
2858585830,22.47,0.0,0.0,0.0,0.039240000000000004,0.16677000000000003,9.80019
2863636335,22.47,0.0,0.0,0.0,0.02943,0.13734000000000002,9.79038
2868686840,22.47,0.0,0.0,0.0,0.02943,0.14715,9.80019
2873737345,22.47,0.0,0.0,0.0,0.02943,0.15696000000000002,9.80019
2878787850,22.47,0.0,0.0,0.0,0.009810000000000001,0.15696000000000002,9.81
2883838355,22.47,0.0,0.0,0.0,0.04905,0.13734000000000002,9.81
2888888860,22.47,0.0,0.0,0.0,0.0,0.15696000000000002,9.81
2893939365,22.47,0.0,0.0,0.0,0.04905,0.18639,9.819809999999999
2898989870,22.47,0.0,0.0,0.0,0.019620000000000002,0.16677000000000003,9.78057
2904040375,22.47,0.0,0.0,0.0,0.02943,0.15696000000000002,9.78057
2909090880,22.47,0.0,0.0,0.0,0.019620000000000002,0.14715,9.78057
2914141385,22.47,0.0,0.0,0.0,0.02943,0.13734000000000002,9.79038
2919191890,22.47,0.0,0.0,0.0,0.009810000000000001,0.13734000000000002,9.819809999999999
2924242395,22.47,0.0,0.0,0.0,0.009810000000000001,0.14715,9.81
2929292900,22.47,0.0,0.0,0.0,0.009810000000000001,0.15696000000000002,9.80019
2934343405,22.47,0.0,0.0,0.0,0.019620000000000002,0.15696000000000002,9.79038
2939393910,22.47,0.0,0.0,0.0,0.039240000000000004,0.14715,9.80019
2944444415,22.47,0.0,0.0,0.0,0.02943,0.17658,9.770760000000001
2949494920,22.47,0.0,0.0,0.0,0.019620000000000002,0.15696000000000002,9.80019
2954545425,22.47,0.0,0.0,0.0,0.02943,0.15696000000000002,9.79038
2959595930,22.47,0.0,0.0,0.0,0.02943,0.12753,9.80019
2964646435,22.47,0.0,0.0,0.0,0.04905,0.16677000000000003,9.79038
2969696940,22.47,0.0,0.0,0.0,0.019620000000000002,0.17658,9.80019
2974747445,22.47,0.0,0.0,0.0,0.039240000000000004,0.15696000000000002,9.81
2979797950,22.47,0.0,0.0,0.0,0.02943,0.15696000000000002,9.78057
2984848455,22.47,0.0,0.0,0.0,0.02943,0.15696000000000002,9.80019
2989898960,22.47,0.0,0.0,0.0,0.02943,0.15696000000000002,9.81
2994949465,22.47,0.0,0.0,0.0,0.019620000000000002,0.14715,9.79038
2999999970,22.47,0.0,0.0,0.0,0.039240000000000004,0.13734000000000002,9.80019
3005050475,22.47,0.0,0.0,0.0,0.009810000000000001,0.14715,9.81
3010100980,22.47,0.0,0.0,0.0,0.039240000000000004,0.14715,9.79038
3015151485,22.47,0.0,0.0,0.0,0.02943,0.15696000000000002,9.81
3020201990,22.47,0.0,0.0,0.0,0.02943,0.13734000000000002,9.79038
3025252495,22.47,0.0,0.0,0.0,0.019620000000000002,0.1962,9.81
3030303000,22.47,0.0,0.0,0.0,0.04905,0.15696000000000002,9.80019
3035353505,22.47,0.0,0.0,0.0,0.0,0.15696000000000002,9.81
3040404010,22.47,0.0,0.0,0.0,0.04905,0.14715,9.80019
3045454515,22.47,0.0,0.0,0.0,0.019620000000000002,0.13734000000000002,9.79038
3050505020,22.47,0.0,0.0,0.0,0.04905,0.14715,9.80019
3055555525,22.47,0.0,0.0,0.0,0.019620000000000002,0.17658,9.770760000000001
3060606030,22.47,0.0,0.0,0.0,0.039240000000000004,0.14715,9.79038
3065656535,22.47,0.0,0.0,0.0,0.04905,0.14715,9.78057
3070707040,22.47,0.0,0.0,0.0,0.039240000000000004,0.16677000000000003,9.78057
3075757545,22.47,0.0,0.0,0.0,0.009810000000000001,0.16677000000000003,9.81
3080808050,22.47,0.0,0.0,0.0,0.02943,0.14715,9.81
3085858555,22.47,0.0,0.0,0.0,0.039240000000000004,0.16677000000000003,9.81
3090909060,22.47,0.0,0.0,0.0,0.05886,0.18639,9.81
3095959565,22.47,0.0,0.0,0.0,0.039240000000000004,0.17658,9.80019
3101010070,22.47,0.0,0.0,0.0,0.039240000000000004,0.17658,9.819809999999999
3106060575,22.47,0.0,0.0,0.0,0.02943,0.16677000000000003,9.79038
3111111080,22.47,0.0,0.0,0.0,0.019620000000000002,0.15696000000000002,9.81
3116161585,22.47,0.0,0.0,0.0,0.039240000000000004,0.17658,9.760950000000001
3121212090,22.47,0.0,0.0,0.0,0.02943,0.15696000000000002,9.81
3126262595,22.47,0.0,0.0,0.0,0.019620000000000002,0.13734000000000002,9.80019
3131313100,22.47,0.0,0.0,0.0,0.04905,0.15696000000000002,9.79038
3136363605,22.47,0.0,0.0,0.0,0.02943,0.16677000000000003,9.81
3141414110,22.47,0.0,0.0,0.0,0.02943,0.15696000000000002,9.81
3146464615,22.47,0.0,0.0,0.0,0.04905,0.16677000000000003,9.78057
3151515120,22.47,0.0,0.0,0.0,0.02943,0.15696000000000002,9.81
3156565625,22.47,0.0,0.0,0.0,0.019620000000000002,0.13734000000000002,9.80019
3161616130,22.47,0.0,0.0,0.0,0.019620000000000002,0.14715,9.80019
3166666635,22.47,0.0,0.0,0.0,0.019620000000000002,0.16677000000000003,9.81
3171717140,22.47,0.0,0.0,0.0,0.02943,0.16677000000000003,9.78057
3176767645,22.47,0.0,0.0,0.0,0.02943,0.12753,9.80019
3181818150,22.47,0.0,0.0,0.0,0.019620000000000002,0.15696000000000002,9.78057
3186868655,22.47,0.0,0.0,0.0,0.04905,0.15696000000000002,9.81
3191919160,22.47,0.0,0.0,0.0,0.05886,0.14715,9.81
3196969665,22.47,0.0,0.0,0.0,0.039240000000000004,0.1962,9.80019
3202020170,22.47,0.0,0.0,0.0,0.04905,0.14715,9.819809999999999
3207070675,22.47,0.0,0.0,0.0,0.02943,0.13734000000000002,9.81
3212121180,22.47,0.0,0.0,0.0,0.04905,0.15696000000000002,9.81
3217171685,22.47,0.0,0.0,0.0,0.039240000000000004,0.15696000000000002,9.80019
3222222190,22.47,0.0,0.0,0.0,0.019620000000000002,0.17658,9.79038
3227272695,22.47,0.0,0.0,0.0,0.02943,0.13734000000000002,9.80019
3232323200,22.47,0.0,0.0,0.0,0.019620000000000002,0.14715,9.80019
3237373705,22.47,0.0,0.0,0.0,0.04905,0.16677000000000003,9.79038
3242424210,22.47,0.0,0.0,0.0,0.02943,0.16677000000000003,9.80019
3247474715,22.47,0.0,0.0,0.0,0.039240000000000004,0.16677000000000003,9.80019
3252525220,22.47,0.0,0.0,0.0,0.02943,0.16677000000000003,9.81
3257575725,22.47,0.0,0.0,0.0,0.02943,0.18639,9.770760000000001
3262626230,22.47,0.0,0.0,0.0,0.02943,0.14715,9.80019
3267676735,22.47,0.0,0.0,0.0,0.04905,0.18639,9.79038
3272727240,22.47,0.0,0.0,0.0,0.05886,0.15696000000000002,9.78057
3277777745,22.47,0.0,0.0,0.0,0.02943,0.15696000000000002,9.819809999999999
3282828250,22.47,0.0,0.0,0.0,0.02943,0.15696000000000002,9.80019
3287878755,22.47,0.0,0.0,0.0,0.039240000000000004,0.15696000000000002,9.819809999999999
3292929260,22.47,0.0,0.0,0.0,0.02943,0.13734000000000002,9.79038
3297979765,22.47,0.0,0.0,0.0,0.039240000000000004,0.1962,9.78057
3303030270,22.47,0.0,0.0,0.0,0.039240000000000004,0.16677000000000003,9.80019
3308080775,22.47,0.0,0.0,0.0,0.039240000000000004,0.15696000000000002,9.81
3313131280,22.47,0.0,0.0,0.0,0.05886,0.16677000000000003,9.81
3318181785,22.47,0.0,0.0,0.0,0.019620000000000002,0.12753,9.81
3323232290,22.47,0.0,0.0,0.0,0.019620000000000002,0.16677000000000003,9.81
3328282795,22.47,0.0,0.0,0.0,0.04905,0.17658,9.80019
3333333300,22.47,0.0,0.0,0.0,0.04905,0.14715,9.80019
3338383805,22.47,0.0,0.0,0.0,0.0,0.14715,9.80019
3343434310,22.47,0.0,0.0,0.0,0.019620000000000002,0.14715,9.78057
3348484815,22.47,0.0,0.0,0.0,0.02943,0.16677000000000003,9.80019
3353535320,22.47,0.0,0.0,0.0,0.02943,0.14715,9.80019
3358585825,22.47,0.0,0.0,0.0,0.04905,0.15696000000000002,9.79038
3363636330,22.47,0.0,0.0,0.0,0.05886,0.16677000000000003,9.81
3368686835,22.47,0.0,0.0,0.0,0.009810000000000001,0.14715,9.79038
3373737340,22.47,0.0,0.0,0.0,0.019620000000000002,0.15696000000000002,9.78057
3378787845,22.47,0.0,0.0,0.0,0.02943,0.15696000000000002,9.80019
3383838350,22.47,0.0,0.0,0.0,0.019620000000000002,0.14715,9.78057
3388888855,22.47,0.0,0.0,0.0,0.04905,0.15696000000000002,9.819809999999999
3393939360,22.47,0.0,0.0,0.0,0.019620000000000002,0.14715,9.81
3398989865,22.47,0.0,0.0,0.0,0.02943,0.16677000000000003,9.79038
3404040370,22.47,0.0,0.0,0.0,0.02943,0.13734000000000002,9.80019
3409090875,22.47,0.0,0.0,0.0,0.02943,0.13734000000000002,9.79038
3414141380,22.47,0.0,0.0,0.0,0.02943,0.16677000000000003,9.81
3419191885,22.47,0.0,0.0,0.0,0.019620000000000002,0.14715,9.80019
3424242390,22.47,0.0,0.0,0.0,0.02943,0.18639,9.78057
3429292895,22.47,0.0,0.0,0.0,0.02943,0.16677000000000003,9.81
3434343400,22.47,0.0,0.0,0.0,0.009810000000000001,0.15696000000000002,9.81
3439393905,22.47,0.0,0.0,0.0,0.039240000000000004,0.12753,9.79038
3444444410,22.47,0.0,0.0,0.0,0.02943,0.16677000000000003,9.79038
3449494915,22.47,0.0,0.0,0.0,0.02943,0.14715,9.79038
3454545420,22.47,0.0,0.0,0.0,0.009810000000000001,0.15696000000000002,9.81
3459595925,22.47,0.0,0.0,0.0,0.009810000000000001,0.14715,9.78057
3464646430,22.47,0.0,0.0,0.0,0.039240000000000004,0.15696000000000002,9.81
3469696935,22.47,0.0,0.0,0.0,0.039240000000000004,0.15696000000000002,9.79038
3474747440,22.47,0.0,0.0,0.0,0.02943,0.17658,9.79038
3479797945,22.47,0.0,0.0,0.0,0.019620000000000002,0.18639,9.80019
3484848450,22.47,0.0,0.0,0.0,0.039240000000000004,0.16677000000000003,9.79038
3489898955,22.47,0.0,0.0,0.0,0.039240000000000004,0.16677000000000003,9.79038
3494949460,22.47,0.0,0.0,0.0,0.04905,0.15696000000000002,9.79038
3499999965,22.47,0.0,0.0,0.0,0.019620000000000002,0.13734000000000002,9.819809999999999
3505050470,22.47,0.0,0.0,0.0,0.0,0.14715,9.79038
3510100975,22.47,0.0,0.0,0.0,0.02943,0.16677000000000003,9.78057
3515151480,22.47,0.0,0.0,0.0,0.019620000000000002,0.16677000000000003,9.80019
3520201985,22.47,0.0,0.0,0.0,0.039240000000000004,0.16677000000000003,9.78057
3525252490,22.47,0.0,0.0,0.0,0.039240000000000004,0.15696000000000002,9.79038
3530302995,22.47,0.0,0.0,0.0,0.04905,0.13734000000000002,9.81
3535353500,22.47,0.0,0.0,0.0,0.019620000000000002,0.12753,9.80019
3540404005,22.47,0.0,0.0,0.0,0.019620000000000002,0.16677000000000003,9.79038
3545454510,22.47,0.0,0.0,0.0,0.019620000000000002,0.13734000000000002,9.79038
3550505015,22.47,0.0,0.0,0.0,0.039240000000000004,0.16677000000000003,9.79038
3555555520,22.47,0.0,0.0,0.0,0.06867000000000001,0.15696000000000002,9.79038
3560606025,22.47,0.0,0.0,0.0,0.039240000000000004,0.18639,9.79038
3565656530,22.47,0.0,0.0,0.0,0.039240000000000004,0.16677000000000003,9.819809999999999
3570707035,22.47,0.0,0.0,0.0,0.02943,0.15696000000000002,9.81
3575757540,22.47,0.0,0.0,0.0,0.039240000000000004,0.13734000000000002,9.81
3580808045,22.47,0.0,0.0,0.0,0.009810000000000001,0.12753,9.770760000000001
3585858550,22.47,0.0,0.0,0.0,0.05886,0.15696000000000002,9.79038
3590909055,22.47,0.0,0.0,0.0,0.039240000000000004,0.13734000000000002,9.81
3595959560,22.47,0.0,0.0,0.0,0.04905,0.15696000000000002,9.770760000000001
3601010065,22.47,0.0,0.0,0.0,0.009810000000000001,0.14715,9.819809999999999
3606060570,22.47,0.0,0.0,0.0,0.019620000000000002,0.17658,9.80019
3611111075,22.47,0.0,0.0,0.0,0.02943,0.16677000000000003,9.79038
3616161580,22.47,0.0,0.0,0.0,0.019620000000000002,0.15696000000000002,9.79038
3621212085,22.47,0.0,0.0,0.0,0.039240000000000004,0.16677000000000003,9.80019
3626262590,22.47,0.0,0.0,0.0,0.05886,0.15696000000000002,9.80019
3631313095,22.47,0.0,0.0,0.0,0.02943,0.18639,9.79038
3636363600,22.47,0.0,0.0,0.0,0.019620000000000002,0.15696000000000002,9.80019
3641414105,22.47,0.0,0.0,0.0,0.02943,0.14715,9.80019
3646464610,22.47,0.0,0.0,0.0,0.019620000000000002,0.15696000000000002,9.770760000000001
3651515115,22.47,0.0,0.0,0.0,0.009810000000000001,0.20601000000000003,9.78057
3656565620,22.47,0.0,0.0,0.0,0.009810000000000001,0.019620000000000002,9.760950000000001
3661616125,22.47,0.002129301687433082,0.05539675045830002,-0.005323254218582705,0.05886,0.0,9.66285
3666666630,22.47,0.006387905062299246,0.1171814059788993,0.0,-0.20601000000000003,0.36297,9.70209
3671717135,22.47,0.01918116847941768,0.11398745344774965,0.002129301687433082,-0.6867000000000001,0.31392000000000003,9.92772
3676767640,22.47,0.024504422698000388,0.09587093581204853,-0.002129301687433082,-0.9221400000000001,0.3924,9.69228
3681818145,22.47,0.0170518667919846,0.05113814708343386,0.001064650843716541,-0.8240400000000001,0.23544,9.633420000000001
3686868650,22.47,0.022375121010567305,-0.02663372438543347,-0.002129301687433082,-0.7651800000000001,0.44145,9.59418
3691919155,22.47,0.013840460968315033,-0.14487978120804929,0.002129301687433082,-0.52974,1.02024,9.56475
3696969660,22.47,-0.02769837522915001,-0.23010420858293237,0.003193952531149623,0.02943,1.0987200000000001,10.32993
3702020165,22.47,-0.05326744877086694,-0.28335420406127937,0.0,0.9123300000000001,0.51993,10.15335
3707070670,22.47,-0.1416858286768997,-0.2205048976969636,0.001064650843716541,1.45188,0.04905,9.52551
3712121175,22.47,-0.14594443205176583,-0.18216001403064813,0.001064650843716541,1.4813100000000001,-0.28449,9.37836
3717171680,22.47,-0.13955652698946658,-0.04366813788489812,0.001064650843716541,1.60884,-0.5886,9.74133
3722222185,22.47,-0.08948303074974927,0.07456046564519776,-0.005323254218582705,1.2851100000000002,-0.59841,9.83943
3727272690,22.47,-0.05539675045830002,0.22689280275926285,-0.002129301687433082,0.9221400000000001,-0.51993,10.398600000000002
3732323195,22.47,0.0170518667919846,0.27590164815526363,0.0,0.46107000000000004,-0.56898,10.17297
3737373700,22.47,0.06284930636431581,0.2950828166346813,0.0,-0.26487,-0.23544,10.074869999999999
3742424205,22.47,0.08309512568745003,0.23755676448894822,-0.001064650843716541,-0.8829,-0.1962,9.57456
3747474710,22.47,0.1278279144160647,0.12463396188491506,0.0,-1.19682,0.0,9.79038
3752525215,22.47,0.13102186694721432,-0.014905111812031574,0.0,-1.08891,0.17658,9.47646
3757575720,22.47,0.1331511686346474,-0.12250466019748199,-0.003193952531149623,-0.85347,0.7651800000000001,9.751140000000001
3762626225,22.47,0.15872024217636432,-0.1832246648743647,-0.003193952531149623,-0.37278,1.8737100000000002,9.64323
3767676730,22.47,0.002129301687433082,-0.1352804703220805,-0.001064650843716541,0.30411,1.3341600000000002,10.879290000000001
3772727235,22.47,0.005323254218582705,-0.10225884087434776,-0.001064650843716541,0.30411,0.12753,8.789760000000001
3777777740,22.47,-0.14594443205176583,0.01064650843716541,0.004258603374866164,-0.13734000000000002,0.2943,8.83881
3782828245,22.47,-0.10012953918691468,0.022375121010567305,0.0,0.0,-0.22563,9.40779
3787878750,22.47,-0.09480628496833199,0.011711159280881954,0.002129301687433082,-0.039240000000000004,-0.08829,10.22202
3792929255,22.47,-0.08415977653116657,-0.0404741853537485,0.003193952531149623,0.0,-0.13734000000000002,10.22202
3797979760,22.47,-0.01811651763570114,-0.11824605682261582,0.0,0.11772,-0.22563,10.11411
3803030265,22.47,-0.007452555906015787,-0.12463396188491506,-0.003193952531149623,0.33354000000000006,-0.16677000000000003,9.79038
3808080770,22.47,0.02769837522915001,-0.10653489754173388,-0.005323254218582705,0.70632,0.02943,9.68247
3813131275,22.47,0.02982767691658309,-0.01064650843716541,-0.001064650843716541,0.9319500000000001,-0.11772,9.83943
3818181780,22.47,0.03089232776029963,0.08096582400001695,0.0,0.59841,0.06867000000000001,9.58437
3823232285,22.47,0.024504422698000388,0.15978489302008084,0.001064650843716541,0.32373,0.0,9.74133
3828282790,22.47,0.05752605214573309,0.17364280728091586,-0.001064650843716541,-0.13734000000000002,0.11772,9.84924
3833333295,22.47,0.05220279792715039,0.18535396656179778,-0.001064650843716541,-0.47088,0.27468000000000004,9.760950000000001
3838383800,22.47,0.06284930636431581,0.14275047952061623,-0.002129301687433082,-0.7749900000000001,0.37278,9.819809999999999
3843434305,22.47,0.05326744877086694,0.07670722062515077,-0.004258603374866164,-1.00062,0.6670800000000001,9.83943
3848484810,22.47,0.014905111812031574,0.01918116847941768,0.0,-0.95157,0.47088,10.006200000000002
3853535315,22.47,-0.005323254218582705,-0.054332099614583476,-0.001064650843716541,-0.89271,0.44145,9.7119
3858585820,22.47,-0.03408628029144926,-0.09587093581204853,0.002129301687433082,-0.6768900000000001,0.41202000000000005,9.623610000000001
3863636325,22.47,-0.05752605214573309,-0.15233233711406508,0.004258603374866164,-0.34335000000000004,0.35316,9.7119
3868686830,22.47,-0.05859070298944965,-0.19708257913519966,-0.001064650843716541,0.04905,0.38259000000000004,9.84924
3873737335,22.47,-0.08096582400001695,-0.20027653166634932,0.001064650843716541,0.6278400000000001,0.25506,9.97677
3878787840,22.47,-0.07456046564519776,-0.177901410655782,0.0,0.9711900000000001,0.08829,9.73152
3883838345,22.47,-0.08203047484373349,-0.12250466019748199,0.0,1.2360600000000002,-0.17658,9.74133
3888888850,22.47,-0.08203047484373349,-0.05007349623971732,-0.001064650843716541,1.26549,-0.40221,9.64323
3893939355,22.47,-0.05539675045830002,0.04153883619746504,0.0,1.10853,-0.41202000000000005,9.78057
3898989860,22.47,-0.02663372438543347,0.11185815176031658,-0.001064650843716541,0.87309,-0.36297,10.09449
3904040365,22.47,0.02663372438543347,0.16404349639494703,0.0,0.50031,-0.28449,10.006200000000002
3909090870,22.47,0.05539675045830002,0.18748326824923087,0.0,0.16677000000000003,-0.17658,9.751140000000001
3914141375,22.47,0.08415977653116657,0.18748326824923087,-0.005323254218582705,-0.22563,0.009810000000000001,9.58437
3919191880,22.47,0.10012953918691468,0.17364280728091586,-0.003193952531149623,-0.5886,0.15696000000000002,9.59418
3924242385,22.47,0.09374163412461543,0.13634512116579703,-0.002129301687433082,-0.89271,0.31392000000000003,9.65304
3929292890,22.47,0.09161233243718235,0.08203047484373349,-0.002129301687433082,-1.0791000000000002,0.8142300000000001,9.819809999999999
3934343395,22.47,0.08415977653116657,0.008517206749732328,-0.001064650843716541,-1.03986,0.84366,10.01601
3939393900,22.47,0.022375121010567305,-0.046879543708567686,0.001064650843716541,-0.9221400000000001,0.94176,10.006200000000002
3944444405,22.47,-0.03089232776029963,-0.10012953918691468,-0.001064650843716541,-0.59841,0.56898,9.40779
3949494910,22.47,-0.05752605214573309,-0.15659094048893124,0.002129301687433082,-0.46107000000000004,0.51012,9.496080000000001
3954545415,22.47,-0.09480628496833199,-0.17364280728091586,0.0,-0.05886,0.27468000000000004,9.57456
3959595920,22.47,-0.10545279340549739,-0.177901410655782,0.001064650843716541,0.31392000000000003,0.07848000000000001,9.87867
3964646425,22.47,-0.10653489754173388,-0.15765559133264778,-0.002129301687433082,0.63765,-0.13734000000000002,9.98658
3969696930,22.47,-0.09800023749948161,-0.1097288500728835,0.0,0.85347,-0.36297,10.09449
3974747435,22.47,-0.07777187146886733,-0.05007349623971732,-0.001064650843716541,0.86328,-0.3924,10.08468
3979797940,22.47,-0.03834488366631542,0.0170518667919846,-0.001064650843716541,0.86328,-0.40221,10.045440000000001
3984848445,22.47,0.0,0.06817256058289851,0.0,0.69651,-0.38259000000000004,9.81
3989898950,22.47,0.02982767691658309,0.09374163412461543,0.0,0.52974,-0.22563,9.74133
3994949455,22.47,0.05752605214573309,0.10545279340549739,-0.002129301687433082,0.32373,-0.12753,9.66285
3999999960,22.47,0.08948303074974927,0.11824605682261582,-0.002129301687433082,0.04905,0.02943,9.72171
4005050465,22.47,0.10119419003063122,0.11611675513518273,-0.003193952531149623,-0.1962,0.17658,9.819809999999999
4010100970,22.47,0.10119419003063122,0.09800023749948161,-0.001064650843716541,-0.38259000000000004,0.70632,9.91791
4015151475,22.47,0.07349581480148122,0.0756251164889143,-0.001064650843716541,-0.44145,0.63765,10.22202
4020201980,22.47,0.05220279792715039,0.04794419455228423,0.0,-0.59841,0.6180300000000001,9.66285
4025252485,22.47,-0.005323254218582705,0.02982767691658309,0.003193952531149623,-0.59841,0.5395500000000001,9.496080000000001
4030302990,22.47,-0.012775810124598492,-0.015987215948268057,0.002129301687433082,-0.59841,0.3924,9.42741
4035353495,22.47,-0.03834488366631542,-0.05113814708343386,0.002129301687433082,-0.5493600000000001,0.38259000000000004,9.47646
4040404000,22.47,-0.05220279792715039,-0.08415977653116657,0.002129301687433082,-0.38259000000000004,0.15696000000000002,9.7119
4045454505,22.47,-0.060720004676882725,-0.11079350091660004,0.0,-0.18639,0.009810000000000001,9.85905
4050505010,22.47,-0.060720004676882725,-0.12144000935376545,0.001064650843716541,0.019620000000000002,0.039240000000000004,9.86886
4055555515,22.47,-0.05007349623971732,-0.12569861272863161,0.0,0.31392000000000003,0.0,9.98658
4060606020,22.47,-0.039409534510031964,-0.10012953918691468,0.002129301687433082,0.59841,-0.039240000000000004,9.89829
4065656525,22.47,-0.028763026072866547,-0.05859070298944965,0.0,0.73575,-0.0981,9.70209
4070707030,22.47,-0.007452555906015787,-0.0170518667919846,-0.002129301687433082,0.7651800000000001,-0.0981,9.54513
4075757535,22.47,-0.001064650843716541,0.033021629447732716,-0.002129301687433082,0.69651,-0.05886,9.59418
4080808040,22.47,0.015987215948268057,0.0756251164889143,0.001064650843716541,0.51993,-0.04905,9.65304
4085858545,22.47,0.024504422698000388,0.10866419922916695,-0.001064650843716541,0.24525000000000002,0.009810000000000001,9.819809999999999
4090909050,22.47,0.03621558197888234,0.11505210429146619,0.0,0.0,0.11772,9.89829
4095959555,22.47,0.0404741853537485,0.10332349171806432,0.002129301687433082,-0.22563,0.23544,9.937529999999999
4101010060,22.47,0.049008845396000776,0.0756251164889143,0.0,-0.41202000000000005,0.38259000000000004,9.84924
4106060565,22.47,0.033021629447732716,0.04794419455228423,-0.003193952531149623,-0.45126,0.51993,9.770760000000001
4111111070,22.47,0.013840460968315033,0.01811651763570114,-0.001064650843716541,-0.46107000000000004,0.45126,9.65304
4116161575,22.47,-0.01064650843716541,-0.005323254218582705,0.001064650843716541,-0.47088,0.38259000000000004,9.57456
4121212080,22.47,-0.03515093113516579,-0.03089232776029963,0.0,-0.42183,0.26487,9.58437
4126262585,22.47,-0.04794419455228423,-0.05007349623971732,0.001064650843716541,-0.33354000000000006,0.17658,9.74133
4131313090,22.47,-0.05326744877086694,-0.07030186227033158,0.001064650843716541,-0.22563,0.08829,9.908100000000001
4136363595,22.47,-0.04581489286485115,-0.09054768159346581,0.006387905062299246,-0.05886,-0.009810000000000001,10.06506
4141414100,22.47,-0.04260348704118158,-0.10438814256178083,0.0,0.16677000000000003,0.039240000000000004,10.09449
4146464605,22.47,-0.02663372438543347,-0.09374163412461543,0.002129301687433082,0.41202000000000005,0.019620000000000002,10.074869999999999
4151515110,22.47,-0.0170518667919846,-0.06604325889546543,0.0,0.59841,0.009810000000000001,9.82962
4156565615,22.47,-0.01811651763570114,-0.015987215948268057,0.0,0.63765,-0.05886,9.751140000000001
4161616120,22.47,-0.008517206749732328,0.02663372438543347,-0.001064650843716541,0.5591700000000001,-0.11772,9.72171
4166666625,22.47,0.002129301687433082,0.05965535383316618,-0.002129301687433082,0.41202000000000005,-0.07848000000000001,9.81
4171717130,22.47,0.011711159280881954,0.08309512568745003,-0.003193952531149623,0.24525000000000002,-0.009810000000000001,9.99639
4176767635,22.47,0.031956978604016174,0.0756251164889143,-0.002129301687433082,0.04905,0.06867000000000001,9.937529999999999
4181818140,22.47,0.044732788728614664,0.06604325889546543,-0.002129301687433082,-0.11772,0.17658,9.83943
4186868645,22.47,0.05220279792715039,0.05646140130201656,-0.002129301687433082,-0.18639,0.37278,9.73152
4191919150,22.47,0.033021629447732716,0.05113814708343386,-0.002129301687433082,-0.23544,0.41202000000000005,9.85905
4196969655,22.47,0.023439771854283843,0.03515093113516579,-0.002129301687433082,-0.33354000000000006,0.35316,9.59418
4202020160,22.47,-0.002129301687433082,0.01811651763570114,-0.001064650843716541,-0.37278,0.37278,9.53532
4207070665,22.47,-0.015987215948268057,-0.008517206749732328,0.001064650843716541,-0.34335000000000004,0.33354000000000006,9.52551
4212121170,22.47,-0.023439771854283843,-0.03728023282259888,0.003193952531149623,-0.26487,0.2943,9.64323
4217171675,22.47,-0.03408628029144926,-0.060720004676882725,0.0,-0.13734000000000002,0.1962,9.73152
4222222180,22.47,-0.033021629447732716,-0.07456046564519776,0.001064650843716541,-0.02943,0.12753,9.74133
4227272685,22.47,-0.03408628029144926,-0.07883652231258387,0.001064650843716541,0.13734000000000002,0.10791,9.70209
4232323190,22.47,-0.033021629447732716,-0.06391395720803235,-0.002129301687433082,0.31392000000000003,0.04905,9.72171
4237373695,22.47,-0.031956978604016174,-0.03621558197888234,0.001064650843716541,0.42183,0.0,9.7119
4242424200,22.47,-0.022375121010567305,-0.004258603374866164,0.002129301687433082,0.41202000000000005,-0.05886,9.633420000000001
4247474705,22.47,-0.0170518667919846,0.02556907354171693,-0.003193952531149623,0.34335000000000004,-0.019620000000000002,9.751140000000001
4252525210,22.47,-0.002129301687433082,0.03621558197888234,0.0,0.24525000000000002,-0.009810000000000001,9.86886
4257575715,22.47,0.00958185759344887,0.03728023282259888,0.0,0.14715,0.0981,9.937529999999999
4262626220,22.47,0.015987215948268057,0.039409534510031964,-0.001064650843716541,0.06867000000000001,0.0981,10.045440000000001
4267676725,22.47,0.01918116847941768,0.04366813788489812,-0.002129301687433082,-0.009810000000000001,0.16677000000000003,10.01601
4272727230,22.47,0.011711159280881954,0.044732788728614664,0.002129301687433082,-0.0981,0.14715,9.89829
4277777735,22.47,0.005323254218582705,0.04366813788489812,-0.004258603374866164,-0.20601000000000003,0.15696000000000002,9.908100000000001
4282828240,22.47,0.002129301687433082,0.02769837522915001,0.001064650843716541,-0.24525000000000002,0.18639,9.83943
4287878745,22.47,-0.006387905062299246,0.007452555906015787,-0.003193952531149623,-0.26487,0.1962,9.888480000000001
4292929250,22.47,-0.006387905062299246,-0.0170518667919846,0.001064650843716541,-0.25506,0.20601000000000003,9.89829
4297979755,22.47,-0.008517206749732328,-0.039409534510031964,0.0,-0.17658,0.20601000000000003,9.85905
4303030260,22.47,-0.014905111812031574,-0.05220279792715039,-0.001064650843716541,-0.02943,0.17658,9.85905
4308080765,22.47,-0.012775810124598492,-0.05539675045830002,-0.001064650843716541,0.0981,0.11772,9.81
4313131270,22.47,-0.01811651763570114,-0.03834488366631542,-0.004258603374866164,0.1962,0.009810000000000001,9.760950000000001
4318181775,22.47,-0.01811651763570114,-0.022375121010567305,-0.001064650843716541,0.22563,-0.009810000000000001,9.68247
4323232280,22.47,-0.007452555906015787,-0.002129301687433082,-0.001064650843716541,0.22563,0.019620000000000002,9.58437
4328282785,22.47,0.003193952531149623,0.00958185759344887,0.0,0.23544,0.16677000000000003,9.60399
4333333290,22.47,0.012775810124598492,0.0170518667919846,0.001064650843716541,0.23544,0.23544,9.6138
4338383795,22.47,0.008517206749732328,0.02769837522915001,-0.003193952531149623,0.17658,0.27468000000000004,9.623610000000001
4343434300,22.47,0.005323254218582705,0.03621558197888234,0.001064650843716541,0.08829,0.25506,9.60399
4348484805,22.47,-0.001064650843716541,0.039409534510031964,0.0,-0.009810000000000001,0.18639,9.633420000000001
4353535310,22.47,-0.00958185759344887,0.03728023282259888,0.002129301687433082,-0.12753,0.16677000000000003,9.633420000000001
4358585815,22.47,-0.013840460968315033,0.03408628029144926,-0.002129301687433082,-0.1962,0.11772,9.72171
4363636320,22.47,-0.0170518667919846,0.013840460968315033,-0.001064650843716541,-0.20601000000000003,0.14715,9.70209
4368686825,22.47,-0.012775810124598492,-0.002129301687433082,0.0,-0.24525000000000002,0.16677000000000003,9.83943
4373737330,22.47,-0.0170518667919846,-0.021310470166850764,-0.001064650843716541,-0.1962,0.20601000000000003,9.86886
4378787835,22.47,-0.0170518667919846,-0.03621558197888234,0.003193952531149623,-0.13734000000000002,0.15696000000000002,9.92772
4383838340,22.47,-0.023439771854283843,-0.046879543708567686,0.002129301687433082,-0.039240000000000004,0.05886,9.94734
4388888845,22.47,-0.03089232776029963,-0.05113814708343386,0.0,0.04905,0.009810000000000001,9.97677
4393939350,22.47,-0.028763026072866547,-0.04366813788489812,0.0,0.14715,-0.009810000000000001,9.92772
4398989855,22.47,-0.020245819323134222,-0.03089232776029963,0.002129301687433082,0.20601000000000003,0.0,9.908100000000001
4404040360,22.47,-0.01064650843716541,-0.015987215948268057,-0.001064650843716541,0.27468000000000004,0.0,9.908100000000001
4409090865,22.47,-0.001064650843716541,-0.003193952531149623,-0.002129301687433082,0.30411,0.04905,9.86886
4414141370,22.47,0.002129301687433082,0.006387905062299246,-0.004258603374866164,0.2943,0.05886,9.819809999999999
4419191875,22.47,0.006387905062299246,0.020245819323134222,-0.002129301687433082,0.24525000000000002,0.11772,9.80019
4424242380,22.47,0.00958185759344887,0.031956978604016174,0.0,0.16677000000000003,0.14715,9.78057
4429292885,22.47,0.008517206749732328,0.03834488366631542,0.0,0.11772,0.17658,9.760950000000001
4434343390,22.47,0.005323254218582705,0.04153883619746504,-0.002129301687433082,0.02943,0.17658,9.79038
4439393895,22.47,0.005323254218582705,0.03515093113516579,-0.001064650843716541,-0.05886,0.1962,9.760950000000001
4444444400,22.47,-0.001064650843716541,0.02663372438543347,0.0,-0.12753,0.17658,9.72171
4449494905,22.47,-0.006387905062299246,0.012775810124598492,-0.003193952531149623,-0.17658,0.22563,9.67266
4454545410,22.47,-0.00958185759344887,0.001064650843716541,0.0,-0.16677000000000003,0.1962,9.72171
4459595915,22.47,-0.014905111812031574,-0.013840460968315033,0.0,-0.14715,0.20601000000000003,9.78057
4464646420,22.47,-0.01811651763570114,-0.021310470166850764,0.0,-0.10791,0.08829,9.87867
4469696925,22.47,-0.022375121010567305,-0.0170518667919846,0.0,-0.08829,0.0,9.86886
4474747430,22.47,-0.01811651763570114,-0.014905111812031574,-0.001064650843716541,-0.06867000000000001,0.009810000000000001,9.78057
4479797935,22.47,-0.01064650843716541,-0.01918116847941768,0.0,0.0,0.05886,9.74133
4484848440,22.47,-0.002129301687433082,-0.020245819323134222,0.0,0.02943,0.14715,9.69228
4489898945,22.47,-0.003193952531149623,-0.024504422698000388,0.0,0.13734000000000002,0.23544,9.72171
4494949450,22.47,-0.008517206749732328,-0.0170518667919846,-0.001064650843716541,0.22563,0.21582,9.751140000000001
4499999955,22.47,-0.00958185759344887,-0.002129301687433082,0.0,0.21582,0.16677000000000003,9.68247
4505050460,22.47,-0.020245819323134222,0.00958185759344887,-0.003193952531149623,0.15696000000000002,0.08829,9.73152
4510100965,22.47,-0.01918116847941768,0.012775810124598492,-0.002129301687433082,0.0981,0.04905,9.751140000000001
4515151470,22.47,-0.020245819323134222,0.013840460968315033,0.0,0.039240000000000004,0.0,9.79038
4520201975,22.47,-0.013840460968315033,0.0170518667919846,-0.001064650843716541,0.019620000000000002,0.039240000000000004,9.81
4525252480,22.47,-0.005323254218582705,0.024504422698000388,-0.001064650843716541,0.0,0.10791,9.82962
4530302985,22.47,0.002129301687433082,0.022375121010567305,-0.001064650843716541,-0.05886,0.18639,9.84924
4535353490,22.47,0.001064650843716541,0.013840460968315033,0.001064650843716541,-0.10791,0.20601000000000003,9.888480000000001
4540403995,22.47,-0.011711159280881954,0.001064650843716541,-0.001064650843716541,-0.0981,0.13734000000000002,9.888480000000001
4545454500,22.47,-0.0170518667919846,-0.003193952531149623,-0.002129301687433082,-0.10791,0.06867000000000001,9.84924
4550505005,22.47,-0.0170518667919846,-0.006387905062299246,0.0,-0.06867000000000001,0.04905,9.83943
4555555510,22.47,-0.008517206749732328,-0.012775810124598492,0.001064650843716541,-0.06867000000000001,0.08829,9.81
4560606015,22.47,-0.003193952531149623,-0.01918116847941768,0.0,-0.039240000000000004,0.15696000000000002,9.78057
4565656520,22.47,-0.002129301687433082,-0.02556907354171693,0.001064650843716541,0.05886,0.18639,9.74133
4570707025,22.47,-0.007452555906015787,-0.020245819323134222,-0.002129301687433082,0.14715,0.21582,9.67266
4575757530,22.47,-0.013840460968315033,-0.00958185759344887,-0.001064650843716541,0.18639,0.18639,9.66285
4580808035,22.47,-0.024504422698000388,-0.0,-0.002129301687433082,0.17658,0.10791,9.72171
4585858540,22.47,-0.02663372438543347,-0.001064650843716541,-0.001064650843716541,0.15696000000000002,0.019620000000000002,9.80019
4590909045,22.47,-0.023439771854283843,0.0,0.0,0.11772,-0.019620000000000002,9.87867
4595959550,22.47,-0.015987215948268057,0.003193952531149623,-0.001064650843716541,0.0981,-0.019620000000000002,9.89829
4601010055,22.47,-0.007452555906015787,0.006387905062299246,-0.001064650843716541,0.04905,0.019620000000000002,9.87867
4606060560,22.47,0.003193952531149623,0.004258603374866164,0.0,0.05886,0.0981,9.83943
4611111065,22.47,0.001064650843716541,-0.001064650843716541,-0.001064650843716541,0.06867000000000001,0.20601000000000003,9.81
4616161570,22.47,-0.003193952531149623,-0.003193952531149623,-0.001064650843716541,0.13734000000000002,0.20601000000000003,9.79038
4621212075,22.47,-0.008517206749732328,0.005323254218582705,-0.001064650843716541,0.11772,0.12753,9.770760000000001
4626262580,22.47,-0.011711159280881954,0.011711159280881954,0.0,0.05886,0.0981,9.72171
4631313085,22.47,-0.008517206749732328,0.020245819323134222,0.0,0.019620000000000002,0.07848000000000001,9.74133
4636363590,22.47,-0.012775810124598492,0.011711159280881954,0.0,-0.019620000000000002,0.06867000000000001,9.80019
4641414095,22.47,-0.008517206749732328,0.006387905062299246,0.0,-0.039240000000000004,0.11772,9.73152
4646464600,22.47,-0.006387905062299246,0.005323254218582705,0.0,-0.02943,0.12753,9.73152
4651515105,22.47,-0.00958185759344887,0.008517206749732328,0.0,-0.02943,0.16677000000000003,9.73152
4656565610,22.47,-0.011711159280881954,0.006387905062299246,0.0,-0.04905,0.13734000000000002,9.79038
4661616115,22.47,-0.01918116847941768,-0.001064650843716541,0.0,-0.039240000000000004,0.08829,9.85905
4666666620,22.47,-0.02663372438543347,-0.008517206749732328,0.0,-0.06867000000000001,0.009810000000000001,9.888480000000001
4671717125,22.47,-0.021310470166850764,-0.013840460968315033,0.0,-0.02943,0.0,9.84924
4676767630,22.47,-0.012775810124598492,-0.015987215948268057,0.0,-0.019620000000000002,0.019620000000000002,9.85905
4681818135,22.47,-0.006387905062299246,-0.012775810124598492,0.0,0.02943,0.08829,9.819809999999999
4686868640,22.47,-0.003193952531149623,-0.01064650843716541,0.0,0.07848000000000001,0.13734000000000002,9.78057
4691919145,22.47,-0.005323254218582705,-0.004258603374866164,0.0,0.11772,0.16677000000000003,9.74133
4696969650,22.47,-0.00958185759344887,0.002129301687433082,0.0,0.13734000000000002,0.11772,9.73152
4702020155,22.47,-0.011711159280881954,0.008517206749732328,0.0,0.05886,0.11772,9.74133
4707070660,22.47,-0.023439771854283843,0.020245819323134222,0.0,0.009810000000000001,0.05886,9.80019
4712121165,22.47,-0.020245819323134222,0.01918116847941768,0.0,-0.02943,0.039240000000000004,9.86886
4717171670,22.47,-0.013840460968315033,0.01064650843716541,0.0,-0.06867000000000001,0.0,9.91791
4722222175,22.47,-0.008517206749732328,0.002129301687433082,0.0,-0.07848000000000001,0.019620000000000002,9.84924
4727272680,22.47,-0.006387905062299246,-0.005323254218582705,0.0,-0.07848000000000001,0.06867000000000001,9.82962
4732323185,22.47,-0.003193952531149623,-0.008517206749732328,0.0,-0.009810000000000001,0.13734000000000002,9.81
4737373690,22.47,-0.002129301687433082,-0.015987215948268057,0.0,0.019620000000000002,0.15696000000000002,9.83943
4742424195,22.47,-0.00958185759344887,-0.012775810124598492,0.0,0.05886,0.11772,9.79038
4747474700,22.47,-0.01064650843716541,-0.012775810124598492,0.0,0.0981,0.0981,9.7119
4752525205,22.47,-0.01811651763570114,-0.012775810124598492,0.0,0.12753,0.08829,9.67266
4757575710,22.47,-0.0170518667919846,-0.006387905062299246,0.0,0.11772,0.11772,9.70209
4762626215,22.47,-0.015987215948268057,-0.003193952531149623,0.0,0.13734000000000002,0.11772,9.72171
4767676720,22.47,-0.013840460968315033,0.003193952531149623,0.0,0.14715,0.0981,9.72171
4772727225,22.47,-0.011711159280881954,0.002129301687433082,0.0,0.13734000000000002,0.08829,9.7119
4777777730,22.47,-0.015987215948268057,0.004258603374866164,0.0,0.06867000000000001,0.039240000000000004,9.73152
4782828235,22.47,-0.0170518667919846,0.013840460968315033,0.0,0.05886,0.04905,9.80019
4787878740,22.47,-0.013840460968315033,0.011711159280881954,0.0,0.009810000000000001,0.019620000000000002,9.83943
4792929245,22.47,-0.011711159280881954,0.01064650843716541,0.0,0.009810000000000001,0.039240000000000004,9.84924
4797979750,22.47,-0.007452555906015787,0.002129301687433082,0.0,0.0,0.07848000000000001,9.79038
4803030255,22.47,-0.002129301687433082,-0.003193952531149623,0.0,0.0,0.16677000000000003,9.74133
4808080760,22.47,-0.002129301687433082,0.002129301687433082,0.0,0.04905,0.20601000000000003,9.70209
4813131265,22.47,-0.005323254218582705,0.011711159280881954,0.0,-0.009810000000000001,0.18639,9.69228
4818181770,22.47,-0.01811651763570114,0.012775810124598492,0.0,0.0,0.12753,9.73152
4823232275,22.47,-0.024504422698000388,0.008517206749732328,0.0,-0.06867000000000001,0.039240000000000004,9.79038
4828282780,22.47,-0.03089232776029963,0.004258603374866164,0.0,-0.0981,0.0,9.86886
4833333285,22.47,-0.02663372438543347,0.0,0.0,-0.12753,-0.019620000000000002,9.91791
4838383790,22.47,-0.015987215948268057,-0.004258603374866164,0.0,-0.08829,-0.039240000000000004,9.99639
4843434295,22.47,-0.008517206749732328,-0.011711159280881954,0.0,-0.07848000000000001,0.0,9.95715
4848484800,22.47,-0.006387905062299246,-0.01918116847941768,0.0,-0.039240000000000004,0.039240000000000004,9.85905
4853535305,22.47,-0.002129301687433082,-0.023439771854283843,0.0,0.02943,0.13734000000000002,9.80019
4858585810,22.47,0.0,-0.012775810124598492,0.0,0.10791,0.1962,9.74133
4863636315,22.47,-0.008517206749732328,0.0,0.0,0.12753,0.15696000000000002,9.72171
4868686820,22.47,-0.014905111812031574,0.008517206749732328,0.0,0.10791,0.0981,9.72171
4873737325,22.47,-0.020245819323134222,0.006387905062299246,0.0,0.05886,0.05886,9.751140000000001
4878787830,22.47,-0.020245819323134222,0.001064650843716541,0.0,0.039240000000000004,0.04905,9.751140000000001
4883838335,22.47,-0.01918116847941768,0.005323254218582705,0.0,0.009810000000000001,0.009810000000000001,9.81
4888888840,22.47,-0.013840460968315033,0.003193952531149623,0.0,0.009810000000000001,0.009810000000000001,9.80019
4893939345,22.47,-0.011711159280881954,0.0,0.0,0.0,0.04905,9.80019
4898989850,22.47,-0.00958185759344887,-0.006387905062299246,0.0,0.02943,0.07848000000000001,9.74133
4904040355,22.47,-0.006387905062299246,-0.01064650843716541,0.0,0.05886,0.14715,9.74133
4909090860,22.47,-0.006387905062299246,-0.007452555906015787,0.0,0.07848000000000001,0.1962,9.73152
4914141365,22.47,-0.011711159280881954,-0.006387905062299246,0.0,0.12753,0.15696000000000002,9.7119
4919191870,22.47,-0.01811651763570114,-0.005323254218582705,0.0,0.11772,0.10791,9.72171
4924242375,22.47,-0.02556907354171693,0.0,0.0,0.0981,0.02943,9.67266
4929292880,22.47,-0.02982767691658309,0.003193952531149623,0.0,0.06867000000000001,0.009810000000000001,9.70209
4934343385,22.47,-0.02982767691658309,0.008517206749732328,0.0,0.04905,-0.02943,9.81
4939393890,22.47,-0.021310470166850764,0.007452555906015787,0.0,0.04905,-0.039240000000000004,9.908100000000001
4944444395,22.47,-0.015987215948268057,0.0,0.0,0.009810000000000001,-0.019620000000000002,9.94734
4949494900,22.47,-0.011711159280881954,-0.005323254218582705,0.0,0.039240000000000004,0.04905,9.91791
4954545405,22.47,0.0,-0.002129301687433082,0.0,0.02943,0.05886,9.87867
4959595910,22.47,0.0,0.008517206749732328,0.0,0.04905,0.0981,9.79038
4964646415,22.47,-0.005323254218582705,0.015987215948268057,0.0,0.04905,0.08829,9.73152
4969696920,22.47,-0.01064650843716541,0.0170518667919846,0.0,0.009810000000000001,0.06867000000000001,9.72171
4974747425,22.47,-0.0170518667919846,0.014905111812031574,0.0,-0.02943,0.0981,9.760950000000001
4979797930,22.47,-0.0170518667919846,0.01918116847941768,0.0,-0.06867000000000001,0.06867000000000001,9.83943
4984848435,22.47,-0.0170518667919846,0.011711159280881954,0.0,-0.14715,0.039240000000000004,9.89829
4989898940,22.47,-0.023439771854283843,-0.001064650843716541,0.0,-0.14715,0.019620000000000002,9.91791
4994949445,22.47,-0.020245819323134222,-0.015987215948268057,0.0,-0.11772,0.0,9.87867
4999999950,22.47,-0.013840460968315033,-0.021310470166850764,0.0,-0.04905,0.039240000000000004,9.82962
5005050455,22.47,-0.006387905062299246,-0.01811651763570114,0.0,0.0,0.08829,9.760950000000001
5010100960,22.47,-0.004258603374866164,-0.0170518667919846,0.0,0.06867000000000001,0.14715,9.72171
5015151465,22.47,-0.01064650843716541,-0.014905111812031574,0.0,0.08829,0.14715,9.74133
5020201970,22.47,-0.021310470166850764,-0.008517206749732328,0.0,0.12753,0.07848000000000001,9.73152
5025252475,22.47,-0.02663372438543347,0.0,0.0,0.10791,0.0,9.770760000000001
5030302980,22.47,-0.02769837522915001,0.002129301687433082,0.0,0.07848000000000001,-0.02943,9.83943
5035353485,22.47,-0.02663372438543347,-0.01064650843716541,0.0,0.05886,-0.06867000000000001,9.92772
5040403990,22.47,-0.022375121010567305,-0.012775810124598492,0.0,0.06867000000000001,-0.039240000000000004,9.92772
5045454495,22.47,-0.008517206749732328,-0.01064650843716541,0.0,0.12753,0.0,9.83943
5050505000,22.47,0.0,-0.005323254218582705,0.0,0.16677000000000003,0.07848000000000001,9.80019
5055555505,22.47,0.005323254218582705,-0.005323254218582705,0.0,0.22563,0.17658,9.68247
5060606010,22.47,-0.003193952531149623,-0.001064650843716541,0.0,0.28449,0.17658,9.67266
5065656515,22.47,-0.013840460968315033,0.011711159280881954,0.0,0.24525000000000002,0.11772,9.633420000000001
5070707020,22.47,-0.014905111812031574,0.028763026072866547,0.0,0.12753,0.05886,9.68247
5075757525,22.47,-0.02663372438543347,0.03621558197888234,0.0,0.009810000000000001,-0.039240000000000004,9.79038
5080808030,22.47,-0.02556907354171693,0.028763026072866547,0.0,-0.08829,-0.009810000000000001,9.86886
5085858535,22.47,-0.021310470166850764,0.013840460968315033,0.0,-0.11772,0.0,9.888480000000001
5090909040,22.47,-0.01064650843716541,0.006387905062299246,0.0,-0.12753,0.039240000000000004,9.79038
5095959545,22.47,-0.006387905062299246,0.006387905062299246,0.0,-0.10791,0.019620000000000002,9.69228
5101010050,22.47,0.004258603374866164,0.002129301687433082,0.0,-0.10791,0.05886,9.65304
5106060555,22.47,-0.006387905062299246,0.0,0.0,-0.08829,0.15696000000000002,9.69228
5111111060,22.47,-0.013840460968315033,-0.00958185759344887,0.0,-0.07848000000000001,0.13734000000000002,9.770760000000001
5116161565,22.47,-0.01918116847941768,-0.00958185759344887,0.0,-0.07848000000000001,0.0981,9.79038
5121212070,22.47,-0.028763026072866547,-0.01064650843716541,0.0,-0.06867000000000001,0.05886,9.81
5126262575,22.47,-0.028763026072866547,-0.01918116847941768,0.0,-0.039240000000000004,-0.019620000000000002,9.888480000000001
5131313080,22.47,-0.031956978604016174,-0.023439771854283843,0.0,-0.009810000000000001,-0.04905,9.86886
5136363585,22.47,-0.023439771854283843,-0.023439771854283843,0.0,0.02943,-0.009810000000000001,9.86886
5141414090,22.47,-0.01918116847941768,-0.014905111812031574,0.0,0.0981,-0.019620000000000002,9.85905
5146464595,22.47,-0.013840460968315033,-0.012775810124598492,0.0,0.10791,-0.039240000000000004,9.79038
5151515100,22.47,-0.0170518667919846,-0.012775810124598492,0.0,0.14715,0.0,9.78057
5156565605,22.47,-0.01064650843716541,-0.004258603374866164,0.0,0.18639,0.039240000000000004,9.78057
5161616110,22.47,-0.00958185759344887,0.00958185759344887,0.0,0.15696000000000002,0.02943,9.85905
5166666615,22.47,-0.011711159280881954,0.01811651763570114,0.0,0.10791,-0.009810000000000001,9.83943
5171717120,22.47,-0.015987215948268057,0.012775810124598492,0.0,0.05886,-0.019620000000000002,9.80019
5176767625,22.47,-0.01811651763570114,0.00958185759344887,0.0,0.039240000000000004,0.0,9.78057
5181818130,22.47,-0.007452555906015787,0.007452555906015787,0.0,0.04905,0.039240000000000004,9.78057
5186868635,22.47,-0.002129301687433082,0.005323254218582705,0.0,0.039240000000000004,0.14715,9.73152
5191919140,22.47,-0.007452555906015787,0.003193952531149623,0.0,0.039240000000000004,0.14715,9.760950000000001
5196969645,22.47,-0.013840460968315033,0.001064650843716541,0.0,0.009810000000000001,0.04905,9.70209
5202020150,22.47,-0.02769837522915001,0.002129301687433082,0.0,0.009810000000000001,0.039240000000000004,9.70209
5207070655,22.47,-0.031956978604016174,-0.001064650843716541,0.0,0.0,0.0,9.74133
5212121160,22.47,-0.03089232776029963,-0.007452555906015787,0.0,0.019620000000000002,-0.019620000000000002,9.81
5217171665,22.47,-0.028763026072866547,-0.0170518667919846,0.0,0.039240000000000004,-0.019620000000000002,9.85905
5222222170,22.47,-0.01811651763570114,-0.014905111812031574,0.0,0.06867000000000001,0.0,9.888480000000001
5227272675,22.47,-0.013840460968315033,-0.006387905062299246,0.0,0.10791,0.009810000000000001,9.81
5232323180,22.47,-0.006387905062299246,0.003193952531149623,0.0,0.08829,-0.009810000000000001,9.760950000000001
5237373685,22.47,-0.013840460968315033,0.01064650843716541,0.0,0.07848000000000001,0.0,9.7119
5242424190,22.47,-0.01811651763570114,0.013840460968315033,0.0,0.05886,0.02943,9.7119
5247474695,22.47,-0.01811651763570114,0.024504422698000388,0.0,-0.009810000000000001,0.019620000000000002,9.760950000000001
5252525200,22.47,-0.0170518667919846,0.031956978604016174,0.0,-0.06867000000000001,0.0,9.819809999999999
5257575705,22.47,-0.01064650843716541,0.023439771854283843,0.0,-0.14715,0.0,9.87867
5262626210,22.47,-0.011711159280881954,0.002129301687433082,0.0,-0.15696000000000002,0.02943,9.86886
5267676715,22.47,-0.015987215948268057,-0.00958185759344887,0.0,-0.12753,0.039240000000000004,9.80019
5272727220,22.47,-0.013840460968315033,-0.00958185759344887,0.0,-0.11772,0.04905,9.751140000000001
5277777725,22.47,-0.014905111812031574,-0.007452555906015787,0.0,-0.06867000000000001,0.019620000000000002,9.79038
5282828230,22.47,-0.015987215948268057,-0.013840460968315033,0.0,-0.04905,0.02943,9.79038
5287878735,22.47,-0.02556907354171693,-0.021310470166850764,0.0,0.0,0.009810000000000001,9.85905
5292929240,22.47,-0.02769837522915001,-0.02556907354171693,0.0,0.02943,-0.02943,9.84924
5297979745,22.47,-0.02663372438543347,-0.028763026072866547,0.0,0.08829,-0.04905,9.91791
5303030250,22.47,-0.022375121010567305,-0.03408628029144926,0.0,0.15696000000000002,-0.02943,9.89829
5308080755,22.47,-0.020245819323134222,-0.02769837522915001,0.0,0.23544,-0.02943,9.888480000000001
5313131260,22.47,-0.01811651763570114,-0.011711159280881954,0.0,0.2943,-0.05886,9.80019
5318181765,22.47,-0.01064650843716541,0.002129301687433082,0.0,0.26487,-0.02943,9.72171
5323232270,22.47,-0.008517206749732328,0.01064650843716541,0.0,0.25506,-0.02943,9.68247
5328282775,22.47,-0.013840460968315033,0.01811651763570114,0.0,0.21582,-0.009810000000000001,9.73152
5333333280,22.47,-0.00958185759344887,0.022375121010567305,0.0,0.18639,0.0,9.770760000000001
5338383785,22.47,-0.01064650843716541,0.02663372438543347,0.0,0.06867000000000001,0.019620000000000002,9.819809999999999
5343434290,22.47,-0.006387905062299246,0.02982767691658309,0.0,0.009810000000000001,0.02943,9.81
5348484795,22.47,-0.007452555906015787,0.02663372438543347,0.0,-0.019620000000000002,0.02943,9.770760000000001
5353535300,22.47,-0.01064650843716541,0.020245819323134222,0.0,-0.06867000000000001,0.02943,9.68247
5358585805,22.47,-0.00958185759344887,0.022375121010567305,0.0,-0.08829,0.05886,9.64323
5363636310,22.47,-0.006387905062299246,0.021310470166850764,0.0,-0.13734000000000002,0.08829,9.64323
5368686815,22.47,-0.01811651763570114,0.0170518667919846,0.0,-0.18639,0.02943,9.7119
5373737320,22.47,-0.03089232776029963,0.003193952531149623,0.0,-0.22563,0.019620000000000002,9.80019
5378787825,22.47,-0.033021629447732716,-0.01064650843716541,0.0,-0.20601000000000003,0.0,9.89829
5383838330,22.47,-0.031956978604016174,-0.01918116847941768,0.0,-0.18639,-0.039240000000000004,9.89829
5388888835,22.47,-0.02982767691658309,-0.03408628029144926,0.0,-0.11772,-0.08829,9.87867
5393939340,22.47,-0.02769837522915001,-0.04366813788489812,0.0,0.0,-0.039240000000000004,9.770760000000001
5398989845,22.47,-0.024504422698000388,-0.033021629447732716,0.0,0.08829,-0.009810000000000001,9.74133
5404040350,22.47,-0.020245819323134222,-0.021310470166850764,0.0,0.15696000000000002,-0.05886,9.7119
5409090855,22.47,-0.01918116847941768,-0.006387905062299246,0.0,0.16677000000000003,-0.05886,9.760950000000001
5414141360,22.47,-0.02556907354171693,-0.002129301687433082,0.0,0.16677000000000003,-0.07848000000000001,9.81
5419191865,22.47,-0.02769837522915001,-0.002129301687433082,0.0,0.15696000000000002,-0.08829,9.89829
5424242370,22.47,-0.020245819323134222,0.003193952531149623,0.0,0.14715,-0.07848000000000001,9.89829
5429292875,22.47,-0.008517206749732328,0.011711159280881954,0.0,0.13734000000000002,-0.039240000000000004,9.87867
5434343380,22.47,-0.003193952531149623,0.014905111812031574,0.0,0.0981,-0.04905,9.81
5439393885,22.47,-0.004258603374866164,0.014905111812031574,0.0,0.04905,0.0,9.73152
5444444390,22.47,-0.011711159280881954,0.012775810124598492,0.0,0.04905,-0.009810000000000001,9.68247
5449494895,22.47,-0.013840460968315033,0.007452555906015787,0.0,0.019620000000000002,0.009810000000000001,9.68247
5454545400,22.47,-0.014905111812031574,0.0,0.0,0.009810000000000001,0.0,9.770760000000001
5459595905,22.47,-0.024504422698000388,-0.007452555906015787,0.0,0.009810000000000001,0.009810000000000001,9.86886
5464646410,22.47,-0.01811651763570114,-0.020245819323134222,0.0,0.039240000000000004,0.0,9.937529999999999
5469696915,22.47,-0.0170518667919846,-0.022375121010567305,0.0,0.11772,0.0,9.908100000000001
5474747420,22.47,-0.012775810124598492,-0.011711159280881954,0.0,0.15696000000000002,0.0,9.760950000000001
5479797925,22.47,-0.0170518667919846,-0.003193952531149623,0.0,0.18639,-0.02943,9.623610000000001
5484848430,22.47,-0.02769837522915001,0.013840460968315033,0.0,0.17658,-0.019620000000000002,9.623610000000001
5489898935,22.47,-0.02982767691658309,0.03515093113516579,0.0,0.07848000000000001,-0.02943,9.72171
5494949440,22.47,-0.02663372438543347,0.04366813788489812,0.0,-0.009810000000000001,-0.05886,9.80019
5499999945,22.47,-0.024504422698000388,0.039409534510031964,0.0,-0.13734000000000002,-0.039240000000000004,9.89829
5505050450,22.47,-0.02556907354171693,0.023439771854283843,0.0,-0.20601000000000003,-0.07848000000000001,9.908100000000001
5510100955,22.47,-0.020245819323134222,0.00958185759344887,0.0,-0.24525000000000002,-0.039240000000000004,9.86886
5515151460,22.47,-0.015987215948268057,0.003193952531149623,0.0,-0.20601000000000003,-0.04905,9.83943
5520201965,22.47,-0.00958185759344887,-0.006387905062299246,0.0,-0.17658,-0.04905,9.751140000000001
5525252470,22.47,-0.022375121010567305,-0.015987215948268057,0.0,-0.16677000000000003,-0.04905,9.7119
5530302975,22.47,-0.02663372438543347,-0.02556907354171693,0.0,-0.0981,-0.039240000000000004,9.79038
5535353480,22.47,-0.02663372438543347,-0.031956978604016174,0.0,0.0,-0.05886,9.84924
5540403985,22.47,-0.020245819323134222,-0.04153883619746504,0.0,0.04905,-0.07848000000000001,9.94734
5545454490,22.47,-0.0170518667919846,-0.04366813788489812,0.0,0.12753,-0.05886,9.95715
5550504995,22.47,-0.013840460968315033,-0.03408628029144926,0.0,0.24525000000000002,-0.05886,9.908100000000001
5555555500,22.47,-0.01064650843716541,-0.014905111812031574,0.0,0.26487,-0.05886,9.78057
5560606005,22.47,-0.012775810124598492,0.001064650843716541,0.0,0.28449,-0.06867000000000001,9.70209
5565656510,22.47,-0.0170518667919846,0.01918116847941768,0.0,0.26487,-0.039240000000000004,9.64323
5570707015,22.47,-0.021310470166850764,0.021310470166850764,0.0,0.20601000000000003,-0.019620000000000002,9.633420000000001
5575757520,22.47,-0.023439771854283843,0.015987215948268057,0.0,0.14715,-0.04905,9.69228
5580808025,22.47,-0.014905111812031574,0.01064650843716541,0.0,0.07848000000000001,0.0,9.85905
5585858530,22.47,-0.003193952531149623,0.007452555906015787,0.0,0.06867000000000001,-0.02943,9.87867
5590909035,22.47,-0.01064650843716541,0.006387905062299246,0.0,0.04905,-0.02943,9.83943
5595959540,22.47,-0.0170518667919846,0.01064650843716541,0.0,0.06867000000000001,-0.019620000000000002,9.751140000000001
5601010045,22.47,-0.022375121010567305,0.021310470166850764,0.0,0.019620000000000002,-0.02943,9.66285
5606060550,22.47,-0.023439771854283843,0.02663372438543347,0.0,-0.009810000000000001,-0.019620000000000002,9.64323
5611111055,22.47,-0.02982767691658309,0.022375121010567305,0.0,-0.06867000000000001,-0.039240000000000004,9.7119
5616161560,22.47,-0.03089232776029963,0.00958185759344887,0.0,-0.14715,-0.08829,9.82962
5621212065,22.47,-0.022375121010567305,0.0,0.0,-0.15696000000000002,-0.06867000000000001,9.94734
5626262570,22.47,-0.020245819323134222,-0.007452555906015787,0.0,-0.11772,-0.07848000000000001,9.95715
5631313075,22.47,-0.01918116847941768,-0.015987215948268057,0.0,-0.10791,-0.08829,9.89829
5636363580,22.47,-0.024504422698000388,-0.013840460968315033,0.0,-0.05886,-0.07848000000000001,9.79038
5641414085,22.47,-0.02769837522915001,-0.002129301687433082,0.0,-0.019620000000000002,-0.06867000000000001,9.69228
5646464590,22.47,-0.022375121010567305,0.002129301687433082,0.0,-0.009810000000000001,-0.08829,9.64323
5651515095,22.47,-0.021310470166850764,-0.006387905062299246,0.0,-0.009810000000000001,-0.0981,9.66285
5656565600,22.47,-0.021310470166850764,-0.015987215948268057,0.0,0.0,-0.05886,9.78057
5661616105,22.47,-0.015987215948268057,-0.021310470166850764,0.0,0.05886,-0.04905,9.87867
5666666610,22.47,-0.00958185759344887,-0.015987215948268057,0.0,0.08829,-0.04905,9.937529999999999
5671717115,22.47,-0.00958185759344887,-0.003193952531149623,0.0,0.10791,-0.05886,9.888480000000001
5676767620,22.47,-0.015987215948268057,0.0,0.0,0.11772,-0.04905,9.81
5681818125,22.47,-0.021310470166850764,0.006387905062299246,0.0,0.11772,-0.05886,9.67266
5686868630,22.47,-0.02556907354171693,0.014905111812031574,0.0,0.07848000000000001,-0.05886,9.64323
5691919135,22.47,-0.01918116847941768,0.00958185759344887,0.0,0.039240000000000004,-0.04905,9.69228
5696969640,22.47,-0.0170518667919846,0.0,0.0,0.04905,-0.05886,9.79038
5702020145,22.47,-0.0170518667919846,-0.015987215948268057,0.0,0.039240000000000004,-0.039240000000000004,9.87867
5707070650,22.47,-0.01811651763570114,-0.021310470166850764,0.0,0.07848000000000001,-0.05886,9.92772
5712121155,22.47,-0.01811651763570114,-0.014905111812031574,0.0,0.12753,-0.07848000000000001,9.86886
5717171660,22.47,-0.02556907354171693,-0.007452555906015787,0.0,0.15696000000000002,-0.08829,9.81
5722222165,22.47,-0.03515093113516579,0.003193952531149623,0.0,0.13734000000000002,-0.07848000000000001,9.69228
5727272670,22.47,-0.03089232776029963,0.008517206749732328,0.0,0.13734000000000002,-0.07848000000000001,9.68247
5732323175,22.47,-0.023439771854283843,0.014905111812031574,0.0,0.10791,-0.10791,9.770760000000001
5737373680,22.47,-0.013840460968315033,0.011711159280881954,0.0,0.08829,-0.07848000000000001,9.888480000000001
5742424185,22.47,-0.01918116847941768,0.011711159280881954,0.0,0.05886,-0.0981,9.97677
5747474690,22.47,-0.022375121010567305,0.0170518667919846,0.0,0.0,-0.10791,10.006200000000002
5752525195,22.47,-0.02556907354171693,0.021310470166850764,0.0,-0.04905,-0.12753,9.96696
5757575700,22.47,-0.022375121010567305,0.023439771854283843,0.0,-0.0981,-0.12753,9.83943
5762626205,22.47,-0.022375121010567305,0.01811651763570114,0.0,-0.11772,-0.11772,9.72171
5767676710,22.47,-0.020245819323134222,0.007452555906015787,0.0,-0.0981,-0.10791,9.68247
5772727215,22.47,-0.013840460968315033,-0.003193952531149623,0.0,-0.11772,-0.0981,9.72171
5777777720,22.47,-0.004258603374866164,-0.01064650843716541,0.0,-0.10791,-0.10791,9.78057
5782828225,22.47,-0.005323254218582705,-0.01811651763570114,0.0,-0.04905,-0.06867000000000001,9.86886
5787878730,22.47,-0.011711159280881954,-0.022375121010567305,0.0,-0.039240000000000004,-0.06867000000000001,9.84924
5792929235,22.47,-0.01918116847941768,-0.014905111812031574,0.0,0.0,-0.04905,9.81
5797979740,22.47,-0.01918116847941768,-0.007452555906015787,0.0,0.04905,-0.07848000000000001,9.7119
5803030245,22.47,-0.012775810124598492,-0.01064650843716541,0.0,0.08829,-0.04905,9.633420000000001
5808080750,22.47,-0.011711159280881954,-0.0170518667919846,0.0,0.10791,-0.04905,9.59418
5813131255,22.47,-0.013840460968315033,-0.01811651763570114,0.0,0.14715,-0.02943,9.64323
5818181760,22.47,-0.012775810124598492,-0.00958185759344887,0.0,0.18639,-0.04905,9.751140000000001
5823232265,22.47,-0.01918116847941768,0.002129301687433082,0.0,0.15696000000000002,-0.07848000000000001,9.86886
5828282770,22.47,-0.031956978604016174,0.01064650843716541,0.0,0.10791,-0.08829,9.89829
5833333275,22.47,-0.04366813788489812,0.00958185759344887,0.0,0.10791,-0.11772,9.84924
5838383780,22.47,-0.03408628029144926,0.007452555906015787,0.0,0.0981,-0.0981,9.81
5843434285,22.47,-0.02556907354171693,0.007452555906015787,0.0,0.06867000000000001,-0.13734000000000002,9.74133
5848484790,22.47,-0.015987215948268057,0.003193952531149623,0.0,0.05886,-0.10791,9.74133
5853535295,22.47,-0.020245819323134222,0.0,0.0,0.08829,-0.0981,9.74133
5858585800,22.47,-0.022375121010567305,-0.001064650843716541,0.0,0.06867000000000001,-0.12753,9.82962
5863636305,22.47,-0.022375121010567305,0.005323254218582705,0.0,0.02943,-0.14715,9.87867
5868686810,22.47,-0.028763026072866547,0.006387905062299246,0.0,0.02943,-0.15696000000000002,9.908100000000001
5873737315,22.47,-0.02663372438543347,-0.001064650843716541,0.0,0.039240000000000004,-0.14715,9.888480000000001
5878787820,22.47,-0.023439771854283843,-0.002129301687433082,0.0,0.02943,-0.11772,9.80019
5883838325,22.47,-0.011711159280881954,-0.001064650843716541,0.0,0.02943,-0.11772,9.74133
5888888830,22.47,-0.001064650843716541,0.002129301687433082,0.0,0.039240000000000004,-0.10791,9.74133
5893939335,22.47,-0.006387905062299246,0.006387905062299246,0.0,0.019620000000000002,-0.0981,9.760950000000001
5898989840,22.47,-0.01918116847941768,0.00958185759344887,0.0,-0.009810000000000001,-0.11772,9.81
5904040345,22.47,-0.02556907354171693,0.022375121010567305,0.0,-0.06867000000000001,-0.10791,9.81
5909090850,22.47,-0.023439771854283843,0.02556907354171693,0.0,-0.12753,-0.10791,9.84924
5914141355,22.47,-0.015987215948268057,0.012775810124598492,0.0,-0.14715,-0.10791,9.85905
5919191860,22.47,-0.015987215948268057,-0.011711159280881954,0.0,-0.14715,-0.0981,9.79038
5924242365,22.47,-0.01064650843716541,-0.01918116847941768,0.0,-0.06867000000000001,-0.08829,9.70209
5929292870,22.47,-0.00958185759344887,-0.0170518667919846,0.0,-0.009810000000000001,-0.07848000000000001,9.66285
5934343375,22.47,-0.015987215948268057,-0.011711159280881954,0.0,0.009810000000000001,-0.10791,9.70209
5939393880,22.47,-0.028763026072866547,-0.015987215948268057,0.0,0.039240000000000004,-0.07848000000000001,9.7119
5944444385,22.47,-0.03621558197888234,-0.0170518667919846,0.0,0.05886,-0.10791,9.80019
5949494890,22.47,-0.02982767691658309,-0.005323254218582705,0.0,0.05886,-0.12753,9.87867
5954545395,22.47,-0.021310470166850764,0.001064650843716541,0.0,0.05886,-0.12753,9.92772
5959595900,22.47,-0.0170518667919846,-0.004258603374866164,0.0,0.06867000000000001,-0.14715,9.86886
5964646405,22.47,-0.020245819323134222,-0.011711159280881954,0.0,0.08829,-0.15696000000000002,9.81
5969696910,22.47,-0.024504422698000388,-0.008517206749732328,0.0,0.12753,-0.14715,9.760950000000001
5974747415,22.47,-0.02663372438543347,-0.001064650843716541,0.0,0.15696000000000002,-0.17658,9.74133
5979797920,22.47,-0.02769837522915001,-0.003193952531149623,0.0,0.12753,-0.15696000000000002,9.85905
5984848425,22.47,-0.033021629447732716,-0.01064650843716541,0.0,0.11772,-0.17658,9.94734
5989898930,22.47,-0.02769837522915001,-0.01811651763570114,0.0,0.16677000000000003,-0.18639,10.01601
5994949435,22.47,-0.013840460968315033,-0.020245819323134222,0.0,0.20601000000000003,-0.16677000000000003,9.98658
5999999940,22.47,-0.004258603374866164,-0.01064650843716541,0.0,0.22563,-0.17658,9.819809999999999
6005050445,22.47,-0.008517206749732328,0.003193952531149623,0.0,0.26487,-0.12753,9.73152
6010100950,22.47,-0.0170518667919846,0.021310470166850764,0.0,0.23544,-0.14715,9.64323
6015151455,22.47,-0.01811651763570114,0.04581489286485115,0.0,0.17658,-0.13734000000000002,9.68247
6020201960,22.47,-0.011711159280881954,0.05752605214573309,0.0,0.019620000000000002,-0.12753,9.760950000000001
6025252465,22.47,-0.01064650843716541,0.054332099614583476,0.0,-0.11772,-0.13734000000000002,9.81
6030302970,22.47,-0.015987215948268057,0.0404741853537485,0.0,-0.18639,-0.13734000000000002,9.81
6035353475,22.47,-0.003193952531149623,0.014905111812031574,0.0,-0.26487,-0.07848000000000001,9.751140000000001
6040403980,22.47,-0.006387905062299246,0.012775810124598492,0.0,-0.23544,-0.08829,9.70209
6045454485,22.47,-0.007452555906015787,0.004258603374866164,0.0,-0.22563,-0.0981,9.64323
6050504990,22.47,-0.023439771854283843,-0.008517206749732328,0.0,-0.23544,-0.07848000000000001,9.633420000000001
6055555495,22.47,-0.031956978604016174,-0.024504422698000388,0.0,-0.15696000000000002,-0.0981,9.64323
6060606000,22.47,-0.03515093113516579,-0.03515093113516579,0.0,-0.11772,-0.10791,9.72171
6065656505,22.47,-0.02982767691658309,-0.049008845396000776,0.0,-0.019620000000000002,-0.13734000000000002,9.87867
6070707010,22.47,-0.024504422698000388,-0.06284930636431581,0.0,0.10791,-0.14715,9.937529999999999
6075757515,22.47,-0.023439771854283843,-0.06178465552059926,0.0,0.22563,-0.15696000000000002,9.937529999999999
6080808020,22.47,-0.02556907354171693,-0.03408628029144926,0.0,0.30411,-0.14715,9.83943
6085858525,22.47,-0.02556907354171693,-0.004258603374866164,0.0,0.31392000000000003,-0.16677000000000003,9.74133
6090909030,22.47,-0.03515093113516579,0.0170518667919846,0.0,0.32373,-0.21582,9.69228
6095959535,22.47,-0.03515093113516579,0.021310470166850764,0.0,0.24525000000000002,-0.21582,9.73152
6101010040,22.47,-0.031956978604016174,0.021310470166850764,0.0,0.20601000000000003,-0.1962,9.81
6106060545,22.47,-0.014905111812031574,0.02982767691658309,0.0,0.15696000000000002,-0.18639,9.937529999999999
6111111050,22.47,-0.004258603374866164,0.03621558197888234,0.0,0.06867000000000001,-0.20601000000000003,9.97677
6116161555,22.47,-0.007452555906015787,0.02556907354171693,0.0,0.0,-0.18639,9.92772
6121212060,22.47,-0.01811651763570114,0.011711159280881954,0.0,-0.02943,-0.17658,9.81
6126262565,22.47,-0.021310470166850764,0.00958185759344887,0.0,-0.06867000000000001,-0.15696000000000002,9.7119
6131313070,22.47,-0.0170518667919846,0.013840460968315033,0.0,-0.06867000000000001,-0.14715,9.64323
6136363575,22.47,-0.00958185759344887,0.005323254218582705,0.0,-0.0981,-0.14715,9.73152
6141414080,22.47,-0.01064650843716541,-0.01064650843716541,0.0,-0.07848000000000001,-0.14715,9.80019
6146464585,22.47,-0.01064650843716541,-0.03089232776029963,0.0,-0.019620000000000002,-0.12753,9.84924
6151515090,22.47,-0.004258603374866164,-0.03515093113516579,0.0,0.039240000000000004,-0.13734000000000002,9.87867
6156565595,22.47,-0.013840460968315033,-0.021310470166850764,0.0,0.11772,-0.14715,9.819809999999999
6161616100,22.47,-0.023439771854283843,-0.008517206749732328,0.0,0.12753,-0.12753,9.74133
6166666605,22.47,-0.028763026072866547,0.004258603374866164,0.0,0.13734000000000002,-0.14715,9.72171
6171717110,22.47,-0.023439771854283843,0.008517206749732328,0.0,0.11772,-0.12753,9.73152
6176767615,22.47,-0.020245819323134222,0.014905111812031574,0.0,0.06867000000000001,-0.13734000000000002,9.72171
6181818120,22.47,-0.015987215948268057,0.012775810124598492,0.0,0.039240000000000004,-0.15696000000000002,9.78057
6186868625,22.47,-0.021310470166850764,0.014905111812031574,0.0,0.0,-0.16677000000000003,9.908100000000001
6191919130,22.47,-0.02556907354171693,0.012775810124598492,0.0,-0.039240000000000004,-0.1962,9.97677
6196969635,22.47,-0.028763026072866547,0.01064650843716541,0.0,-0.06867000000000001,-0.20601000000000003,9.94734
6202020140,22.47,-0.03621558197888234,0.006387905062299246,0.0,-0.10791,-0.20601000000000003,9.87867
6207070645,22.47,-0.03515093113516579,0.0,0.0,-0.07848000000000001,-0.21582,9.78057
6212121150,22.47,-0.028763026072866547,-0.005323254218582705,0.0,-0.05886,-0.23544,9.73152
6217171655,22.47,-0.0170518667919846,-0.013840460968315033,0.0,-0.02943,-0.21582,9.79038
6222222160,22.47,-0.00958185759344887,-0.022375121010567305,0.0,0.009810000000000001,-0.22563,9.819809999999999
6227272665,22.47,-0.011711159280881954,-0.02769837522915001,0.0,0.05886,-0.21582,9.85905
6232323170,22.47,-0.014905111812031574,-0.021310470166850764,0.0,0.0981,-0.22563,9.84924
6237373675,22.47,-0.011711159280881954,-0.007452555906015787,0.0,0.14715,-0.20601000000000003,9.819809999999999
6242424180,22.47,-0.012775810124598492,0.001064650843716541,0.0,0.12753,-0.1962,9.80019
6247474685,22.47,-0.01064650843716541,-0.002129301687433082,0.0,0.15696000000000002,-0.16677000000000003,9.73152
6252525190,22.47,-0.007452555906015787,-0.006387905062299246,0.0,0.16677000000000003,-0.16677000000000003,9.66285
6257575695,22.47,-0.004258603374866164,0.0,0.0,0.1962,-0.13734000000000002,9.65304
6262626200,22.47,-0.004258603374866164,0.013840460968315033,0.0,0.15696000000000002,-0.11772,9.70209
6267676705,22.47,-0.008517206749732328,0.021310470166850764,0.0,0.08829,-0.12753,9.81
6272727210,22.47,-0.022375121010567305,0.014905111812031574,0.0,0.02943,-0.14715,9.83943
6277777715,22.47,-0.02769837522915001,0.00958185759344887,0.0,-0.019620000000000002,-0.12753,9.82962
6282828220,22.47,-0.028763026072866547,0.008517206749732328,0.0,0.0,-0.13734000000000002,9.80019
6287878725,22.47,-0.022375121010567305,0.005323254218582705,0.0,-0.019620000000000002,-0.17658,9.770760000000001
6292929230,22.47,-0.02556907354171693,0.001064650843716541,0.0,-0.019620000000000002,-0.18639,9.79038
6297979735,22.47,-0.02663372438543347,-0.01064650843716541,0.0,-0.02943,-0.18639,9.760950000000001
6303030240,22.47,-0.02769837522915001,-0.014905111812031574,0.0,0.019620000000000002,-0.1962,9.78057
6308080745,22.47,-0.02982767691658309,-0.011711159280881954,0.0,0.05886,-0.22563,9.819809999999999
6313131250,22.47,-0.031956978604016174,-0.001064650843716541,0.0,0.05886,-0.22563,9.888480000000001
6318181755,22.47,-0.033021629447732716,0.003193952531149623,0.0,0.04905,-0.22563,9.86886
6323232260,22.47,-0.02556907354171693,0.002129301687433082,0.0,0.02943,-0.24525000000000002,9.91791
6328282765,22.47,-0.014905111812031574,0.003193952531149623,0.0,0.04905,-0.25506,9.819809999999999
6333333270,22.47,-0.00958185759344887,0.006387905062299246,0.0,0.05886,-0.21582,9.74133
6338383775,22.47,-0.00958185759344887,0.00958185759344887,0.0,0.05886,-0.21582,9.66285
6343434280,22.47,-0.011711159280881954,0.006387905062299246,0.0,0.02943,-0.20601000000000003,9.74133
6348484785,22.47,-0.006387905062299246,0.008517206749732328,0.0,0.0,-0.20601000000000003,9.81
6353535290,22.47,-0.01064650843716541,0.011711159280881954,0.0,-0.039240000000000004,-0.20601000000000003,9.86886
6358585795,22.47,-0.015987215948268057,0.008517206749732328,0.0,-0.05886,-0.17658,9.85905
6363636300,22.47,-0.01918116847941768,0.0,0.0,-0.04905,-0.1962,9.819809999999999
6368686805,22.47,-0.015987215948268057,-0.00958185759344887,0.0,-0.04905,-0.18639,9.79038
6373737310,22.47,-0.007452555906015787,-0.01064650843716541,0.0,0.0,-0.13734000000000002,9.74133
6378787815,22.47,-0.008517206749732328,-0.007452555906015787,0.0,0.04905,-0.17658,9.72171
6383838320,22.47,-0.014905111812031574,-0.011711159280881954,0.0,0.039240000000000004,-0.17658,9.751140000000001
6388888825,22.47,-0.024504422698000388,-0.008517206749732328,0.0,0.04905,-0.17658,9.770760000000001
6393939330,22.47,-0.028763026072866547,-0.006387905062299246,0.0,0.07848000000000001,-0.18639,9.82962
6398989835,22.47,-0.02982767691658309,-0.006387905062299246,0.0,0.05886,-0.21582,9.86886
6404040340,22.47,-0.02769837522915001,-0.006387905062299246,0.0,0.06867000000000001,-0.24525000000000002,9.888480000000001
6409090845,22.47,-0.023439771854283843,-0.011711159280881954,0.0,0.07848000000000001,-0.21582,9.888480000000001
6414141350,22.47,-0.022375121010567305,-0.01064650843716541,0.0,0.12753,-0.22563,9.83943
6419191855,22.47,-0.014905111812031574,-0.008517206749732328,0.0,0.13734000000000002,-0.23544,9.79038
6424242360,22.47,-0.01918116847941768,-0.003193952531149623,0.0,0.14715,-0.26487,9.79038
6429292865,22.47,-0.024504422698000388,0.007452555906015787,0.0,0.12753,-0.24525000000000002,9.83943
6434343370,22.47,-0.023439771854283843,0.012775810124598492,0.0,0.10791,-0.25506,9.937529999999999
6439393875,22.47,-0.023439771854283843,0.015987215948268057,0.0,0.07848000000000001,-0.28449,9.96696
6444444380,22.47,-0.022375121010567305,0.011711159280881954,0.0,0.04905,-0.28449,9.94734
6449494885,22.47,-0.014905111812031574,0.004258603374866164,0.0,0.04905,-0.28449,9.84924
6454545390,22.47,-0.00958185759344887,0.004258603374866164,0.0,0.05886,-0.24525000000000002,9.760950000000001
6459595895,22.47,-0.004258603374866164,0.006387905062299246,0.0,0.039240000000000004,-0.24525000000000002,9.69228
6464646400,22.47,-0.002129301687433082,0.012775810124598492,0.0,0.009810000000000001,-0.20601000000000003,9.70209
6469696905,22.47,-0.01064650843716541,0.01811651763570114,0.0,0.0,-0.20601000000000003,9.72171
6474747410,22.47,-0.011711159280881954,0.014905111812031574,0.0,-0.06867000000000001,-0.20601000000000003,9.751140000000001
6479797915,22.47,-0.011711159280881954,0.002129301687433082,0.0,-0.04905,-0.20601000000000003,9.760950000000001
6484848420,22.47,-0.012775810124598492,-0.008517206749732328,0.0,-0.04905,-0.1962,9.760950000000001
6489898925,22.47,-0.011711159280881954,-0.0170518667919846,0.0,0.009810000000000001,-0.16677000000000003,9.78057
6494949430,22.47,-0.00958185759344887,-0.020245819323134222,0.0,0.039240000000000004,-0.18639,9.770760000000001
6499999935,22.47,-0.006387905062299246,-0.00958185759344887,0.0,0.07848000000000001,-0.15696000000000002,9.67266
6505050440,22.47,-0.01064650843716541,0.003193952531149623,0.0,0.06867000000000001,-0.15696000000000002,9.66285
6510100945,22.47,-0.021310470166850764,0.005323254218582705,0.0,0.05886,-0.1962,9.67266
6515151450,22.47,-0.031956978604016174,0.005323254218582705,0.0,0.009810000000000001,-0.20601000000000003,9.74133
6520201955,22.47,-0.03408628029144926,0.002129301687433082,0.0,0.009810000000000001,-0.21582,9.83943
6525252460,22.47,-0.03089232776029963,-0.001064650843716541,0.0,0.009810000000000001,-0.23544,9.95715
6530302965,22.47,-0.02556907354171693,0.002129301687433082,0.0,0.0,-0.24525000000000002,9.98658
6535353470,22.47,-0.028763026072866547,-0.001064650843716541,0.0,-0.009810000000000001,-0.25506,9.908100000000001
6540403975,22.47,-0.02982767691658309,-0.002129301687433082,0.0,0.02943,-0.26487,9.78057
6545454480,22.47,-0.02556907354171693,0.001064650843716541,0.0,0.039240000000000004,-0.27468000000000004,9.69228
6550504985,22.47,-0.020245819323134222,0.007452555906015787,0.0,0.05886,-0.28449,9.70209
6555555490,22.47,-0.01918116847941768,0.006387905062299246,0.0,-0.009810000000000001,-0.26487,9.79038
6560605995,22.47,-0.0170518667919846,-0.001064650843716541,0.0,0.009810000000000001,-0.28449,9.888480000000001
6565656500,22.47,-0.015987215948268057,-0.011711159280881954,0.0,0.019620000000000002,-0.30411,9.937529999999999
6570707005,22.47,-0.014905111812031574,-0.01918116847941768,0.0,0.019620000000000002,-0.28449,9.91791
6575757510,22.47,-0.01064650843716541,-0.022375121010567305,0.0,0.08829,-0.26487,9.83943
6580808015,22.47,-0.007452555906015787,-0.0170518667919846,0.0,0.14715,-0.25506,9.74133
6585858520,22.47,-0.001064650843716541,-0.00958185759344887,0.0,0.17658,-0.21582,9.7119
6590909025,22.47,0.0,0.004258603374866164,0.0,0.16677000000000003,-0.1962,9.69228
6595959530,22.47,-0.002129301687433082,0.014905111812031574,0.0,0.14715,-0.16677000000000003,9.73152
6601010035,22.47,-0.006387905062299246,0.020245819323134222,0.0,0.0981,-0.20601000000000003,9.80019
6606060540,22.47,-0.01918116847941768,0.01918116847941768,0.0,0.02943,-0.21582,9.86886
6611111045,22.47,-0.023439771854283843,0.013840460968315033,0.0,0.0,-0.22563,9.91791
6616161550,22.47,-0.022375121010567305,0.003193952531149623,0.0,-0.02943,-0.23544,9.89829
6621212055,22.47,-0.014905111812031574,-0.004258603374866164,0.0,-0.009810000000000001,-0.22563,9.81
6626262560,22.47,-0.013840460968315033,-0.004258603374866164,0.0,-0.009810000000000001,-0.23544,9.73152
6631313065,22.47,-0.01811651763570114,-0.003193952531149623,0.0,0.019620000000000002,-0.23544,9.68247
6636363570,22.47,-0.02556907354171693,0.0,0.0,0.04905,-0.26487,9.69228
6641414075,22.47,-0.02769837522915001,-0.001064650843716541,0.0,0.039240000000000004,-0.24525000000000002,9.751140000000001
6646464580,22.47,-0.028763026072866547,-0.006387905062299246,0.0,0.02943,-0.25506,9.84924
6651515085,22.47,-0.02982767691658309,-0.012775810124598492,0.0,0.04905,-0.27468000000000004,9.92772
6656565590,22.47,-0.01918116847941768,-0.015987215948268057,0.0,0.08829,-0.31392000000000003,9.937529999999999
6661616095,22.47,-0.011711159280881954,-0.01064650843716541,0.0,0.0981,-0.2943,9.937529999999999
6666666600,22.47,-0.011711159280881954,0.0,0.0,0.11772,-0.2943,9.819809999999999
6671717105,22.47,-0.012775810124598492,0.008517206749732328,0.0,0.11772,-0.27468000000000004,9.73152
6676767610,22.47,-0.012775810124598492,0.0170518667919846,0.0,0.08829,-0.2943,9.72171
6681818115,22.47,-0.015987215948268057,0.022375121010567305,0.0,0.02943,-0.28449,9.79038
6686868620,22.47,-0.012775810124598492,0.012775810124598492,0.0,-0.02943,-0.26487,9.86886
6691919125,22.47,-0.011711159280881954,0.0,0.0,-0.039240000000000004,-0.26487,9.94734
6696969630,22.47,-0.006387905062299246,-0.01064650843716541,0.0,-0.05886,-0.28449,9.98658
6702020135,22.47,-0.007452555906015787,-0.013840460968315033,0.0,0.0,-0.30411,9.95715
6707070640,22.47,-0.011711159280881954,-0.005323254218582705,0.0,0.02943,-0.2943,9.84924
6712121145,22.47,-0.01064650843716541,0.004258603374866164,0.0,0.02943,-0.2943,9.7119
6717171650,22.47,-0.014905111812031574,0.008517206749732328,0.0,0.009810000000000001,-0.24525000000000002,9.623610000000001
6722222155,22.47,-0.00958185759344887,0.006387905062299246,0.0,0.02943,-0.23544,9.56475
6727272660,22.47,-0.007452555906015787,-0.005323254218582705,0.0,0.02943,-0.23544,9.65304
6732323165,22.47,-0.00958185759344887,-0.008517206749732328,0.0,0.02943,-0.22563,9.81
6737373670,22.47,-0.013840460968315033,-0.008517206749732328,0.0,0.039240000000000004,-0.21582,9.89829
6742424175,22.47,-0.01064650843716541,-0.002129301687433082,0.0,0.039240000000000004,-0.23544,9.92772
6747474680,22.47,-0.0170518667919846,0.0,0.0,0.04905,-0.26487,9.82962
6752525185,22.47,-0.020245819323134222,0.001064650843716541,0.0,0.05886,-0.25506,9.68247
6757575690,22.47,-0.021310470166850764,0.003193952531149623,0.0,0.06867000000000001,-0.24525000000000002,9.60399
6762626195,22.47,-0.014905111812031574,0.005323254218582705,0.0,0.07848000000000001,-0.24525000000000002,9.6138
6767676700,22.47,-0.01064650843716541,0.006387905062299246,0.0,0.019620000000000002,-0.22563,9.68247
6772727205,22.47,-0.013840460968315033,0.003193952531149623,0.0,0.019620000000000002,-0.25506,9.770760000000001
6777777710,22.47,-0.01918116847941768,-0.007452555906015787,0.0,0.0,-0.28449,9.89829
6782828215,22.47,-0.02556907354171693,-0.006387905062299246,0.0,0.02943,-0.27468000000000004,9.94734
6787878720,22.47,-0.02982767691658309,0.0,0.0,0.019620000000000002,-0.30411,9.937529999999999
6792929225,22.47,-0.02663372438543347,0.005323254218582705,0.0,0.009810000000000001,-0.32373,9.91791
6797979730,22.47,-0.020245819323134222,0.001064650843716541,0.0,0.02943,-0.32373,9.81
6803030235,22.47,-0.021310470166850764,-0.007452555906015787,0.0,0.05886,-0.33354000000000006,9.78057
6808080740,22.47,-0.020245819323134222,-0.0170518667919846,0.0,0.05886,-0.33354000000000006,9.78057
6813131245,22.47,-0.015987215948268057,-0.015987215948268057,0.0,0.11772,-0.32373,9.82962
6818181750,22.47,-0.013840460968315033,-0.007452555906015787,0.0,0.12753,-0.32373,9.91791
6823232255,22.47,-0.008517206749732328,0.0,0.0,0.10791,-0.31392000000000003,9.91791
6828282760,22.47,-0.01064650843716541,0.005323254218582705,0.0,0.12753,-0.32373,9.86886
6833333265,22.47,-0.008517206749732328,0.013840460968315033,0.0,0.10791,-0.30411,9.81
6838383770,22.47,-0.007452555906015787,0.020245819323134222,0.0,0.07848000000000001,-0.2943,9.7119
6843434275,22.47,-0.00958185759344887,0.021310470166850764,0.0,0.04905,-0.25506,9.68247
6848484780,22.47,-0.007452555906015787,0.006387905062299246,0.0,0.039240000000000004,-0.28449,9.72171
6853535285,22.47,-0.00958185759344887,-0.003193952531149623,0.0,0.019620000000000002,-0.24525000000000002,9.81
6858585790,22.47,-0.003193952531149623,-0.006387905062299246,0.0,0.009810000000000001,-0.26487,9.82962
6863636295,22.47,-0.005323254218582705,-0.006387905062299246,0.0,0.02943,-0.23544,9.83943
6868686800,22.47,-0.008517206749732328,0.0,0.0,0.039240000000000004,-0.23544,9.770760000000001
6873737305,22.47,-0.00958185759344887,0.008517206749732328,0.0,0.039240000000000004,-0.23544,9.68247
6878787810,22.47,-0.00958185759344887,0.01064650843716541,0.0,0.0,-0.23544,9.623610000000001
6883838315,22.47,-0.01811651763570114,0.008517206749732328,0.0,0.0,-0.23544,9.67266
6888888820,22.47,-0.020245819323134222,0.001064650843716541,0.0,0.0,-0.26487,9.78057
6893939325,22.47,-0.02982767691658309,-0.007452555906015787,0.0,-0.02943,-0.26487,9.91791
6898989830,22.47,-0.02663372438543347,-0.0170518667919846,0.0,0.009810000000000001,-0.31392000000000003,10.01601
6904040335,22.47,-0.024504422698000388,-0.024504422698000388,0.0,0.04905,-0.34335000000000004,10.006200000000002
6909090840,22.47,-0.022375121010567305,-0.023439771854283843,0.0,0.12753,-0.34335000000000004,9.888480000000001
6914141345,22.47,-0.01918116847941768,-0.013840460968315033,0.0,0.18639,-0.34335000000000004,9.760950000000001
6919191850,22.47,-0.012775810124598492,0.005323254218582705,0.0,0.17658,-0.32373,9.633420000000001
6924242355,22.47,-0.012775810124598492,0.022375121010567305,0.0,0.13734000000000002,-0.34335000000000004,9.633420000000001
6929292860,22.47,-0.011711159280881954,0.02769837522915001,0.0,0.04905,-0.30411,9.69228
6934343365,22.47,-0.011711159280881954,0.023439771854283843,0.0,0.0,-0.32373,9.83943
6939393870,22.47,-0.011711159280881954,0.01918116847941768,0.0,-0.05886,-0.31392000000000003,9.96696
6944444375,22.47,-0.01064650843716541,0.008517206749732328,0.0,-0.08829,-0.31392000000000003,10.01601
6949494880,22.47,-0.005323254218582705,-0.001064650843716541,0.0,-0.10791,-0.33354000000000006,10.006200000000002
6954545385,22.47,-0.008517206749732328,-0.013840460968315033,0.0,-0.05886,-0.30411,9.82962
6959595890,22.47,-0.01064650843716541,-0.021310470166850764,0.0,0.0,-0.30411,9.68247
6964646395,22.47,-0.006387905062299246,-0.02556907354171693,0.0,0.06867000000000001,-0.27468000000000004,9.65304
6969696900,22.47,-0.005323254218582705,-0.01811651763570114,0.0,0.11772,-0.26487,9.68247
6974747405,22.47,-0.006387905062299246,-0.007452555906015787,0.0,0.16677000000000003,-0.27468000000000004,9.81
6979797910,22.47,-0.01064650843716541,0.003193952531149623,0.0,0.13734000000000002,-0.30411,9.91791
6984848415,22.47,-0.012775810124598492,0.00958185759344887,0.0,0.0981,-0.27468000000000004,10.006200000000002
6989898920,22.47,-0.015987215948268057,0.0170518667919846,0.0,0.07848000000000001,-0.30411,9.94734
6994949425,22.47,-0.014905111812031574,0.01918116847941768,0.0,0.019620000000000002,-0.31392000000000003,9.86886
6999999930,22.47,-0.0170518667919846,0.01811651763570114,0.0,-0.009810000000000001,-0.32373,9.760950000000001
7005050435,22.47,-0.015987215948268057,0.004258603374866164,0.0,-0.019620000000000002,-0.31392000000000003,9.74133
7010100940,22.47,-0.011711159280881954,-0.006387905062299246,0.0,-0.009810000000000001,-0.33354000000000006,9.770760000000001
7015151445,22.47,-0.013840460968315033,-0.015987215948268057,0.0,0.009810000000000001,-0.33354000000000006,9.819809999999999
7020201950,22.47,-0.014905111812031574,-0.020245819323134222,0.0,0.05886,-0.33354000000000006,9.85905
7025252455,22.47,-0.011711159280881954,-0.015987215948268057,0.0,0.11772,-0.33354000000000006,9.82962
7030302960,22.47,-0.007452555906015787,-0.013840460968315033,0.0,0.11772,-0.33354000000000006,9.80019
7035353465,22.47,0.0,-0.005323254218582705,0.0,0.14715,-0.32373,9.7119
7040403970,22.47,-0.001064650843716541,0.01064650843716541,0.0,0.12753,-0.30411,9.60399
7045454475,22.47,0.001064650843716541,0.024504422698000388,0.0,0.08829,-0.26487,9.6138
7050504980,22.47,-0.004258603374866164,0.031956978604016174,0.0,0.02943,-0.26487,9.66285
7055555485,22.47,-0.007452555906015787,0.02556907354171693,0.0,-0.039240000000000004,-0.28449,9.81
7060605990,22.47,-0.013840460968315033,0.012775810124598492,0.0,-0.0981,-0.27468000000000004,9.908100000000001
7065656495,22.47,-0.014905111812031574,-0.004258603374866164,0.0,-0.11772,-0.27468000000000004,9.96696
7070707000,22.47,-0.015987215948268057,-0.01918116847941768,0.0,-0.07848000000000001,-0.30411,9.92772
7075757505,22.47,-0.012775810124598492,-0.028763026072866547,0.0,0.0,-0.31392000000000003,9.81
7080808010,22.47,-0.014905111812031574,-0.031956978604016174,0.0,0.07848000000000001,-0.33354000000000006,9.68247
7085858515,22.47,-0.020245819323134222,-0.02982767691658309,0.0,0.14715,-0.32373,9.66285
7090909020,22.47,-0.01918116847941768,-0.020245819323134222,0.0,0.20601000000000003,-0.31392000000000003,9.69228
7095959525,22.47,-0.01918116847941768,-0.006387905062299246,0.0,0.20601000000000003,-0.32373,9.78057
7101010030,22.47,-0.014905111812031574,0.00958185759344887,0.0,0.20601000000000003,-0.34335000000000004,9.91791
7106060535,22.47,-0.012775810124598492,0.020245819323134222,0.0,0.12753,-0.36297,9.99639
7111111040,22.47,-0.014905111812031574,0.03089232776029963,0.0,0.06867000000000001,-0.35316,9.96696
7116161545,22.47,-0.014905111812031574,0.03515093113516579,0.0,-0.019620000000000002,-0.35316,9.87867
7121212050,22.47,-0.012775810124598492,0.03515093113516579,0.0,-0.05886,-0.34335000000000004,9.78057
7126262555,22.47,-0.014905111812031574,0.02663372438543347,0.0,-0.10791,-0.34335000000000004,9.751140000000001
7131313060,22.47,-0.014905111812031574,0.007452555906015787,0.0,-0.12753,-0.36297,9.74133
7136363565,22.47,-0.006387905062299246,-0.0170518667919846,0.0,-0.11772,-0.35316,9.819809999999999
7141414070,22.47,-0.008517206749732328,-0.033021629447732716,0.0,-0.07848000000000001,-0.34335000000000004,9.888480000000001
7146464575,22.47,-0.006387905062299246,-0.04260348704118158,0.0,0.039240000000000004,-0.38259000000000004,9.888480000000001
7151515080,22.47,-0.007452555906015787,-0.049008845396000776,0.0,0.12753,-0.35316,9.82962
7156565585,22.47,-0.001064650843716541,-0.0404741853537485,0.0,0.22563,-0.32373,9.74133
7161616090,22.47,0.002129301687433082,-0.02663372438543347,0.0,0.31392000000000003,-0.33354000000000006,9.6138
7166666595,22.47,0.001064650843716541,-0.005323254218582705,0.0,0.32373,-0.32373,9.623610000000001
7171717100,22.47,0.0,0.01811651763570114,0.0,0.28449,-0.2943,9.7119
7176767605,22.47,-0.003193952531149623,0.03515093113516579,0.0,0.20601000000000003,-0.27468000000000004,9.80019
7181818110,22.47,-0.006387905062299246,0.04794419455228423,0.0,0.08829,-0.28449,9.91791
7186868615,22.47,-0.011711159280881954,0.054332099614583476,0.0,-0.039240000000000004,-0.2943,9.99639
7191919120,22.47,-0.011711159280881954,0.05326744877086694,0.0,-0.15696000000000002,-0.2943,9.92772
