#timestamp [ns], temperature [degC], w_RS_S_x [rad s^-1], w_RS_S_y [rad s^-1], w_RS_S_z [rad s^-1], a_RS_S_x [m s^-2], a_RS_S_y [m s^-2], a_RS_S_z [m s^-2]
0,22.16,0.0,0.0,0.0,0.06867000000000001,0.33354000000000006,9.89829
5050505,22.16,0.0,0.0,0.0,0.04905,0.35316,9.91791
10101010,22.16,0.0,0.0,0.0,0.05886,0.34335000000000004,9.888480000000001
15151515,22.16,0.0,0.0,0.0,0.06867000000000001,0.34335000000000004,9.85905
20202020,22.16,0.0,0.0,0.0,0.08829,0.35316,9.87867
25252525,22.16,0.0,0.0,0.0,0.08829,0.32373,9.89829
30303030,22.16,0.0,0.0,0.0,0.07848000000000001,0.36297,9.86886
35353535,22.16,0.0,0.0,0.0,0.07848000000000001,0.32373,9.87867
40404040,22.16,0.0,0.0,0.0,0.08829,0.32373,9.87867
45454545,22.16,0.0,0.0,0.0,0.06867000000000001,0.31392000000000003,9.89829
50505050,22.16,0.0,0.0,0.0,0.07848000000000001,0.30411,9.908100000000001
55555555,22.16,0.0,0.0,0.0,0.04905,0.32373,9.86886
60606060,22.16,0.0,0.0,0.0,0.06867000000000001,0.33354000000000006,9.87867
65656565,22.16,0.0,0.0,0.0,0.05886,0.34335000000000004,9.85905
70707070,22.16,0.0,0.0,0.0,0.08829,0.33354000000000006,9.87867
75757575,22.16,0.0,0.0,0.0,0.0981,0.34335000000000004,9.888480000000001
80808080,22.16,0.0,0.0,0.0,0.06867000000000001,0.32373,9.89829
85858585,22.16,0.0,0.0,0.0,0.06867000000000001,0.31392000000000003,9.86886
90909090,22.16,0.0,0.0,0.0,0.0981,0.31392000000000003,9.888480000000001
95959595,22.16,0.0,0.0,0.0,0.05886,0.35316,9.87867
101010100,22.16,0.0,0.0,0.0,0.07848000000000001,0.33354000000000006,9.87867
106060605,22.16,0.0,0.0,0.0,0.05886,0.35316,9.86886
111111110,22.16,0.0,0.0,0.0,0.06867000000000001,0.35316,9.888480000000001
116161615,22.16,0.0,0.0,0.0,0.07848000000000001,0.31392000000000003,9.85905
121212120,22.16,0.0,0.0,0.0,0.06867000000000001,0.33354000000000006,9.86886
126262625,22.16,0.0,0.0,0.0,0.06867000000000001,0.32373,9.908100000000001
131313130,22.16,0.0,0.0,0.0,0.06867000000000001,0.36297,9.87867
136363635,22.16,0.0,0.0,0.0,0.07848000000000001,0.35316,9.908100000000001
141414140,22.16,0.0,0.0,0.0,0.04905,0.34335000000000004,9.87867
146464645,22.16,0.0,0.0,0.0,0.07848000000000001,0.33354000000000006,9.85905
151515150,22.16,0.0,0.0,0.0,0.05886,0.36297,9.85905
156565655,22.16,0.0,0.0,0.0,0.08829,0.33354000000000006,9.85905
161616160,22.16,0.0,0.0,0.0,0.04905,0.32373,9.89829
166666665,22.16,0.0,0.0,0.0,0.06867000000000001,0.35316,9.888480000000001
171717170,22.16,0.0,0.0,0.0,0.05886,0.33354000000000006,9.87867
176767675,22.16,0.0,0.0,0.0,0.06867000000000001,0.32373,9.908100000000001
181818180,22.16,0.0,0.0,0.0,0.05886,0.34335000000000004,9.85905
186868685,22.16,0.0,0.0,0.0,0.05886,0.31392000000000003,9.87867
191919190,22.16,0.0,0.0,0.0,0.07848000000000001,0.31392000000000003,9.89829
196969695,22.16,0.0,0.0,0.0,0.08829,0.32373,9.908100000000001
202020200,22.16,0.0,0.0,0.0,0.07848000000000001,0.33354000000000006,9.86886
207070705,22.16,0.0,0.0,0.0,0.04905,0.34335000000000004,9.888480000000001
212121210,22.16,0.0,0.0,0.0,0.06867000000000001,0.34335000000000004,9.908100000000001
217171715,22.16,0.0,0.0,0.0,0.039240000000000004,0.34335000000000004,9.908100000000001
222222220,22.16,0.0,0.0,0.0,0.05886,0.32373,9.87867
227272725,22.16,0.0,0.0,0.0,0.06867000000000001,0.31392000000000003,9.89829
232323230,22.16,0.0,0.0,0.0,0.05886,0.35316,9.87867
237373735,22.16,0.0,0.0,0.0,0.06867000000000001,0.34335000000000004,9.86886
242424240,22.16,0.0,0.0,0.0,0.05886,0.33354000000000006,9.87867
247474745,22.16,0.0,0.0,0.0,0.06867000000000001,0.32373,9.86886
252525250,22.16,0.0,0.0,0.0,0.06867000000000001,0.32373,9.89829
257575755,22.16,0.0,0.0,0.0,0.07848000000000001,0.31392000000000003,9.87867
262626260,22.16,0.0,0.0,0.0,0.07848000000000001,0.32373,9.888480000000001
267676765,22.16,0.0,0.0,0.0,0.05886,0.35316,9.87867
272727270,22.16,0.0,0.0,0.0,0.06867000000000001,0.34335000000000004,9.83943
277777775,22.16,0.0,0.0,0.0,0.0981,0.32373,9.87867
282828280,22.16,0.0,0.0,0.0,0.06867000000000001,0.32373,9.908100000000001
287878785,22.16,0.0,0.0,0.0,0.039240000000000004,0.30411,9.888480000000001
292929290,22.16,0.0,0.0,0.0,0.0981,0.32373,9.888480000000001
297979795,22.16,0.0,0.0,0.0,0.05886,0.34335000000000004,9.87867
303030300,22.16,0.0,0.0,0.0,0.04905,0.36297,9.91791
308080805,22.16,0.0,0.0,0.0,0.04905,0.32373,9.888480000000001
313131310,22.16,0.0,0.0,0.0,0.06867000000000001,0.32373,9.87867
318181815,22.16,0.0,0.0,0.0,0.07848000000000001,0.33354000000000006,9.888480000000001
323232320,22.16,0.0,0.0,0.0,0.0981,0.31392000000000003,9.87867
328282825,22.16,0.0,0.0,0.0,0.07848000000000001,0.34335000000000004,9.888480000000001
333333330,22.16,0.0,0.0,0.0,0.06867000000000001,0.33354000000000006,9.89829
338383835,22.16,0.0,0.0,0.0,0.06867000000000001,0.32373,9.888480000000001
343434340,22.16,0.0,0.0,0.0,0.06867000000000001,0.33354000000000006,9.89829
348484845,22.16,0.0,0.0,0.0,0.05886,0.35316,9.888480000000001
353535350,22.16,0.0,0.0,0.0,0.08829,0.34335000000000004,9.85905
358585855,22.16,0.0,0.0,0.0,0.06867000000000001,0.34335000000000004,9.86886
363636360,22.16,0.0,0.0,0.0,0.0981,0.34335000000000004,9.85905
368686865,22.16,0.0,0.0,0.0,0.06867000000000001,0.34335000000000004,9.89829
373737370,22.16,0.0,0.0,0.0,0.07848000000000001,0.33354000000000006,9.91791
378787875,22.16,0.0,0.0,0.0,0.05886,0.32373,9.87867
383838380,22.16,0.0,0.0,0.0,0.04905,0.32373,9.908100000000001
388888885,22.16,0.0,0.0,0.0,0.08829,0.35316,9.888480000000001
393939390,22.16,0.0,0.0,0.0,0.06867000000000001,0.33354000000000006,9.84924
398989895,22.16,0.0,0.0,0.0,0.06867000000000001,0.32373,9.89829
404040400,22.16,0.0,0.0,0.0,0.0981,0.34335000000000004,9.85905
409090905,22.16,0.0,0.0,0.0,0.07848000000000001,0.32373,9.908100000000001
414141410,22.16,0.0,0.0,0.0,0.05886,0.33354000000000006,9.91791
419191915,22.16,0.0,0.0,0.0,0.06867000000000001,0.32373,9.908100000000001
424242420,22.16,0.0,0.0,0.0,0.06867000000000001,0.35316,9.908100000000001
429292925,22.16,0.0,0.0,0.0,0.06867000000000001,0.35316,9.87867
434343430,22.16,0.0,0.0,0.0,0.06867000000000001,0.36297,9.888480000000001
439393935,22.16,0.0,0.0,0.0,0.07848000000000001,0.35316,9.888480000000001
444444440,22.16,0.0,0.0,0.0,0.04905,0.35316,9.888480000000001
449494945,22.16,0.0,0.0,0.0,0.06867000000000001,0.35316,9.87867
454545450,22.16,0.0,0.0,0.0,0.06867000000000001,0.32373,9.87867
459595955,22.16,0.0,0.0,0.0,0.0981,0.33354000000000006,9.89829
464646460,22.16,0.0,0.0,0.0,0.06867000000000001,0.33354000000000006,9.91791
469696965,22.16,0.0,0.0,0.0,0.07848000000000001,0.36297,9.888480000000001
474747470,22.16,0.0,0.0,0.0,0.05886,0.33354000000000006,9.86886
479797975,22.16,0.0,0.0,0.0,0.05886,0.35316,9.888480000000001
484848480,22.16,0.0,0.0,0.0,0.06867000000000001,0.32373,9.87867
489898985,22.16,0.0,0.0,0.0,0.08829,0.34335000000000004,9.86886
494949490,22.16,0.0,0.0,0.0,0.05886,0.35316,9.89829
499999995,22.16,0.0,0.0,0.0,0.08829,0.35316,9.85905
505050500,22.16,0.0,0.0,0.0,0.04905,0.33354000000000006,9.888480000000001
510101005,22.16,0.0,0.0,0.0,0.06867000000000001,0.33354000000000006,9.89829
515151510,22.16,0.0,0.0,0.0,0.05886,0.31392000000000003,9.888480000000001
520202015,22.16,0.0,0.0,0.0,0.039240000000000004,0.36297,9.86886
525252520,22.16,0.0,0.0,0.0,0.06867000000000001,0.33354000000000006,9.86886
530303025,22.16,0.0,0.0,0.0,0.08829,0.32373,9.89829
535353530,22.16,0.0,0.0,0.0,0.04905,0.34335000000000004,9.908100000000001
540404035,22.16,0.0,0.0,0.0,0.05886,0.34335000000000004,9.908100000000001
545454540,22.16,0.0,0.0,0.0,0.039240000000000004,0.35316,9.89829
550505045,22.16,0.0,0.0,0.0,0.05886,0.32373,9.87867
555555550,22.16,0.0,0.0,0.0,0.06867000000000001,0.33354000000000006,9.87867
560606055,22.16,0.0,0.0,0.0,0.08829,0.33354000000000006,9.89829
565656560,22.16,0.0,0.0,0.0,0.05886,0.36297,9.85905
570707065,22.16,0.0,0.0,0.0,0.08829,0.35316,9.87867
575757570,22.16,0.0,0.0,0.0,0.06867000000000001,0.32373,9.87867
580808075,22.16,0.0,0.0,0.0,0.06867000000000001,0.34335000000000004,9.91791
585858580,22.16,0.0,0.0,0.0,0.06867000000000001,0.32373,9.888480000000001
590909085,22.16,0.0,0.0,0.0,0.07848000000000001,0.32373,9.86886
595959590,22.16,0.0,0.0,0.0,0.039240000000000004,0.34335000000000004,9.87867
601010095,22.16,0.0,0.0,0.0,0.07848000000000001,0.34335000000000004,9.888480000000001
606060600,22.16,0.0,0.0,0.0,0.06867000000000001,0.36297,9.86886
611111105,22.16,0.0,0.0,0.0,0.05886,0.33354000000000006,9.89829
616161610,22.16,0.0,0.0,0.0,0.05886,0.34335000000000004,9.89829
621212115,22.16,0.0,0.0,0.0,0.06867000000000001,0.34335000000000004,9.908100000000001
626262620,22.16,0.0,0.0,0.0,0.05886,0.32373,9.89829
631313125,22.16,0.0,0.0,0.0,0.05886,0.33354000000000006,9.85905
636363630,22.16,0.0,0.0,0.0,0.06867000000000001,0.2943,9.85905
641414135,22.16,0.0,0.0,0.0,0.06867000000000001,0.36297,9.85905
646464640,22.16,0.0,0.0,0.0,0.05886,0.34335000000000004,9.87867
651515145,22.16,0.0,0.0,0.0,0.08829,0.32373,9.87867
656565650,22.16,0.0,0.0,0.0,0.06867000000000001,0.34335000000000004,9.888480000000001
661616155,22.16,0.0,0.0,0.0,0.08829,0.32373,9.908100000000001
666666660,22.16,0.0,0.0,0.0,0.06867000000000001,0.30411,9.85905
671717165,22.16,0.0,0.0,0.0,0.039240000000000004,0.33354000000000006,9.89829
676767670,22.16,0.0,0.0,0.0,0.07848000000000001,0.32373,9.888480000000001
681818175,22.16,0.0,0.0,0.0,0.05886,0.31392000000000003,9.87867
686868680,22.16,0.0,0.0,0.0,0.06867000000000001,0.31392000000000003,9.87867
691919185,22.16,0.0,0.0,0.0,0.06867000000000001,0.33354000000000006,9.86886
696969690,22.16,0.0,0.0,0.0,0.07848000000000001,0.33354000000000006,9.87867
702020195,22.16,0.0,0.0,0.0,0.07848000000000001,0.35316,9.86886
707070700,22.16,0.0,0.0,0.0,0.05886,0.34335000000000004,9.888480000000001
712121205,22.16,0.0,0.0,0.0,0.06867000000000001,0.31392000000000003,9.92772
717171710,22.16,0.0,0.0,0.0,0.06867000000000001,0.33354000000000006,9.89829
722222215,22.16,0.0,0.0,0.0,0.0981,0.35316,9.87867
727272720,22.16,0.0,0.0,0.0,0.06867000000000001,0.35316,9.888480000000001
732323225,22.16,0.0,0.0,0.0,0.07848000000000001,0.35316,9.89829
737373730,22.16,0.0,0.0,0.0,0.08829,0.32373,9.87867
742424235,22.16,0.0,0.0,0.0,0.07848000000000001,0.33354000000000006,9.888480000000001
747474740,22.16,0.0,0.0,0.0,0.07848000000000001,0.32373,9.888480000000001
752525245,22.16,0.0,0.0,0.0,0.08829,0.35316,9.89829
757575750,22.16,0.0,0.0,0.0,0.04905,0.33354000000000006,9.91791
762626255,22.16,0.0,0.0,0.0,0.07848000000000001,0.35316,9.89829
767676760,22.16,0.0,0.0,0.0,0.06867000000000001,0.35316,9.888480000000001
772727265,22.16,0.0,0.0,0.0,0.07848000000000001,0.33354000000000006,9.87867
777777770,22.16,0.0,0.0,0.0,0.07848000000000001,0.34335000000000004,9.89829
782828275,22.16,0.0,0.0,0.0,0.07848000000000001,0.36297,9.908100000000001
787878780,22.16,0.0,0.0,0.0,0.06867000000000001,0.33354000000000006,9.89829
792929285,22.16,0.0,0.0,0.0,0.07848000000000001,0.2943,9.888480000000001
797979790,22.16,0.0,0.0,0.0,0.07848000000000001,0.34335000000000004,9.888480000000001
803030295,22.16,0.0,0.0,0.0,0.10791,0.32373,9.888480000000001
808080800,22.16,0.0,0.0,0.0,0.05886,0.34335000000000004,9.87867
813131305,22.16,0.0,0.0,0.0,0.039240000000000004,0.33354000000000006,9.87867
818181810,22.16,0.0,0.0,0.0,0.07848000000000001,0.34335000000000004,9.87867
823232315,22.16,0.0,0.0,0.0,0.05886,0.33354000000000006,9.89829
828282820,22.16,0.0,0.0,0.0,0.06867000000000001,0.33354000000000006,9.86886
833333325,22.16,0.0,0.0,0.0,0.04905,0.31392000000000003,9.888480000000001
838383830,22.16,0.0,0.0,0.0,0.06867000000000001,0.36297,9.87867
843434335,22.16,0.0,0.0,0.0,0.05886,0.31392000000000003,9.89829
848484840,22.16,0.0,0.0,0.0,0.05886,0.33354000000000006,9.89829
853535345,22.16,0.0,0.0,0.0,0.11772,0.35316,9.87867
858585850,22.16,0.0,0.0,0.0,0.07848000000000001,0.31392000000000003,9.87867
863636355,22.16,0.0,0.0,0.0,0.06867000000000001,0.32373,9.888480000000001
868686860,22.16,0.0,0.0,0.0,0.05886,0.2943,9.87867
873737365,22.16,0.0,0.0,0.0,0.05886,0.32373,9.888480000000001
878787870,22.16,0.0,0.0,0.0,0.07848000000000001,0.31392000000000003,9.888480000000001
883838375,22.16,0.0,0.0,0.0,0.06867000000000001,0.32373,9.888480000000001
888888880,22.16,0.0,0.0,0.0,0.07848000000000001,0.33354000000000006,9.888480000000001
893939385,22.16,0.0,0.0,0.0,0.05886,0.33354000000000006,9.86886
898989890,22.16,0.0,0.0,0.0,0.05886,0.32373,9.908100000000001
904040395,22.16,0.0,0.0,0.0,0.05886,0.32373,9.908100000000001
909090900,22.16,0.0,0.0,0.0,0.08829,0.31392000000000003,9.86886
914141405,22.16,0.0,0.0,0.0,0.05886,0.34335000000000004,9.888480000000001
919191910,22.16,0.0,0.0,0.0,0.06867000000000001,0.33354000000000006,9.87867
924242415,22.16,0.0,0.0,0.0,0.06867000000000001,0.35316,9.92772
929292920,22.16,0.0,0.0,0.0,0.07848000000000001,0.36297,9.87867
934343425,22.16,0.0,0.0,0.0,0.06867000000000001,0.32373,9.85905
939393930,22.16,0.0,0.0,0.0,0.07848000000000001,0.33354000000000006,9.86886
944444435,22.16,0.0,0.0,0.0,0.08829,0.32373,9.89829
949494940,22.16,0.0,0.0,0.0,0.06867000000000001,0.32373,9.89829
954545445,22.16,0.0,0.0,0.0,0.08829,0.33354000000000006,9.908100000000001
959595950,22.16,0.0,0.0,0.0,0.05886,0.34335000000000004,9.89829
964646455,22.16,0.0,0.0,0.0,0.05886,0.34335000000000004,9.86886
969696960,22.16,0.0,0.0,0.0,0.06867000000000001,0.34335000000000004,9.83943
974747465,22.16,0.0,0.0,0.0,0.04905,0.33354000000000006,9.86886
979797970,22.16,0.0,0.0,0.0,0.06867000000000001,0.34335000000000004,9.87867
984848475,22.16,0.0,0.0,0.0,0.05886,0.33354000000000006,9.87867
989898980,22.16,0.0,0.0,0.0,0.07848000000000001,0.34335000000000004,9.87867
994949485,22.16,0.0,0.0,0.0,0.07848000000000001,0.31392000000000003,9.89829
999999990,22.16,0.0,0.0,0.0,0.05886,0.33354000000000006,9.888480000000001
1005050495,22.16,0.0,0.0,0.0,0.08829,0.33354000000000006,9.888480000000001
1010101000,22.16,0.0,0.0,0.0,0.08829,0.35316,9.85905
1015151505,22.16,0.0,0.0,0.0,0.06867000000000001,0.33354000000000006,9.89829
1020202010,22.16,0.0,0.0,0.0,0.05886,0.31392000000000003,9.87867
1025252515,22.16,0.0,0.0,0.0,0.07848000000000001,0.34335000000000004,9.888480000000001
1030303020,22.16,0.0,0.0,0.0,0.08829,0.34335000000000004,9.87867
1035353525,22.16,0.0,0.0,0.0,0.07848000000000001,0.31392000000000003,9.888480000000001
1040404030,22.16,0.0,0.0,0.0,0.06867000000000001,0.32373,9.89829
1045454535,22.16,0.0,0.0,0.0,0.06867000000000001,0.33354000000000006,9.84924
1050505040,22.16,0.0,0.0,0.0,0.07848000000000001,0.34335000000000004,9.888480000000001
1055555545,22.16,0.0,0.0,0.0,0.08829,0.34335000000000004,9.85905
1060606050,22.16,0.0,0.0,0.0,0.07848000000000001,0.31392000000000003,9.85905
1065656555,22.16,0.0,0.0,0.0,0.0981,0.34335000000000004,9.91791
1070707060,22.16,0.0,0.0,0.0,0.06867000000000001,0.33354000000000006,9.89829
1075757565,22.16,0.0,0.0,0.0,0.07848000000000001,0.30411,9.86886
1080808070,22.16,0.0,0.0,0.0,0.06867000000000001,0.35316,9.89829
1085858575,22.16,0.0,0.0,0.0,0.06867000000000001,0.31392000000000003,9.89829
1090909080,22.16,0.0,0.0,0.0,0.05886,0.34335000000000004,9.86886
1095959585,22.16,0.0,0.0,0.0,0.06867000000000001,0.36297,9.87867
1101010090,22.16,0.0,0.0,0.0,0.05886,0.34335000000000004,9.84924
1106060595,22.16,0.0,0.0,0.0,0.06867000000000001,0.32373,9.89829
1111111100,22.16,0.0,0.0,0.0,0.06867000000000001,0.34335000000000004,9.89829
1116161605,22.16,0.0,0.0,0.0,0.07848000000000001,0.32373,9.908100000000001
1121212110,22.16,0.0,0.0,0.0,0.05886,0.32373,9.92772
1126262615,22.16,0.0,0.0,0.0,0.04905,0.35316,9.888480000000001
1131313120,22.16,0.0,0.0,0.0,0.07848000000000001,0.34335000000000004,9.84924
1136363625,22.16,0.0,0.0,0.0,0.07848000000000001,0.35316,9.87867
1141414130,22.16,0.0,0.0,0.0,0.06867000000000001,0.34335000000000004,9.888480000000001
1146464635,22.16,0.0,0.0,0.0,0.05886,0.31392000000000003,9.888480000000001
1151515140,22.16,0.0,0.0,0.0,0.08829,0.32373,9.92772
1156565645,22.16,0.0,0.0,0.0,0.06867000000000001,0.32373,9.908100000000001
1161616150,22.16,0.0,0.0,0.0,0.06867000000000001,0.34335000000000004,9.89829
1166666655,22.16,0.0,0.0,0.0,0.05886,0.35316,9.87867
1171717160,22.16,0.0,0.0,0.0,0.06867000000000001,0.33354000000000006,9.86886
1176767665,22.16,0.0,0.0,0.0,0.05886,0.32373,9.888480000000001
1181818170,22.16,0.0,0.0,0.0,0.06867000000000001,0.35316,9.87867
1186868675,22.16,0.0,0.0,0.0,0.08829,0.31392000000000003,9.888480000000001
1191919180,22.16,0.0,0.0,0.0,0.06867000000000001,0.30411,9.89829
1196969685,22.16,0.0,0.0,0.0,0.06867000000000001,0.32373,9.908100000000001
1202020190,22.16,0.0,0.0,0.0,0.05886,0.33354000000000006,9.87867
1207070695,22.16,0.0,0.0,0.0,0.05886,0.33354000000000006,9.89829
1212121200,22.16,0.0,0.0,0.0,0.08829,0.35316,9.85905
1217171705,22.16,0.0,0.0,0.0,0.07848000000000001,0.34335000000000004,9.89829
1222222210,22.16,0.0,0.0,0.0,0.08829,0.32373,9.89829
1227272715,22.16,0.0,0.0,0.0,0.05886,0.32373,9.89829
1232323220,22.16,0.0,0.0,0.0,0.04905,0.35316,9.89829
1237373725,22.16,0.0,0.0,0.0,0.08829,0.33354000000000006,9.87867
1242424230,22.16,0.0,0.0,0.0,0.07848000000000001,0.30411,9.87867
1247474735,22.16,0.0,0.0,0.0,0.07848000000000001,0.33354000000000006,9.888480000000001
1252525240,22.16,0.0,0.0,0.0,0.07848000000000001,0.32373,9.89829
1257575745,22.16,0.0,0.0,0.0,0.05886,0.35316,9.87867
1262626250,22.16,0.0,0.0,0.0,0.08829,0.35316,9.86886
1267676755,22.16,0.0,0.0,0.0,0.05886,0.33354000000000006,9.85905
1272727260,22.16,0.0,0.0,0.0,0.06867000000000001,0.32373,9.888480000000001
1277777765,22.16,0.0,0.0,0.0,0.05886,0.31392000000000003,9.87867
1282828270,22.16,0.0,0.0,0.0,0.07848000000000001,0.33354000000000006,9.89829
1287878775,22.16,0.0,0.0,0.0,0.05886,0.33354000000000006,9.87867
1292929280,22.16,0.0,0.0,0.0,0.06867000000000001,0.31392000000000003,9.888480000000001
1297979785,22.16,0.0,0.0,0.0,0.07848000000000001,0.31392000000000003,9.86886
1303030290,22.16,0.0,0.0,0.0,0.07848000000000001,0.31392000000000003,9.87867
1308080795,22.16,0.0,0.0,0.0,0.04905,0.34335000000000004,9.908100000000001
1313131300,22.16,0.0,0.0,0.0,0.05886,0.31392000000000003,9.89829
1318181805,22.16,0.0,0.0,0.0,0.08829,0.31392000000000003,9.86886
1323232310,22.16,0.0,0.0,0.0,0.05886,0.32373,9.89829
1328282815,22.16,0.0,0.0,0.0,0.07848000000000001,0.34335000000000004,9.89829
1333333320,22.16,0.0,0.0,0.0,0.05886,0.35316,9.87867
1338383825,22.16,0.0,0.0,0.0,0.06867000000000001,0.32373,9.84924
1343434330,22.16,0.0,0.0,0.0,0.08829,0.32373,9.908100000000001
1348484835,22.16,0.0,0.0,0.0,0.08829,0.33354000000000006,9.888480000000001
1353535340,22.16,0.0,0.0,0.0,0.05886,0.33354000000000006,9.888480000000001
1358585845,22.16,0.0,0.0,0.0,0.06867000000000001,0.33354000000000006,9.888480000000001
1363636350,22.16,0.0,0.0,0.0,0.039240000000000004,0.32373,9.91791
1368686855,22.16,0.0,0.0,0.0,0.05886,0.33354000000000006,9.87867
1373737360,22.16,0.0,0.0,0.0,0.05886,0.35316,9.87867
1378787865,22.16,0.0,0.0,0.0,0.06867000000000001,0.36297,9.87867
1383838370,22.16,0.0,0.0,0.0,0.07848000000000001,0.35316,9.86886
1388888875,22.16,0.0,0.0,0.0,0.05886,0.33354000000000006,9.89829
1393939380,22.16,0.0,0.0,0.0,0.04905,0.34335000000000004,9.86886
1398989885,22.16,0.0,0.0,0.0,0.05886,0.33354000000000006,9.87867
1404040390,22.16,0.0,0.0,0.0,0.08829,0.34335000000000004,9.91791
1409090895,22.16,0.0,0.0,0.0,0.04905,0.35316,9.89829
1414141400,22.16,0.0,0.0,0.0,0.07848000000000001,0.33354000000000006,9.85905
1419191905,22.16,0.0,0.0,0.0,0.04905,0.32373,9.87867
1424242410,22.16,0.0,0.0,0.0,0.07848000000000001,0.31392000000000003,9.91791
1429292915,22.16,0.0,0.0,0.0,0.06867000000000001,0.33354000000000006,9.87867
1434343420,22.16,0.0,0.0,0.0,0.06867000000000001,0.33354000000000006,9.888480000000001
1439393925,22.16,0.0,0.0,0.0,0.06867000000000001,0.31392000000000003,9.86886
1444444430,22.16,0.0,0.0,0.0,0.05886,0.33354000000000006,9.91791
1449494935,22.16,0.0,0.0,0.0,0.05886,0.32373,9.91791
1454545440,22.16,0.0,0.0,0.0,0.05886,0.35316,9.87867
1459595945,22.16,0.0,0.0,0.0,0.07848000000000001,0.34335000000000004,9.888480000000001
1464646450,22.16,0.0,0.0,0.0,0.05886,0.32373,9.86886
1469696955,22.16,0.0,0.0,0.0,0.07848000000000001,0.31392000000000003,9.89829
1474747460,22.16,0.0,0.0,0.0,0.07848000000000001,0.31392000000000003,9.888480000000001
1479797965,22.16,0.0,0.0,0.0,0.0981,0.31392000000000003,9.908100000000001
1484848470,22.16,0.0,0.0,0.0,0.05886,0.31392000000000003,9.888480000000001
1489898975,22.16,0.0,0.0,0.0,0.06867000000000001,0.36297,9.888480000000001
1494949480,22.16,0.0,0.0,0.0,0.0981,0.33354000000000006,9.87867
1499999985,22.16,0.0,0.0,0.0,0.07848000000000001,0.34335000000000004,9.908100000000001
1505050490,22.16,0.0,0.0,0.0,0.06867000000000001,0.33354000000000006,9.86886
1510100995,22.16,0.0,0.0,0.0,0.06867000000000001,0.35316,9.86886
1515151500,22.16,0.0,0.0,0.0,0.05886,0.33354000000000006,9.888480000000001
1520202005,22.16,0.0,0.0,0.0,0.07848000000000001,0.32373,9.888480000000001
1525252510,22.16,0.0,0.0,0.0,0.08829,0.32373,9.89829
1530303015,22.16,0.0,0.0,0.0,0.07848000000000001,0.34335000000000004,9.91791
1535353520,22.16,0.0,0.0,0.0,0.07848000000000001,0.35316,9.87867
1540404025,22.16,0.0,0.0,0.0,0.07848000000000001,0.35316,9.87867
1545454530,22.16,0.0,0.0,0.0,0.07848000000000001,0.35316,9.87867
1550505035,22.16,0.0,0.0,0.0,0.04905,0.34335000000000004,9.87867
1555555540,22.16,0.0,0.0,0.0,0.04905,0.34335000000000004,9.888480000000001
1560606045,22.16,0.0,0.0,0.0,0.06867000000000001,0.30411,9.888480000000001
1565656550,22.16,0.0,0.0,0.0,0.0981,0.32373,9.89829
1570707055,22.16,0.0,0.0,0.0,0.07848000000000001,0.30411,9.888480000000001
1575757560,22.16,0.0,0.0,0.0,0.05886,0.34335000000000004,9.888480000000001
1580808065,22.16,0.0,0.0,0.0,0.06867000000000001,0.34335000000000004,9.888480000000001
1585858570,22.16,0.0,0.0,0.0,0.04905,0.31392000000000003,9.86886
1590909075,22.16,0.0,0.0,0.0,0.06867000000000001,0.32373,9.87867
1595959580,22.16,0.0,0.0,0.0,0.07848000000000001,0.31392000000000003,9.888480000000001
1601010085,22.16,0.0,0.0,0.0,0.06867000000000001,0.32373,9.888480000000001
1606060590,22.16,0.0,0.0,0.0,0.08829,0.31392000000000003,9.888480000000001
1611111095,22.16,0.0,0.0,0.0,0.05886,0.35316,9.86886
1616161600,22.16,0.0,0.0,0.0,0.06867000000000001,0.30411,9.908100000000001
1621212105,22.16,0.0,0.0,0.0,0.04905,0.35316,9.85905
1626262610,22.16,0.0,0.0,0.0,0.05886,0.33354000000000006,9.888480000000001
1631313115,22.16,0.0,0.0,0.0,0.06867000000000001,0.35316,9.87867
1636363620,22.16,0.0,0.0,0.0,0.06867000000000001,0.31392000000000003,9.84924
1641414125,22.16,0.0,0.0,0.0,0.05886,0.35316,9.87867
1646464630,22.16,0.0,0.0,0.0,0.07848000000000001,0.33354000000000006,9.908100000000001
1651515135,22.16,0.0,0.0,0.0,0.05886,0.31392000000000003,9.89829
1656565640,22.16,0.0,0.0,0.0,0.05886,0.33354000000000006,9.87867
1661616145,22.16,0.0,0.0,0.0,0.04905,0.2943,9.86886
1666666650,22.16,0.0,0.0,0.0,0.07848000000000001,0.33354000000000006,9.888480000000001
1671717155,22.16,0.0,0.0,0.0,0.06867000000000001,0.34335000000000004,9.86886
1676767660,22.16,0.0,0.0,0.0,0.07848000000000001,0.36297,9.888480000000001
1681818165,22.16,0.0,0.0,0.0,0.07848000000000001,0.32373,9.89829
1686868670,22.16,0.0,0.0,0.0,0.05886,0.34335000000000004,9.89829
1691919175,22.16,0.0,0.0,0.0,0.07848000000000001,0.34335000000000004,9.89829
1696969680,22.16,0.0,0.0,0.0,0.05886,0.30411,9.91791
1702020185,22.16,0.0,0.0,0.0,0.08829,0.32373,9.888480000000001
1707070690,22.16,0.0,0.0,0.0,0.08829,0.34335000000000004,9.888480000000001
1712121195,22.16,0.0,0.0,0.0,0.07848000000000001,0.32373,9.87867
1717171700,22.16,0.0,0.0,0.0,0.06867000000000001,0.34335000000000004,9.888480000000001
1722222205,22.16,0.0,0.0,0.0,0.04905,0.32373,9.89829
1727272710,22.16,0.0,0.0,0.0,0.06867000000000001,0.30411,9.89829
1732323215,22.16,0.0,0.0,0.0,0.05886,0.33354000000000006,9.91791
1737373720,22.16,0.0,0.0,0.0,0.05886,0.34335000000000004,9.908100000000001
1742424225,22.16,0.0,0.0,0.0,0.06867000000000001,0.35316,9.86886
1747474730,22.16,0.0,0.0,0.0,0.05886,0.33354000000000006,9.82962
1752525235,22.16,0.0,0.0,0.0,0.08829,0.31392000000000003,9.84924
1757575740,22.16,0.0,0.0,0.0,0.08829,0.32373,9.87867
1762626245,22.16,0.0,0.0,0.0,0.06867000000000001,0.31392000000000003,9.87867
1767676750,22.16,0.0,0.0,0.0,0.05886,0.31392000000000003,9.89829
1772727255,22.16,0.0,0.0,0.0,0.05886,0.31392000000000003,9.89829
1777777760,22.16,0.0,0.0,0.0,0.06867000000000001,0.32373,9.92772
1782828265,22.16,0.0,0.0,0.0,0.05886,0.33354000000000006,9.888480000000001
1787878770,22.16,0.0,0.0,0.0,0.05886,0.34335000000000004,9.888480000000001
1792929275,22.16,0.0,0.0,0.0,0.07848000000000001,0.34335000000000004,9.86886
1797979780,22.16,0.0,0.0,0.0,0.08829,0.32373,9.888480000000001
1803030285,22.16,0.0,0.0,0.0,0.05886,0.30411,9.888480000000001
1808080790,22.16,0.0,0.0,0.0,0.06867000000000001,0.30411,9.888480000000001
1813131295,22.16,0.0,0.0,0.0,0.04905,0.30411,9.86886
1818181800,22.16,0.0,0.0,0.0,0.05886,0.34335000000000004,9.87867
1823232305,22.16,0.0,0.0,0.0,0.04905,0.34335000000000004,9.86886
1828282810,22.16,0.0,0.0,0.0,0.06867000000000001,0.32373,9.87867
1833333315,22.16,0.0,0.0,0.0,0.05886,0.35316,9.86886
1838383820,22.16,0.0,0.0,0.0,0.07848000000000001,0.33354000000000006,9.89829
1843434325,22.16,0.0,0.0,0.0,0.07848000000000001,0.33354000000000006,9.888480000000001
1848484830,22.16,0.0,0.0,0.0,0.06867000000000001,0.32373,9.908100000000001
1853535335,22.16,0.0,0.0,0.0,0.07848000000000001,0.31392000000000003,9.908100000000001
1858585840,22.16,0.0,0.0,0.0,0.08829,0.35316,9.908100000000001
1863636345,22.16,0.0,0.0,0.0,0.08829,0.32373,9.91791
1868686850,22.16,0.0,0.0,0.0,0.06867000000000001,0.33354000000000006,9.86886
1873737355,22.16,0.0,0.0,0.0,0.06867000000000001,0.33354000000000006,9.86886
1878787860,22.16,0.0,0.0,0.0,0.07848000000000001,0.32373,9.87867
1883838365,22.16,0.0,0.0,0.0,0.07848000000000001,0.31392000000000003,9.888480000000001
1888888870,22.16,0.0,0.0,0.0,0.08829,0.35316,9.89829
1893939375,22.16,0.0,0.0,0.0,0.07848000000000001,0.30411,9.87867
1898989880,22.16,0.0,0.0,0.0,0.05886,0.35316,9.86886
1904040385,22.16,0.0,0.0,0.0,0.05886,0.32373,9.89829
1909090890,22.16,0.0,0.0,0.0,0.08829,0.35316,9.888480000000001
1914141395,22.16,0.0,0.0,0.0,0.08829,0.33354000000000006,9.86886
1919191900,22.16,0.0,0.0,0.0,0.06867000000000001,0.34335000000000004,9.85905
1924242405,22.16,0.0,0.0,0.0,0.08829,0.33354000000000006,9.888480000000001
1929292910,22.16,0.0,0.0,0.0,0.07848000000000001,0.33354000000000006,9.888480000000001
1934343415,22.16,0.0,0.0,0.0,0.04905,0.35316,9.908100000000001
1939393920,22.16,0.0,0.0,0.0,0.08829,0.31392000000000003,9.908100000000001
1944444425,22.16,0.0,0.0,0.0,0.06867000000000001,0.33354000000000006,9.85905
1949494930,22.16,0.0,0.0,0.0,0.06867000000000001,0.32373,9.89829
1954545435,22.16,0.0,0.0,0.0,0.06867000000000001,0.32373,9.86886
1959595940,22.16,0.0,0.0,0.0,0.07848000000000001,0.34335000000000004,9.87867
1964646445,22.16,0.0,0.0,0.0,0.06867000000000001,0.32373,9.908100000000001
1969696950,22.16,0.0,0.0,0.0,0.06867000000000001,0.31392000000000003,9.89829
1974747455,22.16,0.0,0.0,0.0,0.0981,0.34335000000000004,9.888480000000001
1979797960,22.16,0.0,0.0,0.0,0.06867000000000001,0.34335000000000004,9.908100000000001
1984848465,22.16,0.0,0.0,0.0,0.06867000000000001,0.34335000000000004,9.91791
1989898970,22.16,0.0,0.0,0.0,0.08829,0.33354000000000006,9.87867
1994949475,22.16,0.0,0.0,0.0,0.07848000000000001,0.33354000000000006,9.888480000000001
1999999980,22.16,0.0,0.0,0.0,0.06867000000000001,0.32373,9.87867
2005050485,22.16,0.0,0.0,0.0,0.0981,0.34335000000000004,9.888480000000001
2010100990,22.16,0.0,0.0,0.0,0.05886,0.31392000000000003,9.888480000000001
2015151495,22.16,0.0,0.0,0.0,0.04905,0.33354000000000006,9.89829
2020202000,22.16,0.0,0.0,0.0,0.07848000000000001,0.31392000000000003,9.908100000000001
2025252505,22.16,0.0,0.0,0.0,0.05886,0.32373,9.86886
2030303010,22.16,0.0,0.0,0.0,0.05886,0.34335000000000004,9.87867
2035353515,22.16,0.0,0.0,0.0,0.04905,0.33354000000000006,9.89829
2040404020,22.16,0.0,0.0,0.0,0.04905,0.34335000000000004,9.888480000000001
2045454525,22.16,0.0,0.0,0.0,0.07848000000000001,0.34335000000000004,9.89829
2050505030,22.16,0.0,0.0,0.0,0.07848000000000001,0.32373,9.89829
2055555535,22.16,0.0,0.0,0.0,0.06867000000000001,0.32373,9.89829
2060606040,22.16,0.0,0.0,0.0,0.06867000000000001,0.31392000000000003,9.937529999999999
2065656545,22.16,0.0,0.0,0.0,0.06867000000000001,0.35316,9.89829
2070707050,22.16,0.0,0.0,0.0,0.04905,0.33354000000000006,9.888480000000001
2075757555,22.16,0.0,0.0,0.0,0.07848000000000001,0.34335000000000004,9.888480000000001
2080808060,22.16,0.0,0.0,0.0,0.06867000000000001,0.33354000000000006,9.86886
2085858565,22.16,0.0,0.0,0.0,0.08829,0.31392000000000003,9.86886
2090909070,22.16,0.0,0.0,0.0,0.04905,0.31392000000000003,9.86886
2095959575,22.16,0.0,0.0,0.0,0.07848000000000001,0.32373,9.87867
2101010080,22.16,0.0,0.0,0.0,0.08829,0.30411,9.888480000000001
2106060585,22.16,0.0,0.0,0.0,0.04905,0.31392000000000003,9.888480000000001
2111111090,22.16,0.0,0.0,0.0,0.04905,0.33354000000000006,9.888480000000001
2116161595,22.16,0.0,0.0,0.0,0.05886,0.34335000000000004,9.86886
2121212100,22.16,0.0,0.0,0.0,0.07848000000000001,0.38259000000000004,9.83943
2126262605,22.16,0.0,0.0,0.0,0.06867000000000001,0.33354000000000006,9.87867
2131313110,22.16,0.0,0.0,0.0,0.06867000000000001,0.35316,9.87867
2136363615,22.16,0.0,0.0,0.0,0.06867000000000001,0.34335000000000004,9.888480000000001
2141414120,22.16,0.0,0.0,0.0,0.07848000000000001,0.33354000000000006,9.89829
2146464625,22.16,0.0,0.0,0.0,0.04905,0.35316,9.908100000000001
2151515130,22.16,0.0,0.0,0.0,0.05886,0.34335000000000004,9.87867
2156565635,22.16,0.0,0.0,0.0,0.05886,0.33354000000000006,9.908100000000001
2161616140,22.16,0.0,0.0,0.0,0.04905,0.34335000000000004,9.87867
2166666645,22.16,0.0,0.0,0.0,0.07848000000000001,0.33354000000000006,9.87867
2171717150,22.16,0.0,0.0,0.0,0.05886,0.34335000000000004,9.85905
2176767655,22.16,0.0,0.0,0.0,0.05886,0.32373,9.908100000000001
2181818160,22.16,0.0,0.0,0.0,0.07848000000000001,0.33354000000000006,9.91791
2186868665,22.16,0.0,0.0,0.0,0.06867000000000001,0.32373,9.888480000000001
2191919170,22.16,0.0,0.0,0.0,0.08829,0.32373,9.89829
2196969675,22.16,0.0,0.0,0.0,0.05886,0.32373,9.888480000000001
2202020180,22.16,0.0,0.0,0.0,0.07848000000000001,0.33354000000000006,9.84924
2207070685,22.16,0.0,0.0,0.0,0.06867000000000001,0.34335000000000004,9.85905
2212121190,22.16,0.0,0.0,0.0,0.06867000000000001,0.34335000000000004,9.86886
2217171695,22.16,0.0,0.0,0.0,0.04905,0.33354000000000006,9.89829
2222222200,22.16,0.0,0.0,0.0,0.0981,0.32373,9.89829
2227272705,22.16,0.0,0.0,0.0,0.07848000000000001,0.31392000000000003,9.86886
2232323210,22.16,0.0,0.0,0.0,0.06867000000000001,0.33354000000000006,9.908100000000001
2237373715,22.16,0.0,0.0,0.0,0.04905,0.34335000000000004,9.888480000000001
2242424220,22.16,0.0,0.0,0.0,0.04905,0.35316,9.87867
2247474725,22.16,0.0,0.0,0.0,0.05886,0.32373,9.908100000000001
2252525230,22.16,0.0,0.0,0.0,0.05886,0.33354000000000006,9.888480000000001
2257575735,22.16,0.0,0.0,0.0,0.07848000000000001,0.32373,9.89829
2262626240,22.16,0.0,0.0,0.0,0.06867000000000001,0.32373,9.888480000000001
2267676745,22.16,0.0,0.0,0.0,0.04905,0.33354000000000006,9.86886
2272727250,22.16,0.0,0.0,0.0,0.08829,0.32373,9.89829
2277777755,22.16,0.0,0.0,0.0,0.05886,0.36297,9.85905
2282828260,22.16,0.0,0.0,0.0,0.05886,0.32373,9.83943
2287878765,22.16,0.0,0.0,0.0,0.06867000000000001,0.35316,9.89829
2292929270,22.16,0.0,0.0,0.0,0.08829,0.35316,9.86886
2297979775,22.16,0.0,0.0,0.0,0.06867000000000001,0.33354000000000006,9.888480000000001
2303030280,22.16,0.0,0.0,0.0,0.07848000000000001,0.32373,9.87867
2308080785,22.16,0.0,0.0,0.0,0.05886,0.32373,9.86886
2313131290,22.16,0.0,0.0,0.0,0.0981,0.32373,9.89829
2318181795,22.16,0.0,0.0,0.0,0.07848000000000001,0.34335000000000004,9.89829
2323232300,22.16,0.0,0.0,0.0,0.08829,0.35316,9.83943
2328282805,22.16,0.0,0.0,0.0,0.0981,0.35316,9.87867
2333333310,22.16,0.0,0.0,0.0,0.05886,0.33354000000000006,9.888480000000001
2338383815,22.16,0.0,0.0,0.0,0.07848000000000001,0.33354000000000006,9.888480000000001
2343434320,22.16,0.0,0.0,0.0,0.06867000000000001,0.34335000000000004,9.888480000000001
2348484825,22.16,0.0,0.0,0.0,0.08829,0.33354000000000006,9.87867
2353535330,22.16,0.0,0.0,0.0,0.05886,0.32373,9.89829
2358585835,22.16,0.0,0.0,0.0,0.06867000000000001,0.32373,9.888480000000001
2363636340,22.16,0.0,0.0,0.0,0.08829,0.34335000000000004,9.87867
2368686845,22.16,0.0,0.0,0.0,0.05886,0.34335000000000004,9.86886
2373737350,22.16,0.0,0.0,0.0,0.05886,0.33354000000000006,9.86886
2378787855,22.16,0.0,0.0,0.0,0.02943,0.32373,9.89829
2383838360,22.16,0.0,0.0,0.0,0.05886,0.32373,9.89829
2388888865,22.16,0.0,0.0,0.0,0.04905,0.36297,9.87867
2393939370,22.16,0.0,0.0,0.0,0.07848000000000001,0.31392000000000003,9.87867
2398989875,22.16,0.0,0.0,0.0,0.10791,0.31392000000000003,9.89829
2404040380,22.16,0.0,0.0,0.0,0.04905,0.34335000000000004,9.86886
2409090885,22.16,0.0,0.0,0.0,0.06867000000000001,0.32373,9.87867
2414141390,22.16,0.0,0.0,0.0,0.05886,0.33354000000000006,9.86886
2419191895,22.16,0.0,0.0,0.0,0.05886,0.30411,9.888480000000001
2424242400,22.16,0.0,0.0,0.0,0.06867000000000001,0.33354000000000006,9.91791
2429292905,22.16,0.0,0.0,0.0,0.039240000000000004,0.31392000000000003,9.888480000000001
2434343410,22.16,0.0,0.0,0.0,0.06867000000000001,0.33354000000000006,9.86886
2439393915,22.16,0.0,0.0,0.0,0.06867000000000001,0.34335000000000004,9.89829
2444444420,22.16,0.0,0.0,0.0,0.05886,0.35316,9.87867
2449494925,22.16,0.0,0.0,0.0,0.07848000000000001,0.31392000000000003,9.86886
2454545430,22.16,0.0,0.0,0.0,0.06867000000000001,0.34335000000000004,9.908100000000001
2459595935,22.16,0.0,0.0,0.0,0.07848000000000001,0.33354000000000006,9.89829
2464646440,22.16,0.0,0.0,0.0,0.05886,0.32373,9.85905
2469696945,22.16,0.0,0.0,0.0,0.04905,0.32373,9.94734
2474747450,22.16,0.0,0.0,0.0,0.06867000000000001,0.33354000000000006,9.89829
2479797955,22.16,0.0,0.0,0.0,0.08829,0.34335000000000004,9.85905
2484848460,22.16,0.0,0.0,0.0,0.05886,0.33354000000000006,9.89829
2489898965,22.16,0.0,0.0,0.0,0.07848000000000001,0.32373,9.89829
2494949470,22.16,0.0,0.0,0.0,0.05886,0.2943,9.85905
2499999975,22.16,0.0,0.0,0.0,0.07848000000000001,0.32373,9.86886
2505050480,22.16,0.0,0.0,0.0,0.05886,0.32373,9.888480000000001
2510100985,22.16,0.0,0.0,0.0,0.04905,0.34335000000000004,9.87867
2515151490,22.16,0.0,0.0,0.0,0.039240000000000004,0.33354000000000006,9.908100000000001
2520201995,22.16,0.0,0.0,0.0,0.07848000000000001,0.30411,9.87867
2525252500,22.16,0.0,0.0,0.0,0.06867000000000001,0.34335000000000004,9.91791
2530303005,22.16,0.0,0.0,0.0,0.06867000000000001,0.31392000000000003,9.86886
2535353510,22.16,0.0,0.0,0.0,0.07848000000000001,0.35316,9.85905
2540404015,22.16,0.0,0.0,0.0,0.05886,0.35316,9.87867
2545454520,22.16,0.0,0.0,0.0,0.04905,0.32373,9.91791
2550505025,22.16,0.0,0.0,0.0,0.06867000000000001,0.33354000000000006,9.91791
2555555530,22.16,0.0,0.0,0.0,0.04905,0.32373,9.888480000000001
2560606035,22.16,0.0,0.0,0.0,0.039240000000000004,0.33354000000000006,9.91791
2565656540,22.16,0.0,0.0,0.0,0.07848000000000001,0.34335000000000004,9.85905
2570707045,22.16,0.0,0.0,0.0,0.04905,0.33354000000000006,9.87867
2575757550,22.16,0.0,0.0,0.0,0.06867000000000001,0.34335000000000004,9.85905
2580808055,22.16,0.0,0.0,0.0,0.06867000000000001,0.35316,9.87867
2585858560,22.16,0.0,0.0,0.0,0.06867000000000001,0.35316,9.91791
2590909065,22.16,0.0,0.0,0.0,0.08829,0.30411,9.908100000000001
2595959570,22.16,0.0,0.0,0.0,0.05886,0.33354000000000006,9.87867
2601010075,22.16,0.0,0.0,0.0,0.06867000000000001,0.33354000000000006,9.908100000000001
2606060580,22.16,0.0,0.0,0.0,0.07848000000000001,0.34335000000000004,9.86886
2611111085,22.16,0.0,0.0,0.0,0.07848000000000001,0.33354000000000006,9.87867
2616161590,22.16,0.0,0.0,0.0,0.06867000000000001,0.33354000000000006,9.86886
2621212095,22.16,0.0,0.0,0.0,0.08829,0.33354000000000006,9.89829
2626262600,22.16,0.0,0.0,0.0,0.07848000000000001,0.33354000000000006,9.89829
2631313105,22.16,0.0,0.0,0.0,0.06867000000000001,0.2943,9.908100000000001
2636363610,22.16,0.0,0.0,0.0,0.0981,0.34335000000000004,9.888480000000001
2641414115,22.16,0.0,0.0,0.0,0.07848000000000001,0.32373,9.89829
2646464620,22.16,0.0,0.0,0.0,0.039240000000000004,0.35316,9.91791
2651515125,22.16,0.0,0.0,0.0,0.04905,0.36297,9.84924
2656565630,22.16,0.0,0.0,0.0,0.05886,0.34335000000000004,9.85905
2661616135,22.16,0.0,0.0,0.0,0.06867000000000001,0.34335000000000004,9.89829
2666666640,22.16,0.0,0.0,0.0,0.08829,0.31392000000000003,9.87867
2671717145,22.16,0.0,0.0,0.0,0.08829,0.27468000000000004,9.937529999999999
2676767650,22.16,0.007452555906015787,0.02769837522915001,0.0,0.16677000000000003,0.41202000000000005,9.95715
2681818155,22.16,0.0,0.11611675513518273,0.0,0.5886,0.07848000000000001,9.78057
2686868660,22.16,-0.033021629447732716,0.3291690969261305,-0.00958185759344887,-0.41202000000000005,0.039240000000000004,9.85905
2691919165,22.16,0.01811651763570114,0.07136651311404815,0.0,-1.1183400000000001,0.13734000000000002,9.83943
2696969670,22.16,0.02663372438543347,0.150203035426632,-0.002129301687433082,-0.32373,0.33354000000000006,10.045440000000001
2702020175,22.16,0.06710790973918197,0.04153883619746504,0.002129301687433082,-1.8933300000000002,0.60822,9.6138
2707070680,22.16,0.05539675045830002,-0.22476350107182977,0.008517206749732328,-0.6180300000000001,0.43164,9.96696
2712121185,22.16,0.00958185759344887,-0.20347048419749894,0.001064650843716541,-0.9319500000000001,0.7749900000000001,9.5157
2717171690,22.16,0.039409534510031964,-0.4399625978427305,0.01064650843716541,0.40221,0.7749900000000001,10.12392
2722222195,22.16,-0.033021629447732716,-0.23329816111408203,0.004258603374866164,0.27468000000000004,0.89271,10.24164
2727272700,22.16,-0.02663372438543347,-0.5049412058944796,0.008517206749732328,0.84366,0.90252,10.13373
2732323205,22.16,-0.09800023749948161,-0.21092304010351473,0.007452555906015787,2.11896,0.70632,10.22202
2737373710,22.16,-0.11292280260403312,-0.12995721610349775,0.001064650843716541,1.5696,0.42183,9.80019
2742424215,22.16,-0.15872024217636432,0.11292280260403312,0.002129301687433082,2.30535,-0.18639,9.70209
2747474720,22.16,-0.1416858286768997,0.2535265271446963,-0.005323254218582705,0.49050000000000005,-0.25506,9.908100000000001
2752525225,22.16,-0.09267698328089889,0.1800307123432151,-0.002129301687433082,1.34397,-0.84366,9.66285
2757575730,22.16,-0.07883652231258387,0.45806166218591177,-0.006387905062299246,-0.21582,-0.89271,9.57456
2762626235,22.16,0.07243116395776468,0.02982767691658309,-0.004258603374866164,-0.6670800000000001,-0.51012,9.73152
2767676740,22.16,0.13208651779093086,0.14594443205176583,0.0,0.22563,-0.08829,9.79038
2772727245,22.16,0.1800307123432151,0.06497860805174888,-0.005323254218582705,-0.75537,0.31392000000000003,9.36855
2777777750,22.16,0.18961256993666398,-0.04153883619746504,0.0,0.28449,0.74556,9.58437
2782828255,22.16,0.19387117331153014,0.12144000935376545,-0.008517206749732328,0.039240000000000004,1.24587,9.80019
2787878760,22.16,0.13955652698946658,0.05646140130201656,-0.005323254218582705,0.21582,2.13858,9.6138
2792929265,22.16,0.12250466019748199,0.29188886410353165,-0.001064650843716541,-0.8142300000000001,2.2366800000000002,11.17359
2797979770,22.16,-0.11611675513518273,0.04794419455228423,-0.002129301687433082,-1.39302,0.47088,9.770760000000001
2803030275,22.16,-0.3206518901763982,0.02556907354171693,0.004258603374866164,-0.6867000000000001,-0.46107000000000004,10.01601
2808080780,22.16,-0.11505210429146619,-0.0852244273748831,0.003193952531149623,-1.02024,-0.019620000000000002,10.31031
2813131285,22.16,-0.04581489286485115,-0.20134118251006583,0.005323254218582705,-0.6670800000000001,-0.17658,9.888480000000001
2818181790,22.16,-0.10332349171806432,-0.2950828166346813,0.005323254218582705,-0.36297,-0.26487,10.025820000000001
2823232295,22.16,-0.02663372438543347,-0.30253537254069707,0.005323254218582705,0.5886,0.019620000000000002,9.96696
2828282800,22.16,0.022375121010567305,-0.14700908289548237,0.002129301687433082,0.63765,0.24525000000000002,9.78057
2833333305,22.16,0.0,-0.13955652698946658,0.002129301687433082,0.95157,0.11772,9.72171
2838383810,22.16,0.01064650843716541,0.03515093113516579,0.003193952531149623,0.9908100000000001,0.27468000000000004,9.65304
2843434315,22.16,0.05326744877086694,0.05220279792715039,-0.003193952531149623,0.6670800000000001,0.2943,9.751140000000001
2848484820,22.16,0.0,0.150203035426632,0.0,0.8142300000000001,0.05886,9.68247
2853535325,22.16,0.021310470166850764,0.19600047499896323,-0.008517206749732328,0.039240000000000004,0.1962,9.86886
2858585830,22.16,0.04581489286485115,0.10866419922916695,-0.005323254218582705,0.0981,0.12753,9.94734
2863636335,22.16,0.03621558197888234,0.19921188082263275,-0.002129301687433082,0.07848000000000001,0.10791,10.045440000000001
2868686840,22.16,0.06497860805174888,0.1288925652597812,-0.006387905062299246,-0.52974,0.30411,10.006200000000002
2873737345,22.16,0.08203047484373349,0.11185815176031658,0.001064650843716541,-0.17658,0.48069000000000006,10.03563
2878787850,22.16,0.08628907821859966,0.09267698328089889,-0.002129301687433082,-0.9319500000000001,1.04967,9.89829
2883838355,22.16,0.09267698328089889,-0.07349581480148122,0.005323254218582705,-0.69651,0.9613800000000001,10.074869999999999
2888888860,22.16,-0.011711159280881954,-0.10653489754173388,0.0,-0.49050000000000005,0.7749900000000001,9.65304
2893939365,22.16,-0.03621558197888234,-0.23649211364523165,0.001064650843716541,-0.15696000000000002,0.8240400000000001,9.89829
2898989870,22.16,-0.03621558197888234,-0.19067722078038052,0.006387905062299246,0.43164,0.8142300000000001,9.89829
2904040375,22.16,-0.10332349171806432,-0.19387117331153014,0.001064650843716541,0.48069000000000006,0.43164,9.81
2909090880,22.16,-0.1288925652597812,-0.12356931104119852,0.004258603374866164,0.89271,0.25506,9.888480000000001
2914141385,22.16,-0.08309512568745003,-0.03621558197888234,0.0,0.79461,0.15696000000000002,9.92772
2919191890,22.16,-0.11079350091660004,0.02769837522915001,0.004258603374866164,0.80442,-0.26487,9.78057
2924242395,22.16,-0.08948303074974927,0.10866419922916695,0.001064650843716541,0.40221,-0.33354000000000006,9.908100000000001
2929292900,22.16,-0.031956978604016174,0.0756251164889143,-0.001064650843716541,0.039240000000000004,-0.40221,9.74133
2934343405,22.16,0.005323254218582705,0.054332099614583476,-0.001064650843716541,0.1962,-0.23544,9.65304
2939393910,22.16,0.06604325889546543,0.08096582400001695,-0.003193952531149623,0.24525000000000002,-0.16677000000000003,9.72171
2944444415,22.16,0.07349581480148122,0.16191419470751395,-0.005323254218582705,-0.039240000000000004,0.06867000000000001,9.760950000000001
2949494920,22.16,0.13634512116579703,0.06923721142661506,-0.003193952531149623,-0.18639,0.34335000000000004,9.64323
2954545425,22.16,0.1278279144160647,0.177901410655782,0.0,0.019620000000000002,0.51012,9.908100000000001
2959595930,22.16,0.13634512116579703,0.10653489754173388,-0.001064650843716541,-0.6670800000000001,1.2753,9.85905
2964646435,22.16,0.14594443205176583,0.07456046564519776,0.001064650843716541,-0.85347,1.6284600000000002,10.791000000000002
2969696940,22.16,0.013840460968315033,-0.09800023749948161,-0.001064650843716541,-1.00062,0.85347,9.72171
2974747445,22.16,-0.13634512116579703,-0.16404349639494703,0.004258603374866164,0.1962,0.28449,10.17297
2979797950,22.16,-0.06923721142661506,-0.05113814708343386,0.0,-0.30411,0.70632,10.36917
2984848455,22.16,-0.02663372438543347,-0.22476350107182977,0.004258603374866164,0.1962,0.36297,9.85905
2989898960,22.16,-0.15446163880149816,-0.05539675045830002,0.004258603374866164,0.37278,0.019620000000000002,10.09449
2994949465,22.16,-0.05646140130201656,-0.14062117783318315,0.001064650843716541,0.26487,0.24525000000000002,10.006200000000002
2999999970,22.16,-0.04794419455228423,-0.020245819323134222,0.004258603374866164,0.64746,0.05886,9.623610000000001
3005050475,22.16,-0.07349581480148122,-0.06710790973918197,-0.001064650843716541,0.039240000000000004,0.0,9.81
3010100980,22.16,-0.02982767691658309,-0.05113814708343386,0.004258603374866164,0.85347,-0.04905,9.60399
3015151485,22.16,-0.01918116847941768,0.05113814708343386,-0.002129301687433082,0.04905,-0.05886,9.57456
3020201990,22.16,0.007452555906015787,-0.08948303074974927,0.0,0.59841,-0.10791,9.7119
3025252495,22.16,0.03089232776029963,0.10332349171806432,-0.001064650843716541,0.64746,0.12753,9.70209
3030303000,22.16,0.08096582400001695,0.07136651311404815,-0.002129301687433082,0.21582,0.20601000000000003,9.751140000000001
3035353505,22.16,0.05752605214573309,0.1288925652597812,0.0,0.42183,0.23544,9.760950000000001
3040404010,22.16,0.08203047484373349,0.1352804703220805,-0.004258603374866164,-0.06867000000000001,0.46107000000000004,9.94734
3045454515,22.16,0.0756251164889143,0.10866419922916695,-0.001064650843716541,0.10791,0.41202000000000005,9.89829
3050505020,22.16,0.054332099614583476,0.13421581947836395,-0.004258603374866164,-0.31392000000000003,0.5591700000000001,10.03563
3055555525,22.16,0.054332099614583476,0.060720004676882725,-0.003193952531149623,-0.14715,0.74556,10.09449
3060606030,22.16,0.04581489286485115,0.11505210429146619,-0.002129301687433082,-0.47088,0.9711900000000001,10.26126
3065656535,22.16,0.01918116847941768,0.020245819323134222,0.001064650843716541,-0.7749900000000001,0.59841,10.045440000000001
3070707040,22.16,-0.07883652231258387,-0.05326744877086694,0.001064650843716541,-0.43164,0.36297,9.87867
3075757545,22.16,-0.022375121010567305,-0.07883652231258387,0.003193952531149623,-0.21582,0.56898,9.99639
3080808050,22.16,-0.03515093113516579,-0.07136651311404815,0.003193952531149623,-0.24525000000000002,0.31392000000000003,9.760950000000001
3085858555,22.16,-0.07990117315630041,-0.1331511686346474,0.002129301687433082,-0.1962,0.18639,9.95715
3090909060,22.16,-0.04260348704118158,-0.13102186694721432,0.005323254218582705,0.15696000000000002,0.26487,9.92772
3095959565,22.16,-0.03515093113516579,-0.1278279144160647,0.003193952531149623,0.15696000000000002,0.24525000000000002,9.888480000000001
3101010070,22.16,-0.054332099614583476,-0.11292280260403312,0.004258603374866164,0.57879,0.06867000000000001,9.85905
3106060575,22.16,-0.0404741853537485,-0.02556907354171693,0.002129301687433082,0.42183,0.13734000000000002,9.85905
3111111080,22.16,0.0,-0.028763026072866547,0.003193952531149623,0.51993,0.10791,9.80019
3116161585,22.16,-0.008517206749732328,0.04153883619746504,-0.001064650843716541,0.43164,0.13734000000000002,9.70209
3121212090,22.16,0.023439771854283843,0.0170518667919846,0.0,0.32373,0.21582,9.760950000000001
3126262595,22.16,0.01811651763570114,0.05326744877086694,-0.001064650843716541,0.30411,0.15696000000000002,9.81
3131313100,22.16,0.02556907354171693,0.03834488366631542,-0.001064650843716541,0.21582,0.25506,9.82962
3136363605,22.16,0.04366813788489812,0.06710790973918197,0.0,0.21582,0.35316,9.87867
3141414110,22.16,0.049008845396000776,0.05859070298944965,-0.002129301687433082,0.08829,0.42183,9.86886
3146464615,22.16,0.0404741853537485,0.06178465552059926,0.0,0.18639,0.44145,9.87867
3151515120,22.16,0.03515093113516579,0.07777187146886733,-0.001064650843716541,-0.10791,0.5493600000000001,9.92772
3156565625,22.16,0.03408628029144926,0.028763026072866547,-0.002129301687433082,0.0,0.5493600000000001,9.908100000000001
3161616130,22.16,0.006387905062299246,0.06284930636431581,0.0,-0.05886,0.49050000000000005,9.92772
3166666635,22.16,-0.006387905062299246,0.02982767691658309,0.0,-0.13734000000000002,0.40221,10.01601
3171717140,22.16,-0.023439771854283843,0.05007349623971732,0.0,-0.16677000000000003,0.32373,9.98658
3176767645,22.16,-0.012775810124598492,0.006387905062299246,0.0,-0.34335000000000004,0.33354000000000006,9.98658
3181818150,22.16,-0.004258603374866164,-0.0170518667919846,0.002129301687433082,-0.15696000000000002,0.34335000000000004,9.94734
3186868655,22.16,-0.011711159280881954,-0.00958185759344887,0.0,-0.26487,0.37278,9.92772
3191919160,22.16,-0.013840460968315033,-0.05646140130201656,0.001064650843716541,-0.16677000000000003,0.33354000000000006,9.84924
3196969665,22.16,-0.015987215948268057,-0.05007349623971732,0.0,-0.07848000000000001,0.34335000000000004,9.82962
3202020170,22.16,-0.013840460968315033,-0.07456046564519776,0.003193952531149623,-0.05886,0.27468000000000004,9.84924
3207070675,22.16,-0.01918116847941768,-0.07349581480148122,0.0,0.10791,0.30411,9.85905
3212121180,22.16,-0.01064650843716541,-0.06604325889546543,0.002129301687433082,0.18639,0.28449,9.89829
3217171685,22.16,-0.014905111812031574,-0.05113814708343386,0.003193952531149623,0.21582,0.26487,9.85905
3222222190,22.16,-0.006387905062299246,-0.05220279792715039,0.002129301687433082,0.27468000000000004,0.28449,9.89829
3227272695,22.16,-0.003193952531149623,-0.044732788728614664,0.002129301687433082,0.32373,0.34335000000000004,9.888480000000001
3232323200,22.16,-0.002129301687433082,-0.04581489286485115,0.0,0.43164,0.35316,9.84924
3237373705,22.16,-0.01064650843716541,-0.004258603374866164,0.001064650843716541,0.50031,0.2943,9.819809999999999
3242424210,22.16,-0.012775810124598492,0.03089232776029963,0.0,0.41202000000000005,0.25506,9.79038
3247474715,22.16,-0.011711159280881954,0.05326744877086694,0.0,0.43164,0.1962,9.81
3252525220,22.16,-0.006387905062299246,0.10012953918691468,0.0,0.20601000000000003,0.11772,9.84924
3257575725,22.16,0.00958185759344887,0.09267698328089889,-0.001064650843716541,0.019620000000000002,0.14715,9.87867
3262626230,22.16,0.02556907354171693,0.08628907821859966,-0.003193952531149623,-0.05886,0.20601000000000003,9.84924
3267676735,22.16,0.04260348704118158,0.060720004676882725,0.0,-0.22563,0.33354000000000006,9.87867
3272727240,22.16,0.04260348704118158,0.02982767691658309,0.0,-0.20601000000000003,0.3924,9.86886
3277777745,22.16,0.03408628029144926,0.006387905062299246,0.001064650843716541,-0.20601000000000003,0.48069000000000006,9.85905
3282828250,22.16,0.031956978604016174,-0.0170518667919846,0.0,-0.08829,0.5395500000000001,9.937529999999999
3287878755,22.16,0.022375121010567305,-0.015987215948268057,0.0,-0.019620000000000002,0.57879,9.908100000000001
3292929260,22.16,0.008517206749732328,-0.014905111812031574,0.0,0.0,0.5591700000000001,9.95715
3297979765,22.16,-0.006387905062299246,-0.014905111812031574,0.0,-0.009810000000000001,0.51993,9.97677
3303030270,22.16,-0.020245819323134222,-0.028763026072866547,0.001064650843716541,0.0,0.44145,9.99639
3308080775,22.16,-0.03728023282259888,-0.04153883619746504,0.0,-0.039240000000000004,0.40221,9.98658
3313131280,22.16,-0.03728023282259888,-0.0756251164889143,0.001064650843716541,0.06867000000000001,0.33354000000000006,9.92772
3318181785,22.16,-0.03834488366631542,-0.05646140130201656,0.001064650843716541,0.27468000000000004,0.26487,9.908100000000001
3323232290,22.16,-0.046879543708567686,-0.023439771854283843,0.002129301687433082,0.25506,0.18639,9.82962
3328282795,22.16,-0.039409534510031964,0.004258603374866164,0.001064650843716541,0.31392000000000003,0.07848000000000001,9.79038
3333333300,22.16,-0.022375121010567305,0.04366813788489812,0.0,0.13734000000000002,0.04905,9.81
3338383805,22.16,-0.004258603374866164,0.03834488366631542,0.0,0.0981,0.05886,9.819809999999999
3343434310,22.16,0.01064650843716541,0.05007349623971732,0.0,0.0,0.07848000000000001,9.80019
3348484815,22.16,0.02982767691658309,0.03408628029144926,0.0,-0.10791,0.16677000000000003,9.82962
3353535320,22.16,0.04366813788489812,0.007452555906015787,0.0,-0.10791,0.28449,9.82962
3358585825,22.16,0.05539675045830002,-0.0170518667919846,-0.001064650843716541,-0.07848000000000001,0.49050000000000005,9.888480000000001
3363636330,22.16,0.054332099614583476,-0.0404741853537485,0.001064650843716541,0.039240000000000004,0.59841,9.85905
3368686835,22.16,0.03728023282259888,-0.039409534510031964,0.002129301687433082,0.15696000000000002,0.6670800000000001,9.888480000000001
3373737340,22.16,0.01811651763570114,-0.01918116847941768,0.001064650843716541,0.25506,0.64746,9.95715
3378787845,22.16,-0.004258603374866164,-0.005323254218582705,0.002129301687433082,0.17658,0.56898,9.97677
3383838350,22.16,-0.022375121010567305,-0.006387905062299246,0.001064650843716541,0.21582,0.52974,10.03563
3388888855,22.16,-0.03728023282259888,0.001064650843716541,0.0,0.1962,0.42183,9.94734
3393939360,22.16,-0.04153883619746504,-0.001064650843716541,0.0,0.15696000000000002,0.28449,9.95715
3398989865,22.16,-0.05113814708343386,0.013840460968315033,-0.001064650843716541,0.17658,0.16677000000000003,9.89829
3404040370,22.16,-0.04260348704118158,0.028763026072866547,0.0,0.06867000000000001,0.10791,9.86886
3409090875,22.16,-0.02769837522915001,0.033021629447732716,0.0,0.05886,0.039240000000000004,9.81
3414141380,22.16,-0.008517206749732328,0.05113814708343386,-0.001064650843716541,-0.02943,0.039240000000000004,9.80019
3419191885,22.16,0.011711159280881954,0.05326744877086694,0.0,-0.08829,0.10791,9.751140000000001
3424242390,22.16,0.02663372438543347,0.05326744877086694,-0.001064650843716541,-0.18639,0.15696000000000002,9.78057
3429292895,22.16,0.04153883619746504,0.039409534510031964,0.0,-0.25506,0.21582,9.82962
3434343400,22.16,0.05326744877086694,0.007452555906015787,0.0,-0.30411,0.3924,9.85905
3439393905,22.16,0.06178465552059926,-0.02769837522915001,0.0,-0.18639,0.5395500000000001,9.89829
3444444410,22.16,0.05646140130201656,-0.039409534510031964,0.0,-0.11772,0.6278400000000001,9.92772
3449494915,22.16,0.03089232776029963,-0.05752605214573309,0.0,0.039240000000000004,0.6768900000000001,9.937529999999999
3454545420,22.16,0.006387905062299246,-0.044732788728614664,0.0,0.08829,0.6867000000000001,9.99639
3459595925,22.16,-0.014905111812031574,-0.06923721142661506,0.001064650843716541,0.0981,0.6278400000000001,9.99639
3464646430,22.16,-0.03408628029144926,-0.07243116395776468,0.002129301687433082,0.23544,0.5886,10.006200000000002
3469696935,22.16,-0.04794419455228423,-0.07136651311404815,0.0,0.30411,0.47088,9.96696
3474747440,22.16,-0.06604325889546543,-0.05859070298944965,0.003193952531149623,0.44145,0.28449,9.94734
3479797945,22.16,-0.07670722062515077,-0.021310470166850764,0.0,0.41202000000000005,0.11772,9.91791
3484848450,22.16,-0.06710790973918197,-0.005323254218582705,0.0,0.37278,0.009810000000000001,9.81
3489898955,22.16,-0.04581489286485115,0.015987215948268057,0.0,0.34335000000000004,-0.04905,9.78057
3494949460,22.16,-0.015987215948268057,0.033021629447732716,-0.002129301687433082,0.27468000000000004,-0.07848000000000001,9.770760000000001
3499999965,22.16,0.002129301687433082,0.06923721142661506,-0.001064650843716541,0.23544,-0.07848000000000001,9.72171
3505050470,22.16,0.03089232776029963,0.0852244273748831,-0.002129301687433082,0.04905,0.019620000000000002,9.72171
3510100975,22.16,0.05539675045830002,0.08096582400001695,-0.001064650843716541,-0.02943,0.11772,9.78057
3515151480,22.16,0.06923721142661506,0.06923721142661506,-0.004258603374866164,-0.12753,0.27468000000000004,9.819809999999999
3520201985,22.16,0.07777187146886733,0.06178465552059926,0.0,-0.12753,0.41202000000000005,9.86886
3525252490,22.16,0.07670722062515077,0.05539675045830002,-0.001064650843716541,-0.17658,0.56898,9.91791
3530302995,22.16,0.07030186227033158,0.031956978604016174,0.0,-0.21582,0.6867000000000001,9.98658
3535353500,22.16,0.05007349623971732,0.01064650843716541,0.001064650843716541,-0.24525000000000002,0.80442,10.01601
3540404005,22.16,0.03728023282259888,-0.03408628029144926,0.0,-0.30411,0.86328,10.12392
3545454510,22.16,-0.011711159280881954,-0.07456046564519776,0.001064650843716541,-0.019620000000000002,0.72594,9.92772
3550505015,22.16,-0.04581489286485115,-0.06817256058289851,0.001064650843716541,0.06867000000000001,0.64746,10.06506
3555555520,22.16,-0.06178465552059926,-0.07349581480148122,0.003193952531149623,0.16677000000000003,0.46107000000000004,10.025820000000001
3560606025,22.16,-0.09374163412461543,-0.05859070298944965,0.003193952531149623,0.14715,0.27468000000000004,9.94734
3565656530,22.16,-0.08841837990603273,-0.06284930636431581,0.001064650843716541,0.18639,0.15696000000000002,9.89829
3570707035,22.16,-0.07243116395776468,-0.05113814708343386,0.001064650843716541,0.30411,0.07848000000000001,9.83943
3575757540,22.16,-0.05859070298944965,-0.02556907354171693,0.001064650843716541,0.28449,-0.04905,9.770760000000001
3580808045,22.16,-0.044732788728614664,0.007452555906015787,0.0,0.31392000000000003,-0.11772,9.74133
3585858550,22.16,-0.01811651763570114,0.03621558197888234,-0.002129301687433082,0.1962,-0.15696000000000002,9.760950000000001
3590909055,22.16,0.00958185759344887,0.04153883619746504,-0.001064650843716541,0.10791,-0.06867000000000001,9.74133
3595959560,22.16,0.04366813788489812,0.054332099614583476,0.0,0.05886,0.04905,9.760950000000001
3601010065,22.16,0.07243116395776468,0.060720004676882725,0.0,0.039240000000000004,0.20601000000000003,9.79038
3606060570,22.16,0.08096582400001695,0.05859070298944965,0.0,-0.039240000000000004,0.37278,9.78057
3611111075,22.16,0.08841837990603273,0.04366813788489812,0.0,-0.08829,0.5395500000000001,9.888480000000001
3616161580,22.16,0.08203047484373349,0.02663372438543347,0.0,-0.13734000000000002,0.71613,9.96696
3621212085,22.16,0.06284930636431581,-0.01064650843716541,0.0,-0.06867000000000001,0.79461,10.025820000000001
3626262590,22.16,0.03089232776029963,-0.01811651763570114,0.0,0.039240000000000004,0.8142300000000001,10.06506
3631313095,22.16,-0.007452555906015787,-0.023439771854283843,0.0,0.019620000000000002,0.75537,10.05525
3636363600,22.16,-0.03728023282259888,-0.028763026072866547,0.0,0.11772,0.60822,10.045440000000001
3641414105,22.16,-0.05539675045830002,-0.02663372438543347,0.0,0.08829,0.51993,9.99639
3646464610,22.16,-0.06710790973918197,-0.031956978604016174,0.0,0.13734000000000002,0.35316,9.96696
3651515115,22.16,-0.07777187146886733,-0.013840460968315033,0.0,0.13734000000000002,0.20601000000000003,9.89829
3656565620,22.16,-0.0756251164889143,-0.01064650843716541,0.0,0.0981,0.009810000000000001,9.85905
3661616125,22.16,-0.06497860805174888,0.0,0.0,0.05886,-0.07848000000000001,9.81
3666666630,22.16,-0.03728023282259888,0.003193952531149623,0.0,0.05886,-0.11772,9.80019
3671717135,22.16,-0.007452555906015787,0.0170518667919846,0.0,0.02943,-0.08829,9.72171
3676767640,22.16,0.02769837522915001,0.015987215948268057,0.0,0.009810000000000001,0.02943,9.74133
3681818145,22.16,0.054332099614583476,0.03089232776029963,0.0,0.02943,0.16677000000000003,9.73152
3686868650,22.16,0.06817256058289851,0.03089232776029963,0.0,-0.08829,0.32373,9.770760000000001
3691919155,22.16,0.07030186227033158,0.013840460968315033,0.0,-0.07848000000000001,0.44145,9.84924
3696969660,22.16,0.06284930636431581,-0.014905111812031574,0.0,-0.12753,0.6180300000000001,9.92772
3702020165,22.16,0.054332099614583476,-0.05007349623971732,0.0,0.08829,0.71613,9.95715
3707070670,22.16,0.031956978604016174,-0.03728023282259888,0.0,0.12753,0.7651800000000001,10.006200000000002
3712121175,22.16,0.00958185759344887,-0.05113814708343386,0.0,0.23544,0.75537,10.025820000000001
3717171680,22.16,-0.023439771854283843,-0.03089232776029963,0.0,0.30411,0.6670800000000001,10.01601
3722222185,22.16,-0.04794419455228423,-0.03089232776029963,0.0,0.23544,0.5493600000000001,9.98658
3727272690,22.16,-0.06497860805174888,-0.033021629447732716,0.0,0.30411,0.40221,9.97677
3732323195,22.16,-0.07777187146886733,-0.01811651763570114,0.0,0.31392000000000003,0.21582,9.908100000000001
3737373700,22.16,-0.08096582400001695,-0.004258603374866164,0.0,0.34335000000000004,0.009810000000000001,9.86886
3742424205,22.16,-0.06817256058289851,0.024504422698000388,0.0,0.27468000000000004,-0.08829,9.82962
3747474710,22.16,-0.03515093113516579,0.04153883619746504,0.0,0.18639,-0.0981,9.79038
3752525215,22.16,-0.008517206749732328,0.060720004676882725,0.0,0.11772,-0.0981,9.751140000000001
3757575720,22.16,0.020245819323134222,0.08415977653116657,0.0,0.05886,-0.039240000000000004,9.73152
3762626225,22.16,0.04366813788489812,0.10866419922916695,0.0,-0.12753,0.02943,9.73152
3767676730,22.16,0.06923721142661506,0.08735372906231618,0.0,-0.30411,0.17658,9.770760000000001
3772727235,22.16,0.08841837990603273,0.06497860805174888,0.0,-0.31392000000000003,0.38259000000000004,9.81
3777777740,22.16,0.09587093581204853,0.02556907354171693,0.0,-0.36297,0.5591700000000001,9.888480000000001
3782828245,22.16,0.08203047484373349,0.0,0.0,-0.26487,0.8142300000000001,10.01601
3787878750,22.16,0.07030186227033158,-0.02663372438543347,0.0,-0.35316,0.9613800000000001,10.13373
3792929255,22.16,0.024504422698000388,-0.09161233243718235,0.0,-0.21582,0.79461,9.92772
3797979760,22.16,-0.03834488366631542,-0.10438814256178083,0.0,0.07848000000000001,0.7848,10.13373
3803030265,22.16,-0.031956978604016174,-0.10653489754173388,0.0,0.16677000000000003,0.79461,9.99639
3808080770,22.16,-0.07883652231258387,-0.09800023749948161,0.0,0.36297,0.47088,9.92772
3813131275,22.16,-0.11398745344774965,-0.06391395720803235,0.0,0.38259000000000004,0.25506,9.99639
3818181780,22.16,-0.09480628496833199,-0.046879543708567686,0.0,0.33354000000000006,0.12753,9.91791
3823232285,22.16,-0.08841837990603273,-0.02663372438543347,0.0,0.37278,-0.10791,9.86886
3828282790,22.16,-0.07883652231258387,-0.003193952531149623,0.0,0.34335000000000004,-0.1962,9.84924
3833333295,22.16,-0.03408628029144926,0.012775810124598492,0.0,0.30411,-0.1962,9.73152
3838383800,22.16,-0.004258603374866164,0.044732788728614664,0.0,0.30411,-0.1962,9.67266
3843434305,22.16,0.028763026072866547,0.08948303074974927,0.0,0.16677000000000003,-0.06867000000000001,9.67266
3848484810,22.16,0.06710790973918197,0.09800023749948161,0.0,0.02943,0.05886,9.69228
3853535315,22.16,0.08841837990603273,0.10332349171806432,0.0,-0.13734000000000002,0.22563,9.770760000000001
3858585820,22.16,0.10438814256178083,0.06710790973918197,0.0,-0.17658,0.44145,9.86886
3863636325,22.16,0.10438814256178083,0.05752605214573309,0.0,-0.16677000000000003,0.6180300000000001,9.96696
3868686830,22.16,0.08628907821859966,0.03515093113516579,0.0,-0.24525000000000002,0.8829,9.98658
3873737335,22.16,0.07030186227033158,0.002129301687433082,0.0,-0.25506,1.08891,10.1043
3878787840,22.16,0.03834488366631542,-0.044732788728614664,0.0,-0.31392000000000003,0.9123300000000001,10.08468
3883838345,22.16,-0.04581489286485115,-0.10225884087434776,0.0,0.02943,0.71613,10.01601
3888888850,22.16,-0.04366813788489812,-0.08309512568745003,0.0,0.14715,0.8142300000000001,10.01601
3893939355,22.16,-0.06817256058289851,-0.10012953918691468,0.0,0.23544,0.48069000000000006,9.95715
3898989860,22.16,-0.13102186694721432,-0.07349581480148122,0.0,0.32373,0.18639,9.97677
3904040365,22.16,-0.10119419003063122,-0.07349581480148122,0.0,0.2943,0.11772,9.937529999999999
3909090870,22.16,-0.08415977653116657,-0.05965535383316618,0.0,0.42183,-0.039240000000000004,9.85905
3914141375,22.16,-0.08309512568745003,-0.033021629447732716,0.0,0.3924,-0.18639,9.81
3919191880,22.16,-0.04153883619746504,-0.001064650843716541,0.0,0.45126,-0.16677000000000003,9.7119
3924242385,22.16,-0.002129301687433082,0.0404741853537485,0.0,0.42183,-0.16677000000000003,9.623610000000001
3929292890,22.16,0.0170518667919846,0.08628907821859966,0.0,0.33354000000000006,-0.18639,9.633420000000001
3934343395,22.16,0.05113814708343386,0.1171814059788993,0.0,0.10791,-0.009810000000000001,9.7119
3939393900,22.16,0.08203047484373349,0.1171814059788993,0.0,-0.019620000000000002,0.11772,9.73152
3944444405,22.16,0.09906488834319814,0.12356931104119852,0.0,-0.17658,0.30411,9.80019
3949494910,22.16,0.11931070766633237,0.09267698328089889,0.0,-0.2943,0.5493600000000001,9.92772
3954545415,22.16,0.11611675513518273,0.060720004676882725,0.0,-0.30411,0.9711900000000001,10.006200000000002
3959595920,22.16,0.10012953918691468,0.03621558197888234,0.0,-0.5493600000000001,1.31454,10.280880000000002
3964646425,22.16,0.0404741853537485,-0.05326744877086694,0.0,-0.5591700000000001,0.89271,9.92772
3969696930,22.16,-0.0852244273748831,-0.11398745344774965,0.0,-0.07848000000000001,0.59841,10.01601
3974747435,22.16,-0.044732788728614664,-0.09480628496833199,0.0,0.06867000000000001,0.79461,10.05525
3979797940,22.16,-0.05326744877086694,-0.10438814256178083,0.0,0.13734000000000002,0.48069000000000006,9.82962
3984848445,22.16,-0.12995721610349775,-0.08735372906231618,0.0,0.27468000000000004,0.15696000000000002,10.025820000000001
3989898950,22.16,-0.09480628496833199,-0.07136651311404815,0.005323254218582705,0.26487,0.15696000000000002,9.99639
3994949455,22.16,-0.06710790973918197,-0.06284930636431581,0.001064650843716541,0.35316,-0.009810000000000001,9.87867
3999999960,22.16,-0.08415977653116657,-0.033021629447732716,0.0,0.38259000000000004,-0.18639,9.81
4005050465,22.16,-0.04153883619746504,-0.005323254218582705,0.0,0.40221,-0.14715,9.760950000000001
4010100970,22.16,-0.003193952531149623,0.03728023282259888,-0.001064650843716541,0.38259000000000004,-0.18639,9.6138
4015151475,22.16,0.011711159280881954,0.07777187146886733,-0.004258603374866164,0.22563,-0.12753,9.67266
4020201980,22.16,0.05859070298944965,0.08948303074974927,-0.002129301687433082,0.0981,0.04905,9.70209
4025252485,22.16,0.08415977653116657,0.10012953918691468,-0.003193952531149623,-0.06867000000000001,0.1962,9.751140000000001
4030302990,22.16,0.09374163412461543,0.07136651311404815,-0.001064650843716541,-0.14715,0.38259000000000004,9.819809999999999
4035353495,22.16,0.10332349171806432,0.05220279792715039,-0.001064650843716541,-0.15696000000000002,0.65727,9.92772
4040404000,22.16,0.09267698328089889,0.021310470166850764,0.0,-0.16677000000000003,0.7848,9.95715
4045454505,22.16,0.05965535383316618,-0.002129301687433082,0.0,-0.11772,0.8338500000000001,10.025820000000001
4050505010,22.16,0.03515093113516579,-0.02769837522915001,0.0,-0.10791,0.90252,10.045440000000001
4055555515,22.16,0.001064650843716541,-0.06178465552059926,0.003193952531149623,0.0,0.8829,10.01601
4060606020,22.16,-0.03408628029144926,-0.06923721142661506,0.0,0.14715,0.7848,10.05525
4065656525,22.16,-0.07136651311404815,-0.06391395720803235,0.002129301687433082,0.20601000000000003,0.57879,10.03563
4070707030,22.16,-0.09906488834319814,-0.05539675045830002,0.0,0.26487,0.33354000000000006,10.006200000000002
4075757535,22.16,-0.10759954838545042,-0.05113814708343386,0.001064650843716541,0.21582,0.14715,9.96696
4080808040,22.16,-0.09587093581204853,-0.046879543708567686,0.002129301687433082,0.27468000000000004,-0.04905,9.89829
4085858545,22.16,-0.07456046564519776,-0.02982767691658309,0.0,0.28449,-0.10791,9.79038
4090909050,22.16,-0.05113814708343386,-0.007452555906015787,0.0,0.31392000000000003,-0.17658,9.74133
4095959555,22.16,-0.01918116847941768,0.033021629447732716,-0.001064650843716541,0.31392000000000003,-0.21582,9.67266
4101010060,22.16,0.014905111812031574,0.07136651311404815,-0.001064650843716541,0.16677000000000003,-0.17658,9.67266
4106060565,22.16,0.04794419455228423,0.08415977653116657,-0.001064650843716541,0.04905,-0.02943,9.70209
4111111070,22.16,0.07990117315630041,0.08841837990603273,-0.003193952531149623,-0.05886,0.14715,9.760950000000001
4116161575,22.16,0.09267698328089889,0.08735372906231618,0.0,-0.20601000000000003,0.31392000000000003,9.84924
4121212080,22.16,0.11079350091660004,0.04794419455228423,-0.001064650843716541,-0.1962,0.5591700000000001,9.84924
4126262585,22.16,0.10438814256178083,0.033021629447732716,0.0,-0.18639,0.75537,9.96696
4131313090,22.16,0.07670722062515077,-0.001064650843716541,0.0,-0.20601000000000003,1.00062,10.03563
4136363595,22.16,0.05220279792715039,-0.021310470166850764,0.001064650843716541,-0.21582,1.01043,10.19259
4141414100,22.16,-0.00958185759344887,-0.07670722062515077,0.0,-0.11772,0.80442,9.89829
4146464605,22.16,-0.049008845396000776,-0.08096582400001695,0.001064650843716541,0.1962,0.73575,10.143540000000002
4151515110,22.16,-0.05646140130201656,-0.05752605214573309,0.002129301687433082,0.18639,0.6180300000000001,10.01601
4156565615,22.16,-0.10438814256178083,-0.05859070298944965,0.002129301687433082,0.23544,0.26487,9.94734
4161616120,22.16,-0.11398745344774965,-0.03515093113516579,0.002129301687433082,0.21582,0.11772,9.98658
4166666625,22.16,-0.08628907821859966,-0.033021629447732716,0.001064650843716541,0.17658,-0.009810000000000001,9.908100000000001
4171717130,22.16,-0.08096582400001695,-0.01918116847941768,0.002129301687433082,0.22563,-0.1962,9.80019
4176767635,22.16,-0.054332099614583476,0.0,0.003193952531149623,0.20601000000000003,-0.20601000000000003,9.78057
4181818140,22.16,-0.012775810124598492,0.02663372438543347,-0.001064650843716541,0.20601000000000003,-0.20601000000000003,9.68247
4186868645,22.16,0.022375121010567305,0.046879543708567686,-0.002129301687433082,0.11772,-0.11772,9.68247
4191919150,22.16,0.05326744877086694,0.05539675045830002,0.0,0.04905,0.02943,9.72171
4196969655,22.16,0.08203047484373349,0.05859070298944965,-0.002129301687433082,-0.039240000000000004,0.22563,9.751140000000001
4202020160,22.16,0.08735372906231618,0.04794419455228423,0.0,-0.04905,0.40221,9.81
4207070665,22.16,0.09374163412461543,0.04260348704118158,-0.001064650843716541,-0.07848000000000001,0.6180300000000001,9.91791
4212121170,22.16,0.08841837990603273,0.021310470166850764,0.0,-0.07848000000000001,0.73575,9.96696
4217171675,22.16,0.05646140130201656,0.004258603374866164,0.001064650843716541,-0.07848000000000001,0.79461,10.025820000000001
4222222180,22.16,0.03089232776029963,-0.028763026072866547,0.0,-0.04905,0.86328,10.08468
4227272685,22.16,0.0,-0.04260348704118158,0.0,0.04905,0.8240400000000001,10.06506
4232323190,22.16,-0.03408628029144926,-0.05859070298944965,0.002129301687433082,0.10791,0.71613,10.074869999999999
4237373695,22.16,-0.06923721142661506,-0.06391395720803235,0.002129301687433082,0.20601000000000003,0.5493600000000001,10.01601
4242424200,22.16,-0.08841837990603273,-0.054332099614583476,0.003193952531149623,0.21582,0.36297,9.97677
4247474705,22.16,-0.09587093581204853,-0.054332099614583476,0.0,0.22563,0.17658,9.92772
4252525210,22.16,-0.08948303074974927,-0.04260348704118158,0.001064650843716541,0.26487,0.04905,9.84924
4257575715,22.16,-0.06710790973918197,-0.02556907354171693,-0.001064650843716541,0.35316,-0.07848000000000001,9.80019
4262626220,22.16,-0.054332099614583476,0.015987215948268057,0.0,0.35316,-0.16677000000000003,9.751140000000001
4267676725,22.16,-0.02663372438543347,0.03408628029144926,0.0,0.1962,-0.22563,9.72171
4272727230,22.16,0.012775810124598492,0.04581489286485115,0.0,0.10791,-0.11772,9.760950000000001
4277777735,22.16,0.05113814708343386,0.05752605214573309,-0.003193952531149623,0.0981,0.05886,9.74133
4282828240,22.16,0.07349581480148122,0.08096582400001695,0.0,0.08829,0.15696000000000002,9.760950000000001
4287878745,22.16,0.0852244273748831,0.08948303074974927,-0.002129301687433082,-0.08829,0.33354000000000006,9.82962
4292929250,22.16,0.09374163412461543,0.07990117315630041,-0.001064650843716541,-0.10791,0.49050000000000005,9.83943
4297979755,22.16,0.09161233243718235,0.07349581480148122,0.0,-0.23544,0.6670800000000001,9.94734
4303030260,22.16,0.0756251164889143,0.02556907354171693,-0.002129301687433082,-0.27468000000000004,0.9123300000000001,10.03563
4308080765,22.16,0.05752605214573309,0.01064650843716541,0.0,-0.32373,1.01043,10.22202
4313131270,22.16,-0.001064650843716541,-0.0404741853537485,0.002129301687433082,-0.28449,0.6768900000000001,9.89829
4318181775,22.16,-0.06497860805174888,-0.05859070298944965,0.0,-0.04905,0.56898,10.03563
4323232280,22.16,-0.03728023282259888,-0.06497860805174888,0.003193952531149623,-0.11772,0.63765,10.03563
4328282785,22.16,-0.07030186227033158,-0.10225884087434776,0.004258603374866164,0.06867000000000001,0.35316,9.888480000000001
4333333290,22.16,-0.10119419003063122,-0.08309512568745003,0.003193952531149623,0.15696000000000002,0.22563,9.94734
4338383795,22.16,-0.07030186227033158,-0.08735372906231618,0.003193952531149623,0.23544,0.15696000000000002,9.888480000000001
4343434300,22.16,-0.07243116395776468,-0.06284930636431581,-0.001064650843716541,0.35316,-0.039240000000000004,9.819809999999999
4348484805,22.16,-0.06284930636431581,-0.039409534510031964,0.001064650843716541,0.33354000000000006,-0.0981,9.770760000000001
4353535310,22.16,-0.02556907354171693,-0.01064650843716541,0.001064650843716541,0.34335000000000004,-0.05886,9.751140000000001
4358585815,22.16,0.0,0.005323254218582705,0.0,0.30411,-0.039240000000000004,9.751140000000001
4363636320,22.16,0.020245819323134222,0.03408628029144926,0.0,0.36297,0.039240000000000004,9.74133
4368686825,22.16,0.049008845396000776,0.0756251164889143,-0.002129301687433082,0.28449,0.11772,9.770760000000001
4373737330,22.16,0.05539675045830002,0.08841837990603273,0.0,0.0981,0.16677000000000003,9.770760000000001
4378787835,22.16,0.06710790973918197,0.08628907821859966,0.0,-0.009810000000000001,0.30411,9.84924
4383838340,22.16,0.08628907821859966,0.06923721142661506,0.0,-0.11772,0.5395500000000001,9.86886
4388888845,22.16,0.07777187146886733,0.044732788728614664,-0.001064650843716541,-0.10791,0.65727,9.937529999999999
4393939350,22.16,0.05539675045830002,0.024504422698000388,-0.001064650843716541,-0.10791,0.71613,9.98658
4398989855,22.16,0.03089232776029963,0.004258603374866164,-0.001064650843716541,-0.14715,0.7651800000000001,10.025820000000001
4404040360,22.16,0.007452555906015787,-0.0404741853537485,0.0,-0.10791,0.74556,10.05525
4409090865,22.16,-0.020245819323134222,-0.06604325889546543,0.002129301687433082,0.02943,0.70632,10.01601
4414141370,22.16,-0.046879543708567686,-0.07243116395776468,0.002129301687433082,0.12753,0.59841,10.006200000000002
4419191875,22.16,-0.06604325889546543,-0.06391395720803235,0.002129301687433082,0.23544,0.43164,9.937529999999999
4424242380,22.16,-0.0852244273748831,-0.03728023282259888,0.001064650843716541,0.21582,0.22563,9.91791
4429292885,22.16,-0.08309512568745003,-0.03408628029144926,0.001064650843716541,0.1962,0.05886,9.888480000000001
4434343390,22.16,-0.06923721142661506,-0.020245819323134222,0.0,0.21582,-0.04905,9.85905
4439393895,22.16,-0.05007349623971732,-0.01064650843716541,0.001064650843716541,0.21582,-0.07848000000000001,9.82962
4444444400,22.16,-0.02663372438543347,0.007452555906015787,-0.001064650843716541,0.23544,-0.10791,9.72171
4449494905,22.16,0.003193952531149623,0.049008845396000776,-0.002129301687433082,0.22563,-0.0981,9.7119
4454545410,22.16,0.03089232776029963,0.08309512568745003,0.0,0.08829,0.0,9.72171
4459595915,22.16,0.05539675045830002,0.08415977653116657,-0.001064650843716541,-0.10791,0.13734000000000002,9.73152
4464646420,22.16,0.07777187146886733,0.07136651311404815,-0.002129301687433082,-0.17658,0.28449,9.80019
4469696925,22.16,0.09161233243718235,0.046879543708567686,-0.001064650843716541,-0.20601000000000003,0.47088,9.83943
4474747430,22.16,0.0852244273748831,0.028763026072866547,-0.002129301687433082,-0.18639,0.63765,9.92772
4479797935,22.16,0.06817256058289851,0.004258603374866164,0.001064650843716541,-0.20601000000000003,0.7651800000000001,9.97677
4484848440,22.16,0.04366813788489812,-0.020245819323134222,0.001064650843716541,-0.14715,0.7749900000000001,10.01601
4489898945,22.16,0.015987215948268057,-0.05220279792715039,0.001064650843716541,-0.0981,0.85347,10.025820000000001
4494949450,22.16,-0.006387905062299246,-0.07990117315630041,0.0,0.02943,0.8240400000000001,10.01601
4499999955,22.16,-0.044732788728614664,-0.07136651311404815,0.0,0.20601000000000003,0.6768900000000001,10.01601
4505050460,22.16,-0.08309512568745003,-0.049008845396000776,0.0,0.20601000000000003,0.43164,9.96696
4510100965,22.16,-0.09800023749948161,-0.044732788728614664,0.0,0.20601000000000003,0.23544,9.98658
4515151470,22.16,-0.09161233243718235,-0.03728023282259888,0.0,0.1962,0.04905,9.908100000000001
4520201975,22.16,-0.07883652231258387,-0.033021629447732716,0.0,0.23544,-0.04905,9.83943
4525252480,22.16,-0.05539675045830002,-0.014905111812031574,0.0,0.26487,-0.08829,9.81
4530302985,22.16,-0.031956978604016174,0.005323254218582705,0.0,0.24525000000000002,-0.15696000000000002,9.760950000000001
4535353490,22.16,-0.002129301687433082,0.024504422698000388,0.0,0.13734000000000002,-0.0981,9.73152
4540403995,22.16,0.03728023282259888,0.02982767691658309,0.0,0.15696000000000002,0.039240000000000004,9.72171
4545454500,22.16,0.05965535383316618,0.04366813788489812,0.0,0.12753,0.15696000000000002,9.73152
4550505005,22.16,0.06923721142661506,0.049008845396000776,0.0,0.07848000000000001,0.27468000000000004,9.81
4555555510,22.16,0.07990117315630041,0.05859070298944965,0.0,0.039240000000000004,0.44145,9.86886
4560606015,22.16,0.08203047484373349,0.044732788728614664,0.0,-0.04905,0.59841,9.937529999999999
4565656520,22.16,0.06497860805174888,0.022375121010567305,0.0,-0.06867000000000001,0.70632,10.01601
4570707025,22.16,0.046879543708567686,-0.008517206749732328,0.0,-0.06867000000000001,0.7749900000000001,10.01601
4575757530,22.16,0.01918116847941768,-0.022375121010567305,0.0,0.04905,0.7651800000000001,10.05525
4580808035,22.16,-0.011711159280881954,-0.028763026072866547,0.0,0.04905,0.71613,9.99639
4585858540,22.16,-0.03834488366631542,-0.039409534510031964,0.0,0.12753,0.60822,10.025820000000001
4590909045,22.16,-0.06284930636431581,-0.033021629447732716,0.0,0.14715,0.43164,9.98658
4595959550,22.16,-0.07777187146886733,-0.03621558197888234,0.0,0.14715,0.27468000000000004,9.94734
4601010055,22.16,-0.07349581480148122,-0.03515093113516579,0.0,0.18639,0.13734000000000002,9.908100000000001
4606060560,22.16,-0.06604325889546543,-0.020245819323134222,0.0,0.20601000000000003,0.009810000000000001,9.85905
4611111065,22.16,-0.054332099614583476,0.004258603374866164,0.0,0.25506,-0.06867000000000001,9.751140000000001
4616161570,22.16,-0.033021629447732716,0.031956978604016174,0.0,0.13734000000000002,-0.14715,9.751140000000001
4621212075,22.16,-0.004258603374866164,0.04366813788489812,0.0,0.04905,-0.07848000000000001,9.751140000000001
4626262580,22.16,0.02982767691658309,0.04366813788489812,0.0,0.0,0.039240000000000004,9.760950000000001
4631313085,22.16,0.05646140130201656,0.05326744877086694,0.0,0.019620000000000002,0.11772,9.770760000000001
4636363590,22.16,0.06284930636431581,0.07243116395776468,0.0,-0.10791,0.27468000000000004,9.81
4641414095,22.16,0.07349581480148122,0.05326744877086694,0.0,-0.1962,0.41202000000000005,9.87867
4646464600,22.16,0.07883652231258387,0.03621558197888234,0.0,-0.20601000000000003,0.56898,9.92772
4651515105,22.16,0.07349581480148122,0.003193952531149623,0.0,-0.26487,0.73575,9.97677
4656565610,22.16,0.04794419455228423,-0.03089232776029963,0.0,-0.12753,0.80442,9.99639
4661616115,22.16,0.015987215948268057,-0.039409534510031964,0.0,-0.05886,0.79461,10.01601
4666666620,22.16,-0.01064650843716541,-0.05859070298944965,0.0,-0.02943,0.74556,10.01601
4671717125,22.16,-0.03834488366631542,-0.07349581480148122,0.0,0.05886,0.64746,10.01601
4676767630,22.16,-0.06604325889546543,-0.09054768159346581,0.0,0.1962,0.51012,9.98658
4681818135,22.16,-0.08841837990603273,-0.0756251164889143,0.0,0.31392000000000003,0.35316,9.97677
4686868640,22.16,-0.08841837990603273,-0.06178465552059926,0.0,0.32373,0.15696000000000002,9.95715
4691919145,22.16,-0.08628907821859966,-0.033021629447732716,0.0,0.36297,-0.019620000000000002,9.83943
4696969650,22.16,-0.06923721142661506,-0.01918116847941768,0.0,0.27468000000000004,-0.08829,9.81
4702020155,22.16,-0.039409534510031964,-0.005323254218582705,0.0,0.31392000000000003,-0.12753,9.760950000000001
4707070660,22.16,-0.011711159280881954,0.01811651763570114,0.0,0.27468000000000004,-0.10791,9.73152
4712121165,22.16,0.01918116847941768,0.03089232776029963,0.0,0.25506,-0.04905,9.72171
4717171670,22.16,0.044732788728614664,0.07243116395776468,0.0,0.24525000000000002,0.019620000000000002,9.72171
4722222175,22.16,0.06604325889546543,0.09267698328089889,0.0,0.039240000000000004,0.14715,9.78057
4727272680,22.16,0.07777187146886733,0.08415977653116657,0.0,-0.039240000000000004,0.33354000000000006,9.84924
4732323185,22.16,0.09161233243718235,0.06923721142661506,0.0,-0.13734000000000002,0.51993,9.888480000000001
4737373690,22.16,0.08735372906231618,0.05326744877086694,0.0,-0.13734000000000002,0.65727,9.937529999999999
4742424195,22.16,0.06604325889546543,0.023439771854283843,0.0,-0.14715,0.79461,9.97677
4747474700,22.16,0.03834488366631542,0.002129301687433082,0.0,-0.13734000000000002,0.80442,10.03563
4752525205,22.16,0.004258603374866164,-0.02769837522915001,0.0,-0.1962,0.74556,10.05525
4757575710,22.16,-0.01811651763570114,-0.06923721142661506,0.0,-0.019620000000000002,0.75537,10.05525
4762626215,22.16,-0.046879543708567686,-0.07243116395776468,0.0,0.10791,0.6278400000000001,10.006200000000002
4767676720,22.16,-0.07670722062515077,-0.06284930636431581,0.0,0.21582,0.43164,10.01601
4772727225,22.16,-0.09161233243718235,-0.04260348704118158,0.0,0.22563,0.24525000000000002,9.888480000000001
4777777730,22.16,-0.08841837990603273,-0.02663372438543347,0.0,0.24525000000000002,0.08829,9.83943
4782828235,22.16,-0.08203047484373349,-0.004258603374866164,0.0,0.25506,-0.0981,9.82962
4787878740,22.16,-0.06497860805174888,0.02982767691658309,0.0,0.12753,-0.21582,9.770760000000001
4792929245,22.16,-0.02769837522915001,0.04153883619746504,0.0,0.07848000000000001,-0.23544,9.770760000000001
4797979750,22.16,0.006387905062299246,0.060720004676882725,0.0,-0.019620000000000002,-0.14715,9.73152
4803030255,22.16,0.049008845396000776,0.054332099614583476,0.0,-0.14715,-0.02943,9.751140000000001
4808080760,22.16,0.07777187146886733,0.049008845396000776,0.0,-0.1962,0.1962,9.760950000000001
4813131265,22.16,0.09587093581204853,0.014905111812031574,0.0,-0.22563,0.42183,9.81
4818181770,22.16,0.09800023749948161,-0.01064650843716541,0.0,-0.11772,0.6180300000000001,9.84924
4823232275,22.16,0.0852244273748831,-0.03621558197888234,0.0,-0.0981,0.8338500000000001,9.908100000000001
4828282780,22.16,0.060720004676882725,-0.06178465552059926,0.0,0.07848000000000001,0.90252,9.98658
4833333285,22.16,0.015987215948268057,-0.05646140130201656,0.0,0.1962,0.89271,10.045440000000001
4838383790,22.16,-0.024504422698000388,-0.06391395720803235,0.0,0.25506,0.7848,10.09449
4843434295,22.16,-0.05113814708343386,-0.054332099614583476,0.0,0.34335000000000004,0.70632,10.074869999999999
4848484800,22.16,-0.07030186227033158,-0.044732788728614664,0.0,0.3924,0.51012,10.01601
4853535305,22.16,-0.09800023749948161,-0.01064650843716541,0.0,0.41202000000000005,0.22563,9.95715
4858585810,22.16,-0.10438814256178083,0.00958185759344887,0.0,0.27468000000000004,0.009810000000000001,9.91791
4863636315,22.16,-0.08735372906231618,0.01918116847941768,0.0,0.24525000000000002,-0.15696000000000002,9.82962
4868686820,22.16,-0.060720004676882725,0.04260348704118158,0.0,0.14715,-0.22563,9.760950000000001
4873737325,22.16,-0.023439771854283843,0.054332099614583476,0.0,0.10791,-0.25506,9.7119
4878787830,22.16,0.011711159280881954,0.07670722062515077,0.0,-0.02943,-0.20601000000000003,9.7119
4883838335,22.16,0.05113814708343386,0.07883652231258387,0.0,-0.15696000000000002,-0.06867000000000001,9.70209
4888888840,22.16,0.08309512568745003,0.06817256058289851,0.0,-0.22563,0.17658,9.7119
4893939345,22.16,0.1097288500728835,0.033021629447732716,0.0,-0.25506,0.43164,9.81
4898989850,22.16,0.10653489754173388,0.006387905062299246,0.0,-0.21582,0.63765,9.85905
4904040355,22.16,0.09267698328089889,-0.02556907354171693,0.0,-0.16677000000000003,0.8142300000000001,9.908100000000001
4909090860,22.16,0.07030186227033158,-0.04794419455228423,0.0,-0.06867000000000001,0.9123300000000001,10.01601
4914141365,22.16,0.03621558197888234,-0.06923721142661506,0.0,0.07848000000000001,0.9711900000000001,10.05525
4919191870,22.16,-0.00958185759344887,-0.06817256058289851,0.0,0.21582,0.8829,10.11411
4924242375,22.16,-0.05539675045830002,-0.06178465552059926,0.0,0.27468000000000004,0.6768900000000001,10.08468
4929292880,22.16,-0.08628907821859966,-0.06284930636431581,0.0,0.36297,0.51993,10.025820000000001
4934343385,22.16,-0.10332349171806432,-0.039409534510031964,0.0,0.37278,0.2943,9.97677
4939393890,22.16,-0.1097288500728835,-0.023439771854283843,0.0,0.35316,0.0981,9.89829
4944444395,22.16,-0.10759954838545042,0.0170518667919846,0.0,0.31392000000000003,-0.16677000000000003,9.82962
4949494900,22.16,-0.07883652231258387,0.03728023282259888,0.0,0.17658,-0.31392000000000003,9.72171
4954545405,22.16,-0.03515093113516579,0.05326744877086694,0.0,0.08829,-0.34335000000000004,9.72171
4959595910,22.16,0.008517206749732328,0.07030186227033158,0.0,0.019620000000000002,-0.25506,9.72171
4964646415,22.16,0.044732788728614664,0.07883652231258387,0.0,-0.08829,-0.12753,9.68247
4969696920,22.16,0.07990117315630041,0.07349581480148122,0.0,-0.1962,0.07848000000000001,9.70209
4974747425,22.16,0.11079350091660004,0.05113814708343386,0.0,-0.20601000000000003,0.33354000000000006,9.751140000000001
4979797930,22.16,0.12569861272863161,0.03408628029144926,0.0,-0.21582,0.60822,9.84924
4984848435,22.16,0.10759954838545042,0.020245819323134222,0.0,-0.17658,0.75537,9.91791
4989898940,22.16,0.08096582400001695,-0.003193952531149623,0.0,-0.16677000000000003,1.1183400000000001,10.03563
4994949445,22.16,0.06391395720803235,-0.03089232776029963,0.0,-0.27468000000000004,1.0791000000000002,10.280880000000002
4999999950,22.16,-0.02556907354171693,-0.07883652231258387,0.0,-0.019620000000000002,0.73575,9.92772
5005050455,22.16,-0.06604325889546543,-0.06497860805174888,0.0,0.15696000000000002,0.72594,10.143540000000002
5010100960,22.16,-0.05646140130201656,-0.06817256058289851,0.0,0.14715,0.5886,10.05525
5015151465,22.16,-0.11079350091660004,-0.07030186227033158,0.0,0.17658,0.24525000000000002,9.99639
5020201970,22.16,-0.1097288500728835,-0.07883652231258387,0.0,0.21582,0.18639,9.96696
5025252475,22.16,-0.07883652231258387,-0.07349581480148122,0.0,0.33354000000000006,0.02943,9.85905
5030302980,22.16,-0.08948303074974927,-0.04366813788489812,0.0,0.3924,-0.17658,9.760950000000001
5035353485,22.16,-0.06710790973918197,-0.01064650843716541,0.0,0.41202000000000005,-0.25506,9.7119
5040403990,22.16,-0.013840460968315033,0.01918116847941768,0.0,0.2943,-0.17658,9.7119
5045454495,22.16,0.0170518667919846,0.02556907354171693,0.0,0.24525000000000002,-0.0981,9.7119
5050505000,22.16,0.05220279792715039,0.049008845396000776,0.0,0.31392000000000003,0.039240000000000004,9.751140000000001
5055555505,22.16,0.07243116395776468,0.0756251164889143,0.0,0.15696000000000002,0.15696000000000002,9.770760000000001
5060606010,22.16,0.08415977653116657,0.07243116395776468,0.0,0.0981,0.32373,9.80019
5065656515,22.16,0.09374163412461543,0.08415977653116657,0.0,0.07848000000000001,0.50031,9.87867
5070707020,22.16,0.08841837990603273,0.08096582400001695,0.0,-0.02943,0.65727,9.95715
5075757525,22.16,0.06817256058289851,0.06817256058289851,0.0,-0.13734000000000002,0.70632,10.006200000000002
5080808030,22.16,0.049008845396000776,0.03728023282259888,0.0,-0.20601000000000003,0.8240400000000001,10.025820000000001
5085858535,22.16,0.03089232776029963,0.007452555906015787,0.0,-0.18639,0.85347,10.11411
5090909040,22.16,-0.00958185759344887,-0.023439771854283843,0.0,-0.1962,0.71613,9.97677
5095959545,22.16,-0.05646140130201656,-0.05113814708343386,0.0,-0.009810000000000001,0.57879,10.09449
5101010050,22.16,-0.06391395720803235,-0.049008845396000776,0.0,-0.039240000000000004,0.49050000000000005,9.91791
5106060555,22.16,-0.07777187146886733,-0.07349581480148122,0.0,0.0,0.2943,9.908100000000001
5111111060,22.16,-0.08415977653116657,-0.06710790973918197,0.0,0.13734000000000002,0.17658,9.91791
5116161565,22.16,-0.06923721142661506,-0.054332099614583476,0.0,0.17658,0.039240000000000004,9.84924
5121212070,22.16,-0.06284930636431581,-0.039409534510031964,0.0,0.22563,-0.07848000000000001,9.760950000000001
5126262575,22.16,-0.03834488366631542,-0.022375121010567305,0.0,0.22563,-0.0981,9.80019
5131313080,22.16,-0.004258603374866164,-0.00958185759344887,0.0,0.21582,-0.06867000000000001,9.81
5136363585,22.16,0.01064650843716541,0.011711159280881954,0.0,0.25506,0.0,9.770760000000001
5141414090,22.16,0.031956978604016174,0.03728023282259888,0.0,0.26487,0.05886,9.79038
5146464595,22.16,0.05113814708343386,0.06923721142661506,0.0,0.0981,0.21582,9.80019
5151515100,22.16,0.0756251164889143,0.05646140130201656,0.0,0.0,0.37278,9.85905
5156565605,22.16,0.07777187146886733,0.05965535383316618,0.0,0.02943,0.51993,9.86886
5161616110,22.16,0.06710790973918197,0.05752605214573309,0.0,-0.05886,0.60822,9.91791
5166666615,22.16,0.0404741853537485,0.04153883619746504,0.0,-0.10791,0.6180300000000001,10.01601
5171717120,22.16,0.02769837522915001,0.0170518667919846,0.0,-0.18639,0.6670800000000001,9.99639
5176767625,22.16,0.011711159280881954,-0.02556907354171693,0.0,-0.0981,0.69651,9.99639
5181818130,22.16,-0.00958185759344887,-0.03515093113516579,0.0,-0.02943,0.63765,9.99639
5186868635,22.16,-0.031956978604016174,-0.05113814708343386,0.0,0.02943,0.5886,9.98658
5191919140,22.16,-0.05113814708343386,-0.04153883619746504,0.0,0.0981,0.46107000000000004,9.94734
5196969645,22.16,-0.05965535383316618,-0.044732788728614664,0.0,0.10791,0.30411,9.91791
5202020150,22.16,-0.06710790973918197,-0.049008845396000776,0.0,0.13734000000000002,0.16677000000000003,9.888480000000001
5207070655,22.16,-0.06604325889546543,-0.04366813788489812,0.0,0.16677000000000003,0.06867000000000001,9.888480000000001
5212121160,22.16,-0.05326744877086694,-0.03834488366631542,0.0,0.1962,-0.019620000000000002,9.82962
5217171665,22.16,-0.028763026072866547,-0.020245819323134222,0.0,0.23544,0.009810000000000001,9.81
5222222170,22.16,-0.003193952531149623,0.004258603374866164,0.0,0.31392000000000003,0.0,9.80019
5227272675,22.16,0.01064650843716541,0.049008845396000776,0.0,0.24525000000000002,0.039240000000000004,9.770760000000001
5232323180,22.16,0.02982767691658309,0.06284930636431581,0.0,0.08829,0.10791,9.79038
5237373685,22.16,0.04581489286485115,0.05965535383316618,0.0,0.0,0.20601000000000003,9.81
5242424190,22.16,0.060720004676882725,0.049008845396000776,0.0,-0.019620000000000002,0.34335000000000004,9.86886
5247474695,22.16,0.06604325889546543,0.03408628029144926,0.0,-0.02943,0.46107000000000004,9.85905
5252525200,22.16,0.05752605214573309,0.0170518667919846,0.0,-0.07848000000000001,0.56898,9.937529999999999
5257575705,22.16,0.044732788728614664,-0.001064650843716541,0.0,-0.009810000000000001,0.6670800000000001,9.97677
5262626210,22.16,0.02663372438543347,-0.01811651763570114,0.0,-0.039240000000000004,0.69651,9.96696
5267676715,22.16,0.006387905062299246,-0.05007349623971732,0.0,0.009810000000000001,0.71613,9.98658
5272727220,22.16,-0.01918116847941768,-0.054332099614583476,0.0,0.20601000000000003,0.6278400000000001,9.98658
5277777725,22.16,-0.05007349623971732,-0.04366813788489812,0.0,0.23544,0.47088,9.94734
5282828230,22.16,-0.06604325889546543,-0.039409534510031964,0.0,0.23544,0.35316,9.908100000000001
5287878735,22.16,-0.06391395720803235,-0.028763026072866547,0.0,0.25506,0.20601000000000003,9.91791
5292929240,21.9,-0.06817256058289851,-0.008517206749732328,0.0,0.26487,0.07848000000000001,9.89829
5297979745,21.9,-0.05859070298944965,0.00958185759344887,0.0,0.23544,-0.02943,9.84924
5303030250,21.9,-0.03621558197888234,0.03834488366631542,0.0,0.1962,-0.0981,9.81
5308080755,21.9,-0.011711159280881954,0.05646140130201656,0.0,0.06867000000000001,-0.07848000000000001,9.72171
5313131260,21.9,0.0170518667919846,0.06604325889546543,0.0,0.019620000000000002,-0.02943,9.74133
5318181765,21.9,0.04581489286485115,0.05965535383316618,0.0,-0.10791,0.0981,9.751140000000001
5323232270,21.9,0.07136651311404815,0.0404741853537485,0.0,-0.14715,0.26487,9.74133
5328282775,21.9,0.08203047484373349,0.03834488366631542,0.0,-0.15696000000000002,0.43164,9.84924
5333333280,21.9,0.07777187146886733,0.01064650843716541,0.0,-0.17658,0.57879,9.91791
5338383785,21.9,0.05752605214573309,-0.005323254218582705,0.0,-0.07848000000000001,0.6670800000000001,9.937529999999999
5343434290,21.9,0.03728023282259888,-0.013840460968315033,0.0,-0.08829,0.74556,10.006200000000002
5348484795,21.9,0.015987215948268057,-0.046879543708567686,0.0,-0.06867000000000001,0.73575,9.98658
5353535300,21.9,-0.002129301687433082,-0.05539675045830002,0.0,0.06867000000000001,0.75537,10.006200000000002
5358585805,21.9,-0.03089232776029963,-0.05965535383316618,0.0,0.16677000000000003,0.63765,10.01601
5363636310,21.9,-0.06817256058289851,-0.05007349623971732,0.0,0.23544,0.47088,9.99639
5368686815,21.9,-0.08309512568745003,-0.044732788728614664,0.0,0.18639,0.27468000000000004,10.006200000000002
5373737320,21.9,-0.08628907821859966,-0.04153883619746504,0.0,0.28449,0.0981,9.91791
5378787825,21.9,-0.08203047484373349,-0.013840460968315033,0.0,0.28449,0.0,9.84924
5383838330,21.9,-0.05752605214573309,-0.005323254218582705,0.0,0.25506,-0.11772,9.80019
5388888835,21.9,-0.02556907354171693,0.024504422698000388,0.0,0.21582,-0.11772,9.72171
5393939340,21.9,0.004258603374866164,0.03834488366631542,0.0,0.13734000000000002,-0.06867000000000001,9.73152
5398989845,21.9,0.02769837522915001,0.04794419455228423,0.0,0.039240000000000004,0.02943,9.760950000000001
5404040350,21.9,0.046879543708567686,0.054332099614583476,0.0,0.0,0.11772,9.760950000000001
5409090855,21.9,0.060720004676882725,0.05646140130201656,0.0,-0.019620000000000002,0.20601000000000003,9.81
5414141360,21.9,0.07136651311404815,0.05113814708343386,0.0,-0.0981,0.37278,9.83943
5419191865,21.9,0.08203047484373349,0.03515093113516579,0.0,-0.11772,0.5591700000000001,9.888480000000001
5424242370,21.9,0.07777187146886733,0.00958185759344887,0.0,-0.12753,0.73575,9.92772
5429292875,21.9,0.05646140130201656,-0.00958185759344887,0.0,-0.06867000000000001,0.79461,10.01601
5434343380,21.9,0.023439771854283843,-0.031956978604016174,0.0,-0.04905,0.8338500000000001,10.01601
5439393885,21.9,-0.008517206749732328,-0.05752605214573309,0.0,0.08829,0.7749900000000001,10.05525
5444444390,21.9,-0.05113814708343386,-0.05646140130201656,0.0,0.12753,0.60822,10.045440000000001
5449494895,21.9,-0.07030186227033158,-0.06178465552059926,0.0,0.1962,0.45126,10.006200000000002
5454545400,21.9,-0.08096582400001695,-0.049008845396000776,0.0,0.27468000000000004,0.28449,9.937529999999999
5459595905,21.9,-0.07670722062515077,-0.0404741853537485,0.0,0.20601000000000003,0.17658,9.91791
5464646410,21.9,-0.06817256058289851,-0.03515093113516579,0.0,0.2943,0.02943,9.85905
5469696915,21.9,-0.05646140130201656,-0.00958185759344887,0.0,0.25506,-0.05886,9.79038
5474747420,21.9,-0.044732788728614664,0.007452555906015787,0.0,0.30411,-0.14715,9.770760000000001
5479797925,21.9,-0.022375121010567305,0.04581489286485115,0.0,0.22563,-0.16677000000000003,9.73152
5484848430,21.9,0.014905111812031574,0.060720004676882725,0.0,0.16677000000000003,-0.10791,9.72171
5489898935,21.9,0.049008845396000776,0.09161233243718235,0.0,0.04905,0.009810000000000001,9.74133
5494949440,21.9,0.07990117315630041,0.08841837990603273,0.0,-0.12753,0.20601000000000003,9.770760000000001
5499999945,21.9,0.09800023749948161,0.06604325889546543,0.0,-0.21582,0.42183,9.83943
5505050450,21.9,0.09906488834319814,0.024504422698000388,0.0,-0.26487,0.65727,9.908100000000001
5510100955,21.9,0.07883652231258387,-0.004258603374866164,0.0,-0.15696000000000002,0.73575,9.95715
5515151460,21.9,0.04794419455228423,-0.031956978604016174,0.0,-0.10791,0.80442,9.96696
5520201965,21.9,0.01918116847941768,-0.05113814708343386,0.0,0.05886,0.8240400000000001,10.006200000000002
5525252470,21.9,-0.00958185759344887,-0.03728023282259888,0.0,0.08829,0.7848,10.025820000000001
5530302975,21.9,-0.03621558197888234,-0.04581489286485115,0.0,0.13734000000000002,0.6670800000000001,10.025820000000001
5535353480,21.9,-0.06497860805174888,-0.04153883619746504,0.0,0.18639,0.51012,10.01601
5540403985,21.9,-0.0852244273748831,-0.05220279792715039,0.0,0.15696000000000002,0.33354000000000006,9.99639
5545454490,21.9,-0.09906488834319814,-0.054332099614583476,0.0,0.21582,0.0981,9.937529999999999
5550504995,21.9,-0.09267698328089889,-0.04794419455228423,0.0,0.24525000000000002,-0.02943,9.87867
5555555500,21.9,-0.07349581480148122,-0.033021629447732716,0.0,0.33354000000000006,-0.15696000000000002,9.79038
5560606005,21.9,-0.04581489286485115,0.020245819323134222,0.0,0.35316,-0.1962,9.751140000000001
5565656510,21.9,-0.005323254218582705,0.06497860805174888,0.0,0.25506,-0.1962,9.72171
5570707015,21.9,0.02556907354171693,0.10012953918691468,0.0,0.05886,-0.12753,9.7119
5575757520,21.9,0.060720004676882725,0.10119419003063122,0.0,-0.11772,0.0,9.770760000000001
5580808025,21.9,0.0756251164889143,0.09161233243718235,0.0,-0.24525000000000002,0.17658,9.78057
5585858530,21.9,0.09480628496833199,0.049008845396000776,0.0,-0.33354000000000006,0.41202000000000005,9.86886
5590909035,21.9,0.10119419003063122,0.00958185759344887,0.0,-0.27468000000000004,0.6180300000000001,9.908100000000001
5595959540,21.9,0.09480628496833199,-0.02769837522915001,0.0,-0.17658,0.8142300000000001,9.92772
5601010045,21.9,0.06923721142661506,-0.049008845396000776,0.0,-0.019620000000000002,0.9319500000000001,10.006200000000002
5606060550,21.9,0.02982767691658309,-0.05539675045830002,0.0,0.04905,1.01043,10.01601
5611111055,21.9,-0.014905111812031574,-0.06817256058289851,0.0,0.15696000000000002,0.89271,10.05525
5616161560,21.9,-0.06178465552059926,-0.060720004676882725,0.0,0.21582,0.70632,10.045440000000001
5621212065,21.9,-0.09054768159346581,-0.06497860805174888,0.0,0.25506,0.50031,10.05525
5626262570,21.9,-0.10759954838545042,-0.05539675045830002,0.0,0.31392000000000003,0.28449,9.99639
5631313075,21.9,-0.11079350091660004,-0.05220279792715039,0.0,0.2943,0.04905,9.97677
5636363580,21.9,-0.09587093581204853,-0.02982767691658309,0.0,0.36297,-0.10791,9.82962
5641414085,21.9,-0.07349581480148122,0.003193952531149623,0.0,0.35316,-0.20601000000000003,9.78057
5646464590,21.9,-0.04581489286485115,0.03834488366631542,0.0,0.31392000000000003,-0.2943,9.70209
5651515095,21.9,-0.005323254218582705,0.08309512568745003,0.0,0.15696000000000002,-0.27468000000000004,9.64323
5656565600,21.9,0.03728023282259888,0.10119419003063122,0.0,0.009810000000000001,-0.18639,9.70209
5661616105,21.9,0.07456046564519776,0.10653489754173388,0.0,-0.16677000000000003,0.019620000000000002,9.7119
5666666610,21.9,0.11079350091660004,0.07990117315630041,0.0,-0.2943,0.25506,9.79038
5671717115,21.9,0.12250466019748199,0.046879543708567686,0.0,-0.2943,0.5493600000000001,9.85905
5676767620,21.9,0.11931070766633237,0.003193952531149623,0.0,-0.27468000000000004,0.7749900000000001,9.908100000000001
5681818125,21.9,0.09480628496833199,-0.02769837522915001,0.0,-0.12753,1.04967,9.97677
5686868630,21.9,0.06710790973918197,-0.046879543708567686,0.0,-0.12753,1.16739,10.17297
5691919135,21.9,0.001064650843716541,-0.08203047484373349,0.0,0.05886,0.9123300000000001,9.91791
5696969640,21.9,-0.06178465552059926,-0.07030186227033158,0.0,0.25506,0.79461,10.182780000000001
5702020145,21.9,-0.06391395720803235,-0.06710790973918197,0.0,0.20601000000000003,0.64746,10.045440000000001
5707070650,21.9,-0.10759954838545042,-0.07349581480148122,0.0,0.26487,0.35316,10.006200000000002
5712121155,21.9,-0.1288925652597812,-0.06923721142661506,0.0,0.2943,0.16677000000000003,10.03563
5717171660,21.9,-0.10759954838545042,-0.060720004676882725,0.0,0.36297,-0.04905,9.908100000000001
5722222165,21.9,-0.09693558665576507,-0.04260348704118158,0.0,0.35316,-0.18639,9.80019
5727272670,21.9,-0.06604325889546543,-0.02769837522915001,0.0,0.40221,-0.26487,9.7119
5732323175,21.9,-0.01918116847941768,0.01811651763570114,0.0,0.43164,-0.22563,9.6138
5737373680,21.9,0.01064650843716541,0.05859070298944965,0.0,0.31392000000000003,-0.21582,9.65304
5742424185,21.9,0.039409534510031964,0.09054768159346581,0.0,0.23544,-0.11772,9.69228
5747474690,21.9,0.07777187146886733,0.11824605682261582,0.0,0.06867000000000001,0.02943,9.770760000000001
5752525195,21.9,0.10012953918691468,0.12676326357234816,0.0,-0.04905,0.21582,9.81
5757575700,21.9,0.1097288500728835,0.12676326357234816,0.0,-0.1962,0.42183,9.87867
5762626205,21.9,0.1171814059788993,0.10759954838545042,0.0,-0.32373,0.80442,9.89829
5767676710,21.9,0.10759954838545042,0.0756251164889143,0.0,-0.5395500000000001,1.41264,9.97677
5772727215,21.9,0.10225884087434776,0.020245819323134222,0.0,-0.86328,1.3243500000000001,10.34955
5777777720,21.9,-0.06391395720803235,-0.1097288500728835,0.0,-0.5395500000000001,0.50031,9.91791
5782828225,21.9,-0.10225884087434776,-0.1331511686346474,0.0,-0.019620000000000002,0.5886,9.83943
5787878730,21.9,-0.01918116847941768,-0.14062117783318315,0.005323254218582705,-0.019620000000000002,0.6670800000000001,10.03563
5792929235,21.9,-0.10438814256178083,-0.17151350559348277,0.004258603374866164,0.20601000000000003,0.21582,10.03563
5797979740,21.9,-0.11824605682261582,-0.150203035426632,0.005323254218582705,0.43164,0.1962,9.94734
5803030245,21.9,-0.05646140130201656,-0.1171814059788993,0.003193952531149623,0.56898,0.20601000000000003,9.92772
5808080750,21.9,-0.08628907821859966,-0.08735372906231618,0.003193952531149623,0.6670800000000001,-0.10791,9.819809999999999
5813131255,21.9,-0.07883652231258387,-0.03834488366631542,0.002129301687433082,0.65727,-0.11772,9.68247
5818181760,21.9,-0.01918116847941768,0.001064650843716541,-0.001064650843716541,0.65727,-0.07848000000000001,9.73152
5823232265,21.9,-0.007452555906015787,0.049008845396000776,-0.001064650843716541,0.63765,-0.20601000000000003,9.67266
5828282770,21.9,0.011711159280881954,0.10332349171806432,-0.003193952531149623,0.51012,-0.14715,9.72171
5833333275,21.9,0.06391395720803235,0.14913838458291545,-0.005323254218582705,0.27468000000000004,0.009810000000000001,9.78057
5838383780,21.9,0.08735372906231618,0.1629788455512305,-0.006387905062299246,0.08829,0.12753,9.819809999999999
5843434285,21.9,0.10332349171806432,0.17151350559348277,-0.003193952531149623,-0.0981,0.32373,9.819809999999999
5848484790,21.9,0.11611675513518273,0.15339698795778162,-0.002129301687433082,-0.31392000000000003,0.51012,9.85905
5853535295,21.9,0.10866419922916695,0.11931070766633237,-0.003193952531149623,-0.45126,1.0987200000000001,9.89829
5858585800,21.9,0.12356931104119852,0.09800023749948161,0.0,-0.90252,1.6186500000000001,10.50651
5863636305,21.9,0.02663372438543347,-0.03408628029144926,0.0,-0.9711900000000001,0.87309,9.78057
5868686810,21.9,-0.1352804703220805,-0.10438814256178083,0.001064650843716541,-0.41202000000000005,0.24525000000000002,10.03563
5873737315,21.9,-0.07243116395776468,-0.09906488834319814,0.002129301687433082,-0.21582,0.56898,10.074869999999999
5878787820,21.9,-0.03408628029144926,-0.12995721610349775,0.006387905062299246,-0.15696000000000002,0.35316,9.80019
5883838325,21.9,-0.11505210429146619,-0.15872024217636432,0.002129301687433082,-0.019620000000000002,0.06867000000000001,9.99639
5888888830,21.9,-0.06604325889546543,-0.16191419470751395,0.006387905062299246,0.20601000000000003,0.24525000000000002,9.97677
5893939335,21.9,-0.02769837522915001,-0.15126768627034853,0.004258603374866164,0.38259000000000004,0.20601000000000003,9.81
5898989840,21.9,-0.06710790973918197,-0.1374272253020335,0.003193952531149623,0.5886,0.009810000000000001,9.83943
5904040345,21.9,-0.03621558197888234,-0.09480628496833199,0.001064650843716541,0.7651800000000001,0.10791,9.770760000000001
5909090850,21.9,-0.008517206749732328,-0.04366813788489812,0.0,0.8142300000000001,0.07848000000000001,9.751140000000001
5914141355,21.9,-0.022375121010567305,0.012775810124598492,0.0,0.86328,-0.009810000000000001,9.770760000000001
5919191860,21.9,0.007452555906015787,0.07990117315630041,0.0,0.7848,0.04905,9.819809999999999
5924242365,21.9,0.03408628029144926,0.14062117783318315,-0.002129301687433082,0.6278400000000001,0.04905,9.79038
5929292870,21.9,0.03728023282259888,0.19280652246781357,-0.002129301687433082,0.33354000000000006,0.019620000000000002,9.819809999999999
5934343375,21.9,0.06284930636431581,0.2130523417909478,-0.004258603374866164,0.05886,0.12753,9.85905
5939393880,21.9,0.07883652231258387,0.21411699263466438,-0.004258603374866164,-0.23544,0.21582,9.87867
5944444385,21.9,0.08203047484373349,0.177901410655782,-0.005323254218582705,-0.51012,0.33354000000000006,9.908100000000001
5949494890,21.9,0.08948303074974927,0.12995721610349775,-0.004258603374866164,-0.64746,1.15758,9.92772
5954545395,21.9,0.12676326357234816,0.08628907821859966,0.0,-1.24587,1.3734000000000002,10.4967
5959595900,21.9,-0.01811651763570114,-0.07990117315630041,0.003193952531149623,-1.0987200000000001,0.51012,9.73152
5964646405,21.9,-0.1097288500728835,-0.15126768627034853,0.003193952531149623,-0.48069000000000006,0.35316,9.73152
5969696910,21.9,-0.001064650843716541,-0.1757721089683489,0.005323254218582705,-0.27468000000000004,0.75537,10.1043
5974747415,21.9,-0.03408628029144926,-0.23116885942664894,0.004258603374866164,-0.04905,0.44145,9.80019
5979797920,21.9,-0.11398745344774965,-0.24500932039496398,0.006387905062299246,0.37278,0.27468000000000004,9.94734
5984848425,21.9,-0.06391395720803235,-0.20134118251006583,0.005323254218582705,0.6768900000000001,0.40221,10.08468
5989898930,21.9,-0.06710790973918197,-0.14913838458291545,0.002129301687433082,0.85347,0.14715,9.89829
5994949435,21.9,-0.09480628496833199,-0.0756251164889143,0.004258603374866164,0.9908100000000001,-0.02943,9.87867
5999999940,21.9,-0.05007349623971732,0.007452555906015787,0.0,0.9613800000000001,-0.019620000000000002,9.908100000000001
6005050445,21.9,-0.02769837522915001,0.06497860805174888,0.0,0.7651800000000001,-0.14715,9.74133
6010100950,21.9,-0.01918116847941768,0.09587093581204853,-0.001064650843716541,0.5886,-0.16677000000000003,9.73152
6015151455,21.9,0.031956978604016174,0.12569861272863161,-0.002129301687433082,0.44145,-0.019620000000000002,9.72171
6020201960,21.9,0.05326744877086694,0.15765559133264778,-0.003193952531149623,0.34335000000000004,-0.07848000000000001,9.7119
6025252465,21.9,0.06391395720803235,0.19174187162409706,-0.005323254218582705,0.019620000000000002,0.02943,9.81
6030302970,21.9,0.10866419922916695,0.177901410655782,-0.004258603374866164,-0.11772,0.25506,9.80019
6035353475,21.9,0.12037535851004891,0.19174187162409706,-0.003193952531149623,-0.38259000000000004,0.45126,9.86886
6040403980,21.9,0.11611675513518273,0.1416858286768997,0.0,-0.6180300000000001,1.31454,9.89829
6045454485,21.9,0.14913838458291545,0.11398745344774965,0.0,-1.26549,1.68732,10.70271
6050504990,21.9,-0.005323254218582705,-0.08415977653116657,0.001064650843716541,-1.1870100000000001,0.65727,9.68247
6055555495,21.9,-0.1629788455512305,-0.13849187614575004,0.003193952531149623,-0.37278,0.15696000000000002,9.87867
6060606000,21.9,-0.04153883619746504,-0.15339698795778162,0.003193952531149623,-0.35316,0.64746,10.19259
6065656505,21.9,-0.02982767691658309,-0.21198769094723127,0.004258603374866164,0.019620000000000002,0.33354000000000006,9.819809999999999
6070707010,21.9,-0.13102186694721432,-0.18535396656179778,0.004258603374866164,0.17658,0.08829,10.03563
6075757515,21.9,-0.05326744877086694,-0.19280652246781357,0.006387905062299246,0.5395500000000001,0.32373,10.143540000000002
6080808020,21.9,-0.0404741853537485,-0.11185815176031658,0.004258603374866164,0.6768900000000001,0.16677000000000003,9.81
6085858525,21.9,-0.08203047484373349,-0.10012953918691468,0.002129301687433082,0.69651,0.0,9.81
6090909030,21.9,-0.044732788728614664,-0.03089232776029963,0.001064650843716541,0.9221400000000001,0.009810000000000001,9.78057
6095959535,21.9,-0.011711159280881954,0.02769837522915001,0.0,0.57879,-0.019620000000000002,9.7119
6101010040,21.9,-0.013840460968315033,0.02982767691658309,0.0,0.70632,-0.12753,9.7119
6106060545,21.9,0.02663372438543347,0.09587093581204853,-0.003193952531149623,0.5395500000000001,0.02943,9.81
6111111050,21.9,0.06178465552059926,0.11292280260403312,-0.003193952531149623,0.41202000000000005,0.0981,9.79038
6116161555,21.9,0.05326744877086694,0.15339698795778162,-0.003193952531149623,0.36297,0.13734000000000002,9.770760000000001
6121212060,21.9,0.07670722062515077,0.1832246648743647,-0.004258603374866164,0.02943,0.27468000000000004,9.84924
6126262565,21.9,0.09267698328089889,0.16404349639494703,-0.003193952531149623,-0.10791,0.37278,9.86886
6131313070,21.9,0.08628907821859966,0.16617279808238014,-0.005323254218582705,-0.37278,0.51993,9.89829
6136363575,21.9,0.07883652231258387,0.12037535851004891,-0.003193952531149623,-0.51012,1.1772,9.94734
6141414080,21.9,0.10012953918691468,0.09693558665576507,0.0,-1.02024,1.34397,10.47708
6146464585,21.9,-0.031956978604016174,-0.04260348704118158,0.0,-0.9613800000000001,0.43164,9.80019
6151515090,21.9,-0.1288925652597812,-0.09587093581204853,0.004258603374866164,-0.47088,0.21582,9.80019
6156565595,21.9,-0.02663372438543347,-0.12250466019748199,0.003193952531149623,-0.3924,0.52974,10.09449
6161616100,21.9,-0.04153883619746504,-0.17364280728091586,0.004258603374866164,-0.21582,0.1962,9.84924
6166666605,21.9,-0.09054768159346581,-0.19921188082263275,0.003193952531149623,0.07848000000000001,0.18639,9.92772
6171717110,21.9,-0.031956978604016174,-0.19387117331153014,0.005323254218582705,0.40221,0.35316,9.99639
6176767615,21.9,-0.03728023282259888,-0.14700908289548237,0.003193952531149623,0.5886,0.21582,9.888480000000001
6181818120,21.9,-0.06923721142661506,-0.11611675513518273,0.0,0.75537,0.06867000000000001,9.81
6186868625,21.9,-0.03621558197888234,-0.03621558197888234,0.0,0.85347,0.11772,9.82962
6191919130,21.9,-0.0170518667919846,0.0170518667919846,0.0,0.6867000000000001,0.0,9.80019
6196969635,21.9,-0.011711159280881954,0.04581489286485115,0.0,0.65727,-0.009810000000000001,9.81
6202020140,21.9,0.024504422698000388,0.09161233243718235,-0.001064650843716541,0.45126,0.06867000000000001,9.85905
6207070645,21.9,0.0404741853537485,0.07456046564519776,-0.002129301687433082,0.31392000000000003,0.14715,9.82962
6212121150,21.9,0.05007349623971732,0.07990117315630041,-0.004258603374866164,0.40221,0.23544,9.80019
6217171655,21.9,0.06391395720803235,0.11292280260403312,-0.005323254218582705,0.25506,0.35316,9.82962
6222222160,21.9,0.05646140130201656,0.13102186694721432,-0.002129301687433082,0.18639,0.33354000000000006,9.83943
6227272665,21.9,0.05752605214573309,0.15978489302008084,-0.004258603374866164,-0.06867000000000001,0.40221,9.91791
6232323170,21.9,0.06391395720803235,0.14594443205176583,-0.003193952531149623,-0.28449,0.49050000000000005,9.92772
6237373675,21.9,0.054332099614583476,0.12676326357234816,-0.004258603374866164,-0.37278,0.85347,9.908100000000001
6242424180,21.9,0.05965535383316618,0.12463396188491506,-0.001064650843716541,-0.85347,1.03005,10.36917
6247474685,21.9,-0.014905111812031574,0.006387905062299246,0.0,-0.9810000000000001,0.47088,9.80019
6252525190,21.9,-0.10119419003063122,-0.05220279792715039,0.0,-0.56898,0.0981,9.888480000000001
6257575695,21.9,-0.04153883619746504,-0.06391395720803235,0.002129301687433082,-0.56898,0.34335000000000004,9.98658
6262626200,21.9,-0.007452555906015787,-0.1331511686346474,0.002129301687433082,-0.45126,0.26487,9.80019
6267676705,21.9,-0.05220279792715039,-0.15765559133264778,0.005323254218582705,-0.15696000000000002,0.17658,9.908100000000001
6272727210,21.9,-0.012775810124598492,-0.17896606149949854,0.007452555906015787,0.0,0.42183,9.99639
6277777715,21.9,0.0,-0.18748326824923087,0.006387905062299246,0.26487,0.40221,9.87867
6282828220,21.9,-0.03621558197888234,-0.18748326824923087,0.004258603374866164,0.47088,0.41202000000000005,9.92772
6287878725,21.9,-0.03089232776029963,-0.1672549022186166,0.003193952531149623,0.8338500000000001,0.3924,9.91791
6292929230,21.9,-0.039409534510031964,-0.08948303074974927,0.004258603374866164,1.01043,0.26487,9.81
6297979735,21.9,-0.05113814708343386,-0.023439771854283843,-0.001064650843716541,0.94176,0.14715,9.888480000000001
6303030240,21.9,-0.03728023282259888,0.05007349623971732,-0.001064650843716541,0.9908100000000001,0.06867000000000001,9.888480000000001
6308080745,21.9,-0.01918116847941768,0.12356931104119852,-0.002129301687433082,0.72594,-0.039240000000000004,9.84924
6313131250,21.9,-0.008517206749732328,0.14487978120804929,0.0,0.41202000000000005,-0.08829,9.86886
6318181755,21.9,0.02663372438543347,0.14594443205176583,-0.003193952531149623,0.18639,0.009810000000000001,9.81
6323232260,21.9,0.05220279792715039,0.1288925652597812,-0.004258603374866164,0.019620000000000002,0.07848000000000001,9.770760000000001
6328282765,21.9,0.06497860805174888,0.10438814256178083,-0.004258603374866164,-0.08829,0.24525000000000002,9.79038
6333333270,21.9,0.08203047484373349,0.0852244273748831,-0.004258603374866164,-0.08829,0.41202000000000005,9.819809999999999
6338383775,21.9,0.08415977653116657,0.08203047484373349,-0.002129301687433082,-0.14715,0.5395500000000001,9.81
6343434280,21.9,0.07243116395776468,0.08203047484373349,-0.002129301687433082,-0.13734000000000002,0.6180300000000001,9.84924
6348484785,21.9,0.05859070298944965,0.09267698328089889,-0.002129301687433082,-0.26487,0.9613800000000001,9.91791
6353535290,21.9,0.05326744877086694,0.09054768159346581,0.0,-0.64746,1.06929,10.31031
6358585795,21.9,-0.03089232776029963,0.007452555906015787,0.0,-0.6867000000000001,0.43164,9.81
6363636300,21.9,-0.10438814256178083,-0.04260348704118158,0.001064650843716541,-0.45126,0.1962,9.91791
6368686805,21.9,-0.03408628029144926,-0.07243116395776468,0.005323254218582705,-0.42183,0.42183,10.12392
6373737310,21.9,-0.04366813788489812,-0.1331511686346474,0.001064650843716541,-0.24525000000000002,0.20601000000000003,9.87867
6378787815,21.9,-0.07777187146886733,-0.14913838458291545,0.001064650843716541,0.0,0.15696000000000002,9.96696
6383838320,21.9,-0.022375121010567305,-0.1374272253020335,0.002129301687433082,0.1962,0.27468000000000004,9.99639
6388888825,21.9,-0.023439771854283843,-0.10866419922916695,0.003193952531149623,0.37278,0.17658,9.84924
6393939330,21.9,-0.0404741853537485,-0.08203047484373349,0.001064650843716541,0.44145,0.14715,9.86886
6398989835,21.9,-0.008517206749732328,-0.04260348704118158,0.003193952531149623,0.50031,0.24525000000000002,9.84924
6404040340,21.9,-0.006387905062299246,-0.01064650843716541,0.003193952531149623,0.45126,0.13734000000000002,9.760950000000001
6409090845,21.9,-0.012775810124598492,-0.004258603374866164,0.002129301687433082,0.41202000000000005,0.14715,9.80019
6414141350,21.9,0.015987215948268057,0.011711159280881954,-0.003193952531149623,0.40221,0.23544,9.85905
6419191855,21.9,0.023439771854283843,0.0170518667919846,0.0,0.35316,0.24525000000000002,9.81
6424242360,21.9,0.023439771854283843,0.028763026072866547,0.0,0.41202000000000005,0.30411,9.86886
6429292865,21.9,0.03621558197888234,0.05326744877086694,-0.002129301687433082,0.35316,0.38259000000000004,9.87867
6434343370,21.9,0.03515093113516579,0.07349581480148122,-0.004258603374866164,0.28449,0.40221,9.89829
6439393875,21.9,0.024504422698000388,0.09480628496833199,-0.001064650843716541,0.21582,0.38259000000000004,9.89829
6444444380,21.9,0.021310470166850764,0.11079350091660004,-0.002129301687433082,0.06867000000000001,0.41202000000000005,9.85905
6449494885,21.9,0.015987215948268057,0.11185815176031658,-0.004258603374866164,-0.10791,0.36297,9.85905
6454545390,21.9,0.013840460968315033,0.10012953918691468,0.0,-0.28449,0.35316,9.83943
6459595895,21.9,0.01918116847941768,0.060720004676882725,-0.001064650843716541,-0.41202000000000005,0.3924,9.84924
6464646400,21.9,0.015987215948268057,0.01811651763570114,0.001064650843716541,-0.43164,0.40221,9.888480000000001
6469696905,21.9,0.00958185759344887,-0.020245819323134222,0.001064650843716541,-0.42183,0.45126,9.91791
6474747410,21.9,0.005323254218582705,-0.05859070298944965,0.001064650843716541,-0.2943,0.47088,9.94734
6479797915,21.9,-0.006387905062299246,-0.07456046564519776,0.002129301687433082,-0.12753,0.45126,9.99639
6484848420,21.9,-0.0170518667919846,-0.07136651311404815,0.0,0.019620000000000002,0.46107000000000004,9.97677
6489898925,21.9,-0.028763026072866547,-0.05220279792715039,0.002129301687433082,0.11772,0.3924,9.92772
6494949430,21.9,-0.028763026072866547,-0.039409534510031964,0.002129301687433082,0.07848000000000001,0.30411,9.91791
6499999935,21.9,-0.02769837522915001,-0.03834488366631542,0.001064650843716541,0.06867000000000001,0.28449,9.937529999999999
6505050440,21.9,-0.02663372438543347,-0.04366813788489812,0.003193952531149623,0.08829,0.25506,9.89829
6510100945,21.9,-0.028763026072866547,-0.05539675045830002,0.0,0.10791,0.22563,9.91791
6515151450,21.9,-0.02663372438543347,-0.06923721142661506,0.001064650843716541,0.22563,0.16677000000000003,9.89829
6520201955,21.9,-0.015987215948268057,-0.05965535383316618,0.001064650843716541,0.34335000000000004,0.20601000000000003,9.91791
6525252460,21.9,-0.002129301687433082,-0.04153883619746504,0.0,0.43164,0.24525000000000002,9.83943
6530302965,21.9,0.004258603374866164,0.001064650843716541,0.0,0.47088,0.26487,9.81
6535353470,21.9,0.00958185759344887,0.0404741853537485,0.0,0.38259000000000004,0.24525000000000002,9.78057
6540403975,21.9,0.013840460968315033,0.06284930636431581,-0.001064650843716541,0.30411,0.26487,9.751140000000001
6545454480,21.9,0.014905111812031574,0.08096582400001695,-0.002129301687433082,0.17658,0.25506,9.770760000000001
6550504985,21.9,0.015987215948268057,0.07030186227033158,-0.004258603374866164,0.019620000000000002,0.26487,9.80019
6555555490,21.9,0.020245819323134222,0.046879543708567686,-0.001064650843716541,-0.06867000000000001,0.27468000000000004,9.888480000000001
6560605995,21.9,0.02556907354171693,0.03089232776029963,-0.001064650843716541,-0.07848000000000001,0.33354000000000006,9.89829
6565656500,21.9,0.031956978604016174,0.01811651763570114,0.0,-0.02943,0.41202000000000005,9.888480000000001
6570707005,21.9,0.028763026072866547,0.01918116847941768,0.0,-0.019620000000000002,0.46107000000000004,9.937529999999999
6575757510,21.9,0.021310470166850764,0.020245819323134222,0.0,-0.02943,0.51012,9.92772
6580808015,21.9,0.008517206749732328,0.02556907354171693,0.0,-0.02943,0.49050000000000005,9.937529999999999
6585858520,21.9,-0.004258603374866164,0.01918116847941768,0.0,-0.07848000000000001,0.42183,9.937529999999999
6590909025,21.9,-0.01918116847941768,0.007452555906015787,0.0,-0.13734000000000002,0.37278,9.94734
6595959530,21.9,-0.022375121010567305,-0.005323254218582705,0.0,-0.14715,0.2943,9.95715
6601010035,21.9,-0.020245819323134222,-0.023439771854283843,-0.001064650843716541,-0.16677000000000003,0.2943,9.97677
6606060540,21.9,-0.011711159280881954,-0.04794419455228423,0.001064650843716541,-0.11772,0.31392000000000003,9.95715
6611111045,21.9,-0.008517206749732328,-0.05965535383316618,0.0,0.0,0.33354000000000006,9.937529999999999
6616161550,21.9,-0.011711159280881954,-0.060720004676882725,0.0,0.0981,0.32373,9.908100000000001
6621212055,21.9,-0.012775810124598492,-0.05752605214573309,0.002129301687433082,0.1962,0.31392000000000003,9.83943
6626262560,21.9,-0.01811651763570114,-0.0404741853537485,0.0,0.26487,0.2943,9.83943
6631313065,21.9,-0.011711159280881954,-0.023439771854283843,0.0,0.28449,0.26487,9.819809999999999
6636363570,21.9,-0.00958185759344887,-0.0,-0.001064650843716541,0.25506,0.24525000000000002,9.82962
6641414075,21.9,-0.005323254218582705,0.01064650843716541,0.0,0.21582,0.24525000000000002,9.82962
6646464580,21.9,0.002129301687433082,0.012775810124598492,0.001064650843716541,0.15696000000000002,0.23544,9.82962
6651515085,21.9,0.008517206749732328,0.012775810124598492,0.0,0.12753,0.26487,9.83943
6656565590,21.9,0.01064650843716541,0.006387905062299246,0.002129301687433082,0.13734000000000002,0.30411,9.819809999999999
6661616095,21.9,0.012775810124598492,0.004258603374866164,-0.002129301687433082,0.15696000000000002,0.33354000000000006,9.85905
6666666600,21.9,0.012775810124598492,0.01918116847941768,0.001064650843716541,0.1962,0.34335000000000004,9.85905
6671717105,21.9,0.011711159280881954,0.03408628029144926,-0.002129301687433082,0.15696000000000002,0.34335000000000004,9.87867
6676767610,21.9,0.013840460968315033,0.04366813788489812,0.0,0.11772,0.34335000000000004,9.92772
6681818115,21.9,0.008517206749732328,0.05326744877086694,-0.001064650843716541,0.019620000000000002,0.33354000000000006,9.92772
6686868620,21.9,0.008517206749732328,0.04794419455228423,0.0,-0.05886,0.34335000000000004,9.92772
6691919125,21.9,0.006387905062299246,0.03515093113516579,0.001064650843716541,-0.13734000000000002,0.37278,9.95715
6696969630,21.9,0.007452555906015787,0.008517206749732328,0.0,-0.16677000000000003,0.38259000000000004,9.937529999999999
