#timestamp [ns], temperature [degC], w_RS_S_x [rad s^-1], w_RS_S_y [rad s^-1], w_RS_S_z [rad s^-1], a_RS_S_x [m s^-2], a_RS_S_y [m s^-2], a_RS_S_z [m s^-2]
0.0,22.09,0.0,0.0,0.0,0.31392,0.27468,9.85905
5000000.0,22.09,0.0,0.0,0.0,0.343055700291357,0.226120499514405,9.86876190009712
10000000.0,22.09,0.0,0.0,0.0,0.372191400582714,0.23524380019423802,9.859246199805762
15000000.0,22.09,0.0,0.0,0.0,0.325201498543215,0.254471400582714,9.868565700291358
20000000.0,22.09,0.0,0.0,0.0,0.32373,0.24564239961152398,9.86886
25000000.0,22.09,0.0,0.0,0.0,0.32373,0.24525,9.878179500485595
30000000.0,22.09,0.0,0.0,0.0,0.32373,0.26369280116542804,9.841784397669144
35000000.0,22.09,0.0,0.0,0.0,0.32373,0.26487,9.8667999020395
40000000.0,22.09,0.0,0.0,0.0,0.341780401553904,0.255844799223048,9.859834799223048
45000000.0,22.09,0.0,0.0,0.0,0.36120420174814205,0.24613289912592898,9.867977100874072
50000000.0,22.09,0.0,0.0,0.0,0.35414099902880997,0.25407900097119,9.87768900097119
55000000.0,22.09,0.0,0.0,0.0,0.35316,0.25506,9.87867
60000000.0,22.09,0.0,0.0,0.0,0.30999599417285995,0.272325602330856,9.861404397669144
65000000.0,22.09,0.0,0.0,0.0,0.3553182075752821,0.27468,9.867584701262547
70000000.0,22.09,0.0,0.0,0.0,0.329223594561336,0.266243398640334,9.851986797280668
75000000.0,22.09,0.0,0.0,0.0,0.31539149854321497,0.23985449562964498,9.83256299708643
80000000.0,22.09,0.0,0.0,0.0,0.33864120466171205,0.24368040155390402,9.82962
85000000.0,22.09,0.0,0.0,0.0,0.31892309504693095,0.22082309504693096,9.878473809906138
90000000.0,22.09,0.0,0.0,0.0,0.330008403496284,0.23995260524442605,9.872391596503716
95000000.0,22.09,0.0,0.0,0.0,0.3573783055357831,0.26114220369052205,9.892698305535783
100000000.0,22.09,0.0,0.0,0.0,0.3237299902880999,0.25702199805762,9.866897992230479
105000000.0,22.09,0.0,0.0,0.0,0.31392,0.262809902039499,9.843550195921003
110000000.0,22.09,0.0,0.0,0.0,0.321571802136618,0.2342627914535279,9.870037208546472
115000000.0,22.09,0.0,0.0,0.0,0.33128370223373704,0.24073740446747405,9.871116297766262
120000000.0,22.09,0.0,0.0,0.0,0.33354,0.25270560233085604,9.86886
125000000.0,22.09,0.0,0.0,0.0,0.326182497572025,0.2256299902880999,9.85414499514405
130000000.0,22.09,0.0,0.0,0.0,0.31647059747490597,0.25211701262547015,9.863758805050187
135000000.0,22.09,0.0,0.0,0.0,0.31392,0.2935152104888521,9.854537394755575
140000000.0,22.09,0.0,0.0,0.0,0.32804640543866403,0.26879398640333985,9.870429608157997
145000000.0,22.09,0.0,0.0,0.0,0.34747020563290204,0.23416469155064693,9.87867
150000000.0,22.09,0.0,0.0,0.0,0.3325589912592899,0.23249700291357003,9.87867
155000000.0,22.09,0.0,0.0,0.0,0.3508056120427561,0.23544,9.858363290967933
160000000.0,22.09,0.0,0.0,0.0,0.34295759067657594,0.24878160621561607,9.84924
165000000.0,22.09,0.0,0.0,0.0,0.32696729679507297,0.24848729679507298,9.862385406409853
170000000.0,22.09,0.0,0.0,0.0,0.31725539669795394,0.23877539669795397,9.875334603302045
175000000.0,22.09,0.0,0.0,0.0,0.31392,0.22906349660083497,9.872293496600834
180000000.0,22.09,0.0,0.0,0.0,0.31392,0.22563,9.887695210488852
185000000.0,22.09,0.0,0.0,0.0,0.320100303593403,0.2627118215604182,9.873568785626388
190000000.0,22.09,0.0,0.0,0.0,0.3358944073810441,0.2662433889284339,9.877296611071566
195000000.0,22.09,0.0,0.0,0.0,0.33138179242471794,0.23710768863707687,9.870527688637077
200000000.0,22.09,0.0,0.0,0.0,0.3355020077695201,0.22563,9.87670801165428
205000000.0,22.09,0.0,0.0,0.0,0.34335,0.24299371194563713,9.87690419203624
210000000.0,22.09,0.0,0.0,0.0,0.33766019592100194,0.24937019592100196,9.86886
215000000.0,22.09,0.0,0.0,0.0,0.33354,0.25084170417611706,9.874451704176117
220000000.0,22.09,0.0,0.0,0.0,0.33354,0.26055360427323604,9.884163604273235
225000000.0,22.09,0.0,0.0,0.0,0.3227489912592899,0.2540789912592899,9.85610697377787
230000000.0,22.09,0.0,0.0,0.0,0.31921740446747404,0.25054740446747403,9.845512213402422
235000000.0,22.09,0.0,0.0,0.0,0.32373,0.24466139087081393,9.848651390870813
240000000.0,22.09,0.0,0.0,0.0,0.32373,0.2456424093234241,9.849632409323425
245000000.0,22.09,0.0,0.0,0.0,0.3437424190353242,0.24005068572350685,9.85905
250000000.0,22.09,0.0,0.0,0.0,0.3433499805761998,0.22072499514404995,9.8688600097119
255000000.0,22.09,0.0,0.0,0.0,0.3285369049530691,0.23985452476534525,9.883476904953069
260000000.0,22.09,0.0,0.0,0.0,0.32883119494981194,0.26016119494981194,9.879062389899623
265000000.0,22.09,0.0,0.0,0.0,0.3145085897053859,0.2642814102946141,9.845806474263465
270000000.0,22.09,0.0,0.0,0.0,0.30411,0.2611421842667218,9.855910841955408
275000000.0,22.09,0.0,0.0,0.0,0.31735351602463513,0.23642098931690989,9.876217473292275
280000000.0,22.09,0.0,0.0,0.0,0.3421728108773281,0.22563,9.87082202719332
285000000.0,22.09,0.0,0.0,0.0,0.34050508339265084,0.23406661107156612,9.889853388928433
290000000.0,22.09,0.0,0.0,0.0,0.3154895887341959,0.2534904112658041,9.87867
295000000.0,22.09,0.0,0.0,0.0,0.31617631719006317,0.25682578853995786,9.88269210573002
300000000.0,22.09,0.0,0.0,0.0,0.33354,0.24525,9.88455599417286
305000000.0,22.09,0.0,0.0,0.0,0.33354,0.24142409407574095,9.867192282227222
310000000.0,22.09,0.0,0.0,0.0,0.32608438795724387,0.2540790301068903,9.852967806021377
315000000.0,22.09,0.0,0.0,0.0,0.31392,0.2590820571705206,9.85905
320000000.0,22.09,0.0,0.0,0.0,0.3174516062156161,0.2264148186468482,9.862581606215615
325000000.0,22.09,0.0,0.0,0.0,0.33059701262547014,0.25211701262547015,9.86199298737453
330000000.0,22.09,0.0,0.0,0.0,0.35002081281970815,0.2548637807704378,9.862581625639416
335000000.0,22.09,0.0,0.0,0.0,0.3532580804790808,0.23867730650697308,9.885242693493026
340000000.0,22.09,0.0,0.0,0.0,0.33667920660409206,0.25152841320818414,9.88180920660409
345000000.0,22.09,0.0,0.0,0.0,0.3342266798963668,0.2557466798963668,9.876315573195155
350000000.0,22.09,0.0,0.0,0.0,0.31686300679833007,0.23838300679833008,9.85218300679833
355000000.0,22.09,0.0,0.0,0.0,0.32373,0.24525,9.861894906895449
360000000.0,22.09,0.0,0.0,0.0,0.32922361398513617,0.24799680699256807,9.871606806992569
365000000.0,22.09,0.0,0.0,0.0,0.3354038787309388,0.24976258582062585,9.87867
370000000.0,22.09,0.0,0.0,0.0,0.31902121437361214,0.23288939281319393,9.87867
375000000.0,22.09,0.0,0.0,0.0,0.32863498543214986,0.2329875218517752,9.876217492716075
380000000.0,22.09,0.0,0.0,0.0,0.3209832221431322,0.25976881476208813,9.86886
385000000.0,22.09,0.0,0.0,0.0,0.33658107756551076,0.2633984626091846,9.86209107756551
390000000.0,22.09,0.0,0.0,0.0,0.3182364151505641,0.22563,9.841588207575283
395000000.0,22.09,0.0,0.0,0.0,0.33560010767240106,0.22975021534480214,9.847179892327599
400000000.0,22.09,0.0,0.0,0.0,0.33942598446095984,0.24525,9.841392007769521
405000000.0,22.09,0.0,0.0,0.0,0.32745781573327815,0.24897781573327815,9.854831723599917
410000000.0,22.09,0.0,0.0,0.0,0.34335,0.2631041920362419,9.87690419203624
415000000.0,22.09,0.0,0.0,0.0,0.3416822919391229,0.25339229193912294,9.86886
420000000.0,22.09,0.0,0.0,0.0,0.32883117552601177,0.24995882447398823,9.867290391842003
425000000.0,22.09,0.0,0.0,0.0,0.30705301651023015,0.26879396697953967,9.86199301651023
430000000.0,22.09,0.0,0.0,0.0,0.3251034083522341,0.23544,9.877296591647765
435000000.0,22.09,0.0,0.0,0.0,0.33354,0.23799061689870618,9.867584691550647
440000000.0,22.09,0.0,0.0,0.0,0.3347172085464721,0.25506,9.860227208546473
445000000.0,22.09,0.0,0.0,0.0,0.3411917827128178,0.25398089135640894,9.867780891356409
450000000.0,22.09,0.0,0.0,0.0,0.3256920174814202,0.24819302622213027,9.85905
455000000.0,22.09,0.0,0.0,0.0,0.3424670911621709,0.2737970911621709,9.85905
460000000.0,22.09,0.0,0.0,0.0,0.33118557319515574,0.2633003821301038,9.85905
465000000.0,22.09,0.0,0.0,0.0,0.30548341806413415,0.24525,9.860423418064133
470000000.0,22.09,0.0,0.0,0.0,0.32314139087081395,0.2464272182583722,9.877492781741628
475000000.0,22.09,0.0,0.0,0.0,0.31342949077369486,0.2638889815473898,9.85905
480000000.0,22.09,0.0,0.0,0.0,0.3048948186468482,0.2448575906765759,9.858657590676575
485000000.0,22.09,0.0,0.0,0.0,0.3246129282616293,0.2360286188410862,9.85012292826163
490000000.0,22.09,0.0,0.0,0.0,0.3527675809646758,0.2544713714470137,9.878277580964676
495000000.0,22.09,0.0,0.0,0.0,0.33354,0.2257281096147811,9.85914810961478
500000000.0,22.09,0.0,0.0,0.0,0.33354,0.2354400097119001,9.8688599902881
505000000.0,22.09,0.0,0.0,0.0,0.33354,0.2451519098090191,9.859148090190981
510000000.0,22.09,0.0,0.0,0.0,0.3239261900938619,0.2548638099061381,9.85905
515000000.0,22.09,0.0,0.0,0.0,0.3332457100032571,0.2740914200065142,9.868565710003256
520000000.0,22.09,0.0,0.0,0.0,0.3523752202007522,0.2652623898996239,9.840607169698872
525000000.0,22.09,0.0,0.0,0.0,0.3065624490125245,0.24623097960500978,9.867388530592486
530000000.0,22.09,0.0,0.0,0.0,0.30411,0.24525,9.859638589705385
535000000.0,22.09,0.0,0.0,0.0,0.3223566207834662,0.2634966207834662,9.868173310391732
540000000.0,22.09,0.0,0.0,0.0,0.3508056314665563,0.2468195790222958,9.877885210488852
545000000.0,22.09,0.0,0.0,0.0,0.3353057788280578,0.2541771105859711,9.88759711058597
550000000.0,22.09,0.0,0.0,0.0,0.33354,0.2727180213661802,9.870821978633819
555000000.0,22.09,0.0,0.0,0.0,0.3248090892197909,0.28341091078020914,9.833936356879164
560000000.0,22.09,0.0,0.0,0.0,0.3064643782453438,0.2585915673680157,9.87278405438664
565000000.0,22.09,0.0,0.0,0.0,0.32117942194889426,0.22945586707665866,9.853065867076658
570000000.0,22.09,0.0,0.0,0.0,0.32373,0.23406661107156612,9.866113222143133
575000000.0,22.09,0.0,0.0,0.0,0.32373,0.23544,9.86886
580000000.0,22.09,0.0,0.0,0.0,0.3319704112658041,0.26016123379741235,9.86886
585000000.0,22.09,0.0,0.0,0.0,0.30911306591123067,0.26487,9.860717688637077
590000000.0,22.09,0.0,0.0,0.0,0.3121542114600421,0.2568257885399579,9.867094211460042
595000000.0,22.09,0.0,0.0,0.0,0.3377583346714833,0.26300611155716114,9.852967776885677
600000000.0,22.09,0.0,0.0,0.0,0.34335,0.2570219883457199,9.86493602330856
605000000.0,22.09,0.0,0.0,0.0,0.3356000882486009,0.2628099117513991,9.861110088248601
610000000.0,22.09,0.0,0.0,0.0,0.33354,0.2572181881514819,9.85905
615000000.0,22.09,0.0,0.0,0.0,0.34864742389127423,0.23995257610872578,9.851496288054364
620000000.0,22.09,0.0,0.0,0.0,0.34570438795724384,0.25035122408551225,9.88651806021378
625000000.0,22.09,0.0,0.0,0.0,0.32863497572024974,0.24034497572024976,9.89829
630000000.0,22.09,0.0,0.0,0.0,0.31647058776300585,0.24995882447398826,9.869252351052022
635000000.0,22.09,0.0,0.0,0.0,0.32108131233411313,0.24073737533177375,9.844727375331773
640000000.0,22.09,0.0,0.0,0.0,0.32373,0.25662963729369637,9.853556424862465
645000000.0,22.09,0.0,0.0,0.0,0.32373,0.26487,9.85208488747165
650000000.0,22.09,0.0,0.0,0.0,0.33059701262547014,0.25800298737452987,9.86297402525094
655000000.0,22.09,0.0,0.0,0.0,0.34707782544517823,0.24829108727741087,9.875628912722588
660000000.0,22.09,0.0,0.0,0.0,0.33981837436058376,0.2385791871802919,9.87867
665000000.0,22.09,0.0,0.0,0.0,0.3269672870831729,0.2551581387504814,9.872097287083173
670000000.0,22.09,0.0,0.0,0.0,0.3172553869860539,0.25839538698605385,9.86886
675000000.0,22.09,0.0,0.0,0.0,0.30754348688893485,0.26143651311106514,9.862483486888936
680000000.0,22.09,0.0,0.0,0.0,0.3166668264163683,0.2585915867918159,9.846493173583632
685000000.0,22.09,0.0,0.0,0.0,0.31754968669469685,0.24269937338939374,9.851790626610606
690000000.0,22.09,0.0,0.0,0.0,0.33824885360968854,0.2171933597927336,9.865132213402422
695000000.0,22.09,0.0,0.0,0.0,0.34119177300091774,0.2419146809972468,9.87484411349954
700000000.0,22.09,0.0,0.0,0.0,0.33942601359666014,0.26487,9.87278398640334
705000000.0,22.09,0.0,0.0,0.0,0.33177417261244174,0.25908208630622087,9.857284172612442
710000000.0,22.09,0.0,0.0,0.0,0.32941981379089813,0.24937018620910187,9.871999255163592
715000000.0,22.09,0.0,0.0,0.0,0.33354,0.23965828611198287,9.894071713888017
720000000.0,22.09,0.0,0.0,0.0,0.32804638601486386,0.2189591580445916,9.876315544059455
725000000.0,22.09,0.0,0.0,0.0,0.3183344859177449,0.2329875704112757,9.85905
730000000.0,22.09,0.0,0.0,0.0,0.3245148283587483,0.26035741417937414,9.864347414179374
735000000.0,22.09,0.0,0.0,0.0,0.3283406857235069,0.2700693142764931,9.848062742894028
740000000.0,22.09,0.0,0.0,0.0,0.33903364312083645,0.2695787856263878,9.850024857494448
745000000.0,22.09,0.0,0.0,0.0,0.3581631144707311,0.24485754211707542,9.878866228941462
750000000.0,22.09,0.0,0.0,0.0,0.34334994172859945,0.23544002913570028,9.88357498543215
755000000.0,22.09,0.0,0.0,0.0,0.32373,0.24525,9.87386308533503
760000000.0,22.09,0.0,0.0,0.0,0.31902118523791184,0.24995881476208814,9.878277629524176
765000000.0,22.09,0.0,0.0,0.0,0.31392,0.2642814297184143,9.870037140563172
770000000.0,22.09,0.0,0.0,0.0,0.3229452299126523,0.26565477008734767,9.867290459825304
775000000.0,22.09,0.0,0.0,0.0,0.33354,0.25064548494655486,9.87965096989311
780000000.0,22.09,0.0,0.0,0.0,0.3249071696988717,0.24093358484943586,9.873176415150564
785000000.0,22.09,0.0,0.0,0.0,0.31813831524768316,0.23965831524768316,9.87867
790000000.0,22.09,0.0,0.0,0.0,0.32373,0.24112978465519785,9.874549784655198
795000000.0,22.09,0.0,0.0,0.0,0.3277521154419212,0.24750634632576346,9.872882115441922
800000000.0,22.09,0.0,0.0,0.0,0.3413880310780803,0.2727180310780803,9.87082196892192
805000000.0,22.09,0.0,0.0,0.0,0.3416822530915225,0.27301225309152255,9.86287591563616
810000000.0,22.09,0.0,0.0,0.0,0.32745781573327815,0.24387655280016554,9.861404368533444
815000000.0,22.09,0.0,0.0,0.0,0.32991028416960283,0.22563,9.852869715830398
820000000.0,22.09,0.0,0.0,0.0,0.32019838407248385,0.23622484778254849,9.85905
825000000.0,22.09,0.0,0.0,0.0,0.31392,0.25506,9.872784064098541
830000000.0,22.09,0.0,0.0,0.0,0.3172554161217542,0.2650662483652625,9.89829
835000000.0,22.09,0.0,0.0,0.0,0.32373,0.28125268378112683,9.88857805134338
840000000.0,22.09,0.0,0.0,0.0,0.3268692163159922,0.2652623510520235,9.86886
845000000.0,22.09,0.0,0.0,0.0,0.32137553434755534,0.24525,9.862777767173778
850000000.0,22.09,0.0,0.0,0.0,0.3060720660409207,0.24525,9.84924
855000000.0,22.09,0.0,0.0,0.0,0.32785016678530166,0.24240508339265082,9.85208491660735
860000000.0,22.09,0.0,0.0,0.0,0.330400900226809,0.2436804501134045,9.85905
865000000.0,22.09,0.0,0.0,0.0,0.35953641599206415,0.26487,9.861698716801587
870000000.0,22.09,0.0,0.0,0.0,0.3186287662025877,0.2623193831012938,9.866309383101294
875000000.0,22.09,0.0,0.0,0.0,0.3090150339916503,0.25260748300417485,9.86395503399165
880000000.0,22.09,0.0,0.0,0.0,0.3213755829070558,0.24525,9.876315582907056
885000000.0,22.09,0.0,0.0,0.0,0.31617631719006317,0.24299368280993683,9.864347365619873
890000000.0,22.09,0.0,0.0,0.0,0.32373,0.23759821728718217,9.853556434574365
895000000.0,22.09,0.0,0.0,0.0,0.32785023476860237,0.24318988261569882,9.86886
900000000.0,22.09,0.0,0.0,0.0,0.34335,0.2432880699256807,9.86886
905000000.0,22.09,0.0,0.0,0.0,0.34335,0.26908824726438246,9.863268247264383
910000000.0,22.09,0.0,0.0,0.0,0.3415841823243418,0.24348418232434182,9.846493270702632
915000000.0,22.09,0.0,0.0,0.0,0.3318722822272228,0.23210456445444566,9.88367315331833
920000000.0,22.09,0.0,0.0,0.0,0.32216038213010384,0.22209847147958472,9.898682292780622
925000000.0,22.09,0.0,0.0,0.0,0.3168630359340303,0.2521169640659697,9.84924
930000000.0,22.09,0.0,0.0,0.0,0.3362868361282684,0.23818683612826838,9.850613418064134
935000000.0,22.09,0.0,0.0,0.0,0.3480587273549873,0.25506,9.856499363677493
940000000.0,22.09,0.0,0.0,0.0,0.3127427817416278,0.2527055634832556,9.841784436516745
945000000.0,22.09,0.0,0.0,0.0,0.3084264734219647,0.23544,9.862287355066474
950000000.0,22.09,0.0,0.0,0.0,0.34138796309477965,0.23642101845261018,9.885536944642169
955000000.0,22.09,0.0,0.0,0.0,0.32196416290054164,0.24613291854972918,9.85905
960000000.0,22.09,0.0,0.0,0.0,0.30567963729369635,0.25506,9.861404455940544
965000000.0,22.09,0.0,0.0,0.0,0.3244167187439672,0.25506,9.885046406280164
970000000.0,22.09,0.0,0.0,0.0,0.33589447536434475,0.25506,9.840018618841086
975000000.0,22.09,0.0,0.0,0.0,0.37032740530897407,0.25309792424717925,9.85022103787641
980000000.0,22.09,0.0,0.0,0.0,0.32373,0.2162124190353242,9.868467580964676
985000000.0,22.09,0.0,0.0,0.0,0.32402431913244323,0.22651295739732957,9.85993295739733
990000000.0,22.09,0.0,0.0,0.0,0.33354,0.25506,9.888087561540875
995000000.0,22.09,0.0,0.0,0.0,0.33354,0.25545247730672477,9.869056238653362
1000000000.0,22.09,0.0,0.0,0.0,0.3335400388476004,0.29429990288099905,9.888479961152399
1005000000.0,22.09,0.0,0.0,0.0,0.35296383904183837,0.245740402395404,9.869056160958161
1010000000.0,22.09,0.0,0.0,0.0,0.33393236076392363,0.23563618038196182,9.86886
1015000000.0,22.09,0.0,0.0,0.0,0.31450856056968557,0.2259242802848428,9.878375719715157
1020000000.0,22.09,0.0,0.0,0.0,0.3233376198122762,0.21621238018772382,9.87867
1025000000.0,22.09,0.0,0.0,0.0,0.3144104800906048,0.26241759954697597,9.887989519909395
1030000000.0,22.09,0.0,0.0,0.0,0.3323628400130284,0.2372057399804574,9.851594319973943
1035000000.0,22.09,0.0,0.0,0.0,0.35178664020726635,0.2536866402072664,9.84924
1040000000.0,22.09,0.0,0.0,0.0,0.31705911919699115,0.25506,9.858265220200751
1045000000.0,22.09,0.0,0.0,0.0,0.3317742405957424,0.2461328797021288,9.85905
1050000000.0,22.09,0.0,0.0,0.0,0.32471097960500983,0.2364209796050098,9.867879020394989
1055000000.0,22.09,0.0,0.0,0.0,0.3149990795078908,0.2267090795078908,9.842667238523672
1060000000.0,22.09,0.0,0.0,0.0,0.32255282058922824,0.2428956411784564,9.856695641178456
1065000000.0,22.09,0.0,0.0,0.0,0.3493341620590416,0.24525,9.850515279313653
1070000000.0,22.09,0.0,0.0,0.0,0.31941351686613517,0.24525,9.874549862350399
1075000000.0,22.09,0.0,0.0,0.0,0.3472740835223408,0.26192704176117043,9.870331479119415
1080000000.0,22.09,0.0,0.0,0.0,0.3366791580445916,0.24838915804459158,9.844138737066887
1085000000.0,22.09,0.0,0.0,0.0,0.3253976789251768,0.2615346421496464,9.86385696322447
1090000000.0,22.09,0.0,0.0,0.0,0.30764155765611556,0.24073733648417336,9.876904221171943
1095000000.0,22.09,0.0,0.0,0.0,0.3120561212690612,0.2433861212690612,9.862777757461878
1100000000.0,22.09,0.0,0.0,0.0,0.3217680213661802,0.24525,9.86689802136618
1105000000.0,22.09,0.0,0.0,0.0,0.35472968585319686,0.22200023561010238,9.86886
1110000000.0,22.09,0.0,0.0,0.0,0.34001453531874537,0.21582,9.876511821560419
1115000000.0,22.09,0.0,0.0,0.0,0.3486474433150744,0.22337372165753722,9.87867
1120000000.0,22.09,0.0,0.0,0.0,0.3457043782453438,0.23308562175465622,9.871214378245343
1125000000.0,22.09,0.0,0.0,0.0,0.3212774344446743,0.24279752185177522,9.861502478148225
1130000000.0,22.09,0.0,0.0,0.0,0.31392,0.2597688438977884,9.873568843897788
1135000000.0,22.09,0.0,0.0,0.0,0.31392,0.25054735590797356,9.864347355907974
1140000000.0,22.09,0.0,0.0,0.0,0.32804644428626445,0.24525,9.873176444286264
1145000000.0,22.09,0.0,0.0,0.0,0.3265748777597488,0.23828487775974877,9.857774633279247
1150000000.0,22.09,0.0,0.0,0.0,0.3168629776626298,0.24917404467474047,9.85610702233737
1155000000.0,22.09,0.0,0.0,0.0,0.31392,0.25506,9.879356767303467
1160000000.0,22.09,0.0,0.0,0.0,0.34060329012643287,0.26840164506321645,9.875138354936784
1165000000.0,22.09,0.0,0.0,0.0,0.34001455474254555,0.2483891094850911,9.862287277371273
1170000000.0,22.09,0.0,0.0,0.0,0.33354,0.24838924545169247,9.871999245451692
1175000000.0,22.09,0.0,0.0,0.0,0.3399165228229652,0.2614365228229652,9.859540431531105
1180000000.0,22.09,0.0,0.0,0.0,0.33079315415983157,0.26487,9.861796845840168
1185000000.0,22.09,0.0,0.0,0.0,0.33609064603440647,0.24632903094839032,9.862679676982797
1190000000.0,22.09,0.0,0.0,0.0,0.3251033306570333,0.22935777688567777,9.871214446228644
1195000000.0,22.09,0.0,0.0,0.0,0.3318723696343237,0.25555061605720614,9.87867
1200000000.0,22.09,0.0,0.0,0.0,0.34335,0.26879397669143973,9.88455602330856
1205000000.0,22.09,0.0,0.0,0.0,0.34335,0.26487,9.88269207659432
1210000000.0,22.09,0.0,0.0,0.0,0.3262805294916053,0.25918017649720176,9.867290352994404
1215000000.0,22.09,0.0,0.0,0.0,0.3306951707997517,0.24946827640008276,9.85905
1220000000.0,22.09,0.0,0.0,0.0,0.3378563763029638,0.2562372473940725,9.864543623697037
1225000000.0,22.09,0.0,0.0,0.0,0.3227489524116895,0.24868342861753429,9.874255523794154
1230000000.0,22.09,0.0,0.0,0.0,0.3298122716738227,0.2513322716738227,9.873372576108725
1235000000.0,22.09,0.0,0.0,0.0,0.33815067601160675,0.2544713520232135,9.879258647976785
1240000000.0,22.09,0.0,0.0,0.0,0.3386412240855122,0.25545244817102447,9.878277551828974
1245000000.0,22.09,0.0,0.0,0.0,0.3383468758173688,0.2748762483652625,9.87386312418263
1250000000.0,22.09,0.0,0.0,0.0,0.33354,0.27958497572024976,9.86395492716075
1255000000.0,22.09,0.0,0.0,0.0,0.33834692437686925,0.2506453781156538,9.854046924376869
1260000000.0,22.09,0.0,0.0,0.0,0.3339323510520235,0.23504764894797647,9.85905
1265000000.0,22.09,0.0,0.0,0.0,0.32834072457110725,0.24063927542889277,9.854439275428893
1270000000.0,22.09,0.0,0.0,0.0,0.3380526246682262,0.24897787400467875,9.853752624668227
1275000000.0,22.09,0.0,0.0,0.0,0.3389354752346547,0.26487,9.872293574296036
1280000000.0,22.09,0.0,0.0,0.0,0.32922357513753575,0.26918642486246425,9.884163575137535
1285000000.0,22.09,0.0,0.0,0.0,0.31529335008083353,0.27468,9.86601502512125
1290000000.0,22.09,0.0,0.0,0.0,0.30411,0.26231932482989323,9.853360225056703
1295000000.0,22.09,0.0,0.0,0.0,0.30008787484617877,0.24525,9.85905
1300000000.0,22.09,0.0,0.0,0.0,0.309996101003761,0.24132597474905976,9.85512597474906
1305000000.0,22.09,0.0,0.0,0.0,0.348843701392237,0.24309185069611852,9.853065925348059
1310000000.0,22.09,0.0,0.0,0.0,0.36905217455482175,0.25878782544517825,9.862777825445178
1315000000.0,22.09,0.0,0.0,0.0,0.348451097830811,0.25761054891540547,9.86886
1320000000.0,22.09,0.0,0.0,0.0,0.32019837436058374,0.24878162563941625,9.872391625639416
1325000000.0,22.09,0.0,0.0,0.0,0.3207870514730705,0.2481929485269295,9.871802948526929
1330000000.0,22.09,0.0,0.0,0.0,0.3268691483326915,0.24211085166730853,9.865720851667309
1335000000.0,22.09,0.0,0.0,0.0,0.3171573259307732,0.25182267406922676,9.875432674069227
1340000000.0,22.09,0.0,0.0,0.0,0.33000845205578455,0.2515284520557845,9.865720773972107
1345000000.0,22.09,0.0,0.0,0.0,0.34335,0.2587877477499775,9.852967747749977
1350000000.0,22.09,0.0,0.0,0.0,0.34335,0.24819302622213027,9.848259078666391
1355000000.0,22.09,0.0,0.0,0.0,0.3405050736807507,0.24937014736150148,9.874549852638498
1360000000.0,22.09,0.0,0.0,0.0,0.33354,0.23818682641636826,9.885733173583631
1365000000.0,22.09,0.0,0.0,0.0,0.33618872651348725,0.2505474530269745,9.876021273486513
1370000000.0,22.09,0.0,0.0,0.0,0.3407993733893937,0.2623193733893937,9.871410626610606
1375000000.0,22.09,0.0,0.0,0.0,0.3310874732922747,0.25260747329227473,9.87867
1380000000.0,22.09,0.0,0.0,0.0,0.3260844268048443,0.24995885360968853,9.876315573195155
1385000000.0,22.09,0.0,0.0,0.0,0.33579632690196326,0.26712632690196325,9.873372653803926
1390000000.0,22.09,0.0,0.0,0.0,0.3368753190027532,0.26388886500458864,9.882005319002753
1395000000.0,22.09,0.0,0.0,0.0,0.31598012709620127,0.22563,9.854929745807597
1400000000.0,22.09,0.0,0.0,0.0,0.32176797280667974,0.22955405438664053,9.83550594561336
1405000000.0,22.09,0.0,0.0,0.0,0.3120560727095607,0.2545696364521964,9.817946072709562
1410000000.0,22.09,0.0,0.0,0.0,0.30057834522488347,0.29253417261244175,9.802936690449767
1415000000.0,22.09,0.0,0.0,0.0,0.2778190900612909,0.29116090993870913,9.767424545030645
1420000000.0,22.09,0.0,0.0,0.0,0.23583223450922233,0.3488440413087404,9.737013351763833
1425000000.0,22.09,-0.00015970063046986057,0.00543243947909792,-0.0007985031523493329,0.18197541696325417,0.4041705606964056,9.645191667853018
1430000000.0,22.09,-0.004942501800977908,0.05709537809091679,-0.0029383880974187915,0.09515575007845749,-0.11183566656205668,9.553370566656206
1435000000.0,22.09,-0.022253329287876978,0.19975743647853303,0.008389376048666963,-0.5803660665715606,-0.4790192618262927,9.561904180185941
1440000000.0,22.09,0.023865692902420715,0.26099221041565784,-0.011029715959187994,-2.5274476168323763,0.39710751336747513,9.448603599748935
1445000000.0,22.09,0.044127897258752234,0.01397425904457489,0.0068882208991770996,-2.3914845506043454,0.23524991869129921,10.448919209376092
1450000000.0,22.09,0.0557161243151267,0.06412233241578501,-0.011602854062159149,-3.146064099055441,2.0561736341811363,8.72698095695381
1455000000.0,22.09,0.03894128948541958,-0.25561175061228975,0.017252552001308902,-2.1898848021336477,1.3560376282965763,10.054850365022904
1460000000.0,22.09,-0.07605983175190126,-0.14053343584183575,0.0085172067497323,-1.4153759102406591,1.535452522223025,8.045779582279396
1465000000.0,22.09,-0.2242460309686484,-0.4161822904198425,0.0085172067497323,2.0949273496313734,-1.2756944488224446,11.035849860004099
1470000000.0,22.09,-0.1644800307312047,-0.18957228291861997,0.008070031703961915,2.66262897222159,-1.8748844018073438,8.696179481269695
1475000000.0,22.09,0.0004287521038098636,-0.2520340590990247,0.0011178864952151452,2.3450851126669514,-0.9098739187368392,10.842988587883786
1480000000.0,22.09,0.0909743493086485,-0.17355134154405105,0.0020441233802299527,3.7638948205773493,0.3347230356865304,9.387383705144337
1485000000.0,22.09,0.12414239485430649,0.06153099826453525,3.1942655704402084e-05,1.8388878170994782,2.2355998327592985,8.899141644221718
1490000000.0,22.09,0.03744924063973871,0.16193941815462876,0.0010007623702946583,2.899046164185562,1.8746896976341971,8.919444177136743
1495000000.0,22.09,-0.05975221425801174,0.4224622572642764,-0.002118652027522841,1.2173202574891027,1.415378901505889,7.6062884531051855
1500000000.0,22.09,-0.17470730940634696,0.2727077177582052,-0.0010646318716382751,0.3335329491605295,-1.22625300097713,9.898290291357002
1505000000.0,22.09,-0.12513454763329923,0.2800857481789411,0.0052593942032781935,-2.0167468743422687,-2.226578710980387,9.995409292328192
1510000000.0,22.09,-0.03694032421379266,0.1360909107647966,-0.004066994870835243,-3.7805831087188313,-0.5542598672607988,11.169277178252472
1515000000.0,22.09,0.09607153087808307,-0.12619561185573583,-0.00529131788690437,-1.3420003489651031,1.544983285671433,10.63178196380362
1520000000.0,22.09,0.12160972269722407,-0.24671032188727016,0.007963629965251448,-0.9547082257021823,1.768939701910997,10.36014400284724
1525000000.0,22.09,-0.034348578223303936,-0.20384383351320248,0.002448677652268436,-0.18687810067508104,1.5705803483315035,9.89289304855653
1530000000.0,22.09,-0.14875126357731433,-0.2013411825100658,0.008133951797514131,1.125407301141173,-0.007853052130430527,9.693652835350129
1535000000.0,22.09,-0.15255590408386543,-0.20926221067366357,0.0025764356270339007,1.4347132453883324,-1.1570929287863294,9.746333308708733
1540000000.0,22.09,-0.07686405013050378,-0.14518046160665243,0.002129301687433,2.1738983930121836,-1.1728833906114338,9.71503908034939
1545000000.0,22.09,-0.0024516104452789456,-0.0009336342158103028,0.0001916306381221128,2.1027730498534303,-0.247895608993556,9.470867489736175
1550000000.0,22.09,0.03493636024796574,0.0779797879946632,-0.006707323187308435,2.38088799352738,0.929010703147507,9.809020234382503
1555000000.0,22.09,0.02223666067567437,0.18286790829982952,-0.0017673007328483188,1.627476281639163,0.7178946522476466,9.569850233471703
1560000000.0,22.09,-0.012576259663264363,0.22869479917260932,-0.002938442905644746,0.0714116791093169,0.6078273575909736,9.777039248431594
1565000000.0,22.09,-0.029093110721855484,0.16100514427913196,-0.0022677029980825558,-0.656683284691333,0.49599323522103234,10.202597598319375
1570000000.0,22.09,-0.03821715204165855,0.07874096902591463,-0.0002980956170933282,-1.28413098219881,-0.059254351703443564,9.906921519194615
1575000000.0,22.09,-0.047568978698556676,0.014590759871222415,0.003619826149090942,-1.3066917552601176,0.2864535908092359,9.932625305924853
1580000000.0,22.09,-0.0490088453960007,-0.060885010335848956,0.003364293335490507,-1.0229857872430579,0.39593172275841726,9.741329232759892
1585000000.0,22.09,-0.04545970494252147,-0.1486506746898498,0.0005429619067141033,-0.2628072215550723,0.28007503819915036,9.70209
1590000000.0,22.09,-0.06220744135505511,-0.17802608084706192,0.0026190511307441306,0.8636761678287619,-0.08279769712137697,9.862974617676846
1595000000.0,22.09,-0.0660432588954654,-0.10947619622895666,0.0014692114397810625,1.2936455364859554,-0.2443674407905744,9.580444760761548
1600000000.0,22.09,-0.03196033429467182,-0.019386827103280893,0.0010646508437165,1.5244747147958473,0.24525202007522034,9.411713627063037
1605000000.0,22.09,-0.006604432699927845,0.051109733562575636,0.0027468059434965493,1.2673526841672267,0.7757764211103642,9.488919105277592
1610000000.0,22.09,0.002022853572531396,0.0816008427154099,-0.0009582027288147959,0.9115440741965408,0.8982036625446366,9.270841399285814
1615000000.0,22.09,-0.0435606452344109,0.08792864732679116,0.001149836528949968,0.28998134140051346,0.49461850605038504,9.337747164649873
1620000000.0,22.09,-0.07857690616519636,0.026074955903841505,0.0013201636312343795,-0.43909799145828,-0.04473536212715362,9.572206418130463
1625000000.0,22.09,-0.0860229189331846,-0.012788982362483343,0.002661633960319573,-0.036785006469650106,-0.4488086678559867,9.63342
1630000000.0,22.09,-0.07209495163852674,-0.02390823884184409,0.0008304173499363941,-0.03904465484144656,-0.31450761851537623,9.872981244806212
1635000000.0,22.09,-0.0258909040062136,-0.04812057281446927,-0.0015543971250145117,0.46499654063306556,0.3446278723909788,9.985795327031653
1640000000.0,22.09,-0.0037475398556739035,-0.03191916880720261,-0.0005961975582127314,0.8675972600858727,0.7851934193610343,9.855125362899354
1645000000.0,22.09,-0.022242398606217958,0.0048622631801747244,-0.0007559055667130127,0.6910152497225526,0.719857097052671,9.674817624861276
1650000000.0,22.09,-0.05400757625537697,0.04655505513150456,0.0011711263627311736,0.4237912308175123,0.3757216859799169,9.657945160246351
1655000000.0,22.09,-0.07714902631360214,0.046420284727596337,0.002129301687433,-0.02590020019780198,-0.11046233590502336,9.794500778635008
1660000000.0,22.09,-0.07801549488001924,0.007883843771494092,0.0014053356144113518,-0.14283334205193343,-0.3680716514091165,9.935960819165608
1665000000.0,22.09,-0.05921876626104952,-0.03029047607352809,0.0010646508437165,0.02030737915317378,-0.2608471561655715,10.068788252768783
1670000000.0,22.09,-0.035667820153656105,-0.06052252851337986,-0.0010433683879657151,0.3796484596985846,0.06612066507210662,10.11411
1675000000.0,22.09,-0.027006348649819652,-0.041917427819767,-0.000745248528772433,0.8103074315340744,0.2663418578835186,10.050344674651347
1680000000.0,22.09,-0.02799648454829979,0.02450329221786383,0.0,0.6160662052408621,0.37317275895182755,9.91555507788825
1685000000.0,22.09,-0.03547036190822716,0.05930405102269151,0.0006707335835360404,0.3909283363544834,0.4923643254783433,9.98883698731117
1690000000.0,22.09,-0.04932166189438066,0.03312374531103411,0.0017247379293554189,0.13557291977732921,0.4057408778231088,9.998155438911555
1695000000.0,22.09,-0.058643953397009105,-0.024082616586502074,0.0027787422751748584,0.07396786092677862,0.16814254399312545,9.885340404919905
1700000000.0,22.09,-0.07222877032834707,-0.0553967862944477,0.0038327466209942757,0.3041109906138099,-0.12556908967519093,9.757025537713556
1705000000.0,22.09,-0.0799011731563004,-0.0514894351378476,0.003002308190970932,0.491285197410952,-0.3997583279394833,9.667362401294525
1710000000.0,22.09,-0.059503391115125454,-0.030367242544834746,0.0008942994993321345,0.7330043292997434,-0.15892000711810012,9.717197831791077
1715000000.0,22.09,-0.027124057004165404,-0.0003587275626617849,0.0,0.8171726668818268,0.35110146565541467,9.737209600129095
1720000000.0,22.09,-0.017427483461102383,0.03651591650855125,-0.0005962080982561896,0.6706109652302097,0.7031817354502174,9.62400186545702
1725000000.0,22.09,-0.03312817453103419,0.05784546921673797,0.0006920339573607043,0.44831612884256133,0.7538980644212807,9.571126600518166
1730000000.0,22.09,-0.0597751855915785,0.054970853652263015,0.0015543865849710534,0.06866831984128324,0.39455628461906284,9.53669309757143
1735000000.0,22.09,-0.0780192139429928,0.03143413167909159,0.0027574566574110277,-0.41172735131437355,0.06974866189618661,9.537674669602346
1740000000.0,22.09,-0.08147685273706569,-0.025527453519193267,0.0042586033748661,-0.49481545367245455,-0.06160727316377275,9.717394546327546
1745000000.0,22.09,-0.08205177521755812,-0.0867580356291984,0.002629676548554303,0.17236532671485327,-0.1925707406289074,9.80921492884375
1750000000.0,22.09,-0.07669844965023256,-0.09800888292693126,0.0010646508437165,0.9074265296242654,-0.240344898025049,9.716804626091847
1755000000.0,22.09,-0.054642831707057554,-0.048180590949375754,0.0005429682307401611,1.1858332090652322,0.014716704438467038,9.638815329556154
1760000000.0,22.09,-0.02812416136473067,0.03239081538029903,0.0,1.1846551555834515,0.40613502557665027,9.58554699488467
1765000000.0,22.09,-0.02505810066689841,0.0967310084209137,0.0005003896171820958,0.7356490545103904,0.5637807342830073,9.665597622792177
1770000000.0,22.09,-0.04290968501430507,0.10803858734705148,0.0005749077244315258,-0.0749512879306129,0.5012904842981049,9.85355688132177
1775000000.0,22.09,-0.06716910483408872,0.06364929649217316,0.0014372898641636029,-0.5861480171586803,0.2584922243419222,9.967450810295208
1780000000.0,22.09,-0.09118652838352773,-0.01848827659707696,0.0031939525311496,-0.5634855702152558,-0.12243025212330252,10.050541476594915
1785000000.0,22.09,-0.09509369930538472,-0.09609224600303568,0.0027361489055559474,-0.10682823029578226,-0.3995616813863168,10.0438699839422
1790000000.0,22.09,-0.0821508496735653,-0.11837376209716395,0.001682144559736512,0.5668238513475385,-0.35394389601633897,9.968529530462796
1795000000.0,22.09,-0.057774276216739445,-0.08701598549938769,0.00019162958411776698,1.1076488781517888,-0.0008811218482112082,9.876707302685572
1800000000.0,22.09,-0.028337105024729543,-0.02364893797998608,-0.000638786711814255,1.4420703496284035,0.4041729789595298,9.76487403496284
1805000000.0,22.09,-0.02600565268179876,0.06557817548647911,0.0,1.194855195203252,0.5498503247002032,9.678937558560975
1810000000.0,22.09,-0.04725208097439846,0.13720351230943423,0.0004045711361080019,0.38062483586294843,0.4155506156018062,9.658338560183585
1815000000.0,22.09,-0.0680939075129278,0.11385748451744182,0.0026403493965600957,-0.40996226203122266,0.12183900135729,9.949793381354933
1820000000.0,22.09,-0.08036963487383891,0.02526919886896041,0.004556697937955146,-0.8664196242157963,-0.12713798886447988,10.09370509394605
1825000000.0,22.09,-0.08123196747536675,-0.07621801380401141,0.003566584173566237,-0.6808113059189131,-0.1893329291031293,10.109205354484354
1830000000.0,22.09,-0.07487005613001402,-0.1442410292783784,0.0031726479413075187,0.20738770101207696,-0.1465610800900108,10.079577804724478
1835000000.0,22.09,-0.0653724863137685,-0.12771647764675795,0.0007133121970941058,1.1882874742030747,-0.03649262971722629,9.81088193764782
1840000000.0,22.09,-0.053778438509754875,-0.0471723864099041,0.0,1.5389922281633224,0.12517624331626243,9.630280764260206
1845000000.0,22.09,-0.04349916272461416,0.05143537003676512,0.0,1.2832443439913435,0.3091138525751385,9.571910690772507
1850000000.0,22.09,-0.042502308706106315,0.12122714158207938,0.0006387983058620591,0.7102410534095105,0.418886604725666,9.503928574944485
1855000000.0,22.09,-0.05714284040769303,0.11863473232911818,0.002129301687433,-0.054840458211604604,0.25800191906551917,9.676388592685285
1860000000.0,22.09,-0.07252126614130235,0.0643046638154666,0.0024274078445698146,-0.6592334451307345,0.002353785819437855,9.851594689026147
1865000000.0,22.09,-0.08182820297773592,-0.0093280838785441,0.002906492871909908,-0.8517029683368297,-0.0832864290699643,9.929289889803098
1870000000.0,22.09,-0.08083348067437812,-0.10075643970165478,0.002129301687433,-0.31234618658926183,0.014911272645012727,9.98658
1875000000.0,22.09,-0.07163267977749352,-0.1579172681276464,0.0018631350239875781,0.7087751586326516,0.031882536419625365,9.900741225313112
1880000000.0,22.09,-0.07192012362666797,-0.10963074683868408,0.0008091306781681997,1.3494652067367523,0.032176690449766905,9.598495706181858
1885000000.0,22.09,-0.0685877465967732,-0.008688517739155358,0.00024487366765117875,1.6414086141781865,0.005297326772273267,9.447814653544546
1890000000.0,22.09,-0.060038580327267,0.09864702631596187,0.0010646508437165,1.2939351453468515,0.01177236710982367,9.434865893687858
1895000000.0,22.09,-0.05052065758343117,0.1642138245512357,0.0010646508437165,0.2535842670683427,0.11919205212152051,9.568184788283547
1900000000.0,22.09,-0.05411920549278871,0.13848098342552614,0.001277585017676314,-0.7259416607349167,0.22759185237911853,9.908101291682712
1905000000.0,22.09,-0.06461999917688786,0.027957662319836433,0.002533877039558404,-1.0064064569087647,0.17010488196724882,10.175324251990641
1910000000.0,22.09,-0.07843199122864092,-0.07674209239348967,0.004066962196700529,-0.5799647514357474,0.03237244350812443,10.152369185497292
1915000000.0,22.09,-0.08647007289886804,-0.1466897280107338,0.0026509684903442345,0.1060495592816956,-0.11497379514523795,10.159235256068452
1920000000.0,22.09,-0.0863316399680881,-0.14478876896951337,0.00017034818237132794,0.9762938851461389,-0.23583217623782177,9.955579430363894
1925000000.0,22.09,-0.07760947056565722,-0.07595379433584047,0.0010646508437165,1.5637138504367387,-0.15695925218369253,9.7222000139194
1930000000.0,22.09,-0.05635243166314443,0.006310380917376778,0.0007665404705623302,1.4836631254102315,0.045519374686293745,9.594571875168919
1935000000.0,22.09,-0.04398984292287758,0.08718820028889795,-0.0007878334663565733,1.1139230569715306,0.2635946624149466,9.47646
1940000000.0,22.09,-0.05480059506026106,0.1489254135188035,0.0011924130344993418,0.4438007071471071,0.22209734489917346,9.52590398265124
1945000000.0,22.09,-0.06709730013143693,0.13135266869929105,0.0018950703016615594,-0.4766705067711051,-0.0390444800272448,9.928408097833781
1950000000.0,22.09,-0.07594626947051926,0.05475232914292548,0.0002129383899771974,-1.0722327348651275,-0.18148443185384433,10.260279340887694
1955000000.0,22.09,-0.07797254717487373,-0.04658131789601942,0.002129301687433,-0.9371461481970614,-0.03845474431764745,10.330910620264707
1960000000.0,22.09,-0.06974826862178116,-0.14232470181707027,0.002129301687433,-0.10986781222867814,0.06239129543481295,10.218879695951196
1965000000.0,22.09,-0.07592445709248517,-0.15684373142253794,0.002129301687433,0.9213573373949734,-0.01461716717437167,9.930367211457073
1970000000.0,22.09,-0.07926129385666973,-0.08513687838728236,0.0020654184840328874,1.4381463826488639,-0.07553680867556808,9.575148638264887
1975000000.0,22.09,-0.06859837096057908,-0.013109732386131823,0.001011414138213509,1.516134387501844,-0.028448923275989232,9.582407846551979
1980000000.0,22.09,-0.05641881109441063,0.06387297209353626,8.518041521173889e-05,1.215259800188298,-0.011772192295621922,9.55140901534599
1985000000.0,22.09,-0.055780074974804986,0.1138596786089146,0.002129301687433,0.4627353480691535,-0.061214708449947086,9.708565448237355
1990000000.0,22.09,-0.06823645221833338,0.1088123716957438,0.002086707263809747,-0.12419587556095876,-0.1371437613466376,9.92046110249371
1995000000.0,22.09,-0.07126000597490305,0.06335977088074311,3.195214174351545e-05,-0.44351091376010915,-0.12468397623603977,10.044458612495186
2000000000.0,22.09,-0.06071999624484793,0.008516903058250626,0.00319393988309745,-0.6474590288099903,0.1569610100376101,9.947340233085603
2005000000.0,22.09,-0.05861198755320908,-0.06740596736028258,3.192684563921603e-05,-0.40466152638201525,0.4094704125627041,10.005611633668318
2010000000.0,22.09,-0.07424113394854479,-0.10366397505297775,0.004173448255758659,0.2323033767613339,0.23897089724690898,9.804309380121394
2015000000.0,22.09,-0.09936256899359683,-0.10542085812782333,0.0032258878088235812,0.8732887831711879,-0.10712660900246615,9.714548347749384
2020000000.0,22.09,-0.1001295391869146,-0.06864155172163627,0.0031939525311496,1.2599979302069795,-0.44733737326267375,9.655394164583543
2025000000.0,22.09,-0.08799246834393482,-0.0023437038475440236,0.0031939525311496,1.2659804606668046,-0.5635849326651494,9.606442303334022
2030000000.0,22.09,-0.0673218014501718,0.056140147153273076,0.0011924003864471977,1.0718397719633976,-0.3015582565208826,9.76997590974566
2035000000.0,22.09,-0.041273787901745504,0.0814544361035238,7.45212692624675e-05,0.530326307408863,0.03482688346016888,9.935666771966368
2040000000.0,22.09,-0.03157366989757634,0.08309512568745,0.0,0.10241469614424697,0.38376862648388627,9.902213801877238
2045000000.0,22.09,-0.04834726874303977,0.06564018470470982,-0.0009688365786597894,-0.2973427285885273,0.3763114411133144,9.9607799780517
2050000000.0,22.09,-0.07883490669670923,0.03227797650875218,-0.00010646076295383212,-0.5984111945637121,0.13439592489265925,9.896327681449677
2055000000.0,22.09,-0.10003380291817948,-0.03475346098184433,0.0028426307485967276,-0.4270283819340838,-0.2238657168045572,10.010713158822732
2060000000.0,22.09,-0.10319573795931622,-0.08854216214184818,0.0041308496161180245,-0.20365467970034679,-0.3252998800911988,9.930858759856687
2065000000.0,22.09,-0.08294597880249484,-0.13651793025824946,0.0024061022007234065,0.5488729093625291,-0.22258837856808378,9.977653180771032
2070000000.0,22.09,-0.06981451827228279,-0.12167657556650799,0.003960509865781449,1.2309615340941154,-0.20601,9.800973915440139
2075000000.0,22.09,-0.0681725605828985,-0.04489998581812464,0.0015437306010348344,1.6578916121754161,-0.2310256209131562,9.720728758173687
2080000000.0,22.09,-0.06459531620937857,0.038737580285790815,0.0028532730304764616,1.5354603111669032,-0.17775691718946918,9.753102202007522
2085000000.0,22.09,-0.054193646657720904,0.11232096302967215,0.0005429587447010661,0.9879625485867256,-0.012065530526155305,9.73652297850413
2090000000.0,22.09,-0.049583743634393135,0.12987207047042942,-0.0008730180975856955,0.2795819553193195,0.08397392476593925,9.876316330723363
2095000000.0,22.09,-0.05849493299257542,0.1103108113153485,-0.0010646508437165,-0.44086441127174414,0.04247701514997015,9.931938422078584
2100000000.0,22.09,-0.07264415610196351,0.053469636783043284,0.0006387993598664049,-0.8691675092292752,-0.11183473421964736,10.008162367109824
2105000000.0,22.09,-0.07984429768222041,-0.012541343039265004,0.004428965259293982,-0.9495099408870994,-0.11615023645160237,10.056819763548399
2110000000.0,22.09,-0.07680004982894881,-0.09227870168246124,0.0053232542185827,-0.5536742688206427,-0.09260631803156318,10.17218577377906
2115000000.0,22.09,-0.07727812681344402,-0.134580722659833,0.002863897394282283,0.2686016616457165,-0.04296755351197554,10.058878919454589
2120000000.0,22.09,-0.08181756701988228,-0.1384492722360877,0.003747579907839008,1.0845969354549694,-0.17854282356912823,9.986187435286174
2125000000.0,22.09,-0.08149814046283824,-0.0846874427613716,0.003460110762560255,1.5401714859207152,-0.26241770637787704,9.70454097280371
2130000000.0,22.09,-0.07071090900263081,-0.019023465740103378,0.0031939525311496,1.6647572068634724,-0.20208558627305584,9.635578324118084
2135000000.0,22.09,-0.060113113190577196,0.05230015342302082,0.0016395532981263235,1.4555084144357844,-0.1407732926509329,9.514325853543358
2140000000.0,22.09,-0.05369328655266046,0.10081876223563635,0.00029809772510201987,0.878973090314731,-0.10634027529920276,9.579661865070918
2145000000.0,22.09,-0.05976186413432424,0.11941721796749036,0.0,0.17127951686019516,-0.07720457500784575,9.693261416640514
2150000000.0,22.09,-0.06508508673277658,0.10162515937945182,0.000745260122820237,-0.38259208805852085,-0.12360633408936333,9.948322378118624
2155000000.0,22.09,-0.0660432588954654,0.0625457818127397,0.0017992644686396155,-0.739577197606972,-0.16068788371657883,10.126667302299472
2160000000.0,22.09,-0.06531929176843934,-0.000980491309468104,0.0028532688144590618,-0.7938249482675496,-0.05336568675805686,10.256551787375717
2165000000.0,22.09,-0.0699718524556511,-0.0673270480073451,0.0024806319020206605,-0.4726438655837387,-0.01971822615758226,10.136181448686814
2170000000.0,22.09,-0.0759560538619765,-0.10951012309103902,0.002831975818664817,2.1074823211009175e-06,-0.04885392644893927,9.964605009904949
2175000000.0,22.09,-0.08053998200220588,-0.11622319271004093,0.003885980164484229,0.7023995487282955,-0.12262542246765423,9.720237190350272
2180000000.0,22.09,-0.08407461825004606,-0.09012794352488773,0.0042586033748661,1.154049500940995,-0.26997196218991965,9.607521557656115
2185000000.0,22.09,-0.07783535071214281,-0.04314849744853863,0.0022463994622448783,1.3200341092920413,-0.3459006848820068,9.573088287794983
2190000000.0,22.09,-0.06887519782397816,0.003645484105177718,0.0004045627040732353,1.2723563619281637,-0.21935066416130664,9.682667093300571
2195000000.0,22.09,-0.06019828411974987,0.0319357688745652,0.0006494416417461432,1.228408285270483,-0.15529242790572428,9.838743854258137
2200000000.0,22.09,-0.057100196445865524,0.05922265602089083,0.00042585569986747836,0.9417578633819788,-0.19031417092944172,9.917910213661802
2205000000.0,22.09,-0.056897903499781105,0.08186369116582959,0.0,0.45037491569654914,-0.23494971414739715,9.972257656976877
2210000000.0,22.09,-0.059548912042290514,0.09768091212685473,0.0,-0.07907104681611046,-0.14126314146803143,9.979320471220205
2215000000.0,22.09,-0.05753666596949543,0.07038432924638816,0.001213711300315314,-0.5319979779249797,-0.014126055810260559,10.050836145355762
2220000000.0,22.09,-0.05969798198492844,0.014316348042797338,0.0015330925351724645,-0.7129909293625093,0.03610092936250929,10.0536799256708
2225000000.0,22.09,-0.07329255906562372,-0.042392565013354144,0.00047908818935308607,-0.5802603331152033,-0.11821183975661839,9.990013370346135
2230000000.0,22.09,-0.09246414712934317,-0.080170043254499,0.0028745807823315696,-0.1008438545749385,-0.3927935261919353,9.97677
2235000000.0,22.09,-0.08928063872725629,-0.08891876109118002,0.004758984560013476,0.3983857062511571,-0.5205186868243868,9.981969343412194
2240000000.0,22.09,-0.0677975787872508,-0.07733684090307205,0.0042586033748661,0.7577260098445601,-0.3665002077020021,10.001883730527938
2245000000.0,22.09,-0.04935119846550869,-0.049723755273616776,0.003715626712091172,1.047022302947923,-0.020697399349174,9.900937697052077
2250000000.0,22.09,-0.04580621372654113,-0.02610133730432092,0.0015969620365161314,1.2164405244426053,0.10790947555739477,9.8001900874071
2255000000.0,22.09,-0.06157182042304789,0.004311700917238006,0.0015650510009421028,1.164740292584603,-0.07593053881740539,9.689826404983265
2260000000.0,22.09,-0.08010509915252792,0.04154733295846565,0.002682915362065989,0.9366577464530776,-0.31902225354692254,9.630673814569038
2265000000.0,22.09,-0.08441525453654103,0.05689792247185937,0.00313008302980593,0.6482432161833322,-0.45989297597962975,9.77586190391852
2270000000.0,22.09,-0.07058800527079818,0.05516249377642422,0.002789370854998094,0.31215274496312745,-0.4130003386196034,9.886125864552158
2275000000.0,22.09,-0.05678076778081282,0.04011104648916047,0.0005855531683243015,0.07995092554110925,-0.23200548364965484,9.992957251215472
2280000000.0,22.09,-0.05233054641587671,0.01959927719550708,0.0,0.03570866571758666,-0.0776948899961489,10.071730667141207
2285000000.0,22.09,-0.05251156112222771,0.008357485039175537,0.0,-0.0030418545175185524,-0.05189503315015033,10.038376622466465
2290000000.0,22.09,-0.060592314158395326,0.004876096036881824,0.0,-0.0981,-0.11399268928552689,9.991288533116986
2295000000.0,22.09,-0.07141976984563364,0.0007665099044363195,0.0021825584190186434,-0.1423435903538359,-0.20473501204335012,9.916928554223785
2300000000.0,22.09,-0.07541917741350117,-0.01576394479083479,0.004897389032676069,-0.15107337455363373,-0.2884144914221449,9.870822134024221
2305000000.0,22.09,-0.0750395390093749,-0.03884149794360335,0.0042586033748661,0.015500784980907859,-0.3110746075095461,9.834916773193967
2310000000.0,22.09,-0.07162201957753986,-0.05563106616441911,0.003854031184753752,0.2776245704142457,-0.24897784486897845,9.769779224344893
2315000000.0,22.09,-0.06912008519368579,-0.061475823815239396,0.0028000268389343367,0.6102815838812159,-0.23691127516951277,9.785671020135611
2320000000.0,22.09,-0.06787446812781815,-0.04048523311628368,0.002129301687433,0.9025211265804114,-0.23779480556894805,9.813924675948247
2325000000.0,22.09,-0.06811931333735202,-0.014863111103872678,0.002501934383854018,1.0320116387173164,-0.2805658193586582,9.904666454839663
2330000000.0,22.09,-0.06387134170432213,0.0065003780215504466,0.0021079939355779813,0.9576518831978188,-0.25506,9.908296335772363
2335000000.0,22.09,-0.06141205233629987,0.020213924097625357,0.0,0.8313963661356637,-0.2615346907091469,9.90829592787256
2340000000.0,22.09,-0.06463791484901918,0.023567485560866738,0.0006813864054592369,0.6356875454830755,-0.2872369818067698,9.865720754548308
2345000000.0,22.09,-0.06523414402736234,0.015726269370935967,0.0014692082777680061,0.5507331267071313,-0.31392,9.865132291097623
2350000000.0,22.09,-0.06593675913435078,0.015975048262918446,0.00031940020693537537,0.4895186804784868,-0.30803390870813907,9.893385228229652
2355000000.0,22.09,-0.05948498984072963,0.024057279272360337,0.0007558971346782462,0.39877581385425814,-0.2999898914860989,9.97608407763184
2360000000.0,22.09,-0.05616329409087537,0.026761502386281458,0.0,0.25309731239747313,-0.3249073833606738,10.105477383360673
2365000000.0,22.09,-0.0553967504583,0.03126498048280311,0.00028746071324401074,0.08358009750510098,-0.32932128656441284,10.1125400325017
2370000000.0,22.09,-0.05456630781225928,0.027395595167496022,0.0007878366283696108,-0.11124581430965813,-0.22916095551830956,10.070553876206437
2375000000.0,22.09,-0.05353363651439919,-0.001601469840315617,0.0007985031523493278,-0.15450708481627085,-0.12753,10.05524889284339
2380000000.0,22.09,-0.059825743121706916,-0.024674811986541187,0.0031939525311496,-0.06003664525626645,-0.16755558588695588,9.869252215085423
2385000000.0,22.09,-0.0690669075124262,-0.032936477490638244,0.002949077809494052,0.07004423386374234,-0.3123507706061077,9.823635575719656
2390000000.0,22.09,-0.07492243181763905,-0.03691826665015753,0.002363529911191425,0.2362254499203545,-0.39220421780594217,9.783709478537295
2395000000.0,22.09,-0.07153683705431944,-0.039856697961754485,0.003641115982872184,0.39897395604003955,-0.4507692673999927,9.852281611720016
2400000000.0,22.09,-0.0654044026193643,-0.03919654868985914,0.00447151330672602,0.6435368391081684,-0.39043748721167487,9.925757720297277
2405000000.0,22.09,-0.05372523342438227,-0.025980874836619504,0.0010646508437165,0.8053034138566342,-0.2947902664288027,9.884261840142718
2410000000.0,22.09,-0.05190471601211351,-0.005940655182220254,0.0012562930758864168,0.8785832255091323,-0.2532941531886415,9.89750491913185
2415000000.0,22.09,-0.05485376325548158,0.015717356139988665,0.0019483059531602046,0.7758718211050183,-0.2385790123660901,9.839233518549136
2420000000.0,22.09,-0.05254349639990167,0.04030383611737281,0.0010646508437165,0.5415105898321059,-0.20601,9.793519294011194
2425000000.0,22.09,-0.055929126999368986,0.03557405070886653,0.0009049481052379477,0.2648690579456906,-0.21925392392443924,9.82030082971901
2430000000.0,22.09,-0.06557483301407456,0.00847199276245574,0.00029811248116286135,0.1132079191981792,-0.31215481359784814,9.886910683199007
2435000000.0,22.09,-0.069237211426615,-0.024919651926053256,0.002267711430117322,0.23661833512688335,-0.4396848621573486,9.93370395810914
2440000000.0,22.09,-0.06821510546831747,-0.02539654234355779,0.0029384260415752125,0.45322247394072473,-0.5462202786652028,9.915163484364435
2445000000.0,22.09,-0.05872710003308116,-0.007580272774611738,0.0009475340968264339,0.541708294982383,-0.42428131272021313,9.969118294982383
2450000000.0,22.09,-0.042497016792188556,0.001705269397805095,0.00021294049798588902,0.5542647620584477,-0.19521847652858476,9.980693714470137
2455000000.0,22.09,-0.042306997087397116,0.01753098554746373,0.002225125438528832,0.491578098605981,-0.09986589537085896,9.923305261572853
2460000000.0,22.09,-0.051180800531300454,0.020670179598180106,0.0031087752779508904,0.2970463699570637,-0.1349866512160665,9.884163934477838
2465000000.0,22.09,-0.06473379551634971,0.0006174663119070066,0.002129301687433,0.2226874787966748,-0.35757617578836176,9.94459300848133
2470000000.0,22.09,-0.07543346371670091,-0.004556643129729176,0.002065417430028542,0.3092108161857081,-0.6780672959535731,9.908688647976785
2475000000.0,22.09,-0.07152612204613984,0.006707227272912965,0.0010646508437165,0.23740219229562193,-0.6842462981523629,9.926739865330298
2480000000.0,22.09,-0.05339439364175518,-0.007921758001131533,0.0010220595821062847,0.2766422408551224,-0.4394865548692655,10.092527759144877
2485000000.0,22.09,-0.030956217287725792,-0.019245058006843792,0.0,0.3287339205584392,-0.15313347251413473,10.04544
2490000000.0,22.09,-0.033405347384318836,-0.020948050496080537,0.0,0.4916774901915749,-0.03335496730524967,10.0438700130779
2495000000.0,22.09,-0.052309315606338815,-0.002980742553626369,1.0651767918850638e-05,0.5477896246018963,-0.22867260233382602,9.966076663838567
2500000000.0,22.09,-0.06284933798444617,0.0181165176357011,0.001064656113738229,0.3923991259289913,-0.5297401942380019,9.878670339916503
2505000000.0,22.09,-0.06917336405936264,0.0181165176357011,0.0021186604595576078,0.21758492418084924,-0.568587794626478,9.946653640596336
2510000000.0,22.09,-0.05358676465745462,0.00036224031724377617,0.002129301687433,0.16775075623130756,-0.3959307224327072,9.812746117447661
2515000000.0,22.09,-0.04395606940978827,-0.01757311232145384,0.002129301687433,0.21434874425428746,-0.2877267626405676,9.857578744254287
2520000000.0,22.09,-0.053905594354299965,-0.030381359101498497,8.516144313351409e-05,0.4230082768554828,-0.30332529789595297,9.906138244739882
2525000000.0,22.09,-0.05028640511757282,-0.015704392681357975,0.0010114236242526214,0.5621136866313369,-0.322749098090191,9.814904509549045
2530000000.0,22.09,-0.048071941987006206,-0.0018950091694095311,0.002065427970072,0.5228727542889275,-0.35139434742664344,9.920657389706575
2535000000.0,22.09,-0.05289484769457628,0.009826786069326033,0.0011391710589746216,0.501683301521333,-0.3440366507606665,9.936843349239334
2540000000.0,22.09,-0.05032899637918303,0.015559986206866277,-0.0008943174174060136,0.31077976393449763,-0.3884762466822625,9.883378503981286
2545000000.0,22.09,-0.055886522035702296,0.006282957037484287,0.0008730244216117705,0.3210814483007145,-0.48167149433571493,9.905451448300713
2550000000.0,22.09,-0.0564614013020165,-0.002342274859553679,0.002022841978483514,0.2619266532851665,-0.47284190093861905,9.837467603754476
2555000000.0,22.09,-0.04507533214094018,-0.019317744876575563,0.00023421241369321567,0.29871474813904747,-0.3399157555828576,9.882005697766857
2560000000.0,22.09,-0.045557293148728494,-0.02318426644479633,0.0009368981389727706,0.5717283414727834,-0.34099569944985697,9.992074196699143
2565000000.0,22.09,-0.044873456770643014,-0.0030470512974863882,0.0019909024847921493,0.60822,-0.3860237491102375,9.954991501067715
2570000000.0,22.09,-0.04566340379217316,0.00457802571589281,0.0012136965442544724,0.4985435510508355,-0.426146599676666,10.099199698544997
2575000000.0,22.09,-0.0485297688006954,0.006228212863864106,0.002874568134279397,0.43899724991857253,-0.5233640501791406,10.065550149886
2580000000.0,22.09,-0.04722022110123205,0.010859465799220789,0.001405328236380947,0.29979279818552795,-0.41594324829893253,9.923402798185528
2585000000.0,22.09,-0.03714473524208569,-0.009496816306810759,0.0019483164932036629,0.290964700421047,-0.2865494472631945,9.914574700421046
2590000000.0,22.09,-0.04564147274361698,-0.013840460968315,0.00038326338425291725,0.4632292564604926,-0.32117975215349753,9.829423246615933
2595000000.0,22.09,-0.05053131251336304,-0.004354361777692477,0.00344949061477176,0.43674079676190797,-0.349432300809523,9.849730752023808
2600000000.0,22.09,-0.04687951630445465,-0.010646563245391302,0.0008516987516828268,0.5630949090338491,-0.4787288080300881,9.968922707026326
2605000000.0,22.09,-0.05254353012804075,0.006569022007071795,0.0016821593157973535,0.5286604446090044,-0.6108693577869936,9.988640049401
2610000000.0,22.09,-0.045183721196205257,0.007558993480873968,0.0004684353674298896,0.35708298607762984,-0.5228722395582224,10.017187402784474
2615000000.0,22.09,-0.03030668710961453,0.0006493984275680103,0.0008197866621044336,0.4121187603120876,-0.33942498413524985,9.972943744447338
2620000000.0,22.09,-0.029061144878055414,0.015940557197493488,0.0002555106795091879,0.3743491419867914,-0.2122878402060784,9.837859585754297
2625000000.0,22.09,-0.03541713258075456,0.014110937109955271,0.0,0.17657877630058777,-0.23053530592485305,9.873765509874755
2630000000.0,22.09,-0.04517162003408086,0.0030448404283378444,0.001575694336826138,0.09594164674621647,-0.41947682603026826,9.905549451084594
2635000000.0,22.09,-0.05571620125744397,-0.009326408046191661,0.002129301687433,0.08112864881828648,-0.5666262141805621,9.900938648818286
2640000000.0,22.09,-0.05399137795373643,-0.03963033908995082,0.002129301687433,0.20561852301898526,-0.584283497442335,9.968922512788325
2645000000.0,22.09,-0.04614314460028269,-0.04856168089027382,0.0013733940127112956,0.6102827201735272,-0.6205809082557091,9.954599091744292
2650000000.0,22.09,-0.042177615531248866,-0.018854573863441564,0.0010646508437165,0.8652428235691282,-0.5689794852692949,9.923795897053859
2655000000.0,22.09,-0.027581157297842683,0.0068351591583955176,0.00033003616478903867,0.8311025811577258,-0.3500193560346936,9.958523709421137
2660000000.0,22.09,-0.016954792749831922,0.027267042076042344,0.0007239681810303398,0.6278387083172872,-0.17147807665768078,9.910061483326915
2665000000.0,22.09,-0.02704327422338087,0.039079532073381926,0.00035132916058328175,0.33903194353831945,-0.21954852470198524,9.898388255293282
2670000000.0,22.09,-0.047086652417786874,0.028890682863214796,0.002108025555708356,0.11889626649216266,-0.45910955584639557,9.921049303723093
2675000000.0,22.09,-0.05571615698926142,0.011291317280563942,0.0025019238438105597,0.0269772402066724,-0.6420651754626518,9.965979311751994
2680000000.0,22.09,-0.04964757940759771,-0.009678324148965545,0.0014479194979911464,0.041202260278922605,-0.661586191776862,9.98658
2685000000.0,22.09,-0.03708433320769473,-0.025494610242693404,0.0010646508437165,0.18864739521097396,-0.5362136612477366,10.017481760764516
2690000000.0,22.09,-0.027996443442130314,-0.03312812288482118,0.0010646508437165,0.41692630625056304,-0.3066591892493919,10.029547747749977
2695000000.0,22.09,-0.022971302758714823,-0.031254274960662645,0.000415208147966011,0.635787199289972,-0.17010508591715087,9.942041867140018
2700000000.0,22.09,-0.031531209332505,-0.014060241453421208,0.0,0.7220160524442606,-0.33550367821633675,9.853163685334437
2705000000.0,22.09,-0.04714927700176803,0.013339885759974267,0.0006281496999562459,0.5986050440896504,-0.6057688135344881,9.82962
2710000000.0,22.09,-0.04646479054490382,0.024334067137598593,0.0022996572478348066,0.3792533893145339,-0.6494214736150147,9.823930147361501
2715000000.0,22.09,-0.03182912893087256,0.016147542933779475,0.0013733824186635346,0.2565312363219124,-0.513160203494502,9.86454402188494
2720000000.0,22.09,-0.02688926352305994,0.007069247199575944,0.0,0.2189590415017904,-0.41398173583631737,9.920264611330946
2725000000.0,22.09,-0.029934153489602076,-0.0010114700004439032,0.0,0.2221966587895666,-0.3762133412104334,9.942925552929855
2730000000.0,22.09,-0.0308923277602996,-0.008197840270935999,0.0,0.29900943632369437,-0.34707764091907645,9.95793490605395
2735000000.0,22.09,-0.0308923277602996,-0.01008223772459183,0.0005642707125735166,0.36875805937228057,-0.39073288436502884,9.977358706248188
2740000000.0,22.09,-0.03587494569238736,-0.007920984949419563,0.0010646508437165,0.37238749355757494,-0.528171304760613,10.017187519327274
2745000000.0,22.09,-0.0404741853537485,-0.011283605787358406,0.0005216731269372264,0.40299522654665226,-0.598213693363337,10.040436846681668
2750000000.0,22.09,-0.03248921707051587,-0.014913826769210518,0.000532331218882152,0.4954055875699559,-0.49540398510643985,9.95224409193734
2755000000.0,22.09,-0.022417683814060133,-0.00914529847944953,0.0005429661227314695,0.5685878140502781,-0.39740304648743047,9.888087814050278
2760000000.0,22.09,-0.02586723977710139,-0.0006813358132506412,0.0005110382230879089,0.5744734391709344,-0.44890624331626244,9.917517707219377
2765000000.0,22.09,-0.03245737032920693,0.006696694607485253,0.0005642591185257126,0.4946194481046945,-0.48706623146596234,9.918498492586385
2770000000.0,22.09,-0.02910366762938319,0.008687527527990645,0.0,0.3902414233725142,-0.4294814233725142,9.944201230431412
2775000000.0,22.09,-0.02498352142739689,0.0039924114153163884,0.0,0.36198910780209104,-0.4012291078020911,9.977750892197909
2780000000.0,22.09,-0.029316691393712416,-0.005025228165776172,0.0004684522314994227,0.39004581599265814,-0.45518453998164543,9.945377730009177
2785000000.0,22.09,-0.03500189175865385,-0.014614538071033982,0.0019802623109211456,0.46264024914340246,-0.5354301245717012,9.91791
2790000000.0,22.09,-0.033979785800356314,-0.0170518667919846,0.0031939525311496,0.5338602541924026,-0.5277774580759746,9.893188474845584
2795000000.0,22.09,-0.02870976407125923,-0.021853506907873403,0.0023209270555334424,0.5596607714476077,-0.43065845710478456,9.879160771447607
2800000000.0,22.09,-0.027272538501360688,-0.029188892312777437,0.0006387846038055634,0.7573343386255433,-0.43164081579960817,9.91202405438664
2805000000.0,22.09,-0.03065811640061067,-0.01653383829112385,0.0,1.018081908967519,-0.5887971807076718,9.894954273097442
2810000000.0,22.09,-0.02912496589519913,0.01963901899956525,0.0,0.914486507992765,-0.7114214183235141,9.892600691227907
2815000000.0,22.09,-0.020558697420292652,0.05458741519961609,0.0,0.5916390769140908,-0.6595251517620515,9.972748282745982
2820000000.0,22.09,-0.009624378236767865,0.07059995261740316,0.0,0.2217038089953381,-0.4414486306220863,10.019541654775116
2825000000.0,22.09,-0.0032472029387090565,0.05656155516214637,0.0,-0.13243664616706646,-0.24672089640540898,10.029253554872234
2830000000.0,22.09,-0.012206946233873459,0.021794090402103283,0.0,-0.31372363509193635,-0.24662455435644554,10.02895909006129
2835000000.0,22.09,-0.030839184861183387,-0.008086597041017406,0.00035134075463108576,-0.2716385145346851,-0.476473296927733,10.025722065199421
2840000000.0,22.09,-0.041538836197465,-0.029955530805743952,0.0017460393571844604,-0.1471486209101862,-0.7204473377810735,10.064275530981554
2845000000.0,22.09,-0.036918167573749015,-0.04418462888715718,0.0031939525311496,0.08044310521423106,-0.7882326710893268,10.107341155260713
2850000000.0,22.09,-0.02119866686321303,-0.05422571263193382,0.0022357487483304064,0.295282494661425,-0.5895791731915918,10.078793335706033
2855000000.0,22.09,-0.007282187697561843,-0.0589738809993505,-0.0006175095260851992,0.6286276836573768,-0.3316754899955549,9.950870712720807
2860000000.0,22.09,-0.007239686026320993,-0.03315678947039495,-0.0018311934222875218,1.015531699968617,-0.2852754110727541,9.809214588927246
2865000000.0,22.09,-0.01692205667075777,0.013632484865355388,-0.000489727309219787,0.9599059957865601,-0.41594511298375114,9.744763778245938
2870000000.0,22.09,-0.022651936279918534,0.045014141953201116,0.000787835574365265,0.550927704625577,-0.5566193442536935,9.816279180448293
2875000000.0,22.09,-0.023705940625737915,0.039156310156015145,0.00026616877145411343,0.2746793298788933,-0.5542651116868512,9.930172779217127
2880000000.0,22.09,-0.022200533346256844,0.011255789109420133,0.000809128570159508,0.2264157509892575,-0.5524988084161881,9.96696
2885000000.0,22.09,-0.015398877720329307,-0.016048357306231945,0.0,0.38474898452728984,-0.5025663560376636,9.955678219811682
2890000000.0,22.09,-0.016817637514221828,-0.020156722141379577,0.00046845855552549767,0.5012912806739128,-0.5122782561347826,9.90280220705652
2895000000.0,22.09,-0.015089219537332253,-0.004045551152419607,0.0016821361277017453,0.5354296875361969,-0.4931479689852797,9.86160093739141
2900000000.0,22.09,-0.010007669025133795,0.013418109729224744,0.0,0.4983473803807738,-0.3727794367097944,9.925758506961184
2905000000.0,22.09,-0.005014560587792115,0.013961001881585708,0.0,0.39524439216474394,-0.3278512156705122,9.99452604357386
2910000000.0,22.09,-0.015461957824254167,0.004365037787711351,0.0,0.33255928261629286,-0.5220898391744984,9.991877569569775
2915000000.0,22.09,-0.02787937201742714,0.0005429903648314404,0.0,0.37111224337962245,-0.7753830794445308,10.012674486759245
2920000000.0,22.09,-0.025353227637554824,0.0013200993369693206,0.0,0.3504127462600275,-0.8307092686275928,10.00580794030498
2925000000.0,22.09,-0.004897295226289257,-0.009475429504629719,0.0,0.30214868177538684,-0.5567155114884551,10.056721556814615
2930000000.0,22.09,0.009432800298863023,-0.015056612668823608,0.0,0.42281185367601853,-0.24564160323571602,10.059566172353062
2935000000.0,22.09,0.0064410447994024105,-0.014739249748616148,0.0,0.5531860710265608,-0.14538499812394998,10.010515715893757
2940000000.0,22.09,-0.009626643482173361,-0.005749083568341509,0.0,0.5752582286820823,-0.30607399870903995,9.906922742894027
2945000000.0,22.09,-0.02638889814797782,-0.00036194403835000677,0.0,0.5407267423752675,-0.6351989300772893,9.895052528390725
2950000000.0,22.09,-0.03131808859977599,0.005749139430571871,0.0,0.46008836969768374,-0.8436594269978942,9.871803171900632
2955000000.0,22.09,-0.014548272973321154,0.008719434347547253,0.0,0.36297,-0.7350619798614197,9.903587744383977
2960000000.0,22.09,0.0005962481504213468,0.0001703566144060945,0.0,0.3700337174500372,-0.5109034201332342,9.954795427516654
2965000000.0,22.09,0.007378024096709774,0.0022783653060448584,0.0,0.44988648481686483,-0.29017945445059456,9.929780272774703
2970000000.0,22.09,0.005557396013984721,0.004578029931910132,0.0,0.4269307384905074,-0.24662449608504497,9.956561342311314
2975000000.0,22.09,-0.00803905562207885,0.00947537996642543,0.0,0.34727330657033306,-0.43556561800255617,9.947830557785807
2980000000.0,22.09,-0.019223760795032168,0.007324778959172013,0.0,0.23269279481952795,-0.6980798315316983,9.956365084234152
2985000000.0,22.09,-0.019734162537725357,0.004290549192583542,0.0,0.16647564201995643,-0.7319233462594334,9.93664692605987
2990000000.0,22.09,-0.00304485729240737,0.00515285966002015,0.0,0.1577450323086503,-0.6039023223024232,9.907314967691349
2995000000.0,22.09,0.0042586033748661,-0.00333261385257613,0.0,0.19688710721997107,-0.39171289278002897,9.868663683651437
3000000000.0,22.09,0.00425854013460535,-0.017051822420129516,0.0,0.2648705244426052,-0.3237303496284035,9.849239825185798
3005000000.0,22.09,-0.006281503323588731,-0.009656513239625983,0.0,0.3522776253166762,-0.3820017502111175,9.820104124894442
3010000000.0,22.09,-0.014734818437886148,-0.01062522176539723,0.0,0.37238771693127715,-0.5171840185189402,9.935176301587664
3015000000.0,22.09,-0.01387239413798029,-0.016859744279408177,0.0,0.46793758562757587,-0.634119102753091,9.947045758562759
3020000000.0,22.09,-0.00770803391139018,-0.008858542117568693,0.0,0.5368036106191362,-0.6659029759796299,9.928504682680247
3025000000.0,22.09,-0.0013840078364737067,0.0076655881023797445,0.0,0.5115913237290133,-0.555245294916053,9.834524412430044
3030000000.0,22.09,0.0029384618777229766,0.0055148722086526695,0.0,0.4179054114588541,-0.38337374062593743,9.912613129687031
3035000000.0,22.09,0.004184084213612323,-0.010518852700821445,0.0,0.47588351265863515,-0.37278,9.91791
3040000000.0,22.09,-0.0006388225479620046,-0.009752188911750602,0.0,0.5167910361934104,-0.46303259048352596,9.95401103619341
3045000000.0,22.09,-0.00784652165039614,-0.001831148100100679,0.0,0.5824201140183012,-0.6137145463275455,10.019640114018301
3050000000.0,22.09,-0.01043359112727511,-0.0010646508437165,0.0,0.5886,-0.6984724739407246,10.105281533183316
3055000000.0,22.09,0.0007240398533258103,0.000830440538031976,0.0,0.6409857560382576,-0.6539342439617425,10.087917121980873
3060000000.0,22.09,0.011498293617204515,0.008559844387533695,0.0,0.5956628433790284,-0.4748028112634281,10.050148562252685
3065000000.0,22.09,0.0127758101245984,0.005876846813128733,0.0,0.5544609618642097,-0.40858620233026205,9.994231442796314
3070000000.0,22.09,0.007282172941500988,0.007154466612948447,0.0,0.5156133614757337,-0.4612666174174662,9.927523382582534
3075000000.0,22.09,0.0036730259644418596,0.0237566658980662,0.0,0.37670304434903046,-0.4792185597281856,9.851201522174515
3080000000.0,22.09,0.0031939525311496,0.03110529039237672,0.0,0.18011034366860343,-0.4889304598253046,9.913594138427742
3085000000.0,22.09,0.004961285938132701,0.02046931145862607,0.0,0.008729881318798816,-0.46607292023272917,9.960289439689694
3090000000.0,22.09,0.0035772138073938437,-0.0037232993108084547,0.0,-0.0035314799609147997,-0.5093355601172556,9.999137040078171
3095000000.0,22.09,0.0006068314080577221,-0.011966701580521443,0.0,0.055623120816631205,-0.5358223202333233,9.910846078600061
3100000000.0,22.09,0.0017034544196002882,-0.015344954495143224,0.0,0.13145448171024482,-0.5395500000000001,9.864935819358658
3105000000.0,22.09,0.007175785958851372,-0.013450185604166956,0.0,0.24014952373079523,-0.44655047626920474,9.797050317512804
3110000000.0,22.09,0.011838943605755981,-0.006962770626556937,0.0,0.2801737208160372,-0.4065262791839628,9.803525581224056
3115000000.0,22.09,0.007037296111836789,-0.008602405083017895,0.0,0.29204376050513764,-0.3946562394948624,9.847768802525689
3120000000.0,22.09,0.0028958305639475742,-0.028205370222452276,0.0,0.3539452848180529,-0.4818679272270793,9.926150945420309
3125000000.0,22.09,-0.0034601613547689046,-0.042882812292291655,0.0,0.7333004742694047,-0.6499136532881364,9.954697560699376
3130000000.0,22.09,-0.0021718613289128923,-0.030045012871872376,0.0,0.9913997551333975,-0.79088299035443,9.993447303982474
3135000000.0,22.09,0.009816173299567972,-0.004284436848594593,0.0,1.0112145564255457,-0.7166195865957959,10.020522721787227
3140000000.0,22.09,0.023818245393541604,0.01623795786286896,0.0,0.9229241291019413,-0.4438023873058239,10.075262826935129
3145000000.0,22.09,0.03223382760150644,0.031893192369015826,0.0,0.8021629058579292,-0.2904735502093355,10.05269903347289
3150000000.0,22.09,0.02439787129067278,0.042935159469963055,0.0,0.5935034703757347,-0.3678759177745592,10.063098244739884
3155000000.0,22.09,0.009214540448288906,0.04212977131932422,0.0,0.2897853164089531,-0.6624715674373157,10.08163896128209
3160000000.0,22.09,0.002086695669761975,0.04700177681717623,0.0,0.059643633795036344,-0.8283568910336689,10.13137602965446
3165000000.0,22.09,0.016056122138968832,0.03222873399591458,0.0,-0.20375560576615606,-0.735160293426103,10.225650376239603
3170000000.0,22.09,0.03257456296440988,0.010077404026104395,0.0,-0.2782113537062135,-0.4567515065028151,10.228886692132768
3175000000.0,22.09,0.035896173339912095,-0.0106579870455754,0.0,-0.20110438329434382,-0.24132501327095013,10.161197506635474
3180000000.0,22.09,0.02561156572691859,-0.030381416017733136,0.0,0.04669770010127702,-0.27428846474758467,10.039553073484731
3185000000.0,22.09,0.012856719437740792,-0.032585075603755065,0.0,0.17295036186480361,-0.4164354279720543,9.893874572027945
3190000000.0,22.09,0.0058768457591243505,-0.038408850136058804,0.0,0.2678139294288393,-0.5742784533526846,9.875923571771535
3195000000.0,22.09,0.004908047124620995,-0.040420919136123806,0.0,0.4733340514760406,-0.6256816758819168,9.838448379409584
3200000000.0,22.09,0.011721698823256077,-0.04410453101913106,0.0,0.6867012431232125,-0.6298021243123213,9.835506372936964
3205000000.0,22.09,0.017871668210149835,-0.03788348493557073,0.0,1.0082744146377443,-0.5276787171876872,9.818534264227043
3210000000.0,22.09,0.025356211040052534,-0.02409978094360114,0.0,1.194269587051196,-0.39436137649601377,9.801759724700798
3215000000.0,22.09,0.028613961400250302,-0.007034064828251462,0.0,1.2513640995801412,-0.39230233713262336,9.759674137972342
3220000000.0,22.09,0.027102163968880717,0.03017077883026051,0.0,1.0543761731252619,-0.377880699642907,9.677760699642908
3225000000.0,22.09,0.026048159623061295,0.0639140931745929,0.0,0.7220142460308425,-0.3919100637758006,9.675603375850534
3230000000.0,22.09,0.023844318748291893,0.0867283597739879,0.0,0.37591656496726567,-0.4369374627388746,9.691495074522251
3235000000.0,22.09,0.0223751210105673,0.08388419297820533,0.0,-0.14116985866759862,-0.5038423540319236,9.786457256719872
3240000000.0,22.09,0.020714245204524973,0.05640955503559076,0.0,-0.6254879914582799,-0.5438662112006621,9.91437884053179
3245000000.0,22.09,0.0218960623333358,0.012178873294649041,0.0,-0.7744010218186103,-0.5247368369697684,10.022387445453475
3250000000.0,22.09,0.01970470548344973,-0.03356289401003856,0.0,-0.5248321592692216,-0.4904996212358962,10.0846798737453
3255000000.0,22.09,0.02065220756273436,-0.06625430749020808,0.0,-0.09260361812333617,-0.4033864413063644,10.09890481612235
3260000000.0,22.09,0.02510060655415659,-0.08565032207291137,0.0,0.42889725258167255,-0.34335,10.090957956748879
3265000000.0,22.09,0.02093780795830804,-0.08140467783698589,0.0,0.8383637415367374,-0.4217329781180298,10.022974656069046
3270000000.0,22.09,0.01565975760164866,-0.06468038173811662,0.0,1.1034312136014122,-0.6048859338323593,9.991092663515827
3275000000.0,22.09,0.014700063353011926,-0.039951252017746325,0.0,1.2959008727741088,-0.7514465089035651,9.983146309161164
3280000000.0,22.09,0.02173639964702246,0.0010629023887368944,0.0,1.345540491940905,-0.7730276814496768,9.91947889918929
3285000000.0,22.09,0.03319205668042998,0.05288206362402953,0.0,1.211531809640818,-0.6443192686275927,9.930762184722122
3290000000.0,22.09,0.046294599616525135,0.0954526140315723,0.0,0.7671394438278945,-0.44007551362685515,10.029940263904303
3295000000.0,22.09,0.0543320996145834,0.11224139828049995,0.0,0.19766605987916064,-0.2950840319829403,10.112051116027011
3300000000.0,22.09,0.04836297606872143,0.09097672627851476,0.0,-0.41202192295621926,-0.2648706409854064,10.21809593590146
3305000000.0,22.09,0.03110511858966837,0.04041376958274348,0.0,-0.6421634987392351,-0.4040752481088525,10.21221
3310000000.0,22.09,0.016896162375794957,-0.01451415112043489,0.0,-0.6141040712166408,-0.581930100098901,10.167475628486656
3315000000.0,22.09,0.019244775447285322,-0.05554595531349413,0.0,-0.35904471220204714,-0.6380418848808189,10.043673298541433
3320000000.0,22.09,0.02969997480404788,-0.07759049031457908,0.0,-0.016476801804968022,-0.5214983747466837,9.974808322435084
3325000000.0,22.09,0.036268835548454795,-0.09203822081118453,0.0,0.5066890187812902,-0.3472729666538297,9.964997224990373
3330000000.0,22.09,0.0383448836663154,-0.09553026158139705,0.0,0.9755106689628067,-0.2519209293625093,9.865131747231217
3335000000.0,22.09,0.03342609834541916,-0.08357883822583717,0.0,1.4837641194593414,-0.36522830812958307,9.800385811329758
3340000000.0,22.09,0.022076990611330498,-0.02850763031438854,0.0,1.6480800000000002,-0.631765297509853,9.679329113237191
3345000000.0,22.09,0.024131900672035616,0.05070607780332383,0.0,1.5051452462872525,-0.7438918451917185,9.554548639561787
3350000000.0,22.09,0.04218301816745913,0.10855105671797467,0.0,0.9339064040031639,-0.5905596574896965,9.645191609581616
3355000000.0,22.09,0.06013448207468439,0.13320597665328485,0.0,0.1840319506564195,-0.24377621916026218,9.666579233670692
3360000000.0,22.09,0.06003853605908444,0.09954064561963696,0.0,-0.3186314758227147,-0.03845611369556114,9.84178492211175
3365000000.0,22.09,0.04201982473937488,0.04786466565653842,0.0,-0.6267613575276136,-0.26448073733220734,9.927426418971963
3370000000.0,22.09,0.01719630179370867,0.009615902538575393,0.0,-0.7228019782477199,-0.6388279854984799,10.006200000000002
3375000000.0,22.09,0.012780287396829428,-0.022899104204012883,0.0,-0.7161263289017632,-0.6572681644508817,10.042988483329886
3380000000.0,22.09,0.030428205672391705,-0.07755018644974444,0.0,-0.17696885476798854,-0.39946175564621755,10.11803301521333
3385000000.0,22.09,0.04458649434227319,-0.11766060589271299,0.0,0.39711379696683796,-0.22641453700174538,9.9813799767548
3390000000.0,22.09,0.037663421372543256,-0.12503837913638854,0.0,1.1028442166476422,-0.2544731778604318,9.87454907568649
3395000000.0,22.09,0.025686120724320156,-0.08836034274637605,0.0,1.6128634848198349,-0.5352359739768597,9.75123684706777
3400000000.0,22.09,0.018755329643619676,0.0014841179295051465,0.0,1.7049756225268562,-0.8416989245728893,9.647155452900254
3405000000.0,22.09,0.026775639038142774,0.08148768750432928,0.0,1.2975642687513427,-0.8900591174446912,9.849633458208634
3410000000.0,22.09,0.05390638304328961,0.12616711660634394,0.0,0.6627597583607977,-0.5430784207123842,10.001492127292222
3415000000.0,22.09,0.07209050448317408,0.12753726834617876,-0.0009049892114074687,0.08946295473422956,-0.1336112713481127,10.132455429655055
3420000000.0,22.09,0.07102563019053625,0.0916091793227061,-0.004982551529813953,-0.4818693257406933,-0.0635706600231066,10.234577331435174
3425000000.0,22.09,0.04400223835955962,0.039368179699191874,-0.0027148379916878533,-0.7602756652651567,-0.3281460301098603,10.3005
3430000000.0,22.09,0.027996491926330243,-0.012887632348478084,0.00014905834859012233,-0.806576401161864,-0.5048218671400186,10.299126533376365
3435000000.0,22.09,0.030658148020741044,-0.08060200124211732,0.0010646508437165,-0.47293456217744567,-0.41839683360376834,10.284313166396231
3440000000.0,22.09,0.03544898986210699,-0.13681574906961136,0.0010646508437165,0.3213804777047048,-0.48461533635745335,10.221626464096165
3445000000.0,22.09,0.030413271191076813,-0.14326802072589395,0.0008304131339189846,1.033586685539367,-0.6529533323400334,10.045732493295226
3450000000.0,22.09,0.03643034486766083,-0.09703805903171675,-0.0009581784867148638,1.7275430773754308,-0.6170489329878894,9.806075731951557
3455000000.0,22.09,0.04928575657974746,-0.020345199595910496,-0.0001916517182090292,1.9632724143031244,-0.6011562631261627,9.753983624924636
3460000000.0,22.09,0.06353074125397497,0.09208406754664378,-0.002299660409847794,1.5134811546667117,-0.5054091166031911,9.603206812952369
3465000000.0,22.09,0.07211306359736903,0.15879477503967457,-0.00410953764824555,0.6791388293150883,-0.21395495584104957,9.821870301910403
3470000000.0,22.09,0.08075170021800455,0.15703673198984947,-0.002193188052846156,-0.3759240528422405,-0.06003733480117335,9.85100600220176
3475000000.0,22.09,0.059068695999172374,0.10844701608722893,-0.0030342329286015095,-1.0467279449678795,-0.08731021495870214,9.887990782456408
3480000000.0,22.09,0.027570595120293268,-0.0007267322296728787,8.51867392378138e-05,-1.160323893422539,-0.2636942870861429,10.061920259241404
3485000000.0,22.09,0.024632210184887447,-0.0965005166080037,0.0020973548157112148,-0.7265219661895197,-0.4720574707677747,9.984519426156394
3490000000.0,22.09,0.028933429063463818,-0.1513315873918225,0.0010433504698918361,0.22308529764845297,-0.5099237322109373,9.916339857687499
3495000000.0,22.09,0.037397600111505495,-0.15388598019400335,-1.0653875927542277e-05,1.066253584146536,-0.50031,9.837957481707274
3500000000.0,22.09,0.049008882286152806,-0.09693495178229486,-0.0010646508437165,1.7363707478163075,-0.5003097280667973,9.692279592100196
3505000000.0,22.09,0.054278904015249894,-0.0062387417625222735,-0.0010646508437165,1.8432016488846164,-0.4614621276783213,9.63400819151748
3510000000.0,22.09,0.06059229097029976,0.09280439006487201,-0.0010646508437165,1.3059033820578339,-0.4130006591123066,9.508439713691997
3515000000.0,22.09,0.0607200046768827,0.1506069559137621,-0.004162807027883265,0.6859108304219084,-0.4310515365493154,9.705721133767812
3520000000.0,22.09,0.0607200046768827,0.15948684272517433,-0.0042586033748661,-0.18992782183167822,-0.2997926427951264,9.928506372550864
3525000000.0,22.09,0.06577713333818946,0.09805476185271991,-0.001224326178082066,-0.7941236766026369,-0.117228199090982,10.217117054066872
3530000000.0,22.09,0.059037804254915775,0.009690831396501995,-0.0010646508437165,-0.9900264341882644,-0.1816817485281175,10.388594965622252
3535000000.0,22.09,0.04075208204883726,-0.07896124154098405,-7.451810724943002e-05,-0.6174385161483852,-0.3049937926207379,10.279996207379263
3540000000.0,22.09,0.03549158955575192,-0.1401077710377062,0.0009794862385699484,0.06121935073819362,-0.4944253752050538,10.253019462479495
3545000000.0,22.09,0.030306732431801386,-0.1371131806639668,0.0010646508437165,1.0729270677387706,-0.6886633771474338,10.03719794742308
3550000000.0,22.09,0.03461864313046171,-0.07115656448515222,-0.001809928884610616,1.6088434477245346,-0.7328072068634721,9.830599551955697
3555000000.0,22.09,0.06454041377959774,-0.0022923516845325745,-0.002129301687433,1.622966123793561,-0.5349377118129771,9.818730969051611
3560000000.0,22.09,0.08598902429598926,0.08125825128541098,-0.0030662019344145502,1.2129051500097514,-0.31156400957924013,9.716215570215256
3565000000.0,22.09,0.08193460366244205,0.13888164261586533,-0.0022676987820651725,0.3553116908903169,-0.06258599960796002,9.744763846229239
3570000000.0,22.09,0.07179474153320682,0.11846120456121065,-0.003960516189807524,-0.3382535153217352,-0.02943,9.995803410946033
3575000000.0,22.09,0.049487764944658494,0.05694525514610106,-0.0006387603617056246,-0.4483171388801714,-0.25457137488231374,10.160708541601284
3580000000.0,22.09,0.040434346443060355,-0.011294865560276014,0.0,-0.6737526775045268,-0.44262845166968456,10.191020469537204
3585000000.0,22.09,0.044726027411687505,-0.08426083674863998,0.0008836677574958545,-0.3822928449927284,-0.42202578219405784,10.200732369634324
3590000000.0,22.09,0.050179999162844935,-0.11877542996966205,0.0010646508437165,0.5065955126071552,-0.3476658421484584,10.017381796176819
3595000000.0,22.09,0.054587646130240405,-0.10285817946918362,-0.0006600986796867229,1.0999008310852083,-0.3891631887999319,9.817846603428766
3600000000.0,22.09,0.05454502219449543,-0.049423800945777696,-0.0027681073713255603,1.4401101676961017,-0.4728426293311263,9.772721930074319
3605000000.0,22.09,0.05685534491230559,0.04182281784970864,-0.0023528707652421526,1.4156803297492033,-0.5524997601823977,9.639010509612405
3610000000.0,22.09,0.06915214589787692,0.11768526143883061,-0.0012988664194227531,0.7426110398069105,-0.4388982079613821,9.726419921918698
3615000000.0,22.09,0.0855612234397409,0.12823243601396841,-0.003524017154055953,0.007744774156247747,-0.16048935305479353,9.980009336294092
3620000000.0,22.09,0.08462817711645303,0.09195688123964522,-0.0026403188304340167,-0.5521105266503054,0.053367735968977384,10.030528659371686
3625000000.0,22.09,0.0679106158807297,0.009061934027331936,-0.0013308059131141177,-0.7210354224676543,0.02452429588724296,10.172971408225514
3630000000.0,22.09,0.04471585744470605,-0.06300266435948647,-0.0002768015672947393,-0.34373859254668593,-0.2686004088106041,10.120387412882474
3635000000.0,22.09,0.029018450324019368,-0.10245279476267191,0.0,0.25231771875287723,-0.5563270063488701,9.977259440917296
3640000000.0,22.09,0.037067417751130094,-0.10311537161392076,-0.0007665562806275176,0.8738793249684933,-0.6207767292973674,9.881023834378938
3645000000.0,22.09,0.0596930629466465,-0.062321658086742025,-0.001820560626446896,1.2795206363918066,-0.44390073000620733,9.712781413205215
3650000000.0,22.09,0.07606328658808048,-0.004375101611271595,-0.003619828257099619,1.3871341417937415,-0.31097636192816364,9.618704645515646
3655000000.0,22.09,0.0776973227954918,0.0748497829784575,-0.004993220161802322,1.0816473342764734,-0.23033823204808232,9.60399
3660000000.0,22.09,0.07597138197071762,0.12181790704379641,-0.003875313640504569,0.42143205489352054,-0.22602261327332615,9.777432648368826
3665000000.0,22.09,0.07491179269777232,0.11246375454488226,-0.0010539811577238035,-0.32295061030530614,-0.1960033728706337,10.00365096614101
3670000000.0,22.09,0.07104707917897363,0.04568091507221089,-0.0007026772932447883,-0.7632201385604014,-0.1247826297172263,10.223787439562974
3675000000.0,22.09,0.060240811087095,-0.04564890390622402,-0.0010646508437165,-0.5699577164065772,-0.16824228520712287,10.306876571382466
3680000000.0,22.09,0.048571737249409816,-0.1061030644449911,-0.0003832665462659547,0.115371604285116,-0.38808567290795676,10.134512798571627
3685000000.0,22.09,0.04137909973084736,-0.10734351986151093,-0.0013414755991068474,0.8384656387925564,-0.5708448304971483,10.00472814211648
3690000000.0,22.09,0.05460245561700705,-0.06405840701765349,-0.002129301687433,1.2652958785408588,-0.5389604682403047,9.8527700231759
3695000000.0,22.09,0.07496516550806596,0.009373390531809245,-0.0027787464911922417,1.355447484687175,-0.37680073635210737,9.710918282290583
3700000000.0,22.09,0.0871408612906301,0.08224039831475508,-0.0031939525311496,0.8495399630828997,-0.14518605956236058,9.737406790548668
3705000000.0,22.09,0.09117583340143073,0.10676944623464962,-0.0031939525311496,0.15528776619367762,0.06494349537323495,9.861601607512515
3710000000.0,22.09,0.0804871138180912,0.07888994203471023,-0.0019589419110139098,-0.2574164177443642,0.046302047003220465,9.991878336809883
3715000000.0,22.09,0.061507705338691696,0.017155339970980836,-0.0004577920315458055,-0.43428949375359494,-0.16500607614486074,10.129316582391265
3720000000.0,22.09,0.04909396257095172,-0.053688234156910666,0.0,-0.2279810761993108,-0.373566100617661,10.170615310973853
3725000000.0,22.09,0.04932828776310992,-0.09411439540956656,-0.0005855658163764514,0.2511397623900976,-0.48902900647559006,10.023856263512261
3730000000.0,22.09,0.05680215247498516,-0.08903569654932263,-0.0016395701621958298,0.809133291948033,-0.4987401101969011,9.859637803041478
3735000000.0,22.09,0.07088616582147075,-0.0421949326498631,-0.003257847328597469,1.182498705862087,-0.37150317649423176,9.706012549042125
3740000000.0,22.09,0.08433018373778124,0.029786364801558433,-0.0042586033748661,1.117553093294631,-0.18285709238977094,9.608698727354987
3745000000.0,22.09,0.0884183799060327,0.08993086499748348,-0.0031726437252901185,0.6858128082142281,-0.03806192709441928,9.704053454842635
3750000000.0,22.09,0.08575671327157838,0.10439675840799374,-0.0026616350143238935,0.13733606668046067,-0.01962058271400583,9.908101602463516
3755000000.0,22.09,0.07734801832542057,0.07188606662096712,-0.0016288920441683847,-0.4015274573730746,-0.13577156698191567,10.112149458727394
3760000000.0,22.09,0.064722988809792,0.005417573577180597,-0.0005110403310966006,-0.6160669044976691,-0.23465549213395492,10.231045492133955
3765000000.0,22.09,0.05552447681293504,-0.06888531384667168,-0.0010646508437165,-0.23062820024928204,-0.29194618504486186,10.154623764257238
3770000000.0,22.09,0.05669568011798354,-0.10675975171002194,-0.0005749035084141425,0.43811979916859806,-0.3696413858218139,9.946161188990011
3775000000.0,22.09,0.06311550886390897,-0.08490634747253903,-0.0009582016748104718,0.9510817730702177,-0.3590451201018512,9.723670240203703
3780000000.0,22.09,0.07214084488840733,-0.019984151927780913,-0.0035346647059574313,1.1960365215953652,-0.20365405813874057,9.568281159468212
3785000000.0,22.09,0.0844792515724105,0.05031640944200648,-0.0053232542185827,1.1346218062748181,-0.11360024111450241,9.611250723343508
3790000000.0,22.09,0.08741755218746858,0.10345886794984749,-0.0030874475000132596,0.5059923647635236,-0.1595108208486082,9.80254601955646
3795000000.0,22.09,0.0795958509398369,0.10298552878400177,-0.00043651484581674974,-0.2818452068060521,-0.13233608915346087,10.06849607996626
3800000000.0,22.09,0.07200525555767985,0.0332303716563428,-0.0006387824957968717,-0.43948519520325197,-0.12753110715661106,10.290690369052204
3805000000.0,22.09,0.0681725605828985,-0.051454264343292144,0.0,-0.13164857403368574,-0.2732096086133961,10.274208313109282
3810000000.0,22.09,0.06898171128714926,-0.10058339720771534,-0.0016183014085015784,0.20503307025733072,-0.3406027559719276,10.109203149883033
3815000000.0,22.09,0.06990793341610324,-0.08248586388360085,-0.0034707456664095355,0.7754853166168533,-0.2714420330838203,9.86277587335326
3820000000.0,22.09,0.07345960066357463,-0.018912610539292978,-0.00289586640009532,1.1666049774032499,-0.18756660640866607,9.666773258010833
3825000000.0,22.09,0.08506481844279126,0.037339920864078696,-0.003885967516432079,0.9417555422378555,-0.09613710844757109,9.621157871480179
3830000000.0,22.09,0.08760913223338204,0.07688755672549065,-0.002107984449538869,0.40907365230803655,-0.042968320752083206,9.70974306468363
3835000000.0,22.09,0.07600939743660866,0.08462220448851551,-0.0003513428626397774,0.023836139782061394,-0.13361324286383242,9.907219111237392
3840000000.0,22.09,0.07448092733252787,0.04065031053393925,-0.0010646508437165,-0.19188419669914197,-0.23504782376217823,10.153744040922641
3845000000.0,22.09,0.0808168215136571,-0.0191216686900254,-0.0017247505774075998,-0.24220882531548826,-0.25506,10.291376475946464
3850000000.0,22.09,0.08074754408880269,-0.060193118271663376,-0.0031939525311496,-0.10300163482661637,-0.21091387827553879,10.1945500556776
3855000000.0,22.09,0.06906683478612631,-0.07759643324032857,-0.0031939525311496,0.43645296517872967,-0.12213487439374875,9.953420552667506
3860000000.0,22.09,0.06753381076123631,-0.062034942917424465,-0.003790173277457967,1.0637981244449812,-0.21189749951737497,9.742505625506757
3865000000.0,22.09,0.07280854501287858,-0.009403604205696237,-0.005035790343325625,1.109703896788539,-0.33196979941609794,9.578287349562073
3870000000.0,22.09,0.08030584653082991,0.06049075185472056,-0.0037049686201462203,0.7078870442163705,-0.19560906972669068,9.586333503402136
3875000000.0,22.09,0.09400790302648239,0.10039564471810798,-0.00239547256689583,0.3457989624403896,0.061313478473934785,9.81245498381845
3880000000.0,22.09,0.10311052065395233,0.07869987108111731,-0.0031939525311496,-0.14126852186068523,0.14989657390696573,10.116466359472962
3885000000.0,22.09,0.0926940489762797,0.00907561289573193,-0.0024593188801438908,-0.5299342380019424,0.0778897398477974,10.305797249077072
3890000000.0,22.09,0.06503842583943581,-0.061937849903193655,-0.00023423138577144048,-0.18030243534062435,-0.17893757346047573,10.230258284359682
3895000000.0,22.09,0.04484300124595551,-0.09111188906577852,-0.000841065955842181,0.48452036368640367,-0.5106108782785088,9.962445432951753
3900000000.0,22.09,0.05987202965343859,-0.07435758789948899,-0.001064691949886027,0.9535324545169246,-0.4865735759097358,9.717784333437942
3905000000.0,22.09,0.08932345659980086,-0.014901319504395296,-0.005120962326502605,0.9987560241500603,-0.1646089177022892,9.532082169050422
3910000000.0,22.09,0.10283377705689657,0.06151134244850774,-0.0034920217981342645,0.8866233191235332,0.1673598910999989,9.513543394888234
3915000000.0,22.09,0.1040048022352106,0.09562590931376715,-0.00018099889628583277,0.3169567654818677,0.2740900312048003,9.750848817811288
3920000000.0,22.09,0.09233327923700096,0.07184648865410903,-0.0007239460469390775,-0.18639190353241905,0.07416101119591012,10.116073522825936
3925000000.0,22.09,0.06673520747847414,0.025563340846637462,0.0005855331422417309,-0.37621266137742665,-0.23544152476831526,10.279408423761586
3930000000.0,22.09,0.06023035641798881,-0.03681712100649578,-0.0019802422848385318,-0.19246708551917086,-0.3816078549669786,10.260082189315721
3935000000.0,22.09,0.07279556361889528,-0.0862890782185996,-0.0013414766531112063,0.4263458101714581,-0.2410308592408086,10.13519806053058
3940000000.0,22.09,0.0894830307497492,-0.07900220396846845,-0.0034494853447500622,0.8012818714168187,-0.1165408102259081,9.715821704106817
3945000000.0,22.09,0.08924879093194298,-0.01947499828174208,-0.004971894491873368,0.9210608233731082,0.10791,9.45684
3950000000.0,22.09,0.0867148885962802,0.035580732042414645,-0.002129301687433,0.8730869310395692,0.09417492586384926,9.47057507413615
3955000000.0,22.09,0.08086999708690804,0.08649128684433632,-0.002129301687433,0.46518543708995436,-0.04090869867468699,9.640977771519877
3960000000.0,22.09,0.0803270752323591,0.07478776413595759,-0.002129301687433,-0.10948167679271675,-0.1593146307547463,10.129022661446728
3965000000.0,22.09,0.08529896129219772,0.036223308331821226,-0.0022038356047476243,-0.344231898800219,-0.18570322298463224,10.31286198627662
3970000000.0,22.09,0.0860335285409296,-0.02337735020933616,-0.003130065111732098,-0.19796217571312175,-0.1742252915500529,10.465895134862752
3975000000.0,22.09,0.08208371576525378,-0.07291120505344012,-0.0022357835304737533,0.25800655164186553,-0.13439653674236535,10.269595179986952
3980000000.0,22.09,0.08309512568745,-0.08062416059492628,-0.004216008951242847,0.6972968872815689,-0.07180788578567886,9.853945862344458
3985000000.0,22.09,0.08312707361317613,-0.044993044881263856,-0.0031939525311496,0.9509812451923125,0.09093939663459397,9.490486829326967
3990000000.0,22.09,0.0841384751033375,0.01715914368259848,-0.003172651103320588,0.9270430624759306,0.17363583748555836,9.314400660023107
3995000000.0,22.09,0.08309512568745,0.07488046288511933,-0.0021079918275692237,0.6798275681342758,0.027466448038364483,9.548762571129027
4000000000.0,22.09,0.08309511725541524,0.10653455998388298,0.0,-4.040150440401504e-06,-0.16677031078080312,9.90810396245524
4005000000.0,22.09,0.08204111290959575,0.06433982863157117,0.0,-0.5050228452006285,-0.2056179111692791,10.403410867408308
4010000000.0,22.09,0.08411720740364755,-0.027953588523924752,-0.0031300988398711683,-0.34668407587954075,-0.16755448844224488,10.571845924120458
4015000000.0,22.09,0.0841597765311665,-0.08666112459486541,-0.004226672313209502,0.3227544590590446,-0.1287068880537689,10.251643548457036
4020000000.0,22.09,0.08620392309949215,-0.10068325931598654,-0.0032365300907033195,0.861322294602223,0.023152849338828496,9.930856623238665
4025000000.0,22.09,0.09842619965378797,-0.05566340388168682,-0.005216806103681013,1.143848189062282,0.15058451635034514,9.479889825502598
4030000000.0,22.09,0.09005786574788088,0.059886348751724265,-0.004322473930214068,0.8901571299404714,0.20306739138957391,9.189417129940473
4035000000.0,22.09,0.08354222800692053,0.0988084227357516,-0.0022783357939231753,0.3348106758730067,0.11477621624966217,9.528161756626318
4040000000.0,22.09,0.07917717651715264,0.08160444417914457,-0.002129301687433,-0.23819142985701436,-0.09967140485951403,9.924976417358264
4045000000.0,22.09,0.0788365223125838,0.023676641793065556,-0.00019162009807865456,-0.5076694642317947,-0.2337733214005332,10.25174689278597
4050000000.0,22.09,0.07787832801580374,-0.03557377919043556,0.0,-0.22072224667632245,-0.26290815733278156,10.386828943996692
4055000000.0,22.09,0.0891424450554629,-0.07757671969596465,-0.003790191195531807,0.36366166210111667,-0.09025042472980427,10.311290212364902
4060000000.0,22.09,0.10085359590431003,-0.07451990539812563,-0.005195504675851996,0.8114866698676668,0.14715197151571968,9.989716361017363
4065000000.0,22.09,0.0967013120558154,-0.041061712188407234,-0.0053232542185827,0.8718147789577478,0.3216712422817124,9.580344504816846
4070000000.0,22.09,0.08122120292898286,0.008679244919938538,-0.0034920376081994838,0.8984000371646004,0.19148977701239778,9.348339739847797
4075000000.0,22.09,0.06705718337829172,0.06667991259622268,-0.0022889907238550717,0.710732679504327,-0.05003305795163057,9.36119289575993
4080000000.0,22.09,0.07572505267122856,0.07742840801442043,-0.00034067106863835614,0.19070172430281723,-0.18717575098925748,9.772333483206134
4085000000.0,22.09,0.09367791007587149,0.05743300243040288,-0.0008836688115002004,-0.23573755319517553,-0.09201668915286687,10.158650415156504
4090000000.0,22.09,0.1030467428509868,0.009587709408298097,-0.00019162853011342115,-0.2960657205566572,0.10830414775354148,10.463348383300284
4095000000.0,22.09,0.0974891360361329,-0.05522032682209177,-0.00344950326282391,0.08711661794216613,0.12331146137861462,10.460696743216767
4100000000.0,22.09,0.08565018399834208,-0.07925900449011551,-0.003406874057057264,0.600376300429363,-0.007849274201292736,10.110182575584025
4105000000.0,22.09,0.07298834360555961,-0.0475185027414531,-0.004035035351061314,0.8535696149592962,-0.10898981761229819,9.64607099299971
4110000000.0,22.09,0.0811111481667186,0.008186777786897435,-0.0034281670528515072,0.8697543605045437,0.017855716804557165,9.369136763868168
4115000000.0,22.09,0.09973578318939907,0.06806536849643743,-0.0031939525311496,0.6291128222029283,0.1797204788630048,9.34971511971575
4120000000.0,22.09,0.10196071258311967,0.09578591138947987,-0.0007665225524884755,0.04472807820208069,0.21582,9.731524001302839
4125000000.0,22.09,0.09241072491907532,0.07057206642701434,0.0,-0.47824142603561426,0.1496017788914178,10.150900785050208
4130000000.0,22.09,0.08160452744548784,-0.007861720807753075,0.0,-0.46047987581439875,-0.0031406439653064444,10.461974926388551
4135000000.0,22.09,0.07649216976856191,-0.07317426382092372,-0.0031088153301160127,0.0033400584100006236,-0.12066380317413802,10.414196534603967
4140000000.0,22.09,0.08253669901428382,-0.10222897844308927,-0.0027254887056023013,0.6231365073591651,-0.09064375668373757,10.129018465905885
4145000000.0,22.09,0.09353944657896554,-0.07431468760726032,-0.004397034197637368,1.0482013179078133,0.09849433227964331,9.680405793905758
4150000000.0,22.09,0.09991664401111562,0.001173587791175143,-0.003087461202069699,1.1065675163473752,0.2766432897403329,9.288105098084252
4155000000.0,22.09,0.09531724730310692,0.06959567799361054,-0.002129301687433,0.8113817910585179,0.3169610192941102,9.276925729882457
4160000000.0,22.09,0.08905712656568178,0.1007377611204434,-0.002129301687433,0.21973834378938345,0.12046445671274456,9.572993470514335
4165000000.0,22.09,0.08022048061085328,0.08869008256315633,-0.0007026519971404886,-0.33521182590651827,-0.09545283710242837,10.014346264106262
4170000000.0,22.09,0.08373400409764231,0.02224699073036518,0.0,-0.5326834049862341,-0.04689042304680423,10.451381282881613
4175000000.0,22.09,0.09982164713506843,-0.061465074508721615,-0.0013840636987040252,-0.12212906667749068,0.1309650407929504,10.550163932339439
4180000000.0,22.09,0.10311680053279605,-0.09668014975656,-0.0014479163359781089,0.4532264655316647,0.2401493683403937,10.218484421617244
4185000000.0,22.09,0.09113310722726428,-0.07664268359348103,-0.0017353896972742695,0.8761341076783411,0.2154269496911695,9.75496207943562
4190000000.0,22.09,0.07729249792079661,-0.012649823775629537,-0.004109578754415068,1.0530059697000598,0.12556718614277185,9.353243307342533
4195000000.0,22.09,0.07698793161551545,0.049300565461757526,-0.004673808360819112,0.8636694666176947,0.046400729620107294,9.259463451862734
4200000000.0,22.09,0.08948316355429684,0.08202367074459715,-0.00298100465513323,0.29625604466286043,0.06670865263968653,9.513741100038512
4205000000.0,22.09,0.10089615870780294,0.08238169438786476,-0.0027574545494023425,-0.2390732121144321,0.14440385341663853,9.969613028885231
4210000000.0,22.09,0.10068310437734772,0.04334163085495523,-0.001958939803005218,-0.36081106403221064,0.15951035467740354,10.393305625645356
4215000000.0,22.09,0.09617965790095637,-0.025756307184725956,-0.0016715107098915403,-0.21189436257364364,0.12478287251472872,10.54575
4220000000.0,22.09,0.09361385823177601,-0.07934016897598208,-0.003917941792266868,0.1581414623587146,0.168340501652805,10.320509039294091
4225000000.0,22.09,0.0862357477067098,-0.08602278191261961,-0.0047376873482018475,0.652369103277791,0.23200674619666747,9.84678298639443
4230000000.0,22.09,0.08269058511746798,-0.05007165384012078,-0.00483352374734983,1.0055270540668704,0.22935755351197554,9.392090713493007
4235000000.0,22.09,0.08698114590409937,0.016779218226436226,-0.0036304325948229316,1.0091529725443296,0.20542123548041236,9.175194324181444
4240000000.0,22.09,0.08782214861968085,0.08369250229639298,-0.0015756743107435674,0.5399363879453638,0.1298833293601333,9.336768729562687
4245000000.0,22.09,0.08737503997618427,0.10426882904521019,-0.0010646508437165,-0.0689686700636867,0.0486572701838727,9.860919589328196
4250000000.0,22.09,0.09374172371498479,0.05485497226758128,-0.0010646508437165,-0.3629706604092066,0.06867066040920661,10.42312887990409
4255000000.0,22.09,0.10010826410919428,-0.027954224347726778,-0.001586338726714568,-0.26280750320017504,0.14636586118615863,10.615204138813843
4260000000.0,22.09,0.09863898310512637,-0.08508787209236954,-0.0031513844576349405,0.23073732315877327,0.2570232411808324,10.386824690184447
4265000000.0,22.09,0.0938693562632331,-0.08773918595056404,-0.0042586033748661,0.847980707810407,0.3473723485275235,9.915354595134545
4270000000.0,22.09,0.08916359049064869,-0.03951681048487157,-0.0037688549855593965,1.0957765853018657,0.32235585354335855,9.433292682414926
4275000000.0,22.09,0.0829353649787324,0.029986233295744895,-0.0027148506397399732,0.888292095493421,0.23936333570603335,9.19049791874278
4280000000.0,22.09,0.07977343309960876,0.08658542017980661,-0.0016608462939205397,0.45557232644062334,0.14008571925975719,9.299490426551404
4285000000.0,22.09,0.08508610406055511,0.10133175183545864,-0.0010646508437165,-0.041402694473126944,0.030704550921145504,9.730936227397061
4290000000.0,22.09,0.09591363036608462,0.06387360271643151,-0.0010646508437165,-0.4958004831398048,0.0669059498901595,10.273625016389449
4295000000.0,22.09,0.1068227749149909,-0.005881539240476328,-0.0015011667435375956,-0.5695657635424576,0.2668336685044367,10.61540183425222
4300000000.0,22.09,0.10674073747162331,-0.07329731891469192,-0.002129301687433,-0.09024598639145981,0.3747418329553183,10.547709327285094
4305000000.0,22.09,0.09159087607071448,-0.11068712658200253,-0.002129301687433,0.5745769680259697,0.340014098283241,10.15275688454917
4310000000.0,22.09,0.07868744393791113,-0.09653474446608123,-0.002533878093562769,1.0634065114973652,0.28174269770052696,9.602219093288692
4315000000.0,22.09,0.07630683284957003,-0.029345890562498485,-0.0031939525311496,1.2640189190684892,0.24887978381369785,9.151354756098648
4320000000.0,22.09,0.07946423392686497,0.055307347442497504,-0.002810669120814076,1.1324625401024253,0.2268065287134653,9.071896942573069
4325000000.0,22.09,0.09187863190517531,0.11818792592568739,-0.0028745755123097674,0.520903103254031,0.13194340789683406,9.374931456468216
4330000000.0,22.09,0.10189685045980645,0.13040961648812444,-0.003534622545783576,-0.32530582377405826,0.11909516620615165,9.997965823774058
4335000000.0,22.09,0.10084284611398704,0.06818243993841944,-0.0024806456040771564,-0.7493844685630447,0.2777216894152169,10.567726757660868
4340000000.0,22.09,0.09910744693067357,-0.03463998784158401,-0.0028532551124025663,-0.5026607751304077,0.31117286280282863,10.68269574541556
4345000000.0,22.09,0.09264492468471641,-0.11014844483142791,-0.002459352608282911,0.0335571205057712,0.29969592198205924,10.371716042593762
4350000000.0,22.09,0.0818175079956389,-0.12836689990995714,-0.0035133569541023583,0.7887297455600975,0.3394261689870617,9.803127169946373
4355000000.0,22.09,0.08223285948819595,-0.08001814705968342,-0.003949845449810463,1.292664799678448,0.4015247380410474,9.252495416052454
4360000000.0,22.09,0.08995145873914874,0.0030691717558071416,-0.0034920639583081153,1.3200316521813165,0.42928280530362806,9.072680654063307
4365000000.0,22.09,0.08669359033046425,0.09798905047014261,-0.003971138445604706,0.9191893693600938,0.13792673473246736,9.207767745750179
4370000000.0,22.09,0.08120001954964055,0.15358856062566473,-0.0029171340997853016,0.045118360619383596,0.010988218584082186,9.714653420796536
4375000000.0,22.09,0.08762455959131925,0.12330665350379551,-0.001596957820498698,-0.706323399165034,0.1275310197495102,10.369173059248531
4380000000.0,22.09,0.11552060606116984,0.023439546072729932,-0.00025552543557002936,-0.9394033880176339,0.2982269776685698,10.64816691045747
4385000000.0,22.09,0.1149840074724304,-0.07443072766279293,-0.0013095297813894079,-0.546998104743981,0.5975285479471856,10.559773274771533
4390000000.0,22.09,0.09107593578530822,-0.1340707285403615,-0.0018950692476572136,0.31628224488442247,0.6611914418855145,9.986771169041512
4395000000.0,22.09,0.06806600285154477,-0.1310101221249525,-0.0012882367855951648,1.1026474147040741,0.3698344389719444,9.45497277066353
4400000000.0,22.09,0.06263650604890783,-0.061152076030443835,-0.0023422411314145634,1.3792845470997455,0.11968123081751231,9.152730000000002
4405000000.0,22.09,0.07517066076125566,0.027798171574461437,-0.002587073692896316,1.1974063753921638,0.05836992780919928,9.17696181230392
4410000000.0,22.09,0.08237138622536268,0.11197505613397028,-0.0005749393445619183,0.8636662325549623,0.10516354263583542,9.412701424421915
4415000000.0,22.09,0.1076704577373286,0.1375198626079256,-0.0033749524814397783,0.14106042497730426,0.18904135843841358,10.096063716291736
4420000000.0,22.09,0.12684832383106445,0.10610284621425531,-0.0039178964700799694,-0.6093999473022995,0.4854012038895121,10.501017172678772
4425000000.0,22.09,0.11228117008048509,0.03196302651550999,-0.0019695947329370646,-0.8171697338879974,0.7043573123974731,10.553106210745261
4430000000.0,22.09,0.08890801657087877,-0.06858264080965572,-0.0010646508437165,-0.42339478134364783,0.608806793003868,10.348367809248778
4435000000.0,22.09,0.07578914613985627,-0.12981880214479602,-0.0012030648024181924,0.14342857469698575,0.4099584355425844,9.786352989760429
4440000000.0,22.09,0.055268982997495414,-0.1222444682008677,-0.002129301687433,0.8491590332253904,0.23896970268319703,9.286929851341599
4445000000.0,22.09,0.057144922740147666,-0.062246442315009524,-0.002012180724525551,1.384386509289665,0.04473325464483255,9.205999422404293
4450000000.0,22.09,0.0819241879914967,0.03728621972279192,-0.0014905487037578313,1.2664667646403678,0.026488469410484692,9.36561106248781
4455000000.0,22.09,0.10223932541368577,0.11705551934565286,-0.005227426251469484,0.7632110773576108,0.20042063639180635,9.822953353585435
4460000000.0,22.09,0.12382485544884676,0.14534653030675596,-0.0042586033748661,-0.01217115715161158,0.46185705238387054,10.27185705238387
4465000000.0,22.09,0.12549616905992567,0.10757378025999137,-0.004109533432228167,-0.7257450141817502,0.7026910805454107,10.496894985818251
4470000000.0,22.09,0.1069381630947538,0.016813681766796942,-0.0020654132140111585,-0.8422849503366495,0.7730262635122627,10.34503384020014
4475000000.0,22.09,0.0789419447775845,-0.07355136841588135,-0.0010114088681917799,-0.6312671547300717,0.5807506092559062,9.949298870825789
4480000000.0,22.09,0.060379240855861896,-0.13604788720589578,-4.259547762759854e-05,0.08241139658311397,0.4186879283853793,9.605557772608877
4485000000.0,22.09,0.052362542825802695,-0.15254365251013727,-0.001032701863986023,0.8993856784816568,0.10261103191661032,9.406906838652768
4490000000.0,22.09,0.05805896341258057,-0.0884589907107559,-6.390744550006836e-05,1.435400595405806,-0.06494054295560542,9.383267180321573
4495000000.0,22.09,0.08446897475357855,0.014725431699806198,-0.0032152644990220687,1.586274380700544,0.12017468274954683,9.625573746199636
4500000000.0,22.09,0.11505222760997456,0.102259400861673,-0.0053232542185827,1.2949121333609215,0.36297288443432885,9.81981192295622
4505000000.0,22.09,0.1287542841056271,0.16448021478455377,-0.0053232542185827,0.4208411246202113,0.6834655876392559,10.033473725092836
4510000000.0,22.09,0.12158899392205132,0.15467447389904943,-0.004279886884621232,-0.3955465585124656,0.8597499768240998,10.189452201621421
4515000000.0,22.09,0.10283410445483665,0.07385862403916907,-0.0032258825388018523,-1.17328301587663,0.7490905476185055,9.983242670633928
4520000000.0,22.09,0.06851363239781211,-0.025780814962889906,-0.0011498038548152512,-1.0743900586575006,0.59487699527077,9.788416244088463
4525000000.0,22.09,0.05294791997540127,-0.11281450217152683,0.001969632677093514,-0.6592281327213814,0.38356906636069066,9.66873494528765
4530000000.0,22.09,0.055205141954269135,-0.1572290659253304,0.00012773900268723366,0.284498798981488,0.16990726422407262,9.598299584071295
4535000000.0,22.09,0.06133755952515476,-0.135015290189424,0.0,1.1644549278240492,0.03835595486985956,9.80401792599948
4540000000.0,22.09,0.08628792137107566,-0.06847282338843569,-0.00097948834657864,1.623362680098327,0.14675874639268746,9.910062881840528
4545000000.0,22.09,0.10974878323028395,0.023425266128113825,-0.003971176389761146,1.6935987531246877,0.3979940835916408,10.01610907109289
4550000000.0,22.09,0.12048190991737642,0.09522928799679807,-0.0042586033748661,1.2733337578420376,0.5366081489177815,9.955187292973674
4555000000.0,22.09,0.11291206967777956,0.15630019266442904,-0.007101249933528016,0.5103089450163893,0.6977868040819681,9.755258253540982
4560000000.0,22.09,0.10153686680042456,0.14798840787138742,-0.004641848841045151,-0.5795850744133508,0.6470668914197689,9.671089779992299
4565000000.0,22.09,0.08067816618796023,0.09589624672424527,-0.002406091660679948,-1.2196825315092252,0.5949760566517606,9.603106479312464
4570000000.0,22.09,0.07043198660580469,-0.01602112700028517,-0.0002980829690411783,-1.2780466224664664,0.5632899336996994,9.906337484370376
4575000000.0,22.09,0.06109254567492556,-0.10365323899926876,-0.0009049628612987893,-0.6832601906641019,0.3840596338583963,10.007181533183315
4580000000.0,22.09,0.06054967019656785,-0.1447495396880274,0.0007239818830868355,0.3606257415545575,0.18835022077990218,10.230262712986127
4585000000.0,22.09,0.07398953905068914,-0.12986414212878886,0.0001809809782119538,1.1013748450105485,0.22209911246499114,10.197788498476884
4590000000.0,22.09,0.1020392101442524,-0.07765370379325061,-0.0026190701028223555,1.5703887228306874,0.460680096346801,9.941451325342713
4595000000.0,22.09,0.11018667899458139,0.002787028684554077,-0.004056329400859903,1.6242414322429144,0.7643980560755806,9.665986700933866
4600000000.0,22.09,0.10738657942934711,0.0669059948869187,-0.0042586033748661,1.2811821579723217,0.7926476426020765,9.386205408865054
4605000000.0,22.09,0.08211588867771091,0.10912933003379131,-0.0042586033748661,0.6620707281846072,0.5368003377088034,9.2285601371942
4610000000.0,22.09,0.059846806344553846,0.13297332985073543,-0.0034281659988471616,-0.046309826235198304,0.23367142414471426,9.416032907224128
4615000000.0,22.09,0.07426537984982583,0.11034724793456582,-0.004833534287393311,-0.7574366437811664,0.15921621035916209,9.861703271682734
4620000000.0,22.09,0.09446577200034545,0.06502493472203941,-0.0053232542185827,-1.063798105021181,0.5148331074219311,10.185529312662794
4625000000.0,22.09,0.10706295729569267,-0.009853154320669265,-0.0029277605715998284,-0.9319478439581785,0.8191373357119733,10.383886617031367
4630000000.0,22.09,0.10026171786325158,-0.07503783648133878,-0.0005535989185720953,-0.5318939731868397,0.9337164295253644,10.340916120813661
4635000000.0,22.09,0.08216869381163114,-0.12787899827449445,0.0,0.03914757184677575,0.7510510791792109,10.088306909091271
4640000000.0,22.09,0.05599757760101104,-0.13707391181412099,0.0,0.8699592718846929,0.4226115554484156,9.68835194431052
4645000000.0,22.09,0.05172375400597978,-0.11865040872581985,0.0,1.4137227991656283,0.19835657597606576,9.48813290754093
4650000000.0,22.09,0.07116603566453118,-0.058907656472165615,-0.0014905307856839323,1.6951701676961017,0.25702344513073444,9.408770367755304
4655000000.0,22.09,0.094998138001371,0.017435683217501385,-0.003598539477322758,1.6845721149865214,0.5410246646226466,9.42878394250674
4660000000.0,22.09,0.09501911690387019,0.10383606754342642,-0.004982575771913891,1.4279406130080061,0.5340548612465487,9.460371781029817
4665000000.0,22.09,0.09446563603378484,0.15885428873846838,-0.00389660242028143,0.6013430326769302,0.41496209387972094,9.847871855497617
4670000000.0,22.09,0.09868165341706249,0.16517787164775435,-0.004599311333656626,-0.36984561736895627,0.6092041748201418,10.210446649146967
4675000000.0,22.09,0.10429308140874728,0.1279932376413567,-0.004631221315226276,-1.0055295403132956,0.8215888620939886,10.211227728712277
4680000000.0,22.09,0.1037981816509548,0.05314026761293875,-0.002214444158488325,-1.315326799874468,0.8856469818067698,10.106653581869535
4685000000.0,22.09,0.08480860754154249,-0.028357270201316277,-0.0003939109361543846,-1.3435768719959686,0.9297923460030235,9.833834750980348
4690000000.0,22.09,0.05937831722290228,-0.11828710944522622,0.0006600934096649938,-0.8462035854830359,0.7326075204855752,9.64970396231664
4695000000.0,22.09,0.03512557059837093,-0.1717731091100968,0.0010646508437165,0.09909103142161024,0.30518463145764635,9.611641617610516
4700000000.0,22.09,0.036428680577520085,-0.16809593278755877,0.0010646508437165,1.1026530378942303,0.023542539330225404,9.709939643253497
4705000000.0,22.09,0.06504596623836212,-0.1046681125870904,-0.0008198109042043874,1.8268235005608349,0.14018773305837734,9.832661922500819
4710000000.0,22.09,0.10584660778794217,-0.015206917403470854,-0.003981823941662639,1.9463021702780217,0.5607443572771436,9.908689240402692
4715000000.0,22.09,0.12281337912437679,0.07520186668520108,-0.0035026714580444276,1.673779086170591,0.9595191222461912,9.814510585169206
4720000000.0,22.09,0.11129459016804387,0.1347369542337043,-0.003321730531997585,0.9700034486056346,1.0218083164752831,9.655785699835956
4725000000.0,22.09,0.0816478790416429,0.13262639822090677,-0.00542973922363644,0.16823535091045344,0.761743104234131,9.668737101329471
4730000000.0,22.09,0.05701490009017577,0.0929306641743062,-0.004088219356347006,-0.4188920531016206,0.4341877518881775,9.71111501625085
4735000000.0,22.09,0.05960227101229762,0.04596489091879119,-0.0038221264732058056,-0.7138745277452453,0.2994993919716939,9.75408391971694
4740000000.0,22.09,0.07652866893688955,0.014019012656576214,-0.003662368926501261,-0.7043570793118707,0.5387694351653943,9.87160808896338
4745000000.0,22.09,0.0922831925012399,-0.013690014772461581,-0.0010433378218396862,-0.5572061566813615,0.8804498041482981,10.027587458986774
4750000000.0,22.09,0.09480620486400167,-0.041015407807716765,0.0005323354348995353,-0.31882232437152325,0.9564741696325417,10.084679446421694
4755000000.0,22.09,0.07801859482775157,-0.056855452420748916,2.127296971167242e-05,-0.046791206275412056,0.720050305593203,10.01198706875847
4760000000.0,22.09,0.054238339085633885,-0.06289187232982167,-0.0005536084046112077,0.2719368058342681,0.40691658102506584,9.886908828226089
4765000000.0,22.09,0.052119213136288096,-0.06278544740301559,0.0,0.6368685319586853,0.32598713298967136,9.726417319129474
4770000000.0,22.09,0.07363182279655782,-0.053621190219101326,-0.0014692483299331932,0.9007557750759578,0.5171861648488617,9.557488839620989
4775000000.0,22.09,0.08772638705484143,-0.026678790742986548,-0.0031939525311496,1.0879310404702105,0.7838210404702104,9.47891296374323
4780000000.0,22.09,0.08620383561713142,0.0055441662896661085,-0.003662408978666406,1.1289331287762312,0.8550385786965858,9.596536349761063
4785000000.0,22.09,0.07561363046791628,0.03672376547439646,-0.002885173526007003,0.9667741058567411,0.6849317834850179,9.770957501200375
4790000000.0,22.09,0.0693437269977948,0.0614867148421447,-0.0019589777471616682,0.7098476923198769,0.49834706959997077,9.923405274720052
4795000000.0,22.09,0.07680348951165568,0.0691839283449208,-0.0036304694849750413,0.354236399023464,0.4655831588227316,10.049953158822731
4800000000.0,22.09,0.08522447796709168,0.06859848163103541,-0.0038327329189377798,0.0529708300358083,0.5787918646848187,9.994425855612459
4805000000.0,22.09,0.08924882782209513,0.05581539868638436,-0.0027787285731183625,-0.261929799940798,0.7998118199467181,9.839920033343201
4810000000.0,22.09,0.08973852667319761,0.01566083339451059,-0.0017247242272989231,-0.48991261457022617,0.9837473605708736,9.735442131430421
4815000000.0,22.09,0.07738185507877068,-0.018095149771040753,-0.0006707198814795447,-0.43830743307847436,0.9149759877576599,9.635578761153587
4820000000.0,22.09,0.0524518682081376,-0.03659886644322213,-0.0007665689286796674,-0.1275276594320766,0.5874188678458887,9.69738185535902
4825000000.0,22.09,0.04713451451322789,-0.031318025359515195,-0.0013840257545475756,0.0568987497586875,0.28939406280164065,9.813435468116555
4830000000.0,22.09,0.0640478328659235,-0.017705944756945344,-0.0003619914685455906,0.14460043198650432,0.3190238268747383,9.980694938169549
4835000000.0,22.09,0.08373412003812038,-0.01242446515394993,-0.001415995814364969,0.25466872696888726,0.655704907875549,10.006591273031113
4840000000.0,22.09,0.09765953902673022,-0.01614582464751437,-0.0017886032146816524,0.3774901161567012,1.0402544682462447,9.89632705988807
4845000000.0,22.09,0.08999908449571362,-0.027219333415988093,-0.001394702818570726,0.5164979116246792,1.1413920883753208,9.753590147292202
4850000000.0,22.09,0.06593651776735554,-0.027698272990728436,-0.0011710852565616865,0.673948789903188,0.9133069491664696,9.55493905794569
4855000000.0,22.09,0.0433397594097636,-0.011904265265906815,0.000755891864656517,0.7788150512770505,0.5099202165031023,9.50049497151275
4860000000.0,22.09,0.04145869464873414,0.011205106170053282,-0.0005962249623257227,0.6886610560033106,0.23700931680099316,9.59025788799338
4865000000.0,22.09,0.059969092032428305,0.018403983618966842,-0.00184183570416726,0.5782980825481809,0.3244205743683058,9.779198300942182
4870000000.0,22.09,0.08650221370738947,0.018904348994048983,-0.0018951092998223808,0.5091404189086042,0.7175070891623709,9.91575208378172
4875000000.0,22.09,0.10066180294951867,0.023706150372602756,-0.0042586033748661,0.5787884849435849,1.0104303787641038,9.925267026544871
4880000000.0,22.09,0.09280461793715589,0.04303363920833782,-0.003236497416568575,0.3739536928386369,1.0092515677541156,9.88377101042371
4885000000.0,22.09,0.07819351142781167,0.050648387100079274,-0.0007346399750317839,0.02815175855681759,0.8829968664915686,9.859834420458943
4890000000.0,22.09,0.060145021064138215,0.04127146031457474,-0.0029597190373694456,-0.2513341946300419,0.7459506903171069,9.805878755193788
4895000000.0,22.09,0.05366133862693435,0.0037753807929909074,-0.0023528886833160314,-0.39347824428448247,0.60822,9.709348829522988
4900000000.0,22.09,0.05220284957336329,-0.04111680755281964,-0.002768071535177802,-0.22562524116895244,0.6101820951766209,9.655001619293516
4905000000.0,22.09,0.05868663530299304,-0.06195131112833567,-0.0010646508437165,0.22828184403341845,0.6161660047262602,9.6049700472626
4910000000.0,22.09,0.06970888236276272,-0.024373170923452384,-0.00144794584809981,0.47990462777484627,0.6435379074171791,9.573189175013193
4915000000.0,22.09,0.0783362296638015,0.009670245551230049,-0.0031939525311496,0.4132942498522425,0.839443704827537,9.807057954679781
4920000000.0,22.09,0.08373096792581226,0.03140339127949183,-0.002853243518354778,0.2970451753933518,0.9963027399141273,9.883770913304708
4925000000.0,22.09,0.06758682612582662,0.030410377931868814,-0.0010646508437165,0.1422440433778404,0.8824069171201692,9.853163617351136
4930000000.0,22.09,0.051007862211003625,0.004660384112222988,-0.0012137123543196598,0.06023349575933496,0.624306101775961,9.810195529684655
4935000000.0,22.09,0.04436248204699726,-0.02778371374501359,-0.0018524716620209234,0.11330885497588855,0.4396855419903554,9.742212229004823
4940000000.0,22.09,0.0523329213468492,-0.04068695931904768,-0.00038330554442676204,0.4320340312107403,0.5980207664679077,9.68247
4945000000.0,22.09,0.0778784407942687,-0.023352387878838893,-0.003428196564973201,0.5928195486589956,0.8990879407603795,9.69326196050692
4950000000.0,22.09,0.0854354242197402,0.005325208411754864,-0.0048973521425239855,0.6935657500784574,1.0133713654872136,9.797248634512787
4955000000.0,22.09,0.06673512526613516,0.025271054866940753,-0.001256308885951613,0.555832097631821,0.840322097631821,9.94292501877535
4960000000.0,22.09,0.052799075589693344,0.0322549867387488,-0.0031087700079291615,0.30803207315902076,0.6105746890261469,9.899859792684097
4965000000.0,22.09,0.060177106010429283,0.022022365471086398,-0.002129301687433,0.12890359287833594,0.6493255394658555,9.909668442729984
4970000000.0,22.09,0.06749124690373905,0.0025550572568877076,-0.002257080742285381,0.15068217921772178,0.8120730549717305,9.794891731173418
4975000000.0,22.09,0.07328284268336492,-0.007292826817428498,-0.0041521173158079626,0.20601,0.9348935798004357,9.706012840399127
4980000000.0,22.09,0.06876864957866359,-0.004216006843234156,-0.002044108624169111,0.20287002615580027,0.9872775294252752,9.5988899607663
4985000000.0,22.09,0.057238501842119587,-0.003801526943156089,-9.585010120447145e-05,0.13076836510408366,0.8951600793089007,9.714549571448796
4990000000.0,22.09,0.047816024098965564,-0.02335455771093299,-0.0031513454594741955,0.24113261081812612,0.6531477645799777,9.801956672322868
