#timestamp [ns], temperature [degC], w_RS_S_x [rad s^-1], w_RS_S_y [rad s^-1], w_RS_S_z [rad s^-1], a_RS_S_x [m s^-2], a_RS_S_y [m s^-2], a_RS_S_z [m s^-2]
0,22.35,0.0,0.0,0.0,-0.30411,-0.27468000000000004,9.81
5050505,22.35,0.0,0.0,0.0,-0.31392000000000003,-0.25506,9.83943
10101010,22.35,0.0,0.0,0.0,-0.28449,-0.25506,9.819809999999999
15151515,22.35,0.0,0.0,0.0,-0.2943,-0.28449,9.819809999999999
20202020,22.35,0.0,0.0,0.0,-0.34335000000000004,-0.23544,9.84924
25252525,22.35,0.0,0.0,0.0,-0.28449,-0.25506,9.82962
30303030,22.35,0.0,0.0,0.0,-0.2943,-0.26487,9.819809999999999
35353535,22.35,0.0,0.0,0.0,-0.32373,-0.25506,9.83943
40404040,22.35,0.0,0.0,0.0,-0.2943,-0.25506,9.819809999999999
45454545,22.35,0.0,0.0,0.0,-0.28449,-0.28449,9.81
50505050,22.35,0.0,0.0,0.0,-0.31392000000000003,-0.26487,9.82962
55555555,22.35,0.0,0.0,0.0,-0.2943,-0.24525000000000002,9.81
60606060,22.35,0.0,0.0,0.0,-0.31392000000000003,-0.23544,9.82962
65656565,22.35,0.0,0.0,0.0,-0.30411,-0.23544,9.80019
70707070,22.35,0.0,0.0,0.0,-0.30411,-0.22563,9.819809999999999
75757575,22.35,0.0,0.0,0.0,-0.28449,-0.23544,9.82962
80808080,22.35,0.0,0.0,0.0,-0.28449,-0.27468000000000004,9.819809999999999
85858585,22.35,0.0,0.0,0.0,-0.30411,-0.25506,9.83943
90909090,22.35,0.0,0.0,0.0,-0.2943,-0.23544,9.84924
95959595,22.35,0.0,0.0,0.0,-0.28449,-0.26487,9.83943
101010100,22.35,0.0,0.0,0.0,-0.2943,-0.26487,9.82962
106060605,22.35,0.0,0.0,0.0,-0.31392000000000003,-0.25506,9.819809999999999
111111110,22.35,0.0,0.0,0.0,-0.2943,-0.22563,9.83943
116161615,22.35,0.0,0.0,0.0,-0.30411,-0.27468000000000004,9.81
121212120,22.35,0.0,0.0,0.0,-0.30411,-0.28449,9.819809999999999
126262625,22.35,0.0,0.0,0.0,-0.27468000000000004,-0.25506,9.83943
131313130,22.35,0.0,0.0,0.0,-0.28449,-0.26487,9.82962
136363635,22.35,0.0,0.0,0.0,-0.2943,-0.26487,9.82962
141414140,22.35,0.0,0.0,0.0,-0.2943,-0.25506,9.83943
146464645,22.35,0.0,0.0,0.0,-0.26487,-0.27468000000000004,9.83943
151515150,22.35,0.0,0.0,0.0,-0.2943,-0.24525000000000002,9.83943
156565655,22.35,0.0,0.0,0.0,-0.30411,-0.27468000000000004,9.819809999999999
161616160,22.35,0.0,0.0,0.0,-0.27468000000000004,-0.23544,9.83943
166666665,22.35,0.0,0.0,0.0,-0.32373,-0.23544,9.82962
171717170,22.35,0.0,0.0,0.0,-0.28449,-0.24525000000000002,9.83943
176767675,22.35,0.0,0.0,0.0,-0.28449,-0.25506,9.819809999999999
181818180,22.35,0.0,0.0,0.0,-0.2943,-0.24525000000000002,9.83943
186868685,22.35,0.0,0.0,0.0,-0.2943,-0.25506,9.819809999999999
191919190,22.35,0.0,0.0,0.0,-0.27468000000000004,-0.24525000000000002,9.83943
196969695,22.35,0.0,0.0,0.0,-0.2943,-0.26487,9.82962
202020200,22.35,0.0,0.0,0.0,-0.32373,-0.26487,9.81
207070705,22.35,0.0,0.0,0.0,-0.27468000000000004,-0.24525000000000002,9.81
212121210,22.35,0.0,0.0,0.0,-0.2943,-0.24525000000000002,9.83943
217171715,22.35,0.0,0.0,0.0,-0.30411,-0.26487,9.83943
222222220,22.35,0.0,0.0,0.0,-0.28449,-0.22563,9.83943
227272725,22.35,0.0,0.0,0.0,-0.26487,-0.24525000000000002,9.81
232323230,22.35,0.0,0.0,0.0,-0.27468000000000004,-0.27468000000000004,9.82962
237373735,22.35,0.0,0.0,0.0,-0.30411,-0.24525000000000002,9.82962
242424240,22.35,0.0,0.0,0.0,-0.28449,-0.22563,9.83943
247474745,22.35,0.0,0.0,0.0,-0.26487,-0.25506,9.81
252525250,22.35,0.0,0.0,0.0,-0.30411,-0.28449,9.83943
257575755,22.35,0.0,0.0,0.0,-0.30411,-0.25506,9.84924
262626260,22.35,0.0,0.0,0.0,-0.30411,-0.22563,9.82962
267676765,22.35,0.0,0.0,0.0,-0.2943,-0.22563,9.819809999999999
272727270,22.35,0.0,0.0,0.0,-0.32373,-0.26487,9.81
277777775,22.35,0.0,0.0,0.0,-0.2943,-0.24525000000000002,9.84924
282828280,22.35,0.0,0.0,0.0,-0.28449,-0.24525000000000002,9.82962
287878785,22.35,0.0,0.0,0.0,-0.27468000000000004,-0.28449,9.82962
292929290,22.35,0.0,0.0,0.0,-0.31392000000000003,-0.25506,9.83943
297979795,22.35,0.0,0.0,0.0,-0.2943,-0.25506,9.84924
303030300,22.35,0.0,0.0,0.0,-0.31392000000000003,-0.26487,9.81
308080805,22.35,0.0,0.0,0.0,-0.31392000000000003,-0.25506,9.83943
313131310,22.35,0.0,0.0,0.0,-0.27468000000000004,-0.26487,9.85905
318181815,22.35,0.0,0.0,0.0,-0.28449,-0.26487,9.83943
323232320,22.35,0.0,0.0,0.0,-0.32373,-0.25506,9.83943
328282825,22.35,0.0,0.0,0.0,-0.2943,-0.23544,9.82962
333333330,22.35,0.0,0.0,0.0,-0.28449,-0.26487,9.82962
338383835,22.35,0.0,0.0,0.0,-0.32373,-0.24525000000000002,9.82962
343434340,22.35,0.0,0.0,0.0,-0.31392000000000003,-0.21582,9.819809999999999
348484845,22.35,0.0,0.0,0.0,-0.2943,-0.24525000000000002,9.819809999999999
353535350,22.35,0.0,0.0,0.0,-0.30411,-0.27468000000000004,9.82962
358585855,22.35,0.0,0.0,0.0,-0.30411,-0.23544,9.82962
363636360,22.35,0.0,0.0,0.0,-0.28449,-0.23544,9.82962
368686865,22.35,0.0,0.0,0.0,-0.28449,-0.25506,9.819809999999999
373737370,22.35,0.0,0.0,0.0,-0.31392000000000003,-0.26487,9.84924
378787875,22.35,0.0,0.0,0.0,-0.26487,-0.25506,9.85905
383838380,22.35,0.0,0.0,0.0,-0.28449,-0.25506,9.84924
388888885,22.35,0.0,0.0,0.0,-0.31392000000000003,-0.25506,9.83943
393939390,22.35,0.0,0.0,0.0,-0.31392000000000003,-0.22563,9.81
398989895,22.35,0.0,0.0,0.0,-0.27468000000000004,-0.24525000000000002,9.83943
404040400,22.35,0.0,0.0,0.0,-0.2943,-0.24525000000000002,9.819809999999999
409090905,22.35,0.0,0.0,0.0,-0.30411,-0.24525000000000002,9.83943
414141410,22.35,0.0,0.0,0.0,-0.30411,-0.25506,9.819809999999999
419191915,22.35,0.0,0.0,0.0,-0.27468000000000004,-0.25506,9.83943
424242420,22.35,0.0,0.0,0.0,-0.30411,-0.23544,9.82962
429292925,22.35,0.0,0.0,0.0,-0.2943,-0.25506,9.81
434343430,22.35,0.0,0.0,0.0,-0.2943,-0.26487,9.81
439393935,22.35,0.0,0.0,0.0,-0.31392000000000003,-0.23544,9.83943
444444440,22.35,0.0,0.0,0.0,-0.27468000000000004,-0.25506,9.81
449494945,22.35,0.0,0.0,0.0,-0.2943,-0.23544,9.81
454545450,22.35,0.0,0.0,0.0,-0.27468000000000004,-0.25506,9.819809999999999
459595955,22.35,0.0,0.0,0.0,-0.2943,-0.25506,9.82962
464646460,22.35,0.0,0.0,0.0,-0.27468000000000004,-0.25506,9.80019
469696965,22.35,0.0,0.0,0.0,-0.2943,-0.26487,9.83943
474747470,22.35,0.0,0.0,0.0,-0.30411,-0.25506,9.82962
479797975,22.35,0.0,0.0,0.0,-0.2943,-0.24525000000000002,9.819809999999999
484848480,22.35,0.0,0.0,0.0,-0.2943,-0.27468000000000004,9.82962
489898985,22.35,0.0,0.0,0.0,-0.26487,-0.28449,9.82962
494949490,22.35,0.0,0.0,0.0,-0.30411,-0.25506,9.82962
499999995,22.35,0.0,0.0,0.0,-0.2943,-0.25506,9.81
505050500,22.35,0.0,0.0,0.0,-0.30411,-0.23544,9.83943
510101005,22.35,0.0,0.0,0.0,-0.2943,-0.25506,9.82962
515151510,22.35,0.0,0.0,0.0,-0.2943,-0.24525000000000002,9.819809999999999
520202015,22.35,0.0,0.0,0.0,-0.30411,-0.26487,9.83943
525252520,22.35,0.0,0.0,0.0,-0.27468000000000004,-0.26487,9.83943
530303025,22.35,0.0,0.0,0.0,-0.2943,-0.21582,9.83943
535353530,22.35,0.0,0.0,0.0,-0.28449,-0.30411,9.82962
540404035,22.35,0.0,0.0,0.0,-0.30411,-0.25506,9.819809999999999
545454540,22.35,0.0,0.0,0.0,-0.28449,-0.26487,9.84924
550505045,22.35,0.0,0.0,0.0,-0.28449,-0.25506,9.83943
555555550,22.35,0.0,0.0,0.0,-0.2943,-0.26487,9.78057
560606055,22.35,0.0,0.0,0.0,-0.30411,-0.27468000000000004,9.84924
565656560,22.35,0.0,0.0,0.0,-0.27468000000000004,-0.23544,9.84924
570707065,22.35,0.0,0.0,0.0,-0.28449,-0.26487,9.83943
575757570,22.35,0.0,0.0,0.0,-0.33354000000000006,-0.25506,9.83943
580808075,22.35,0.0,0.0,0.0,-0.28449,-0.24525000000000002,9.83943
585858580,22.35,0.0,0.0,0.0,-0.25506,-0.24525000000000002,9.819809999999999
590909085,22.35,0.0,0.0,0.0,-0.31392000000000003,-0.26487,9.81
595959590,22.35,0.0,0.0,0.0,-0.2943,-0.22563,9.85905
601010095,22.35,0.0,0.0,0.0,-0.2943,-0.25506,9.84924
606060600,22.35,0.0,0.0,0.0,-0.2943,-0.26487,9.83943
611111105,22.35,0.0,0.0,0.0,-0.31392000000000003,-0.25506,9.81
616161610,22.35,0.0,0.0,0.0,-0.31392000000000003,-0.24525000000000002,9.84924
621212115,22.35,0.0,0.0,0.0,-0.2943,-0.23544,9.82962
626262620,22.35,0.0,0.0,0.0,-0.2943,-0.21582,9.819809999999999
631313125,22.35,0.0,0.0,0.0,-0.31392000000000003,-0.26487,9.83943
636363630,22.35,0.0,0.0,0.0,-0.27468000000000004,-0.25506,9.82962
641414135,22.35,0.0,0.0,0.0,-0.30411,-0.27468000000000004,9.82962
646464640,22.35,0.0,0.0,0.0,-0.31392000000000003,-0.21582,9.82962
651515145,22.35,0.0,0.0,0.0,-0.28449,-0.25506,9.83943
656565650,22.35,0.0,0.0,0.0,-0.2943,-0.27468000000000004,9.83943
661616155,22.35,0.0,0.0,0.0,-0.33354000000000006,-0.24525000000000002,9.819809999999999
666666660,22.35,0.0,0.0,0.0,-0.26487,-0.25506,9.819809999999999
671717165,22.35,0.0,0.0,0.0,-0.2943,-0.28449,9.819809999999999
676767670,22.35,0.0,0.0,0.0,-0.32373,-0.26487,9.84924
681818175,22.35,0.0,0.0,0.0,-0.2943,-0.23544,9.83943
686868680,22.35,0.0,0.0,0.0,-0.2943,-0.26487,9.81
691919185,22.35,0.0,0.0,0.0,-0.2943,-0.24525000000000002,9.82962
696969690,22.35,0.0,0.0,0.0,-0.30411,-0.23544,9.82962
702020195,22.35,0.0,0.0,0.0,-0.30411,-0.24525000000000002,9.82962
707070700,22.35,0.0,0.0,0.0,-0.28449,-0.26487,9.81
712121205,22.35,0.0,0.0,0.0,-0.2943,-0.24525000000000002,9.819809999999999
717171710,22.35,0.0,0.0,0.0,-0.30411,-0.24525000000000002,9.82962
722222215,22.35,0.0,0.0,0.0,-0.31392000000000003,-0.26487,9.83943
727272720,22.35,0.0,0.0,0.0,-0.30411,-0.23544,9.819809999999999
732323225,22.35,0.0,0.0,0.0,-0.2943,-0.24525000000000002,9.83943
737373730,22.35,0.0,0.0,0.0,-0.2943,-0.26487,9.85905
742424235,22.35,0.0,0.0,0.0,-0.31392000000000003,-0.24525000000000002,9.82962
747474740,22.35,0.0,0.0,0.0,-0.2943,-0.26487,9.81
752525245,22.35,0.0,0.0,0.0,-0.28449,-0.27468000000000004,9.819809999999999
757575750,22.35,0.0,0.0,0.0,-0.30411,-0.26487,9.83943
762626255,22.35,0.0,0.0,0.0,-0.27468000000000004,-0.24525000000000002,9.84924
767676760,22.35,0.0,0.0,0.0,-0.28449,-0.24525000000000002,9.83943
772727265,22.35,0.0,0.0,0.0,-0.31392000000000003,-0.2943,9.85905
777777770,22.35,0.0,0.0,0.0,-0.2943,-0.26487,9.819809999999999
782828275,22.35,0.0,0.0,0.0,-0.28449,-0.26487,9.819809999999999
787878780,22.35,0.0,0.0,0.0,-0.28449,-0.27468000000000004,9.819809999999999
792929285,22.35,0.0,0.0,0.0,-0.31392000000000003,-0.26487,9.84924
797979790,22.35,0.0,0.0,0.0,-0.27468000000000004,-0.22563,9.819809999999999
803030295,22.35,0.0,0.0,0.0,-0.2943,-0.25506,9.819809999999999
808080800,22.35,0.0,0.0,0.0,-0.28449,-0.27468000000000004,9.819809999999999
813131305,22.35,0.0,0.0,0.0,-0.31392000000000003,-0.22563,9.85905
818181810,22.35,0.0,0.0,0.0,-0.28449,-0.22563,9.82962
823232315,22.35,0.0,0.0,0.0,-0.31392000000000003,-0.28449,9.819809999999999
828282820,22.35,0.0,0.0,0.0,-0.30411,-0.24525000000000002,9.82962
833333325,22.35,0.0,0.0,0.0,-0.28449,-0.26487,9.83943
838383830,22.35,0.0,0.0,0.0,-0.28449,-0.23544,9.82962
843434335,22.35,0.0,0.0,0.0,-0.28449,-0.24525000000000002,9.81
848484840,22.35,0.0,0.0,0.0,-0.30411,-0.26487,9.81
853535345,22.35,0.0,0.0,0.0,-0.28449,-0.26487,9.81
858585850,22.35,0.0,0.0,0.0,-0.27468000000000004,-0.23544,9.82962
863636355,22.35,0.0,0.0,0.0,-0.31392000000000003,-0.25506,9.80019
868686860,22.35,0.0,0.0,0.0,-0.28449,-0.25506,9.82962
873737365,22.35,0.0,0.0,0.0,-0.30411,-0.25506,9.85905
878787870,22.35,0.0,0.0,0.0,-0.2943,-0.25506,9.819809999999999
883838375,22.35,0.0,0.0,0.0,-0.2943,-0.25506,9.81
888888880,22.35,0.0,0.0,0.0,-0.30411,-0.26487,9.83943
893939385,22.35,0.0,0.0,0.0,-0.2943,-0.23544,9.83943
898989890,22.35,0.0,0.0,0.0,-0.28449,-0.24525000000000002,9.84924
904040395,22.35,0.0,0.0,0.0,-0.27468000000000004,-0.26487,9.85905
909090900,22.35,0.0,0.0,0.0,-0.2943,-0.26487,9.819809999999999
914141405,22.35,0.0,0.0,0.0,-0.30411,-0.28449,9.83943
919191910,22.35,0.0,0.0,0.0,-0.2943,-0.25506,9.82962
924242415,22.35,0.0,0.0,0.0,-0.30411,-0.27468000000000004,9.83943
929292920,22.35,0.0,0.0,0.0,-0.32373,-0.27468000000000004,9.819809999999999
934343425,22.35,0.0,0.0,0.0,-0.2943,-0.25506,9.83943
939393930,22.35,0.0,0.0,0.0,-0.27468000000000004,-0.24525000000000002,9.81
944444435,22.35,0.0,0.0,0.0,-0.2943,-0.25506,9.82962
949494940,22.35,0.0,0.0,0.0,-0.31392000000000003,-0.25506,9.83943
954545445,22.35,0.0,0.0,0.0,-0.32373,-0.23544,9.84924
959595950,22.35,0.0,0.0,0.0,-0.2943,-0.24525000000000002,9.81
964646455,22.35,0.0,0.0,0.0,-0.2943,-0.26487,9.82962
969696960,22.35,0.0,0.0,0.0,-0.28449,-0.25506,9.83943
974747465,22.35,0.0,0.0,0.0,-0.27468000000000004,-0.23544,9.83943
979797970,22.35,0.0,0.0,0.0,-0.2943,-0.25506,9.83943
984848475,22.35,0.0,0.0,0.0,-0.31392000000000003,-0.25506,9.819809999999999
989898980,22.35,0.0,0.0,0.0,-0.31392000000000003,-0.25506,9.84924
994949485,22.35,0.0,0.0,0.0,-0.2943,-0.26487,9.819809999999999
999999990,22.35,0.0,0.0,0.0,-0.2943,-0.24525000000000002,9.819809999999999
1005050495,22.35,0.0,0.0,0.0,-0.2943,-0.26487,9.819809999999999
1010101000,22.35,0.0,0.0,0.0,-0.28449,-0.25506,9.83943
1015151505,22.35,0.0,0.0,0.0,-0.27468000000000004,-0.27468000000000004,9.82962
1020202010,22.35,0.0,0.0,0.0,-0.33354000000000006,-0.24525000000000002,9.819809999999999
1025252515,22.35,0.0,0.0,0.0,-0.31392000000000003,-0.26487,9.84924
1030303020,22.35,0.0,0.0,0.0,-0.30411,-0.23544,9.82962
1035353525,22.35,0.0,0.0,0.0,-0.28449,-0.23544,9.819809999999999
1040404030,22.35,0.0,0.0,0.0,-0.2943,-0.27468000000000004,9.819809999999999
1045454535,22.35,0.0,0.0,0.0,-0.28449,-0.25506,9.83943
1050505040,22.35,0.0,0.0,0.0,-0.2943,-0.24525000000000002,9.82962
1055555545,22.35,0.0,0.0,0.0,-0.28449,-0.23544,9.82962
1060606050,22.35,0.0,0.0,0.0,-0.30411,-0.26487,9.819809999999999
1065656555,22.35,0.0,0.0,0.0,-0.31392000000000003,-0.24525000000000002,9.84924
1070707060,22.35,0.0,0.0,0.0,-0.27468000000000004,-0.27468000000000004,9.82962
1075757565,22.35,0.0,0.0,0.0,-0.30411,-0.25506,9.82962
1080808070,22.35,0.0,0.0,0.0,-0.30411,-0.24525000000000002,9.819809999999999
1085858575,22.35,0.0,0.0,0.0,-0.27468000000000004,-0.26487,9.86886
1090909080,22.35,0.0,0.0,0.0,-0.28449,-0.25506,9.819809999999999
1095959585,22.35,0.0,0.0,0.0,-0.2943,-0.27468000000000004,9.819809999999999
1101010090,22.35,0.0,0.0,0.0,-0.31392000000000003,-0.25506,9.83943
1106060595,22.35,0.0,0.0,0.0,-0.30411,-0.25506,9.82962
1111111100,22.35,0.0,0.0,0.0,-0.2943,-0.25506,9.82962
1116161605,22.35,0.0,0.0,0.0,-0.31392000000000003,-0.25506,9.82962
1121212110,22.35,0.0,0.0,0.0,-0.2943,-0.25506,9.82962
1126262615,22.35,0.0,0.0,0.0,-0.30411,-0.25506,9.82962
1131313120,22.35,0.0,0.0,0.0,-0.28449,-0.24525000000000002,9.819809999999999
1136363625,22.35,0.0,0.0,0.0,-0.30411,-0.21582,9.83943
1141414130,22.35,0.0,0.0,0.0,-0.2943,-0.24525000000000002,9.84924
1146464635,22.35,0.0,0.0,0.0,-0.30411,-0.24525000000000002,9.84924
1151515140,22.35,0.0,0.0,0.0,-0.2943,-0.25506,9.82962
1156565645,22.35,0.0,0.0,0.0,-0.32373,-0.25506,9.82962
1161616150,22.35,0.0,0.0,0.0,-0.2943,-0.25506,9.83943
1166666655,22.35,0.0,0.0,0.0,-0.27468000000000004,-0.25506,9.819809999999999
1171717160,22.35,0.0,0.0,0.0,-0.30411,-0.26487,9.83943
1176767665,22.35,0.0,0.0,0.0,-0.32373,-0.25506,9.83943
1181818170,22.35,0.0,0.0,0.0,-0.31392000000000003,-0.24525000000000002,9.819809999999999
1186868675,22.35,0.0,0.0,0.0,-0.32373,-0.24525000000000002,9.83943
1191919180,22.35,0.0,0.0,0.0,-0.2943,-0.26487,9.82962
1196969685,22.35,0.0,0.0,0.0,-0.30411,-0.25506,9.80019
1202020190,22.35,0.0,0.0,0.0,-0.30411,-0.24525000000000002,9.82962
1207070695,22.35,0.0,0.0,0.0,-0.30411,-0.25506,9.81
1212121200,22.35,0.0,0.0,0.0,-0.30411,-0.26487,9.83943
1217171705,22.35,0.0,0.0,0.0,-0.32373,-0.27468000000000004,9.81
1222222210,22.35,0.0,0.0,0.0,-0.31392000000000003,-0.25506,9.82962
1227272715,22.35,0.0,0.0,0.0,-0.30411,-0.24525000000000002,9.82962
1232323220,22.35,0.0,0.0,0.0,-0.27468000000000004,-0.25506,9.81
1237373725,22.35,0.0,0.0,0.0,-0.2943,-0.27468000000000004,9.83943
1242424230,22.35,0.0,0.0,0.0,-0.31392000000000003,-0.24525000000000002,9.84924
1247474735,22.35,0.0,0.0,0.0,-0.28449,-0.24525000000000002,9.82962
1252525240,22.35,0.0,0.0,0.0,-0.28449,-0.24525000000000002,9.84924
1257575745,22.35,0.0,0.0,0.0,-0.32373,-0.25506,9.80019
1262626250,22.35,0.0,0.0,0.0,-0.30411,-0.23544,9.82962
1267676755,22.35,0.0,0.0,0.0,-0.28449,-0.24525000000000002,9.81
1272727260,22.35,0.0,0.0,0.0,-0.30411,-0.24525000000000002,9.82962
1277777765,22.35,0.0,0.0,0.0,-0.2943,-0.23544,9.82962
1282828270,22.35,0.0,0.0,0.0,-0.2943,-0.25506,9.83943
1287878775,22.35,0.0,0.0,0.0,-0.2943,-0.23544,9.83943
1292929280,22.35,0.0,0.0,0.0,-0.2943,-0.26487,9.80019
1297979785,22.35,0.0,0.0,0.0,-0.32373,-0.27468000000000004,9.819809999999999
1303030290,22.35,0.0,0.0,0.0,-0.2943,-0.27468000000000004,9.819809999999999
1308080795,22.35,0.0,0.0,0.0,-0.2943,-0.23544,9.81
1313131300,22.35,0.0,0.0,0.0,-0.28449,-0.23544,9.80019
1318181805,22.35,0.0,0.0,0.0,-0.28449,-0.28449,9.82962
1323232310,22.35,0.0,0.0,0.0,-0.31392000000000003,-0.25506,9.85905
1328282815,22.35,0.0,0.0,0.0,-0.2943,-0.25506,9.819809999999999
1333333320,22.35,0.0,0.0,0.0,-0.31392000000000003,-0.24525000000000002,9.83943
1338383825,22.35,0.0,0.0,0.0,-0.31392000000000003,-0.24525000000000002,9.83943
1343434330,22.35,0.0,0.0,0.0,-0.31392000000000003,-0.25506,9.819809999999999
1348484835,22.35,0.0,0.0,0.0,-0.31392000000000003,-0.24525000000000002,9.83943
1353535340,22.35,0.0,0.0,0.0,-0.30411,-0.25506,9.819809999999999
1358585845,22.35,0.0,0.0,0.0,-0.2943,-0.25506,9.81
1363636350,22.35,0.0,0.0,0.0,-0.30411,-0.25506,9.82962
1368686855,22.35,0.0,0.0,0.0,-0.33354000000000006,-0.23544,9.81
1373737360,22.35,0.0,0.0,0.0,-0.30411,-0.24525000000000002,9.819809999999999
1378787865,22.35,0.0,0.0,0.0,-0.30411,-0.24525000000000002,9.84924
1383838370,22.35,0.0,0.0,0.0,-0.28449,-0.22563,9.84924
1388888875,22.35,0.0,0.0,0.0,-0.28449,-0.23544,9.82962
1393939380,22.35,0.0,0.0,0.0,-0.2943,-0.26487,9.82962
1398989885,22.35,0.0,0.0,0.0,-0.26487,-0.25506,9.819809999999999
1404040390,22.35,0.0,0.0,0.0,-0.28449,-0.25506,9.83943
1409090895,22.35,0.0,0.0,0.0,-0.28449,-0.26487,9.80019
1414141400,22.35,0.0,0.0,0.0,-0.31392000000000003,-0.26487,9.819809999999999
1419191905,22.35,0.0,0.0,0.0,-0.30411,-0.26487,9.82962
1424242410,22.35,0.0,0.0,0.0,-0.2943,-0.26487,9.82962
1429292915,22.35,0.0,0.0,0.0,-0.31392000000000003,-0.26487,9.819809999999999
1434343420,22.35,0.0,0.0,0.0,-0.27468000000000004,-0.24525000000000002,9.80019
1439393925,22.35,0.0,0.0,0.0,-0.2943,-0.23544,9.81
1444444430,22.35,0.0,0.0,0.0,-0.28449,-0.25506,9.82962
1449494935,22.35,0.0,0.0,0.0,-0.28449,-0.23544,9.83943
1454545440,22.35,0.0,0.0,0.0,-0.28449,-0.25506,9.80019
1459595945,22.35,0.0,0.0,0.0,-0.31392000000000003,-0.25506,9.82962
1464646450,22.35,0.0,0.0,0.0,-0.2943,-0.27468000000000004,9.83943
1469696955,22.35,0.0,0.0,0.0,-0.2943,-0.25506,9.82962
1474747460,22.35,0.0,0.0,0.0,-0.30411,-0.26487,9.84924
1479797965,22.35,0.0,0.0,0.0,-0.28449,-0.25506,9.819809999999999
1484848470,22.35,0.0,0.0,0.0,-0.27468000000000004,-0.23544,9.82962
1489898975,22.35,0.0,0.0,0.0,-0.2943,-0.26487,9.82962
1494949480,22.35,0.0,0.0,0.0,-0.32373,-0.22563,9.83943
1499999985,22.35,0.0,0.0,0.0,-0.30411,-0.24525000000000002,9.84924
1505050490,22.35,0.0,0.0,0.0,-0.2943,-0.26487,9.82962
1510100995,22.35,0.0,0.0,0.0,-0.31392000000000003,-0.25506,9.81
1515151500,22.35,0.0,0.0,0.0,-0.30411,-0.24525000000000002,9.83943
1520202005,22.35,0.0,0.0,0.0,-0.30411,-0.26487,9.819809999999999
1525252510,22.35,0.0,0.0,0.0,-0.2943,-0.26487,9.82962
1530303015,22.35,0.0,0.0,0.0,-0.26487,-0.24525000000000002,9.819809999999999
1535353520,22.35,0.0,0.0,0.0,-0.28449,-0.22563,9.82962
1540404025,22.35,0.0,0.0,0.0,-0.2943,-0.26487,9.81
1545454530,22.35,0.0,0.0,0.0,-0.31392000000000003,-0.26487,9.83943
1550505035,22.35,0.0,0.0,0.0,-0.2943,-0.25506,9.82962
1555555540,22.35,0.0,0.0,0.0,-0.2943,-0.25506,9.81
1560606045,22.35,0.0,0.0,0.0,-0.30411,-0.23544,9.819809999999999
1565656550,22.35,0.0,0.0,0.0,-0.32373,-0.25506,9.819809999999999
1570707055,22.35,0.0,0.0,0.0,-0.28449,-0.25506,9.82962
1575757560,22.35,0.0,0.0,0.0,-0.31392000000000003,-0.24525000000000002,9.83943
1580808065,22.35,0.0,0.0,0.0,-0.28449,-0.26487,9.82962
1585858570,22.35,0.0,0.0,0.0,-0.2943,-0.25506,9.819809999999999
1590909075,22.35,0.0,0.0,0.0,-0.28449,-0.26487,9.83943
1595959580,22.35,0.0,0.0,0.0,-0.30411,-0.24525000000000002,9.82962
1601010085,22.35,0.0,0.0,0.0,-0.32373,-0.24525000000000002,9.83943
1606060590,22.35,0.0,0.0,0.0,-0.2943,-0.25506,9.83943
1611111095,22.35,0.0,0.0,0.0,-0.2943,-0.25506,9.83943
1616161600,22.28,0.0,0.0,0.0,-0.30411,-0.26487,9.81
1621212105,22.28,0.0,0.0,0.0,-0.28449,-0.24525000000000002,9.84924
1626262610,22.28,0.0,0.0,0.0,-0.28449,-0.23544,9.82962
1631313115,22.28,0.0,0.0,0.0,-0.2943,-0.25506,9.819809999999999
1636363620,22.28,0.0,0.0,0.0,-0.32373,-0.26487,9.82962
1641414125,22.28,0.0,0.0,0.0,-0.2943,-0.24525000000000002,9.819809999999999
1646464630,22.28,0.0,0.0,0.0,-0.28449,-0.26487,9.82962
1651515135,22.28,0.0,0.0,0.0,-0.31392000000000003,-0.25506,9.819809999999999
1656565640,22.28,0.0,0.0,0.0,-0.30411,-0.24525000000000002,9.82962
1661616145,22.28,0.0,0.0,0.0,-0.28449,-0.23544,9.84924
1666666650,22.28,0.0,0.0,0.0,-0.28449,-0.24525000000000002,9.83943
1671717155,22.28,0.0,0.0,0.0,-0.30411,-0.26487,9.83943
1676767660,22.28,0.0,0.0,0.0,-0.27468000000000004,-0.23544,9.819809999999999
1681818165,22.28,0.0,0.0,0.0,-0.28449,-0.26487,9.819809999999999
1686868670,22.28,0.0,0.0,0.0,-0.27468000000000004,-0.25506,9.83943
1691919175,22.28,0.0,0.0,0.0,-0.32373,-0.22563,9.83943
1696969680,22.28,0.0,0.0,0.0,-0.28449,-0.26487,9.82962
1702020185,22.28,0.0,0.0,0.0,-0.2943,-0.27468000000000004,9.83943
1707070690,22.28,0.0,0.0,0.0,-0.30411,-0.26487,9.82962
1712121195,22.28,0.0,0.0,0.0,-0.31392000000000003,-0.25506,9.81
1717171700,22.28,0.0,0.0,0.0,-0.2943,-0.26487,9.82962
1722222205,22.28,0.0,0.0,0.0,-0.30411,-0.24525000000000002,9.81
1727272710,22.28,0.0,0.0,0.0,-0.31392000000000003,-0.23544,9.82962
1732323215,22.28,0.0,0.0,0.0,-0.2943,-0.25506,9.83943
1737373720,22.28,0.0,0.0,0.0,-0.28449,-0.24525000000000002,9.82962
1742424225,22.28,0.0,0.0,0.0,-0.2943,-0.25506,9.83943
1747474730,22.28,0.0,0.0,0.0,-0.26487,-0.26487,9.82962
1752525235,22.28,0.0,0.0,0.0,-0.28449,-0.24525000000000002,9.819809999999999
1757575740,22.28,0.0,0.0,0.0,-0.27468000000000004,-0.22563,9.82962
1762626245,22.28,0.0,0.0,0.0,-0.30411,-0.24525000000000002,9.82962
1767676750,22.28,0.0,0.0,0.0,-0.2943,-0.26487,9.82962
1772727255,22.28,0.0,0.0,0.0,-0.31392000000000003,-0.24525000000000002,9.819809999999999
1777777760,22.28,0.0,0.0,0.0,-0.2943,-0.24525000000000002,9.82962
1782828265,22.28,0.0,0.0,0.0,-0.2943,-0.26487,9.81
1787878770,22.28,0.0,0.0,0.0,-0.28449,-0.26487,9.82962
1792929275,22.28,0.0,0.0,0.0,-0.28449,-0.27468000000000004,9.82962
1797979780,22.28,0.0,0.0,0.0,-0.28449,-0.26487,9.81
1803030285,22.28,0.0,0.0,0.0,-0.26487,-0.24525000000000002,9.83943
1808080790,22.28,0.0,0.0,0.0,-0.28449,-0.25506,9.83943
1813131295,22.28,0.0,0.0,0.0,-0.2943,-0.27468000000000004,9.82962
1818181800,22.28,0.0,0.0,0.0,-0.27468000000000004,-0.23544,9.83943
1823232305,22.28,0.0,0.0,0.0,-0.2943,-0.25506,9.83943
1828282810,22.28,0.0,0.0,0.0,-0.31392000000000003,-0.24525000000000002,9.819809999999999
1833333315,22.28,0.0,0.0,0.0,-0.30411,-0.26487,9.819809999999999
1838383820,22.28,0.0,0.0,0.0,-0.28449,-0.25506,9.82962
1843434325,22.28,0.0,0.0,0.0,-0.31392000000000003,-0.23544,9.82962
1848484830,22.28,0.0,0.0,0.0,-0.2943,-0.25506,9.81
1853535335,22.28,0.0,0.0,0.0,-0.28449,-0.28449,9.84924
1858585840,22.28,0.0,0.0,0.0,-0.30411,-0.25506,9.83943
1863636345,22.28,0.0,0.0,0.0,-0.27468000000000004,-0.25506,9.81
1868686850,22.28,0.0,0.0,0.0,-0.28449,-0.26487,9.82962
1873737355,22.28,0.0,0.0,0.0,-0.32373,-0.25506,9.82962
1878787860,22.28,0.0,0.0,0.0,-0.2943,-0.22563,9.82962
1883838365,22.28,0.0,0.0,0.0,-0.27468000000000004,-0.25506,9.82962
1888888870,22.28,0.0,0.0,0.0,-0.28449,-0.26487,9.819809999999999
1893939375,22.28,0.0,0.0,0.0,-0.28449,-0.26487,9.83943
1898989880,22.28,0.0,0.0,0.0,-0.28449,-0.25506,9.84924
1904040385,22.28,0.0,0.0,0.0,-0.27468000000000004,-0.26487,9.81
1909090890,22.28,0.0,0.0,0.0,-0.30411,-0.27468000000000004,9.819809999999999
1914141395,22.28,0.0,0.0,0.0,-0.2943,-0.23544,9.84924
1919191900,22.28,0.0,0.0,0.0,-0.28449,-0.25506,9.81
1924242405,22.28,0.0,0.0,0.0,-0.28449,-0.2943,9.819809999999999
1929292910,22.28,0.0,0.0,0.0,-0.32373,-0.26487,9.84924
1934343415,22.28,0.0,0.0,0.0,-0.2943,-0.24525000000000002,9.83943
1939393920,22.28,0.0,0.0,0.0,-0.2943,-0.26487,9.81
1944444425,22.28,0.0,0.0,0.0,-0.27468000000000004,-0.25506,9.84924
1949494930,22.28,0.0,0.0,0.0,-0.28449,-0.25506,9.83943
1954545435,22.28,0.0,0.0,0.0,-0.26487,-0.25506,9.83943
1959595940,22.28,0.0,0.0,0.0,-0.31392000000000003,-0.23544,9.819809999999999
1964646445,22.28,0.0,0.0,0.0,-0.27468000000000004,-0.23544,9.82962
1969696950,22.28,0.0,0.0,0.0,-0.2943,-0.27468000000000004,9.82962
1974747455,22.28,0.0,0.0,0.0,-0.30411,-0.26487,9.83943
1979797960,22.28,0.0,0.0,0.0,-0.32373,-0.24525000000000002,9.82962
1984848465,22.28,0.0,0.0,0.0,-0.28449,-0.24525000000000002,9.819809999999999
1989898970,22.28,0.0,0.0,0.0,-0.30411,-0.25506,9.83943
1994949475,22.28,0.0,0.0,0.0,-0.31392000000000003,-0.25506,9.819809999999999
1999999980,22.28,0.0,0.0,0.0,-0.2943,-0.21582,9.84924
2005050485,22.28,0.0,0.0,0.0,-0.2943,-0.28449,9.83943
2010100990,22.28,0.0,0.0,0.0,-0.31392000000000003,-0.26487,9.82962
2015151495,22.28,0.0,0.0,0.0,-0.31392000000000003,-0.23544,9.83943
2020202000,22.28,0.0,0.0,0.0,-0.31392000000000003,-0.23544,9.81
2025252505,22.28,0.0,0.0,0.0,-0.30411,-0.27468000000000004,9.819809999999999
2030303010,22.28,0.0,0.0,0.0,-0.31392000000000003,-0.23544,9.819809999999999
2035353515,22.28,0.0,0.0,0.0,-0.28449,-0.23544,9.84924
2040404020,22.28,0.0,0.0,0.0,-0.2943,-0.27468000000000004,9.82962
2045454525,22.28,0.0,0.0,0.0,-0.31392000000000003,-0.25506,9.83943
2050505030,22.28,0.0,0.0,0.0,-0.30411,-0.25506,9.85905
2055555535,22.28,0.0,0.0,0.0,-0.28449,-0.24525000000000002,9.84924
2060606040,22.28,0.0,0.0,0.0,-0.31392000000000003,-0.26487,9.81
2065656545,22.28,0.0,0.0,0.0,-0.31392000000000003,-0.25506,9.81
2070707050,22.28,0.0,0.0,0.0,-0.27468000000000004,-0.23544,9.81
2075757555,22.28,0.0,0.0,0.0,-0.27468000000000004,-0.26487,9.82962
2080808060,22.28,0.0,0.0,0.0,-0.31392000000000003,-0.25506,9.819809999999999
2085858565,22.28,0.0,0.0,0.0,-0.31392000000000003,-0.24525000000000002,9.85905
2090909070,22.28,0.0,0.0,0.0,-0.30411,-0.26487,9.82962
2095959575,22.28,0.0,0.0,0.0,-0.31392000000000003,-0.26487,9.819809999999999
2101010080,22.28,0.0,0.0,0.0,-0.2943,-0.25506,9.83943
2106060585,22.28,0.0,0.0,0.0,-0.30411,-0.26487,9.82962
2111111090,22.28,0.0,0.0,0.0,-0.31392000000000003,-0.25506,9.82962
2116161595,22.28,0.0,0.0,0.0,-0.28449,-0.25506,9.819809999999999
2121212100,22.28,0.0,0.0,0.0,-0.2943,-0.23544,9.82962
2126262605,22.28,0.0,0.0,0.0,-0.27468000000000004,-0.24525000000000002,9.81
2131313110,22.28,0.0,0.0,0.0,-0.31392000000000003,-0.24525000000000002,9.819809999999999
2136363615,22.28,0.0,0.0,0.0,-0.28449,-0.24525000000000002,9.82962
2141414120,22.28,0.0,0.0,0.0,-0.28449,-0.25506,9.819809999999999
2146464625,22.28,0.0,0.0,0.0,-0.32373,-0.28449,9.86886
2151515130,22.28,0.0,0.0,0.0,-0.25506,-0.23544,9.819809999999999
2156565635,22.28,0.0,0.0,0.0,-0.31392000000000003,-0.24525000000000002,9.819809999999999
2161616140,22.28,0.0,0.0,0.0,-0.2943,-0.27468000000000004,9.819809999999999
2166666645,22.28,0.0,0.0,0.0,-0.30411,-0.22563,9.82962
2171717150,22.28,0.0,0.0,0.0,-0.28449,-0.25506,9.82962
2176767655,22.28,0.0,0.0,0.0,-0.28449,-0.28449,9.83943
2181818160,22.28,0.0,0.0,0.0,-0.2943,-0.24525000000000002,9.83943
2186868665,22.28,0.0,0.0,0.0,-0.31392000000000003,-0.26487,9.82962
2191919170,22.28,0.0,0.0,0.0,-0.30411,-0.26487,9.82962
2196969675,22.28,0.0,0.0,0.0,-0.30411,-0.25506,9.83943
2202020180,22.28,0.0,0.0,0.0,-0.28449,-0.25506,9.86886
2207070685,22.28,0.0,0.0,0.0,-0.2943,-0.24525000000000002,9.819809999999999
2212121190,22.28,0.0,0.0,0.0,-0.27468000000000004,-0.26487,9.82962
2217171695,22.28,0.0,0.0,0.0,-0.2943,-0.22563,9.82962
2222222200,22.28,0.0,0.0,0.0,-0.28449,-0.25506,9.83943
2227272705,22.28,0.0,0.0,0.0,-0.2943,-0.28449,9.819809999999999
2232323210,22.28,0.0,0.0,0.0,-0.30411,-0.27468000000000004,9.819809999999999
2237373715,22.28,0.0,0.0,0.0,-0.26487,-0.22563,9.819809999999999
2242424220,22.28,0.0,0.0,0.0,-0.28449,-0.25506,9.83943
2247474725,22.28,0.0,0.0,0.0,-0.32373,-0.25506,9.82962
2252525230,22.28,0.0,0.0,0.0,-0.30411,-0.25506,9.84924
2257575735,22.28,0.0,0.0,0.0,-0.25506,-0.27468000000000004,9.82962
2262626240,22.28,0.0,0.0,0.0,-0.30411,-0.27468000000000004,9.819809999999999
2267676745,22.28,0.0,0.0,0.0,-0.32373,-0.22563,9.84924
2272727250,22.28,0.0,0.0,0.0,-0.28449,-0.25506,9.83943
2277777755,22.28,0.0,0.0,0.0,-0.30411,-0.27468000000000004,9.819809999999999
2282828260,22.28,0.0,0.0,0.0,-0.32373,-0.25506,9.84924
2287878765,22.28,0.0,0.0,0.0,-0.30411,-0.20601000000000003,9.84924
2292929270,22.28,0.0,0.0,0.0,-0.28449,-0.25506,9.83943
2297979775,22.28,0.0,0.0,0.0,-0.33354000000000006,-0.26487,9.82962
2303030280,22.28,0.0,0.0,0.0,-0.30411,-0.23544,9.83943
2308080785,22.28,0.0,0.0,0.0,-0.30411,-0.28449,9.83943
2313131290,22.28,0.0,0.0,0.0,-0.32373,-0.25506,9.84924
2318181795,22.28,0.0,0.0,0.0,-0.31392000000000003,-0.23544,9.819809999999999
2323232300,22.28,0.0,0.0,0.0,-0.2943,-0.25506,9.82962
2328282805,22.28,0.0,0.0,0.0,-0.28449,-0.26487,9.82962
2333333310,22.28,0.0,0.0,0.0,-0.31392000000000003,-0.24525000000000002,9.82962
2338383815,22.28,0.0,0.0,0.0,-0.30411,-0.22563,9.84924
2343434320,22.28,0.0,0.0,0.0,-0.27468000000000004,-0.25506,9.84924
2348484825,22.28,0.0,0.0,0.0,-0.28449,-0.27468000000000004,9.83943
2353535330,22.28,0.0,0.0,0.0,-0.30411,-0.23544,9.83943
2358585835,22.28,0.0,0.0,0.0,-0.28449,-0.23544,9.85905
2363636340,22.28,0.0,0.0,0.0,-0.31392000000000003,-0.27468000000000004,9.819809999999999
2368686845,22.28,0.0,0.0,0.0,-0.2943,-0.26487,9.84924
2373737350,22.28,0.0,0.0,0.0,-0.2943,-0.22563,9.81
2378787855,22.28,0.0,0.0,0.0,-0.30411,-0.27468000000000004,9.84924
2383838360,22.28,0.0,0.0,0.0,-0.26487,-0.26487,9.81
2388888865,22.28,0.0,0.0,0.0,-0.31392000000000003,-0.25506,9.81
2393939370,22.28,0.0,0.0,0.0,-0.28449,-0.23544,9.83943
2398989875,22.28,0.0,0.0,0.0,-0.2943,-0.25506,9.82962
2404040380,22.28,0.0,0.0,0.0,-0.2943,-0.23544,9.81
2409090885,22.28,0.0,0.0,0.0,-0.28449,-0.25506,9.82962
2414141390,22.28,0.0,0.0,0.0,-0.2943,-0.25506,9.82962
2419191895,22.28,0.0,0.0,0.0,-0.2943,-0.23544,9.82962
2424242400,22.28,0.0,0.0,0.0,-0.30411,-0.24525000000000002,9.81
2429292905,22.28,0.0,0.0,0.0,-0.2943,-0.25506,9.81
2434343410,22.28,0.0,0.0,0.0,-0.2943,-0.26487,9.83943
2439393915,22.28,0.0,0.0,0.0,-0.27468000000000004,-0.24525000000000002,9.82962
2444444420,22.28,0.0,0.0,0.0,-0.2943,-0.25506,9.819809999999999
2449494925,22.28,0.0,0.0,0.0,-0.2943,-0.27468000000000004,9.82962
2454545430,22.28,0.0,0.0,0.0,-0.30411,-0.25506,9.84924
2459595935,22.28,0.0,0.0,0.0,-0.28449,-0.26487,9.81
2464646440,22.28,0.0,0.0,0.0,-0.2943,-0.26487,9.81
2469696945,22.28,0.0,0.0,0.0,-0.31392000000000003,-0.24525000000000002,9.82962
2474747450,22.28,0.0,0.0,0.0,-0.26487,-0.25506,9.82962
2479797955,22.28,0.0,0.0,0.0,-0.28449,-0.26487,9.83943
2484848460,22.28,0.0,0.0,0.0,-0.32373,-0.28449,9.82962
2489898965,22.28,0.0,0.0,0.0,-0.31392000000000003,-0.25506,9.82962
2494949470,22.28,0.0,0.0,0.0,-0.2943,-0.24525000000000002,9.819809999999999
2499999975,22.28,0.0,0.0,0.0,-0.28449,-0.25506,9.81
2505050480,22.28,0.0,0.0,0.0,-0.31392000000000003,-0.26487,9.84924
2510100985,22.28,0.0,0.0,0.0,-0.2943,-0.24525000000000002,9.83943
2515151490,22.28,0.0,0.0,0.0,-0.31392000000000003,-0.22563,9.81
2520201995,22.28,0.0,0.0,0.0,-0.2943,-0.24525000000000002,9.819809999999999
2525252500,22.28,0.0,0.0,0.0,-0.28449,-0.24525000000000002,9.83943
2530303005,22.28,0.0,0.0,0.0,-0.32373,-0.24525000000000002,9.819809999999999
2535353510,22.28,0.0,0.0,0.0,-0.31392000000000003,-0.26487,9.819809999999999
2540404015,22.28,0.0,0.0,0.0,-0.2943,-0.23544,9.83943
2545454520,22.28,0.0,0.0,0.0,-0.2943,-0.27468000000000004,9.82962
2550505025,22.28,0.0,0.0,0.0,-0.31392000000000003,-0.23544,9.819809999999999
2555555530,22.28,0.0,0.0,0.0,-0.30411,-0.23544,9.82962
2560606035,22.28,0.0,0.0,0.0,-0.27468000000000004,-0.25506,9.819809999999999
2565656540,22.28,0.0,0.0,0.0,-0.31392000000000003,-0.28449,9.82962
2570707045,22.28,0.0,0.0,0.0,-0.30411,-0.26487,9.84924
2575757550,22.28,0.0,0.0,0.0,-0.27468000000000004,-0.26487,9.819809999999999
2580808055,22.28,0.0,0.0,0.0,-0.28449,-0.26487,9.82962
2585858560,22.28,0.0,0.0,0.0,-0.32373,-0.26487,9.83943
2590909065,22.28,0.0,0.0,0.0,-0.2943,-0.23544,9.82962
2595959570,22.28,0.0,0.0,0.0,-0.2943,-0.25506,9.83943
2601010075,22.28,0.0,0.0,0.0,-0.32373,-0.26487,9.819809999999999
2606060580,22.28,0.0,0.0,0.0,-0.2943,-0.23544,9.82962
2611111085,22.28,0.0,0.0,0.0,-0.2943,-0.25506,9.819809999999999
2616161590,22.28,0.0,0.0,0.0,-0.2943,-0.25506,9.82962
2621212095,22.28,0.0,0.0,0.0,-0.31392000000000003,-0.26487,9.83943
2626262600,22.28,0.0,0.0,0.0,-0.2943,-0.24525000000000002,9.82962
2631313105,22.28,0.0,0.0,0.0,-0.2943,-0.24525000000000002,9.84924
2636363610,22.28,0.0,0.0,0.0,-0.2943,-0.25506,9.819809999999999
2641414115,22.28,0.0,0.0,0.0,-0.2943,-0.25506,9.819809999999999
2646464620,22.28,0.0,0.0,0.0,-0.2943,-0.27468000000000004,9.84924
2651515125,22.28,0.0,0.0,0.0,-0.2943,-0.25506,9.82962
2656565630,22.28,0.0,0.0,0.0,-0.28449,-0.23544,9.81
2661616135,22.28,0.0,0.0,0.0,-0.27468000000000004,-0.27468000000000004,9.83943
2666666640,22.28,0.0,0.0,0.0,-0.30411,-0.24525000000000002,9.82962
2671717145,22.28,0.0,0.0,0.0,-0.30411,-0.22563,9.819809999999999
2676767650,22.28,0.0,0.0,0.0,-0.30411,-0.23544,9.819809999999999
2681818155,22.28,0.0,0.0,0.0,-0.30411,-0.27468000000000004,9.81
2686868660,22.28,0.0,0.0,0.0,-0.30411,-0.25506,9.84924
2691919165,22.28,0.0,0.0,0.0,-0.28449,-0.26487,9.819809999999999
2696969670,22.28,0.0,0.0,0.0,-0.2943,-0.27468000000000004,9.83943
2702020175,22.28,0.0,0.0,0.0,-0.34335000000000004,-0.26487,9.83943
2707070680,22.28,0.0,0.0,0.0,-0.2943,-0.24525000000000002,9.83943
2712121185,22.28,0.0,0.0,0.0,-0.2943,-0.26487,9.819809999999999
2717171690,22.28,0.0,0.0,0.0,-0.28449,-0.25506,9.83943
2722222195,22.28,0.0,0.0,0.0,-0.28449,-0.26487,9.82962
2727272700,22.28,0.0,0.0,0.0,-0.30411,-0.25506,9.819809999999999
2732323205,22.28,0.0,0.0,0.0,-0.31392000000000003,-0.25506,9.81
2737373710,22.28,0.0,0.0,0.0,-0.2943,-0.25506,9.83943
2742424215,22.28,0.0,0.0,0.0,-0.2943,-0.25506,9.83943
2747474720,22.28,0.0,0.0,0.0,-0.30411,-0.27468000000000004,9.819809999999999
2752525225,22.28,0.0,0.0,0.0,-0.28449,-0.24525000000000002,9.82962
2757575730,22.28,0.0,0.0,0.0,-0.28449,-0.24525000000000002,9.819809999999999
2762626235,22.28,0.0,0.0,0.0,-0.30411,-0.26487,9.819809999999999
2767676740,22.28,0.0,0.0,0.0,-0.31392000000000003,-0.26487,9.85905
2772727245,22.28,0.0,0.0,0.0,-0.28449,-0.25506,9.819809999999999
2777777750,22.28,0.0,0.0,0.0,-0.2943,-0.25506,9.82962
2782828255,22.28,0.0,0.0,0.0,-0.30411,-0.26487,9.85905
2787878760,22.28,0.0,0.0,0.0,-0.27468000000000004,-0.24525000000000002,9.819809999999999
2792929265,22.28,0.0,0.0,0.0,-0.28449,-0.23544,9.82962
2797979770,22.28,0.0,0.0,0.0,-0.2943,-0.24525000000000002,9.82962
2803030275,22.28,0.0,0.0,0.0,-0.32373,-0.25506,9.84924
2808080780,22.28,0.0,0.0,0.0,-0.27468000000000004,-0.24525000000000002,9.83943
2813131285,22.28,0.0,0.0,0.0,-0.27468000000000004,-0.26487,9.82962
2818181790,22.28,0.0,0.0,0.0,-0.31392000000000003,-0.26487,9.819809999999999
2823232295,22.28,0.0,0.0,0.0,-0.27468000000000004,-0.24525000000000002,9.83943
2828282800,22.28,0.0,0.0,0.0,-0.26487,-0.27468000000000004,9.82962
2833333305,22.28,0.0,0.0,0.0,-0.30411,-0.26487,9.819809999999999
2838383810,22.28,0.0,0.0,0.0,-0.31392000000000003,-0.24525000000000002,9.84924
2843434315,22.28,0.0,0.0,0.0,-0.28449,-0.24525000000000002,9.84924
2848484820,22.28,0.0,0.0,0.0,-0.26487,-0.24525000000000002,9.82962
2853535325,22.28,0.0,0.0,0.0,-0.31392000000000003,-0.26487,9.81
2858585830,22.28,0.0,0.0,0.0,-0.30411,-0.23544,9.83943
2863636335,22.28,0.0,0.0,0.0,-0.2943,-0.27468000000000004,9.83943
2868686840,22.28,0.0,0.0,0.0,-0.28449,-0.27468000000000004,9.79038
2873737345,22.28,0.0,0.0,0.0,-0.2943,-0.26487,9.82962
2878787850,22.28,0.0,0.0,0.0,-0.27468000000000004,-0.26487,9.83943
2883838355,22.28,0.0,0.0,0.0,-0.30411,-0.25506,9.819809999999999
2888888860,22.28,0.0,0.0,0.0,-0.2943,-0.25506,9.819809999999999
2893939365,22.28,0.0,0.0,0.0,-0.30411,-0.23544,9.819809999999999
2898989870,22.28,0.0,0.0,0.0,-0.2943,-0.27468000000000004,9.83943
2904040375,22.28,0.0,0.0,0.0,-0.2943,-0.24525000000000002,9.84924
2909090880,22.28,0.0,0.0,0.0,-0.28449,-0.23544,9.82962
2914141385,22.28,0.0,0.0,0.0,-0.30411,-0.25506,9.819809999999999
2919191890,22.28,0.0,0.0,0.0,-0.31392000000000003,-0.25506,9.82962
2924242395,22.28,0.0,0.0,0.0,-0.33354000000000006,-0.24525000000000002,9.84924
2929292900,22.28,0.0,0.0,0.0,-0.30411,-0.24525000000000002,9.81
2934343405,22.28,0.0,0.0,0.0,-0.2943,-0.27468000000000004,9.82962
2939393910,22.28,0.0,0.0,0.0,-0.32373,-0.26487,9.82962
2944444415,22.28,0.0,0.0,0.0,-0.2943,-0.23544,9.81
2949494920,22.28,0.0,0.0,0.0,-0.2943,-0.24525000000000002,9.819809999999999
2954545425,22.28,0.0,0.0,0.0,-0.28449,-0.24525000000000002,9.82962
2959595930,22.28,0.0,0.0,0.0,-0.30411,-0.23544,9.82962
2964646435,22.28,0.0,0.0,0.0,-0.30411,-0.26487,9.81
2969696940,22.28,0.0,0.0,0.0,-0.28449,-0.23544,9.83943
2974747445,22.28,0.0,0.0,0.0,-0.30411,-0.23544,9.82962
2979797950,22.28,0.0,0.0,0.0,-0.27468000000000004,-0.26487,9.81
2984848455,22.28,0.0,0.0,0.0,-0.30411,-0.26487,9.82962
2989898960,22.28,0.0,0.0,0.0,-0.30411,-0.24525000000000002,9.82962
2994949465,22.28,0.0,0.0,0.0,-0.2943,-0.25506,9.82962
2999999970,22.28,0.0,0.0,0.0,-0.30411,-0.25506,9.82962
3005050475,22.28,0.0,0.0,0.0,-0.32373,-0.24525000000000002,9.82962
3010100980,22.28,0.0,0.0,0.0,-0.2943,-0.25506,9.85905
3015151485,22.28,0.0,0.0,0.0,-0.28449,-0.26487,9.81
3020201990,22.28,0.0,0.0,0.0,-0.31392000000000003,-0.27468000000000004,9.83943
3025252495,22.28,0.0,0.0,0.0,-0.2943,-0.24525000000000002,9.819809999999999
3030303000,22.28,0.0,0.0,0.0,-0.2943,-0.27468000000000004,9.819809999999999
3035353505,22.28,0.0,0.0,0.0,-0.30411,-0.26487,9.83943
3040404010,22.28,0.0,0.0,0.0,-0.32373,-0.25506,9.819809999999999
3045454515,22.28,0.0,0.0,0.0,-0.27468000000000004,-0.24525000000000002,9.83943
3050505020,22.28,0.0,0.0,0.0,-0.2943,-0.27468000000000004,9.819809999999999
3055555525,22.28,0.0,0.0,0.0,-0.31392000000000003,-0.23544,9.84924
3060606030,22.28,0.0,0.0,0.0,-0.28449,-0.25506,9.82962
3065656535,22.28,0.0,0.0,0.0,-0.30411,-0.24525000000000002,9.83943
3070707040,22.28,0.0,0.0,0.0,-0.30411,-0.23544,9.82962
3075757545,22.28,0.0,0.0,0.0,-0.30411,-0.23544,9.819809999999999
3080808050,22.28,0.0,0.0,0.0,-0.26487,-0.28449,9.819809999999999
3085858555,22.28,0.0,0.0,0.0,-0.32373,-0.24525000000000002,9.81
3090909060,22.28,0.0,0.0,0.0,-0.30411,-0.27468000000000004,9.83943
3095959565,22.28,0.0,0.0,0.0,-0.2943,-0.26487,9.82962
3101010070,22.28,0.0,0.0,0.0,-0.28449,-0.26487,9.82962
3106060575,22.28,0.0,0.0,0.0,-0.32373,-0.25506,9.819809999999999
3111111080,22.28,0.0,0.0,0.0,-0.30411,-0.24525000000000002,9.83943
3116161585,22.28,0.0,0.0,0.0,-0.2943,-0.27468000000000004,9.81
3121212090,22.28,0.0,0.0,0.0,-0.31392000000000003,-0.25506,9.82962
3126262595,22.28,0.0,0.0,0.0,-0.30411,-0.23544,9.83943
3131313100,22.28,0.0,0.0,0.0,-0.2943,-0.23544,9.819809999999999
3136363605,22.28,0.0,0.0,0.0,-0.31392000000000003,-0.26487,9.81
3141414110,22.28,0.0,0.0,0.0,-0.32373,-0.26487,9.84924
3146464615,22.28,0.0,0.0,0.0,-0.28449,-0.23544,9.81
3151515120,22.28,0.0,0.0,0.0,-0.30411,-0.25506,9.82962
3156565625,22.28,0.0,0.0,0.0,-0.30411,-0.26487,9.83943
3161616130,22.28,0.0,0.0,0.0,-0.31392000000000003,-0.25506,9.83943
3166666635,22.28,0.0,0.0,0.0,-0.2943,-0.25506,9.82962
3171717140,22.28,0.0,0.0,0.0,-0.27468000000000004,-0.26487,9.819809999999999
3176767645,22.28,0.0,0.0,0.0,-0.30411,-0.24525000000000002,9.83943
3181818150,22.28,0.0,0.0,0.0,-0.30411,-0.24525000000000002,9.82962
3186868655,22.28,0.0,0.0,0.0,-0.2943,-0.26487,9.81
3191919160,22.28,0.0,0.0,0.0,-0.30411,-0.23544,9.819809999999999
3196969665,22.28,0.0,0.0,0.0,-0.28449,-0.25506,9.81
3202020170,22.28,0.0,0.0,0.0,-0.27468000000000004,-0.26487,9.819809999999999
3207070675,22.28,0.0,0.0,0.0,-0.31392000000000003,-0.24525000000000002,9.82962
3212121180,22.28,0.0,0.0,0.0,-0.30411,-0.23544,9.85905
3217171685,22.28,0.0,0.0,0.0,-0.2943,-0.26487,9.81
3222222190,22.28,0.0,0.0,0.0,-0.2943,-0.25506,9.82962
3227272695,22.28,0.0,0.0,0.0,-0.2943,-0.23544,9.81
3232323200,22.28,0.0,0.0,0.0,-0.28449,-0.24525000000000002,9.81
3237373705,22.28,0.0,0.0,0.0,-0.2943,-0.2943,9.83943
3242424210,22.28,0.0,0.0,0.0,-0.28449,-0.24525000000000002,9.82962
3247474715,22.28,0.0,0.0,0.0,-0.2943,-0.27468000000000004,9.819809999999999
3252525220,22.28,0.0,0.0,0.0,-0.30411,-0.25506,9.819809999999999
3257575725,22.28,0.0,0.0,0.0,-0.2943,-0.24525000000000002,9.83943
3262626230,22.28,0.0,0.0,0.0,-0.27468000000000004,-0.25506,9.81
3267676735,22.28,0.0,0.0,0.0,-0.2943,-0.26487,9.819809999999999
3272727240,22.28,0.0,0.0,0.0,-0.28449,-0.28449,9.83943
3277777745,22.28,0.0,0.0,0.0,-0.27468000000000004,-0.22563,9.819809999999999
3282828250,22.28,0.0,0.0,0.0,-0.2943,-0.20601000000000003,9.80019
3287878755,22.28,0.0,0.0,0.0,-0.2943,-0.27468000000000004,9.81
3292929260,22.28,0.0,0.0,0.0,-0.32373,-0.24525000000000002,9.83943
3297979765,22.28,0.0,0.0,0.0,-0.31392000000000003,-0.25506,9.83943
3303030270,22.28,0.0,0.0,0.0,-0.2943,-0.27468000000000004,9.819809999999999
3308080775,22.28,0.0,0.0,0.0,-0.30411,-0.25506,9.81
3313131280,22.28,0.0,0.0,0.0,-0.28449,-0.24525000000000002,9.84924
3318181785,22.28,0.0,0.0,0.0,-0.27468000000000004,-0.25506,9.819809999999999
3323232290,22.28,0.0,0.0,0.0,-0.28449,-0.26487,9.82962
3328282795,22.28,0.0,0.0,0.0,-0.32373,-0.25506,9.82962
3333333300,22.28,0.0,0.0,0.0,-0.30411,-0.24525000000000002,9.82962
3338383805,22.28,0.0,0.0,0.0,-0.2943,-0.27468000000000004,9.819809999999999
3343434310,22.28,0.0,0.0,0.0,-0.2943,-0.24525000000000002,9.82962
3348484815,22.28,0.0,0.0,0.0,-0.28449,-0.26487,9.82962
3353535320,22.28,0.0,0.0,0.0,-0.30411,-0.26487,9.82962
3358585825,22.28,0.0,0.0,0.0,-0.30411,-0.23544,9.819809999999999
3363636330,22.28,0.0,0.0,0.0,-0.27468000000000004,-0.24525000000000002,9.82962
3368686835,22.28,0.0,0.0,0.0,-0.2943,-0.25506,9.83943
3373737340,22.28,0.0,0.0,0.0,-0.32373,-0.26487,9.83943
3378787845,22.28,0.0,0.0,0.0,-0.30411,-0.22563,9.82962
3383838350,22.28,0.0,0.0,0.0,-0.27468000000000004,-0.24525000000000002,9.84924
3388888855,22.28,0.0,0.0,0.0,-0.2943,-0.27468000000000004,9.81
3393939360,22.28,0.0,0.0,0.0,-0.32373,-0.24525000000000002,9.82962
3398989865,22.28,0.0,0.0,0.0,-0.30411,-0.23544,9.83943
3404040370,22.28,0.0,0.0,0.0,-0.2943,-0.27468000000000004,9.819809999999999
3409090875,22.28,0.0,0.0,0.0,-0.30411,-0.25506,9.82962
3414141380,22.28,0.0,0.0,0.0,-0.28449,-0.25506,9.819809999999999
3419191885,22.28,0.0,0.0,0.0,-0.28449,-0.26487,9.84924
3424242390,22.28,0.0,0.0,0.0,-0.2943,-0.26487,9.81
3429292895,22.28,0.0,0.0,0.0,-0.2943,-0.25506,9.83943
3434343400,22.28,0.0,0.0,0.0,-0.31392000000000003,-0.24525000000000002,9.82962
3439393905,22.28,0.0,0.0,0.0,-0.31392000000000003,-0.26487,9.819809999999999
3444444410,22.28,0.0,0.0,0.0,-0.30411,-0.23544,9.81
3449494915,22.28,0.0,0.0,0.0,-0.28449,-0.26487,9.81
3454545420,22.28,0.0,0.0,0.0,-0.27468000000000004,-0.25506,9.81
3459595925,22.28,0.0,0.0,0.0,-0.31392000000000003,-0.23544,9.819809999999999
3464646430,22.28,0.0,0.0,0.0,-0.2943,-0.22563,9.81
3469696935,22.28,0.0,0.0,0.0,-0.2943,-0.25506,9.819809999999999
3474747440,22.28,0.0,0.0,0.0,-0.32373,-0.25506,9.82962
3479797945,22.28,0.0,0.0,0.0,-0.31392000000000003,-0.25506,9.82962
3484848450,22.28,0.0,0.0,0.0,-0.30411,-0.27468000000000004,9.819809999999999
3489898955,22.28,0.0,0.0,0.0,-0.31392000000000003,-0.24525000000000002,9.82962
3494949460,22.28,0.0,0.0,0.0,-0.2943,-0.24525000000000002,9.81
3499999965,22.28,0.0,0.0,0.0,-0.28449,-0.24525000000000002,9.81
3505050470,22.28,0.0,0.0,0.0,-0.31392000000000003,-0.25506,9.86886
3510100975,22.28,0.0,0.0,0.0,-0.31392000000000003,-0.25506,9.819809999999999
3515151480,22.28,0.0,0.0,0.0,-0.30411,-0.24525000000000002,9.82962
3520201985,22.28,0.0,0.0,0.0,-0.27468000000000004,-0.25506,9.82962
3525252490,22.28,0.0,0.0,0.0,-0.30411,-0.26487,9.82962
3530302995,22.28,0.0,0.0,0.0,-0.28449,-0.24525000000000002,9.85905
3535353500,22.28,0.0,0.0,0.0,-0.2943,-0.25506,9.83943
3540404005,22.28,0.0,0.0,0.0,-0.32373,-0.27468000000000004,9.83943
3545454510,22.28,0.0,0.0,0.0,-0.2943,-0.25506,9.83943
3550505015,22.28,0.0,0.0,0.0,-0.28449,-0.24525000000000002,9.82962
3555555520,22.28,0.0,0.0,0.0,-0.31392000000000003,-0.25506,9.819809999999999
3560606025,22.28,0.0,0.0,0.0,-0.31392000000000003,-0.24525000000000002,9.82962
3565656530,22.28,0.0,0.0,0.0,-0.31392000000000003,-0.22563,9.83943
3570707035,22.28,0.0,0.0,0.0,-0.31392000000000003,-0.24525000000000002,9.82962
3575757540,22.28,0.0,0.0,0.0,-0.30411,-0.25506,9.85905
3580808045,22.28,0.0,0.0,0.0,-0.30411,-0.23544,9.83943
3585858550,22.28,0.0,0.0,0.0,-0.30411,-0.24525000000000002,9.82962
3590909055,22.28,0.0,0.0,0.0,-0.27468000000000004,-0.24525000000000002,9.81
3595959560,22.28,0.0,0.0,0.0,-0.33354000000000006,-0.42183,9.819809999999999
3601010065,22.28,-0.006387905062299246,0.03089232776029963,-0.005323254218582705,-0.38259000000000004,-1.40283,9.91791
3606060570,22.28,0.06391395720803235,0.19387117331153014,0.003193952531149623,-1.21644,0.27468000000000004,9.97677
3611111075,22.28,0.11611675513518273,0.12037535851004891,0.005323254218582705,-2.48193,0.15696000000000002,10.23183
3616161580,22.28,-0.00958185759344887,-0.039409534510031964,0.01064650843716541,-1.85409,1.4813100000000001,9.40779
3621212085,22.28,-0.09480628496833199,-0.2428800187075309,-0.004258603374866164,-0.71613,0.27468000000000004,9.43722
3626262590,22.28,-0.2482032729261136,-0.3089232776029963,-0.014905111812031574,0.8240400000000001,-2.7369900000000005,8.97615
3631313095,22.28,-0.02982767691658309,-0.049008845396000776,-0.006387905062299246,2.4426900000000002,0.1962,8.74071
3636363600,22.28,0.07883652231258387,0.11611675513518273,0.001064650843716541,0.59841,-0.6768900000000001,9.94734
3641414105,22.28,0.12144000935376545,0.2151816434783809,0.003193952531149623,0.70632,0.7651800000000001,9.064440000000001
3646464610,22.28,0.07243116395776468,0.26099653634323206,0.007452555906015787,-1.7658,-0.24525000000000002,10.47708
3651515115,22.28,-0.003193952531149623,0.07670722062515077,0.012775810124598492,-2.52117,0.73575,9.87867
3656565620,22.28,-0.02982767691658309,-0.18748326824923087,-0.003193952531149623,-1.8246600000000002,1.02024,9.45684
3661616125,22.28,-0.16404349639494703,-0.3206518901763982,-0.013840460968315033,0.18639,-2.17782,9.39798
3666666630,22.28,-0.258867234655799,-0.2183755960095305,-0.00958185759344887,3.00186,-1.6677000000000002,10.38879
3671717135,22.28,0.09800023749948161,0.12250466019748199,0.008517206749732328,1.22625,-0.6867000000000001,10.40841
3676767640,22.28,0.11079350091660004,0.258867234655799,0.013840460968315033,0.22563,1.08891,9.32931
3681818145,22.28,0.13634512116579703,0.21092304010351473,0.003193952531149623,-0.9908100000000001,0.57879,10.212209999999999
3686868650,22.28,-0.05007349623971732,0.054332099614583476,0.0,-1.73637,-0.23544,9.44703
3691919155,22.28,-0.0852244273748831,-0.12356931104119852,-0.004258603374866164,-1.68732,-0.23544,9.6138
3696969660,22.28,-0.06923721142661506,-0.16938420390604966,0.0,-0.50031,-0.02943,9.66285
3702020165,22.28,-0.09267698328089889,-0.13955652698946658,-0.001064650843716541,0.51993,-1.1183400000000001,9.72171
3707070670,22.28,-0.10332349171806432,-0.07349581480148122,-0.002129301687433082,1.43226,-0.8829,10.06506
3712121175,22.28,0.044732788728614664,0.09906488834319814,0.002129301687433082,0.60822,-0.6670800000000001,10.006200000000002
3717171680,22.28,0.07670722062515077,0.1800307123432151,0.005323254218582705,-0.15696000000000002,0.27468000000000004,9.39798
3722222185,22.28,0.08628907821859966,0.15978489302008084,0.007452555906015787,-1.2753,0.5591700000000001,9.89829
3727272690,22.28,-0.028763026072866547,-0.02982767691658309,-0.003193952531149623,-1.52055,0.04905,9.84924
3732323195,22.28,-0.10653489754173388,-0.13955652698946658,-0.004258603374866164,-0.63765,-0.37278,9.78057
3737373700,22.28,-0.12463396188491506,-0.12569861272863161,-0.002129301687433082,-0.18639,-1.08891,10.182780000000001
3742424205,22.28,-0.06391395720803235,-0.06604325889546543,0.0,0.23544,-0.56898,9.78057
3747474710,22.28,0.008517206749732328,0.020245819323134222,0.001064650843716541,0.41202000000000005,-0.28449,9.73152
3752525215,22.28,0.04260348704118158,0.0852244273748831,0.003193952531149623,0.08829,0.0,9.496080000000001
3757575720,22.28,0.014905111812031574,0.08948303074974927,0.002129301687433082,-0.34335000000000004,-0.25506,9.770760000000001
3762626225,22.28,-0.005323254218582705,0.07030186227033158,0.003193952531149623,-0.7848,-0.04905,9.760950000000001
3767676730,22.28,-0.015987215948268057,-0.002129301687433082,0.0,-1.04967,0.0,9.81
3772727235,22.28,-0.049008845396000776,-0.07349581480148122,-0.002129301687433082,-0.57879,-0.06867000000000001,9.64323
3777777740,22.28,-0.08841837990603273,-0.08415977653116657,-0.003193952531149623,-0.12753,-0.60822,9.64323
3782828245,22.28,-0.09267698328089889,-0.07349581480148122,-0.003193952531149623,0.16677000000000003,-0.9123300000000001,9.91791
3787878750,22.28,-0.02663372438543347,0.0,0.0,0.28449,-0.74556,10.01601
3792929255,22.28,0.033021629447732716,0.09374163412461543,0.005323254218582705,-0.08829,-0.10791,9.888480000000001
3797979760,22.28,0.04153883619746504,0.08628907821859966,0.005323254218582705,-0.63765,0.26487,9.819809999999999
3803030265,22.28,-0.012775810124598492,0.005323254218582705,0.001064650843716541,-0.60822,-0.06867000000000001,9.82962
3808080770,22.28,-0.06391395720803235,-0.039409534510031964,0.0,-0.47088,-0.6180300000000001,9.888480000000001
3813131275,22.28,-0.07456046564519776,-0.03834488366631542,0.0,-0.42183,-0.6768900000000001,9.94734
3818181780,22.28,-0.004258603374866164,-0.003193952531149623,0.002129301687433082,-0.35316,0.02943,9.67266
3823232285,22.28,-0.00958185759344887,-0.01811651763570114,0.0,-0.07848000000000001,-0.14715,9.55494
3828282790,22.28,-0.05646140130201656,-0.012775810124598492,0.001064650843716541,0.08829,-0.57879,9.73152
3833333295,22.28,-0.046879543708567686,0.012775810124598492,0.003193952531149623,-0.23544,-0.63765,9.86886
3838383800,22.28,-0.001064650843716541,0.023439771854283843,0.001064650843716541,-0.28449,-0.25506,9.72171
3843434305,22.28,0.0,0.04581489286485115,0.001064650843716541,-0.33354000000000006,-0.12753,9.751140000000001
3848484810,22.28,-0.015987215948268057,0.02663372438543347,0.003193952531149623,-0.75537,-0.02943,9.82962
3853535315,22.28,-0.06284930636431581,-0.06710790973918197,-0.002129301687433082,-0.38259000000000004,-0.40221,9.819809999999999
3858585820,22.28,-0.06817256058289851,-0.04153883619746504,-0.002129301687433082,-0.009810000000000001,-0.51993,9.751140000000001
3863636325,22.28,-0.054332099614583476,-0.011711159280881954,0.002129301687433082,-0.23544,-0.87309,9.92772
3868686830,22.28,-0.023439771854283843,0.01811651763570114,0.002129301687433082,-0.12753,-0.28449,9.91791
3873737335,22.28,0.028763026072866547,0.02982767691658309,0.003193952531149623,-0.31392000000000003,0.0981,10.006200000000002
3878787840,22.28,-0.03834488366631542,-0.00958185759344887,-0.002129301687433082,-0.13734000000000002,-0.43164,9.80019
3883838345,22.28,-0.05965535383316618,0.004258603374866164,0.001064650843716541,-0.31392000000000003,-0.6180300000000001,9.760950000000001
3888888850,22.28,-0.039409534510031964,-0.00958185759344887,0.0,-0.42183,-0.63765,9.98658
3893939355,22.28,0.006387905062299246,0.023439771854283843,0.002129301687433082,-0.25506,-0.02943,9.74133
3898989860,22.28,-0.011711159280881954,0.023439771854283843,0.0,-0.48069000000000006,-0.12753,9.60399
3904040365,22.28,-0.05007349623971732,-0.021310470166850764,0.0,-0.35316,-0.26487,9.57456
3909090870,22.28,-0.06710790973918197,-0.04366813788489812,-0.001064650843716541,-0.20601000000000003,-0.71613,9.888480000000001
3914141375,22.28,-0.06284930636431581,-0.020245819323134222,0.0,-0.05886,-0.63765,9.7119
3919191880,22.28,-0.014905111812031574,0.023439771854283843,0.001064650843716541,-0.20601000000000003,-0.44145,9.7119
3924242385,22.28,-0.007452555906015787,0.0404741853537485,0.004258603374866164,-0.33354000000000006,-0.18639,9.82962
3929292890,22.28,-0.0170518667919846,0.007452555906015787,0.0,-0.47088,-0.22563,9.92772
3934343395,22.28,-0.05859070298944965,-0.02982767691658309,0.001064650843716541,-0.23544,-0.51993,9.94734
3939393900,22.28,-0.05220279792715039,-0.01811651763570114,0.0,-0.2943,-0.6278400000000001,9.85905
3944444405,22.28,-0.05113814708343386,-0.01064650843716541,0.0,-0.18639,-0.79461,9.95715
3949494910,22.28,0.0,0.03408628029144926,0.006387905062299246,-0.28449,-0.15696000000000002,9.96696
3954545415,22.28,0.007452555906015787,0.020245819323134222,0.004258603374866164,-0.41202000000000005,-0.10791,9.89829
3959595920,22.28,-0.04581489286485115,-0.01064650843716541,-0.002129301687433082,-0.25506,-0.21582,9.59418
3964646425,22.28,-0.07136651311404815,-0.031956978604016174,0.0,-0.2943,-0.7651800000000001,9.73152
3969696930,22.28,-0.060720004676882725,-0.033021629447732716,0.0,-0.10791,-0.74556,9.81
3974747435,22.28,-0.014905111812031574,0.024504422698000388,0.002129301687433082,-0.0981,-0.46107000000000004,9.751140000000001
3979797940,22.28,0.008517206749732328,0.0756251164889143,0.002129301687433082,-0.46107000000000004,0.0,9.6138
3984848445,22.28,-0.01064650843716541,0.023439771854283843,0.0,-0.64746,-0.10791,9.70209
3989898950,22.28,-0.07243116395776468,-0.04794419455228423,0.0,-0.45126,-0.37278,9.79038
3994949455,22.28,-0.08948303074974927,-0.0756251164889143,-0.002129301687433082,-0.14715,-0.85347,9.94734
3999999960,22.28,-0.07670722062515077,-0.03515093113516579,-0.001064650843716541,0.14715,-1.03005,9.937529999999999
4005050465,22.28,-0.006387905062299246,0.03728023282259888,0.005323254218582705,-0.10791,-0.5886,10.025820000000001
4010100970,22.28,0.023439771854283843,0.06391395720803235,0.004258603374866164,-0.31392000000000003,-0.22563,10.03563
4015151475,22.28,0.02556907354171693,0.054332099614583476,0.004258603374866164,-0.51993,0.11772,9.937529999999999
4020201980,22.28,-0.04794419455228423,-0.015987215948268057,0.001064650843716541,-0.5395500000000001,-0.38259000000000004,9.81
4025252485,22.28,-0.08948303074974927,-0.06923721142661506,-0.002129301687433082,-0.25506,-0.70632,9.69228
4030302990,22.28,-0.0756251164889143,-0.05752605214573309,-0.003193952531149623,-0.009810000000000001,-0.9613800000000001,9.83943
4035353495,22.28,-0.03089232776029963,0.008517206749732328,-0.003193952531149623,0.13734000000000002,-0.6278400000000001,9.74133
4040404000,22.28,0.023439771854283843,0.08628907821859966,0.007452555906015787,-0.22563,-0.22563,9.64323
4045454505,22.28,0.01918116847941768,0.06817256058289851,0.003193952531149623,-0.71613,0.06867000000000001,9.65304
4050505010,22.28,-0.0404741853537485,-0.02663372438543347,0.0,-0.57879,-0.26487,9.760950000000001
4055555515,22.28,-0.09161233243718235,-0.07030186227033158,0.002129301687433082,-0.34335000000000004,-0.6867000000000001,9.78057
4060606020,22.28,-0.09693558665576507,-0.08309512568745003,0.001064650843716541,-0.05886,-1.2360600000000002,9.91791
4065656525,22.28,-0.04794419455228423,-0.007452555906015787,0.002129301687433082,0.16677000000000003,-0.8142300000000001,9.96696
4070707030,22.28,0.0170518667919846,0.07030186227033158,0.002129301687433082,-0.05886,-0.51012,10.19259
4075757535,22.28,0.03089232776029963,0.08628907821859966,0.004258603374866164,-0.52974,-0.08829,9.96696
4080808040,22.28,-0.001064650843716541,0.03515093113516579,0.001064650843716541,-0.7848,0.009810000000000001,9.770760000000001
4085858545,22.28,-0.05965535383316618,-0.05646140130201656,-0.001064650843716541,-0.6278400000000001,-0.42183,9.80019
4090909050,22.28,-0.10866419922916695,-0.11931070766633237,-0.002129301687433082,-0.06867000000000001,-1.1870100000000001,9.89829
4095959555,22.28,-0.08735372906231618,-0.060720004676882725,0.0,0.50031,-0.89271,9.888480000000001
4101010060,22.28,0.00958185759344887,0.04794419455228423,0.003193952531149623,0.12753,-0.80442,9.78057
4106060565,22.28,0.03621558197888234,0.13955652698946658,0.007452555906015787,-0.30411,-0.05886,9.32931
4111111070,22.28,0.039409534510031964,0.10866419922916695,0.004258603374866164,-1.1281500000000002,0.11772,9.68247
4116161575,22.28,-0.031956978604016174,-0.012775810124598492,-0.002129301687433082,-1.05948,0.0,9.66285
4121212080,22.28,-0.10438814256178083,-0.12037535851004891,-0.002129301687433082,-0.5493600000000001,-0.56898,9.74133
4126262585,22.28,-0.15446163880149816,-0.1629788455512305,-0.002129301687433082,0.13734000000000002,-1.83447,9.94734
4131313090,22.28,-0.03515093113516579,-0.060720004676882725,0.0,1.1772,-0.5886,9.87867
4136363595,22.28,0.031956978604016174,0.10012953918691468,0.003193952531149623,0.37278,-1.00062,10.31031
4141414100,22.28,0.05326744877086694,0.18641861740551433,0.003193952531149623,-0.27468000000000004,-0.07848000000000001,9.751140000000001
4146464605,22.28,0.05007349623971732,0.1278279144160647,0.002129301687433082,-1.5696,-0.02943,10.15335
4151515110,22.28,-0.01918116847941768,-0.021310470166850764,0.0,-1.41264,0.14715,9.73152
4156565615,22.28,-0.11079350091660004,-0.14381513036433274,-0.005323254218582705,-0.60822,-0.56898,9.633420000000001
4161616120,22.28,-0.15872024217636432,-0.16938420390604966,-0.005323254218582705,0.0,-1.8933300000000002,9.73152
4166666625,22.28,-0.06604325889546543,-0.08948303074974927,-0.001064650843716541,0.69651,-0.56898,9.81
4171717130,22.28,0.01918116847941768,0.054332099614583476,0.002129301687433082,0.9123300000000001,-1.06929,10.01601
4176767635,22.28,0.04366813788489812,0.18641861740551433,0.008517206749732328,0.0,-0.27468000000000004,9.5157
4181818140,22.28,0.0404741853537485,0.15339698795778162,0.005323254218582705,-1.41264,-0.21582,10.06506
4186868645,22.28,0.006387905062299246,0.022375121010567305,0.002129301687433082,-1.60884,0.1962,9.770760000000001
4191919150,22.28,-0.07136651311404815,-0.10653489754173388,-0.005323254218582705,-0.9908100000000001,-0.43164,9.760950000000001
4196969655,22.28,-0.1555262896452147,-0.16404349639494703,-0.004258603374866164,-0.32373,-1.54017,9.99639
4202020160,22.28,-0.1416858286768997,-0.1629788455512305,-0.007452555906015787,1.10853,-1.1477700000000002,10.23183
4207070665,22.28,0.02556907354171693,-0.02982767691658309,-0.004258603374866164,1.3047300000000002,-0.46107000000000004,10.22202
4212121170,22.28,0.0,0.1171814059788993,0.004258603374866164,0.63765,-0.74556,9.42741
4217171675,22.28,0.031956978604016174,0.16831955306233315,0.005323254218582705,-0.6278400000000001,-0.52974,9.74133
4222222180,22.28,0.03089232776029963,0.09693558665576507,0.002129301687433082,-1.3341600000000002,-0.11772,9.937529999999999
4227272685,22.28,0.01064650843716541,0.002129301687433082,0.0,-1.13796,0.019620000000000002,9.81
4232323190,22.28,-0.07243116395776468,-0.06923721142661506,-0.002129301687433082,-0.7749900000000001,-0.50031,9.52551
4237373695,22.28,-0.11079350091660004,-0.10653489754173388,0.0,-0.50031,-0.9613800000000001,9.58437
4242424200,22.28,-0.09693558665576507,-0.10119419003063122,0.0,0.07848000000000001,-1.00062,9.74133
4247474705,22.28,-0.014905111812031574,-0.03408628029144926,0.0,0.57879,-0.5886,9.64323
4252525210,22.28,-0.012775810124598492,0.05113814708343386,0.002129301687433082,0.44145,-0.7848,9.74133
4257575715,22.28,0.00958185759344887,0.10012953918691468,0.004258603374866164,-0.18639,-0.5395500000000001,9.87867
4262626220,22.28,0.003193952531149623,0.05220279792715039,0.002129301687433082,-0.6867000000000001,-0.47088,10.045440000000001
4267676725,22.28,-0.008517206749732328,0.00958185759344887,0.0,-0.49050000000000005,-0.50031,9.96696
4272727230,22.28,-0.03515093113516579,0.0,0.002129301687433082,-0.79461,-0.64746,10.025820000000001
4277777735,22.28,-0.06178465552059926,-0.05539675045830002,-0.002129301687433082,-0.52974,-0.8142300000000001,10.074869999999999
4282828240,22.28,-0.039409534510031964,-0.046879543708567686,0.0,-0.14715,-0.5886,9.87867
4287878745,22.28,-0.03089232776029963,-0.03089232776029963,0.0,0.0,-0.87309,9.79038
4292929250,22.28,-0.03728023282259888,0.008517206749732328,0.0,0.12753,-0.7651800000000001,9.70209
4297979755,22.28,0.007452555906015787,0.0404741853537485,0.004258603374866164,-0.25506,-0.48069000000000006,9.72171
4303030260,22.28,-0.005323254218582705,0.024504422698000388,-0.003193952531149623,-0.1962,-0.57879,9.66285
4308080765,22.28,-0.012775810124598492,0.03515093113516579,0.001064650843716541,-0.48069000000000006,-0.50031,9.623610000000001
4313131270,22.28,-0.02769837522915001,-0.014905111812031574,0.001064650843716541,-0.63765,-0.5395500000000001,9.760950000000001
4318181775,22.28,-0.04581489286485115,-0.046879543708567686,-0.001064650843716541,-0.20601000000000003,-0.73575,9.84924
4323232280,22.28,-0.05326744877086694,-0.02663372438543347,0.002129301687433082,-0.21582,-0.8142300000000001,9.87867
4328282785,22.28,-0.044732788728614664,-0.03621558197888234,-0.001064650843716541,-0.06867000000000001,-0.89271,9.908100000000001
4333333290,22.28,-0.014905111812031574,0.006387905062299246,0.0,0.05886,-0.73575,9.937529999999999
4338383795,22.28,-0.002129301687433082,0.04260348704118158,0.004258603374866164,-0.22563,-0.63765,9.95715
4343434300,22.28,0.003193952531149623,0.03089232776029963,0.001064650843716541,-0.31392000000000003,-0.60822,9.89829
4348484805,22.28,-0.011711159280881954,0.03089232776029963,-0.001064650843716541,-0.45126,-0.5591700000000001,9.888480000000001
4353535310,22.28,-0.014905111812031574,0.004258603374866164,0.002129301687433082,-0.6278400000000001,-0.51012,9.84924
4358585815,22.28,-0.04366813788489812,-0.0404741853537485,-0.002129301687433082,-0.37278,-0.74556,9.80019
4363636320,22.28,-0.03834488366631542,-0.028763026072866547,0.0,-0.20601000000000003,-0.7651800000000001,9.80019
4368686825,22.28,-0.03728023282259888,-0.022375121010567305,-0.002129301687433082,-0.20601000000000003,-0.8829,9.83943
4373737330,22.28,-0.011711159280881954,0.007452555906015787,0.001064650843716541,-0.05886,-0.5591700000000001,9.72171
4378787835,22.28,0.003193952531149623,0.020245819323134222,0.001064650843716541,-0.15696000000000002,-0.69651,9.81
4383838340,22.28,-0.020245819323134222,0.02769837522915001,0.0,-0.25506,-0.70632,9.79038
4388888845,22.28,-0.004258603374866164,0.022375121010567305,0.001064650843716541,-0.5493600000000001,-0.51993,9.84924
4393939350,22.28,-0.013840460968315033,-0.013840460968315033,0.001064650843716541,-0.40221,-0.5395500000000001,9.81
4398989855,22.28,-0.039409534510031964,-0.02663372438543347,0.001064650843716541,-0.26487,-0.79461,9.82962
4404040360,22.28,-0.046879543708567686,-0.03408628029144926,0.0,-0.22563,-0.89271,9.95715
4409090865,22.28,-0.014905111812031574,-0.015987215948268057,-0.001064650843716541,0.019620000000000002,-0.8338500000000001,9.937529999999999
4414141370,22.28,-0.006387905062299246,0.03089232776029963,0.0,-0.14715,-0.74556,9.83943
4419191875,22.28,0.0,0.02769837522915001,0.001064650843716541,-0.3924,-0.49050000000000005,9.78057
4424242380,22.28,-0.001064650843716541,-0.003193952531149623,-0.003193952531149623,-0.25506,-0.60822,9.79038
4429292885,22.28,-0.02663372438543347,0.01064650843716541,0.003193952531149623,-0.2943,-0.8142300000000001,9.81
4434343390,22.28,-0.03728023282259888,-0.003193952531149623,0.0,-0.5493600000000001,-0.8338500000000001,9.85905
4439393895,22.28,-0.007452555906015787,-0.02663372438543347,0.0,-0.26487,-0.49050000000000005,9.819809999999999
4444444400,22.28,-0.001064650843716541,-0.004258603374866164,0.0,-0.009810000000000001,-0.7651800000000001,9.86886
4449494905,22.28,-0.031956978604016174,0.024504422698000388,0.002129301687433082,-0.26487,-0.9908100000000001,9.79038
4454545410,22.28,-0.01064650843716541,0.01918116847941768,0.002129301687433082,-0.59841,-0.48069000000000006,9.78057
4459595915,22.28,0.005323254218582705,-0.02769837522915001,0.0,-0.21582,-0.50031,9.82962
4464646420,22.28,-0.02663372438543347,-0.005323254218582705,0.002129301687433082,-0.02943,-0.95157,9.80019
4469696925,22.28,-0.0404741853537485,0.01811651763570114,0.002129301687433082,-0.50031,-0.9221400000000001,9.937529999999999
4474747430,22.28,-0.005323254218582705,-0.02556907354171693,-0.003193952531149623,-0.37278,-0.6180300000000001,9.98658
4479797935,22.28,-0.001064650843716541,-0.021310470166850764,-0.001064650843716541,0.039240000000000004,-0.6867000000000001,9.98658
4484848440,22.28,-0.01811651763570114,0.021310470166850764,0.001064650843716541,-0.14715,-0.90252,9.908100000000001
4489898945,22.28,-0.003193952531149623,0.02556907354171693,0.001064650843716541,-0.41202000000000005,-0.6278400000000001,9.80019
4494949450,22.28,0.014905111812031574,0.011711159280881954,0.002129301687433082,-0.35316,-0.47088,9.68247
4499999955,22.28,-0.013840460968315033,-0.001064650843716541,0.001064650843716541,-0.33354000000000006,-0.8142300000000001,9.73152
4505050460,22.28,-0.033021629447732716,-0.005323254218582705,0.0,-0.43164,-0.74556,9.79038
4510100965,22.28,-0.006387905062299246,-0.024504422698000388,0.0,-0.32373,-0.5886,9.73152
4515151470,22.28,-0.00958185759344887,-0.003193952531149623,0.0,-0.06867000000000001,-0.72594,9.64323
4520201975,22.28,-0.02769837522915001,0.01918116847941768,0.0,-0.35316,-0.9123300000000001,9.73152
4525252480,22.28,-0.015987215948268057,-0.006387905062299246,0.0,-0.48069000000000006,-0.65727,9.86886
4530302985,22.28,0.0,-0.02663372438543347,0.0,-0.10791,-0.70632,9.937529999999999
4535353490,22.28,-0.023439771854283843,0.007452555906015787,0.0,-0.14715,-0.9613800000000001,9.97677
4540403995,22.28,-0.012775810124598492,0.013840460968315033,0.0,-0.3924,-0.75537,10.01601
4545454500,22.28,0.013840460968315033,-0.012775810124598492,0.0,-0.1962,-0.41202000000000005,9.85905
4550505005,22.28,-0.004258603374866164,-0.005323254218582705,0.0,-0.039240000000000004,-0.6180300000000001,9.69228
4555555510,22.28,-0.05539675045830002,-0.02769837522915001,0.0,-0.10791,-1.2753,9.751140000000001
4560606015,22.28,-0.01918116847941768,-0.028763026072866547,0.0,0.039240000000000004,-0.7749900000000001,9.87867
4565656520,22.28,0.024504422698000388,0.02769837522915001,0.0,0.11772,-0.9613800000000001,10.074869999999999
4570707025,22.28,0.02663372438543347,0.09587093581204853,0.0,-0.33354000000000006,-0.6768900000000001,9.751140000000001
4575757530,22.28,0.03834488366631542,0.07349581480148122,0.005323254218582705,-1.03986,-0.2943,9.86886
4580808035,22.28,0.0170518667919846,-0.006387905062299246,-0.002129301687433082,-0.85347,-0.36297,9.78057
4585858540,22.28,-0.04260348704118158,-0.04260348704118158,-0.002129301687433082,-0.59841,-0.79461,9.7119
4590909045,22.28,-0.07349581480148122,-0.06923721142661506,-0.002129301687433082,-0.5591700000000001,-1.02024,9.80019
4595959550,22.28,-0.0404741853537485,-0.11185815176031658,-0.002129301687433082,0.17658,-0.9123300000000001,9.908100000000001
4601010055,22.28,0.004258603374866164,-0.04260348704118158,-0.002129301687433082,0.84366,-0.85347,9.908100000000001
4606060560,22.28,0.003193952531149623,0.07349581480148122,0.003193952531149623,0.33354000000000006,-1.1477700000000002,9.751140000000001
4611111065,22.28,0.03408628029144926,0.11398745344774965,0.004258603374866164,-0.50031,-0.5886,9.85905
4616161570,22.28,0.06391395720803235,0.060720004676882725,0.002129301687433082,-0.86328,-0.27468000000000004,9.97677
4621212075,22.28,0.005323254218582705,0.0,0.0,-0.74556,-0.56898,9.74133
4626262580,22.28,-0.04366813788489812,-0.03621558197888234,-0.003193952531149623,-0.73575,-0.69651,9.78057
4631313085,22.28,-0.049008845396000776,-0.0852244273748831,-0.003193952531149623,-0.43164,-0.80442,9.79038
4636363590,22.28,-0.046879543708567686,-0.08735372906231618,-0.003193952531149623,0.26487,-1.1870100000000001,9.66285
4641414095,22.28,-0.006387905062299246,0.004258603374866164,0.001064650843716541,0.31392000000000003,-0.8338500000000001,9.74133
4646464600,22.28,0.022375121010567305,0.046879543708567686,0.001064650843716541,0.02943,-0.8240400000000001,9.85905
4651515105,22.28,0.05007349623971732,0.06923721142661506,0.002129301687433082,-0.16677000000000003,-0.50031,9.80019
4656565610,22.28,0.021310470166850764,0.05113814708343386,0.0,-0.65727,-0.74556,10.006200000000002
4661616115,22.28,-0.00958185759344887,-0.001064650843716541,-0.001064650843716541,-0.65727,-0.6670800000000001,9.98658
4666666620,22.28,-0.008517206749732328,-0.03089232776029963,0.0,-0.60822,-0.6867000000000001,10.006200000000002
4671717125,22.28,-0.020245819323134222,-0.046879543708567686,0.001064650843716541,-0.25506,-0.89271,9.83943
4676767630,22.28,-0.014905111812031574,-0.015987215948268057,0.004258603374866164,-0.18639,-0.8829,9.83943
4681818135,22.28,-0.001064650843716541,-0.015987215948268057,0.0,-0.18639,-0.80442,9.888480000000001
4686868640,22.28,0.01811651763570114,0.005323254218582705,0.0,0.009810000000000001,-0.59841,9.7119
4691919145,22.28,0.020245819323134222,0.03621558197888234,0.001064650843716541,-0.17658,-0.6867000000000001,9.623610000000001
4696969650,22.28,0.0,0.022375121010567305,0.0,-0.38259000000000004,-0.71613,9.67266
4702020155,22.28,0.00958185759344887,0.0,0.0,-0.42183,-0.5886,9.74133
4707070660,22.28,-0.003193952531149623,-0.01918116847941768,-0.002129301687433082,-0.26487,-0.74556,9.78057
4712121165,22.28,-0.015987215948268057,-0.01811651763570114,0.0,-0.27468000000000004,-0.84366,9.770760000000001
4717171670,22.28,-0.023439771854283843,-0.022375121010567305,0.001064650843716541,-0.20601000000000003,-0.95157,9.91791
4722222175,22.28,0.00958185759344887,-0.012775810124598492,0.001064650843716541,-0.05886,-0.84366,10.045440000000001
4727272680,22.28,0.011711159280881954,0.01918116847941768,0.002129301687433082,-0.0981,-0.86328,10.03563
4732323185,22.28,0.01811651763570114,0.039409534510031964,-0.002129301687433082,-0.37278,-0.75537,9.96696
4737373690,22.28,0.03515093113516579,0.02982767691658309,0.002129301687433082,-0.57879,-0.60822,9.98658
4742424195,22.28,0.0170518667919846,0.0,0.0,-0.49050000000000005,-0.64746,9.98658
4747474700,22.28,0.001064650843716541,-0.013840460968315033,0.002129301687433082,-0.51012,-0.6670800000000001,9.83943
4752525205,22.28,-0.0170518667919846,-0.04260348704118158,-0.001064650843716541,-0.23544,-0.74556,9.819809999999999
4757575710,22.28,-0.00958185759344887,-0.04153883619746504,-0.001064650843716541,-0.07848000000000001,-0.9908100000000001,9.81
4762626215,22.28,-0.003193952531149623,-0.01918116847941768,0.003193952531149623,0.10791,-0.8142300000000001,9.80019
4767676720,22.28,0.031956978604016174,0.020245819323134222,0.002129301687433082,0.08829,-0.6867000000000001,9.82962
4772727225,22.28,0.03728023282259888,0.046879543708567686,0.001064650843716541,-0.05886,-0.64746,9.59418
4777777730,22.28,0.03089232776029963,0.05220279792715039,0.0,-0.43164,-0.6867000000000001,9.69228
4782828235,22.28,0.02982767691658309,0.03728023282259888,0.002129301687433082,-0.72594,-0.52974,9.70209
4787878740,22.28,0.015987215948268057,0.0,0.0,-0.69651,-0.49050000000000005,9.73152
4792929245,22.28,-0.011711159280881954,-0.03621558197888234,-0.001064650843716541,-0.5886,-0.7651800000000001,9.751140000000001
4797979750,22.28,-0.02982767691658309,-0.05326744877086694,0.0,-0.41202000000000005,-0.87309,9.89829
4803030255,22.28,-0.0170518667919846,-0.0756251164889143,0.0,-0.07848000000000001,-1.06929,10.045440000000001
4808080760,22.28,0.014905111812031574,-0.028763026072866547,-0.002129301687433082,0.32373,-0.6867000000000001,9.97677
4813131265,22.28,0.023439771854283843,0.02769837522915001,0.001064650843716541,0.31392000000000003,-0.87309,9.86886
4818181770,22.28,0.02663372438543347,0.05646140130201656,0.001064650843716541,-0.10791,-0.9319500000000001,9.91791
4823232275,22.28,0.04794419455228423,0.06284930636431581,-0.002129301687433082,-0.48069000000000006,-0.6180300000000001,9.937529999999999
4828282780,22.28,0.060720004676882725,0.05646140130201656,0.0,-0.72594,-0.3924,9.79038
4833333285,22.28,0.022375121010567305,0.020245819323134222,0.0,-0.86328,-0.45126,9.7119
4838383790,22.28,-0.011711159280881954,-0.046879543708567686,0.0,-0.75537,-0.6670800000000001,9.770760000000001
4843434295,22.28,-0.02982767691658309,-0.08735372906231618,-0.004258603374866164,-0.35316,-0.79461,9.78057
4848484800,22.28,-0.03834488366631542,-0.10225884087434776,-0.003193952531149623,0.26487,-1.08891,9.760950000000001
4853535305,22.28,0.015987215948268057,-0.024504422698000388,0.0,0.64746,-0.73575,9.66285
4858585810,22.28,0.03089232776029963,0.07349581480148122,0.0,0.33354000000000006,-0.9908100000000001,9.623610000000001
4863636315,22.28,0.060720004676882725,0.1097288500728835,0.005323254218582705,-0.45126,-0.72594,9.82962
4868686820,22.28,0.06604325889546543,0.07777187146886733,0.003193952531149623,-1.00062,-0.41202000000000005,10.05525
4873737325,22.28,0.05326744877086694,0.01811651763570114,0.001064650843716541,-1.01043,-0.18639,9.99639
4878787830,22.28,-0.012775810124598492,-0.05326744877086694,0.0,-0.8829,-0.5493600000000001,9.89829
4883838335,22.28,-0.05965535383316618,-0.11611675513518273,-0.003193952531149623,-0.38259000000000004,-1.1477700000000002,9.83943
4888888840,22.28,-0.04794419455228423,-0.12250466019748199,-0.003193952531149623,0.60822,-1.1477700000000002,9.91791
4893939345,22.28,0.02982767691658309,-0.03621558197888234,-0.004258603374866164,0.94176,-0.71613,9.92772
4898989850,22.28,0.04581489286485115,0.09267698328089889,0.001064650843716541,0.46107000000000004,-0.94176,9.50589
4904040355,22.28,0.08948303074974927,0.15978489302008084,0.00958185759344887,-0.51993,-0.50031,9.65304
4909090860,22.28,0.07777187146886733,0.10759954838545042,0.002129301687433082,-1.2851100000000002,-0.21582,10.01601
4914141365,22.28,0.04260348704118158,0.006387905062299246,0.002129301687433082,-1.3341600000000002,0.0,9.81
4919191870,22.28,-0.03621558197888234,-0.1097288500728835,-0.002129301687433082,-0.9221400000000001,-0.35316,9.633420000000001
4924242375,22.28,-0.09374163412461543,-0.18961256993666398,-0.007452555906015787,0.0,-1.9129500000000002,9.68247
4929292880,22.28,-0.03408628029144926,-0.1331511686346474,-0.00958185759344887,1.16739,-0.95157,9.908100000000001
4934343385,22.28,0.07243116395776468,0.07243116395776468,0.0,0.9810000000000001,-1.21644,10.38879
4939393890,22.28,0.07243116395776468,0.1832246648743647,0.006387905062299246,0.1962,-0.50031,9.84924
4944444395,22.28,0.13955652698946658,0.1800307123432151,0.003193952531149623,-1.3243500000000001,0.009810000000000001,10.11411
4949494900,22.28,0.06497860805174888,0.03728023282259888,0.001064650843716541,-1.6775100000000003,0.0,9.73152
4954545405,22.28,-0.033021629447732716,-0.1352804703220805,-0.003193952531149623,-1.00062,-0.25506,9.57456
4959595910,22.28,-0.12037535851004891,-0.22156954854068012,-0.006387905062299246,-0.12753,-2.2955400000000004,9.98658
4964646415,22.28,-0.02769837522915001,-0.14062117783318315,-0.006387905062299246,1.03005,-0.84366,9.937529999999999
4969696920,22.28,0.07990117315630041,0.08841837990603273,0.001064650843716541,1.02024,-1.46169,10.29069
4974747425,22.28,0.09587093581204853,0.2354274628015151,0.008517206749732328,-0.18639,-0.12753,9.55494
4979797930,22.28,0.15339698795778162,0.1672549022186166,0.004258603374866164,-1.6480800000000002,0.41202000000000005,10.163160000000001
4984848435,22.28,0.03834488366631542,-0.033021629447732716,0.0,-1.5696,-0.10791,9.57456
4989898940,22.28,-0.0756251164889143,-0.15339698795778162,0.0,-0.74556,-0.6768900000000001,9.57456
4994949445,22.28,-0.13634512116579703,-0.21198769094723127,-0.006387905062299246,-0.27468000000000004,-2.11896,10.163160000000001
4999999950,22.28,0.033021629447732716,-0.06817256058289851,-0.006387905062299246,1.65789,-0.51993,9.623610000000001
5005050455,22.28,0.09480628496833199,0.14913838458291545,0.005323254218582705,0.33354000000000006,-1.20663,9.908100000000001
5010100960,22.28,0.12676326357234816,0.2428800187075309,0.008517206749732328,-0.85347,0.28449,9.54513
5015151465,22.28,0.1097288500728835,0.060720004676882725,0.001064650843716541,-1.6480800000000002,0.1962,10.182780000000001
5020201970,22.28,-0.012775810124598492,-0.09480628496833199,-0.002129301687433082,-0.9123300000000001,-0.32373,9.78057
5025252475,22.28,-0.09480628496833199,-0.1352804703220805,-0.003193952531149623,-0.41202000000000005,-1.75599,9.84924
5030302980,22.28,-0.07883652231258387,-0.15233233711406508,-0.006387905062299246,0.74556,-0.94176,10.074869999999999
5035353485,22.28,0.10866419922916695,0.024504422698000388,-0.001064650843716541,0.7749900000000001,-1.04967,10.11411
5040403990,22.28,0.07136651311404815,0.15765559133264778,0.006387905062299246,-0.16677000000000003,-0.24525000000000002,9.40779
5045454495,22.28,0.08948303074974927,0.10653489754173388,0.004258603374866164,-1.0791000000000002,-0.04905,10.09449
5050505000,22.28,0.03834488366631542,-0.039409534510031964,-0.004258603374866164,-0.75537,-0.20601000000000003,9.81
5055555505,22.28,-0.02982767691658309,-0.07777187146886733,0.0,-0.32373,-0.9908100000000001,9.7119
5060606010,22.28,-0.05752605214573309,-0.060720004676882725,0.0,-0.2943,-1.31454,9.937529999999999
5065656515,22.28,0.04794419455228423,-0.015987215948268057,-0.002129301687433082,-0.15696000000000002,-0.45126,9.82962
5070707020,22.28,0.08203047484373349,0.023439771854283843,0.0,0.039240000000000004,-0.2943,9.72171
5075757525,22.28,0.024504422698000388,0.03408628029144926,0.0,-0.06867000000000001,-0.71613,9.78057
5080808030,22.28,0.01811651763570114,0.01918116847941768,0.0,-0.49050000000000005,-0.60822,9.85905
5085858535,22.28,0.03621558197888234,-0.01918116847941768,-0.003193952531149623,-0.35316,-0.73575,9.908100000000001
5090909040,22.28,0.024504422698000388,0.01918116847941768,0.0,-0.21582,-0.6670800000000001,9.80019
5095959545,22.28,0.04581489286485115,0.02982767691658309,0.005323254218582705,-0.6867000000000001,-0.30411,9.82962
5101010050,22.28,0.028763026072866547,-0.05646140130201656,-0.004258603374866164,-0.31392000000000003,-0.44145,9.85905
5106060555,22.28,-0.001064650843716541,-0.0404741853537485,-0.002129301687433082,0.11772,-0.8240400000000001,9.82962
5111111060,22.28,-0.01064650843716541,-0.011711159280881954,-0.001064650843716541,-0.16677000000000003,-1.1772,9.95715
5116161565,22.28,0.05113814708343386,0.0170518667919846,-0.001064650843716541,-0.17658,-0.5591700000000001,9.89829
5121212070,22.28,0.10332349171806432,0.06284930636431581,0.003193952531149623,-0.32373,-0.10791,9.84924
5126262575,22.28,0.05007349623971732,0.03089232776029963,0.0,-0.48069000000000006,-0.42183,9.819809999999999
5131313080,22.28,0.008517206749732328,-0.015987215948268057,0.002129301687433082,-0.56898,-0.45126,9.760950000000001
5136363585,22.28,-0.004258603374866164,-0.06710790973918197,-0.004258603374866164,-0.25506,-0.9221400000000001,9.89829
5141414090,22.28,0.00958185759344887,-0.01064650843716541,-0.002129301687433082,0.009810000000000001,-0.8142300000000001,9.73152
5146464595,22.28,0.05326744877086694,0.03621558197888234,0.003193952531149623,-0.47088,-0.42183,9.68247
5151515100,22.28,0.05752605214573309,0.002129301687433082,0.0,-0.21582,-0.21582,9.68247
5156565605,22.28,0.039409534510031964,-0.002129301687433082,-0.001064650843716541,-0.06867000000000001,-0.60822,9.81
5161616110,22.28,-0.006387905062299246,-0.002129301687433082,0.0,-0.28449,-1.04967,9.87867
5166666615,22.28,0.03621558197888234,0.023439771854283843,0.003193952531149623,-0.3924,-0.51993,9.82962
5171717120,22.28,0.07349581480148122,0.023439771854283843,0.001064650843716541,-0.51012,-0.22563,9.85905
5176767625,22.28,0.03728023282259888,-0.006387905062299246,-0.002129301687433082,-0.3924,-0.34335000000000004,9.78057
5181818130,22.28,-0.006387905062299246,-0.04366813788489812,-0.002129301687433082,-0.25506,-0.7749900000000001,9.96696
5186868635,22.28,0.0,-0.04260348704118158,-0.002129301687433082,-0.039240000000000004,-0.9319500000000001,10.045440000000001
5191919140,22.28,0.03621558197888234,0.002129301687433082,0.0,-0.009810000000000001,-0.89271,9.96696
5196969645,22.28,0.07349581480148122,0.06710790973918197,0.003193952531149623,-0.26487,-0.34335000000000004,9.819809999999999
5202020150,22.28,0.08841837990603273,0.05113814708343386,0.001064650843716541,-0.56898,-0.039240000000000004,9.87867
5207070655,22.28,0.04260348704118158,-0.004258603374866164,-0.001064650843716541,-0.43164,-0.31392000000000003,9.67266
5212121160,22.28,-0.001064650843716541,-0.02663372438543347,0.0,-0.32373,-0.80442,9.67266
5217171665,22.28,0.001064650843716541,-0.0170518667919846,0.001064650843716541,-0.40221,-0.79461,9.79038
5222222170,22.28,0.04794419455228423,-0.020245819323134222,0.0,-0.33354000000000006,-0.20601000000000003,9.751140000000001
5227272675,22.28,0.05539675045830002,-0.012775810124598492,-0.001064650843716541,0.07848000000000001,-0.2943,9.633420000000001
5232323180,22.28,0.015987215948268057,0.004258603374866164,-0.003193952531149623,0.02943,-0.87309,9.751140000000001
5237373685,22.28,0.020245819323134222,0.03089232776029963,0.001064650843716541,-0.40221,-0.8142300000000001,9.95715
5242424190,22.28,0.06923721142661506,0.022375121010567305,0.0,-0.56898,-0.28449,10.006200000000002
5247474695,22.28,0.07136651311404815,0.023439771854283843,0.0,-0.50031,-0.07848000000000001,9.94734
5252525200,22.28,0.01918116847941768,-0.033021629447732716,-0.002129301687433082,-0.48069000000000006,-0.40221,9.888480000000001
5257575705,22.28,-0.01918116847941768,-0.07670722062515077,-0.003193952531149623,-0.06867000000000001,-1.00062,9.89829
5262626210,22.28,0.0,-0.03515093113516579,-0.004258603374866164,0.33354000000000006,-0.9908100000000001,10.025820000000001
5267676715,22.28,0.0756251164889143,0.06923721142661506,0.006387905062299246,-0.14715,-0.57879,9.89829
5272727220,22.28,0.10653489754173388,0.07349581480148122,0.005323254218582705,-0.46107000000000004,0.10791,9.55494
5277777725,22.28,0.08203047484373349,0.03621558197888234,0.0,-0.57879,0.039240000000000004,9.623610000000001
5282828230,22.28,0.005323254218582705,-0.03089232776029963,-0.001064650843716541,-0.5591700000000001,-0.72594,9.770760000000001
5287878735,22.28,-0.023439771854283843,-0.03515093113516579,-0.001064650843716541,-0.50031,-0.7749900000000001,9.68247
5292929240,22.28,0.02769837522915001,-0.044732788728614664,-0.002129301687433082,-0.35316,-0.41202000000000005,9.819809999999999
5297979745,22.28,0.03728023282259888,-0.04366813788489812,0.0,0.02943,-0.41202000000000005,9.80019
5303030250,22.28,0.023439771854283843,-0.012775810124598492,0.0,0.31392000000000003,-0.84366,9.908100000000001
5308080755,22.28,0.031956978604016174,0.04581489286485115,0.004258603374866164,-0.07848000000000001,-0.89271,10.06506
5313131260,22.28,0.09054768159346581,0.08415977653116657,0.001064650843716541,-0.46107000000000004,-0.35316,10.1043
5318181765,22.28,0.1097288500728835,0.07243116395776468,0.003193952531149623,-1.01043,0.30411,9.82962
5323232270,22.28,0.04260348704118158,-0.039409534510031964,-0.003193952531149623,-0.5886,0.009810000000000001,9.84924
5328282775,22.28,-0.021310470166850764,-0.09587093581204853,-0.004258603374866164,-0.20601000000000003,-0.87309,9.751140000000001
5333333280,22.28,-0.039409534510031964,-0.05965535383316618,0.0,-0.05886,-1.22625,9.7119
5338383785,22.28,0.046879543708567686,-0.002129301687433082,0.001064650843716541,-0.18639,-0.48069000000000006,9.770760000000001
5343434290,22.28,0.11079350091660004,0.049008845396000776,0.004258603374866164,0.08829,0.12753,9.73152
5348484795,22.28,0.08415977653116657,0.05539675045830002,0.003193952531149623,-0.14715,-0.31392000000000003,9.7119
5353535300,22.28,0.013840460968315033,0.04366813788489812,0.001064650843716541,-0.5886,-0.57879,9.72171
5358585805,22.28,0.03621558197888234,-0.006387905062299246,0.0,-0.84366,-0.36297,10.006200000000002
5363636310,22.28,0.049008845396000776,-0.03621558197888234,-0.004258603374866164,-0.47088,-0.21582,9.908100000000001
5368686815,22.28,0.01811651763570114,-0.04260348704118158,-0.001064650843716541,-0.17658,-0.42183,9.86886
5373737320,22.28,0.001064650843716541,-0.05007349623971732,-0.002129301687433082,-0.07848000000000001,-0.6867000000000001,9.99639
5378787825,22.28,0.028763026072866547,-0.023439771854283843,-0.002129301687433082,0.1962,-0.8142300000000001,9.94734
5383838330,22.28,0.06817256058289851,0.060720004676882725,0.003193952531149623,-0.02943,-0.48069000000000006,9.89829
5388888835,22.28,0.09374163412461543,0.0756251164889143,0.001064650843716541,-0.5591700000000001,0.0981,9.770760000000001
5393939340,22.28,0.08735372906231618,0.0170518667919846,-0.001064650843716541,-0.57879,0.17658,9.56475
5398989845,22.28,0.015987215948268057,-0.02556907354171693,-0.001064650843716541,-0.28449,-0.52974,9.623610000000001
5404040350,22.28,-0.022375121010567305,-0.03089232776029963,-0.004258603374866164,-0.41202000000000005,-0.9613800000000001,9.91791
5409090855,22.28,0.028763026072866547,-0.021310470166850764,-0.002129301687433082,-0.50031,-0.35316,9.86886
5414141360,22.28,0.07349581480148122,-0.02663372438543347,0.0,-0.06867000000000001,-0.02943,9.770760000000001
5419191865,22.28,0.04153883619746504,-0.002129301687433082,0.0,0.14715,-0.51012,9.84924
5424242370,22.28,0.011711159280881954,0.02663372438543347,0.0,-0.27468000000000004,-0.8142300000000001,9.96696
5429292875,22.28,0.054332099614583476,0.02556907354171693,0.0,-0.48069000000000006,-0.2943,9.95715
5434343380,22.28,0.09480628496833199,0.028763026072866547,0.0,-0.42183,0.039240000000000004,9.83943
5439393885,22.28,0.04581489286485115,0.004258603374866164,0.0,-0.51012,-0.15696000000000002,9.7119
5444444390,22.28,0.002129301687433082,-0.04581489286485115,-0.003193952531149623,-0.33354000000000006,-0.46107000000000004,9.770760000000001
5449494895,22.28,0.005323254218582705,-0.04794419455228423,-0.003193952531149623,-0.009810000000000001,-0.6867000000000001,9.84924
5454545400,22.28,0.04260348704118158,0.01918116847941768,0.001064650843716541,-0.15696000000000002,-0.6278400000000001,9.819809999999999
5459595905,22.28,0.06178465552059926,0.0404741853537485,0.001064650843716541,-0.45126,0.009810000000000001,9.770760000000001
5464646410,22.28,0.0852244273748831,-0.001064650843716541,0.0,-0.32373,0.11772,9.87867
5469696915,22.28,0.02556907354171693,-0.024504422698000388,-0.002129301687433082,-0.039240000000000004,-0.72594,9.87867
5474747420,22.28,-0.003193952531149623,0.01811651763570114,-0.001064650843716541,-0.36297,-0.72594,9.888480000000001
5479797925,22.28,0.05859070298944965,0.011711159280881954,0.0,-0.65727,-0.10791,9.96696
5484848430,22.28,0.08415977653116657,-0.011711159280881954,-0.002129301687433082,-0.24525000000000002,0.0981,9.760950000000001
5489898935,22.28,0.03089232776029963,-0.004258603374866164,0.004258603374866164,-0.12753,-0.33354000000000006,9.623610000000001
5494949440,22.28,-0.001064650843716541,-0.0170518667919846,-0.003193952531149623,-0.28449,-0.6867000000000001,9.86886
5499999945,22.28,0.044732788728614664,0.0,0.0,-0.23544,-0.41202000000000005,9.84924
5505050450,22.28,0.07349581480148122,0.03408628029144926,0.004258603374866164,-0.36297,-0.17658,9.751140000000001
5510100955,22.28,0.05859070298944965,0.021310470166850764,0.002129301687433082,-0.51012,0.039240000000000004,9.78057
5515151460,22.28,0.03515093113516579,-0.03728023282259888,-0.003193952531149623,-0.37278,-0.28449,9.888480000000001
5520201965,22.28,0.011711159280881954,-0.03089232776029963,-0.003193952531149623,-0.10791,-0.6867000000000001,9.86886
5525252470,22.28,0.024504422698000388,0.020245819323134222,0.0,-0.24525000000000002,-0.51993,9.94734
5530302975,22.28,0.07243116395776468,0.0170518667919846,0.0,-0.52974,0.039240000000000004,9.91791
5535353480,22.28,0.07990117315630041,-0.003193952531149623,0.002129301687433082,-0.21582,0.12753,9.68247
5540403985,22.28,0.020245819323134222,-0.006387905062299246,-0.003193952531149623,-0.08829,-0.45126,9.7119
5545454490,22.28,-0.001064650843716541,-0.002129301687433082,0.0,-0.42183,-0.7749900000000001,9.83943
5550504995,22.28,0.05646140130201656,0.014905111812031574,0.0,-0.40221,-0.0981,9.79038
5555555500,22.28,0.08415977653116657,0.020245819323134222,0.002129301687433082,-0.36297,0.08829,9.819809999999999
5560606005,22.28,0.033021629447732716,-0.007452555906015787,0.0,-0.38259000000000004,-0.17658,9.760950000000001
5565656510,22.28,0.00958185759344887,-0.03834488366631542,0.0,-0.2943,-0.44145,9.83943
5570707015,22.28,0.020245819323134222,-0.02769837522915001,0.0,-0.07848000000000001,-0.64746,10.01601
5575757520,22.28,0.05113814708343386,0.02663372438543347,0.0,-0.16677000000000003,-0.37278,9.99639
5580808025,22.28,0.08096582400001695,0.04581489286485115,0.007452555906015787,-0.50031,0.15696000000000002,9.78057
5585858530,22.28,0.07243116395776468,0.004258603374866164,-0.002129301687433082,-0.37278,0.14715,9.760950000000001
5590909035,22.28,0.006387905062299246,-0.033021629447732716,-0.004258603374866164,-0.18639,-0.51993,9.79038
5595959540,22.28,0.0,-0.00958185759344887,-0.001064650843716541,-0.33354000000000006,-0.5886,9.751140000000001
5601010045,22.28,0.05752605214573309,0.014905111812031574,0.001064650843716541,-0.37278,-0.13734000000000002,9.79038
5606060550,22.28,0.07456046564519776,0.021310470166850764,0.0,-0.34335000000000004,0.06867000000000001,9.819809999999999
5611111055,22.28,0.05326744877086694,0.007452555906015787,0.003193952531149623,-0.48069000000000006,0.05886,9.70209
5616161560,22.28,0.007452555906015787,-0.04794419455228423,-0.001064650843716541,-0.28449,-0.33354000000000006,9.87867
5621212065,22.28,0.002129301687433082,-0.04366813788489812,-0.004258603374866164,-0.02943,-0.6867000000000001,9.94734
5626262570,22.28,0.04153883619746504,0.021310470166850764,0.002129301687433082,-0.1962,-0.47088,9.82962
5631313075,22.28,0.08203047484373349,0.04260348704118158,0.0,-0.42183,0.16677000000000003,9.86886
5636363580,22.28,0.07883652231258387,0.012775810124598492,0.0,-0.38259000000000004,0.18639,9.85905
5641414085,22.28,0.02556907354171693,-0.00958185759344887,0.001064650843716541,-0.30411,-0.23544,9.69228
5646464590,22.28,0.002129301687433082,-0.02556907354171693,0.0,-0.35316,-0.5493600000000001,9.760950000000001
5651515095,22.28,0.03408628029144926,-0.00958185759344887,0.0,-0.26487,-0.35316,9.83943
5656565600,22.28,0.07243116395776468,0.03515093113516579,0.0,-0.42183,0.02943,9.770760000000001
5661616105,22.28,0.06710790973918197,0.01811651763570114,0.001064650843716541,-0.5493600000000001,0.16677000000000003,9.79038
5666666610,22.28,0.02982767691658309,-0.03728023282259888,0.0,-0.30411,-0.16677000000000003,9.91791
5671717115,22.28,0.001064650843716541,-0.04366813788489812,-0.001064650843716541,-0.12753,-0.5493600000000001,9.937529999999999
5676767620,22.28,0.02769837522915001,-0.003193952531149623,0.0,-0.12753,-0.48069000000000006,9.91791
5681818125,22.28,0.06604325889546543,0.02982767691658309,-0.002129301687433082,-0.1962,-0.08829,9.86886
5686868630,22.28,0.09587093581204853,0.060720004676882725,0.003193952531149623,-0.46107000000000004,0.27468000000000004,9.74133
5691919135,22.28,0.05326744877086694,0.011711159280881954,0.001064650843716541,-0.59841,0.17658,9.70209
5696969640,22.28,0.0,-0.04794419455228423,-0.005323254218582705,-0.34335000000000004,-0.28449,9.760950000000001
5702020145,22.28,0.001064650843716541,-0.03408628029144926,-0.003193952531149623,-0.22563,-0.56898,9.79038
5707070650,22.28,0.031956978604016174,0.005323254218582705,0.001064650843716541,-0.25506,-0.34335000000000004,9.84924
5712121155,22.28,0.0852244273748831,0.03621558197888234,0.004258603374866164,-0.45126,0.16677000000000003,9.86886
5717171660,22.28,0.07456046564519776,0.021310470166850764,0.001064650843716541,-0.45126,0.1962,9.85905
5722222165,22.28,0.021310470166850764,-0.023439771854283843,-0.004258603374866164,-0.38259000000000004,-0.0981,9.888480000000001
5727272670,22.28,-0.004258603374866164,-0.05220279792715039,0.0,-0.21582,-0.52974,9.96696
5732323175,22.28,0.022375121010567305,-0.014905111812031574,-0.003193952531149623,-0.039240000000000004,-0.48069000000000006,9.86886
5737373680,22.28,0.07883652231258387,0.05646140130201656,0.001064650843716541,-0.31392000000000003,0.0,9.78057
5742424185,22.28,0.09161233243718235,0.05326744877086694,0.005323254218582705,-0.56898,0.42183,9.7119
5747474690,22.28,0.06284930636431581,0.005323254218582705,0.002129301687433082,-0.5493600000000001,0.28449,9.64323
5752525195,22.28,-0.001064650843716541,-0.04581489286485115,-0.003193952531149623,-0.47088,-0.13734000000000002,9.70209
5757575700,22.28,-0.03834488366631542,-0.09906488834319814,-0.004258603374866164,-0.14715,-0.49050000000000005,9.819809999999999
5762626205,22.28,0.004258603374866164,-0.06604325889546543,-0.004258603374866164,0.30411,-0.6180300000000001,9.86886
5767676710,22.28,0.06604325889546543,0.05965535383316618,-0.001064650843716541,0.2943,-0.35316,9.888480000000001
5772727215,22.28,0.11824605682261582,0.1352804703220805,0.005323254218582705,-0.5395500000000001,0.24525000000000002,9.89829
5777777720,22.28,0.10545279340549739,0.08841837990603273,0.002129301687433082,-1.16739,0.80442,9.79038
5782828225,22.28,0.03834488366631542,-0.02982767691658309,-0.001064650843716541,-0.9908100000000001,0.1962,9.819809999999999
5787878730,22.28,-0.03408628029144926,-0.10438814256178083,-0.004258603374866164,-0.40221,-0.38259000000000004,9.85905
5792929235,22.28,-0.05326744877086694,-0.10225884087434776,-0.002129301687433082,-0.16677000000000003,-0.7848,10.01601
5797979740,22.28,0.03515093113516579,-0.03621558197888234,-0.002129301687433082,0.25506,-0.22563,9.770760000000001
5803030245,22.28,0.09800023749948161,0.06710790973918197,0.0,0.20601000000000003,0.10791,9.72171
5808080750,22.28,0.08309512568745003,0.10545279340549739,0.004258603374866164,-0.45126,0.20601000000000003,9.73152
5813131255,22.28,0.05859070298944965,0.0404741853537485,0.002129301687433082,-0.8338500000000001,0.41202000000000005,9.760950000000001
5818181760,22.28,0.03515093113516579,-0.0404741853537485,0.003193952531149623,-0.5395500000000001,0.0981,9.80019
5823232265,22.28,-0.01811651763570114,-0.06178465552059926,-0.004258603374866164,-0.18639,-0.51012,9.70209
5828282770,22.28,0.002129301687433082,-0.021310470166850764,-0.001064650843716541,-0.22563,-0.44145,9.95715
5833333275,22.28,0.07883652231258387,0.03728023282259888,0.001064650843716541,-0.26487,0.08829,9.87867
5838383780,22.28,0.07777187146886733,0.049008845396000776,0.002129301687433082,-0.43164,0.26487,9.82962
5843434285,22.28,0.03834488366631542,0.013840460968315033,0.003193952531149623,-0.5395500000000001,0.20601000000000003,9.84924
5848484790,22.28,0.005323254218582705,-0.05007349623971732,-0.002129301687433082,-0.42183,-0.009810000000000001,9.908100000000001
5853535295,22.28,-0.011711159280881954,-0.07456046564519776,-0.004258603374866164,0.04905,-0.38259000000000004,9.81
5858585800,22.28,0.008517206749732328,-0.008517206749732328,-0.002129301687433082,0.15696000000000002,-0.37278,9.66285
5863636305,22.28,0.07030186227033158,0.05965535383316618,0.0,-0.0981,-0.10791,9.79038
5868686810,22.28,0.09693558665576507,0.08841837990603273,0.002129301687433082,-0.56898,0.35316,9.82962
5873737315,22.28,0.07990117315630041,0.06604325889546543,0.003193952531149623,-0.95157,0.46107000000000004,9.87867
5878787820,22.28,0.0170518667919846,-0.03834488366631542,0.002129301687433082,-0.87309,0.32373,9.7119
5883838325,22.28,-0.02982767691658309,-0.12356931104119852,-0.001064650843716541,-0.35316,-0.20601000000000003,9.91791
5888888830,22.28,-0.03834488366631542,-0.12037535851004891,-0.003193952531149623,0.36297,-0.63765,9.86886
5893939335,22.28,0.014905111812031574,-0.007452555906015787,-0.001064650843716541,0.51993,-0.5493600000000001,9.819809999999999
5898989840,22.28,0.09161233243718235,0.09374163412461543,0.002129301687433082,0.13734000000000002,-0.10791,9.78057
5904040345,22.28,0.13849187614575004,0.16617279808238014,0.003193952531149623,-0.59841,0.74556,9.74133
5909090850,22.28,0.10438814256178083,0.10653489754173388,0.003193952531149623,-1.3047300000000002,0.44145,9.84924
5914141355,22.28,0.006387905062299246,-0.01811651763570114,0.0,-1.29492,0.51012,9.58437
5919191860,22.28,-0.039409534510031964,-0.13849187614575004,-0.003193952531149623,-0.71613,0.009810000000000001,9.72171
5924242365,22.28,-0.07883652231258387,-0.17896606149949854,-0.003193952531149623,0.07848000000000001,-0.90252,9.86886
5929292870,22.28,-0.044732788728614664,-0.1097288500728835,-0.003193952531149623,1.1772,-0.52974,10.13373
5934343375,22.28,0.08841837990603273,0.05752605214573309,0.001064650843716541,0.6670800000000001,-0.31392000000000003,10.074869999999999
5939393880,22.28,0.12995721610349775,0.17683675981206545,0.003193952531149623,0.11772,0.43164,9.45684
5944444385,22.28,0.1352804703220805,0.18961256993666398,0.004258603374866164,-1.22625,0.6670800000000001,9.908100000000001
5949494890,22.28,0.07136651311404815,0.05646140130201656,0.002129301687433082,-1.5696,0.59841,9.73152
5954545395,22.28,0.001064650843716541,-0.08841837990603273,0.0,-1.2753,0.46107000000000004,9.623610000000001
5959595900,22.28,-0.07030186227033158,-0.17364280728091586,-0.008517206749732328,-0.34335000000000004,-0.30411,9.67266
5964646405,22.28,-0.07349581480148122,-0.14913838458291545,-0.005323254218582705,0.26487,-0.8338500000000001,9.78057
5969696910,22.28,-0.004258603374866164,-0.05539675045830002,-0.002129301687433082,1.05948,-0.27468000000000004,10.025820000000001
5974747415,22.28,0.07990117315630041,0.06391395720803235,0.001064650843716541,0.8142300000000001,-0.13734000000000002,9.92772
5979797920,22.28,0.12463396188491506,0.17257815643719931,0.006387905062299246,0.009810000000000001,0.41202000000000005,9.5157
5984848425,22.28,0.09480628496833199,0.15446163880149816,0.002129301687433082,-1.15758,0.42183,9.79038
5989898930,22.28,0.06284930636431581,0.023439771854283843,0.002129301687433082,-1.39302,0.41202000000000005,9.83943
5994949435,22.28,0.0,-0.06497860805174888,-0.001064650843716541,-1.08891,0.25506,9.85905
5999999940,22.28,-0.04153883619746504,-0.11931070766633237,-0.003193952531149623,-0.5395500000000001,-0.21582,9.87867
6005050445,22.28,-0.04366813788489812,-0.11185815176031658,-0.001064650843716541,0.009810000000000001,-0.42183,9.94734
6010100950,22.28,0.01064650843716541,-0.04366813788489812,-0.004258603374866164,0.46107000000000004,-0.12753,9.888480000000001
6015151455,22.28,0.05646140130201656,0.03728023282259888,0.0,0.37278,-0.04905,9.87867
6020201960,22.28,0.07990117315630041,0.09906488834319814,0.003193952531149623,0.019620000000000002,0.30411,9.67266
6025252465,22.28,0.0852244273748831,0.0852244273748831,0.001064650843716541,-0.56898,0.3924,9.68247
6030302970,22.28,0.039409534510031964,0.03408628029144926,0.0,-0.75537,0.20601000000000003,9.760950000000001
6035353475,22.28,0.011711159280881954,-0.020245819323134222,0.0,-0.7651800000000001,0.2943,9.69228
6040403980,22.28,0.0,-0.05646140130201656,0.0,-0.52974,-0.039240000000000004,9.72171
6045454485,22.28,-0.008517206749732328,-0.04260348704118158,-0.004258603374866164,-0.1962,0.02943,9.67266
6050504990,22.28,0.011711159280881954,-0.023439771854283843,0.0,-0.15696000000000002,-0.1962,9.82962
6055555495,22.28,0.02663372438543347,0.014905111812031574,0.001064650843716541,-0.07848000000000001,0.039240000000000004,9.80019
6060606000,22.28,0.05965535383316618,0.046879543708567686,0.002129301687433082,-0.42183,0.27468000000000004,9.94734
6065656505,22.28,0.03728023282259888,0.013840460968315033,0.0,-0.43164,0.0981,9.937529999999999
6070707010,22.28,0.02769837522915001,0.011711159280881954,0.003193952531149623,-0.47088,0.27468000000000004,9.92772
6075757515,22.28,0.006387905062299246,-0.03621558197888234,-0.003193952531149623,-0.48069000000000006,0.0,9.96696
6080808020,22.28,-0.001064650843716541,-0.04153883619746504,-0.002129301687433082,-0.06867000000000001,0.019620000000000002,9.80019
6085858525,22.28,0.024504422698000388,-0.005323254218582705,0.001064650843716541,-0.15696000000000002,0.0,9.81
6090909030,22.28,0.02769837522915001,0.001064650843716541,0.0,-0.039240000000000004,0.019620000000000002,9.78057
6095959535,22.28,0.049008845396000776,0.04581489286485115,0.001064650843716541,-0.16677000000000003,0.32373,9.7119
6101010040,22.28,0.04794419455228423,0.03728023282259888,0.0,-0.46107000000000004,0.28449,9.64323
6106060545,22.28,0.021310470166850764,0.013840460968315033,-0.001064650843716541,-0.47088,0.17658,9.60399
6111111050,22.28,0.006387905062299246,-0.001064650843716541,0.0,-0.65727,0.21582,9.74133
6116161555,22.28,0.01064650843716541,-0.04581489286485115,0.001064650843716541,-0.38259000000000004,0.07848000000000001,9.819809999999999
6121212060,22.28,0.006387905062299246,-0.02769837522915001,-0.001064650843716541,-0.0981,-0.009810000000000001,9.819809999999999
6126262565,22.28,0.014905111812031574,0.005323254218582705,0.002129301687433082,-0.28449,0.06867000000000001,9.908100000000001
6131313070,22.28,0.024504422698000388,-0.003193952531149623,-0.003193952531149623,-0.14715,0.019620000000000002,9.89829
6136363575,22.28,0.03728023282259888,0.03621558197888234,0.001064650843716541,-0.26487,0.1962,9.888480000000001
6141414080,22.28,0.03515093113516579,0.023439771854283843,0.002129301687433082,-0.5493600000000001,0.21582,9.91791
6146464585,22.28,0.021310470166850764,-0.012775810124598492,-0.001064650843716541,-0.42183,0.23544,9.86886
6151515090,22.28,0.00958185759344887,-0.02556907354171693,0.0,-0.35316,0.009810000000000001,9.84924
6156565595,22.28,-0.001064650843716541,-0.01918116847941768,0.001064650843716541,-0.16677000000000003,0.0,9.908100000000001
6161616100,22.28,0.03089232776029963,0.006387905062299246,-0.001064650843716541,-0.17658,0.14715,9.760950000000001
6166666605,22.28,0.04366813788489812,0.02556907354171693,0.001064650843716541,-0.31392000000000003,0.22563,9.69228
6171717110,22.28,0.02663372438543347,0.02556907354171693,-0.001064650843716541,-0.45126,0.32373,9.67266
6176767615,22.28,0.021310470166850764,-0.006387905062299246,0.0,-0.48069000000000006,0.33354000000000006,9.78057
6181818120,22.28,0.00958185759344887,-0.02982767691658309,-0.001064650843716541,-0.23544,0.02943,9.751140000000001
6186868625,22.28,-0.011711159280881954,-0.015987215948268057,0.0,-0.15696000000000002,-0.0981,9.73152
6191919130,22.28,0.020245819323134222,0.001064650843716541,0.001064650843716541,-0.34335000000000004,0.28449,9.82962
6196969635,22.28,0.05007349623971732,0.003193952531149623,0.0,-0.13734000000000002,0.27468000000000004,9.80019
6202020140,22.28,0.020245819323134222,0.039409534510031964,0.002129301687433082,-0.33354000000000006,0.13734000000000002,9.770760000000001
6207070645,22.28,0.011711159280881954,0.0170518667919846,0.003193952531149623,-0.73575,0.23544,9.84924
6212121150,22.28,0.02556907354171693,-0.0404741853537485,-0.001064650843716541,-0.42183,0.3924,9.82962
6217171655,22.28,0.00958185759344887,-0.02769837522915001,0.0,0.009810000000000001,0.07848000000000001,9.74133
6222222160,22.28,-0.021310470166850764,0.002129301687433082,0.0,-0.26487,-0.21582,9.81
6227272665,22.28,0.015987215948268057,-0.002129301687433082,-0.002129301687433082,-0.3924,0.27468000000000004,9.82962
6232323170,22.28,0.05646140130201656,0.005323254218582705,0.0,-0.10791,0.43164,9.84924
6237373675,22.28,0.01811651763570114,0.0404741853537485,0.002129301687433082,-0.23544,0.15696000000000002,9.65304
6242424180,22.28,-0.003193952531149623,0.028763026072866547,0.001064650843716541,-0.6670800000000001,0.14715,9.70209
6247474685,22.28,0.00958185759344887,-0.03621558197888234,-0.003193952531149623,-0.5395500000000001,0.20601000000000003,9.819809999999999
6252525190,22.28,0.0,-0.04581489286485115,-0.001064650843716541,-0.11772,0.039240000000000004,9.91791
6257575695,22.28,0.002129301687433082,0.008517206749732328,-0.001064650843716541,-0.15696000000000002,0.0981,9.91791
6262626200,22.28,0.01918116847941768,0.008517206749732328,0.0,-0.28449,0.17658,9.84924
6267676705,22.28,0.024504422698000388,0.00958185759344887,0.0,-0.20601000000000003,0.18639,9.85905
6272727210,22.28,0.013840460968315033,0.005323254218582705,0.0,-0.35316,0.0981,9.908100000000001
6277777715,22.28,0.013840460968315033,-0.005323254218582705,0.0,-0.2943,0.23544,9.87867
6282828220,22.28,0.028763026072866547,0.012775810124598492,0.0,-0.2943,0.30411,9.751140000000001
6287878725,22.28,0.01064650843716541,0.013840460968315033,0.0,-0.41202000000000005,0.08829,9.69228
6292929230,22.28,0.001064650843716541,-0.004258603374866164,0.0,-0.48069000000000006,0.16677000000000003,9.751140000000001
6297979735,22.28,0.0170518667919846,-0.013840460968315033,0.0,-0.32373,0.0981,9.937529999999999
6303030240,22.28,0.020245819323134222,0.014905111812031574,0.0,-0.33354000000000006,0.0981,9.83943
6308080745,22.28,0.022375121010567305,0.04260348704118158,0.0,-0.6867000000000001,0.28449,9.85905
6313131250,22.28,0.028763026072866547,-0.002129301687433082,0.0,-0.74556,0.6768900000000001,9.80019
6318181755,22.28,0.002129301687433082,-0.05326744877086694,0.0,-0.1962,0.23544,9.633420000000001
6323232260,22.28,-0.0404741853537485,-0.02769837522915001,0.0,-0.12753,-0.0981,9.633420000000001
6328282765,22.28,-0.03089232776029963,-0.033021629447732716,0.0,-0.25506,-0.08829,9.84924
6333333270,22.28,0.024504422698000388,-0.02769837522915001,0.0,0.17658,0.32373,9.86886
6338383775,22.28,0.04153883619746504,0.03621558197888234,0.0,0.26487,0.0981,9.79038
6343434280,22.28,0.013840460968315033,0.09161233243718235,0.0,-0.32373,0.13734000000000002,9.73152
6348484785,22.28,0.03728023282259888,0.06178465552059926,0.0,-0.94176,0.6768900000000001,9.751140000000001
6353535290,22.28,0.02982767691658309,-0.0170518667919846,0.0,-0.84366,0.56898,9.72171
6358585795,22.28,-0.031956978604016174,-0.05539675045830002,0.0,-0.32373,0.05886,9.69228
6363636300,22.28,-0.05220279792715039,-0.04794419455228423,0.0,-0.36297,-0.22563,9.908100000000001
6368686805,22.28,-0.007452555906015787,-0.04366813788489812,0.0,-0.13734000000000002,0.07848000000000001,9.91791
6373737310,22.28,0.02663372438543347,-0.005323254218582705,0.0,0.11772,0.18639,9.95715
6378787815,22.28,0.015987215948268057,0.03834488366631542,0.0,-0.019620000000000002,0.039240000000000004,9.91791
6383838320,22.28,0.02769837522915001,0.05752605214573309,0.0,-0.42183,0.22563,9.908100000000001
6388888825,22.28,0.028763026072866547,0.03621558197888234,0.0,-0.74556,0.47088,9.888480000000001
6393939330,22.28,0.00958185759344887,-0.012775810124598492,0.0,-0.56898,0.3924,9.72171
6398989835,22.28,-0.015987215948268057,-0.02769837522915001,0.0,-0.40221,0.13734000000000002,9.68247
6404040340,22.28,-0.023439771854283843,-0.028763026072866547,0.0,-0.36297,0.05886,9.770760000000001
6409090845,22.28,-0.006387905062299246,-0.023439771854283843,0.0,-0.15696000000000002,0.12753,9.72171
6414141350,22.28,0.021310470166850764,0.015987215948268057,0.0,-0.11772,0.33354000000000006,9.67266
6419191855,22.28,0.00958185759344887,0.022375121010567305,0.0,-0.24525000000000002,0.16677000000000003,9.760950000000001
6424242360,22.28,0.007452555906015787,0.028763026072866547,0.0,-0.42183,0.2943,9.78057
6429292865,22.28,0.002129301687433082,0.007452555906015787,0.0,-0.60822,0.28449,9.78057
6434343370,22.28,-0.001064650843716541,-0.021310470166850764,0.0,-0.46107000000000004,0.26487,9.81
6439393875,22.28,-0.01918116847941768,-0.03515093113516579,0.0,-0.2943,0.019620000000000002,9.91791
6444444380,22.28,-0.015987215948268057,-0.0170518667919846,0.0,-0.1962,0.05886,9.937529999999999
6449494885,22.28,0.005323254218582705,-0.00958185759344887,0.0,-0.15696000000000002,0.20601000000000003,9.937529999999999
6454545390,22.28,0.007452555906015787,0.0,0.0,0.019620000000000002,0.18639,9.84924
6459595895,22.28,0.0170518667919846,0.033021629447732716,0.0,-0.18639,0.13734000000000002,9.86886
6464646400,22.28,0.00958185759344887,0.03408628029144926,0.0,-0.41202000000000005,0.23544,9.83943
6469696905,22.28,0.02556907354171693,0.021310470166850764,0.0,-0.5395500000000001,0.46107000000000004,9.73152
6474747410,22.28,0.006387905062299246,0.003193952531149623,0.0,-0.5493600000000001,0.25506,9.70209
6479797915,22.28,-0.013840460968315033,-0.013840460968315033,0.0,-0.52974,0.18639,9.74133
6484848420,22.28,-0.01918116847941768,-0.03089232776029963,0.0,-0.42183,0.14715,9.82962
6489898925,22.28,0.0,-0.01811651763570114,0.0,-0.18639,0.27468000000000004,9.74133
6494949430,22.28,-0.002129301687433082,0.003193952531149623,0.0,-0.17658,0.20601000000000003,9.72171
6499999935,22.28,-0.013840460968315033,0.0,0.0,-0.22563,0.15696000000000002,9.80019
6505050440,22.28,0.00958185759344887,0.007452555906015787,0.0,-0.30411,0.30411,9.78057
6510100945,22.28,-0.00958185759344887,-0.00958185759344887,0.0,-0.1962,0.20601000000000003,9.819809999999999
6515151450,22.28,-0.01064650843716541,-0.006387905062299246,0.0,-0.14715,0.08829,9.73152
6520201955,22.28,-0.007452555906015787,0.011711159280881954,0.0,-0.24525000000000002,0.08829,9.84924
6525252460,22.28,0.008517206749732328,0.022375121010567305,0.0,-0.36297,0.28449,9.83943
6530302965,22.28,0.011711159280881954,0.031956978604016174,0.0,-0.48069000000000006,0.35316,9.770760000000001
6535353470,22.28,0.005323254218582705,0.024504422698000388,0.0,-0.64746,0.38259000000000004,9.69228
6540403975,22.28,-0.022375121010567305,-0.021310470166850764,0.0,-0.6768900000000001,0.17658,9.760950000000001
6545454480,22.28,-0.03089232776029963,-0.046879543708567686,0.0,-0.3924,0.15696000000000002,9.888480000000001
6550504985,22.28,-0.02769837522915001,-0.049008845396000776,0.0,-0.1962,0.04905,9.97677
6555555490,22.28,-0.028763026072866547,-0.03621558197888234,0.0,0.0981,0.009810000000000001,10.01601
6560605995,22.28,-0.008517206749732328,-0.001064650843716541,0.0,0.17658,-0.05886,9.97677
6565656500,22.28,0.01811651763570114,0.05220279792715039,0.0,-0.04905,0.21582,9.82962
6570707005,22.28,0.03621558197888234,0.06923721142661506,0.0,-0.37278,0.47088,9.68247
6575757510,22.28,0.01918116847941768,0.05752605214573309,0.0,-0.69651,0.46107000000000004,9.56475
6580808015,22.28,-0.002129301687433082,0.02663372438543347,0.0,-1.06929,0.38259000000000004,9.59418
6585858520,22.28,-0.03408628029144926,-0.046879543708567686,0.0,-0.87309,0.2943,9.69228
6590909025,22.28,-0.05113814708343386,-0.08628907821859966,0.0,-0.38259000000000004,0.24525000000000002,9.81
6595959530,22.28,-0.05965535383316618,-0.08948303074974927,0.0,0.05886,-0.0981,9.89829
6601010035,22.28,-0.04581489286485115,-0.05539675045830002,0.0,0.42183,-0.18639,9.89829
6606060540,22.28,-0.002129301687433082,0.022375121010567305,0.0,0.3924,-0.10791,9.937529999999999
6611111045,22.28,0.04366813788489812,0.1097288500728835,0.0,-0.039240000000000004,0.25506,9.86886
6616161550,22.28,0.05539675045830002,0.12569861272863161,0.0,-0.79461,0.42183,9.82962
6621212055,22.28,0.02769837522915001,0.05752605214573309,0.0,-1.22625,0.59841,9.74133
6626262560,22.28,-0.012775810124598492,-0.031956978604016174,0.0,-1.13796,0.5493600000000001,9.82962
6631313065,22.28,-0.06923721142661506,-0.11398745344774965,0.0,-0.5493600000000001,0.22563,9.760950000000001
6636363570,22.28,-0.09480628496833199,-0.12995721610349775,0.0,0.12753,-0.25506,9.770760000000001
6641414075,22.28,-0.07243116395776468,-0.08096582400001695,0.0,0.63765,-0.3924,9.78057
6646464580,22.28,-0.004258603374866164,0.021310470166850764,0.0,0.6867000000000001,-0.23544,9.85905
6651515085,22.28,0.06497860805174888,0.13421581947836395,0.0,0.13734000000000002,0.33354000000000006,9.73152
6656565590,22.28,0.10012953918691468,0.17896606149949854,0.004258603374866164,-0.84366,0.80442,9.64323
6661616095,22.28,0.03408628029144926,0.08309512568745003,0.002129301687433082,-1.6382700000000001,0.59841,9.69228
6666666600,22.28,-0.05220279792715039,-0.05646140130201656,-0.001064650843716541,-1.3734000000000002,0.5395500000000001,9.85905
6671717105,22.28,-0.1097288500728835,-0.18535396656179778,-0.002129301687433082,-0.59841,-0.019620000000000002,10.163160000000001
6676767610,22.28,-0.12569861272863161,-0.19067722078038052,-0.004258603374866164,0.57879,-0.69651,9.98658
6681818115,22.28,-0.07243116395776468,-0.060720004676882725,-0.003193952531149623,1.3832099999999998,-0.5395500000000001,9.82962
6686868620,22.28,0.04153883619746504,0.12463396188491506,0.002129301687433082,0.6670800000000001,-0.20601000000000003,9.937529999999999
6691919125,22.28,0.12037535851004891,0.2183755960095305,0.002129301687433082,-0.45126,1.0791000000000002,9.55494
6696969630,22.28,0.09587093581204853,0.1672549022186166,0.006387905062299246,-1.58922,1.02024,9.72171
6702020135,22.28,-0.023439771854283843,-0.01811651763570114,-0.001064650843716541,-1.5696,0.75537,9.54513
6707070640,22.28,-0.12676326357234816,-0.17896606149949854,-0.002129301687433082,-0.9123300000000001,-0.019620000000000002,9.91791
6712121145,22.28,-0.16191419470751395,-0.23010420858293237,-0.004258603374866164,0.18639,-1.04967,9.94734
6717171650,22.28,-0.08415977653116657,-0.11079350091660004,-0.004258603374866164,1.54017,-0.28449,9.95715
6722222155,22.28,0.04581489286485115,0.10438814256178083,0.002129301687433082,0.89271,-0.38259000000000004,9.908100000000001
6727272660,22.28,0.09693558665576507,0.24181536786381436,0.007452555906015787,-0.41202000000000005,0.9123300000000001,9.37836
6732323165,22.28,0.09906488834319814,0.1704488547497662,0.006387905062299246,-1.6186500000000001,1.10853,9.908100000000001
6737373670,22.28,-0.021310470166850764,-0.04366813788489812,-0.003193952531149623,-1.24587,0.8240400000000001,9.67266
6742424175,22.28,-0.13102186694721432,-0.15765559133264778,-0.002129301687433082,-0.5591700000000001,-0.21582,9.819809999999999
6747474680,22.28,-0.15446163880149816,-0.1704488547497662,-0.003193952531149623,-0.11772,-0.8240400000000001,9.95715
6752525185,22.28,-0.05220279792715039,-0.08096582400001695,-0.004258603374866164,0.72594,-0.37278,9.81
6757575690,22.28,0.054332099614583476,0.10332349171806432,0.003193952531149623,0.56898,0.0981,9.78057
6762626195,22.28,0.07349581480148122,0.18216001403064813,0.008517206749732328,-0.5395500000000001,0.8142300000000001,9.751140000000001
6767676700,22.28,0.046879543708567686,0.0756251164889143,0.001064650843716541,-1.1183400000000001,0.7749900000000001,9.84924
6772727205,22.28,-0.04581489286485115,-0.05113814708343386,0.0,-0.65727,0.14715,9.81
6777777710,22.28,-0.11398745344774965,-0.08096582400001695,0.0,-0.49050000000000005,-0.33354000000000006,9.92772
6782828215,22.28,-0.07136651311404815,-0.07030186227033158,-0.001064650843716541,-0.40221,-0.2943,10.006200000000002
6787878720,22.28,0.00958185759344887,-0.0170518667919846,0.0,0.22563,0.27468000000000004,9.760950000000001
6792929225,22.28,0.00958185759344887,0.05752605214573309,0.002129301687433082,0.0,0.21582,9.73152
6797979730,22.28,-0.015987215948268057,0.04260348704118158,0.004258603374866164,-0.47088,0.32373,9.69228
6803030235,22.28,-0.01064650843716541,-0.007452555906015787,-0.002129301687433082,-0.27468000000000004,0.0981,9.73152
6808080740,22.28,-0.0404741853537485,0.015987215948268057,0.0,-0.31392000000000003,-0.06867000000000001,9.751140000000001
6813131245,22.28,-0.033021629447732716,0.024504422698000388,0.0,-0.6867000000000001,0.02943,9.760950000000001
6818181750,22.28,0.0,0.0,0.001064650843716541,-0.6180300000000001,0.51993,9.751140000000001
6823232255,22.28,-0.015987215948268057,-0.03089232776029963,0.0,-0.30411,0.36297,9.760950000000001
6828282760,22.28,-0.08203047484373349,-0.05113814708343386,-0.001064650843716541,-0.11772,-0.32373,9.751140000000001
6833333265,22.28,-0.07456046564519776,-0.02663372438543347,0.0,-0.13734000000000002,-0.34335000000000004,9.98658
6838383770,22.28,-0.001064650843716541,0.023439771854283843,0.0,-0.05886,0.13734000000000002,10.01601
6843434275,22.28,0.022375121010567305,0.05859070298944965,0.001064650843716541,-0.20601000000000003,0.35316,9.819809999999999
6848484780,22.28,-0.003193952531149623,0.06497860805174888,0.005323254218582705,-0.7651800000000001,0.47088,9.73152
6853535285,22.28,-0.04153883619746504,-0.04153883619746504,-0.002129301687433082,-0.70632,0.20601000000000003,9.908100000000001
6858585790,22.28,-0.07136651311404815,-0.08948303074974927,-0.002129301687433082,0.009810000000000001,-0.33354000000000006,9.888480000000001
6863636295,22.28,-0.05326744877086694,0.002129301687433082,0.002129301687433082,-0.039240000000000004,-0.44145,9.86886
6868686800,22.28,-0.01064650843716541,0.04260348704118158,0.004258603374866164,-0.34335000000000004,0.22563,9.819809999999999
6873737305,22.28,0.049008845396000776,0.04581489286485115,0.004258603374866164,-0.38259000000000004,0.8829,9.70209
6878787810,22.28,-0.021310470166850764,0.0,0.001064650843716541,-0.38259000000000004,0.039240000000000004,9.633420000000001
6883838315,22.28,-0.08948303074974927,-0.021310470166850764,0.0,-0.24525000000000002,-0.14715,9.7119
6888888820,22.28,-0.05859070298944965,-0.02769837522915001,0.0,-0.5395500000000001,-0.21582,9.96696
6893939325,22.28,-0.020245819323134222,-0.013840460968315033,-0.001064650843716541,-0.039240000000000004,0.10791,9.70209
6898989830,22.28,0.0,0.039409534510031964,0.003193952531149623,-0.23544,0.33354000000000006,9.80019
6904040335,22.28,-0.03728023282259888,-0.003193952531149623,-0.001064650843716541,-0.41202000000000005,0.04905,9.83943
6909090840,22.28,-0.03515093113516579,-0.00958185759344887,-0.001064650843716541,-0.15696000000000002,0.0,9.78057
6914141345,22.28,-0.039409534510031964,0.015987215948268057,0.003193952531149623,-0.36297,-0.16677000000000003,9.937529999999999
6919191850,22.28,-0.024504422698000388,0.014905111812031574,0.0,-0.5886,0.12753,9.908100000000001
6924242355,22.28,-0.007452555906015787,-0.011711159280881954,0.002129301687433082,-0.52974,0.33354000000000006,9.86886
6929292860,22.28,-0.046879543708567686,-0.03834488366631542,0.0,-0.04905,0.08829,9.89829
6934343365,22.28,-0.06604325889546543,-0.02663372438543347,-0.002129301687433082,-0.019620000000000002,-0.50031,9.86886
6939393870,22.28,-0.03728023282259888,0.02556907354171693,0.001064650843716541,-0.24525000000000002,-0.11772,9.751140000000001
6944444375,22.28,0.022375121010567305,0.05326744877086694,-0.001064650843716541,-0.40221,0.47088,9.79038
6949494880,22.28,0.0,0.033021629447732716,-0.001064650843716541,-0.41202000000000005,0.41202000000000005,9.633420000000001
6954545385,22.28,-0.04581489286485115,-0.008517206749732328,0.0,-0.5886,0.20601000000000003,9.53532
6959595890,22.28,-0.08415977653116657,-0.05220279792715039,-0.001064650843716541,-0.20601000000000003,-0.2943,9.84924
6964646395,22.28,-0.05539675045830002,-0.024504422698000388,0.0,-0.15696000000000002,-0.23544,9.79038
6969696900,22.28,-0.022375121010567305,0.020245819323134222,0.002129301687433082,-0.33354000000000006,-0.02943,9.73152
6974747405,22.28,-0.004258603374866164,0.020245819323134222,0.004258603374866164,-0.2943,0.51012,9.770760000000001
6979797910,22.28,-0.02556907354171693,-0.011711159280881954,-0.002129301687433082,-0.1962,-0.07848000000000001,9.937529999999999
6984848415,22.28,-0.07243116395776468,-0.004258603374866164,0.002129301687433082,-0.23544,-0.40221,9.86886
6989898920,22.28,-0.04260348704118158,0.020245819323134222,0.003193952531149623,-0.48069000000000006,-0.11772,10.074869999999999
6994949425,22.28,0.0,-0.003193952531149623,0.001064650843716541,-0.48069000000000006,0.42183,9.94734
6999999930,22.28,-0.008517206749732328,-0.01064650843716541,0.001064650843716541,-0.15696000000000002,0.14715,9.80019
7005050435,22.28,-0.06710790973918197,-0.00958185759344887,0.003193952531149623,-0.18639,-0.20601000000000003,9.760950000000001
7010100940,22.28,-0.06284930636431581,-0.015987215948268057,-0.002129301687433082,-0.28449,-0.41202000000000005,9.96696
7015151445,22.28,-0.012775810124598492,0.01918116847941768,0.001064650843716541,-0.26487,0.0981,9.69228
7020201950,22.28,0.00958185759344887,0.05326744877086694,0.005323254218582705,-0.32373,0.37278,9.64323
7025252455,22.28,-0.03621558197888234,0.005323254218582705,0.0,-0.51012,0.23544,9.60399
7030302960,22.28,-0.05859070298944965,-0.02663372438543347,0.0,-0.32373,-0.15696000000000002,9.67266
7035353465,22.28,-0.07243116395776468,-0.020245819323134222,-0.002129301687433082,-0.35316,-0.31392000000000003,9.760950000000001
7040403970,22.28,-0.046879543708567686,0.005323254218582705,0.0,-0.30411,-0.17658,9.908100000000001
7045454475,22.28,-0.01918116847941768,-0.001064650843716541,0.0,-0.51993,0.2943,9.87867
7050504980,22.28,-0.03621558197888234,-0.033021629447732716,-0.001064650843716541,-0.009810000000000001,-0.05886,9.96696
