#timestamp [ns], temperature [degC], w_RS_S_x [rad s^-1], w_RS_S_y [rad s^-1], w_RS_S_z [rad s^-1], a_RS_S_x [m s^-2], a_RS_S_y [m s^-2], a_RS_S_z [m s^-2]
0,21.84,0.0,0.0,0.0,0.5886,-0.13734000000000002,9.819809999999999
5050505,21.84,0.0,0.0,0.0,0.59841,-0.15696000000000002,9.81
10101010,21.84,0.0,0.0,0.0,0.59841,-0.15696000000000002,9.78057
15151515,21.84,0.0,0.0,0.0,0.6180300000000001,-0.14715,9.80019
20202020,21.84,0.0,0.0,0.0,0.60822,-0.15696000000000002,9.84924
25252525,21.84,0.0,0.0,0.0,0.5886,-0.15696000000000002,9.85905
30303030,21.84,0.0,0.0,0.0,0.5886,-0.14715,9.81
35353535,21.84,0.0,0.0,0.0,0.6278400000000001,-0.17658,9.80019
40404040,21.84,0.0,0.0,0.0,0.5886,-0.15696000000000002,9.80019
45454545,21.84,0.0,0.0,0.0,0.59841,-0.16677000000000003,9.81
50505050,21.84,0.0,0.0,0.0,0.63765,-0.17658,9.83943
55555555,21.84,0.0,0.0,0.0,0.6180300000000001,-0.16677000000000003,9.81
60606060,21.84,0.0,0.0,0.0,0.6180300000000001,-0.13734000000000002,9.78057
65656565,21.84,0.0,0.0,0.0,0.60822,-0.17658,9.770760000000001
70707070,21.84,0.0,0.0,0.0,0.60822,-0.15696000000000002,9.82962
75757575,21.84,0.0,0.0,0.0,0.60822,-0.11772,9.84924
80808080,21.84,0.0,0.0,0.0,0.60822,-0.15696000000000002,9.82962
85858585,21.84,0.0,0.0,0.0,0.60822,-0.15696000000000002,9.79038
90909090,21.84,0.0,0.0,0.0,0.60822,-0.15696000000000002,9.760950000000001
95959595,21.84,0.0,0.0,0.0,0.6180300000000001,-0.14715,9.819809999999999
101010100,21.84,0.0,0.0,0.0,0.6278400000000001,-0.17658,9.85905
106060605,21.84,0.0,0.0,0.0,0.6278400000000001,-0.15696000000000002,9.83943
111111110,21.84,0.0,0.0,0.0,0.60822,-0.17658,9.79038
116161615,21.84,0.0,0.0,0.0,0.60822,-0.14715,9.751140000000001
121212120,21.84,0.0,0.0,0.0,0.60822,-0.14715,9.81
126262625,21.84,0.0,0.0,0.0,0.5886,-0.11772,9.85905
131313130,21.84,0.0,0.0,0.0,0.60822,-0.14715,9.86886
136363635,21.84,0.0,0.0,0.0,0.6278400000000001,-0.13734000000000002,9.80019
141414140,21.84,0.0,0.0,0.0,0.60822,-0.16677000000000003,9.78057
146464645,21.84,0.0,0.0,0.0,0.59841,-0.15696000000000002,9.819809999999999
151515150,21.84,0.0,0.0,0.0,0.6278400000000001,-0.12753,9.83943
156565655,21.84,0.0,0.0,0.0,0.59841,-0.16677000000000003,9.84924
161616160,21.84,0.0,0.0,0.0,0.5886,-0.14715,9.79038
166666665,21.84,0.0,0.0,0.0,0.59841,-0.16677000000000003,9.760950000000001
171717170,21.84,0.0,0.0,0.0,0.59841,-0.14715,9.82962
176767675,21.84,0.0,0.0,0.0,0.59841,-0.15696000000000002,9.83943
181818180,21.84,0.0,0.0,0.0,0.60822,-0.13734000000000002,9.86886
186868685,21.84,0.0,0.0,0.0,0.59841,-0.16677000000000003,9.80019
191919190,21.84,0.0,0.0,0.0,0.5886,-0.15696000000000002,9.79038
196969695,21.84,0.0,0.0,0.0,0.60822,-0.17658,9.80019
202020200,21.84,0.0,0.0,0.0,0.59841,-0.13734000000000002,9.85905
207070705,21.84,0.0,0.0,0.0,0.59841,-0.13734000000000002,9.82962
212121210,21.84,0.0,0.0,0.0,0.60822,-0.13734000000000002,9.80019
217171715,21.84,0.0,0.0,0.0,0.60822,-0.13734000000000002,9.78057
222222220,21.84,0.0,0.0,0.0,0.5886,-0.15696000000000002,9.78057
227272725,21.84,0.0,0.0,0.0,0.59841,-0.15696000000000002,9.82962
232323230,21.84,0.0,0.0,0.0,0.60822,-0.17658,9.82962
237373735,21.84,0.0,0.0,0.0,0.6180300000000001,-0.15696000000000002,9.79038
242424240,21.84,0.0,0.0,0.0,0.60822,-0.14715,9.80019
247474745,21.84,0.0,0.0,0.0,0.60822,-0.14715,9.80019
252525250,21.84,0.0,0.0,0.0,0.6180300000000001,-0.16677000000000003,9.80019
257575755,21.84,0.0,0.0,0.0,0.60822,-0.16677000000000003,9.819809999999999
262626260,21.84,0.0,0.0,0.0,0.60822,-0.17658,9.819809999999999
267676765,21.84,0.0,0.0,0.0,0.60822,-0.17658,9.81
272727270,21.84,0.0,0.0,0.0,0.60822,-0.15696000000000002,9.81
277777775,21.84,0.0,0.0,0.0,0.60822,-0.15696000000000002,9.819809999999999
282828280,21.84,0.0,0.0,0.0,0.60822,-0.14715,9.81
287878785,21.84,0.0,0.0,0.0,0.60822,-0.12753,9.819809999999999
292929290,21.84,0.0,0.0,0.0,0.6180300000000001,-0.17658,9.81
297979795,21.84,0.0,0.0,0.0,0.6278400000000001,-0.14715,9.819809999999999
303030300,21.84,0.0,0.0,0.0,0.60822,-0.13734000000000002,9.81
308080805,21.84,0.0,0.0,0.0,0.59841,-0.17658,9.770760000000001
313131310,21.84,0.0,0.0,0.0,0.59841,-0.14715,9.82962
318181815,21.84,0.0,0.0,0.0,0.6278400000000001,-0.15696000000000002,9.82962
323232320,21.84,0.0,0.0,0.0,0.60822,-0.17658,9.83943
328282825,21.84,0.0,0.0,0.0,0.60822,-0.16677000000000003,9.79038
333333330,21.84,0.0,0.0,0.0,0.5886,-0.16677000000000003,9.78057
338383835,21.84,0.0,0.0,0.0,0.6180300000000001,-0.17658,9.80019
343434340,21.84,0.0,0.0,0.0,0.64746,-0.15696000000000002,9.888480000000001
348484845,21.84,0.0,0.0,0.0,0.60822,-0.15696000000000002,9.84924
353535350,21.84,0.0,0.0,0.0,0.60822,-0.17658,9.79038
358585855,21.84,0.0,0.0,0.0,0.6180300000000001,-0.12753,9.760950000000001
363636360,21.84,0.0,0.0,0.0,0.60822,-0.15696000000000002,9.80019
368686865,21.84,0.0,0.0,0.0,0.6278400000000001,-0.13734000000000002,9.86886
373737370,21.84,0.0,0.0,0.0,0.59841,-0.17658,9.87867
378787875,21.84,0.0,0.0,0.0,0.60822,-0.15696000000000002,9.78057
383838380,21.84,0.0,0.0,0.0,0.5886,-0.16677000000000003,9.760950000000001
388888885,21.84,0.0,0.0,0.0,0.60822,-0.16677000000000003,9.79038
393939390,21.84,0.0,0.0,0.0,0.60822,-0.17658,9.87867
398989895,21.84,0.0,0.0,0.0,0.60822,-0.14715,9.85905
404040400,21.84,0.0,0.0,0.0,0.60822,-0.17658,9.81
409090905,21.84,0.0,0.0,0.0,0.60822,-0.13734000000000002,9.74133
414141410,21.84,0.0,0.0,0.0,0.59841,-0.17658,9.770760000000001
419191915,21.84,0.0,0.0,0.0,0.59841,-0.14715,9.83943
424242420,21.84,0.0,0.0,0.0,0.6180300000000001,-0.13734000000000002,9.85905
429292925,21.84,0.0,0.0,0.0,0.60822,-0.17658,9.82962
434343430,21.84,0.0,0.0,0.0,0.60822,-0.16677000000000003,9.78057
439393935,21.84,0.0,0.0,0.0,0.59841,-0.15696000000000002,9.79038
444444440,21.84,0.0,0.0,0.0,0.59841,-0.14715,9.82962
449494945,21.84,0.0,0.0,0.0,0.59841,-0.16677000000000003,9.85905
454545450,21.84,0.0,0.0,0.0,0.57879,-0.12753,9.86886
459595955,21.84,0.0,0.0,0.0,0.60822,-0.14715,9.79038
464646460,21.84,0.0,0.0,0.0,0.5886,-0.14715,9.78057
469696965,21.84,0.0,0.0,0.0,0.6180300000000001,-0.14715,9.79038
474747470,21.84,0.0,0.0,0.0,0.6180300000000001,-0.15696000000000002,9.85905
479797975,21.84,0.0,0.0,0.0,0.60822,-0.16677000000000003,9.83943
484848480,21.84,0.0,0.0,0.0,0.59841,-0.14715,9.81
489898985,21.84,0.0,0.0,0.0,0.59841,-0.16677000000000003,9.81
494949490,21.84,0.0,0.0,0.0,0.60822,-0.16677000000000003,9.79038
499999995,21.84,0.0,0.0,0.0,0.60822,-0.12753,9.83943
505050500,21.84,0.0,0.0,0.0,0.6278400000000001,-0.15696000000000002,9.81
510101005,21.84,0.0,0.0,0.0,0.60822,-0.16677000000000003,9.819809999999999
515151510,21.84,0.0,0.0,0.0,0.6278400000000001,-0.14715,9.80019
520202015,21.84,0.0,0.0,0.0,0.60822,-0.14715,9.78057
525252520,21.84,0.0,0.0,0.0,0.60822,-0.17658,9.819809999999999
530303025,21.84,0.0,0.0,0.0,0.60822,-0.17658,9.82962
535353530,21.84,0.0,0.0,0.0,0.60822,-0.14715,9.82962
540404035,21.84,0.0,0.0,0.0,0.5886,-0.15696000000000002,9.81
545454540,21.84,0.0,0.0,0.0,0.6180300000000001,-0.15696000000000002,9.760950000000001
550505045,21.84,0.0,0.0,0.0,0.59841,-0.18639,9.81
555555550,21.84,0.0,0.0,0.0,0.5886,-0.16677000000000003,9.82962
560606055,21.84,0.0,0.0,0.0,0.6180300000000001,-0.15696000000000002,9.84924
565656560,21.84,0.0,0.0,0.0,0.64746,-0.15696000000000002,9.819809999999999
570707065,21.84,0.0,0.0,0.0,0.59841,-0.17658,9.78057
575757570,21.84,0.0,0.0,0.0,0.6180300000000001,-0.15696000000000002,9.79038
580808075,21.84,0.0,0.0,0.0,0.6180300000000001,-0.12753,9.81
585858580,21.84,0.0,0.0,0.0,0.59841,-0.15696000000000002,9.87867
590909085,21.84,0.0,0.0,0.0,0.60822,-0.14715,9.83943
595959590,21.84,0.0,0.0,0.0,0.6278400000000001,-0.16677000000000003,9.78057
601010095,21.84,0.0,0.0,0.0,0.59841,-0.16677000000000003,9.751140000000001
606060600,21.84,0.0,0.0,0.0,0.59841,-0.16677000000000003,9.79038
611111105,21.84,0.0,0.0,0.0,0.5886,-0.16677000000000003,9.85905
616161610,21.84,0.0,0.0,0.0,0.60822,-0.14715,9.86886
621212115,21.84,0.0,0.0,0.0,0.60822,-0.16677000000000003,9.80019
626262620,21.84,0.0,0.0,0.0,0.59841,-0.14715,9.78057
631313125,21.84,0.0,0.0,0.0,0.60822,-0.16677000000000003,9.81
636363630,21.84,0.0,0.0,0.0,0.63765,-0.14715,9.84924
641414135,21.84,0.0,0.0,0.0,0.60822,-0.15696000000000002,9.82962
646464640,21.84,0.0,0.0,0.0,0.60822,-0.11772,9.80019
651515145,21.84,0.0,0.0,0.0,0.60822,-0.16677000000000003,9.770760000000001
656565650,21.84,0.0,0.0,0.0,0.60822,-0.13734000000000002,9.79038
661616155,21.84,0.0,0.0,0.0,0.60822,-0.13734000000000002,9.84924
666666660,21.84,0.0,0.0,0.0,0.60822,-0.15696000000000002,9.82962
671717165,21.84,0.0,0.0,0.0,0.5886,-0.16677000000000003,9.78057
676767670,21.84,0.0,0.0,0.0,0.60822,-0.14715,9.79038
681818175,21.84,0.0,0.0,0.0,0.60822,-0.17658,9.80019
686868680,21.84,0.0,0.0,0.0,0.60822,-0.16677000000000003,9.83943
691919185,21.84,0.0,0.0,0.0,0.6180300000000001,-0.14715,9.84924
696969690,21.84,0.0,0.0,0.0,0.6180300000000001,-0.17658,9.80019
702020195,21.84,0.0,0.0,0.0,0.59841,-0.14715,9.79038
707070700,21.84,0.0,0.0,0.0,0.6180300000000001,-0.14715,9.78057
712121205,21.84,0.0,0.0,0.0,0.6278400000000001,-0.14715,9.79038
717171710,21.84,0.0,0.0,0.0,0.6180300000000001,-0.15696000000000002,9.83943
722222215,21.84,0.0,0.0,0.0,0.60822,-0.16677000000000003,9.82962
727272720,21.84,0.0,0.0,0.0,0.60822,-0.14715,9.82962
732323225,21.84,0.0,0.0,0.0,0.6180300000000001,-0.15696000000000002,9.78057
737373730,21.84,0.0,0.0,0.0,0.60822,-0.16677000000000003,9.78057
742424235,21.84,0.0,0.0,0.0,0.60822,-0.13734000000000002,9.81
747474740,21.84,0.0,0.0,0.0,0.59841,-0.16677000000000003,9.87867
752525245,21.84,0.0,0.0,0.0,0.59841,-0.15696000000000002,9.87867
757575750,21.84,0.0,0.0,0.0,0.60822,-0.17658,9.81
762626255,21.84,0.0,0.0,0.0,0.6180300000000001,-0.17658,9.78057
767676760,21.84,0.0,0.0,0.0,0.57879,-0.15696000000000002,9.81
772727265,21.84,0.0,0.0,0.0,0.59841,-0.17658,9.83943
777777770,21.84,0.0,0.0,0.0,0.59841,-0.15696000000000002,9.87867
782828275,21.84,0.0,0.0,0.0,0.57879,-0.17658,9.84924
787878780,21.84,0.0,0.0,0.0,0.6180300000000001,-0.16677000000000003,9.770760000000001
792929285,21.84,0.0,0.0,0.0,0.60822,-0.16677000000000003,9.78057
797979790,21.84,0.0,0.0,0.0,0.60822,-0.16677000000000003,9.819809999999999
803030295,21.84,0.0,0.0,0.0,0.6278400000000001,-0.13734000000000002,9.87867
808080800,21.84,0.0,0.0,0.0,0.59841,-0.16677000000000003,9.84924
813131305,21.84,0.0,0.0,0.0,0.6180300000000001,-0.17658,9.770760000000001
818181810,21.84,0.0,0.0,0.0,0.60822,-0.18639,9.760950000000001
823232315,21.84,0.0,0.0,0.0,0.60822,-0.15696000000000002,9.79038
828282820,21.84,0.0,0.0,0.0,0.6180300000000001,-0.16677000000000003,9.85905
833333325,21.84,0.0,0.0,0.0,0.64746,-0.15696000000000002,9.83943
838383830,21.84,0.0,0.0,0.0,0.60822,-0.16677000000000003,9.79038
843434335,21.84,0.0,0.0,0.0,0.59841,-0.17658,9.760950000000001
848484840,21.84,0.0,0.0,0.0,0.59841,-0.15696000000000002,9.79038
853535345,21.84,0.0,0.0,0.0,0.60822,-0.13734000000000002,9.85905
858585850,21.84,0.0,0.0,0.0,0.60822,-0.12753,9.87867
863636355,21.84,0.0,0.0,0.0,0.59841,-0.17658,9.79038
868686860,21.84,0.0,0.0,0.0,0.5886,-0.15696000000000002,9.770760000000001
873737365,21.84,0.0,0.0,0.0,0.60822,-0.15696000000000002,9.78057
878787870,21.84,0.0,0.0,0.0,0.60822,-0.13734000000000002,9.81
883838375,21.84,0.0,0.0,0.0,0.59841,-0.13734000000000002,9.83943
888888880,21.84,0.0,0.0,0.0,0.60822,-0.15696000000000002,9.819809999999999
893939385,21.84,0.0,0.0,0.0,0.5886,-0.17658,9.78057
898989890,21.84,0.0,0.0,0.0,0.60822,-0.16677000000000003,9.80019
904040395,21.84,0.0,0.0,0.0,0.60822,-0.16677000000000003,9.83943
909090900,21.84,0.0,0.0,0.0,0.60822,-0.14715,9.82962
914141405,21.84,0.0,0.0,0.0,0.6278400000000001,-0.15696000000000002,9.80019
919191910,21.84,0.0,0.0,0.0,0.59841,-0.15696000000000002,9.81
924242415,21.84,0.0,0.0,0.0,0.60822,-0.16677000000000003,9.79038
929292920,21.84,0.0,0.0,0.0,0.59841,-0.14715,9.83943
934343425,21.84,0.0,0.0,0.0,0.6180300000000001,-0.13734000000000002,9.819809999999999
939393930,21.84,0.0,0.0,0.0,0.60822,-0.15696000000000002,9.81
944444435,21.84,0.0,0.0,0.0,0.60822,-0.14715,9.819809999999999
949494940,21.84,0.0,0.0,0.0,0.59841,-0.16677000000000003,9.81
954545445,21.84,0.0,0.0,0.0,0.60822,-0.14715,9.819809999999999
959595950,21.84,0.0,0.0,0.0,0.6180300000000001,-0.15696000000000002,9.819809999999999
964646455,21.84,0.0,0.0,0.0,0.59841,-0.15696000000000002,9.819809999999999
969696960,21.84,0.0,0.0,0.0,0.6180300000000001,-0.18639,9.81
974747465,21.84,0.0,0.0,0.0,0.60822,-0.16677000000000003,9.80019
979797970,21.84,0.0,0.0,0.0,0.5886,-0.15696000000000002,9.819809999999999
984848475,21.84,0.0,0.0,0.0,0.60822,-0.16677000000000003,9.82962
989898980,21.84,0.0,0.0,0.0,0.6180300000000001,-0.15696000000000002,9.82962
994949485,21.84,0.0,0.0,0.0,0.57879,-0.14715,9.82962
999999990,21.84,0.0,0.0,0.0,0.60822,-0.15696000000000002,9.81
1005050495,21.84,0.0,0.0,0.0,0.60822,-0.17658,9.78057
1010101000,21.84,0.0,0.0,0.0,0.59841,-0.16677000000000003,9.79038
1015151505,21.84,0.0,0.0,0.0,0.60822,-0.17658,9.80019
1020202010,21.84,0.0,0.0,0.0,0.6278400000000001,-0.17658,9.819809999999999
1025252515,21.84,0.0,0.0,0.0,0.59841,-0.14715,9.82962
1030303020,21.84,0.0,0.0,0.0,0.60822,-0.14715,9.79038
1035353525,21.84,0.0,0.0,0.0,0.6180300000000001,-0.18639,9.78057
1040404030,21.84,0.0,0.0,0.0,0.60822,-0.1962,9.81
1045454535,21.84,0.0,0.0,0.0,0.60822,-0.16677000000000003,9.82962
1050505040,21.84,0.0,0.0,0.0,0.6180300000000001,-0.15696000000000002,9.81
1055555545,21.84,0.0,0.0,0.0,0.5886,-0.14715,9.80019
1060606050,21.84,0.0,0.0,0.0,0.59841,-0.14715,9.81
1065656555,21.84,0.0,0.0,0.0,0.5886,-0.16677000000000003,9.83943
1070707060,21.84,0.0,0.0,0.0,0.6180300000000001,-0.13734000000000002,9.84924
1075757565,21.84,0.0,0.0,0.0,0.60822,-0.15696000000000002,9.78057
1080808070,21.84,0.0,0.0,0.0,0.59841,-0.14715,9.81
1085858575,21.84,0.0,0.0,0.0,0.5886,-0.16677000000000003,9.82962
1090909080,21.84,0.0,0.0,0.0,0.60822,-0.13734000000000002,9.85905
1095959585,21.84,0.0,0.0,0.0,0.6180300000000001,-0.16677000000000003,9.84924
1101010090,21.84,0.0,0.0,0.0,0.60822,-0.12753,9.79038
1106060595,21.84,0.0,0.0,0.0,0.60822,-0.16677000000000003,9.760950000000001
1111111100,21.84,0.0,0.0,0.0,0.60822,-0.16677000000000003,9.78057
1116161605,21.84,0.0,0.0,0.0,0.60822,-0.16677000000000003,9.85905
1121212110,21.84,0.0,0.0,0.0,0.60822,-0.15696000000000002,9.85905
1126262615,21.84,0.0,0.0,0.0,0.59841,-0.16677000000000003,9.82962
1131313120,21.84,0.0,0.0,0.0,0.6180300000000001,-0.15696000000000002,9.770760000000001
1136363625,21.84,0.0,0.0,0.0,0.60822,-0.18639,9.80019
1141414130,21.84,0.0,0.0,0.0,0.60822,-0.14715,9.83943
1146464635,21.84,0.0,0.0,0.0,0.59841,-0.16677000000000003,9.84924
1151515140,21.84,0.0,0.0,0.0,0.6180300000000001,-0.13734000000000002,9.81
1156565645,21.84,0.0,0.0,0.0,0.6180300000000001,-0.15696000000000002,9.770760000000001
1161616150,21.84,0.0,0.0,0.0,0.60822,-0.12753,9.78057
1166666655,21.84,0.0,0.0,0.0,0.5886,-0.12753,9.83943
1171717160,21.84,0.0,0.0,0.0,0.57879,-0.16677000000000003,9.83943
1176767665,21.84,0.0,0.0,0.0,0.5886,-0.15696000000000002,9.82962
1181818170,21.84,0.0,0.0,0.0,0.59841,-0.18639,9.78057
1186868675,21.84,0.0,0.0,0.0,0.59841,-0.15696000000000002,9.78057
1191919180,21.84,0.0,0.0,0.0,0.6180300000000001,-0.17658,9.80019
1196969685,21.84,0.0,0.0,0.0,0.6180300000000001,-0.14715,9.84924
1202020190,21.84,0.0,0.0,0.0,0.6278400000000001,-0.18639,9.83943
1207070695,21.84,0.0,0.0,0.0,0.60822,-0.13734000000000002,9.78057
1212121200,21.84,0.0,0.0,0.0,0.5886,-0.15696000000000002,9.79038
1217171705,21.84,0.0,0.0,0.0,0.60822,-0.15696000000000002,9.80019
1222222210,21.84,0.0,0.0,0.0,0.60822,-0.16677000000000003,9.81
1227272715,21.84,0.0,0.0,0.0,0.5886,-0.16677000000000003,9.819809999999999
1232323220,21.84,0.0,0.0,0.0,0.60822,-0.14715,9.819809999999999
1237373725,21.84,0.0,0.0,0.0,0.59841,-0.15696000000000002,9.79038
1242424230,21.84,0.0,0.0,0.0,0.5886,-0.15696000000000002,9.770760000000001
1247474735,21.84,0.0,0.0,0.0,0.6180300000000001,-0.17658,9.819809999999999
1252525240,21.84,0.0,0.0,0.0,0.57879,-0.15696000000000002,9.84924
1257575745,21.84,0.0,0.0,0.0,0.60822,-0.15696000000000002,9.82962
1262626250,21.84,0.0,0.0,0.0,0.60822,-0.15696000000000002,9.80019
1267676755,21.84,0.0,0.0,0.0,0.60822,-0.16677000000000003,9.81
1272727260,21.84,0.0,0.0,0.0,0.6180300000000001,-0.16677000000000003,9.819809999999999
1277777765,21.84,0.0,0.0,0.0,0.60822,-0.18639,9.819809999999999
1282828270,21.84,0.0,0.0,0.0,0.60822,-0.11772,9.82962
1287878775,21.84,0.0,0.0,0.0,0.57879,-0.13734000000000002,9.82962
1292929280,21.84,0.0,0.0,0.0,0.60822,-0.13734000000000002,9.819809999999999
1297979785,21.84,0.0,0.0,0.0,0.5886,-0.13734000000000002,9.79038
1303030290,21.84,0.0,0.0,0.0,0.59841,-0.15696000000000002,9.80019
1308080795,21.84,0.0,0.0,0.0,0.59841,-0.16677000000000003,9.819809999999999
1313131300,21.84,0.0,0.0,0.0,0.6180300000000001,-0.15696000000000002,9.79038
1318181805,21.84,0.0,0.0,0.0,0.59841,-0.15696000000000002,9.79038
1323232310,21.84,0.0,0.0,0.0,0.60822,-0.17658,9.80019
1328282815,21.84,0.0,0.0,0.0,0.60822,-0.16677000000000003,9.81
1333333320,21.84,0.0,0.0,0.0,0.60822,-0.16677000000000003,9.819809999999999
1338383825,21.84,0.0,0.0,0.0,0.59841,-0.15696000000000002,9.82962
1343434330,21.84,0.0,0.0,0.0,0.59841,-0.16677000000000003,9.81
1348484835,21.84,0.0,0.0,0.0,0.60822,-0.13734000000000002,9.79038
1353535340,21.84,0.0,0.0,0.0,0.59841,-0.12753,9.819809999999999
1358585845,21.84,0.0,0.0,0.0,0.6180300000000001,-0.15696000000000002,9.82962
1363636350,21.84,0.0,0.0,0.0,0.59841,-0.15696000000000002,9.819809999999999
1368686855,21.84,0.0,0.0,0.0,0.5886,-0.16677000000000003,9.81
1373737360,21.84,0.0,0.0,0.0,0.60822,-0.15696000000000002,9.81
1378787865,21.84,0.0,0.0,0.0,0.6180300000000001,-0.16677000000000003,9.81
1383838370,21.84,0.0,0.0,0.0,0.5886,-0.15696000000000002,9.80019
1388888875,21.84,0.0,0.0,0.0,0.6180300000000001,-0.16677000000000003,9.819809999999999
1393939380,21.84,0.0,0.0,0.0,0.5886,-0.16677000000000003,9.81
1398989885,21.84,0.0,0.0,0.0,0.6180300000000001,-0.15696000000000002,9.79038
1404040390,21.84,0.0,0.0,0.0,0.60822,-0.15696000000000002,9.81
1409090895,21.84,0.0,0.0,0.0,0.60822,-0.14715,9.81
1414141400,21.84,0.0,0.0,0.0,0.60822,-0.16677000000000003,9.81
1419191905,21.84,0.0,0.0,0.0,0.6180300000000001,-0.14715,9.81
1424242410,21.84,0.0,0.0,0.0,0.59841,-0.14715,9.819809999999999
1429292915,21.84,0.0,0.0,0.0,0.60822,-0.12753,9.81
1434343420,21.84,0.0,0.0,0.0,0.6180300000000001,-0.15696000000000002,9.81
1439393925,21.84,0.0,0.0,0.0,0.60822,-0.12753,9.80019
1444444430,21.84,0.0,0.0,0.0,0.60822,-0.18639,9.770760000000001
1449494935,21.84,0.0,0.0,0.0,0.60822,-0.16677000000000003,9.80019
1454545440,21.84,0.0,0.0,0.0,0.6180300000000001,-0.16677000000000003,9.82962
1459595945,21.84,0.0,0.0,0.0,0.60822,-0.14715,9.81
1464646450,21.84,0.0,0.0,0.0,0.6180300000000001,-0.17658,9.79038
1469696955,21.84,0.0,0.0,0.0,0.6180300000000001,-0.16677000000000003,9.81
1474747460,21.84,0.0,0.0,0.0,0.6180300000000001,-0.15696000000000002,9.819809999999999
1479797965,21.84,0.0,0.0,0.0,0.59841,-0.17658,9.81
1484848470,21.84,0.0,0.0,0.0,0.60822,-0.17658,9.79038
1489898975,21.84,0.0,0.0,0.0,0.6278400000000001,-0.15696000000000002,9.79038
1494949480,21.84,0.0,0.0,0.0,0.60822,-0.16677000000000003,9.82962
1499999985,21.84,0.0,0.0,0.0,0.60822,-0.16677000000000003,9.82962
1505050490,21.84,0.0,0.0,0.0,0.6180300000000001,-0.15696000000000002,9.83943
1510100995,21.84,0.0,0.0,0.0,0.60822,-0.15696000000000002,9.81
1515151500,21.84,0.0,0.0,0.0,0.59841,-0.13734000000000002,9.770760000000001
1520202005,21.84,0.0,0.0,0.0,0.60822,-0.15696000000000002,9.81
1525252510,21.84,0.0,0.0,0.0,0.59841,-0.14715,9.83943
1530303015,21.84,0.0,0.0,0.0,0.60822,-0.17658,9.82962
1535353520,21.84,0.0,0.0,0.0,0.60822,-0.16677000000000003,9.80019
1540404025,21.84,0.0,0.0,0.0,0.59841,-0.17658,9.80019
1545454530,21.84,0.0,0.0,0.0,0.5886,-0.15696000000000002,9.81
1550505035,21.84,0.0,0.0,0.0,0.59841,-0.17658,9.819809999999999
1555555540,21.84,0.0,0.0,0.0,0.6180300000000001,-0.15696000000000002,9.819809999999999
1560606045,21.84,0.0,0.0,0.0,0.60822,-0.16677000000000003,9.81
1565656550,21.84,0.0,0.0,0.0,0.60822,-0.14715,9.81
1570707055,21.84,0.0,0.0,0.0,0.60822,-0.17658,9.819809999999999
1575757560,21.84,0.0,0.0,0.0,0.59841,-0.13734000000000002,9.819809999999999
1580808065,21.84,0.0,0.0,0.0,0.60822,-0.14715,9.81
1585858570,21.84,0.0,0.0,0.0,0.6180300000000001,-0.15696000000000002,9.81
1590909075,21.84,0.0,0.0,0.0,0.60822,-0.14715,9.80019
1595959580,21.84,0.0,0.0,0.0,0.60822,-0.14715,9.819809999999999
1601010085,21.84,0.0,0.0,0.0,0.59841,-0.16677000000000003,9.81
1606060590,21.84,0.0,0.0,0.0,0.57879,-0.18639,9.81
1611111095,21.84,0.0,0.0,0.0,0.60822,-0.14715,9.80019
1616161600,21.84,0.0,0.0,0.0,0.59841,-0.14715,9.79038
1621212105,21.84,0.0,0.0,0.0,0.60822,-0.14715,9.819809999999999
1626262610,21.84,0.0,0.0,0.0,0.6180300000000001,-0.16677000000000003,9.83943
1631313115,21.84,0.0,0.0,0.0,0.6180300000000001,-0.14715,9.81
1636363620,21.84,0.0,0.0,0.0,0.59841,-0.15696000000000002,9.81
1641414125,21.84,0.0,0.0,0.0,0.59841,-0.14715,9.81
1646464630,21.84,0.0,0.0,0.0,0.59841,-0.13734000000000002,9.82962
1651515135,21.84,0.0,0.0,0.0,0.59841,-0.15696000000000002,9.888480000000001
1656565640,21.84,0.0,0.0,0.0,0.60822,-0.16677000000000003,9.80019
1661616145,21.84,0.0,0.0,0.0,0.59841,-0.13734000000000002,9.770760000000001
1666666650,21.84,0.0,0.0,0.0,0.6180300000000001,-0.16677000000000003,9.81
1671717155,21.84,0.0,0.0,0.0,0.60822,-0.17658,9.819809999999999
1676767660,21.84,0.0,0.0,0.0,0.60822,-0.16677000000000003,9.81
1681818165,21.84,0.0,0.0,0.0,0.60822,-0.18639,9.770760000000001
1686868670,21.84,0.0,0.0,0.0,0.5886,-0.12753,9.770760000000001
1691919175,21.84,0.0,0.0,0.0,0.59841,-0.14715,9.82962
1696969680,21.84,0.0,0.0,0.0,0.60822,-0.17658,9.83943
1702020185,21.84,0.0,0.0,0.0,0.60822,-0.15696000000000002,9.81
1707070690,21.84,0.0,0.0,0.0,0.5886,-0.14715,9.79038
1712121195,21.84,0.0,0.0,0.0,0.60822,-0.14715,9.79038
1717171700,21.84,0.0,0.0,0.0,0.5886,-0.18639,9.81
1722222205,21.84,0.0,0.0,0.0,0.57879,-0.16677000000000003,9.84924
1727272710,21.84,0.0,0.0,0.0,0.59841,-0.14715,9.819809999999999
1732323215,21.84,0.0,0.0,0.0,0.59841,-0.14715,9.81
1737373720,21.84,0.0,0.0,0.0,0.59841,-0.17658,9.78057
1742424225,21.84,0.0,0.0,0.0,0.6180300000000001,-0.16677000000000003,9.82962
1747474730,21.84,0.0,0.0,0.0,0.60822,-0.15696000000000002,9.83943
1752525235,21.84,0.0,0.0,0.0,0.59841,-0.14715,9.80019
1757575740,21.84,0.0,0.0,0.0,0.60822,-0.14715,9.81
1762626245,21.84,0.0,0.0,0.0,0.59841,-0.15696000000000002,9.81
1767676750,21.84,0.0,0.0,0.0,0.6278400000000001,-0.16677000000000003,9.819809999999999
1772727255,21.84,0.0,0.0,0.0,0.6180300000000001,-0.14715,9.83943
1777777760,21.84,0.0,0.0,0.0,0.59841,-0.16677000000000003,9.78057
1782828265,21.84,0.0,0.0,0.0,0.5886,-0.17658,9.770760000000001
1787878770,21.84,0.0,0.0,0.0,0.6278400000000001,-0.16677000000000003,9.83943
1792929275,21.84,0.0,0.0,0.0,0.60822,-0.16677000000000003,9.82962
1797979780,21.84,0.0,0.0,0.0,0.59841,-0.17658,9.80019
1803030285,21.84,0.0,0.0,0.0,0.6180300000000001,-0.15696000000000002,9.81
1808080790,21.84,0.0,0.0,0.0,0.59841,-0.16677000000000003,9.80019
1813131295,21.84,0.0,0.0,0.0,0.5886,-0.15696000000000002,9.83943
1818181800,21.84,0.0,0.0,0.0,0.60822,-0.1962,9.79038
1823232305,21.84,0.0,0.0,0.0,0.59841,-0.18639,9.80019
1828282810,21.84,0.0,0.0,0.0,0.60822,-0.17658,9.78057
1833333315,21.84,0.0,0.0,0.0,0.60822,-0.14715,9.80019
1838383820,21.84,0.0,0.0,0.0,0.5886,-0.17658,9.86886
1843434325,21.84,0.0,0.0,0.0,0.60822,-0.16677000000000003,9.84924
1848484830,21.84,0.0,0.0,0.0,0.60822,-0.18639,9.78057
1853535335,21.84,0.0,0.0,0.0,0.6180300000000001,-0.15696000000000002,9.770760000000001
1858585840,21.84,0.0,0.0,0.0,0.6180300000000001,-0.15696000000000002,9.81
1863636345,21.84,0.0,0.0,0.0,0.60822,-0.14715,9.86886
1868686850,21.84,0.0,0.0,0.0,0.60822,-0.13734000000000002,9.82962
1873737355,21.84,0.0,0.0,0.0,0.59841,-0.16677000000000003,9.80019
1878787860,21.84,0.0,0.0,0.0,0.59841,-0.11772,9.78057
1883838365,21.84,0.0,0.0,0.0,0.5886,-0.18639,9.80019
1888888870,21.84,0.0,0.0,0.0,0.5886,-0.14715,9.83943
1893939375,21.84,0.0,0.0,0.0,0.60822,-0.17658,9.84924
1898989880,21.84,0.0,0.0,0.0,0.59841,-0.14715,9.80019
1904040385,21.84,0.0,0.0,0.0,0.60822,-0.18639,9.770760000000001
1909090890,21.84,0.0,0.0,0.0,0.59841,-0.14715,9.80019
1914141395,21.84,0.0,0.0,0.0,0.59841,-0.15696000000000002,9.84924
1919191900,21.84,0.0,0.0,0.0,0.57879,-0.12753,9.81
1924242405,21.84,0.0,0.0,0.0,0.59841,-0.17658,9.80019
1929292910,21.84,0.0,0.0,0.0,0.59841,-0.13734000000000002,9.79038
1934343415,21.84,0.0,0.0,0.0,0.60822,-0.13734000000000002,9.82962
1939393920,21.84,0.0,0.0,0.0,0.60822,-0.16677000000000003,9.82962
1944444425,21.84,0.0,0.0,0.0,0.60822,-0.13734000000000002,9.80019
1949494930,21.84,0.0,0.0,0.0,0.59841,-0.14715,9.80019
1954545435,21.84,0.0,0.0,0.0,0.60822,-0.16677000000000003,9.80019
1959595940,21.84,0.0,0.0,0.0,0.5886,-0.16677000000000003,9.819809999999999
1964646445,21.84,0.0,0.0,0.0,0.57879,-0.15696000000000002,9.82962
1969696950,21.84,0.0,0.0,0.0,0.59841,-0.18639,9.79038
1974747455,21.84,0.0,0.0,0.0,0.60822,-0.15696000000000002,9.78057
1979797960,21.84,0.0,0.0,0.0,0.60822,-0.16677000000000003,9.79038
1984848465,21.84,0.0,0.0,0.0,0.60822,-0.16677000000000003,9.83943
1989898970,21.84,0.0,0.0,0.0,0.60822,-0.14715,9.819809999999999
1994949475,21.84,0.0,0.0,0.0,0.5886,-0.14715,9.81
1999999980,21.84,0.0,0.0,0.0,0.60822,-0.15696000000000002,9.80019
2005050485,21.84,0.0,0.0,0.0,0.60822,-0.13734000000000002,9.819809999999999
2010100990,21.84,0.0,0.0,0.0,0.5886,-0.14715,9.82962
2015151495,21.84,0.0,0.0,0.0,0.56898,-0.14715,9.819809999999999
2020202000,21.84,0.0,0.0,0.0,0.59841,-0.14715,9.81
2025252505,21.84,0.0,0.0,0.0,0.60822,-0.13734000000000002,9.80019
2030303010,21.84,0.0,0.0,0.0,0.6180300000000001,-0.15696000000000002,9.819809999999999
2035353515,21.84,0.0,0.0,0.0,0.6180300000000001,-0.14715,9.819809999999999
2040404020,21.84,0.0,0.0,0.0,0.59841,-0.15696000000000002,9.81
2045454525,21.84,0.0,0.0,0.0,0.60822,-0.16677000000000003,9.80019
2050505030,21.84,0.0,0.0,0.0,0.60822,-0.15696000000000002,9.81
2055555535,21.84,0.0,0.0,0.0,0.56898,-0.15696000000000002,9.81
2060606040,21.84,0.0,0.0,0.0,0.60822,-0.14715,9.819809999999999
2065656545,21.84,0.0,0.0,0.0,0.5886,-0.13734000000000002,9.80019
2070707050,21.84,0.0,0.0,0.0,0.59841,-0.17658,9.81
2075757555,21.84,0.0,0.0,0.0,0.63765,-0.16677000000000003,9.81
2080808060,21.84,0.0,0.0,0.0,0.6278400000000001,-0.16677000000000003,9.82962
2085858565,21.84,0.0,0.0,0.0,0.60822,-0.14715,9.80019
2090909070,21.84,0.0,0.0,0.0,0.5886,-0.15696000000000002,9.80019
2095959575,21.84,0.0,0.0,0.0,0.59841,-0.14715,9.81
2101010080,21.84,0.0,0.0,0.0,0.6278400000000001,-0.16677000000000003,9.819809999999999
2106060585,21.84,0.0,0.0,0.0,0.60822,-0.15696000000000002,9.83943
2111111090,21.84,0.0,0.0,0.0,0.6278400000000001,-0.15696000000000002,9.82962
2116161595,21.84,0.0,0.0,0.0,0.60822,-0.16677000000000003,9.80019
2121212100,21.84,0.0,0.0,0.0,0.60822,-0.18639,9.760950000000001
2126262605,21.84,0.0,0.0,0.0,0.6180300000000001,-0.16677000000000003,9.81
2131313110,21.84,0.0,0.0,0.0,0.56898,-0.14715,9.84924
2136363615,21.84,0.0,0.0,0.0,0.59841,-0.13734000000000002,9.82962
2141414120,21.84,0.0,0.0,0.0,0.59841,-0.12753,9.79038
2146464625,21.84,0.0,0.0,0.0,0.57879,-0.15696000000000002,9.760950000000001
2151515130,21.84,0.0,0.0,0.0,0.59841,-0.16677000000000003,9.81
2156565635,21.84,0.0,0.0,0.0,0.60822,-0.16677000000000003,9.83943
2161616140,21.84,0.0,0.0,0.0,0.60822,-0.17658,9.82962
2166666645,21.84,0.0,0.0,0.0,0.60822,-0.14715,9.79038
2171717150,21.84,0.0,0.0,0.0,0.59841,-0.17658,9.78057
2176767655,21.84,0.0,0.0,0.0,0.60822,-0.15696000000000002,9.80019
2181818160,21.84,0.0,0.0,0.0,0.60822,-0.17658,9.819809999999999
2186868665,21.84,0.0,0.0,0.0,0.6180300000000001,-0.13734000000000002,9.82962
2191919170,21.84,0.0,0.0,0.0,0.6278400000000001,-0.18639,9.80019
2196969675,21.84,0.0,0.0,0.0,0.59841,-0.18639,9.79038
2202020180,21.84,0.0,0.0,0.0,0.57879,-0.16677000000000003,9.78057
2207070685,21.84,0.0,0.0,0.0,0.6180300000000001,-0.15696000000000002,9.819809999999999
2212121190,21.84,0.0,0.0,0.0,0.6180300000000001,-0.13734000000000002,9.84924
2217171695,21.84,0.0,0.0,0.0,0.59841,-0.14715,9.819809999999999
2222222200,21.84,0.0,0.0,0.0,0.5886,-0.14715,9.80019
2227272705,21.84,0.0,0.0,0.0,0.5886,-0.15696000000000002,9.78057
2232323210,21.84,0.0,0.0,0.0,0.5886,-0.14715,9.80019
2237373715,21.84,0.0,0.0,0.0,0.60822,-0.17658,9.819809999999999
2242424220,21.84,0.0,0.0,0.0,0.5886,-0.17658,9.82962
2247474725,21.84,0.0,0.0,0.0,0.6180300000000001,-0.16677000000000003,9.81
2252525230,21.84,0.0,0.0,0.0,0.60822,-0.16677000000000003,9.80019
2257575735,21.84,0.0,0.0,0.0,0.59841,-0.16677000000000003,9.80019
2262626240,21.84,0.0,0.0,0.0,0.60822,-0.14715,9.81
2267676745,21.84,0.0,0.0,0.0,0.6180300000000001,-0.16677000000000003,9.819809999999999
2272727250,21.84,0.0,0.0,0.0,0.59841,-0.15696000000000002,9.80019
2277777755,21.84,0.0,0.0,0.0,0.6180300000000001,-0.15696000000000002,9.79038
2282828260,21.84,0.0,0.0,0.0,0.5886,-0.14715,9.80019
2287878765,21.84,0.0,0.0,0.0,0.60822,-0.13734000000000002,9.80019
2292929270,21.84,0.0,0.0,0.0,0.60822,-0.13734000000000002,9.84924
2297979775,21.84,0.0,0.0,0.0,0.60822,-0.14715,9.80019
2303030280,21.84,0.0,0.0,0.0,0.60822,-0.18639,9.79038
2308080785,21.84,0.0,0.0,0.0,0.6180300000000001,-0.15696000000000002,9.83943
2313131290,21.84,0.0,0.0,0.0,0.60822,-0.14715,9.81
2318181795,21.84,0.0,0.0,0.0,0.59841,-0.15696000000000002,9.819809999999999
2323232300,21.84,0.0,0.0,0.0,0.6180300000000001,-0.16677000000000003,9.78057
2328282805,21.84,0.0,0.0,0.0,0.60822,-0.15696000000000002,9.81
2333333310,21.84,0.0,0.0,0.0,0.63765,-0.14715,9.819809999999999
2338383815,21.84,0.0,0.0,0.0,0.60822,-0.16677000000000003,9.81
2343434320,21.84,0.0,0.0,0.0,0.6180300000000001,-0.17658,9.819809999999999
2348484825,21.84,0.0,0.0,0.0,0.60822,-0.14715,9.80019
2353535330,21.84,0.0,0.0,0.0,0.59841,-0.15696000000000002,9.819809999999999
2358585835,21.84,0.0,0.0,0.0,0.6180300000000001,-0.17658,9.80019
2363636340,21.84,0.0,0.0,0.0,0.56898,-0.12753,9.819809999999999
2368686845,21.84,0.0,0.0,0.0,0.60822,-0.14715,9.82962
2373737350,21.84,0.0,0.0,0.0,0.60822,-0.16677000000000003,9.78057
2378787855,21.84,0.0,0.0,0.0,0.6180300000000001,-0.17658,9.80019
2383838360,21.84,0.0,0.0,0.0,0.60822,-0.15696000000000002,9.82962
2388888865,21.84,0.0,0.0,0.0,0.60822,-0.17658,9.81
2393939370,21.84,0.0,0.0,0.0,0.60822,-0.12753,9.79038
2398989875,21.84,0.0,0.0,0.0,0.60822,-0.16677000000000003,9.78057
2404040380,21.84,0.0,0.0,0.0,0.60822,-0.13734000000000002,9.82962
2409090885,21.84,0.0,0.0,0.0,0.6180300000000001,-0.15696000000000002,9.81
2414141390,21.84,0.0,0.0,0.0,0.60822,-0.14715,9.81
2419191895,21.84,0.0,0.0,0.0,0.57879,-0.18639,9.83943
2424242400,21.84,0.0,0.0,0.0,0.60822,-0.15696000000000002,9.819809999999999
2429292905,21.84,0.0,0.0,0.0,0.6180300000000001,-0.16677000000000003,9.819809999999999
2434343410,21.84,0.0,0.0,0.0,0.6278400000000001,-0.17658,9.80019
2439393915,21.84,0.0,0.0,0.0,0.59841,-0.16677000000000003,9.81
2444444420,21.84,0.0,0.0,0.0,0.60822,-0.15696000000000002,9.81
2449494925,21.84,0.0,0.0,0.0,0.57879,-0.13734000000000002,9.819809999999999
2454545430,21.84,0.0,0.0,0.0,0.60822,-0.15696000000000002,9.819809999999999
2459595935,21.84,0.0,0.0,0.0,0.60822,-0.15696000000000002,9.81
2464646440,21.84,0.0,0.0,0.0,0.60822,-0.14715,9.819809999999999
2469696945,21.84,0.0,0.0,0.0,0.6180300000000001,-0.14715,9.79038
2474747450,21.84,0.0,0.0,0.0,0.59841,-0.16677000000000003,9.80019
2479797955,21.84,0.0,0.0,0.0,0.60822,-0.15696000000000002,9.82962
2484848460,21.84,0.0,0.0,0.0,0.6180300000000001,-0.16677000000000003,9.80019
2489898965,21.84,0.0,0.0,0.0,0.60822,-0.16677000000000003,9.819809999999999
2494949470,21.84,0.0,0.0,0.0,0.60822,-0.14715,9.78057
2499999975,21.84,0.0,0.0,0.0,0.60822,-0.16677000000000003,9.79038
2505050480,21.84,0.0,0.0,0.0,0.60822,-0.15696000000000002,9.81
2510100985,21.84,0.0,0.0,0.0,0.56898,-0.15696000000000002,9.819809999999999
2515151490,21.84,0.0,0.0,0.0,0.60822,-0.14715,9.82962
2520201995,21.84,0.0,0.0,0.0,0.59841,-0.16677000000000003,9.80019
2525252500,21.84,0.0,0.0,0.0,0.60822,-0.14715,9.819809999999999
2530303005,21.84,0.0,0.0,0.0,0.60822,-0.15696000000000002,9.819809999999999
2535353510,21.84,0.0,0.0,0.0,0.59841,-0.20601000000000003,9.83943
2540404015,21.84,0.0,0.0,0.0,0.6180300000000001,-0.14715,9.81
2545454520,21.84,0.0,0.0,0.0,0.57879,-0.17658,9.78057
2550505025,21.84,0.0,0.0,0.0,0.6278400000000001,-0.17658,9.81
2555555530,21.84,0.0,0.0,0.0,0.60822,-0.12753,9.81
2560606035,21.84,0.0,0.0,0.0,0.59841,-0.12753,9.84924
2565656540,21.84,0.0,0.0,0.0,0.59841,-0.13734000000000002,9.819809999999999
2570707045,21.84,0.0,0.0,0.0,0.60822,-0.16677000000000003,9.770760000000001
2575757550,21.84,0.0,0.0,0.0,0.59841,-0.12753,9.79038
2580808055,21.84,0.0,0.0,0.0,0.6180300000000001,-0.15696000000000002,9.84924
2585858560,21.84,0.0,0.0,0.0,0.60822,-0.13734000000000002,9.82962
2590909065,21.84,0.0,0.0,0.0,0.60822,-0.17658,9.81
2595959570,21.84,0.0,0.0,0.0,0.5886,-0.16677000000000003,9.760950000000001
2601010075,21.84,0.0,0.0,0.0,0.59841,-0.14715,9.80019
2606060580,21.84,0.0,0.0,0.0,0.6180300000000001,-0.13734000000000002,9.819809999999999
2611111085,21.84,0.0,0.0,0.0,0.59841,-0.15696000000000002,9.82962
2616161590,21.84,0.0,0.0,0.0,0.59841,-0.17658,9.81
2621212095,21.84,0.0,0.0,0.0,0.60822,-0.16677000000000003,9.79038
2626262600,21.84,0.0,0.0,0.0,0.59841,-0.16677000000000003,9.79038
2631313105,21.84,0.0,0.0,0.0,0.60822,-0.14715,9.819809999999999
2636363610,21.84,0.0,0.0,0.0,0.6278400000000001,-0.16677000000000003,9.82962
2641414115,21.84,0.0,0.0,0.0,0.60822,-0.15696000000000002,9.80019
2646464620,21.84,0.0,0.0,0.0,0.6180300000000001,-0.17658,9.81
2651515125,21.84,0.0,0.0,0.0,0.6180300000000001,-0.13734000000000002,9.819809999999999
2656565630,21.84,0.0,0.0,0.0,0.60822,-0.13734000000000002,9.82962
2661616135,21.84,0.0,0.0,0.0,0.59841,-0.14715,9.82962
2666666640,21.84,0.0,0.0,0.0,0.59841,-0.15696000000000002,9.81
2671717145,21.84,0.0,0.0,0.0,0.60822,-0.15696000000000002,9.81
2676767650,21.84,0.0,0.0,0.0,0.60822,-0.15696000000000002,9.819809999999999
2681818155,21.84,0.0,0.0,0.0,0.60822,-0.16677000000000003,9.84924
2686868660,21.84,0.0,0.0,0.0,0.59841,-0.15696000000000002,9.80019
2691919165,21.84,0.0,0.0,0.0,0.60822,-0.18639,9.770760000000001
2696969670,21.84,0.0,0.0,0.0,0.59841,-0.14715,9.80019
2702020175,21.84,0.0,0.0,0.0,0.60822,-0.15696000000000002,9.81
2707070680,21.84,0.0,0.0,0.0,0.57879,-0.14715,9.82962
2712121185,21.84,0.0,0.0,0.0,0.59841,-0.17658,9.81
2717171690,21.84,0.0,0.0,0.0,0.60822,-0.15696000000000002,9.79038
2722222195,21.84,0.0,0.0,0.0,0.6180300000000001,-0.16677000000000003,9.81
2727272700,21.84,0.0,0.0,0.0,0.6180300000000001,-0.17658,9.81
2732323205,21.84,0.0,0.0,0.0,0.60822,-0.14715,9.84924
2737373710,21.84,0.0,0.0,0.0,0.59841,-0.17658,9.81
2742424215,21.84,0.0,0.0,0.0,0.5886,-0.17658,9.79038
2747474720,21.84,0.0,0.0,0.0,0.60822,-0.15696000000000002,9.819809999999999
2752525225,21.84,0.0,0.0,0.0,0.60822,-0.17658,9.82962
2757575730,21.84,0.0,0.0,0.0,0.56898,-0.15696000000000002,9.819809999999999
2762626235,21.84,0.0,0.0,0.0,0.59841,-0.16677000000000003,9.78057
2767676740,21.84,0.0,0.0,0.0,0.59841,-0.18639,9.82962
2772727245,21.84,0.0,0.0,0.0,0.60822,-0.13734000000000002,9.82962
2777777750,21.84,0.0,0.0,0.0,0.60822,-0.14715,9.82962
2782828255,21.84,0.0,0.0,0.0,0.5886,-0.10791,9.81
2787878760,21.84,0.0,0.0,0.0,0.60822,-0.15696000000000002,9.78057
2792929265,21.84,0.0,0.0,0.0,0.59841,-0.13734000000000002,9.81
2797979770,21.84,0.0,0.0,0.0,0.60822,-0.16677000000000003,9.819809999999999
2803030275,21.84,0.0,0.0,0.0,0.60822,-0.14715,9.84924
2808080780,21.84,0.0,0.0,0.0,0.57879,-0.14715,9.819809999999999
2813131285,21.84,0.0,0.0,0.0,0.59841,-0.15696000000000002,9.79038
2818181790,21.84,0.0,0.0,0.0,0.6180300000000001,-0.18639,9.79038
2823232295,21.84,0.0,0.0,0.0,0.60822,-0.15696000000000002,9.819809999999999
2828282800,21.84,0.0,0.0,0.0,0.60822,-0.15696000000000002,9.86886
2833333305,21.84,0.0,0.0,0.0,0.60822,-0.16677000000000003,9.819809999999999
2838383810,21.84,0.0,0.0,0.0,0.60822,-0.14715,9.770760000000001
2843434315,21.84,0.0,0.0,0.0,0.60822,-0.13734000000000002,9.770760000000001
2848484820,21.84,0.0,0.0,0.0,0.60822,-0.13734000000000002,9.83943
2853535325,21.84,0.0,0.0,0.0,0.57879,-0.15696000000000002,9.84924
2858585830,21.84,0.0,0.0,0.0,0.60822,-0.14715,9.82962
2863636335,21.84,0.0,0.0,0.0,0.57879,-0.14715,9.760950000000001
2868686840,21.84,0.0,0.0,0.0,0.60822,-0.13734000000000002,9.78057
2873737345,21.84,0.0,0.0,0.0,0.60822,-0.16677000000000003,9.81
2878787850,21.84,0.0,0.0,0.0,0.60822,-0.15696000000000002,9.84924
2883838355,21.84,0.0,0.0,0.0,0.60822,-0.14715,9.819809999999999
2888888860,21.84,0.0,0.0,0.0,0.59841,-0.16677000000000003,9.751140000000001
2893939365,21.84,0.0,0.0,0.0,0.6180300000000001,-0.16677000000000003,9.79038
2898989870,21.84,0.0,0.0,0.0,0.60822,-0.14715,9.81
2904040375,21.84,0.0,0.0,0.0,0.6180300000000001,-0.14715,9.83943
2909090880,21.84,0.0,0.0,0.0,0.60822,-0.13734000000000002,9.819809999999999
2914141385,21.84,0.0,0.0,0.0,0.60822,-0.15696000000000002,9.82962
2919191890,21.84,0.0,0.0,0.0,0.60822,-0.15696000000000002,9.79038
2924242395,21.84,0.0,0.0,0.0,0.5886,-0.16677000000000003,9.81
2929292900,21.84,0.0,0.0,0.0,0.60822,-0.14715,9.819809999999999
2934343405,21.84,0.0,0.0,0.0,0.60822,-0.16677000000000003,9.82962
2939393910,21.84,0.0,0.0,0.0,0.6180300000000001,-0.14715,9.80019
2944444415,21.84,0.0,0.0,0.0,0.59841,-0.15696000000000002,9.81
2949494920,21.84,0.0,0.0,0.0,0.5886,-0.15696000000000002,9.82962
2954545425,21.84,0.0,0.0,0.0,0.60822,-0.14715,9.80019
2959595930,21.84,0.0,0.0,0.0,0.59841,-0.15696000000000002,9.79038
2964646435,21.84,0.0,0.0,0.0,0.6180300000000001,-0.17658,9.83943
2969696940,21.84,0.0,0.0,0.0,0.59841,-0.15696000000000002,9.819809999999999
2974747445,21.84,0.0,0.0,0.0,0.60822,-0.15696000000000002,9.81
2979797950,21.84,0.0,0.0,0.0,0.60822,-0.15696000000000002,9.770760000000001
2984848455,21.84,0.0,0.0,0.0,0.59841,-0.16677000000000003,9.79038
2989898960,21.84,0.0,0.0,0.0,0.6180300000000001,-0.13734000000000002,9.82962
2994949465,21.84,0.0,0.0,0.0,0.59841,-0.16677000000000003,9.84924
2999999970,21.84,0.0,0.0,0.0,0.59841,-0.14715,9.81
3005050475,21.84,0.0,0.0,0.0,0.5886,-0.15696000000000002,9.78057
3010100980,21.84,0.0,0.0,0.0,0.60822,-0.14715,9.770760000000001
3015151485,21.84,0.0,0.0,0.0,0.60822,-0.16677000000000003,9.80019
3020201990,21.84,0.0,0.0,0.0,0.60822,-0.13734000000000002,9.84924
3025252495,21.84,0.0,0.0,0.0,0.59841,-0.16677000000000003,9.84924
3030303000,21.84,0.0,0.0,0.0,0.59841,-0.16677000000000003,9.81
3035353505,21.84,0.0,0.0,0.0,0.6180300000000001,-0.15696000000000002,9.78057
3040404010,21.84,0.0,0.0,0.0,0.59841,-0.16677000000000003,9.80019
3045454515,21.84,0.0,0.0,0.0,0.60822,-0.17658,9.819809999999999
3050505020,21.84,0.0,0.0,0.0,0.60822,-0.14715,9.819809999999999
3055555525,21.84,0.0,0.0,0.0,0.59841,-0.16677000000000003,9.80019
3060606030,21.84,0.0,0.0,0.0,0.59841,-0.14715,9.80019
3065656535,21.84,0.0,0.0,0.0,0.60822,-0.14715,9.80019
3070707040,21.84,0.0,0.0,0.0,0.60822,-0.13734000000000002,9.819809999999999
3075757545,21.84,0.0,0.0,0.0,0.57879,-0.13734000000000002,9.82962
3080808050,21.84,0.0,0.0,0.0,0.60822,-0.14715,9.81
3085858555,21.84,0.0,0.0,0.0,0.60822,-0.16677000000000003,9.80019
3090909060,21.84,0.0,0.0,0.0,0.60822,-0.15696000000000002,9.80019
3095959565,21.84,0.0,0.0,0.0,0.5886,-0.16677000000000003,9.80019
3101010070,21.84,0.0,0.0,0.0,0.5886,-0.17658,9.819809999999999
3106060575,21.84,0.0,0.0,0.0,0.6180300000000001,-0.17658,9.819809999999999
3111111080,21.84,0.0,0.0,0.0,0.60822,-0.18639,9.81
3116161585,21.84,0.0,0.0,0.0,0.6180300000000001,-0.15696000000000002,9.79038
3121212090,21.84,0.0,0.0,0.0,0.59841,-0.17658,9.81
3126262595,21.84,0.0,0.0,0.0,0.59841,-0.14715,9.81
3131313100,21.84,0.0,0.0,0.0,0.60822,-0.16677000000000003,9.81
3136363605,21.84,0.0,0.0,0.0,0.60822,-0.15696000000000002,9.83943
3141414110,21.84,0.0,0.0,0.0,0.59841,-0.16677000000000003,9.80019
3146464615,21.84,0.0,0.0,0.0,0.60822,-0.16677000000000003,9.80019
3151515120,21.84,0.0,0.0,0.0,0.60822,-0.15696000000000002,9.819809999999999
3156565625,21.84,0.0,0.0,0.0,0.60822,-0.16677000000000003,9.819809999999999
3161616130,21.84,0.0,0.0,0.0,0.60822,-0.16677000000000003,9.83943
3166666635,21.84,0.0,0.0,0.0,0.5886,-0.15696000000000002,9.81
3171717140,21.84,0.0,0.0,0.0,0.6180300000000001,-0.16677000000000003,9.80019
3176767645,21.84,0.0,0.0,0.0,0.6278400000000001,-0.15696000000000002,9.819809999999999
3181818150,21.84,0.0,0.0,0.0,0.6180300000000001,-0.16677000000000003,9.819809999999999
3186868655,21.84,0.0,0.0,0.0,0.60822,-0.17658,9.819809999999999
3191919160,21.84,0.0,0.0,0.0,0.60822,-0.17658,9.819809999999999
3196969665,21.84,0.0,0.0,0.0,0.5886,-0.15696000000000002,9.80019
3202020170,21.84,0.0,0.0,0.0,0.60822,-0.15696000000000002,9.79038
3207070675,21.84,0.0,0.0,0.0,0.60822,-0.14715,9.80019
3212121180,21.84,0.0,0.0,0.0,0.59841,-0.16677000000000003,9.819809999999999
3217171685,21.84,0.0,0.0,0.0,0.59841,-0.13734000000000002,9.819809999999999
3222222190,21.84,0.0,0.0,0.0,0.60822,-0.16677000000000003,9.81
3227272695,21.84,0.0,0.0,0.0,0.59841,-0.14715,9.78057
3232323200,21.84,0.0,0.0,0.0,0.60822,-0.17658,9.81
3237373705,21.84,0.0,0.0,0.0,0.60822,-0.17658,9.82962
3242424210,21.84,0.0,0.0,0.0,0.59841,-0.15696000000000002,9.82962
3247474715,21.84,0.0,0.0,0.0,0.59841,-0.14715,9.770760000000001
3252525220,21.84,0.0,0.0,0.0,0.59841,-0.16677000000000003,9.80019
3257575725,21.84,0.0,0.0,0.0,0.60822,-0.16677000000000003,9.80019
3262626230,21.84,0.0,0.0,0.0,0.59841,-0.15696000000000002,9.85905
3267676735,21.84,0.0,0.0,0.0,0.60822,-0.16677000000000003,9.84924
3272727240,21.84,0.0,0.0,0.0,0.60822,-0.15696000000000002,9.80019
3277777745,21.84,0.0,0.0,0.0,0.5886,-0.15696000000000002,9.78057
3282828250,21.84,0.0,0.0,0.0,0.5886,-0.15696000000000002,9.79038
3287878755,21.84,0.0,0.0,0.0,0.60822,-0.13734000000000002,9.84924
3292929260,21.84,0.0,0.0,0.0,0.60822,-0.16677000000000003,9.83943
3297979765,21.84,0.0,0.0,0.0,0.59841,-0.12753,9.82962
3303030270,21.84,0.0,0.0,0.0,0.6180300000000001,-0.16677000000000003,9.80019
3308080775,21.84,0.0,0.0,0.0,0.60822,-0.15696000000000002,9.78057
3313131280,21.84,0.0,0.0,0.0,0.60822,-0.15696000000000002,9.81
3318181785,21.84,0.0,0.0,0.0,0.60822,-0.16677000000000003,9.82962
3323232290,21.84,0.0,0.0,0.0,0.6180300000000001,-0.15696000000000002,9.82962
3328282795,21.84,0.0,0.0,0.0,0.60822,-0.16677000000000003,9.819809999999999
3333333300,21.84,0.0,0.0,0.0,0.59841,-0.14715,9.80019
3338383805,21.84,0.0,0.0,0.0,0.60822,-0.15696000000000002,9.78057
3343434310,21.84,0.0,0.0,0.0,0.59841,-0.13734000000000002,9.81
3348484815,21.84,0.0,0.0,0.0,0.60822,-0.16677000000000003,9.819809999999999
3353535320,21.84,0.0,0.0,0.0,0.60822,-0.14715,9.84924
3358585825,21.84,0.0,0.0,0.0,0.5886,-0.16677000000000003,9.81
3363636330,21.84,0.0,0.0,0.0,0.60822,-0.16677000000000003,9.770760000000001
3368686835,21.84,0.0,0.0,0.0,0.60822,-0.14715,9.80019
3373737340,21.84,0.0,0.0,0.0,0.59841,-0.14715,9.819809999999999
3378787845,21.84,0.0,0.0,0.0,0.6278400000000001,-0.16677000000000003,9.83943
3383838350,21.84,0.0,0.0,0.0,0.59841,-0.13734000000000002,9.80019
3388888855,21.84,0.0,0.0,0.0,0.5886,-0.17658,9.78057
3393939360,21.84,0.0,0.0,0.0,0.59841,-0.16677000000000003,9.78057
3398989865,21.84,0.0,0.0,0.0,0.60822,-0.16677000000000003,9.84924
3404040370,21.84,0.0,0.0,0.0,0.60822,-0.15696000000000002,9.84924
3409090875,21.84,0.0,0.0,0.0,0.6278400000000001,-0.16677000000000003,9.81
3414141380,21.84,0.0,0.0,0.0,0.59841,-0.17658,9.770760000000001
3419191885,21.84,0.0,0.0,0.0,0.60822,-0.15696000000000002,9.770760000000001
3424242390,21.84,0.0,0.0,0.0,0.60822,-0.16677000000000003,9.819809999999999
3429292895,21.84,0.0,0.0,0.0,0.60822,-0.16677000000000003,9.888480000000001
3434343400,21.84,0.0,0.0,0.0,0.60822,-0.15696000000000002,9.85905
3439393905,21.84,0.0,0.0,0.0,0.6180300000000001,-0.16677000000000003,9.751140000000001
3444444410,21.84,0.0,0.0,0.0,0.56898,-0.15696000000000002,9.73152
3449494915,21.84,0.0,0.0,0.0,0.59841,-0.15696000000000002,9.81
3454545420,21.84,0.0,0.0,0.0,0.60822,-0.16677000000000003,9.85905
3459595925,21.84,0.0,0.0,0.0,0.6180300000000001,-0.15696000000000002,9.84924
3464646430,21.84,0.0,0.0,0.0,0.59841,-0.13734000000000002,9.78057
3469696935,21.84,0.0,0.0,0.0,0.59841,-0.14715,9.760950000000001
3474747440,21.84,0.0,0.0,0.0,0.6278400000000001,-0.16677000000000003,9.80019
3479797945,21.84,0.0,0.0,0.0,0.59841,-0.14715,9.83943
3484848450,21.84,0.0,0.0,0.0,0.59841,-0.17658,9.819809999999999
3489898955,21.84,0.0,0.0,0.0,0.59841,-0.16677000000000003,9.80019
3494949460,21.84,0.0,0.0,0.0,0.6180300000000001,-0.15696000000000002,9.751140000000001
3499999965,21.84,0.0,0.0,0.0,0.60822,-0.14715,9.80019
3505050470,21.84,0.0,0.0,0.0,0.60822,-0.16677000000000003,9.83943
3510100975,21.84,0.0,0.0,0.0,0.6180300000000001,-0.15696000000000002,9.82962
3515151480,21.84,0.0,0.0,0.0,0.60822,-0.16677000000000003,9.770760000000001
3520201985,21.84,0.0,0.0,0.0,0.6180300000000001,-0.16677000000000003,9.80019
3525252490,21.84,0.0,0.0,0.0,0.59841,-0.18639,9.80019
3530302995,21.84,0.0,0.0,0.0,0.5886,-0.13734000000000002,9.81
3535353500,21.84,0.0,0.0,0.0,0.59841,-0.15696000000000002,9.81
3540404005,21.84,0.0,0.0,0.0,0.60822,-0.13734000000000002,9.82962
3545454510,21.84,0.0,0.0,0.0,0.60822,-0.18639,9.81
3550505015,21.84,0.0,0.0,0.0,0.59841,-0.16677000000000003,9.82962
3555555520,21.84,0.0,0.0,0.0,0.57879,-0.16677000000000003,9.80019
3560606025,21.84,0.0,0.0,0.0,0.60822,-0.16677000000000003,9.79038
3565656530,21.84,0.0,0.0,0.0,0.5886,-0.17658,9.819809999999999
3570707035,21.84,0.0,0.0,0.0,0.60822,-0.14715,9.82962
3575757540,21.84,0.0,0.0,0.0,0.60822,-0.14715,9.819809999999999
3580808045,21.84,0.0,0.0,0.0,0.6278400000000001,-0.13734000000000002,9.770760000000001
3585858550,21.84,0.0,0.0,0.0,0.6180300000000001,-0.13734000000000002,9.760950000000001
3590909055,21.84,0.0,0.0,0.0,0.60822,-0.15696000000000002,9.81
3595959560,21.84,0.0,0.0,0.0,0.60822,-0.14715,9.85905
3601010065,21.84,0.0,0.0,0.0,0.60822,-0.17658,9.82962
3606060570,21.84,0.0,0.0,0.0,0.6278400000000001,-0.14715,9.770760000000001
3611111075,21.84,0.0,0.0,0.0,0.60822,-0.16677000000000003,9.770760000000001
3616161580,21.84,0.0,0.0,0.0,0.60822,-0.13734000000000002,9.819809999999999
3621212085,21.84,0.0,0.0,0.0,0.59841,-0.15696000000000002,9.86886
3626262590,21.84,0.0,0.0,0.0,0.6180300000000001,-0.14715,9.83943
3631313095,21.84,0.0,0.0,0.0,0.59841,-0.17658,9.79038
3636363600,21.84,0.0,0.0,0.0,0.60822,-0.15696000000000002,9.770760000000001
3641414105,21.84,0.0,0.0,0.0,0.60822,-0.14715,9.80019
3646464610,21.84,0.0,0.0,0.0,0.60822,-0.14715,9.82962
3651515115,21.84,0.0,0.0,0.0,0.59841,-0.14715,9.82962
3656565620,21.84,0.0,0.0,0.0,0.60822,-0.15696000000000002,9.80019
3661616125,21.84,0.0,0.0,0.0,0.59841,-0.14715,9.80019
3666666630,21.84,0.0,0.0,0.0,0.59841,-0.15696000000000002,9.81
3671717135,21.84,0.0,0.0,0.0,0.60822,-0.15696000000000002,9.87867
3676767640,21.84,0.0,0.0,0.0,0.6180300000000001,-0.15696000000000002,9.819809999999999
3681818145,21.84,0.0,0.0,0.0,0.59841,-0.14715,9.819809999999999
3686868650,21.84,0.0,0.0,0.0,0.60822,-0.18639,9.770760000000001
3691919155,21.84,0.0,0.0,0.0,0.59841,-0.15696000000000002,9.80019
3696969660,21.84,0.0,0.0,0.0,0.5886,-0.1962,9.83943
3702020165,21.84,0.0,0.0,0.0,0.60822,-0.14715,9.85905
3707070670,21.84,0.0,0.0,0.0,0.60822,-0.18639,9.81
3712121175,21.84,0.0,0.0,0.0,0.6180300000000001,-0.16677000000000003,9.760950000000001
3717171680,21.84,0.0,0.0,0.0,0.60822,-0.13734000000000002,9.78057
3722222185,21.84,0.0,0.0,0.0,0.60822,-0.15696000000000002,9.82962
3727272690,21.84,0.0,0.0,0.0,0.59841,-0.15696000000000002,9.83943
3732323195,21.84,0.0,0.0,0.0,0.59841,-0.17658,9.82962
3737373700,21.84,0.0,0.0,0.0,0.60822,-0.16677000000000003,9.79038
3742424205,21.84,0.0,0.0,0.0,0.5591700000000001,-0.16677000000000003,9.79038
3747474710,21.84,0.0,0.0,0.0,0.6180300000000001,-0.15696000000000002,9.81
3752525215,21.84,0.0,0.0,0.0,0.60822,-0.17658,9.82962
3757575720,21.84,0.0,0.0,0.0,0.59841,-0.12753,9.81
3762626225,21.84,0.0,0.0,0.0,0.5886,-0.14715,9.81
3767676730,21.84,0.0,0.0,0.0,0.60822,-0.15696000000000002,9.80019
3772727235,21.84,0.0,0.0,0.0,0.59841,-0.14715,9.819809999999999
3777777740,21.84,0.0,0.0,0.0,0.60822,-0.12753,9.84924
3782828245,21.84,0.0,0.0,0.0,0.59841,-0.16677000000000003,9.84924
3787878750,21.84,0.0,0.0,0.0,0.59841,-0.15696000000000002,9.81
3792929255,21.84,0.0,0.0,0.0,0.59841,-0.14715,9.760950000000001
3797979760,21.84,0.0,0.0,0.0,0.60822,-0.15696000000000002,9.78057
3803030265,21.84,0.0,0.0,0.0,0.60822,-0.15696000000000002,9.819809999999999
3808080770,21.84,0.0,0.0,0.0,0.60822,-0.15696000000000002,9.84924
3813131275,21.84,0.0,0.0,0.0,0.60822,-0.15696000000000002,9.84924
3818181780,21.84,0.0,0.0,0.0,0.60822,-0.14715,9.78057
3823232285,21.84,0.0,0.0,0.0,0.60822,-0.18639,9.78057
3828282790,21.84,0.0,0.0,0.0,0.6180300000000001,-0.15696000000000002,9.770760000000001
3833333295,21.84,0.0,0.0,0.0,0.5886,-0.15696000000000002,9.84924
3838383800,21.84,0.0,0.0,0.0,0.60822,-0.14715,9.85905
3843434305,21.84,0.0,0.0,0.0,0.57879,-0.15696000000000002,9.819809999999999
3848484810,21.84,0.0,0.0,0.0,0.60822,-0.15696000000000002,9.760950000000001
3853535315,21.84,0.0,0.0,0.0,0.60822,-0.13734000000000002,9.751140000000001
3858585820,21.84,0.0,0.0,0.0,0.59841,-0.15696000000000002,9.81
3863636325,21.84,0.0,0.0,0.0,0.6180300000000001,-0.15696000000000002,9.86886
3868686830,21.84,0.0,0.0,0.0,0.60822,-0.16677000000000003,9.82962
3873737335,21.84,0.0,0.0,0.0,0.6180300000000001,-0.13734000000000002,9.81
3878787840,21.84,0.0,0.0,0.0,0.5886,-0.17658,9.78057
3883838345,21.84,0.0,0.0,0.0,0.60822,-0.15696000000000002,9.819809999999999
3888888850,21.84,0.0,0.0,0.0,0.6180300000000001,-0.15696000000000002,9.86886
3893939355,21.84,0.0,0.0,0.0,0.60822,-0.13734000000000002,9.83943
3898989860,21.84,0.0,0.0,0.0,0.59841,-0.18639,9.80019
3904040365,21.84,0.0,0.0,0.0,0.6180300000000001,-0.15696000000000002,9.80019
3909090870,21.84,0.0,0.0,0.0,0.59841,-0.16677000000000003,9.81
3914141375,21.84,0.0,0.0,0.0,0.6278400000000001,-0.13734000000000002,9.81
3919191880,21.84,0.0,0.0,0.0,0.60822,-0.15696000000000002,9.82962
3924242385,21.84,0.0,0.0,0.0,0.6278400000000001,-0.15696000000000002,9.80019
3929292890,21.84,0.0,0.0,0.0,0.60822,-0.16677000000000003,9.81
3934343395,21.84,0.0,0.0,0.0,0.60822,-0.14715,9.81
3939393900,21.84,0.0,0.0,0.0,0.59841,-0.13734000000000002,9.83943
3944444405,21.84,0.0,0.0,0.0,0.60822,-0.14715,9.819809999999999
3949494910,21.84,0.0,0.0,0.0,0.60822,-0.16677000000000003,9.81
3954545415,21.84,0.0,0.0,0.0,0.60822,-0.15696000000000002,9.81
3959595920,21.84,0.0,0.0,0.0,0.5886,-0.16677000000000003,9.819809999999999
3964646425,21.84,0.0,0.0,0.0,0.56898,-0.15696000000000002,9.82962
3969696930,21.84,0.0,0.0,0.0,0.6278400000000001,-0.15696000000000002,9.82962
3974747435,21.84,0.0,0.0,0.0,0.60822,-0.15696000000000002,9.81
3979797940,21.84,0.0,0.0,0.0,0.60822,-0.15696000000000002,9.81
3984848445,21.84,0.0,0.0,0.0,0.59841,-0.14715,9.81
3989898950,21.84,0.0,0.0,0.0,0.59841,-0.17658,9.80019
3994949455,21.84,0.0,0.0,0.0,0.6180300000000001,-0.15696000000000002,9.81
3999999960,21.84,0.0,0.0,0.0,0.6180300000000001,-0.16677000000000003,9.82962
4005050465,21.84,0.0,0.0,0.0,0.60822,-0.13734000000000002,9.819809999999999
4010100970,21.84,0.0,0.0,0.0,0.59841,-0.15696000000000002,9.81
4015151475,21.84,0.0,0.0,0.0,0.59841,-0.14715,9.80019
4020201980,21.84,0.0,0.0,0.0,0.6180300000000001,-0.16677000000000003,9.79038
4025252485,21.84,0.0,0.0,0.0,0.6180300000000001,-0.14715,9.819809999999999
4030302990,21.84,0.0,0.0,0.0,0.6180300000000001,-0.16677000000000003,9.83943
4035353495,21.84,0.0,0.0,0.0,0.59841,-0.14715,9.819809999999999
4040404000,21.84,0.0,0.0,0.0,0.6180300000000001,-0.16677000000000003,9.79038
4045454505,21.84,0.0,0.0,0.0,0.6278400000000001,-0.16677000000000003,9.79038
4050505010,21.84,0.0,0.0,0.0,0.57879,-0.17658,9.80019
4055555515,21.84,0.0,0.0,0.0,0.59841,-0.16677000000000003,9.83943
4060606020,21.84,0.0,0.0,0.0,0.63765,-0.15696000000000002,9.83943
4065656525,21.84,0.0,0.0,0.0,0.6180300000000001,-0.14715,9.79038
4070707030,21.84,0.0,0.0,0.0,0.60822,-0.14715,9.79038
4075757535,21.84,0.0,0.0,0.0,0.60822,-0.14715,9.819809999999999
4080808040,21.84,0.0,0.0,0.0,0.63765,-0.13734000000000002,9.83943
4085858545,21.84,0.0,0.0,0.0,0.60822,-0.16677000000000003,9.819809999999999
4090909050,21.84,0.0,0.0,0.0,0.6278400000000001,-0.15696000000000002,9.78057
4095959555,21.84,0.0,0.0,0.0,0.59841,-0.16677000000000003,9.770760000000001
4101010060,21.84,0.0,0.0,0.0,0.59841,-0.12753,9.81
4106060565,21.84,0.0,0.0,0.0,0.60822,-0.15696000000000002,9.85905
4111111070,21.84,0.0,0.0,0.0,0.60822,-0.15696000000000002,9.819809999999999
4116161575,21.84,0.0,0.0,0.0,0.59841,-0.16677000000000003,9.78057
4121212080,21.84,0.0,0.0,0.0,0.60822,-0.13734000000000002,9.760950000000001
4126262585,21.84,0.0,0.0,0.0,0.6180300000000001,-0.15696000000000002,9.79038
4131313090,21.84,0.0,0.0,0.0,0.6278400000000001,-0.14715,9.84924
4136363595,21.84,0.0,0.0,0.0,0.60822,-0.16677000000000003,9.819809999999999
4141414100,21.84,0.0,0.0,0.0,0.60822,-0.16677000000000003,9.81
4146464605,21.84,0.0,0.0,0.0,0.6180300000000001,-0.16677000000000003,9.770760000000001
4151515110,21.84,0.0,0.0,0.0,0.6180300000000001,-0.16677000000000003,9.79038
4156565615,21.84,0.0,0.0,0.0,0.60822,-0.14715,9.83943
4161616120,21.84,0.0,0.0,0.0,0.59841,-0.15696000000000002,9.86886
4166666625,21.84,0.0,0.0,0.0,0.60822,-0.15696000000000002,9.79038
4171717130,21.84,0.0,0.0,0.0,0.60822,-0.16677000000000003,9.78057
4176767635,21.84,0.0,0.0,0.0,0.59841,-0.16677000000000003,9.80019
4181818140,21.84,0.0,0.0,0.0,0.59841,-0.17658,9.84924
4186868645,21.84,0.0,0.0,0.0,0.59841,-0.16677000000000003,9.82962
4191919150,21.84,0.0,0.0,0.0,0.60822,-0.17658,9.81
4196969655,21.84,0.0,0.0,0.0,0.5886,-0.15696000000000002,9.79038
4202020160,21.84,0.0,0.0,0.0,0.60822,-0.14715,9.819809999999999
4207070665,21.84,0.0,0.0,0.0,0.59841,-0.15696000000000002,9.82962
4212121170,21.84,0.0,0.0,0.0,0.60822,-0.13734000000000002,9.82962
4217171675,21.84,0.0,0.0,0.0,0.59841,-0.15696000000000002,9.80019
4222222180,21.84,0.0,0.0,0.0,0.5886,-0.15696000000000002,9.78057
4227272685,21.84,0.0,0.0,0.0,0.60822,-0.14715,9.81
4232323190,21.84,0.0,0.0,0.0,0.6278400000000001,-0.15696000000000002,9.81
4237373695,21.84,0.0,0.0,0.0,0.60822,-0.15696000000000002,9.81
4242424200,21.84,0.0,0.0,0.0,0.60822,-0.14715,9.81
4247474705,21.84,0.0,0.0,0.0,0.60822,-0.14715,9.81
4252525210,21.84,0.0,0.0,0.0,0.59841,-0.17658,9.81
4257575715,21.84,0.0,0.0,0.0,0.60822,-0.16677000000000003,9.81
4262626220,21.84,0.0,0.0,0.0,0.60822,-0.15696000000000002,9.81
4267676725,21.84,0.0,0.0,0.0,0.60822,-0.16677000000000003,9.81
4272727230,21.84,0.0,0.0,0.0,0.6180300000000001,-0.12753,9.84924
4277777735,21.84,0.0,0.0,0.0,0.57879,-0.18639,9.819809999999999
4282828240,21.84,0.0,0.0,0.0,0.6180300000000001,-0.14715,9.81
4287878745,21.84,0.0,0.0,0.0,0.60822,-0.18639,9.78057
4292929250,21.84,0.0,0.0,0.0,0.6180300000000001,-0.15696000000000002,9.81
4297979755,21.84,0.0,0.0,0.0,0.59841,-0.16677000000000003,9.82962
4303030260,21.84,0.0,0.0,0.0,0.60822,-0.14715,9.82962
4308080765,21.84,0.0,0.0,0.0,0.60822,-0.16677000000000003,9.79038
4313131270,21.84,0.0,0.0,0.0,0.57879,-0.14715,9.78057
4318181775,21.84,0.0,0.0,0.0,0.5886,-0.18639,9.81
4323232280,21.84,0.0,0.0,0.0,0.59841,-0.15696000000000002,9.83943
4328282785,21.84,0.0,0.0,0.0,0.60822,-0.18639,9.82962
4333333290,21.84,0.0,0.0,0.0,0.59841,-0.13734000000000002,9.79038
4338383795,21.84,0.0,0.0,0.0,0.60822,-0.14715,9.74133
4343434300,21.84,0.0,0.0,0.0,0.60822,-0.15696000000000002,9.81
4348484805,21.84,0.0,0.0,0.0,0.6180300000000001,-0.18639,9.84924
4353535310,21.84,0.0,0.0,0.0,0.6180300000000001,-0.14715,9.82962
4358585815,21.84,0.0,0.0,0.0,0.59841,-0.14715,9.79038
4363636320,21.84,0.0,0.0,0.0,0.5591700000000001,-0.16677000000000003,9.751140000000001
4368686825,21.84,0.0,0.0,0.0,0.56898,-0.14715,9.819809999999999
4373737330,21.84,0.0,0.0,0.0,0.6180300000000001,-0.14715,9.87867
4378787835,21.84,0.0,0.0,0.0,0.60822,-0.16677000000000003,9.83943
4383838340,21.84,0.0,0.0,0.0,0.60822,-0.18639,9.79038
4388888845,21.84,0.0,0.0,0.0,0.6180300000000001,-0.16677000000000003,9.78057
4393939350,21.84,0.0,0.0,0.0,0.6180300000000001,-0.16677000000000003,9.79038
4398989855,21.84,0.0,0.0,0.0,0.60822,-0.15696000000000002,9.85905
4404040360,21.84,0.0,0.0,0.0,0.60822,-0.16677000000000003,9.84924
4409090865,21.84,0.0,0.0,0.0,0.59841,-0.15696000000000002,9.80019
4414141370,21.84,0.0,0.0,0.0,0.57879,-0.15696000000000002,9.78057
4419191875,21.84,0.0,0.0,0.0,0.60822,-0.17658,9.81
4424242380,21.84,0.0,0.0,0.0,0.6180300000000001,-0.16677000000000003,9.82962
4429292885,21.84,0.0,0.0,0.0,0.6180300000000001,-0.13734000000000002,9.79038
4434343390,21.84,0.0,0.0,0.0,0.59841,-0.13734000000000002,9.80019
4439393895,21.84,0.0,0.0,0.0,0.60822,-0.13734000000000002,9.81
4444444400,21.84,0.0,0.0,0.0,0.6278400000000001,-0.16677000000000003,9.81
4449494905,21.84,0.0,0.0,0.0,0.6180300000000001,-0.15696000000000002,9.81
4454545410,21.84,0.0,0.0,0.0,0.59841,-0.15696000000000002,9.78057
4459595915,21.84,0.0,0.0,0.0,0.60822,-0.16677000000000003,9.79038
4464646420,21.84,0.0,0.0,0.0,0.60822,-0.17658,9.83943
4469696925,21.84,0.0,0.0,0.0,0.59841,-0.17658,9.82962
4474747430,21.84,0.0,0.0,0.0,0.60822,-0.14715,9.81
4479797935,21.84,0.0,0.0,0.0,0.59841,-0.18639,9.81
4484848440,21.84,0.0,0.0,0.0,0.59841,-0.15696000000000002,9.78057
4489898945,21.84,0.0,0.0,0.0,0.60822,-0.17658,9.80019
4494949450,21.84,0.0,0.0,0.0,0.6180300000000001,-0.14715,9.84924
4499999955,21.84,0.0,0.0,0.0,0.6180300000000001,-0.18639,9.81
4505050460,21.84,0.0,0.0,0.0,0.6180300000000001,-0.13734000000000002,9.770760000000001
4510100965,21.84,0.0,0.0,0.0,0.5886,-0.14715,9.81
4515151470,21.84,0.0,0.0,0.0,0.60822,-0.17658,9.85905
4520201975,21.84,0.0,0.0,0.0,0.60822,-0.15696000000000002,9.85905
4525252480,21.84,0.0,0.0,0.0,0.60822,-0.15696000000000002,9.78057
4530302985,21.84,0.0,0.0,0.0,0.60822,-0.14715,9.79038
4535353490,21.84,0.0,0.0,0.0,0.6180300000000001,-0.14715,9.751140000000001
4540403995,21.84,0.0,0.0,0.0,0.60822,-0.14715,9.83943
4545454500,21.84,0.0,0.0,0.0,0.60822,-0.18639,9.86886
4550505005,21.84,0.0,0.0,0.0,0.59841,-0.13734000000000002,9.79038
4555555510,21.84,0.0,0.0,0.0,0.5886,-0.14715,9.7119
4560606015,21.84,0.0,0.0,0.0,0.60822,-0.16677000000000003,9.770760000000001
4565656520,21.84,0.0,0.0,0.0,0.6180300000000001,-0.12753,9.819809999999999
4570707025,21.84,0.0,0.0,0.0,0.6180300000000001,-0.15696000000000002,9.84924
4575757530,21.84,0.0,0.0,0.0,0.6278400000000001,-0.12753,9.82962
4580808035,21.84,0.0,0.0,0.0,0.59841,-0.13734000000000002,9.73152
4585858540,21.84,0.0,0.0,0.0,0.60822,-0.17658,9.78057
4590909045,21.84,0.002129301687433082,0.02556907354171693,0.0,0.65727,-0.14715,9.73152
4595959550,21.84,0.00958185759344887,0.08841837990603273,0.0,0.5886,-0.10791,9.82962
4601010055,21.84,-0.005323254218582705,0.12356931104119852,0.014905111812031574,0.37278,-0.08829,9.91791
4606060560,21.84,0.004258603374866164,0.150203035426632,0.003193952531149623,0.45126,0.009810000000000001,9.33912
4611111065,21.84,-0.021310470166850764,0.08735372906231618,-0.004258603374866164,0.17658,0.0,9.40779
4616161570,21.84,-0.0170518667919846,0.0852244273748831,0.014905111812031574,0.28449,-0.10791,10.163160000000001
4621212075,21.84,-0.03089232776029963,-0.0,-0.001064650843716541,0.12753,-0.1962,10.33974
4626262580,21.84,-0.02769837522915001,-0.04366813788489812,0.002129301687433082,0.18639,-0.28449,10.006200000000002
4631313085,21.84,-0.02982767691658309,-0.12356931104119852,-0.012775810124598492,0.17658,-0.42183,9.78057
4636363590,21.84,-0.03515093113516579,-0.20240583335378237,-0.007452555906015787,0.48069000000000006,-0.50031,9.358740000000001
4641414095,21.84,-0.011711159280881954,-0.19493582415524666,-0.005323254218582705,0.71613,-0.45126,9.66285
4646464600,21.84,0.003193952531149623,-0.2162462943220974,-0.00958185759344887,1.00062,-0.51012,10.50651
4651515105,21.84,0.028763026072866547,-0.14381513036433274,0.003193952531149623,1.16739,-0.41202000000000005,10.35936
4656565610,21.84,0.04153883619746504,-0.08628907821859966,-0.005323254218582705,1.16739,-0.2943,9.67266
4661616115,21.84,0.06178465552059926,-0.028763026072866547,0.001064650843716541,1.08891,-0.14715,9.182160000000001
4666666620,21.84,0.07456046564519776,0.011711159280881954,-0.001064650843716541,1.02024,0.019620000000000002,9.182160000000001
4671717125,21.84,0.07349581480148122,0.03089232776029963,0.00958185759344887,1.1183400000000001,0.15696000000000002,9.95715
4676767630,21.84,0.05646140130201656,0.04153883619746504,0.006387905062299246,1.02024,0.27468000000000004,10.27107
4681818135,21.84,0.015987215948268057,0.013840460968315033,-0.001064650843716541,0.9221400000000001,0.14715,10.19259
4686868640,21.84,-0.007452555906015787,0.014905111812031574,-0.003193952531149623,0.87309,0.07848000000000001,9.87867
4691919145,21.84,-0.01811651763570114,-0.00958185759344887,-0.00958185759344887,0.7749900000000001,0.0,9.182160000000001
4696969650,21.84,-0.021310470166850764,0.02769837522915001,0.005323254218582705,0.90252,0.0,9.4176
4702020155,21.84,-0.031956978604016174,0.06497860805174888,0.0,0.8142300000000001,-0.04905,9.770760000000001
4707070660,21.84,-0.044732788728614664,0.10866419922916695,0.006387905062299246,0.7651800000000001,-0.08829,10.006200000000002
4712121165,21.84,-0.05113814708343386,0.16084954386379738,0.006387905062299246,0.65727,-0.13734000000000002,9.937529999999999
4717171670,21.84,-0.05752605214573309,0.15126768627034853,0.002129301687433082,0.47088,-0.16677000000000003,9.66285
4722222175,21.84,-0.054332099614583476,0.1278279144160647,0.007452555906015787,0.41202000000000005,-0.27468000000000004,9.633420000000001
4727272680,21.84,-0.0404741853537485,0.07243116395776468,0.002129301687433082,0.25506,-0.28449,9.81
4732323185,21.84,-0.02663372438543347,0.06284930636431581,-0.002129301687433082,0.33354000000000006,-0.30411,9.96696
4737373690,21.84,-0.024504422698000388,0.03728023282259888,0.0,0.26487,-0.34335000000000004,10.11411
4742424195,21.84,-0.006387905062299246,0.03621558197888234,0.002129301687433082,0.20601000000000003,-0.3924,9.74133
4747474700,21.84,-0.006387905062299246,0.03408628029144926,0.001064650843716541,0.15696000000000002,-0.33354000000000006,9.52551
4752525205,21.84,0.0,0.020245819323134222,0.001064650843716541,0.22563,-0.25506,9.66285
4757575710,21.84,0.011711159280881954,0.01811651763570114,0.005323254218582705,0.21582,-0.12753,10.08468
4762626215,21.84,0.02982767691658309,-0.01064650843716541,0.002129301687433082,0.22563,-0.12753,10.045440000000001
4767676720,21.84,0.02982767691658309,-0.02663372438543347,-0.003193952531149623,0.20601000000000003,-0.0981,9.99639
4772727225,21.84,0.007452555906015787,-0.05752605214573309,-0.00958185759344887,0.27468000000000004,-0.07848000000000001,9.64323
4777777730,21.84,0.011711159280881954,-0.06923721142661506,0.002129301687433082,0.32373,-0.07848000000000001,9.45684
4782828235,21.84,0.004258603374866164,-0.07883652231258387,0.0,0.41202000000000005,-0.12753,10.01601
4787878740,21.84,-0.005323254218582705,-0.09587093581204853,-0.002129301687433082,0.5493600000000001,-0.18639,10.12392
4792929245,21.84,-0.015987215948268057,-0.09374163412461543,-0.002129301687433082,0.57879,-0.11772,9.78057
4797979750,21.84,-0.00958185759344887,-0.11398745344774965,-0.002129301687433082,0.6278400000000001,-0.21582,9.67266
4803030255,21.84,0.00958185759344887,-0.12037535851004891,-0.001064650843716541,0.75537,-0.24525000000000002,9.633420000000001
4808080760,21.84,0.005323254218582705,-0.12250466019748199,-0.004258603374866164,0.8338500000000001,-0.26487,9.91791
4813131265,21.84,0.012775810124598492,-0.11505210429146619,-0.002129301687433082,0.9711900000000001,-0.23544,9.94734
4818181770,21.84,0.005323254218582705,-0.09800023749948161,-0.004258603374866164,0.9908100000000001,-0.27468000000000004,9.888480000000001
4823232275,21.84,0.012775810124598492,-0.06710790973918197,-0.002129301687433082,1.05948,-0.22563,9.70209
4828282780,21.84,0.021310470166850764,-0.024504422698000388,0.001064650843716541,1.0791000000000002,-0.15696000000000002,9.56475
4833333285,21.84,0.028763026072866547,0.006387905062299246,0.003193952531149623,1.0791000000000002,-0.07848000000000001,9.69228
4838383790,21.84,0.03089232776029963,0.04581489286485115,0.001064650843716541,1.03986,0.019620000000000002,9.92772
4843434295,21.84,0.013840460968315033,0.07243116395776468,0.002129301687433082,0.9908100000000001,0.04905,9.937529999999999
4848484800,21.84,0.003193952531149623,0.10438814256178083,0.003193952531149623,0.86328,0.06867000000000001,9.79038
4853535305,21.84,-0.014905111812031574,0.13102186694721432,0.002129301687433082,0.73575,0.039240000000000004,9.68247
4858585810,21.84,-0.02663372438543347,0.14381513036433274,0.008517206749732328,0.6278400000000001,0.04905,9.6138
4863636315,21.84,-0.03834488366631542,0.13955652698946658,0.007452555906015787,0.51012,-0.019620000000000002,9.78057
4868686820,21.84,-0.04581489286485115,0.12463396188491506,0.006387905062299246,0.40221,-0.0981,9.94734
4873737325,21.84,-0.05539675045830002,0.10545279340549739,0.002129301687433082,0.34335000000000004,-0.18639,9.937529999999999
4878787830,21.84,-0.05859070298944965,0.08309512568745003,0.002129301687433082,0.27468000000000004,-0.28449,9.83943
4883838335,21.84,-0.05859070298944965,0.044732788728614664,0.002129301687433082,0.22563,-0.3924,9.78057
4888888840,21.84,-0.049008845396000776,0.011711159280881954,-0.001064650843716541,0.24525000000000002,-0.46107000000000004,9.89829
4893939345,21.84,-0.03089232776029963,-0.021310470166850764,-0.002129301687433082,0.28449,-0.50031,9.91791
4898989850,21.84,-0.007452555906015787,-0.0404741853537485,-0.002129301687433082,0.37278,-0.45126,9.84924
4904040355,21.84,0.012775810124598492,-0.04794419455228423,-0.005323254218582705,0.41202000000000005,-0.42183,9.760950000000001
4909090860,21.84,0.03089232776029963,-0.05752605214573309,0.0,0.42183,-0.31392000000000003,9.65304
4914141365,21.84,0.03834488366631542,-0.05220279792715039,0.002129301687433082,0.51012,-0.23544,9.751140000000001
4919191870,21.84,0.04581489286485115,-0.05539675045830002,-0.002129301687433082,0.5493600000000001,-0.10791,10.01601
4924242375,21.84,0.044732788728614664,-0.04794419455228423,0.0,0.59841,-0.009810000000000001,10.045440000000001
4929292880,21.84,0.03834488366631542,-0.04153883619746504,0.0,0.57879,0.0,9.819809999999999
4934343385,21.84,0.031956978604016174,-0.04153883619746504,-0.001064650843716541,0.56898,0.009810000000000001,9.45684
4939393890,21.84,0.02769837522915001,-0.046879543708567686,0.0,0.60822,0.039240000000000004,9.42741
4944444395,21.84,0.011711159280881954,-0.04581489286485115,0.0,0.6180300000000001,0.02943,9.760950000000001
4949494900,21.84,-0.008517206749732328,-0.04366813788489812,0.003193952531149623,0.70632,0.019620000000000002,10.09449
4954545405,21.84,-0.020245819323134222,-0.03408628029144926,-0.002129301687433082,0.74556,-0.06867000000000001,10.074869999999999
4959595910,21.84,-0.028763026072866547,-0.028763026072866547,-0.002129301687433082,0.75537,-0.13734000000000002,9.69228
4964646415,21.84,-0.03089232776029963,-0.022375121010567305,0.0,0.73575,-0.17658,9.358740000000001
4969696920,21.84,-0.02556907354171693,-0.015987215948268057,0.0,0.7749900000000001,-0.20601000000000003,9.56475
4974747425,21.84,-0.022375121010567305,0.0,0.0,0.8338500000000001,-0.22563,10.03563
4979797930,21.84,-0.023439771854283843,0.014905111812031574,0.0,0.8338500000000001,-0.25506,10.163160000000001
4984848435,21.84,-0.014905111812031574,0.02982767691658309,0.0,0.7651800000000001,-0.22563,9.82962
4989898940,21.84,-0.012775810124598492,0.03834488366631542,0.002129301687433082,0.70632,-0.24525000000000002,9.47646
4994949445,21.84,-0.002129301687433082,0.03515093113516579,0.002129301687433082,0.65727,-0.20601000000000003,9.52551
4999999950,21.84,-0.001064650843716541,0.031956978604016174,0.0,0.65727,-0.15696000000000002,9.91791
5005050455,21.84,0.001064650843716541,0.031956978604016174,0.002129301687433082,0.6768900000000001,-0.13734000000000002,10.23183
5010100960,21.84,0.0,0.039409534510031964,0.001064650843716541,0.60822,-0.13734000000000002,10.045440000000001
5015151465,21.84,-0.011711159280881954,0.039409534510031964,0.0,0.52974,-0.16677000000000003,9.56475
5020201970,21.84,-0.012775810124598492,0.03834488366631542,0.0,0.49050000000000005,-0.13734000000000002,9.37836
5025252475,21.84,-0.012775810124598492,0.033021629447732716,0.003193952531149623,0.50031,-0.16677000000000003,9.82962
5030302980,21.84,-0.015987215948268057,0.031956978604016174,0.002129301687433082,0.51993,-0.16677000000000003,10.212209999999999
5035353485,21.84,-0.0170518667919846,0.03834488366631542,0.004258603374866164,0.50031,-0.1962,10.19259
5040403990,21.84,-0.021310470166850764,0.03834488366631542,-0.001064650843716541,0.43164,-0.22563,9.73152
5045454495,21.84,-0.014905111812031574,0.01918116847941768,0.0,0.3924,-0.24525000000000002,9.42741
5050505000,21.84,-0.013840460968315033,0.007452555906015787,0.003193952531149623,0.40221,-0.24525000000000002,9.64323
5055555505,21.84,-0.013840460968315033,-0.011711159280881954,-0.001064650843716541,0.44145,-0.26487,10.09449
5060606010,21.84,-0.012775810124598492,-0.02663372438543347,0.0,0.48069000000000006,-0.26487,10.17297
5065656515,21.84,-0.003193952531149623,-0.033021629447732716,-0.001064650843716541,0.48069000000000006,-0.2943,9.83943
5070707020,21.84,0.007452555906015787,-0.03834488366631542,0.0,0.51012,-0.24525000000000002,9.496080000000001
5075757525,21.84,0.015987215948268057,-0.044732788728614664,0.0,0.52974,-0.21582,9.5157
5080808030,21.84,0.01811651763570114,-0.04794419455228423,0.0,0.6180300000000001,-0.1962,9.91791
5085858535,21.84,0.01811651763570114,-0.03515093113516579,0.001064650843716541,0.6768900000000001,-0.12753,10.08468
5090909040,21.84,0.014905111812031574,-0.02663372438543347,-0.001064650843716541,0.6278400000000001,-0.10791,9.83943
5095959545,21.84,0.013840460968315033,-0.021310470166850764,0.003193952531149623,0.63765,-0.07848000000000001,9.5157
5101010050,21.84,0.012775810124598492,-0.021310470166850764,0.003193952531149623,0.6180300000000001,-0.04905,9.48627
5106060555,21.84,0.00958185759344887,-0.023439771854283843,0.0,0.6670800000000001,-0.009810000000000001,9.68247
5111111060,21.84,0.002129301687433082,-0.021310470166850764,0.0,0.71613,-0.019620000000000002,10.006200000000002
5116161565,21.84,-0.006387905062299246,-0.014905111812031574,0.001064650843716541,0.72594,-0.06867000000000001,9.937529999999999
5121212070,21.84,-0.015987215948268057,-0.003193952531149623,0.0,0.69651,-0.06867000000000001,9.69228
5126262575,21.84,-0.021310470166850764,0.007452555906015787,0.002129301687433082,0.70632,-0.10791,9.57456
5131313080,21.84,-0.02556907354171693,0.015987215948268057,0.002129301687433082,0.70632,-0.14715,9.770760000000001
5136363585,21.84,-0.02663372438543347,0.014905111812031574,0.001064650843716541,0.69651,-0.1962,9.95715
5141414090,21.84,-0.02769837522915001,0.01918116847941768,0.002129301687433082,0.69651,-0.24525000000000002,9.97677
5146464595,21.84,-0.028763026072866547,0.01811651763570114,0.001064650843716541,0.63765,-0.28449,9.819809999999999
5151515100,21.84,-0.024504422698000388,0.01918116847941768,0.0,0.6278400000000001,-0.32373,9.78057
5156565605,21.84,-0.022375121010567305,0.0170518667919846,0.0,0.63765,-0.2943,9.87867
5161616110,21.84,-0.01811651763570114,0.01918116847941768,0.0,0.60822,-0.31392000000000003,9.99639
5166666615,21.84,-0.012775810124598492,0.023439771854283843,0.0,0.6180300000000001,-0.31392000000000003,9.96696
5171717120,21.84,-0.004258603374866164,0.028763026072866547,0.001064650843716541,0.56898,-0.24525000000000002,9.760950000000001
5176767625,21.84,0.004258603374866164,0.028763026072866547,0.003193952531149623,0.5493600000000001,-0.24525000000000002,9.74133
5181818130,21.84,0.007452555906015787,0.021310470166850764,0.002129301687433082,0.49050000000000005,-0.20601000000000003,9.83943
5186868635,21.84,0.004258603374866164,0.01811651763570114,0.0,0.51012,-0.1962,9.91791
5191919140,21.84,0.005323254218582705,0.00958185759344887,0.001064650843716541,0.50031,-0.15696000000000002,9.888480000000001
5196969645,21.84,0.006387905062299246,0.001064650843716541,-0.001064650843716541,0.50031,-0.12753,9.66285
5202020150,21.84,0.006387905062299246,-0.00958185759344887,0.0,0.47088,-0.13734000000000002,9.623610000000001
5207070655,21.84,0.004258603374866164,-0.015987215948268057,0.0,0.51012,-0.10791,9.66285
5212121160,21.84,0.0,-0.01811651763570114,0.0,0.52974,-0.0981,9.83943
5217171665,21.84,0.0,-0.020245819323134222,0.0,0.56898,-0.08829,9.81
5222222170,21.84,-0.004258603374866164,-0.015987215948268057,0.0,0.5395500000000001,-0.0981,9.72171
5227272675,21.84,-0.007452555906015787,-0.0170518667919846,0.0,0.52974,-0.11772,9.59418
5232323180,21.84,-0.006387905062299246,-0.02769837522915001,0.001064650843716541,0.57879,-0.12753,9.66285
5237373685,21.84,-0.014905111812031574,-0.033021629447732716,-0.002129301687433082,0.64746,-0.12753,9.82962
5242424190,21.84,-0.014905111812031574,-0.03408628029144926,0.0,0.64746,-0.15696000000000002,9.94734
5247474695,21.84,-0.015987215948268057,-0.02663372438543347,0.001064650843716541,0.6867000000000001,-0.1962,9.85905
5252525200,21.84,-0.0170518667919846,-0.014905111812031574,0.001064650843716541,0.70632,-0.22563,9.72171
5257575705,21.84,-0.020245819323134222,-0.003193952531149623,0.002129301687433082,0.70632,-0.21582,9.70209
5262626210,21.84,-0.021310470166850764,-0.0,-0.001064650843716541,0.71613,-0.23544,9.81
5267676715,21.84,-0.01811651763570114,0.002129301687433082,0.0,0.71613,-0.24525000000000002,9.95715
5272727220,21.84,-0.013840460968315033,0.00958185759344887,0.0,0.69651,-0.26487,10.025820000000001
5277777725,21.84,-0.00958185759344887,0.0170518667919846,-0.001064650843716541,0.6867000000000001,-0.26487,9.86886
5282828230,21.84,-0.00958185759344887,0.01811651763570114,0.002129301687433082,0.65727,-0.28449,9.74133
5287878735,21.84,-0.004258603374866164,0.023439771854283843,0.001064650843716541,0.63765,-0.24525000000000002,9.7119
5292929240,21.84,-0.003193952531149623,0.01811651763570114,0.002129301687433082,0.6278400000000001,-0.20601000000000003,9.85905
5297979745,21.84,-0.004258603374866164,0.02982767691658309,0.003193952531149623,0.6278400000000001,-0.1962,9.908100000000001
5303030250,21.84,-0.003193952531149623,0.039409534510031964,0.0,0.57879,-0.15696000000000002,9.89829
5308080755,21.84,0.0,0.0404741853537485,0.002129301687433082,0.5395500000000001,-0.13734000000000002,9.751140000000001
5313131260,21.84,0.001064650843716541,0.03408628029144926,0.002129301687433082,0.47088,-0.11772,9.66285
5318181765,21.84,-0.002129301687433082,0.020245819323134222,0.0,0.47088,-0.10791,9.69228
5323232270,21.84,-0.008517206749732328,0.007452555906015787,0.0,0.46107000000000004,-0.0981,9.85905
5328282775,21.84,-0.015987215948268057,0.0,0.0,0.49050000000000005,-0.14715,9.95715
5333333280,21.84,-0.01918116847941768,0.0,0.0,0.48069000000000006,-0.18639,9.91791
5338383785,21.84,-0.020245819323134222,-0.00958185759344887,0.0,0.47088,-0.21582,9.69228
5343434290,21.84,-0.021310470166850764,-0.011711159280881954,-0.001064650843716541,0.51012,-0.23544,9.59418
5348484795,21.84,-0.015987215948268057,-0.01811651763570114,0.0,0.5395500000000001,-0.23544,9.751140000000001
5353535300,21.84,-0.012775810124598492,-0.015987215948268057,0.0,0.56898,-0.26487,9.98658
5358585805,21.84,-0.011711159280881954,-0.013840460968315033,0.0,0.56898,-0.26487,10.006200000000002
5363636310,21.84,-0.007452555906015787,-0.015987215948268057,0.0,0.57879,-0.25506,9.83943
5368686815,21.84,-0.004258603374866164,-0.0170518667919846,0.0,0.56898,-0.24525000000000002,9.60399
5373737320,21.84,-0.001064650843716541,-0.023439771854283843,0.0,0.5886,-0.20601000000000003,9.59418
5378787825,21.84,0.004258603374866164,-0.024504422698000388,0.0,0.60822,-0.17658,9.751140000000001
5383838330,21.84,0.008517206749732328,-0.023439771854283843,0.0,0.6670800000000001,-0.14715,9.97677
5388888835,21.84,0.003193952531149623,-0.01918116847941768,0.0,0.70632,-0.15696000000000002,9.95715
5393939340,21.84,-0.002129301687433082,-0.0170518667919846,-0.001064650843716541,0.6670800000000001,-0.12753,9.78057
5398989845,21.84,-0.003193952531149623,-0.0170518667919846,0.0,0.6768900000000001,-0.11772,9.633420000000001
5404040350,21.84,-0.007452555906015787,-0.013840460968315033,-0.001064650843716541,0.6768900000000001,-0.13734000000000002,9.64323
5409090855,21.84,-0.00958185759344887,-0.007452555906015787,0.0,0.74556,-0.12753,9.87867
5414141360,21.84,-0.013840460968315033,-0.005323254218582705,0.0,0.74556,-0.15696000000000002,9.99639
5419191865,21.84,-0.021310470166850764,0.0,0.0,0.71613,-0.20601000000000003,9.89829
5424242370,21.84,-0.023439771854283843,0.003193952531149623,0.0,0.70632,-0.22563,9.7119
5429292875,21.84,-0.02663372438543347,0.008517206749732328,0.0,0.6867000000000001,-0.26487,9.70209
5434343380,21.84,-0.01918116847941768,0.015987215948268057,0.0,0.70632,-0.24525000000000002,9.84924
5439393885,21.84,-0.013840460968315033,0.02769837522915001,0.0,0.69651,-0.22563,9.888480000000001
5444444390,21.84,-0.013840460968315033,0.028763026072866547,0.0,0.65727,-0.22563,9.81
5449494895,21.84,-0.007452555906015787,0.033021629447732716,0.0,0.5886,-0.22563,9.67266
5454545400,21.84,-0.008517206749732328,0.02663372438543347,0.0,0.5493600000000001,-0.17658,9.69228
5459595905,21.84,-0.006387905062299246,0.02663372438543347,0.0,0.5493600000000001,-0.16677000000000003,9.819809999999999
5464646410,21.84,-0.004258603374866164,0.0170518667919846,0.0,0.5395500000000001,-0.13734000000000002,9.92772
5469696915,21.84,-0.005323254218582705,0.014905111812031574,0.0,0.50031,-0.14715,9.83943
5474747420,21.84,-0.011711159280881954,0.014905111812031574,0.0,0.51993,-0.17658,9.70209
5479797925,21.84,-0.013840460968315033,0.007452555906015787,0.0,0.51993,-0.17658,9.69228
5484848430,21.84,-0.01918116847941768,0.0,0.0,0.51012,-0.17658,9.86886
5489898935,21.84,-0.023439771854283843,-0.002129301687433082,0.0,0.5493600000000001,-0.22563,9.97677
5494949440,21.84,-0.024504422698000388,-0.012775810124598492,0.0,0.52974,-0.27468000000000004,9.87867
5499999945,21.84,-0.021310470166850764,-0.015987215948268057,0.0,0.5591700000000001,-0.2943,9.7119
5505050450,21.84,-0.013840460968315033,-0.013840460968315033,0.0,0.5591700000000001,-0.28449,9.65304
5510100955,21.84,-0.006387905062299246,-0.00958185759344887,0.0,0.59841,-0.26487,9.80019
5515151460,21.84,-0.005323254218582705,-0.005323254218582705,0.0,0.6180300000000001,-0.21582,9.91791
5520201965,21.84,-0.002129301687433082,-0.001064650843716541,0.0,0.60822,-0.1962,9.91791
5525252470,21.84,-0.003193952531149623,-0.001064650843716541,0.0,0.5591700000000001,-0.16677000000000003,9.74133
5530302975,21.84,-0.002129301687433082,-0.001064650843716541,0.0,0.56898,-0.16677000000000003,9.623610000000001
5535353480,21.84,0.0,-0.002129301687433082,0.0,0.56898,-0.15696000000000002,9.74133
5540403985,21.84,-0.001064650843716541,-0.001064650843716541,0.0,0.60822,-0.10791,9.937529999999999
5545454490,21.84,-0.00958185759344887,-0.004258603374866164,0.0,0.57879,-0.17658,9.95715
5550504995,21.84,-0.020245819323134222,-0.001064650843716541,0.0,0.59841,-0.18639,9.81
5555555500,21.84,-0.02769837522915001,-0.003193952531149623,0.0,0.6180300000000001,-0.22563,9.7119
5560606005,21.84,-0.02663372438543347,0.0,0.0,0.6180300000000001,-0.24525000000000002,9.751140000000001
5565656510,21.84,-0.023439771854283843,0.0,0.0,0.6180300000000001,-0.26487,9.83943
5570707015,21.84,-0.014905111812031574,0.001064650843716541,0.0,0.63765,-0.26487,9.85905
5575757520,21.84,-0.01064650843716541,0.001064650843716541,0.0,0.6278400000000001,-0.26487,9.83943
5580808025,21.84,-0.006387905062299246,-0.001064650843716541,0.0,0.6278400000000001,-0.28449,9.751140000000001
5585858530,21.84,-0.00958185759344887,0.0,0.0,0.63765,-0.22563,9.770760000000001
5590909035,21.84,-0.007452555906015787,0.003193952531149623,0.0,0.6180300000000001,-0.22563,9.82962
5595959540,21.84,-0.005323254218582705,0.005323254218582705,0.0,0.6180300000000001,-0.22563,9.92772
5601010045,21.84,-0.004258603374866164,0.008517206749732328,0.0,0.6278400000000001,-0.18639,9.85905
5606060550,21.84,-0.008517206749732328,0.006387905062299246,0.0,0.56898,-0.21582,9.751140000000001
5611111055,21.84,-0.00958185759344887,0.005323254218582705,0.0,0.5886,-0.21582,9.74133
5616161560,21.84,-0.012775810124598492,0.001064650843716541,0.0,0.57879,-0.22563,9.83943
5621212065,21.84,-0.015987215948268057,0.0,0.0,0.5591700000000001,-0.21582,9.86886
5626262570,21.84,-0.0170518667919846,-0.005323254218582705,0.0,0.57879,-0.24525000000000002,9.85905
5631313075,21.84,-0.011711159280881954,-0.006387905062299246,0.0,0.59841,-0.25506,9.74133
5636363580,21.84,-0.007452555906015787,-0.012775810124598492,0.0,0.60822,-0.23544,9.68247
5641414085,21.84,0.0,-0.014905111812031574,0.0,0.6278400000000001,-0.18639,9.67266
5646464590,21.84,-0.001064650843716541,-0.014905111812031574,0.0,0.64746,-0.17658,9.83943
5651515095,21.84,-0.004258603374866164,-0.012775810124598492,0.0,0.65727,-0.18639,9.908100000000001
5656565600,21.84,-0.008517206749732328,-0.004258603374866164,0.0,0.6670800000000001,-0.1962,9.85905
5661616105,21.84,-0.011711159280881954,-0.003193952531149623,0.0,0.64746,-0.17658,9.68247
5666666610,21.84,-0.012775810124598492,-0.001064650843716541,0.0,0.6278400000000001,-0.20601000000000003,9.64323
5671717115,21.84,-0.015987215948268057,0.002129301687433082,0.0,0.6768900000000001,-0.21582,9.751140000000001
5676767620,21.84,-0.015987215948268057,0.006387905062299246,0.0,0.65727,-0.21582,9.888480000000001
5681818125,21.84,-0.0170518667919846,0.01064650843716541,0.0,0.65727,-0.18639,9.908100000000001
5686868630,21.84,-0.01918116847941768,0.013840460968315033,0.0,0.6180300000000001,-0.20601000000000003,9.79038
5691919135,21.84,-0.022375121010567305,0.014905111812031574,0.0,0.6180300000000001,-0.22563,9.65304
5696969640,21.84,-0.01811651763570114,0.011711159280881954,0.0,0.60822,-0.24525000000000002,9.751140000000001
5702020145,21.84,-0.01811651763570114,0.01064650843716541,0.0,0.59841,-0.23544,9.86886
5707070650,21.84,-0.0170518667919846,0.013840460968315033,0.0,0.6180300000000001,-0.25506,9.95715
5712121155,21.84,-0.0170518667919846,0.0170518667919846,0.0,0.57879,-0.25506,9.819809999999999
5717171660,21.84,-0.023439771854283843,0.01918116847941768,0.0,0.5591700000000001,-0.28449,9.74133
5722222165,21.84,-0.023439771854283843,0.01918116847941768,0.0,0.52974,-0.27468000000000004,9.72171
5727272670,21.84,-0.022375121010567305,0.014905111812031574,0.0,0.5591700000000001,-0.31392000000000003,9.908100000000001
5732323175,21.84,-0.020245819323134222,0.011711159280881954,0.0,0.5395500000000001,-0.30411,9.95715
5737373680,21.84,-0.014905111812031574,0.01064650843716541,0.0,0.5493600000000001,-0.30411,9.85905
5742424185,21.84,-0.00958185759344887,0.005323254218582705,0.0,0.52974,-0.27468000000000004,9.70209
5747474690,21.84,-0.004258603374866164,-0.001064650843716541,0.0,0.49050000000000005,-0.25506,9.64323
5752525195,21.84,-0.005323254218582705,-0.004258603374866164,0.0,0.52974,-0.22563,9.819809999999999
5757575700,21.84,-0.005323254218582705,-0.005323254218582705,0.0,0.5493600000000001,-0.21582,9.97677
5762626205,21.84,-0.007452555906015787,-0.01064650843716541,0.0,0.5395500000000001,-0.22563,9.91791
5767676710,21.84,-0.01064650843716541,-0.00958185759344887,0.0,0.51993,-0.23544,9.751140000000001
5772727215,21.84,-0.011711159280881954,-0.015987215948268057,0.0,0.5395500000000001,-0.20601000000000003,9.6138
5777777720,21.84,-0.011711159280881954,-0.01918116847941768,0.0,0.56898,-0.24525000000000002,9.68247
5782828225,21.84,-0.015987215948268057,-0.022375121010567305,0.0,0.5886,-0.24525000000000002,9.86886
5787878730,21.84,-0.013840460968315033,-0.023439771854283843,0.0,0.60822,-0.23544,9.908100000000001
5792929235,21.84,-0.0170518667919846,-0.01811651763570114,0.0,0.6670800000000001,-0.24525000000000002,9.79038
5797979740,21.84,-0.013840460968315033,-0.01918116847941768,0.0,0.6670800000000001,-0.23544,9.66285
5803030245,21.84,-0.007452555906015787,-0.021310470166850764,0.0,0.64746,-0.23544,9.69228
5808080750,21.84,-0.008517206749732328,-0.015987215948268057,0.0,0.6867000000000001,-0.24525000000000002,9.82962
5813131255,21.84,-0.014905111812031574,-0.014905111812031574,0.0,0.71613,-0.25506,9.91791
5818181760,21.84,-0.014905111812031574,-0.01064650843716541,0.0,0.72594,-0.23544,9.86886
5823232265,21.84,-0.024504422698000388,-0.012775810124598492,0.0,0.73575,-0.27468000000000004,9.73152
5828282770,21.84,-0.022375121010567305,-0.004258603374866164,0.0,0.70632,-0.28449,9.72171
5833333275,21.84,-0.022375121010567305,0.0,0.0,0.75537,-0.30411,9.751140000000001
5838383780,21.84,-0.011711159280881954,0.006387905062299246,0.0,0.7651800000000001,-0.2943,9.84924
5843434285,21.84,-0.011711159280881954,0.01811651763570114,0.0,0.72594,-0.23544,9.91791
5848484790,21.84,-0.00958185759344887,0.022375121010567305,0.0,0.69651,-0.22563,9.81
5853535295,21.84,-0.01064650843716541,0.031956978604016174,0.0,0.64746,-0.21582,9.69228
5858585800,21.84,-0.014905111812031574,0.03621558197888234,0.0,0.60822,-0.1962,9.751140000000001
5863636305,21.84,-0.01918116847941768,0.03834488366631542,0.0,0.5886,-0.21582,9.83943
5868686810,21.84,-0.022375121010567305,0.03728023282259888,0.0,0.5493600000000001,-0.23544,9.908100000000001
5873737315,21.84,-0.02663372438543347,0.03515093113516579,0.0,0.52974,-0.22563,9.85905
5878787820,21.84,-0.023439771854283843,0.02663372438543347,0.0,0.49050000000000005,-0.27468000000000004,9.74133
5883838325,21.84,-0.022375121010567305,0.021310470166850764,0.0,0.44145,-0.27468000000000004,9.69228
5888888830,21.84,-0.01811651763570114,0.01918116847941768,0.0,0.44145,-0.27468000000000004,9.83943
5893939335,21.84,-0.01918116847941768,0.01064650843716541,0.0,0.46107000000000004,-0.30411,9.908100000000001
5898989840,21.84,-0.01811651763570114,0.006387905062299246,0.0,0.43164,-0.30411,9.86886
5904040345,21.84,-0.01918116847941768,-0.002129301687433082,0.0,0.46107000000000004,-0.2943,9.770760000000001
5909090850,21.84,-0.013840460968315033,-0.008517206749732328,0.0,0.46107000000000004,-0.2943,9.74133
5914141355,21.84,-0.013840460968315033,-0.01918116847941768,0.0,0.48069000000000006,-0.32373,9.819809999999999
5919191860,21.84,-0.014905111812031574,-0.022375121010567305,0.0,0.51993,-0.32373,9.86886
5924242365,21.84,-0.012775810124598492,-0.033021629447732716,0.0,0.56898,-0.32373,9.91791
5929292870,21.84,-0.00958185759344887,-0.02769837522915001,0.0,0.5886,-0.2943,9.82962
5934343375,21.84,-0.004258603374866164,-0.02663372438543347,0.0,0.5886,-0.2943,9.73152
5939393880,21.84,-0.001064650843716541,-0.02769837522915001,0.0,0.60822,-0.26487,9.7119
5944444385,21.84,0.0,-0.02556907354171693,0.0,0.6180300000000001,-0.21582,9.770760000000001
5949494890,21.84,0.0,-0.022375121010567305,0.0,0.6670800000000001,-0.20601000000000003,9.83943
5954545395,21.84,-0.005323254218582705,-0.015987215948268057,0.0,0.69651,-0.21582,9.82962
5959595900,21.84,-0.007452555906015787,-0.007452555906015787,0.0,0.6867000000000001,-0.1962,9.78057
5964646405,21.84,-0.013840460968315033,-0.001064650843716541,0.0,0.6670800000000001,-0.20601000000000003,9.760950000000001
5969696910,21.84,-0.020245819323134222,-0.004258603374866164,0.0,0.6670800000000001,-0.24525000000000002,9.7119
5974747415,21.84,-0.024504422698000388,-0.005323254218582705,0.0,0.64746,-0.24525000000000002,9.72171
5979797920,21.84,-0.020245819323134222,-0.001064650843716541,0.0,0.6867000000000001,-0.21582,9.82962
5984848425,21.84,-0.020245819323134222,0.002129301687433082,0.0,0.70632,-0.26487,9.87867
5989898930,21.84,-0.01918116847941768,0.004258603374866164,0.0,0.6670800000000001,-0.27468000000000004,9.819809999999999
5994949435,21.84,-0.023439771854283843,0.008517206749732328,0.0,0.6670800000000001,-0.30411,9.74133
5999999940,21.84,-0.024504422698000388,0.005323254218582705,0.0,0.6670800000000001,-0.31392000000000003,9.70209
6005050445,21.84,-0.02769837522915001,0.005323254218582705,0.0,0.65727,-0.31392000000000003,9.84924
6010100950,21.84,-0.02556907354171693,0.011711159280881954,0.0,0.6768900000000001,-0.31392000000000003,9.937529999999999
6015151455,21.84,-0.01811651763570114,0.01811651763570114,0.0,0.64746,-0.32373,9.908100000000001
6020201960,21.84,-0.015987215948268057,0.02556907354171693,0.0,0.59841,-0.32373,9.73152
6025252465,21.84,-0.014905111812031574,0.01918116847941768,0.0,0.56898,-0.31392000000000003,9.65304
6030302970,21.84,-0.013840460968315033,0.01918116847941768,0.0,0.60822,-0.2943,9.751140000000001
6035353475,21.84,-0.013840460968315033,0.021310470166850764,0.0,0.57879,-0.25506,9.95715
6040403980,21.84,-0.015987215948268057,0.022375121010567305,0.0,0.5591700000000001,-0.23544,9.98658
6045454485,21.84,-0.01811651763570114,0.022375121010567305,0.0,0.5395500000000001,-0.26487,9.82962
6050504990,21.84,-0.020245819323134222,0.014905111812031574,0.0,0.49050000000000005,-0.26487,9.633420000000001
6055555495,21.84,-0.01811651763570114,0.00958185759344887,0.0,0.49050000000000005,-0.28449,9.623610000000001
6060606000,21.84,-0.021310470166850764,0.003193952531149623,0.0,0.51993,-0.28449,9.80019
6065656505,21.84,-0.020245819323134222,0.003193952531149623,0.0,0.51993,-0.26487,9.99639
6070707010,21.84,-0.0170518667919846,0.0,0.0,0.51012,-0.2943,9.92772
6075757515,21.84,-0.015987215948268057,-0.002129301687433082,0.0,0.51012,-0.2943,9.67266
6080808020,21.84,-0.013840460968315033,-0.007452555906015787,0.0,0.51012,-0.26487,9.54513
6085858525,21.84,-0.014905111812031574,-0.014905111812031574,0.0,0.51993,-0.30411,9.74133
6090909030,21.84,-0.01811651763570114,-0.01918116847941768,0.0,0.56898,-0.2943,9.97677
6095959535,21.84,-0.022375121010567305,-0.01918116847941768,0.0,0.57879,-0.33354000000000006,9.98658
6101010040,21.84,-0.022375121010567305,-0.012775810124598492,0.0,0.57879,-0.37278,9.751140000000001
6106060545,21.84,-0.01811651763570114,-0.0170518667919846,0.0,0.59841,-0.31392000000000003,9.60399
6111111050,21.84,-0.011711159280881954,-0.013840460968315033,0.0,0.60822,-0.30411,9.623610000000001
6116161555,21.84,-0.008517206749732328,-0.0170518667919846,0.0,0.63765,-0.30411,9.85905
6121212060,21.84,-0.01064650843716541,-0.007452555906015787,0.0,0.6768900000000001,-0.25506,10.006200000000002
6126262565,21.84,-0.012775810124598492,-0.005323254218582705,0.0,0.6768900000000001,-0.27468000000000004,9.92772
6131313070,21.84,-0.015987215948268057,0.0,0.0,0.64746,-0.30411,9.72171
6136363575,21.84,-0.023439771854283843,0.0,0.0,0.60822,-0.30411,9.67266
6141414080,21.84,-0.024504422698000388,-0.008517206749732328,0.0,0.60822,-0.30411,9.74133
6146464585,21.84,-0.020245819323134222,-0.011711159280881954,0.0,0.64746,-0.32373,9.91791
6151515090,21.84,-0.01064650843716541,-0.011711159280881954,0.0,0.6670800000000001,-0.32373,9.98658
6156565595,21.84,-0.015987215948268057,-0.007452555906015787,0.0,0.6670800000000001,-0.36297,9.91791
6161616100,21.84,-0.014905111812031574,-0.003193952531149623,0.0,0.6670800000000001,-0.34335000000000004,9.73152
6166666605,21.84,-0.020245819323134222,-0.002129301687433082,0.0,0.6670800000000001,-0.36297,9.74133
6171717110,21.84,-0.022375121010567305,0.0,0.0,0.6670800000000001,-0.37278,9.84924
6176767615,21.84,-0.020245819323134222,0.003193952531149623,0.0,0.64746,-0.35316,9.95715
6181818120,21.84,-0.0170518667919846,0.006387905062299246,0.0,0.6670800000000001,-0.35316,9.888480000000001
6186868625,21.84,-0.012775810124598492,0.00958185759344887,0.0,0.63765,-0.31392000000000003,9.73152
6191919130,21.84,-0.00958185759344887,0.014905111812031574,0.0,0.6278400000000001,-0.32373,9.67266
6196969635,21.84,-0.008517206749732328,0.0170518667919846,0.0,0.59841,-0.26487,9.72171
6202020140,21.84,-0.005323254218582705,0.024504422698000388,0.0,0.60822,-0.25506,9.86886
6207070645,21.84,-0.00958185759344887,0.02663372438543347,0.0,0.5591700000000001,-0.24525000000000002,9.91791
6212121150,21.84,-0.014905111812031574,0.02663372438543347,0.0,0.52974,-0.23544,9.770760000000001
6217171655,21.84,-0.020245819323134222,0.021310470166850764,0.0,0.51012,-0.26487,9.623610000000001
6222222160,21.84,-0.01918116847941768,0.01918116847941768,0.0,0.49050000000000005,-0.27468000000000004,9.633420000000001
6227272665,21.84,-0.022375121010567305,0.012775810124598492,0.0,0.47088,-0.26487,9.80019
6232323170,21.84,-0.02556907354171693,0.01064650843716541,0.0,0.50031,-0.28449,9.89829
6237373675,21.84,-0.024504422698000388,0.007452555906015787,0.0,0.51993,-0.30411,9.91791
6242424180,21.84,-0.024504422698000388,0.003193952531149623,0.0,0.48069000000000006,-0.32373,9.72171
6247474685,21.84,-0.024504422698000388,0.0,0.0,0.50031,-0.31392000000000003,9.65304
6252525190,21.84,-0.024504422698000388,-0.00958185759344887,0.0,0.51012,-0.35316,9.73152
6257575695,21.84,-0.02663372438543347,-0.013840460968315033,0.0,0.51993,-0.35316,9.91791
6262626200,21.84,-0.02663372438543347,-0.015987215948268057,0.0,0.5591700000000001,-0.41202000000000005,9.937529999999999
6267676705,21.84,-0.02556907354171693,-0.015987215948268057,0.0,0.5591700000000001,-0.3924,9.81
6272727210,21.84,-0.0170518667919846,-0.021310470166850764,0.0,0.5886,-0.38259000000000004,9.69228
6277777715,21.84,-0.01064650843716541,-0.020245819323134222,0.0,0.60822,-0.34335000000000004,9.751140000000001
6282828220,21.84,-0.003193952531149623,-0.020245819323134222,0.0,0.63765,-0.35316,9.89829
6287878725,21.84,-0.004258603374866164,-0.014905111812031574,0.0,0.64746,-0.33354000000000006,9.94734
6292929230,21.84,-0.012775810124598492,-0.01064650843716541,0.0,0.63765,-0.34335000000000004,9.888480000000001
6297979735,21.84,-0.015987215948268057,-0.011711159280881954,0.0,0.6278400000000001,-0.33354000000000006,9.72171
6303030240,21.84,-0.020245819323134222,-0.012775810124598492,0.0,0.6278400000000001,-0.32373,9.66285
6308080745,21.84,-0.015987215948268057,-0.01811651763570114,0.0,0.6867000000000001,-0.35316,9.80019
6313131250,21.84,-0.01064650843716541,-0.01064650843716541,0.0,0.69651,-0.30411,9.94734
6318181755,21.84,-0.005323254218582705,-0.008517206749732328,0.0,0.72594,-0.31392000000000003,9.86886
6323232260,21.84,-0.012775810124598492,0.0,0.0,0.6670800000000001,-0.28449,9.74133
6328282765,21.84,-0.01811651763570114,-0.001064650843716541,0.0,0.6867000000000001,-0.31392000000000003,9.70209
6333333270,21.84,-0.022375121010567305,0.0,0.0,0.69651,-0.31392000000000003,9.72171
6338383775,21.84,-0.02663372438543347,0.004258603374866164,0.0,0.69651,-0.36297,9.87867
6343434280,21.84,-0.02556907354171693,0.01064650843716541,0.0,0.69651,-0.35316,9.86886
6348484785,21.84,-0.020245819323134222,0.013840460968315033,0.0,0.63765,-0.36297,9.70209
6353535290,21.84,-0.015987215948268057,0.0170518667919846,0.0,0.64746,-0.33354000000000006,9.60399
6358585795,21.84,-0.014905111812031574,0.022375121010567305,0.0,0.6180300000000001,-0.30411,9.751140000000001
6363636300,21.84,-0.015987215948268057,0.02556907354171693,0.0,0.60822,-0.2943,9.87867
6368686805,21.84,-0.021310470166850764,0.03515093113516579,0.0,0.59841,-0.2943,9.94734
6373737310,21.84,-0.02769837522915001,0.03834488366631542,0.0,0.52974,-0.32373,9.82962
6378787815,21.84,-0.03089232776029963,0.02982767691658309,0.0,0.49050000000000005,-0.37278,9.66285
6383838320,21.84,-0.02769837522915001,0.015987215948268057,0.0,0.46107000000000004,-0.36297,9.633420000000001
6388888825,21.84,-0.02556907354171693,0.003193952531149623,0.0,0.50031,-0.36297,9.85905
6393939330,21.84,-0.02556907354171693,-0.003193952531149623,0.0,0.5395500000000001,-0.36297,10.01601
6398989835,21.84,-0.020245819323134222,0.0,0.0,0.52974,-0.38259000000000004,9.99639
6404040340,21.84,-0.021310470166850764,0.004258603374866164,0.0,0.50031,-0.41202000000000005,9.770760000000001
6409090845,21.84,-0.02556907354171693,0.006387905062299246,0.0,0.51993,-0.41202000000000005,9.633420000000001
6414141350,21.84,-0.023439771854283843,0.0,0.0,0.51012,-0.42183,9.72171
6419191855,21.84,-0.024504422698000388,-0.007452555906015787,0.0,0.52974,-0.42183,9.95715
6424242360,21.84,-0.01811651763570114,-0.00958185759344887,0.0,0.5493600000000001,-0.41202000000000005,10.006200000000002
6429292865,21.84,-0.01064650843716541,-0.008517206749732328,0.0,0.5591700000000001,-0.40221,9.83943
6434343370,21.84,-0.004258603374866164,-0.013840460968315033,0.0,0.5395500000000001,-0.38259000000000004,9.65304
6439393875,21.84,0.0,-0.00958185759344887,0.0,0.5591700000000001,-0.34335000000000004,9.633420000000001
6444444380,21.84,-0.004258603374866164,-0.013840460968315033,0.0,0.56898,-0.32373,9.81
6449494885,21.84,-0.01064650843716541,-0.011711159280881954,0.0,0.59841,-0.28449,9.97677
6454545390,21.84,-0.015987215948268057,-0.014905111812031574,0.0,0.60822,-0.30411,9.91791
6459595895,21.84,-0.013840460968315033,-0.0170518667919846,0.0,0.59841,-0.30411,9.65304
6464646400,21.84,-0.013840460968315033,-0.02663372438543347,0.0,0.5886,-0.33354000000000006,9.53532
6469696905,21.84,-0.01064650843716541,-0.02769837522915001,0.0,0.6180300000000001,-0.31392000000000003,9.6138
6474747410,21.84,-0.011711159280881954,-0.02769837522915001,0.0,0.69651,-0.33354000000000006,9.908100000000001
6479797915,21.84,-0.012775810124598492,-0.021310470166850764,0.0,0.70632,-0.31392000000000003,10.06506
6484848420,21.84,-0.023439771854283843,-0.01064650843716541,0.0,0.72594,-0.36297,9.87867
6489898925,21.84,-0.02556907354171693,-0.006387905062299246,0.0,0.6867000000000001,-0.36297,9.60399
6494949430,21.84,-0.028763026072866547,-0.003193952531149623,0.0,0.69651,-0.40221,9.57456
6499999935,21.84,-0.022375121010567305,0.0,0.0,0.72594,-0.3924,9.80019
6505050440,21.84,-0.020245819323134222,0.004258603374866164,0.0,0.74556,-0.3924,10.01601
6510100945,21.84,-0.020245819323134222,0.00958185759344887,0.0,0.69651,-0.3924,9.92772
6515151450,21.84,-0.022375121010567305,0.01811651763570114,0.0,0.6768900000000001,-0.37278,9.72171
6520201955,21.84,-0.01918116847941768,0.028763026072866547,0.0,0.65727,-0.37278,9.64323
6525252460,21.84,-0.020245819323134222,0.03408628029144926,0.0,0.60822,-0.35316,9.82962
6530302965,21.84,-0.023439771854283843,0.0404741853537485,0.0,0.60822,-0.36297,9.89829
6535353470,21.84,-0.02556907354171693,0.03834488366631542,0.0,0.5591700000000001,-0.37278,9.888480000000001
6540403975,21.84,-0.02556907354171693,0.033021629447732716,0.0,0.52974,-0.38259000000000004,9.751140000000001
6545454480,21.84,-0.022375121010567305,0.02769837522915001,0.0,0.50031,-0.36297,9.67266
6550504985,21.84,-0.01918116847941768,0.02556907354171693,0.0,0.48069000000000006,-0.38259000000000004,9.770760000000001
6555555490,21.84,-0.021310470166850764,0.022375121010567305,0.0,0.49050000000000005,-0.37278,9.89829
6560605995,21.84,-0.02663372438543347,0.023439771854283843,0.0,0.45126,-0.3924,9.888480000000001
6565656500,21.84,-0.028763026072866547,0.01918116847941768,0.0,0.46107000000000004,-0.42183,9.79038
6570707005,21.84,-0.02769837522915001,0.00958185759344887,0.0,0.44145,-0.42183,9.73152
6575757510,21.84,-0.024504422698000388,-0.002129301687433082,0.0,0.43164,-0.41202000000000005,9.80019
6580808015,21.84,-0.020245819323134222,-0.014905111812031574,0.0,0.48069000000000006,-0.41202000000000005,9.87867
6585858520,21.84,-0.01811651763570114,-0.022375121010567305,0.0,0.50031,-0.41202000000000005,9.82962
6590909025,21.84,-0.014905111812031574,-0.02663372438543347,0.0,0.51012,-0.42183,9.69228
6595959530,21.84,-0.013840460968315033,-0.02982767691658309,0.0,0.5493600000000001,-0.3924,9.74133
6601010035,21.84,-0.0170518667919846,-0.02769837522915001,0.0,0.5886,-0.40221,9.84924
6606060540,21.84,-0.0170518667919846,-0.02769837522915001,0.0,0.6180300000000001,-0.38259000000000004,9.937529999999999
6611111045,21.84,-0.013840460968315033,-0.020245819323134222,0.0,0.63765,-0.38259000000000004,9.87867
6616161550,21.84,-0.00958185759344887,-0.020245819323134222,0.0,0.6180300000000001,-0.38259000000000004,9.760950000000001
6621212055,21.84,-0.003193952531149623,-0.020245819323134222,0.0,0.63765,-0.37278,9.66285
6626262560,21.84,-0.00958185759344887,-0.01811651763570114,0.0,0.6670800000000001,-0.37278,9.74133
6631313065,21.84,-0.021310470166850764,-0.01064650843716541,0.0,0.6768900000000001,-0.3924,9.888480000000001
6636363570,21.84,-0.02556907354171693,-0.004258603374866164,0.0,0.69651,-0.41202000000000005,10.006200000000002
6641414075,21.84,-0.02663372438543347,0.0,0.0,0.6670800000000001,-0.42183,9.908100000000001
6646464580,21.84,-0.02556907354171693,-0.002129301687433082,0.0,0.6670800000000001,-0.44145,9.760950000000001
6651515085,21.84,-0.021310470166850764,-0.008517206749732328,0.0,0.69651,-0.44145,9.67266
6656565590,21.84,-0.011711159280881954,-0.014905111812031574,0.0,0.6867000000000001,-0.43164,9.760950000000001
6661616095,21.84,-0.011711159280881954,-0.01064650843716541,0.0,0.74556,-0.43164,9.83943
6666666600,21.84,-0.0170518667919846,-0.005323254218582705,0.0,0.69651,-0.42183,9.85905
6671717105,21.84,-0.0170518667919846,-0.001064650843716541,0.0,0.69651,-0.43164,9.751140000000001
6676767610,21.84,-0.022375121010567305,0.005323254218582705,0.0,0.69651,-0.42183,9.68247
6681818115,21.84,-0.013840460968315033,0.012775810124598492,0.0,0.69651,-0.36297,9.7119
6686868620,21.84,-0.007452555906015787,0.01811651763570114,0.0,0.6768900000000001,-0.33354000000000006,9.78057
6691919125,21.84,-0.004258603374866164,0.023439771854283843,0.0,0.64746,-0.30411,9.82962
6696969630,21.84,-0.006387905062299246,0.03089232776029963,0.0,0.60822,-0.2943,9.81
6702020135,21.84,-0.01918116847941768,0.03728023282259888,0.0,0.56898,-0.32373,9.7119
6707070640,21.84,-0.031956978604016174,0.04260348704118158,0.0,0.5493600000000001,-0.34335000000000004,9.68247
6712121145,21.84,-0.03834488366631542,0.03834488366631542,0.005323254218582705,0.51012,-0.40221,9.78057
6717171650,21.84,-0.03834488366631542,0.03408628029144926,0.002129301687433082,0.47088,-0.38259000000000004,9.86886
6722222155,21.84,-0.03834488366631542,0.02769837522915001,0.003193952531149623,0.48069000000000006,-0.43164,9.87867
6727272660,21.84,-0.03408628029144926,0.01811651763570114,0.0,0.44145,-0.46107000000000004,9.78057
6732323165,21.84,-0.02769837522915001,0.007452555906015787,0.001064650843716541,0.45126,-0.47088,9.751140000000001
6737373670,21.84,-0.02769837522915001,-0.002129301687433082,0.0,0.44145,-0.51993,9.78057
6742424175,21.84,-0.02769837522915001,-0.004258603374866164,0.001064650843716541,0.49050000000000005,-0.50031,9.83943
6747474680,21.84,-0.02663372438543347,-0.011711159280881954,-0.001064650843716541,0.48069000000000006,-0.52974,9.87867
6752525185,21.84,-0.020245819323134222,-0.020245819323134222,0.0,0.52974,-0.51993,9.80019
6757575690,21.84,-0.00958185759344887,-0.021310470166850764,-0.002129301687433082,0.50031,-0.47088,9.72171
6762626195,21.84,-0.005323254218582705,-0.03089232776029963,0.0,0.56898,-0.44145,9.78057
6767676700,21.84,-0.003193952531149623,-0.03089232776029963,0.0,0.60822,-0.38259000000000004,9.87867
6772727205,21.84,-0.001064650843716541,-0.02663372438543347,-0.002129301687433082,0.6278400000000001,-0.38259000000000004,9.97677
6777777710,21.84,-0.006387905062299246,-0.021310470166850764,-0.001064650843716541,0.6180300000000001,-0.3924,9.819809999999999
6782828215,21.84,-0.011711159280881954,-0.01918116847941768,0.0,0.59841,-0.3924,9.623610000000001
6787878720,21.84,-0.01811651763570114,-0.021310470166850764,0.002129301687433082,0.60822,-0.3924,9.56475
6792929225,21.84,-0.022375121010567305,-0.028763026072866547,0.002129301687433082,0.64746,-0.40221,9.79038
6797979730,21.84,-0.01918116847941768,-0.02769837522915001,0.0,0.6867000000000001,-0.40221,10.025820000000001
6803030235,21.84,-0.01811651763570114,-0.024504422698000388,0.0,0.70632,-0.3924,10.025820000000001
6808080740,21.84,-0.01918116847941768,-0.0170518667919846,-0.001064650843716541,0.73575,-0.41202000000000005,9.73152
6813131245,21.84,-0.0170518667919846,-0.011711159280881954,-0.003193952531149623,0.6867000000000001,-0.43164,9.52551
6818181750,21.84,-0.024504422698000388,-0.001064650843716541,0.0,0.74556,-0.45126,9.58437
6823232255,21.84,-0.02663372438543347,0.002129301687433082,0.002129301687433082,0.74556,-0.46107000000000004,9.888480000000001
6828282760,21.84,-0.02663372438543347,0.011711159280881954,0.004258603374866164,0.7651800000000001,-0.42183,10.05525
6833333265,21.84,-0.024504422698000388,0.023439771854283843,0.0,0.74556,-0.43164,9.95715
6838383770,21.84,-0.013840460968315033,0.028763026072866547,-0.002129301687433082,0.6670800000000001,-0.41202000000000005,9.67266
6843434275,21.84,-0.013840460968315033,0.031956978604016174,0.002129301687433082,0.63765,-0.41202000000000005,9.55494
6848484780,21.84,-0.014905111812031574,0.03728023282259888,0.002129301687433082,0.60822,-0.40221,9.78057
6853535285,21.84,-0.024504422698000388,0.03728023282259888,0.003193952531149623,0.60822,-0.41202000000000005,10.074869999999999
6858585790,21.84,-0.033021629447732716,0.04153883619746504,0.001064650843716541,0.5591700000000001,-0.41202000000000005,10.09449
6863636295,21.84,-0.03621558197888234,0.0404741853537485,0.003193952531149623,0.51012,-0.47088,9.81
6868686800,21.84,-0.03621558197888234,0.031956978604016174,0.003193952531149623,0.47088,-0.49050000000000005,9.55494
6873737305,21.84,-0.02556907354171693,0.022375121010567305,0.003193952531149623,0.43164,-0.51993,9.57456
6878787810,21.84,-0.01811651763570114,0.01064650843716541,0.0,0.48069000000000006,-0.46107000000000004,9.89829
6883838315,21.84,-0.01811651763570114,0.003193952531149623,0.0,0.48069000000000006,-0.50031,10.09449
6888888820,21.84,-0.021310470166850764,0.002129301687433082,0.0,0.48069000000000006,-0.49050000000000005,10.01601
6893939325,21.84,-0.01918116847941768,0.003193952531149623,0.0,0.45126,-0.49050000000000005,9.67266
6898989830,21.84,-0.015987215948268057,0.002129301687433082,0.002129301687433082,0.44145,-0.49050000000000005,9.52551
6904040335,21.84,-0.012775810124598492,0.0,0.0,0.45126,-0.44145,9.60399
6909090840,21.84,-0.005323254218582705,-0.01811651763570114,0.001064650843716541,0.46107000000000004,-0.42183,9.888480000000001
6914141345,21.84,-0.006387905062299246,-0.024504422698000388,0.002129301687433082,0.51012,-0.40221,10.006200000000002
6919191850,21.84,-0.007452555906015787,-0.02769837522915001,-0.001064650843716541,0.51993,-0.41202000000000005,9.83943
6924242355,21.84,-0.012775810124598492,-0.02663372438543347,-0.001064650843716541,0.52974,-0.41202000000000005,9.68247
6929292860,21.84,-0.0170518667919846,-0.023439771854283843,0.0,0.56898,-0.42183,9.64323
6934343365,21.84,-0.021310470166850764,-0.024504422698000388,0.0,0.57879,-0.43164,9.73152
6939393870,21.84,-0.02769837522915001,-0.02769837522915001,0.0,0.63765,-0.45126,9.85905
6944444375,21.84,-0.02556907354171693,-0.031956978604016174,0.0,0.64746,-0.46107000000000004,9.89829
6949494880,21.84,-0.020245819323134222,-0.02982767691658309,0.0,0.6768900000000001,-0.45126,9.82962
6954545385,21.84,-0.0170518667919846,-0.022375121010567305,-0.001064650843716541,0.69651,-0.51012,9.751140000000001
6959595890,21.84,-0.01811651763570114,-0.014905111812031574,0.0,0.72594,-0.49050000000000005,9.73152
6964646395,21.84,-0.015987215948268057,-0.006387905062299246,-0.002129301687433082,0.74556,-0.51993,9.751140000000001
6969696900,21.84,-0.02556907354171693,0.0,0.002129301687433082,0.75537,-0.50031,9.85905
6974747405,21.84,-0.022375121010567305,0.007452555906015787,0.0,0.74556,-0.47088,9.908100000000001
6979797910,21.84,-0.020245819323134222,0.01064650843716541,0.001064650843716541,0.74556,-0.47088,9.84924
6984848415,21.84,-0.012775810124598492,0.013840460968315033,0.003193952531149623,0.6670800000000001,-0.46107000000000004,9.73152
6989898920,21.84,-0.012775810124598492,0.012775810124598492,0.0,0.6670800000000001,-0.46107000000000004,9.67266
6994949425,21.84,-0.012775810124598492,0.012775810124598492,0.001064650843716541,0.64746,-0.45126,9.74133
6999999930,21.84,-0.01811651763570114,0.013840460968315033,-0.001064650843716541,0.64746,-0.44145,9.87867
7005050435,21.84,-0.024504422698000388,0.021310470166850764,0.0,0.63765,-0.47088,9.95715
7010100940,21.84,-0.03089232776029963,0.02769837522915001,0.001064650843716541,0.59841,-0.48069000000000006,9.87867
7015151445,21.84,-0.03089232776029963,0.02663372438543347,0.0,0.57879,-0.48069000000000006,9.7119
7020201950,21.84,-0.02556907354171693,0.021310470166850764,0.0,0.5395500000000001,-0.46107000000000004,9.64323
7025252455,21.84,-0.0170518667919846,0.020245819323134222,0.0,0.5395500000000001,-0.45126,9.73152
7030302960,21.84,-0.0170518667919846,0.014905111812031574,0.001064650843716541,0.5591700000000001,-0.47088,9.888480000000001
7035353465,21.84,-0.01918116847941768,0.015987215948268057,0.002129301687433082,0.52974,-0.48069000000000006,9.87867
7040403970,21.84,-0.028763026072866547,0.014905111812031574,-0.001064650843716541,0.52974,-0.49050000000000005,9.819809999999999
7045454475,21.84,-0.028763026072866547,0.013840460968315033,0.0,0.50031,-0.49050000000000005,9.73152
7050504980,21.84,-0.023439771854283843,0.012775810124598492,0.002129301687433082,0.49050000000000005,-0.48069000000000006,9.760950000000001
7055555485,21.84,-0.01918116847941768,0.007452555906015787,0.002129301687433082,0.49050000000000005,-0.47088,9.81
7060605990,21.84,-0.013840460968315033,0.0,0.001064650843716541,0.51012,-0.45126,9.81
7065656495,21.84,-0.01811651763570114,-0.01064650843716541,0.001064650843716541,0.50031,-0.47088,9.819809999999999
7070707000,21.84,-0.01918116847941768,-0.014905111812031574,-0.001064650843716541,0.51012,-0.49050000000000005,9.84924
7075757505,21.84,-0.02556907354171693,-0.015987215948268057,0.0,0.5493600000000001,-0.52974,9.87867
7080808010,21.84,-0.024504422698000388,-0.013840460968315033,0.002129301687433082,0.57879,-0.50031,9.86886
7085858515,21.84,-0.02556907354171693,-0.011711159280881954,0.0,0.5591700000000001,-0.5493600000000001,9.78057
7090909020,21.84,-0.01918116847941768,-0.012775810124598492,0.001064650843716541,0.56898,-0.57879,9.73152
7095959525,21.84,-0.012775810124598492,-0.020245819323134222,0.001064650843716541,0.6180300000000001,-0.52974,9.819809999999999
7101010030,21.84,-0.011711159280881954,-0.01811651763570114,0.0,0.60822,-0.51012,9.94734
7106060535,21.84,-0.008517206749732328,-0.012775810124598492,0.001064650843716541,0.65727,-0.49050000000000005,9.91791
7111111040,21.84,-0.01064650843716541,-0.006387905062299246,-0.001064650843716541,0.63765,-0.49050000000000005,9.74133
7116161545,21.84,-0.007452555906015787,-0.006387905062299246,0.0,0.6278400000000001,-0.49050000000000005,9.60399
7121212050,21.84,-0.008517206749732328,-0.003193952531149623,0.002129301687433082,0.6278400000000001,-0.44145,9.69228
7126262555,21.84,-0.014905111812031574,-0.001064650843716541,0.002129301687433082,0.65727,-0.47088,9.89829
7131313060,21.84,-0.014905111812031574,0.0,0.002129301687433082,0.6278400000000001,-0.46107000000000004,9.95715
7136363565,21.84,-0.011711159280881954,0.002129301687433082,0.0,0.63765,-0.43164,9.81
7141414070,21.84,-0.011711159280881954,0.001064650843716541,-0.001064650843716541,0.60822,-0.45126,9.59418
7146464575,21.84,-0.015987215948268057,0.0,0.0,0.60822,-0.43164,9.57456
7151515080,21.84,-0.020245819323134222,0.001064650843716541,0.0,0.60822,-0.46107000000000004,9.760950000000001
7156565585,21.84,-0.024504422698000388,0.003193952531149623,0.0,0.65727,-0.49050000000000005,9.937529999999999
7161616090,21.84,-0.02982767691658309,0.00958185759344887,0.003193952531149623,0.59841,-0.49050000000000005,9.91791
7166666595,21.84,-0.033021629447732716,0.007452555906015787,0.001064650843716541,0.60822,-0.51012,9.72171
7171717100,21.84,-0.028763026072866547,0.004258603374866164,0.0,0.6180300000000001,-0.5493600000000001,9.68247
7176767605,21.84,-0.023439771854283843,0.0,0.0,0.59841,-0.5395500000000001,9.760950000000001
7181818110,21.84,-0.020245819323134222,0.001064650843716541,-0.001064650843716541,0.6278400000000001,-0.51993,9.83943
7186868615,21.84,-0.015987215948268057,0.002129301687433082,0.001064650843716541,0.6278400000000001,-0.52974,9.908100000000001
7191919120,21.84,-0.015987215948268057,0.004258603374866164,0.0,0.6180300000000001,-0.52974,9.819809999999999
7196969625,21.84,-0.022375121010567305,0.003193952531149623,0.0,0.59841,-0.5493600000000001,9.72171
7202020130,21.84,-0.020245819323134222,0.001064650843716541,0.0,0.60822,-0.5591700000000001,9.78057
7207070635,21.84,-0.020245819323134222,0.0,0.001064650843716541,0.6180300000000001,-0.51993,9.85905
7212121140,21.84,-0.012775810124598492,0.0,0.0,0.60822,-0.51012,9.84924
7217171645,21.84,-0.00958185759344887,0.003193952531149623,0.0,0.5886,-0.49050000000000005,9.81
7222222150,21.84,-0.006387905062299246,0.00958185759344887,0.0,0.60822,-0.49050000000000005,9.751140000000001
7227272655,21.84,-0.012775810124598492,0.014905111812031574,0.0,0.51993,-0.46107000000000004,9.81
7232323160,21.84,-0.021310470166850764,0.013840460968315033,0.0,0.5591700000000001,-0.48069000000000006,9.78057
7237373665,21.84,-0.02982767691658309,0.013840460968315033,0.0,0.5493600000000001,-0.49050000000000005,9.74133
7242424170,21.84,-0.02769837522915001,0.008517206749732328,0.0,0.5493600000000001,-0.51993,9.81
7247474675,21.84,-0.02663372438543347,0.0,0.0,0.5395500000000001,-0.5395500000000001,9.86886
7252525180,21.84,-0.023439771854283843,-0.003193952531149623,0.0,0.5591700000000001,-0.57879,9.85905
7257575685,21.84,-0.0170518667919846,-0.004258603374866164,0.0,0.52974,-0.51993,9.72171
7262626190,21.84,-0.015987215948268057,-0.001064650843716541,0.0,0.56898,-0.5493600000000001,9.633420000000001
7267676695,21.84,-0.015987215948268057,0.001064650843716541,0.0,0.5591700000000001,-0.52974,9.74133
7272727200,21.84,-0.01811651763570114,0.001064650843716541,0.0,0.5886,-0.5493600000000001,9.91791
7277777705,21.84,-0.01918116847941768,0.001064650843716541,0.0,0.57879,-0.51012,9.92772
7282828210,21.84,-0.020245819323134222,-0.002129301687433082,0.0,0.5493600000000001,-0.52974,9.81
7287878715,21.84,-0.0170518667919846,-0.002129301687433082,0.0,0.5493600000000001,-0.51012,9.64323
7292929220,21.84,-0.013840460968315033,-0.006387905062299246,0.0,0.5395500000000001,-0.50031,9.64323
7297979725,21.84,-0.015987215948268057,-0.004258603374866164,0.0,0.5493600000000001,-0.51012,9.81
7303030230,21.84,-0.020245819323134222,-0.001064650843716541,0.0,0.60822,-0.51012,9.98658
7308080735,21.84,-0.023439771854283843,-0.002129301687433082,0.0,0.59841,-0.5591700000000001,9.95715
7313131240,21.84,-0.022375121010567305,-0.002129301687433082,0.0,0.5886,-0.5591700000000001,9.79038
7318181745,21.84,-0.01918116847941768,-0.007452555906015787,0.0,0.5886,-0.57879,9.68247
7323232250,21.84,-0.0170518667919846,-0.00958185759344887,0.0,0.59841,-0.59841,9.72171
7328282755,21.84,-0.021310470166850764,-0.01064650843716541,0.0,0.63765,-0.60822,9.89829
7333333260,21.84,-0.01918116847941768,-0.01064650843716541,0.0,0.6278400000000001,-0.57879,9.91791
7338383765,21.84,-0.014905111812031574,-0.007452555906015787,0.0,0.6670800000000001,-0.56898,9.81
7343434270,21.84,-0.01064650843716541,0.0,0.0,0.63765,-0.52974,9.73152
7348484775,21.84,-0.002129301687433082,0.002129301687433082,0.0,0.63765,-0.51012,9.68247
7353535280,21.84,0.0,0.008517206749732328,0.0,0.6180300000000001,-0.49050000000000005,9.72171
7358585785,21.84,-0.003193952531149623,0.01811651763570114,0.0,0.60822,-0.46107000000000004,9.78057
7363636290,21.84,-0.01064650843716541,0.01811651763570114,0.0,0.5886,-0.45126,9.80019
7368686795,21.84,-0.01918116847941768,0.01918116847941768,0.0,0.5886,-0.48069000000000006,9.79038
7373737300,21.84,-0.02769837522915001,0.013840460968315033,0.0,0.52974,-0.47088,9.70209
7378787805,21.84,-0.023439771854283843,0.002129301687433082,0.0,0.5395500000000001,-0.51012,9.73152
7383838310,21.84,-0.020245819323134222,-0.005323254218582705,0.0,0.56898,-0.51012,9.751140000000001
7388888815,21.84,-0.013840460968315033,-0.01064650843716541,0.0,0.59841,-0.50031,9.83943
7393939320,21.84,-0.015987215948268057,-0.013840460968315033,0.0,0.57879,-0.5493600000000001,9.86886
7398989825,21.84,-0.023439771854283843,-0.01064650843716541,0.0,0.60822,-0.57879,9.751140000000001
7404040330,21.84,-0.033021629447732716,-0.013840460968315033,0.0,0.6180300000000001,-0.60822,9.74133
7409090835,21.84,-0.02982767691658309,-0.011711159280881954,0.0,0.64746,-0.64746,9.82962
7414141340,21.84,-0.01918116847941768,-0.0170518667919846,0.0,0.63765,-0.6278400000000001,9.85905
7419191845,21.84,-0.011711159280881954,-0.011711159280881954,0.0,0.64746,-0.5886,9.819809999999999
7424242350,21.84,-0.003193952531149623,-0.007452555906015787,0.0,0.6867000000000001,-0.5591700000000001,9.78057
7429292855,21.84,-0.003193952531149623,-0.002129301687433082,0.0,0.6768900000000001,-0.51993,9.73152
7434343360,21.84,-0.006387905062299246,0.00958185759344887,0.0,0.6768900000000001,-0.51012,9.80019
7439393865,21.84,-0.012775810124598492,0.021310470166850764,0.0,0.6278400000000001,-0.51012,9.91791
7444444370,21.84,-0.01811651763570114,0.02663372438543347,0.0,0.60822,-0.52974,9.87867
7449494875,21.84,-0.021310470166850764,0.02769837522915001,0.0,0.5886,-0.51012,9.67266
7454545380,21.84,-0.020245819323134222,0.024504422698000388,0.0,0.5395500000000001,-0.5395500000000001,9.60399
7459595885,21.84,-0.01918116847941768,0.01918116847941768,0.0,0.52974,-0.5395500000000001,9.70209
7464646390,21.84,-0.01811651763570114,0.011711159280881954,0.0,0.5591700000000001,-0.50031,9.937529999999999
7469696895,21.84,-0.023439771854283843,0.006387905062299246,0.0,0.5591700000000001,-0.56898,10.006200000000002
7474747400,21.84,-0.02556907354171693,0.003193952531149623,0.0,0.5493600000000001,-0.5591700000000001,9.83943
7479797905,21.84,-0.024504422698000388,0.002129301687433082,0.0,0.48069000000000006,-0.59841,9.6138
7484848410,21.84,-0.022375121010567305,0.0,0.0,0.51012,-0.59841,9.6138
7489898915,21.84,-0.020245819323134222,-0.001064650843716541,0.0,0.5395500000000001,-0.60822,9.819809999999999
7494949420,21.84,-0.020245819323134222,-0.003193952531149623,0.0,0.5591700000000001,-0.60822,9.97677
7499999925,21.84,-0.0170518667919846,-0.003193952531149623,0.0,0.5493600000000001,-0.56898,9.91791
7505050430,21.84,-0.014905111812031574,-0.004258603374866164,0.0,0.5493600000000001,-0.5591700000000001,9.74133
7510100935,21.84,-0.011711159280881954,-0.00958185759344887,0.0,0.56898,-0.5493600000000001,9.633420000000001
7515151440,21.84,-0.007452555906015787,-0.008517206749732328,0.0,0.57879,-0.5395500000000001,9.81
7520201945,21.84,-0.007452555906015787,-0.00958185759344887,0.0,0.5886,-0.51012,9.89829
7525252450,21.84,-0.01064650843716541,-0.007452555906015787,0.0,0.60822,-0.51993,9.83943
7530302955,21.84,-0.01811651763570114,-0.002129301687433082,0.0,0.59841,-0.5493600000000001,9.74133
7535353460,21.84,-0.023439771854283843,0.0,0.0,0.57879,-0.56898,9.72171
7540403965,21.84,-0.024504422698000388,0.0,0.0,0.57879,-0.5886,9.819809999999999
7545454470,21.84,-0.01918116847941768,-0.001064650843716541,0.0,0.57879,-0.56898,9.91791
7550504975,21.84,-0.015987215948268057,-0.006387905062299246,0.0,0.60822,-0.5886,9.85905
7555555480,21.84,-0.01064650843716541,-0.008517206749732328,0.0,0.60822,-0.5886,9.751140000000001
7560605985,21.84,-0.011711159280881954,-0.006387905062299246,0.0,0.6180300000000001,-0.57879,9.7119
7565656490,21.84,-0.012775810124598492,-0.004258603374866164,0.0,0.63765,-0.59841,9.819809999999999
7570706995,21.84,-0.01811651763570114,0.0,0.0,0.6278400000000001,-0.59841,9.908100000000001
7575757500,21.84,-0.021310470166850764,0.006387905062299246,0.0,0.60822,-0.60822,9.84924
7580808005,21.84,-0.020245819323134222,0.004258603374866164,0.0,0.60822,-0.6278400000000001,9.751140000000001
7585858510,21.84,-0.013840460968315033,0.0,0.0,0.59841,-0.6278400000000001,9.760950000000001
7590909015,21.84,-0.00958185759344887,-0.002129301687433082,0.0,0.63765,-0.6180300000000001,9.84924
7595959520,21.84,-0.008517206749732328,-0.001064650843716541,0.0,0.60822,-0.5493600000000001,9.888480000000001
