#timestamp [ns], temperature [degC], w_RS_S_x [rad s^-1], w_RS_S_y [rad s^-1], w_RS_S_z [rad s^-1], a_RS_S_x [m s^-2], a_RS_S_y [m s^-2], a_RS_S_z [m s^-2]
0.0,22.16,0.0,0.0,0.0,0.0981,0.32373,9.86886
5000000.0,22.16,0.0,0.0,0.0,0.059252399611524,0.34315380019423797,9.888283800194237
10000000.0,22.16,0.0,0.0,0.0,0.068473800194238,0.36257760038847603,9.869252399611524
15000000.0,22.16,0.0,0.0,0.0,0.087701400582714,0.36297,9.897407100874071
20000000.0,22.16,0.0,0.0,0.0,0.060037198834571995,0.34413479922304796,9.879454799223048
25000000.0,22.16,0.0,0.0,0.0,0.068179500485595,0.34335,9.906628501456785
30000000.0,22.16,0.0,0.0,0.0,0.050227198834571996,0.35257140058271397,9.898878599417285
35000000.0,22.16,0.0,0.0,0.0,0.03992669932016699,0.325790097960501,9.89829
40000000.0,22.16,0.0,0.0,0.0,0.07534080310780802,0.341780401553904,9.889264799223048
45000000.0,22.16,0.0,0.0,0.0,0.06955289912592899,0.36120420174814205,9.88848
50000000.0,22.16,0.0,0.0,0.0,0.06867,0.34531199805762,9.86199299708643
55000000.0,22.16,0.0,0.0,0.0,0.06867,0.31715729679507293,9.85905
60000000.0,22.16,0.0,0.0,0.0,0.07730280116542801,0.322552801165428,9.902214005827139
65000000.0,22.16,0.0,0.0,0.0,0.07848,0.32373,9.899565298737452
70000000.0,22.16,0.0,0.0,0.0,0.07004339864033399,0.32373,9.89829
75000000.0,22.16,0.0,0.0,0.0,0.06867,0.30705299708642997,9.89829
80000000.0,22.16,0.0,0.0,0.0,0.09339120466171205,0.32883120466171206,9.89829
85000000.0,22.16,0.0,0.0,0.0,0.08995769834897697,0.33354,9.849436190093861
90000000.0,22.16,0.0,0.0,0.0,0.08024579825185797,0.349628403496284,9.847474201748142
95000000.0,22.16,0.0,0.0,0.0,0.09437220369052204,0.32932169446421694,9.881024407381044
100000000.0,22.16,0.0,0.0,0.0,0.07455599417285994,0.33157800194238,9.88063199805762
105000000.0,22.16,0.0,0.0,0.0,0.05317019592100196,0.34903980407899804,9.894169804078997
110000000.0,22.16,0.0,0.0,0.0,0.06435360427323604,0.3302045935901459,9.89829
115000000.0,22.16,0.0,0.0,0.0,0.05356259553252596,0.33128370223373704,9.890736297766262
120000000.0,22.16,0.0,0.0,0.0,0.0788724093234241,0.326084397669144,9.873568795338288
125000000.0,22.16,0.0,0.0,0.0,0.06621749271607492,0.30901499514404995,9.890932507283924
130000000.0,22.16,0.0,0.0,0.0,0.051600597474905974,0.34040701262547013,9.883771194949812
135000000.0,22.16,0.0,0.0,0.0,0.06337260524442605,0.32451478951114787,9.885831302622213
140000000.0,22.16,0.0,0.0,0.0,0.08279640543866405,0.32098320271933206,9.881416797280668
145000000.0,22.16,0.0,0.0,0.0,0.08829,0.32373,9.8926002056329
150000000.0,22.16,0.0,0.0,0.0,0.047087982518579825,0.3443310087407101,9.89829
155000000.0,22.16,0.0,0.0,0.0,0.06327451505344515,0.346391096989311,9.89829
160000000.0,22.16,0.0,0.0,0.0,0.07848,0.33667919689219195,9.89829
165000000.0,22.16,0.0,0.0,0.0,0.07190729679507296,0.34011270320492704,9.878571890385219
170000000.0,22.16,0.0,0.0,0.0,0.06867,0.34335,9.862385396697954
175000000.0,22.16,0.0,0.0,0.0,0.06229349660083497,0.336973496600835,9.88455601359666
180000000.0,22.16,0.0,0.0,0.0,0.06513840349628403,0.32098319300743194,9.86689798251858
185000000.0,22.16,0.0,0.0,0.0,0.07485030359340303,0.32628060718680607,9.873961214373612
190000000.0,22.16,0.0,0.0,0.0,0.07848,0.32137559261895593,9.900644407381044
195000000.0,22.16,0.0,0.0,0.0,0.06651179242471793,0.31990410378764106,9.9081
200000000.0,22.16,0.0,0.0,0.0,0.052973996115239966,0.32373,9.88455598446096
205000000.0,22.16,0.0,0.0,0.0,0.06062580796375808,0.3353058079637581,9.874647903981879
210000000.0,22.16,0.0,0.0,0.0,0.07435980407899803,0.3547296081579961,9.884359804078997
215000000.0,22.16,0.0,0.0,0.0,0.08966340835223409,0.35178659164776593,9.877296591647765
220000000.0,22.16,0.0,0.0,0.0,0.08161918718029187,0.348843604273236,9.879847208546472
225000000.0,22.16,0.0,0.0,0.0,0.06867,0.34776449562964495,9.893875504370355
230000000.0,22.16,0.0,0.0,0.0,0.06867,0.32745778659757785,9.919479617869897
235000000.0,22.16,0.0,0.0,0.0,0.06347069543540695,0.33471721825837214,9.916732781741628
240000000.0,22.16,0.0,0.0,0.0,0.05886,0.3429575906765759,9.882986386014863
245000000.0,22.16,0.0,0.0,0.0,0.06886620951766209,0.33854310475883104,9.883869314276494
250000000.0,22.16,0.0,0.0,0.0,0.07848,0.34825500485595,9.8786699805762
255000000.0,22.16,0.0,0.0,0.0,0.06405928514079284,0.3483530950469309,9.873470714859208
260000000.0,22.16,0.0,0.0,0.0,0.0584676101003761,0.3339323898996239,9.883771194949812
265000000.0,22.16,0.0,0.0,0.0,0.0778914102946141,0.3145085897053859,9.883280705147307
270000000.0,22.16,0.0,0.0,0.0,0.07926478951114789,0.30862260524442603,9.88848
275000000.0,22.16,0.0,0.0,0.0,0.0774990106830901,0.31392,9.89730901068309
280000000.0,22.16,0.0,0.0,0.0,0.08397359456133593,0.31823640543866405,9.895150783684008
285000000.0,22.16,0.0,0.0,0.0,0.07004338892843388,0.32373,9.87867
290000000.0,22.16,0.0,0.0,0.0,0.07122061689870617,0.32785020563290207,9.882790205632901
295000000.0,22.16,0.0,0.0,0.0,0.08426789426997894,0.33756210573002104,9.88848
300000000.0,22.16,0.0,0.0,0.0,0.08240400582714005,0.33550198834571987,9.900252017481419
305000000.0,22.16,0.0,0.0,0.0,0.08446409407574093,0.31990409407574094,9.906432282227222
310000000.0,22.16,0.0,0.0,0.0,0.07848,0.31392,9.895935612042756
315000000.0,22.16,0.0,0.0,0.0,0.07848,0.32480911835549114,9.900840587763005
320000000.0,22.16,0.0,0.0,0.0,0.08201160621561605,0.33981839378438394,9.88848
325000000.0,22.16,0.0,0.0,0.0,0.08485649368726493,0.33697350631273504,9.885046493687264
330000000.0,22.16,0.0,0.0,0.0,0.07848,0.35002081281970815,9.868663780770438
335000000.0,22.16,0.0,0.0,0.0,0.08495461301394613,0.36297,9.862189226027892
340000000.0,22.16,0.0,0.0,0.0,0.0886823801877238,0.36297,9.885340793395908
345000000.0,22.16,0.0,0.0,0.0,0.07475221340242214,0.35080557319515576,9.87867
350000000.0,22.16,0.0,0.0,0.0,0.09123300679833006,0.32667300679833006,9.89338503399165
355000000.0,22.16,0.0,0.0,0.0,0.0895652793136528,0.3363849068954491,9.913495465522756
360000000.0,22.16,0.0,0.0,0.0,0.06867,0.34884361398513614,9.884163613985136
365000000.0,22.16,0.0,0.0,0.0,0.06867,0.36032129291031295,9.890343878730938
370000000.0,22.16,0.0,0.0,0.0,0.07122060718680606,0.3480587856263878,9.866309392813193
375000000.0,22.16,0.0,0.0,0.0,0.07602749271607492,0.33599250728392505,9.861502507283925
380000000.0,22.16,0.0,0.0,0.0,0.07102440738104407,0.33864118523791187,9.871214407381045
385000000.0,22.16,0.0,0.0,0.0,0.07171107756551078,0.32373,9.885438922434489
390000000.0,22.16,0.0,0.0,0.0,0.05336641515056415,0.3194135848494359,9.910258207575282
395000000.0,22.16,0.0,0.0,0.0,0.06867,0.30823021534480216,9.911729676982796
400000000.0,22.16,0.0,0.0,0.0,0.07063200776952007,0.32765401553904017,9.89044200776952
405000000.0,22.16,0.0,0.0,0.0,0.07848,0.3452139078666391,9.892698276400083
410000000.0,22.16,0.0,0.0,0.0,0.07848,0.3513941920362419,9.86886
415000000.0,22.16,0.0,0.0,0.0,0.07681229193912291,0.34501770806087706,9.86886
420000000.0,22.16,0.0,0.0,0.0,0.07180921631599216,0.35316,9.871999216315992
425000000.0,22.16,0.0,0.0,0.0,0.08387547523465474,0.35168849174488487,9.887008491744885
430000000.0,22.16,0.0,0.0,0.0,0.060233408352234084,0.33785636659106366,9.884163633408935
435000000.0,22.16,0.0,0.0,0.0,0.06611938310129382,0.30793592534805925,9.912808766202588
440000000.0,22.16,0.0,0.0,0.0,0.050227208546472085,0.33118558290705585,9.879847208546472
445000000.0,22.16,0.0,0.0,0.0,0.05993910864359109,0.3171573259307732,9.887400891356409
450000000.0,22.16,0.0,0.0,0.0,0.06768899125928991,0.3423689912592899,9.877688991259289
455000000.0,22.16,0.0,0.0,0.0,0.061508726513487266,0.3326570911621709,9.869742908837829
460000000.0,22.16,0.0,0.0,0.0,0.08515076426020764,0.32373,9.879454808934948
465000000.0,22.16,0.0,0.0,0.0,0.05042341806413418,0.32304329096793294,9.889166709032066
470000000.0,22.16,0.0,0.0,0.0,0.0680813908708139,0.31392,9.895935563483254
475000000.0,22.16,0.0,0.0,0.0,0.05984101845261019,0.3144105092263051,9.862483564584135
480000000.0,22.16,0.0,0.0,0.0,0.07848,0.3229451813531518,9.926542772029729
485000000.0,22.16,0.0,0.0,0.0,0.0781856905794569,0.30558154710271546,9.897995690579457
490000000.0,22.16,0.0,0.0,0.0,0.06886620951766209,0.3527675809646758,9.888087580964676
495000000.0,22.16,0.0,0.0,0.0,0.0785781096147811,0.3337362192295622,9.86895810961478
500000000.0,22.16,0.0,0.0,0.0,0.08828999028809989,0.3531599805761998,9.8786700097119
505000000.0,22.16,0.0,0.0,0.0,0.0785780901909809,0.3337361803819618,9.888381909809018
510000000.0,22.16,0.0,0.0,0.0,0.0688661900938619,0.33354,9.898093809906138
515000000.0,22.16,0.0,0.0,0.0,0.0877014200065142,0.33354,9.93635284001303
520000000.0,22.16,0.0,0.0,0.0,0.09770761010037611,0.3052871696988717,9.890441949498118
525000000.0,22.16,0.0,0.0,0.0,0.0608219592100196,0.3227490203949902,9.925758040789981
530000000.0,22.16,0.0,0.0,0.0,0.06808141029461409,0.3421728205892282,9.900055769116157
535000000.0,22.16,0.0,0.0,0.0,0.0777933103917331,0.34335,9.880043379216533
540000000.0,22.16,0.0,0.0,0.0,0.06042957902229579,0.3614004209777042,9.887695210488852
545000000.0,22.16,0.0,0.0,0.0,0.0677871105859711,0.3540428894140289,9.870625778828057
550000000.0,22.16,0.0,0.0,0.0,0.06867,0.3355019786338198,9.86886
555000000.0,22.16,0.0,0.0,0.0,0.06867,0.3248090892197909,9.886321821560418
560000000.0,22.16,0.0,0.0,0.0,0.06867,0.3409956217546562,9.879847189122671
565000000.0,22.16,0.0,0.0,0.0,0.060135289025552895,0.3262805780511058,9.895739421948894
570000000.0,22.16,0.0,0.0,0.0,0.0672966110715661,0.34903983321469834,9.881416777856867
575000000.0,22.16,0.0,0.0,0.0,0.060331488831314894,0.36149851116868514,9.853654466493944
580000000.0,22.16,0.0,0.0,0.0,0.06710041126580411,0.33000835493678354,9.857480411265804
585000000.0,22.16,0.0,0.0,0.0,0.06052768863707689,0.3400146227258462,9.875334622725847
590000000.0,22.16,0.0,0.0,0.0,0.050815788539957885,0.32726157707991577,9.87867
595000000.0,22.16,0.0,0.0,0.0,0.06494222311432223,0.32373,9.894562223114322
600000000.0,22.16,0.0,0.0,0.0,0.06867,0.30018596503715966,9.90613801165428
605000000.0,22.16,0.0,0.0,0.0,0.053170176497201765,0.3252996470055965,9.9003500882486
610000000.0,22.16,0.0,0.0,0.0,0.06435362369703623,0.3258881881514819,9.890638188151481
615000000.0,22.16,0.0,0.0,0.0,0.06867,0.34639113583691133,9.873372576108725
620000000.0,22.16,0.0,0.0,0.0,0.06121438795724388,0.35316,9.883771224085512
625000000.0,22.16,0.0,0.0,0.0,0.05886,0.35316,9.873764975720249
630000000.0,22.16,0.0,0.0,0.0,0.07337882447398825,0.32412235105202347,9.876119412236994
635000000.0,22.16,0.0,0.0,0.0,0.056996062997660635,0.2995973753317738,9.892992624668226
640000000.0,22.16,0.0,0.0,0.0,0.06317642486246425,0.3013632124312321,9.912416424862464
645000000.0,22.16,0.0,0.0,0.0,0.06867,0.3319704501134045,9.897014662414946
650000000.0,22.16,0.0,0.0,0.0,0.05493597474905975,0.33648298737452986,9.89534701262547
655000000.0,22.16,0.0,0.0,0.0,0.06258782544517826,0.3267710872774109,9.884752174554821
660000000.0,22.16,0.0,0.0,0.0,0.08201162563941625,0.3304008128197081,9.865328374360583
665000000.0,22.16,0.0,0.0,0.0,0.07514457416634573,0.34668542583365425,9.872195425833654
670000000.0,22.16,0.0,0.0,0.0,0.06219538698605387,0.32726154794421547,9.87867
675000000.0,22.16,0.0,0.0,0.0,0.07161302622213025,0.32029651311106516,9.885046513111064
680000000.0,22.16,0.0,0.0,0.0,0.06592317358363173,0.33628682641636826,9.901036826416368
685000000.0,22.16,0.0,0.0,0.0,0.07122062661060627,0.31862874677878744,9.920460626610607
690000000.0,22.16,0.0,0.0,0.0,0.06631557319515573,0.3223566402072664,9.909473359792733
695000000.0,22.16,0.0,0.0,0.0,0.0768123404986234,0.32755588650045886,9.90427411349954
700000000.0,22.16,0.0,0.0,0.0,0.08240398640333986,0.34727405438664055,9.896327972806679
705000000.0,22.16,0.0,0.0,0.0,0.07848,0.3456062589186626,9.894267913693778
710000000.0,22.16,0.0,0.0,0.0,0.07848,0.33354,9.875530744836407
715000000.0,22.16,0.0,0.0,0.0,0.06170485833594858,0.3167648583359486,9.870233427776034
720000000.0,22.16,0.0,0.0,0.0,0.06003722797027228,0.32059084195540843,9.87867
725000000.0,22.16,0.0,0.0,0.0,0.07946102816451028,0.32274897183548973,9.90025205632902
730000000.0,22.16,0.0,0.0,0.0,0.07769517164125171,0.33510965671749654,9.902017757461877
735000000.0,22.16,0.0,0.0,0.0,0.07386931427649314,0.3427613714470137,9.88848
740000000.0,22.16,0.0,0.0,0.0,0.07848,0.33354,9.883378785626387
745000000.0,22.16,0.0,0.0,0.0,0.07347688552926884,0.34854934341219346,9.873666885529268
750000000.0,22.16,0.0,0.0,0.0,0.08338504370355043,0.35315997086429973,9.88357504370355
755000000.0,22.16,0.0,0.0,0.0,0.09329308533503085,0.33854308533503086,9.888676170670061
760000000.0,22.16,0.0,0.0,0.0,0.0788723704758237,0.3288311852379119,9.883378814762088
765000000.0,22.16,0.0,0.0,0.0,0.07328071485920715,0.31911928514079285,9.902312144577621
770000000.0,22.16,0.0,0.0,0.0,0.07848,0.31843261495632613,9.899859540174695
775000000.0,22.16,0.0,0.0,0.0,0.0696509698931097,0.3193154849465549,9.883084515053445
780000000.0,22.16,0.0,0.0,0.0,0.07180924545169245,0.3225528303011283,9.88848
785000000.0,22.16,0.0,0.0,0.0,0.07985336950463369,0.33354,9.871606739009268
790000000.0,22.16,0.0,0.0,0.0,0.06867,0.32529956931039566,9.865720861379208
795000000.0,22.16,0.0,0.0,0.0,0.0767142308838423,0.32598634632576345,9.884457884558078
800000000.0,22.16,0.0,0.0,0.0,0.06866992230479922,0.33157795338287954,9.88651803107808
805000000.0,22.16,0.0,0.0,0.0,0.04689183127231831,0.31392,9.90211591563616
810000000.0,22.16,0.0,0.0,0.0,0.051404368533443684,0.3213756314665563,9.900644368533444
815000000.0,22.16,0.0,0.0,0.0,0.05012914749119147,0.3407994316607943,9.892109715830397
820000000.0,22.16,0.0,0.0,0.0,0.06867,0.34256515221745154,9.894758384072484
825000000.0,22.16,0.0,0.0,0.0,0.08240406409854063,0.3340305480739055,9.878179451926094
830000000.0,22.16,0.0,0.0,0.0,0.10123916775649168,0.34648916775649163,9.862385416121754
835000000.0,22.16,0.0,0.0,0.0,0.08829,0.33030268378112687,9.878571948656619
840000000.0,22.16,0.0,0.0,0.0,0.08201156736801567,0.3268692163159922,9.89829
845000000.0,22.16,0.0,0.0,0.0,0.07171111641311116,0.33049888358688884,9.895248883586888
850000000.0,22.16,0.0,0.0,0.0,0.07848,0.32078698348976986,9.894366033020459
855000000.0,22.16,0.0,0.0,0.0,0.07279016678530166,0.3167649166073492,9.902410166785302
860000000.0,22.16,0.0,0.0,0.0,0.061606816704468166,0.32922363340893634,9.88848
865000000.0,22.16,0.0,0.0,0.0,0.07131871680158716,0.3354038495952385,9.883182566396826
870000000.0,22.16,0.0,0.0,0.0,0.08103061689870616,0.31647061689870615,9.871410616898705
875000000.0,22.16,0.0,0.0,0.0,0.08338496600834966,0.3261825169958252,9.87376496600835
880000000.0,22.16,0.0,0.0,0.0,0.07102441709294416,0.3264767487211675,9.861404417092944
885000000.0,22.16,0.0,0.0,0.0,0.07396736561987366,0.31313526876025266,9.871116317190063
890000000.0,22.16,0.0,0.0,0.0,0.06317643457436435,0.3325589135640891,9.885144651861546
895000000.0,22.16,0.0,0.0,0.0,0.07229964784709647,0.3025404695372047,9.906039882615698
900000000.0,22.16,0.0,0.0,0.0,0.04905,0.33942605244426055,9.89632798251858
905000000.0,22.16,0.0,0.0,0.0,0.05091391757853918,0.36297,9.882888247264383
910000000.0,22.16,0.0,0.0,0.0,0.05886,0.35237509394605093,9.86787908837829
915000000.0,22.16,0.0,0.0,0.0,0.06386315331833153,0.3091131533183315,9.903096846681668
920000000.0,22.16,0.0,0.0,0.0,0.08515076426020764,0.33824885360968854,9.87867
925000000.0,22.16,0.0,0.0,0.0,0.07014151796701518,0.3600269640659697,9.877198482032984
930000000.0,22.16,0.0,0.0,0.0,0.07710658193586581,0.3406031638717316,9.871606836128269
935000000.0,22.16,0.0,0.0,0.0,0.06867,0.32628063632250637,9.887204681838746
940000000.0,22.16,0.0,0.0,0.0,0.06513834522488345,0.3421727817416278,9.87867
945000000.0,22.16,0.0,0.0,0.0,0.04247735506647355,0.33354,9.87867
950000000.0,22.16,0.0,0.0,0.0,0.06768898154738981,0.3345210184526102,9.87965101845261
955000000.0,22.16,0.0,0.0,0.0,0.060625837099458374,0.33981832580108323,9.88759708145027
960000000.0,22.16,0.0,0.0,0.0,0.07848,0.30567963729369635,9.87867
965000000.0,22.16,0.0,0.0,0.0,0.07779328125603281,0.32373,9.881416874975868
970000000.0,22.16,0.0,0.0,0.0,0.06925861884108618,0.32314138115891383,9.91614414347674
975000000.0,22.16,0.0,0.0,0.0,0.0779894810617948,0.31539155681461556,9.889951556814616
980000000.0,22.16,0.0,0.0,0.0,0.06945483807064838,0.34374241903532415,9.915555485788055
985000000.0,22.16,0.0,0.0,0.0,0.08770136173511361,0.35286568086755676,9.85993295739733
990000000.0,22.16,0.0,0.0,0.0,0.06886621922956218,0.3427613423113134,9.888087561540875
995000000.0,22.16,0.0,0.0,0.0,0.07848,0.31401811932668117,9.868958119326681
1000000000.0,22.16,0.0,0.0,0.0,0.07847996115239961,0.3237299611523996,9.8786699805762
1005000000.0,22.16,0.0,0.0,0.0,0.059056160958161616,0.3043061609581616,9.86895808047908
1010000000.0,22.16,0.0,0.0,0.0,0.04924618038196181,0.3329514588541146,9.888087639236076
1015000000.0,22.16,0.0,0.0,0.0,0.06808143943031439,0.33354,9.859932840854528
1020000000.0,22.16,0.0,0.0,0.0,0.07808761981227619,0.35237523962455236,9.90613809906138
1025000000.0,22.16,0.0,0.0,0.0,0.0971190398187904,0.3252014402718144,9.898780480090604
1030000000.0,22.16,0.0,0.0,0.0,0.07043573998045739,0.3421728400130284,9.879847159986971
1035000000.0,22.16,0.0,0.0,0.0,0.0504233597927336,0.3615966402072664,9.87867
1040000000.0,22.16,0.0,0.0,0.0,0.08515088080300881,0.3268691191969912,9.896720440401504
1045000000.0,22.16,0.0,0.0,0.0,0.0793628797021288,0.32373,9.889362879702128
1050000000.0,22.16,0.0,0.0,0.0,0.051992938815029394,0.32373,9.90613804078998
1055000000.0,22.16,0.0,0.0,0.0,0.0665118409842184,0.3411918409842184,9.855714477047345
1060000000.0,22.16,0.0,0.0,0.0,0.060037179410771795,0.30881871764308716,9.883771282356912
1065000000.0,22.16,0.0,0.0,0.0,0.05886,0.32971416205904164,9.879945279313652
1070000000.0,22.16,0.0,0.0,0.0,0.09260648313386483,0.3166667584330676,9.87867
1075000000.0,22.16,0.0,0.0,0.0,0.08142295823882958,0.33059704176117044,9.89534704176117
1080000000.0,22.16,0.0,0.0,0.0,0.06199915804459158,0.3417804209777042,9.881809158044591
1085000000.0,22.16,0.0,0.0,0.0,0.08328696322446963,0.3514923210748232,9.894954642149646
1090000000.0,22.16,0.0,0.0,0.0,0.08024577882805778,0.32902733648417337,9.89829
1095000000.0,22.16,0.0,0.0,0.0,0.06258775746187757,0.3078377574618776,9.90623612126906
1100000000.0,22.16,0.0,0.0,0.0,0.0667080213661802,0.32765406409854064,9.89240395726764
1105000000.0,22.16,0.0,0.0,0.0,0.0764199214632992,0.33354,9.8807300785367
1110000000.0,22.16,0.0,0.0,0.0,0.07848,0.33354,9.87867
1115000000.0,22.16,0.0,0.0,0.0,0.07092627834246278,0.3410937216575372,9.87867
1120000000.0,22.16,0.0,0.0,0.0,0.06867,0.32098313473603135,9.87867
1125000000.0,22.16,0.0,0.0,0.0,0.06867,0.3065624781482248,9.86395495629645
1130000000.0,22.16,0.0,0.0,0.0,0.07592942194889421,0.3113694219488942,9.888087687795576
1135000000.0,22.16,0.0,0.0,0.0,0.06415735590797356,0.3282426440920264,9.905451322046012
1140000000.0,22.16,0.0,0.0,0.0,0.08004966642939666,0.3476664442862644,9.893973555713735
1145000000.0,22.16,0.0,0.0,0.0,0.07435975551949756,0.3601251222402512,9.88848
1150000000.0,22.16,0.0,0.0,0.0,0.04806893298788933,0.3698370223373702,9.881612977662629
1155000000.0,22.16,0.0,0.0,0.0,0.05277784486897845,0.3457043102620431,9.885438922434489
1160000000.0,22.16,0.0,0.0,0.0,0.07220164506321644,0.3268691774683918,9.88848
1165000000.0,22.16,0.0,0.0,0.0,0.07190727737127277,0.33030272262872723,9.881907277371273
1170000000.0,22.16,0.0,0.0,0.0,0.05572075454830755,0.3076415090966151,9.891619245451691
1175000000.0,22.16,0.0,0.0,0.0,0.061803045645930456,0.30705304564593044,9.911043045645929
1180000000.0,22.16,0.0,0.0,0.0,0.06867,0.3201984229200842,9.911631577079914
1185000000.0,22.16,0.0,0.0,0.0,0.07485032301720322,0.32373,9.895739353965594
1190000000.0,22.16,0.0,0.0,0.0,0.07848,0.32373,9.88848
1195000000.0,22.16,0.0,0.0,0.0,0.06052763036567631,0.31176175357711755,9.882495876788559
1200000000.0,22.16,0.0,0.0,0.0,0.05493602330856023,0.3394261398513614,9.87867
1205000000.0,22.16,0.0,0.0,0.0,0.07043584681135846,0.33981830637728305,9.87867
1210000000.0,22.16,0.0,0.0,0.0,0.08416982350279822,0.3351096470055965,9.87867
1215000000.0,22.16,0.0,0.0,0.0,0.07151482920024829,0.33216655280016555,9.889853447199833
1220000000.0,22.16,0.0,0.0,0.0,0.06984724739407247,0.3292236236970362,9.91477087109111
1225000000.0,22.16,0.0,0.0,0.0,0.06768895241168953,0.32814447620584475,9.895346857235069
1230000000.0,22.16,0.0,0.0,0.0,0.06415742389127424,0.344919695565097,9.874157423891274
1235000000.0,22.16,0.0,0.0,0.0,0.06867,0.35257135202321355,9.87867
1240000000.0,22.16,0.0,0.0,0.0,0.07887244817102448,0.33314755182897554,9.883771224085512
1245000000.0,22.16,0.0,0.0,0.0,0.07328062745210627,0.32373,9.883476875817369
1250000000.0,22.16,0.0,0.0,0.0,0.06376502427975024,0.32373,9.8884800485595
1255000000.0,22.16,0.0,0.0,0.0,0.06386307562313076,0.3333438487537385,9.88867615124626
1260000000.0,22.16,0.0,0.0,0.0,0.07298647342196474,0.3339323510520235,9.892796473421964
1265000000.0,22.16,0.0,0.0,0.0,0.06984710171557101,0.3329514491422145,9.894267826286677
1270000000.0,22.16,0.0,0.0,0.0,0.05807524933645249,0.34335,9.883182624668226
1275000000.0,22.16,0.0,0.0,0.0,0.059840950469309505,0.3389354752346547,9.884065475234655
1280000000.0,22.16,0.0,0.0,0.0,0.0576828497249285,0.33354,9.874353575137535
1285000000.0,22.16,0.0,0.0,0.0,0.06867,0.32932167504041676,9.864641675040417
1290000000.0,22.16,0.0,0.0,0.0,0.06454977494329775,0.32785022505670225,9.875530900226808
1295000000.0,22.16,0.0,0.0,0.0,0.06288212515382124,0.33354,9.90231212515382
1300000000.0,22.16,0.0,0.0,0.0,0.06867,0.33354,9.91594805050188
1305000000.0,22.16,0.0,0.0,0.0,0.07249592534805925,0.33736592534805926,9.920068149303882
1310000000.0,22.16,0.0,0.0,0.0,0.07475217455482173,0.34335,9.9081
1315000000.0,22.16,0.0,0.0,0.0,0.06504027445770275,0.3469797255422972,9.889951372288513
1320000000.0,22.16,0.0,0.0,0.0,0.06592325127883251,0.33903349744233496,9.866113251278833
1325000000.0,22.16,0.0,0.0,0.0,0.07504647426346474,0.3104864742634647,9.875236474263465
1330000000.0,22.16,0.0,0.0,0.0,0.06533457416634574,0.30411,9.882201703334617
1335000000.0,22.16,0.0,0.0,0.0,0.06857197779231977,0.3105846518615465,9.9081
1340000000.0,22.16,0.0,0.0,0.0,0.07887232191632322,0.32373,9.904960773972107
1345000000.0,22.16,0.0,0.0,0.0,0.06798337837503378,0.32373,9.90133112612501
1350000000.0,22.16,0.0,0.0,0.0,0.08534697377786973,0.3325590786663908,9.902213947555738
1355000000.0,22.16,0.0,0.0,0.0,0.07848,0.34747014736150145,9.8827901473615
1360000000.0,22.16,0.0,0.0,0.0,0.08122682641636826,0.3390336528327365,9.866113173583631
1365000000.0,22.16,0.0,0.0,0.0,0.08564127348651272,0.34786254697302543,9.864347453026975
1370000000.0,22.16,0.0,0.0,0.0,0.07848,0.33354,9.87867
1375000000.0,22.16,0.0,0.0,0.0,0.07602747329227473,0.3261824198768242,9.886027580123175
1380000000.0,22.16,0.0,0.0,0.0,0.06631557319515573,0.3088188536096885,9.9081
1385000000.0,22.16,0.0,0.0,0.0,0.06111632690196327,0.32824265380392653,9.910356326901962
1390000000.0,22.16,0.0,0.0,0.0,0.06651177300091772,0.34766645399816454,9.913593546001835
1395000000.0,22.16,0.0,0.0,0.0,0.06916063548100636,0.36297,9.89829
1400000000.0,22.16,0.0,0.0,0.0,0.10594797280667974,0.35512189122671894,9.894365945613359
1405000000.0,22.16,0.0,0.0,0.0,0.09437214541912146,0.3311857091617571,9.882397854580878
1410000000.0,22.16,0.0,0.0,0.0,0.08024582738755827,0.35943834522488344,9.896524172612441
1415000000.0,22.16,0.0,0.0,0.0,0.08328681754596817,0.34168227251532274,9.893483182454032
1420000000.0,22.16,0.0,0.0,0.0,0.05886,0.33040074483640747,9.914770744836407
1425000000.0,22.16,0.0,0.0,0.0,0.05886,0.31392,9.902704583036746
1430000000.0,22.16,0.0,0.0,0.0,0.05886,0.31392,9.922226288895864
1435000000.0,22.16,0.0,0.0,0.0,0.06268598361945983,0.3177459836194598,9.887204672126845
1440000000.0,22.16,0.0,0.0,0.0,0.08711277202972771,0.34452722797027224,9.876315544059455
1445000000.0,22.16,0.0,0.0,0.0,0.07632174386521744,0.35316,9.861208256134782
1450000000.0,22.16,0.0,0.0,0.0,0.05886,0.3492358873419589,9.87965102816451
1455000000.0,22.16,0.0,0.0,0.0,0.061508784784887846,0.31480292826162926,9.88759707173837
1460000000.0,22.16,0.0,0.0,0.0,0.08750517164125171,0.32294517164125175,9.87867
1465000000.0,22.16,0.0,0.0,0.0,0.07710654308826542,0.3146067284558673,9.879356728455868
1470000000.0,22.16,0.0,0.0,0.0,0.059448628552986285,0.3243186285529863,9.889657257105972
1475000000.0,22.16,0.0,0.0,0.0,0.06916052865010529,0.3350115859503159,9.906628414049683
1480000000.0,22.16,0.0,0.0,0.0,0.07769514250555141,0.36257757125277573,9.878277571252776
1485000000.0,22.16,0.0,0.0,0.0,0.05915432884434329,0.3525713423113134,9.868565671155656
1490000000.0,22.16,0.0,0.0,0.0,0.06906245788292457,0.33432491576584916,9.859638686824386
1495000000.0,22.16,0.0,0.0,0.0,0.0880937419228374,0.3722893548070936,9.888774387115744
1500000000.0,22.16,0.0,0.0,0.0,0.06866994172859942,0.32373,9.917909941728599
1505000000.0,22.16,0.0,0.0,0.0,0.04924614153436142,0.32373,9.898486141534361
1510000000.0,22.16,0.0,0.0,0.0,0.09711914664969148,0.32373,9.89829
1515000000.0,22.16,0.0,0.0,0.0,0.0885842705729427,0.3332457294270573,9.917321458854113
1520000000.0,22.16,0.0,0.0,0.0,0.0788723704758237,0.33354,9.861404222854942
1525000000.0,22.16,0.0,0.0,0.0,0.07848,0.3614985888638859,9.868369529621296
1530000000.0,22.16,0.0,0.0,0.0,0.06925857028158569,0.33530571084475713,9.878081429718414
1535000000.0,22.16,0.0,0.0,0.0,0.07779332981553329,0.31529334036893336,9.860423340368934
1540000000.0,22.16,0.0,0.0,0.0,0.0604295401746954,0.3229452299126523,9.877100459825304
1545000000.0,22.16,0.0,0.0,0.0,0.0677871300097713,0.3326571300097713,9.896524260019541
1550000000.0,22.16,0.0,0.0,0.0,0.0510119397862194,0.31588193978621937,9.88946096989311
1555000000.0,22.16,0.0,0.0,0.0,0.057780930204009304,0.3313818604080186,9.87974906979599
1560000000.0,22.16,0.0,0.0,0.0,0.06749283030112829,0.32490716969887173,9.887302830301127
1565000000.0,22.16,0.0,0.0,0.0,0.06867,0.3578689215929892,9.862875808805258
1570000000.0,22.16,0.0,0.0,0.0,0.06867,0.3460967390092674,9.867486630495366
1575000000.0,22.16,0.0,0.0,0.0,0.0770085305924853,0.3516885305924853,9.86886
1580000000.0,22.16,0.0,0.0,0.0,0.07848,0.32843870793118707,9.893581292068813
1585000000.0,22.16,0.0,0.0,0.0,0.04591067685310676,0.3155876692132767,9.89829
1590000000.0,22.16,0.0,0.0,0.0,0.047284230883842315,0.30587576911615766,9.890245769116158
1595000000.0,22.16,0.0,0.0,0.0,0.09672678588576786,0.3200022619619226,9.880533869019038
1600000000.0,22.16,0.0,0.0,0.0,0.07651787568767876,0.30803393784383937,9.87082196892192
1605000000.0,22.16,0.0,0.0,0.0,0.06867,0.33510972470079725,9.899859724700796
1610000000.0,22.16,0.0,0.0,0.0,0.07632183127231831,0.3280463374553634,9.877492674910727
1615000000.0,22.16,0.0,0.0,0.0,0.07092626863056269,0.3161762686305627,9.876413731369437
1620000000.0,22.16,0.0,0.0,0.0,0.06867,0.3288312629331126,9.908492525866224
1625000000.0,22.16,0.0,0.0,0.0,0.06131246843632469,0.33354,9.91791
1630000000.0,22.16,0.0,0.0,0.0,0.06611943166079431,0.33354,9.91791
1635000000.0,22.16,0.0,0.0,0.0,0.09015399527373996,0.3407013317579133,9.889264672968347
1640000000.0,22.16,0.0,0.0,0.0,0.07691030443490304,0.33628676814496766,9.899859695565096
1645000000.0,22.16,0.0,0.0,0.0,0.06867,0.34747026390430263,9.887204604143546
1650000000.0,22.16,0.0,0.0,0.0,0.07553703204927031,0.35316,9.864935935901459
1655000000.0,22.16,0.0,0.0,0.0,0.06494213570722136,0.3260842714144427,9.85905
1660000000.0,22.16,0.0,0.0,0.0,0.06553083224350832,0.3205908322435083,9.865720832243507
1665000000.0,22.16,0.0,0.0,0.0,0.06209726765937268,0.31058453531874536,9.888578197021882
1670000000.0,22.16,0.0,0.0,0.0,0.052385367562253676,0.29763536756225367,9.89829
1675000000.0,22.16,0.0,0.0,0.0,0.055426532534865326,0.3198061301394613,9.89829
1680000000.0,22.16,0.0,0.0,0.0,0.07769529789595297,0.3398184326319843,9.904568432631983
1685000000.0,22.16,0.0,0.0,0.0,0.06974900181269002,0.34335,9.883378669083585
1690000000.0,22.16,0.0,0.0,0.0,0.08318893130488932,0.33726776717377766,9.881024465652445
1695000000.0,22.16,0.0,0.0,0.0,0.07416346830663469,0.3275558670766587,9.894464132923341
1700000000.0,22.16,0.0,0.0,0.0,0.06474603302046032,0.32373,9.880631900938619
1705000000.0,22.16,0.0,0.0,0.0,0.051306200647262004,0.341093799352738,9.880435866235159
1710000000.0,22.16,0.0,0.0,0.0,0.06768916607349165,0.34178033357060333,9.905549499644094
1715000000.0,22.16,0.0,0.0,0.0,0.071514800064548,0.350315199935452,9.912318266688182
1720000000.0,22.16,0.0,0.0,0.0,0.05886,0.346489099773191,9.902606366591064
1725000000.0,22.16,0.0,0.0,0.0,0.053464466493944665,0.349726600518166,9.903685533506055
1730000000.0,22.16,0.0,0.0,0.0,0.05964486720634867,0.35767256639682565,9.89750513279365
1735000000.0,22.16,0.0,0.0,0.0,0.07906866740058667,0.33756199889912,9.867682665198826
1740000000.0,22.16,0.0,0.0,0.0,0.08318876620258765,0.3339324675948247,9.859442467594825
1745000000.0,22.16,0.0,0.0,0.0,0.06847373221093732,0.3533562677890627,9.878866267789062
1750000000.0,22.16,0.0,0.0,0.0,0.06376503399165034,0.3384448300417483,9.8982900679833
1755000000.0,22.16,0.0,0.0,0.0,0.06867,0.31392,9.9081
1760000000.0,22.16,0.0,0.0,0.0,0.08279650255766502,0.3233376683717767,9.893973497442335
1765000000.0,22.16,0.0,0.0,0.0,0.09348926571699266,0.33815073428300735,9.87867
1770000000.0,22.16,0.0,0.0,0.0,0.07926473123974731,0.32981209685962093,9.869644731239747
1775000000.0,22.16,0.0,0.0,0.0,0.07308453447724533,0.3227490689544907,9.863464534477245
1780000000.0,22.16,0.0,0.0,0.0,0.07416356542563565,0.33354,9.873176434574365
1785000000.0,22.16,0.0,0.0,0.0,0.06867,0.32088499598555,9.87867
1790000000.0,22.16,0.0,0.0,0.0,0.06454976523139765,0.3123504695372047,9.895150939074409
1795000000.0,22.16,0.0,0.0,0.0,0.07092640459716404,0.3156857302685573,9.91791
1800000000.0,22.16,0.0,0.0,0.0,0.09221403496284035,0.31588210488852103,9.906137895111478
1805000000.0,22.16,0.0,0.0,0.0,0.08279625976016261,0.34501780517987807,9.88465406494004
1810000000.0,22.16,0.0,0.0,0.0,0.06631567031415671,0.35924216484292165,9.87867
1815000000.0,22.16,0.0,0.0,0.0,0.07848,0.3422707942374079,9.889559205762591
1820000000.0,22.16,0.0,0.0,0.0,0.07494836464868364,0.3166667292973673,9.89750509394605
1825000000.0,22.16,0.0,0.0,0.0,0.0755370708968707,0.3075435354484353,9.87867
1830000000.0,22.16,0.0,0.0,0.0,0.08161912890889128,0.31392,9.892011742182216
1835000000.0,22.16,0.0,0.0,0.0,0.06867,0.31392,9.914672664357326
1840000000.0,22.16,0.0,0.0,0.0,0.07494847147958471,0.31705923573979233,9.9081
1845000000.0,22.16,0.0,0.0,0.0,0.07612545665235457,0.3298122716738227,9.895935456652355
1850000000.0,22.16,0.0,0.0,0.0,0.04905,0.34335,9.86886
1855000000.0,22.16,0.0,0.0,0.0,0.057584808093448084,0.3405050639688506,9.871704936031149
1860000000.0,22.16,0.0,0.0,0.0,0.08122683612826835,0.33354,9.881416836128269
1865000000.0,22.16,0.0,0.0,0.0,0.08564126377461263,0.3282425275492253,9.891128736225387
1870000000.0,22.16,0.0,0.0,0.0,0.0708280910324809,0.31902127264501273,9.89063809103248
1875000000.0,22.16,0.0,0.0,0.0,0.05395507283925073,0.33844507283925074,9.881122682098127
1880000000.0,22.16,0.0,0.0,0.0,0.07337887303348872,0.3460966904497669,9.906137817416278
1885000000.0,22.16,0.0,0.0,0.0,0.08603366338613663,0.32373,9.86886
1890000000.0,22.16,0.0,0.0,0.0,0.07848,0.32804647342196475,9.871018236710983
1895000000.0,22.16,0.0,0.0,0.0,0.07641986319189863,0.34128986319189863,9.87867
1900000000.0,22.16,0.0,0.0,0.0,0.06670796309477962,0.33354,9.88259407381044
1905000000.0,22.16,0.0,0.0,0.0,0.05886,0.3316760629976606,9.902017874004677
1910000000.0,22.16,0.0,0.0,0.0,0.06415751129837512,0.3272616741989168,9.912612488701624
1915000000.0,22.16,0.0,0.0,0.0,0.08495452560684524,0.34335,9.893483211589732
1920000000.0,22.16,0.0,0.0,0.0,0.06553072541260725,0.3402107254126073,9.914770725412607
1925000000.0,22.16,0.0,0.0,0.0,0.05052153739081538,0.32373,9.893875387827553
1930000000.0,22.16,0.0,0.0,0.0,0.06298031246380313,0.3251034374879344,9.870233437487935
1935000000.0,22.16,0.0,0.0,0.0,0.08573932482989324,0.3348153375850534,9.877394662414947
1940000000.0,22.16,0.0,0.0,0.0,0.06984723768217237,0.34335,9.870037237682173
1945000000.0,22.16,0.0,0.0,0.0,0.07740086222070862,0.34550827555858277,9.87867
1950000000.0,22.16,0.0,0.0,0.0,0.06867,0.36002688637076885,9.87867
1955000000.0,22.16,0.0,0.0,0.0,0.06867,0.3326570620264706,9.879552937973529
1960000000.0,22.16,0.0,0.0,0.0,0.06867,0.3245148380706484,9.88769516192935
1965000000.0,22.16,0.0,0.0,0.0,0.07004347633553476,0.33354,9.87867
1970000000.0,22.16,0.0,0.0,0.0,0.08711272347022722,0.33354,9.880435914794658
1975000000.0,22.16,0.0,0.0,0.0,0.06916053836200538,0.3340305383620054,9.906628384913983
1980000000.0,22.16,0.0,0.0,0.0,0.07887243845912438,0.34256512308175124,9.87867
1985000000.0,22.16,0.0,0.0,0.0,0.08711264577502645,0.32373,9.879847354224973
1990000000.0,22.16,0.0,0.0,0.0,0.04924623865336239,0.32373,9.91712504538655
1995000000.0,22.16,0.0,0.0,0.0,0.05895813875048139,0.32363186124951865,9.878964416251444
2000000000.0,22.16,0.0,0.0,0.0,0.06867007769520077,0.31392011654280116,9.908099922304798
2005000000.0,22.16,0.0,0.0,0.0,0.08809387788943877,0.34305581683415814,9.88867612211056
2010000000.0,22.16,0.0,0.0,0.0,0.06906232191632321,0.3337361609581616,9.898093839041838
2015000000.0,22.16,0.0,0.0,0.0,0.06867,0.33354,9.879258521722084
2020000000.0,22.16,0.0,0.0,0.0,0.05925236076392361,0.3617929177082292,9.888087639236076
2025000000.0,22.16,0.0,0.0,0.0,0.06817953933319539,0.30705276400082765,9.879160460666805
2030000000.0,22.16,0.0,0.0,0.0,0.050227121139371216,0.30411,9.897112878860629
2035000000.0,22.16,0.0,0.0,0.0,0.0399266604725666,0.2858633209451332,9.880043320945132
2040000000.0,22.16,0.0,0.0,0.0,0.06631571887365718,0.30254047924910477,9.923796198122762
2045000000.0,22.16,0.0,0.0,0.0,0.059742860278328605,0.3308914191650142,9.892011441113315
2050000000.0,22.16,0.0,0.0,0.0,0.06768903981879039,0.3423690398187904,9.89730903981879
2055000000.0,22.16,0.0,0.0,0.0,0.059939060084090605,0.3171571802522718,9.89829
2060000000.0,22.16,0.0,0.0,0.0,0.0674928400130284,0.357084200065142,9.881024319973942
2065000000.0,22.16,0.0,0.0,0.0,0.08573948022029479,0.3459005197797052,9.853065779669558
2070000000.0,22.16,0.0,0.0,0.0,0.05454343917093439,0.3349133597927336,9.8745499206218
2075000000.0,22.16,0.0,0.0,0.0,0.0657270806087708,0.3168629193912292,9.89534708060877
2080000000.0,22.16,0.0,0.0,0.0,0.06867,0.32216044040150443,9.906530440401504
2085000000.0,22.16,0.0,0.0,0.0,0.06867,0.32373,9.899957659501377
2090000000.0,22.16,0.0,0.0,0.0,0.0767142405957424,0.3317742405957424,9.906334240595742
2095000000.0,22.16,0.0,0.0,0.0,0.07053385930713858,0.3573784220785842,9.876315437228554
2100000000.0,22.16,0.0,0.0,0.0,0.0765180407899804,0.33942587763005877,9.86101195921002
2105000000.0,22.16,0.0,0.0,0.0,0.07073005911290059,0.3490398817741988,9.866799940887098
2110000000.0,22.16,0.0,0.0,0.0,0.09162552295265523,0.3302044770473448,9.891815522952655
2115000000.0,22.16,0.0,0.0,0.0,0.09054625891866258,0.3312837410813374,9.89829
2120000000.0,22.16,0.0,0.0,0.0,0.07337871764308718,0.3409956411784564,9.913201282356912
2125000000.0,22.16,0.0,0.0,0.0,0.06867,0.3286349174488492,9.910552458724423
2130000000.0,22.16,0.0,0.0,0.0,0.06867,0.31647055862730555,9.915359441372694
2135000000.0,22.16,0.0,0.0,0.0,0.06150865853018658,0.3354040244094402,9.896425975590558
2140000000.0,22.16,0.0,0.0,0.0,0.05886,0.36453972470079726,9.874353516866135
2145000000.0,22.16,0.0,0.0,0.0,0.05886,0.35884971667189713,9.86886
2150000000.0,22.16,0.0,0.0,0.0,0.06572704176117042,0.34629295823882955,9.85512591647766
2155000000.0,22.16,0.0,0.0,0.0,0.06867,0.32981211628342116,9.862777883716578
2160000000.0,22.16,0.0,0.0,0.0,0.06199915804459158,0.3504133678216337,9.875530841955408
2165000000.0,22.16,0.0,0.0,0.0,0.07200548410505483,0.3498245158949452,9.891815484105054
2170000000.0,22.16,0.0,0.0,0.0,0.06553071570070716,0.33687535785035355,9.885340715700707
2175000000.0,22.16,0.0,0.0,0.0,0.05886,0.33354,9.885046542246766
2180000000.0,22.16,0.0,0.0,0.0,0.07141688468776884,0.34609688468776884,9.869644672968347
2185000000.0,22.16,0.0,0.0,0.0,0.06611931511799315,0.35316,9.871410684882006
2190000000.0,22.16,0.0,0.0,0.0,0.06494224253812242,0.3409955149237551,9.896916727614366
2195000000.0,22.16,0.0,0.0,0.0,0.06867,0.32755585736475856,9.890147572094275
2200000000.0,22.16,0.0,0.0,0.0,0.08044208546472086,0.32373,9.89632812819708
2205000000.0,22.16,0.0,0.0,0.0,0.08250205717052056,0.32951794282947944,9.896524114341041
2210000000.0,22.16,0.0,0.0,0.0,0.07848,0.3506095287797953,9.899859685853196
2215000000.0,22.16,0.0,0.0,0.0,0.06729651395256514,0.3406030279051303,9.896916513952565
2220000000.0,22.16,0.0,0.0,0.0,0.06984728624167286,0.33471728624167285,9.882986356879163
2225000000.0,22.16,0.0,0.0,0.0,0.06768891356408914,0.34335,9.884065543217956
2230000000.0,22.16,0.0,0.0,0.0,0.06415744331507443,0.3486474433150744,9.893777443315074
2235000000.0,22.16,0.0,0.0,0.0,0.07906868682438686,0.33236262635122626,9.893090656587805
2240000000.0,22.16,0.0,0.0,0.0,0.07808751298137512,0.3292237305279373,9.88848
2245000000.0,22.16,0.0,0.0,0.0,0.07367314360643143,0.3533562872128629,9.893483143606431
2250000000.0,22.16,0.0,0.0,0.0,0.06866991259289912,0.35315991259289914,9.9081000874071
2255000000.0,22.16,0.0,0.0,0.0,0.07808777520267776,0.34335,9.898682224797321
2260000000.0,22.16,0.0,0.0,0.0,0.08868231220442312,0.33864115610221157,9.883378843897788
2265000000.0,22.16,0.0,0.0,0.0,0.07848,0.34737223198472233,9.883869256005092
2270000000.0,22.16,0.0,0.0,0.0,0.06945471181594712,0.34943206772392066,9.86513206772392
2275000000.0,22.16,0.0,0.0,0.0,0.06327454418914544,0.3423690883782909,9.871312720945728
2280000000.0,22.16,0.0,0.0,0.0,0.06003711142747111,0.3358942228549422,9.893973555713735
2285000000.0,22.16,0.0,0.0,0.0,0.06592337753353378,0.3223566887667669,9.884261655616616
2290000000.0,22.16,0.0,0.0,0.0,0.07180902207799023,0.32941975551949754,9.882790244480502
2295000000.0,22.16,0.0,0.0,0.0,0.05307214457762145,0.32373,9.896524289155241
2300000000.0,22.16,0.0,0.0,0.0,0.05886,0.32373,9.892403821301038
2305000000.0,22.16,0.0,0.0,0.0,0.0665118895437189,0.32755594477185945,9.86503405522814
2310000000.0,22.16,0.0,0.0,0.0,0.07848,0.3298121551310216,9.866505689737957
2315000000.0,22.16,0.0,0.0,0.0,0.07485025503390254,0.32010025503390255,9.882299744966097
2320000000.0,22.16,0.0,0.0,0.0,0.07220164506321644,0.32451493518964936,9.881416709873566
2325000000.0,22.16,0.0,0.0,0.0,0.08191354516033544,0.33304936451899364,9.882594180641341
2330000000.0,22.16,0.0,0.0,0.0,0.07161277371272773,0.3272617810298178,9.904764554742545
2335000000.0,22.16,0.0,0.0,0.0,0.0457146907091469,0.34344796393627963,9.895052654645426
2340000000.0,22.16,0.0,0.0,0.0,0.06513849090338492,0.32373,9.882201509096614
2345000000.0,22.16,0.0,0.0,0.0,0.06935656335356563,0.32981229109762294,9.881024582195245
2350000000.0,22.16,0.0,0.0,0.0,0.05493609129186092,0.34629304564593044,9.899270863062208
2355000000.0,22.16,0.0,0.0,0.0,0.07151494574304945,0.35031505425695053,9.887204837229147
2360000000.0,22.16,0.0,0.0,0.0,0.07298630831966307,0.33785630831966307,9.9081
2365000000.0,22.16,0.0,0.0,0.0,0.05886,0.32373,9.905451254062712
2370000000.0,22.16,0.0,0.0,0.0,0.05886,0.32373,9.895739353965594
2375000000.0,22.16,0.0,0.0,0.0,0.06131254613152546,0.3310876383945764,9.89338509226305
2380000000.0,22.16,0.0,0.0,0.0,0.06396110754271107,0.3484511075427111,9.905745553771355
2385000000.0,22.16,0.0,0.0,0.0,0.053562692651526925,0.33354,9.887008268371183
2390000000.0,22.16,0.0,0.0,0.0,0.06867,0.3356982464228825,9.853556492845765
2395000000.0,22.16,0.0,0.0,0.0,0.07073014652000147,0.33922970695999705,9.870920146520001
2400000000.0,22.16,0.0,0.0,0.0,0.0725938601486386,0.32176795338287956,9.88063204661712
2405000000.0,22.16,0.0,0.0,0.0,0.054641840142718404,0.31392,9.890343946714239
2410000000.0,22.16,0.0,0.0,0.0,0.07848,0.3192175404340754,9.896524153188642
2415000000.0,22.16,0.0,0.0,0.0,0.07848,0.3400145061830451,9.890147746908477
2420000000.0,22.16,0.0,0.0,0.0,0.07691035299440352,0.3300085880223859,9.89358105898321
2425000000.0,22.16,0.0,0.0,0.0,0.07014154710271546,0.36149845289728455,9.86886
2430000000.0,22.16,0.0,0.0,0.0,0.07573310560033106,0.35316,9.870233447199833
2435000000.0,22.16,0.0,0.0,0.0,0.06268604189086042,0.3493339581091396,9.87867
2440000000.0,22.16,0.0,0.0,0.0,0.08711275260592752,0.3213755052118551,9.879847247394071
2445000000.0,22.16,0.0,0.0,0.0,0.07955914749119147,0.30626829498238295,9.893875737455957
2450000000.0,22.16,0.0,0.0,0.0,0.08632790482337904,0.32373,9.933605809646759
2455000000.0,22.16,0.0,0.0,0.0,0.06690410462914104,0.32284705231457056,9.89740705231457
2460000000.0,22.16,0.0,0.0,0.0,0.04826515221745153,0.31627454334764543,9.887695152217452
2465000000.0,22.16,0.0,0.0,0.0,0.041986991518669914,0.3440367478796675,9.877983252120332
2470000000.0,22.16,0.0,0.0,0.0,0.07730270404642703,0.351982704046427,9.870037295953573
2475000000.0,22.16,0.0,0.0,0.0,0.05935054807390548,0.33354,9.88946109614781
2480000000.0,22.16,0.0,0.0,0.0,0.06906244817102447,0.33314755182897554,9.907707551828974
2485000000.0,22.16,0.0,0.0,0.0,0.07789130346371304,0.3234356517318565,9.89829
2490000000.0,22.16,0.0,0.0,0.0,0.05925249673052497,0.31392,9.898682496730524
2495000000.0,22.16,0.0,0.0,0.0,0.07838185153761851,0.31401814846238146,9.917615554612855
2500000000.0,22.16,0.0,0.0,0.0,0.06867009711900096,0.3237300485595005,9.8884800485595
2505000000.0,22.16,0.0,0.0,0.0,0.08809389731323897,0.33344194865661947,9.898191948656619
2510000000.0,22.16,0.0,0.0,0.0,0.08829,0.33354,9.88867615124626
2515000000.0,22.16,0.0,0.0,0.0,0.06925850229828502,0.33354,9.869448502298285
2520000000.0,22.16,0.0,0.0,0.0,0.04983470210404702,0.35237529789595295,9.878277648947977
2525000000.0,22.16,0.0,0.0,0.0,0.07700864713528646,0.33452090190980904,9.87867
2530000000.0,22.16,0.0,0.0,0.0,0.0692585508577855,0.32431855085778555,9.887891449142215
2535000000.0,22.16,0.0,0.0,0.0,0.07779334923933348,0.3328533492393335,9.915850047718
2540000000.0,22.16,0.0,0.0,0.0,0.0694547506635475,0.31548950132709497,9.88180900265419
2545000000.0,22.16,0.0,0.0,0.0,0.07759714943357149,0.34070144830071447,9.88759714943357
2550000000.0,22.16,0.0,0.0,0.0,0.060821900938619014,0.361008099061381,9.879650950469308
2555000000.0,22.16,0.0,0.0,0.0,0.07632189925561898,0.345508100744381,9.896131899255618
2560000000.0,22.16,0.0,0.0,0.0,0.05258145082521451,0.3347171502750715,9.89829
2565000000.0,22.16,0.0,0.0,0.0,0.066119499644095,0.31647050035590496,9.889755250177952
2570000000.0,22.16,0.0,0.0,0.0,0.07710664991916649,0.3054833500808335,9.88848
2575000000.0,22.16,0.0,0.0,0.0,0.07848,0.320787100032571,9.863464349951144
2580000000.0,22.16,0.0,0.0,0.0,0.07848,0.3319704501134045,9.892011800453618
2585000000.0,22.16,0.0,0.0,0.0,0.07848,0.3416823502105235,9.89829
2590000000.0,22.16,0.0,0.0,0.0,0.0704357496923575,0.34335,9.882201499384715
2595000000.0,22.16,0.0,0.0,0.0,0.0766161504047615,0.3354038495952385,9.870723849595239
2600000000.0,22.16,0.0,0.0,0.0,0.09417610100376102,0.3256919494981195,9.87670805050188
2605000000.0,22.16,0.0,0.0,0.0,0.07485014820300148,0.3314799505989995,9.863170098802001
2610000000.0,22.16,0.0,0.0,0.0,0.053366298607762985,0.34884370139223697,9.889657402784474
2615000000.0,22.16,0.0,0.0,0.0,0.06415750158647501,0.33805249841352497,9.89829
2620000000.0,22.16,0.0,0.0,0.0,0.06867,0.33354,9.890834349109642
2625000000.0,22.16,0.0,0.0,0.0,0.08338510197495101,0.3408975509874755,9.87376489802505
2630000000.0,22.16,0.0,0.0,0.0,0.07377109783081097,0.33609054891540546,9.883378902169188
2635000000.0,22.16,0.0,0.0,0.0,0.06867,0.3407013511817135,9.902802702363426
2640000000.0,22.16,0.0,0.0,0.0,0.07573325127883251,0.34335,9.87984699488467
2645000000.0,22.16,0.0,0.0,0.0,0.07848,0.34335,9.882790302751902
2650000000.0,22.16,0.0,0.0,0.0,0.07848,0.34335,9.90908115441921
2655000000.0,22.16,0.0,0.0,0.0,0.06494209685962096,0.3162741937192419,9.91114104842981
2660000000.0,22.16,0.0,0.0,0.0,0.07220170333461703,0.3107808516673085,9.90142914833269
2665000000.0,22.16,0.0,0.0,0.0,0.06533449647114496,0.31392,9.891717248235572
2670000000.0,22.16,0.0,0.0,0.0,0.07180930372309303,0.339818607446186,9.875530696276906
2675000000.0,22.16,0.0,0.0,0.0,0.07210344804133448,0.33403034412400345,9.849730344124003
2680000000.0,22.16,0.0,0.0,0.0,0.056113095888430956,0.32373,9.85198690411157
2685000000.0,22.16,0.0,0.0,0.0,0.06141070430580704,0.31136929569419297,9.852869647847097
2690000000.0,22.16,0.0,0.0,0.0,0.06867,0.3223567567500676,9.879651261250112
2695000000.0,22.16,0.0,0.0,0.0,0.06867,0.345508304694283,9.892305847652858
2700000000.0,22.16,0.0,0.0,0.0,0.07455605244426051,0.32372973777869735,9.88848
2705000000.0,22.16,0.0,0.0,0.0,0.08426795254137952,0.30989795254137953,9.894267952541378
2710000000.0,22.16,0.0,0.0,0.0,0.08260014736150147,0.33098955791549556,9.881220442084503
2715000000.0,22.16,0.0,0.0,0.0,0.08407175273561752,0.34335,9.885635258206852
2720000000.0,22.16,0.0,0.0,0.0,0.07730269433452694,0.34335,9.892796347167263
2725000000.0,22.16,0.0,0.0,0.0,0.06867,0.3379544470701445,9.893875552929854
2730000000.0,22.16,0.0,0.0,0.0,0.052777640919076406,0.3229450939460509,9.89829
2735000000.0,22.16,0.0,0.0,0.0,0.06523676562046765,0.32431870624818704,9.893090646875907
2740000000.0,22.16,0.0,0.0,0.0,0.08318874677878746,0.3386412532212125,9.893581253221212
2745000000.0,22.16,0.0,0.0,0.0,0.07347684668166846,0.3383468466816685,9.90329315331833
2750000000.0,22.16,0.0,0.0,0.0,0.06867,0.34335010683090106,9.903194946584549
2755000000.0,22.16,0.0,0.0,0.0,0.06386304648743046,0.33393218594972185,9.88867609297486
2760000000.0,22.16,0.0,0.0,0.0,0.06827770721937707,0.3327554144387541,9.87867
2765000000.0,22.16,0.0,0.0,0.0,0.06925849258638492,0.3393277388795774,9.874059246293193
2770000000.0,22.16,0.0,0.0,0.0,0.06788530760785308,0.3327553076078531,9.873372653803926
2775000000.0,22.16,0.0,0.0,0.0,0.07406544609895445,0.33010633829686337,9.88749910780209
2780000000.0,22.16,0.0,0.0,0.0,0.07298645399816453,0.3268693619944936,9.906922907996329
2785000000.0,22.16,0.0,0.0,0.0,0.07004329180943292,0.3349132918094329,9.90525493771415
2790000000.0,22.16,0.0,0.0,0.0,0.06298025419240254,0.3319705083848051,9.892600254192402
2795000000.0,22.16,0.0,0.0,0.0,0.07671430857904309,0.3353056914209569,9.894267845710479
2800000000.0,22.16,0.0,0.0,0.0,0.08829,0.3276540543866406,9.88848
2805000000.0,22.16,0.0,0.0,0.0,0.0806380910324809,0.3258880910324809,9.899957863451277
2810000000.0,22.16,0.0,0.0,0.0,0.07239785458087854,0.3176478545808785,9.906726436257363
2815000000.0,22.16,0.0,0.0,0.0,0.07485024532200245,0.32010024532200243,9.895739509355995
2820000000.0,22.16,0.0,0.0,0.0,0.0616066904497669,0.32451496432534965,9.9081
2825000000.0,22.16,0.0,0.0,0.0,0.05248355487223555,0.32618222563882227,9.904666445127765
2830000000.0,22.16,0.0,0.0,0.0,0.06219545496935455,0.3143127298161273,9.89829
2835000000.0,22.16,0.0,0.0,0.0,0.06543264493352645,0.3499226449335264,9.885340579734105
2840000000.0,22.16,0.0,0.0,0.0,0.06513851032718511,0.3496285103271851,9.85905
2845000000.0,22.16,0.0,0.0,0.0,0.07848,0.35992884473928843,9.865132310521423
2850000000.0,22.16,0.0,0.0,0.0,0.07553694464216944,0.3502169446421694,9.88455611071566
2855000000.0,22.16,0.0,0.0,0.0,0.06867,0.33197017818020175,9.90113495545495
2860000000.0,22.16,0.0,0.0,0.0,0.06317628889586288,0.3150974222082742,9.90535314444793
2865000000.0,22.16,0.0,0.0,0.0,0.05434751129837512,0.34070124435081245,9.89829
2870000000.0,22.16,0.0,0.0,0.0,0.061018032761080324,0.3284386885073869,9.89829
2875000000.0,22.16,0.0,0.0,0.0,0.04905022337370223,0.3188251116868511,9.888479776626298
2880000000.0,22.16,0.0,0.0,0.0,0.07612554405945543,0.33118554405945544,9.861404455940544
2885000000.0,22.16,0.0,0.0,0.0,0.06867,0.32598635603766357,9.87562906811299
2890000000.0,22.16,0.0,0.0,0.0,0.06867,0.3270652315956523,9.896131743865217
2895000000.0,22.16,0.0,0.0,0.0,0.06867,0.3082303124638031,9.88848
2900000000.0,22.16,0.0,0.0,0.0,0.06670794367097943,0.3256920563290206,9.89240411265804
2905000000.0,22.16,0.0,0.0,0.0,0.060723956426139564,0.33540395642613957,9.906236043573859
2910000000.0,22.16,0.0,0.0,0.0,0.06690414347674144,0.3362865739069657,9.896524143476741
2915000000.0,22.16,0.0,0.0,0.0,0.06052775662037757,0.31244878310188784,9.886812243379621
2920000000.0,22.16,0.0,0.0,0.0,0.06867,0.3515903432825034,9.875530686565007
2925000000.0,22.16,0.0,0.0,0.0,0.06867,0.3404068863707689,9.86199311362923
2930000000.0,22.16,0.0,0.0,0.0,0.07004345691173457,0.32785037073520373,9.87867
2935000000.0,22.16,0.0,0.0,0.0,0.07465392897343928,0.3493339289734393,9.881220714017706
2940000000.0,22.16,0.0,0.0,0.0,0.05140451421194515,0.32490725710597257,9.895935485788055
2945000000.0,22.16,0.0,0.0,0.0,0.07082831440618315,0.33354,9.880828314406182
2950000000.0,22.16,0.0,0.0,0.0,0.08730894269978942,0.3325589426997894,9.895346828099367
2955000000.0,22.16,0.0,0.0,0.0,0.07848,0.32549591479465917,9.86797704260267
2960000000.0,22.16,0.0,0.0,0.0,0.07848,0.34335,9.861404572483346
2965000000.0,22.16,0.0,0.0,0.0,0.07779324240843241,0.34335,9.887106484816865
2970000000.0,22.16,0.0,0.0,0.0,0.06925865768868657,0.34335,9.868271342311314
2975000000.0,22.16,0.0,0.0,0.0,0.07749888442838884,0.3418783266425833,9.861502788929029
2980000000.0,22.16,0.0,0.0,0.0,0.06003737364877374,0.31431245788292456,9.907707542117075
2985000000.0,22.16,0.0,0.0,0.0,0.08770128403991283,0.32373,9.898878715960086
2990000000.0,22.16,0.0,0.0,0.0,0.06906251615432515,0.32431877423148775,9.916928709614186
2995000000.0,22.16,0.0,0.0,0.0,0.08799552547715525,0.3533563163485631,9.869154474522844
3000000000.0,22.16,0.0,0.0,0.0,0.05886011654280117,0.37278,9.8982900582714
3005000000.0,22.16,0.0,0.0,0.0,0.07828391673703916,0.37278,9.90800195836852
3010000000.0,22.16,0.0,0.0,0.0,0.04002456613744566,0.33432456613744566,9.888872283068721
3015000000.0,22.16,0.0,0.0,0.0,0.07730303425103034,0.3145084828744848,9.878964241437242
3020000000.0,22.16,0.0,0.0,0.0,0.05964468268024683,0.33275531731975316,9.897505317319753
3025000000.0,22.16,0.0,0.0,0.0,0.07749911751399116,0.3242204412430044,9.879650882486008
3030000000.0,22.16,0.0,0.0,0.0,0.07848,0.32373,9.915555835416457
3035000000.0,22.16,0.0,0.0,0.0,0.09672671790246719,0.32373,9.881416564195066
3040000000.0,22.16,0.0,0.0,0.0,0.05297370475823705,0.33275525904835257,9.869644740951648
3045000000.0,22.16,0.0,0.0,0.0,0.05797715914547159,0.3603214774364148,9.877787159145472
3050000000.0,22.16,0.0,0.0,0.0,0.08534717772777177,0.33648282227222825,9.86984094075741
3055000000.0,22.16,0.0,0.0,0.0,0.08829,0.3248090406602904,9.86886
3060000000.0,22.16,0.0,0.0,0.0,0.06239142168951422,0.34962857831048577,9.903391437747313
3065000000.0,22.16,0.0,0.0,0.0,0.07592951906789519,0.32755572139815725,9.925169519067897
3070000000.0,22.16,0.0,0.0,0.0,0.07848,0.34060331926213316,9.919283340368933
3075000000.0,22.16,0.0,0.0,0.0,0.0701414402718144,0.3516885597281856,9.91791
3080000000.0,22.16,0.0,0.0,0.0,0.07691045982530459,0.32843862052408623,9.884948160698782
3085000000.0,22.16,0.0,0.0,0.0,0.07848,0.3155876400775764,9.90309707976727
3090000000.0,22.16,0.0,0.0,0.0,0.046302959921829596,0.33805278005862777,9.867878699902286
3095000000.0,22.16,0.0,0.0,0.0,0.055132320233323207,0.3354038398833384,9.866996160116662
3100000000.0,22.16,0.0,0.0,0.0,0.0824041806413418,0.33354,9.884556120427561
3105000000.0,22.16,0.0,0.0,0.0,0.04954019844550198,0.3180400793782008,9.903979920621799
3110000000.0,22.16,0.0,0.0,0.0,0.06984744163207442,0.3292237208160372,9.892796279183962
3115000000.0,22.16,0.0,0.0,0.0,0.06337247898972478,0.3259862394948624,9.88848
3120000000.0,22.16,0.0,0.0,0.0,0.0663156606022566,0.3386413212045132,9.881024339397744
3125000000.0,22.16,0.0,0.0,0.0,0.06867,0.3286348786012488,9.87867
3130000000.0,22.16,0.0,0.0,0.0,0.06867,0.3382489215929892,9.871410539203506
3135000000.0,22.16,0.0,0.0,0.0,0.08299272178722722,0.32186591731915914,9.86886
3140000000.0,22.16,0.0,0.0,0.0,0.08122673900926738,0.3280465219814652,9.890049782972197
3145000000.0,22.16,0.0,0.0,0.0,0.07848,0.3405051610878516,9.89829
3150000000.0,22.16,0.0,0.0,0.0,0.08534706118497061,0.3502170611849706,9.905157061184969
3155000000.0,22.16,0.0,0.0,0.0,0.06798311615373116,0.3599289612820896,9.89456207743582
3160000000.0,22.16,0.0,0.0,0.0,0.05218913862079139,0.3496282772415828,9.875138277241582
3165000000.0,22.16,0.0,0.0,0.0,0.06219552295265523,0.33677723852367236,9.86886
3170000000.0,22.16,0.0,0.0,0.0,0.06867,0.3400146615734466,9.875334661573445
3175000000.0,22.16,0.0,0.0,0.0,0.07504656167056561,0.3305968766588688,9.89142312334113
3180000000.0,22.16,0.0,0.0,0.0,0.07848,0.3300084617676846,9.892011538232316
3185000000.0,22.16,0.0,0.0,0.0,0.07848,0.3397203618648036,9.882299638135196
3190000000.0,22.16,0.0,0.0,0.0,0.07239773803807738,0.34335,9.890834523923845
3195000000.0,22.16,0.0,0.0,0.0,0.08662248617712487,0.33138167588191675,9.910258324118082
3200000000.0,22.16,0.0,0.0,0.0,0.08632787568767876,0.31784393784383935,9.894365751375357
3205000000.0,22.16,0.0,0.0,0.0,0.06690407549344075,0.33128388675983883,9.87867
3210000000.0,22.16,0.0,0.0,0.0,0.047480275299202755,0.3262804129488041,9.87867
3215000000.0,22.16,0.0,0.0,0.0,0.06160704979007049,0.32510352489503525,9.867486475104965
3220000000.0,22.16,0.0,0.0,0.0,0.07848,0.31705901236609013,9.881024650178546
3225000000.0,22.16,0.0,0.0,0.0,0.08927112528351125,0.3095055626417556,9.90908112528351
3230000000.0,22.16,0.0,0.0,0.0,0.08750507452225074,0.3351098509554985,9.90731507452225
3235000000.0,22.16,0.0,0.0,0.0,0.07328063716400636,0.3479606371640064,9.887891274328013
3240000000.0,22.16,0.0,0.0,0.0,0.06867,0.34335,9.883771262933113
3245000000.0,22.16,0.0,0.0,0.0,0.06867,0.34335,9.88848
3250000000.0,22.16,0.0,0.0,0.0,0.07848012625470126,0.33844493687264937,9.868859747490598
3255000000.0,22.16,0.0,0.0,0.0,0.07867607355106072,0.3287330367755304,9.868467852897878
3260000000.0,22.16,0.0,0.0,0.0,0.06396113667841137,0.32373,9.879062273356823
3265000000.0,22.16,0.0,0.0,0.0,0.06808152683741527,0.32373,9.878081526837414
3270000000.0,22.16,0.0,0.0,0.0,0.07396733648417336,0.3553186446107865,9.88848
3275000000.0,22.16,0.0,0.0,0.0,0.07749912722589127,0.3659126183223262,9.901723690838836
3280000000.0,22.16,0.0,0.0,0.0,0.07965707257987072,0.3292235362899354,9.883378290319483
3285000000.0,22.16,0.0,0.0,0.0,0.06867,0.3321667276143673,9.860521819035919
3290000000.0,22.16,0.0,0.0,0.0,0.06867,0.33922973609569734,9.88848
3295000000.0,22.16,0.0,0.0,0.0,0.06062567199715672,0.32951783599857837,9.88848
3300000000.0,22.16,0.0,0.0,0.0,0.06474625639416257,0.32765406409854064,9.88848
3305000000.0,22.16,0.0,0.0,0.0,0.08829,0.3297140358043404,9.892305964195659
3310000000.0,22.16,0.0,0.0,0.0,0.08456213570722135,0.3311857285855573,9.89456213570722
3315000000.0,22.16,0.0,0.0,0.0,0.08210976438989764,0.3360904712202047,9.88848
3320000000.0,22.16,0.0,0.0,0.0,0.0812266710259667,0.32373,9.87788500653895
3325000000.0,22.16,0.0,0.0,0.0,0.07210356458413564,0.32716356458413565,9.862483564584135
3330000000.0,22.16,0.0,0.0,0.0,0.08515092936250929,0.3402109293625093,9.86886
3335000000.0,22.16,0.0,0.0,0.0,0.08515054088650542,0.3499226352216263,9.865622635221627
3340000000.0,22.16,0.0,0.0,0.0,0.06199926487549265,0.34021073512450734,9.87160705950197
3345000000.0,22.16,0.0,0.0,0.0,0.06867,0.33354,9.895248835027388
3350000000.0,22.16,0.0,0.0,0.0,0.06867,0.33059693493026937,9.88259386986054
3355000000.0,22.16,0.0,0.0,0.0,0.0629800696663007,0.3294199303336993,9.86886
3360000000.0,22.16,0.0,0.0,0.0,0.054543730527937304,0.3406031347360313,9.879847461055874
3365000000.0,22.16,0.0,0.0,0.0,0.06867,0.33618876536108766,9.892207407833473
3370000000.0,22.16,0.0,0.0,0.0,0.07122066545820666,0.3382486690835867,9.859442661832826
3375000000.0,22.16,0.0,0.0,0.0,0.07848,0.32618256555532565,9.886027434444674
3380000000.0,22.16,0.0,0.0,0.0,0.06670767173777671,0.3311855343475554,9.881024465652445
3385000000.0,22.16,0.0,0.0,0.0,0.040711828747818285,0.32147363425043635,9.892992731499128
3390000000.0,22.16,0.0,0.0,0.0,0.07848,0.31607826584668264,9.905941734153316
3395000000.0,22.16,0.0,0.0,0.0,0.07848,0.32991049783140497,9.896229834056198
3400000000.0,22.16,0.0,0.0,0.0,0.07848,0.34531173583631736,9.892404132081841
3405000000.0,22.16,0.0,0.0,0.0,0.07848,0.3232398306901983,9.900644135447841
3410000000.0,22.16,0.0,0.0,0.0,0.07848,0.35943826752968266,9.875923464940634
3415000000.0,22.16,0.0,0.0,0.0,0.07681223366772233,0.3416822336677223,9.903096701003166
3420000000.0,22.16,0.0,0.0,0.0,0.06867,0.33354,9.881809332858793
3425000000.0,22.16,0.0,0.0,0.0,0.06867,0.33206843347348436,9.89829
3430000000.0,22.16,0.0,0.0,0.0,0.06592306675273066,0.3251034666236347,9.896916533376364
3435000000.0,22.16,0.0,0.0,0.0,0.05415146688301467,0.33098926655849265,9.891030733441507
3440000000.0,22.16,0.0,0.0,0.0,0.08475819954638199,0.3162745336357453,9.90456819954638
3445000000.0,22.16,0.0,0.0,0.0,0.05886,0.33461916691499166,9.881907500744974
3450000000.0,22.16,0.0,0.0,0.0,0.05984106701211067,0.340406798963668,9.903194664939447
3455000000.0,22.16,0.0,0.0,0.0,0.06778703289077033,0.31392,9.859932967109229
3460000000.0,22.16,0.0,0.0,0.0,0.06042973441269735,0.31470486720634866,9.86886
3465000000.0,22.16,0.0,0.0,0.0,0.07848,0.3244167673034677,9.870233534606935
3470000000.0,22.16,0.0,0.0,0.0,0.07848,0.33354,9.88848
3475000000.0,22.16,0.0,0.0,0.0,0.07897056749770567,0.33354,9.887498865004588
3480000000.0,22.16,0.0,0.0,0.0,0.08711259721552597,0.3331475324051753,9.870429870379299
3485000000.0,22.16,0.0,0.0,0.0,0.05856563230805632,0.3243187353838874,9.906628161540281
3490000000.0,22.16,0.0,0.0,0.0,0.049835071156250715,0.3431537322109373,9.859442535578125
3495000000.0,22.16,0.0,0.0,0.0,0.08799549634145495,0.33363816788618167,9.878866335772363
3500000000.0,22.16,0.0,0.0,0.0,0.05886,0.34335,9.898289864033398
3505000000.0,22.16,0.0,0.0,0.0,0.05886,0.34335,9.87886606383916
3510000000.0,22.16,0.0,0.0,0.0,0.03963226364492263,0.32412226364492264,9.888283868177538
3515000000.0,22.16,0.0,0.0,0.0,0.05827153654931537,0.32373,9.897995768274656
3520000000.0,22.16,0.0,0.0,0.0,0.04002466325644663,0.3331476683717767,9.89829
3525000000.0,22.16,0.0,0.0,0.0,0.08583784234447842,0.3149008630622086,9.89829
3530000000.0,22.16,0.0,0.0,0.0,0.060625594301955944,0.33236293713202936,9.907511468566014
3535000000.0,22.16,0.0,0.0,0.0,0.07710673732626737,0.3426633686631337,9.871606525347465
3540000000.0,22.16,0.0,0.0,0.0,0.07848,0.3343247312397473,9.877885268760252
3545000000.0,22.16,0.0,0.0,0.0,0.07848,0.32461283114262834,9.896524337714743
3550000000.0,22.16,0.0,0.0,0.0,0.05199279313652794,0.3325590689544907,9.889460931045509
3555000000.0,22.16,0.0,0.0,0.0,0.06651193810321937,0.3160780618967806,9.89721096905161
3560000000.0,22.16,0.0,0.0,0.0,0.06867,0.3311857382974574,9.88965713085127
3565000000.0,22.16,0.0,0.0,0.0,0.09427430773754308,0.33354,9.88848
3570000000.0,22.16,0.0,0.0,0.0,0.08122666131406661,0.3588500080289001,9.896916669342966
3575000000.0,22.16,0.0,0.0,0.0,0.0701414305599143,0.33795429167974295,9.864935722239657
3580000000.0,22.16,0.0,0.0,0.0,0.043948591388385916,0.33354,9.875530939074409
3585000000.0,22.16,0.0,0.0,0.0,0.05552473926864739,0.3416823696343237,9.903097108902971
3590000000.0,22.16,0.0,0.0,0.0,0.08299280919432808,0.34335,9.892011460537114
3595000000.0,22.16,0.0,0.0,0.0,0.06445149051431491,0.3195114905143149,9.896426169828562
3600000000.0,22.16,0.0,0.0,0.0,0.08240420977704209,0.3296161398513614,9.89829
3605000000.0,22.16,0.0,0.0,0.0,0.0572901199088012,0.33354,9.8750400899316
3610000000.0,22.16,0.0,0.0,0.0,0.06435374023983739,0.3258881298800813,9.876511870119918
3615000000.0,22.16,0.0,0.0,0.0,0.0535624595659246,0.3388375404340754,9.87867
3620000000.0,22.16,0.0,0.0,0.0,0.05650567031415671,0.3284386593716866,9.893581340628312
3625000000.0,22.16,0.0,0.0,0.0,0.0662175704112757,0.32373,9.890932429588723
3630000000.0,22.16,0.0,0.0,0.0,0.05415105898321059,0.33824894101678943,9.881220529491605
3635000000.0,22.16,0.0,0.0,0.0,0.07053411181654112,0.34335,9.885831370605514
3640000000.0,22.16,0.0,0.0,0.0,0.07848,0.3504132707026327,9.881416729297367
3645000000.0,22.16,0.0,0.0,0.0,0.0854451707997517,0.32529931680099317,9.885635170799752
3650000000.0,22.16,0.0,0.0,0.0,0.08142292910312929,0.3413882835874828,9.88161292910313
3655000000.0,22.16,0.0,0.0,0.0,0.05817308701803087,0.33962205801202056,9.905745883975959
3660000000.0,22.16,0.0,0.0,0.0,0.06239174218221742,0.3402108710911087,9.884555644544456
3665000000.0,22.16,0.0,0.0,0.0,0.06867,0.3367772288117723,9.86886
3670000000.0,22.16,0.0,0.0,0.0,0.06867,0.3270653287146533,9.881809342570692
3675000000.0,22.16,0.0,0.0,0.0,0.08779971414739715,0.31097685723506857,9.875726857235069
3680000000.0,22.16,0.0,0.0,0.0,0.07926458556124585,0.34178082887750827,9.86886
3685000000.0,22.16,0.0,0.0,0.0,0.062489628423296285,0.33824851369318515,9.875040371576704
3690000000.0,22.16,0.0,0.0,0.0,0.07710681502146816,0.34197681502146815,9.87867
3695000000.0,22.16,0.0,0.0,0.0,0.07632165645811656,0.34119165645811655,9.884654171770942
3700000000.0,22.16,0.0,0.0,0.0,0.07455607186806071,0.33354,9.876707856263879
3705000000.0,22.16,0.0,0.0,0.0,0.061116084104460844,0.3393279719651797,9.897799859825898
3710000000.0,22.16,0.0,0.0,0.0,0.06042974412459744,0.3490398720622987,9.889460639688506
3715000000.0,22.16,0.0,0.0,0.0,0.07426177215941772,0.3475682278405823,9.86886
3720000000.0,22.16,0.0,0.0,0.0,0.07848,0.33236265548692656,9.890834689026146
3725000000.0,22.16,0.0,0.0,0.0,0.07308442764634428,0.32912557235365575,9.902704427646343
3730000000.0,22.16,0.0,0.0,0.0,0.058075055098450554,0.34413494490154944,9.892992527549225
3735000000.0,22.16,0.0,0.0,0.0,0.06464811764368117,0.33756188235631884,9.878081254904211
3740000000.0,22.16,0.0,0.0,0.0,0.08358127264501272,0.3390338179350382,9.879062545290026
3745000000.0,22.16,0.0,0.0,0.0,0.08328682725786826,0.34315365451573654,9.878473654515735
3750000000.0,22.16,0.0,0.0,0.0,0.07357492716074926,0.33354,9.883575218517752
3755000000.0,22.16,0.0,0.0,0.0,0.06386302706363027,0.3383469729363697,9.879062108254521
3760000000.0,22.16,0.0,0.0,0.0,0.05886,0.33393225393302256,9.868467746066978
3765000000.0,22.16,0.0,0.0,0.0,0.06347077313060773,0.3283407731306077,9.874059226869392
3770000000.0,22.16,0.0,0.0,0.0,0.06415732677227326,0.32902732677227325,9.873372673227726
3775000000.0,22.16,0.0,0.0,0.0,0.06768914664969147,0.34138829329938297,9.883084573324846
3780000000.0,22.16,0.0,0.0,0.0,0.07416352657803527,0.35433705315607056,9.892796473421964
3785000000.0,22.16,0.0,0.0,0.0,0.06867,0.34335,9.894071626480915
3790000000.0,22.16,0.0,0.0,0.0,0.06454972638379726,0.3351094527675945,9.884359726383797
3795000000.0,22.16,0.0,0.0,0.0,0.06288217371332173,0.32373,9.87867
3800000000.0,22.16,0.0,0.0,0.0,0.08044222143132221,0.32373,9.870821852379118
3805000000.0,22.16,0.0,0.0,0.0,0.08279610436976105,0.32755597390755975,9.86287597390756
3810000000.0,22.16,0.0,0.0,0.0,0.05886,0.3298121259953213,9.876315748009358
3815000000.0,22.16,0.0,0.0,0.0,0.06248977410179774,0.3309895482035955,9.877590677694606
3820000000.0,22.16,0.0,0.0,0.0,0.07220167419891674,0.33628665160216653,9.873176696795667
3825000000.0,22.16,0.0,0.0,0.0,0.07848,0.32373,9.89829
3830000000.0,22.16,0.0,0.0,0.0,0.07180905121369051,0.3203945256068453,9.89829
3835000000.0,22.16,0.0,0.0,0.0,0.06209737449027374,0.3301068724513687,9.89829
3840000000.0,22.16,0.0,0.0,0.0,0.06867,0.34413435247564356,9.885732901650428
3845000000.0,22.16,0.0,0.0,0.0,0.06867,0.3101923493690235,9.868173524053535
3850000000.0,22.16,0.0,0.0,0.0,0.06278385043673851,0.3296161495632615,9.89142307478163
3855000000.0,22.16,0.0,0.0,0.0,0.05189497487874975,0.34050502512125025,9.88975507536375
3860000000.0,22.16,0.0,0.0,0.0,0.06160687497586875,0.33354,9.877100624927605
3865000000.0,22.16,0.0,0.0,0.0,0.06867,0.3282424498540245,9.890343674781036
3870000000.0,22.16,0.0,0.0,0.0,0.06867,0.3190213503402135,9.871410675170106
3875000000.0,22.16,0.0,0.0,0.0,0.06376484946554849,0.33599257526722576,9.87867
3880000000.0,22.16,0.0,0.0,0.0,0.04905,0.34099552463565524,9.881024475364343
3885000000.0,22.16,0.0,0.0,0.0,0.05356275092292751,0.33128362453853627,9.88848
3890000000.0,22.16,0.0,0.0,0.0,0.06651172444141724,0.3280465511171655,9.894954826675749
3895000000.0,22.16,0.0,0.0,0.0,0.06298035131140352,0.33716947303289474,9.911729473032894
3900000000.0,22.16,0.0,0.0,0.0,0.07651792424717924,0.3178441515056415,9.886517924247178
3905000000.0,22.16,0.0,0.0,0.0,0.06867,0.33167602415006026,9.882397951699879
3910000000.0,22.16,0.0,0.0,0.0,0.07396762784117628,0.32373,9.894758248105882
3915000000.0,22.16,0.0,0.0,0.0,0.0897611197791112,0.32373,9.877002223955822
3920000000.0,22.16,0.0,0.0,0.0,0.053759028423890284,0.32373,9.875138704565186
3925000000.0,22.16,0.0,0.0,0.0,0.07700842376158423,0.32225842376158426,9.906628423761584
3930000000.0,22.16,0.0,0.0,0.0,0.06592304732893046,0.31529347633553473,9.894169570993395
3935000000.0,22.16,0.0,0.0,0.0,0.050325376432653765,0.32628075286530756,9.87268612929796
3940000000.0,22.16,0.0,0.0,0.0,0.05768272347022724,0.3468818295893183,9.89475817041068
3945000000.0,22.16,0.0,0.0,0.0,0.05012917662689177,0.37062164674621645,9.86886
3950000000.0,22.16,0.0,0.0,0.0,0.05886,0.35414107672401074,9.869841076724011
3955000000.0,22.16,0.0,0.0,0.0,0.057977023178870234,0.3603210695366107,9.880435953642259
3960000000.0,22.16,0.0,0.0,0.0,0.051404630754746314,0.33432487691824875,9.89829
3965000000.0,22.16,0.0,0.0,0.0,0.07710644596926446,0.3426632229846322,9.898976777015367
3970000000.0,22.16,0.0,0.0,0.0,0.059448677112486775,0.3329513228875132,9.907511322887512
3975000000.0,22.16,0.0,0.0,0.0,0.06916057720960576,0.32471115441921156,9.897308845580788
3980000000.0,22.16,0.0,0.0,0.0,0.07926495461344954,0.34335,9.879062477306725
3985000000.0,22.16,0.0,0.0,0.0,0.09721686778846868,0.34305562259615624,9.887891245192312
3990000000.0,22.16,0.0,0.0,0.0,0.06886627750096277,0.3337362775009628,9.869252555001925
3995000000.0,22.16,0.0,0.0,0.0,0.07828364480383644,0.34354635519616356,9.888381822401918
4000000000.0,22.16,0.0,0.0,0.0,0.05886007769520078,0.3629696892191969,9.87867
4005000000.0,22.16,0.0,0.0,0.0,0.06857197779231977,0.3241220888307209,9.87867
4010000000.0,22.16,0.0,0.0,0.0,0.06867,0.33334387788943876,9.888283877889439
4015000000.0,22.16,0.0,0.0,0.0,0.04963844402688444,0.3240242220134422,9.917027333959673
4020000000.0,22.16,0.0,0.0,0.0,0.05846767808367678,0.3143123219163232,9.870821609581617
4025000000.0,22.16,0.0,0.0,0.0,0.06817957818079577,0.33255915636159156,9.896818734542387
4030000000.0,22.16,0.0,0.0,0.0,0.07789147827791477,0.32431852172208525,9.870625565166256
4035000000.0,22.16,0.0,0.0,0.0,0.060233243249932435,0.32373,9.877983378375033
4040000000.0,22.16,0.0,0.0,0.0,0.049834721527847216,0.3327552784721528,9.87867
4045000000.0,22.16,0.0,0.0,0.0,0.08475871427708714,0.3424671785692718,9.914378714277087
4050000000.0,22.16,0.0,0.0,0.0,0.07063184266721842,0.3345209213336092,9.864935528001656
4055000000.0,22.16,0.0,0.0,0.0,0.09486293629052937,0.34227097876350976,9.902704893817548
4060000000.0,22.16,0.0,0.0,0.0,0.08083424227874242,0.3347171211393712,9.890834242278743
4065000000.0,22.16,0.0,0.0,0.0,0.0699452210422522,0.3164704420845044,9.879945221042252
4070000000.0,22.16,0.0,0.0,0.0,0.07710667905486679,0.3223566790548668,9.887106679054867
4075000000.0,22.16,0.0,0.0,0.0,0.07848,0.34040715830397156,9.871802841696027
4080000000.0,22.16,0.0,0.0,0.0,0.07848,0.34335,9.893581437747313
4085000000.0,22.16,0.0,0.0,0.0,0.07848,0.3189228619613286,9.89829
4090000000.0,22.16,0.0,0.0,0.0,0.06239144111331441,0.33000855888668557,9.874157161669972
4095000000.0,22.16,0.0,0.0,0.0,0.09064471816184719,0.3097014613786146,9.892698538621385
4100000000.0,22.16,0.0,0.0,0.0,0.07455576108725762,0.3355023185503232,9.890441920362418
4105000000.0,22.16,0.0,0.0,0.0,0.07641997973469979,0.3356000202653002,9.8807300202653
4110000000.0,22.16,0.0,0.0,0.0,0.0708281201681812,0.33354,9.893973759663638
4115000000.0,22.16,0.0,0.0,0.0,0.06867,0.3410937799289378,9.89829
4120000000.0,22.16,0.0,0.0,0.0,0.0761256800260568,0.32098295992182957,9.883378639947885
4125000000.0,22.16,0.0,0.0,0.0,0.0637648397536484,0.33599274036952737,9.886027580123175
4130000000.0,22.16,0.0,0.0,0.0,0.0733789604405896,0.3215715593391156,9.88848
4135000000.0,22.16,0.0,0.0,0.0,0.05699585904775859,0.31392,9.895641380317413
4140000000.0,22.16,0.0,0.0,0.0,0.0631765608290656,0.3351098412435984,9.891226719585466
4145000000.0,22.16,0.0,0.0,0.0,0.06867,0.3363848194883482,9.874549638976696
4150000000.0,22.16,0.0,0.0,0.0,0.0824041612175416,0.3266729193912292,9.903195403043853
4155000000.0,22.16,0.0,0.0,0.0,0.07475203858822038,0.3440369421176694,9.89760305788233
4160000000.0,22.16,0.0,0.0,0.0,0.0753408808030088,0.3398182383939824,9.88180911919699
4165000000.0,22.16,0.0,0.0,0.0,0.0850527809001278,0.3072488763994888,9.872097219099873
4170000000.0,22.16,0.0,0.0,0.0,0.062391276011012756,0.3072493619944936,9.88828404299174
4175000000.0,22.16,0.0,0.0,0.0,0.055426581094365816,0.31392,9.891913418905634
4180000000.0,22.16,0.0,0.0,0.0,0.05886,0.3327554435744544,9.87592303761703
4185000000.0,22.16,0.0,0.0,0.0,0.07122076257720762,0.34335,9.88740114386581
4190000000.0,22.16,0.0,0.0,0.0,0.07848,0.34335,9.892207718614277
4195000000.0,22.16,0.0,0.0,0.0,0.08446418148284181,0.3313816370343164,9.88848
4200000000.0,22.16,0.0,0.0,0.0,0.08829,0.3296160815799608,9.89436608157996
4205000000.0,22.16,0.0,0.0,0.0,0.08829,0.32196403664584033,9.904077981677078
4210000000.0,22.16,0.0,0.0,0.0,0.08829,0.3196098817741988,9.9024101182258
4215000000.0,22.16,0.0,0.0,0.0,0.07151465438604654,0.31813821812868215,9.92624890935659
4220000000.0,22.16,0.0,0.0,0.0,0.06435368196843681,0.32490736393687364,9.908884226220943
4225000000.0,22.16,0.0,0.0,0.0,0.08485674619666747,0.33354,9.884065582065555
4230000000.0,22.16,0.0,0.0,0.0,0.08220755351197553,0.34943244648802446,9.88848
4235000000.0,22.16,0.0,0.0,0.0,0.07386938225979382,0.3577706177402062,9.88848
4240000000.0,22.16,0.0,0.0,0.0,0.06827743528617435,0.3378561529292615,9.893581282356912
4245000000.0,22.16,0.0,0.0,0.0,0.07386954736209547,0.3287331824540318,9.888283635091936
4250000000.0,22.16,0.0,0.0,0.0,0.07357475234654752,0.3139196697953967,9.88357508255115
4255000000.0,22.16,0.0,0.0,0.0,0.05886,0.30391396529653963,9.88848
4260000000.0,22.16,0.0,0.0,0.0,0.06356888274538883,0.32804664823616647,9.874353351763833
4265000000.0,22.16,0.0,0.0,0.0,0.06405921715749217,0.3202960857874608,9.868271565685015
4270000000.0,22.16,0.0,0.0,0.0,0.06788536587925366,0.3123507317585073,9.874157317060373
4275000000.0,22.16,0.0,0.0,0.0,0.07406541696325417,0.33354,9.877689166073491
4280000000.0,22.16,0.0,0.0,0.0,0.06867,0.3249070337322703,9.87984703373227
4285000000.0,22.16,0.0,0.0,0.0,0.06867,0.3307935329239353,9.885733532923934
4290000000.0,22.16,0.0,0.0,0.0,0.06042943334379433,0.3572802833281028,9.912220283328102
4295000000.0,22.16,0.0,0.0,0.0,0.05709436685044367,0.35894781657477814,9.909865633149556
4300000000.0,22.16,0.0,0.0,0.0,0.06867,0.3413877494329775,9.89829
4305000000.0,22.16,0.0,0.0,0.0,0.06484401638054016,0.32755598361945987,9.88681204914162
4310000000.0,22.16,0.0,0.0,0.0,0.06631576743315767,0.3447236511497365,9.86886
4315000000.0,22.16,0.0,0.0,0.0,0.07122043237260432,0.3448210809315108,9.876119567627395
4320000000.0,22.16,0.0,0.0,0.0,0.06239168391081684,0.31745168391081685,9.89907505173245
4325000000.0,22.16,0.0,0.0,0.0,0.06523641599206416,0.32029641599206415,9.907609247976191
4330000000.0,22.16,0.0,0.0,0.0,0.06553096821010967,0.31725548410505483,9.891815484105054
4335000000.0,22.16,0.0,0.0,0.0,0.06876784739347847,0.32373,9.891815231595652
4340000000.0,22.16,0.0,0.0,0.0,0.05532856859858569,0.3331478528978785,9.884948568598585
4345000000.0,22.16,0.0,0.0,0.0,0.07171118439641185,0.35316,9.892207631207176
4350000000.0,22.16,0.0,0.0,0.0,0.07848,0.35610308449353084,9.88161308449353
4355000000.0,22.16,0.0,0.0,0.0,0.07563501540935015,0.36012501540935016,9.87994504622805
4360000000.0,22.16,0.0,0.0,0.0,0.07416376937553769,0.34491934593669343,9.864543769375537
4365000000.0,22.16,0.0,0.0,0.0,0.08829,0.3210812152151122,9.87867
4370000000.0,22.16,0.0,0.0,0.0,0.0831886302359863,0.31392,9.87867
4375000000.0,22.16,0.0,0.0,0.0,0.06867,0.31637258497912585,9.876217415020873
4380000000.0,22.16,0.0,0.0,0.0,0.07102448507624484,0.3260844850762449,9.871214485076244
4385000000.0,22.16,0.0,0.0,0.0,0.07848,0.33354,9.885439155520091
4390000000.0,22.16,0.0,0.0,0.0,0.07632171472951714,0.32922342945903427,9.905941714729517
4395000000.0,22.16,0.0,0.0,0.0,0.0645496292647963,0.3201005561028055,9.894169629264796
4400000000.0,22.16,0.0,0.0,0.0,0.05101208546472086,0.3472741709294417,9.874745829070559
4405000000.0,22.16,0.0,0.0,0.0,0.06445195668551956,0.3573780433144804,9.864641956685519
4410000000.0,22.16,0.0,0.0,0.0,0.08299234302312343,0.3300082286820823,9.893777656976877
4415000000.0,22.16,0.0,0.0,0.0,0.06219557151215572,0.3172555715121557,9.914574428487844
4420000000.0,22.16,0.0,0.0,0.0,0.07377094244040942,0.33510968585319684,9.893580942440408
4425000000.0,22.16,0.0,0.0,0.0,0.05052158595031586,0.3418784140496841,9.870331585950316
4430000000.0,22.16,0.0,0.0,0.0,0.060233486047434864,0.33628697209486974,9.87867
4435000000.0,22.16,0.0,0.0,0.0,0.07122077228910771,0.35060922771089226,9.881220772289108
4440000000.0,22.16,0.0,0.0,0.0,0.08475814127498141,0.33236271375832716,9.89475814127498
4445000000.0,22.16,0.0,0.0,0.0,0.06209755901637559,0.32480918633879186,9.871018372677584
4450000000.0,22.16,0.0,0.0,0.0,0.08632782712817827,0.3325589135640891,9.886517827128177
4455000000.0,22.16,0.0,0.0,0.0,0.06778701346697014,0.3246129865330299,9.872391946132119
4460000000.0,22.16,0.0,0.0,0.0,0.060429773260297734,0.33432488663014887,9.904175566849254
4465000000.0,22.16,0.0,0.0,0.0,0.07710642654546426,0.34266321327273214,9.862483933636339
4470000000.0,22.16,0.0,0.0,0.0,0.0606260604731606,0.33295131317561316,9.906333939526839
4475000000.0,22.16,0.0,0.0,0.0,0.08779941307849412,0.32373,9.87867
4480000000.0,22.16,0.0,0.0,0.0,0.07808751298137512,0.32373,9.878277512981375
4485000000.0,22.16,0.0,0.0,0.0,0.06896438711574386,0.3246131613472316,9.869154387115744
4490000000.0,22.16,0.0,0.0,0.0,0.07867628721286286,0.3529637127871371,9.87867
4495000000.0,22.16,0.0,0.0,0.0,0.08779906345009063,0.34335,9.878768187309982
4500000000.0,22.16,0.0,0.0,0.0,0.039240087407100874,0.34335,9.8884799125929
4505000000.0,22.16,0.0,0.0,0.0,0.04895198750421988,0.34335,9.87876801249578
4510000000.0,22.16,0.0,0.0,0.0,0.0971194380066944,0.3048944495946445,9.888283887601338
4515000000.0,22.16,0.0,0.0,0.0,0.06955263690462636,0.30411,9.859932636904626
4520000000.0,22.16,0.0,0.0,0.0,0.07808768779557687,0.3417807511823075,9.849632312204424
4525000000.0,22.16,0.0,0.0,0.0,0.06916041210730411,0.35266958789269587,9.877198763678088
4530000000.0,22.16,0.0,0.0,0.0,0.07789148798981488,0.32549553603055537,9.869448512010186
4535000000.0,22.16,0.0,0.0,0.0,0.06935661191306611,0.34197677617386774,9.887106776173868
4540000000.0,22.16,0.0,0.0,0.0,0.09574586455215865,0.33432471181594714,9.879454711815947
4545000000.0,22.16,0.0,0.0,0.0,0.08024562343765623,0.3246128117188281,9.851888435156484
4550000000.0,22.16,0.0,0.0,0.0,0.05199273486512735,0.32373,9.85806908837829
4555000000.0,22.16,0.0,0.0,0.0,0.07524296542622966,0.34119197695081976,9.83285703457377
4560000000.0,22.16,0.0,0.0,0.0,0.0698471114274711,0.3347171114274711,9.838252888572528
4565000000.0,22.16,0.0,0.0,0.0,0.05160042266070423,0.33354,9.830895211330352
4570000000.0,22.16,0.0,0.0,0.0,0.057486688766766894,0.3419766887667669,9.846493377533534
4575000000.0,22.16,0.0,0.0,0.0,0.05886,0.34335,9.874255766591657
4580000000.0,22.16,0.0,0.0,0.0,0.12478391168803912,0.3845524448050245,9.804505599350957
4585000000.0,22.16,0.008836698655045794,0.03094293168389802,0.0,0.2594758358718584,0.40868477811624776,9.904373446813736
4590000000.0,22.16,-0.01030605238541353,0.16481320378571454,0.0,0.42928720479437205,0.07415985547979853,9.92772
4595000000.0,22.16,-0.02613014844399885,0.2644262146309703,-0.006036638087972284,-0.7229121986019219,0.14303140654251406,9.935666189252363
4600000000.0,22.16,0.018961800334634522,0.04516992424476107,-0.0014904433033232686,-0.6317598005743981,0.09809910650519106,9.631454515370246
4605000000.0,22.00989826759898,0.009010358778253073,0.14604820463711132,-0.00084108387391606,-0.7410497256115973,0.15597989446599891,9.957939451223195
4610000000.0,21.97,0.05636917205131514,-0.05656724410740607,-0.0002342134676975615,-1.177204477185945,0.4290923549427236,9.644206075095461
4615000000.0,21.97,0.0598894408203422,-0.13472975158269523,0.0024593726343655276,-0.5599461944795621,0.726923689225137,9.865430533837706
4620000000.0,21.97,0.05160653502066817,-0.23376846519665956,0.004003096911374295,-0.5446536229248362,0.869166897379569,9.94459293078613
4625000000.0,21.97,0.01092091974722778,-0.27297396557998527,0.010646586433486916,0.30412113954941145,0.7308430236283303,10.114112156041822
4630000000.0,21.97,-0.018687096356939204,-0.2561924479480354,0.005685147664724107,0.034720295356602926,0.9309721476268216,10.281862348982923
4635000000.0,21.97,-0.027613242244133772,-0.38457802040891687,0.0070799769638164,1.050666304983363,0.8483666392964664,10.184053589443035
4640000000.0,21.97,-0.10392344775210169,-0.19378432445927515,0.006217531583823601,1.4585502592414026,0.6647240678506408,10.296185672907956
4645000000.0,21.97,-0.12559204972725616,-0.11374834521842755,0.0038114304371044535,1.609234565365246,0.3045964399401644,10.20612581508186
4650000000.0,21.97,-0.1538302416277586,0.11930861016312667,0.003939217923991566,1.4646302000592022,-0.07063525154415251,9.82765384524914
4655000000.0,21.97,-0.12020316414403266,0.140713298365928,-0.003822204469527397,0.7506528815633289,-0.2984218275202183,9.719355961671159
4660000000.0,21.97,-0.09399708156386383,0.21377918491570086,-0.0009368043325860571,0.89781699295417,-0.6600209636858096,9.704836437940365
4665000000.0,21.97,-0.058062627442704365,0.29665317314792505,-0.004290631404922548,-0.20269254118152547,-0.6466730253113303,9.731716743672168
4670000000.0,21.97,0.03508777654250754,0.08783578845536263,-0.0032364794984946887,-0.3839569596505696,-0.4653849486536495,9.608696804398768
4675000000.0,21.97,0.09464076464422722,0.09831968199187827,-0.00037261794036014153,-0.0706309103248091,-0.1952159125869591,9.67560499773785
4680000000.0,21.97,0.1361375221890481,0.05232541702597342,-0.0027255456218370114,-0.3873039814929399,0.1914951088455511,9.65068414554584
4685000000.0,21.97,0.162127602492279,-0.0117111592808819,-0.0022463836521796907,0.04179988205139884,0.6152872040221721,9.538556480995465
4690000000.0,21.97,0.16923518244761165,0.04574943097028611,-0.0030449310727115432,0.15048148280221485,0.9513764418310644,9.694441024026311
4695000000.0,21.97,0.12755341856103078,0.08551195238239219,-0.002310262639562422,0.29538375093183755,1.3108160301791603,9.750158088052581
4700000000.0,21.97,0.09565793628981917,0.1970772830916583,-0.004258652913070374,-0.14519785952097858,1.7658045645930456,10.276964764018649
4705000000.0,21.97,0.02416701601905108,0.15386133931755283,-0.0013626737345100491,-0.8757435436159355,1.1748331710987316,10.179044706103648
4710000000.0,21.97,-0.15627472824773045,0.03704263099011088,0.0015117942693564923,-0.9352829298753293,0.13281944070939444,9.985797395666374
4715000000.0,21.97,-0.16805846569766644,-0.046428263678724255,0.0010646508437165,-0.701020585169206,0.009225246495152467,10.190924040081141
4720000000.0,21.97,-0.059652512876763895,-0.11572623933709254,0.0010646508437165,-0.5587767748769678,0.19737738336067384,9.919473732458437
4725000000.0,21.97,-0.07196422299570948,-0.17794924221965447,0.004578058390027468,-0.23396363579483637,-0.08535195598261955,9.950778731314989
4730000000.0,21.97,-0.10158533315137347,-0.11246973451629266,0.003428105920599442,0.13773478873894787,-0.20188768688477687,10.085855178759353
4735000000.0,21.97,-0.02034889177313394,-0.09996256772344966,0.0016928247857727525,-0.08290047816010482,0.08907811098098113,9.669417089726672
4740000000.0,21.97,0.020364061902174477,-0.1346921136922626,0.004301209392537209,0.17345083550060847,0.16833803483018034,9.709551400335215
4745000000.0,21.97,0.0005856079765503351,-0.07065007292579446,0.0020653626218026574,0.5316010428561104,0.2083666119823661,9.5358999364024
4750000000.0,21.97,0.020237413258343544,-0.030359912221069735,0.002129361765680811,0.35806453868474536,0.3041096309477963,9.35874516673085
4755000000.0,21.97,0.023707768182879747,-0.004684411506308005,0.000628053785560829,0.3719959388813594,0.27487601527966016,9.796857740245777
4760000000.0,21.97,0.017255871924931866,-0.002895543822929253,-0.0027254760575501752,0.3696399678843997,0.23661664525626644,9.820984333824043
4765000000.0,21.97,0.018054931211443078,0.017053050058732262,-0.0010646508437165,0.3790595106528951,0.25211792554407925,10.022491819243818
4770000000.0,21.97,0.019874624582379766,0.03745142991043754,-0.0030236486169607883,0.36924691757556916,0.29959730734847306,10.229471523332816
4775000000.0,21.97,0.021408859658263175,0.03899046779038591,-0.002448636546099045,0.32863592748645926,0.31637296374322965,10.005219185497293
4780000000.0,21.97,0.01883092820899613,0.07742347335613964,-0.000340718498833918,0.30489312877623126,0.41673037837800375,10.046225449920355
4785000000.0,21.97,0.03470383830173433,0.08249977081435111,-0.00029806188895426205,0.14273410585674107,0.4805912493998125,9.877978745798687
4790000000.0,21.97,0.028052793728307157,0.07595428107850309,0.001234974783987874,-0.0853502564001026,0.5197355677600557,9.764681428560115
4795000000.0,21.97,0.01165787619918771,0.013714554861906397,0.0,-0.13164666078936663,0.575551489217415,9.890047364709073
4800000000.0,21.97,-0.010228074793998548,-0.009797448376722945,0.00042587045592831985,0.021580415017904156,0.4649931608918316,9.813925491747854
4805000000.0,21.97,-0.032116524295847194,-0.006835391765059595,0.0006494268856853016,-0.07848,0.39289003334320033,9.95018592664496
4810000000.0,21.97,-0.02925293783284687,-0.05501030214937411,0.00040457746013407677,0.09300309771003099,0.30332370514433704,9.963819492001294
4815000000.0,21.97,-0.036534875731378764,0.0024021760345353327,0.0006707198814795447,0.1985499107712991,0.22052917410239173,9.904078554679186
4820000000.0,21.97,-0.022922273206591334,0.0038372232020748593,0.0,-0.006275965809359671,0.23112322550913225,9.919086451018265
4825000000.0,21.97,-0.008410680638509022,-0.0014419141959189467,0.0,0.11575687536196874,0.2437795309181953,9.875727187439672
4830000000.0,21.97,-0.0035346204377748845,0.026009915887474953,0.0,0.06925944435259444,0.2638875927456759,9.871802530915225
4835000000.0,21.97,-0.013729445472450115,0.024605667452628138,0.0,0.04659515214815152,0.12792127303111273,9.875041333054813
4840000000.0,21.97,-0.025350201055436422,0.04695271891060797,0.0,-0.14597364610073646,0.08672152813431527,9.963036470055965
4845000000.0,21.97,0.00561629426063441,-0.004119963859234454,-0.000330051974854226,-0.11477417675064176,0.17285238821662388,9.969019253025193
4850000000.0,21.97,0.02226878883614361,0.027159528898388578,-0.0010646508437165,0.03237121009681209,0.20404856523258566,9.94047403625974
4855000000.0,21.97,0.036284665933463564,0.04929086082905534,-0.000755891864656517,-0.12939493732804938,0.29361490314334904,9.922125188015851
4860000000.0,21.97,0.047475768670893356,0.020118020242199226,0.0005962249623257227,-0.20875689439966894,0.4559703103947031,9.755458571192385
4865000000.0,21.97,0.043829745140114465,0.003531540464288876,0.00184183570416726,-0.21317120550321206,0.5530872330192723,9.89142205503212
4870000000.0,21.97,0.02207219330191111,-0.044098946886828166,0.0010646508437165,-0.2238648621573486,0.5356269459390695,9.827462083781722
4875000000.0,21.97,-0.00026617298747149673,-0.08894249284568544,0.0007984778562450032,-0.1594080495217805,0.6131251893820518,9.881123730983337
4880000000.0,21.97,-0.010012266937665463,-0.12045600214498102,0.001277632447871924,0.21699843224588433,0.5878135886015359,9.94380707296597
4885000000.0,21.97,-0.03981416361637897,-0.08810537988994528,0.004833494235228169,0.33197115908211156,0.4475316306884163,9.904865451672654
4890000000.0,21.97,-0.044498555234834467,-0.062440600213650256,0.0024912520498091817,0.39671658996476594,0.39573511505285114,10.082912395334723
4895000000.0,21.97,-0.04344455088901507,-0.038568470662198415,0.0,0.41202,0.3562984393639844,9.923108634443487
4900000000.0,21.97,-0.04409756135491863,-0.0304625427667884,0.00021294049798588902,0.4336030469428305,0.2648685723506857,9.882594666236347
4905000000.0,21.97,-0.05108496624016117,0.012002272516595709,0.0008623568436277324,0.47519411343024115,0.13037404253634044,9.885338132335281
4910000000.0,21.97,-0.05251889616309418,0.04009089034936519,-0.00019164750219164594,0.286255895370859,0.042966941662269414,9.668147686112578
4915000000.0,21.97,-0.037056521454203,0.04613386131013744,-0.0010646508437165,0.2792898407881984,-0.0477757501477575,9.697283386403933
4920000000.0,21.97,-0.01943351861458399,0.08279414778316105,-0.0008942963373190971,0.16519791530747915,-0.12007334878393348,9.72171
4925000000.0,21.97,0.016611420492679087,0.07386832839541113,-0.0003194160170005626,-0.04463521301335213,-0.011770852053408526,9.730539573973296
4930000000.0,21.97,0.042968234126334895,0.06480832627165128,-0.00198024017682984,-0.023740487278004874,0.11301292366802923,9.78606398303734
4935000000.0,21.97,0.07206085727614726,0.0705786922957436,-0.0009262358310104617,-0.07200712541617126,0.2865517295597173,9.817259208287092
4940000000.0,21.97,0.07555520942605387,0.06565733810707522,-0.0001277685148089167,-0.2315164797678648,0.4528313271643133,9.804899183814292
4945000000.0,21.97,0.0657024455362403,0.012940123475497094,-0.0010646508437165,-0.25957125529031255,0.6168535684055356,9.836192411847925
4950000000.0,21.97,0.05188141717693409,-0.012351757895281684,-0.0009581753247018263,-0.1314534231131342,0.6925865768868659,9.816867673034677
4955000000.0,21.97,0.02790952552667259,-0.01859566274128888,0.00019165804223510413,-0.06876704130577041,0.7411450187753502,9.88396797746958
4960000000.0,21.97,0.006728373762103195,-0.0219050900015091,0.001958936640992139,0.02943,0.6925855182897551,9.939884689026147
4965000000.0,21.97,-0.015257867351512404,-0.00455674747615935,0.00014907205064661796,0.03080359287833593,0.6392184427299845,9.968333592878336
4970000000.0,21.97,-0.03606790301096316,-0.0076866428931918335,0.002001522632580625,0.04316303463713035,0.5179660692742607,9.98834608960886
4975000000.0,21.97,-0.06748061094588538,0.0032459032303993954,0.0,-0.055427756234277564,0.32961522693275225,10.01355701683297
4980000000.0,21.97,-0.07404930726561434,-0.0371960005102143,4.259653163194436e-05,-0.1667675817368758,0.2527050196168502,9.963427529425276
4985000000.0,21.97,-0.061688805419394734,-0.05995268009620208,0.0010327008099816771,0.06808120634471206,0.19237284124062842,9.875137238068271
4990000000.0,21.97,-0.05839897116691028,-0.035641261697725274,2.1303535837701276e-05,0.04806851537618516,0.06847370307523702,9.761146296924762
4995000000.0,21.97,-0.04879552993164909,-0.05958075456758204,0.0010646508437165,0.0016693493719934938,0.05905639404376394,9.77134918213129
5000000000.0,21.97,-0.027698227495753985,-0.05220275576697647,0.0010646403036730417,0.16677,0.07847990288099903,9.829620194238002
5005000000.0,21.97,-0.012924887894514507,-0.04798673838369885,1.0635957853663298e-05,0.16677,0.06876800278388003,9.84904399443224
5010000000.0,21.97,-0.0023421262449408575,-0.044796984988584185,0.0010433683879657151,0.2917506650721067,0.09751169193971693,9.95499287044563
5015000000.0,21.97,0.012328804773527699,-0.019947463366967386,-0.0010007929364206872,0.38945797410357974,0.13616318964143187,9.966665797410359
5020000000.0,21.97,0.025057470164954493,0.019691207091695473,-4.257545154502792e-05,0.3641469074775691,0.19384618504486187,9.957542302492524
5025000000.0,21.97,0.030626218013088846,0.0476242022195303,0.0,0.30705241437242414,0.24279798802297986,9.985108792813788
5030000000.0,21.97,0.03689702213856316,0.054012757377887036,-0.002001564792754458,0.16578753447427533,0.3466864747188647,9.958915506894856
5035000000.0,21.97,0.038270368721079,0.044414508893741336,-0.0011391657889528925,0.16608339779883396,0.41702378459183786,9.993643591195335
5040000000.0,21.97,0.02463203205815305,0.06817143010276187,-8.516144313351409e-05,0.157744702104047,0.42183,9.960288808416188
5045000000.0,21.97,0.015673145962260725,0.06448880485421613,0.0019376858053717287,-0.0215839598614396,0.42183,9.975004395986144
5050000000.0,21.97,0.0072395405737212875,0.040901535355318194,0.0011711052826442572,-0.07455639236076392,0.439488196180382,9.96794090190981
5055000000.0,21.97,0.0007026056209492948,0.020341435435373884,0.00011710093682487871,-0.12213499093654992,0.45891199637461993,9.94076700543807
5060000000.0,21.97,-0.0037476136359780865,0.004047607428504428,0.0,-0.10163130514671306,0.443804203431142,9.928897101715572
5065000000.0,21.97,-0.01909389849195091,-0.0006494690458591344,0.0,-0.05542600809226008,0.424380403236904,9.859441612947617
5070000000.0,21.97,-0.0231416909932513,-0.008389534149318811,0.0009156104132002566,-0.06592339695733396,0.413393301521333,9.807056507606665
5075000000.0,21.97,-0.028869555346102783,-0.005962001932236175,0.00015968692841336488,-0.05199280284842803,0.3453112113937121,9.775174204272641
5080000000.0,21.97,-0.036982216255831445,-0.006217571635988713,0.0008943174174060136,-0.08201199469161995,0.22641351725223519,9.746038503981284
5085000000.0,21.97,-0.036577541827297534,-0.023192138941485318,0.0010646508437165,-0.12900199385011993,0.18972520245995203,9.773899595080097
5090000000.0,21.97,-0.019628117968258006,-0.031871870915104274,0.0019376752653282705,-0.024719815859998148,0.23465579320285793,9.764481402265714
5095000000.0,21.97,-0.009936433139253534,-0.029572117752873946,0.001266923763718351,-0.01589239792852398,0.237303801035738,9.721219005178689
5100000000.0,21.97,-0.00511028104646203,-0.0381320717568597,0.0002129194178989726,-0.003923801877238016,0.26683239624552396,9.727596198122761
5105000000.0,21.97,-0.0017353485911048034,-0.046375568126698435,0.0016821698558408117,0.08524999074349991,0.2979299974755,9.778019994951
5110000000.0,21.97,-0.00023421241369321567,-0.046283317692237556,0.00046842482738643134,0.14616949627809495,0.34236949627809493,9.759772402977523
5115000000.0,21.97,-0.004098959660630968,-0.04088270206009186,0.0008197919321261628,0.2551593915855939,0.383375197410952,9.766247598705474
5120000000.0,21.97,-0.00855983595549894,-0.01350361593545197,-0.0005536400247415825,0.344135595598856,0.34021010385100103,9.815494196699142
5125000000.0,21.97,-0.012775853338776628,0.017846305081541083,-0.0002661519073845803,0.2746788054362881,0.279584402718144,9.895838395922784
5130000000.0,21.97,-0.015429081458929472,0.0255690735417169,0.0,0.20169300213543,0.21405350249133503,9.990504996440949
5135000000.0,21.97,-0.006648003580823127,0.020128631957952947,0.0007772059405376766,0.10045320310543203,0.224845598964856,10.080462597670927
5140000000.0,21.97,0.0006388446820532472,-0.0025931538638346574,-0.001235027484205165,0.11811309886833099,0.242503299838333,10.118426599676667
5145000000.0,21.97,0.002129301687433,0.002204011623473395,-0.0006174757979461329,0.20002679941906798,0.252215199935452,10.144815599806355
5150000000.0,21.97,0.001384035240586688,0.021624835878831412,0.0,0.177560299772003,0.261927100032571,10.112147399804574
5155000000.0,21.97,0.00033003089476730954,0.02769837522915,0.0,0.13665299961093,0.25810099987031,10.04710699909217
5160000000.0,21.97,0.0021719203531562746,0.03421413628861882,0.0,0.08750459863914598,0.30175630158766303,10.012478199546383
5165000000.0,21.97,0.0067605872969244704,0.03228694415051397,0.0,0.009514797084647968,0.317157199676072,9.993054399352145
5170000000.0,21.97,0.005706484928700864,0.02701695509555163,0.0,-0.00667059915790599,0.326869400842094,9.954206497894765
5175000000.0,21.97,0.002182501502783922,0.026953141456438373,0.0,-0.02550640207266402,0.33354,9.924776798963668
5180000000.0,21.97,0.00038326338425291725,0.018829167969902354,0.0,-0.08318950430699505,0.33354,9.89279599753886
5185000000.0,21.97,-0.0040244457693988924,0.002437864621684783,0.0,-0.13263160284961603,0.37062240427442406,9.853948397150385
5190000000.0,21.97,-0.0063879050622992,-0.02209197511465488,0.0,-0.09240929271429292,0.41064690242856905,9.790771593523816
5195000000.0,21.97,-0.0024912172676657698,-0.03367107741350492,0.0,0.024918812692988117,0.433798401813284,9.73102899546679
5200000000.0,21.97,-0.007665617614501397,-0.024504258273322393,0.0012776029357501931,0.060821696988716964,0.44145,9.670697292973674
5205000000.0,21.97,-0.019067657446837076,-0.01245282528344046,0.0008729917474770499,0.04905,0.3951459911929599,9.63165399779824
5210000000.0,21.97,-0.02590980574260733,-0.009134715221813153,0.0,0.04905,0.34021039520800395,9.62361
5215000000.0,21.97,-0.0313395470742525,-0.011402443516000052,0.0012137239483674639,0.021090993524409934,0.29017919222929195,9.657160807770708
5220000000.0,21.97,-0.02931655648115615,-0.02351746272195923,0.0027255171637196665,0.021974805568948055,0.259376298607763,9.709938506961185
5225000000.0,21.97,-0.023226797628158838,-0.028443564733679056,0.002608383552760056,0.08240481191484811,0.24426879702128798,9.753102405957424
5230000000.0,21.97,-0.019585702725373546,-0.022119538658762535,0.0009794567264482653,0.12831500317295003,0.23544,9.7919500063459
5235000000.0,21.97,-0.013593059348994761,-0.0197454444620129,0.0,0.14773880336718803,0.21984179494921796,9.825598205050783
5240000000.0,21.97,-0.007920969139354375,-0.016361337037055373,0.0,0.17226390534213903,0.2315165089035651,9.880240414245703
5245000000.0,21.97,-0.006930888049100203,-0.008431946230190225,0.0,0.22141241314482413,0.2300439906108399,9.957935615022656
5250000000.0,21.97,-0.0074525559060157,0.007461526208706614,-0.0005323364889038811,0.2305344901252449,0.201104898025049,10.020915509874754
5255000000.0,21.97,-0.003800725968968285,0.022311308425458306,-0.0005429608527097404,0.15793997927929979,0.20100700207207003,10.05986100621621
5260000000.0,21.97,0.003066260958657924,0.02454698655549758,0.0,0.10791,0.22484560867675607,10.07487
5265000000.0,21.97,0.012400872234279325,0.020937786878221124,-0.0005003969952125165,0.09868839546738395,0.2913580226630802,10.088702406798925
5270000000.0,21.97,0.0191811684794176,0.01614948694976215,-0.0010646508437165,0.09731540472685404,0.36140080945370806,10.09076189290972
5275000000.0,21.97,0.014382274321309816,0.014319564967733274,-0.0005855468442982265,0.10791,0.39141920492109206,10.039553180315632
5280000000.0,21.97,0.0038326317345206496,0.01866045145537335,0.0,0.09927699488466996,0.40652650255766504,9.966174482096346
5285000000.0,21.97,-0.004876167709177311,0.023897582857907832,0.0004578110036240303,0.06297958407129584,0.41202,9.898191181416513
5290000000.0,21.97,-0.010305864772639978,0.022715764675092624,0.0006174863379895912,0.021189394496193947,0.40377939449619393,9.834328183488582
5295000000.0,21.97,-0.014965556196662684,0.022864927370113006,0.0,0.0017655943019559417,0.36826678290586784,9.808234405698045
5300000000.0,21.97,-0.01982000367543184,0.02791133891523144,0.0,-0.03335461767684617,0.31391948526929486,9.81588589705386
5305000000.0,21.97,-0.021959895998531716,0.026921101832334114,0.0,-0.1069300304326003,0.27301199087021993,9.80617399695674
5310000000.0,21.97,-0.018876366647362062,0.010231133151756173,0.0,-0.18540951570189518,0.251332096859621,9.818829515701896
5315000000.0,21.97,-0.013329383747066258,-0.02101234396635259,0.0,-0.18315177086251772,0.25250960647499604,9.838350590287506
5320000000.0,21.97,-0.011029793955509579,-0.04316346735131103,0.0,-0.09574466998844669,0.2754651100038511,9.823341703334618
5325000000.0,21.97,-0.011338520260434842,-0.0479441945522842,0.0007452780408941159,0.001963241180832409,0.2874327931365279,9.839920810295208
5330000000.0,21.97,-0.011732486004815244,-0.03888844718488707,0.001405316642333127,0.0884865105865651,0.278015503528855,9.85905
5335000000.0,21.97,-0.01208373084505086,-0.01919663424803778,0.0003513460246528149,0.10143519274805193,0.281252596374026,9.881711825381819
5340000000.0,21.97,-0.008857906276487993,-0.014564412285275807,0.0007239513169608066,0.09456860744618607,0.27468,9.943416518615466
5345000000.0,21.97,-0.0076015394202973065,-0.015496136817999032,0.0009901590865757464,0.11095120382021205,0.28988601910106016,9.973728796179788
5350000000.0,21.97,-0.005110391716918361,-0.01789830618293304,0.001916326407303769,0.1412648313386483,0.3149006882480069,9.955187584330677
5355000000.0,21.97,-0.010199377659577485,-0.011508751448323768,-0.0007558908106521712,0.1962,0.2943,9.91349497992775
5360000000.0,21.97,-0.012009272816049106,-0.0022996119256479507,0.0008943406055016494,0.18521238355372385,0.29704690411156903,9.859441671219017
5365000000.0,21.97,-0.013930390848060288,0.002299736298160766,0.002331551419339316,0.1463647831652478,0.301461195791312,9.79675597895656
5370000000.0,21.97,-0.015109584974744692,0.005195360277256627,0.0,0.12027070430580705,0.2994014086116141,9.753297887082578
5375000000.0,21.97,-0.0095818575934488,-0.0031939072089627045,0.0,0.12998260440292606,0.316372604402926,9.751140835223408
5380000000.0,21.97,-0.010859495311342452,0.001277637717893653,0.000255527543578721,0.13734,0.31195747749977476,9.80529099099991
5385000000.0,21.97,-0.016623293575174607,0.0070374215383539425,0.0008197697980349005,0.12605797701417976,0.25888516781985166,9.797149213791492
5390000000.0,21.97,-0.01979470107431852,0.01113616829010701,0.0,0.08181508591715085,0.2103266093885661,9.84139304694283
5395000000.0,21.97,-0.010870096487052757,0.004876078118807966,0.0,0.0671008191656082,0.22356979520859796,9.915849795208597
5400000000.0,21.97,-0.010859393072920921,0.0038327771871203243,0.0,0.08828947555739476,0.21582,9.923796839108167
5405000000.0,21.97,-0.006441080635550096,0.005174134737740482,0.0,0.0565060199425602,0.22141201495692014,9.9772599750718
5410000000.0,21.97,-0.002704247356021011,0.0019164855619599897,0.0,0.08299228475172284,0.24701590508275906,9.944593620331037
5415000000.0,21.97,-0.004418243927088315,0.008293481679280002,0.0,0.0555243896402439,0.2617312207195122,9.978437805179878
5420000000.0,21.97,0.000511066681205262,-0.0035346636519531134,0.0,0.04865823166198231,0.3037182316619823,9.980301178892011
5425000000.0,21.97,0.0027148253436357034,-0.004045581718545638,0.0,0.10251481612234817,0.3561032107482321,9.942925183877652
5430000000.0,21.97,-0.0005962502584300364,0.004386453048009687,0.0,0.12615649452876496,0.36865948358629486,9.913789483586294
5435000000.0,21.97,-0.005089099775128443,0.013236005130543895,0.0,0.10751675545316756,0.3459008111367081,9.88210297215823
5440000000.0,21.97,-0.0110298171436052,0.021393364170176222,0.0,0.0309988603416886,0.3594380830035808,9.834720777338108
5445000000.0,21.97,-0.013723337897398848,0.004513935927640878,0.0,-0.024033971187039715,0.33677761728777617,9.79479397118704
5450000000.0,21.97,-0.012988763270636448,-0.010752985010184419,0.0,0.02550663515826635,0.3610077882805779,9.749177788280578
5455000000.0,21.97,-0.016152473773454287,-0.010848688604784783,0.0,0.07848,0.3345199404316994,9.73681803574098
5460000000.0,21.97,-0.0287630260728665,-0.001958934532983447,0.0,0.07848,0.2413254697302547,9.795874342377644
5465000000.0,21.97,-0.0287630260728665,0.0005217595552935977,0.0,0.07298555079145551,0.19345277539572778,9.865231255359612
5470000000.0,21.97,-0.028315792002852752,0.006238634858835532,0.0,-0.0005887062481870625,0.15578258750362586,9.950872237489122
5475000000.0,21.97,-0.02088364464475497,-0.013202635646694128,0.0,-0.006375755582857554,0.1388118190359182,10.006200000000002
5480000000.0,21.97,-0.012264639096962902,-0.0213104701668507,0.0,0.06082253221212532,0.1691250386545504,10.004629974230301
5485000000.0,21.97,0.0002556087019133581,-0.021054337676613747,0.0,0.10849881307908814,0.22798525231635253,9.96548796730228
5490000000.0,21.97,0.0085172067497323,-0.012584068816019969,0.0,0.1281189199099892,0.30528783981997837,9.917124773453347
5495000000.0,21.97,0.008506548657787374,-0.0031619782553148224,0.0,0.15696,0.3632646202013462,9.87817896633109
5500000000.0,21.97,0.007452428371489856,8.115833462809433e-08,0.0,0.15696,0.39239989316909896,9.829619465845495
5505000000.0,21.97,-0.004141619432523602,0.007378111579070476,0.0,0.15696,0.3826879930719799,9.781059965359901
5510000000.0,21.97,-0.014692297794567101,0.00953929478995592,0.0,0.13773218594972184,0.3922039070251391,9.809411721075417
5515000000.0,21.97,-0.022151102304871485,0.021991462806653678,0.0,0.11830838575548386,0.2877261216551612,9.781452578633226
5520000000.0,21.97,-0.02544135034909485,0.026463426795270667,0.0,0.0141252205868522,0.2562368783418688,9.837076243316263
5525000000.0,21.97,-0.01950049385204444,0.025622294437154705,0.0,0.0004903926835039263,0.21778157073401572,9.88602803658248
5530000000.0,21.97,-0.018180385029036027,0.01756280593866402,0.0,-0.0368860296544603,0.20659849258638494,9.897701507413615
5535000000.0,21.97,-0.0161362437307321,0.008124402466304678,0.0,-0.04836340751073408,0.20601,9.962153852575138
5540000000.0,21.97,-0.01499166827311361,0.0005961227239041937,0.0,-0.06710061521570615,0.1699087695685877,9.975985307607854
5545000000.0,21.97,-0.011998579941960779,-0.013563815393663397,0.0,-0.05081558459005585,0.18462441540994415,9.967842792295029
5550000000.0,21.97,-0.006920171986916277,-0.020670004719852447,0.0,-0.013733568791635689,0.23936464681254646,9.993447323406274
5555000000.0,21.97,0.004035155507556794,-0.020362919205954736,0.0,0.042576047395260476,0.3150980631936806,9.93527294470553
5560000000.0,21.97,0.010007776533577104,-0.017435105934137576,0.0,0.06631581599265815,0.3841603559743036,9.875922552022026
5565000000.0,21.97,0.001383928786147813,-0.013331650374772533,0.0,0.09427442428034424,0.40946961618689615,9.877394808093447
5570000000.0,21.97,-0.009156114672046368,-0.016453266017469565,0.0,0.07278987542829875,0.4204567081905671,9.861796583618865
5575000000.0,21.97,-0.01790106368292559,-0.02519655151575218,0.0,0.13537886630148865,0.3717983502738835,9.834034175136942
5580000000.0,21.97,-0.0325959455505735,-0.022162132028381437,0.0,0.16363101676961017,0.32176745807597457,9.89554406707844
5585000000.0,21.97,-0.03956929100273214,-0.008924576111869609,0.0,0.20748204240962043,0.24063832366268323,9.899957591518076
5590000000.0,21.97,-0.038728134402516184,0.007580502547559152,0.0,0.19168707426287074,0.13714260563052605,9.954600160053301
5595000000.0,21.97,-0.029721093889125128,0.01755967761920804,0.0,0.12282033059070331,0.08593516529535165,10.014637252056971
5600000000.0,21.97,-0.023439712830040472,0.0191811684794176,0.0,0.037277021040470204,0.07063189122671891,10.010123782453439
5605000000.0,21.97,-0.011427214950759436,0.008233262419609816,0.0,0.01962,0.11517005322240054,9.9751999645184
5610000000.0,21.97,0.0006176275745719429,-0.0029811406216939135,0.0,0.01962,0.16578954483759545,9.928700455162405
5615000000.0,21.97,0.0064731244756717115,-0.011881598107627,0.0,0.06494285438782854,0.259671899711019,9.812156673095068
5620000000.0,21.97,0.0106891418589494,-0.004939849597747363,0.0,0.09339141832351419,0.3366799641322996,9.758202872514728
5625000000.0,21.97,0.014918249406003085,-0.004524801658441947,0.0,0.0981,0.4267360925887609,9.736424781482247
5630000000.0,21.97,0.010459325870170209,-0.006898961203460988,0.0,0.11987852806798528,0.4367409812880098,9.71700098128801
5635000000.0,21.97,-0.0023636911738563783,-0.009006969895099817,0.0,0.15617563781245639,0.43880140945311413,9.726222818906228
5640000000.0,21.97,-0.013299516097622335,-0.008048736600158927,0.0,0.1597066904497669,0.4202600713493007,9.766836547751167
5645000000.0,21.97,-0.028081839928232967,0.0001065840814623055,0.0,0.1708904192947042,0.3354026938791269,9.829326467531464
5650000000.0,21.97,-0.044212859460506904,0.011391895040507114,0.0,0.1491115610221156,0.22170468306634683,9.90417687795577
5655000000.0,21.97,-0.04458907641101777,0.010497385794310145,0.0,0.0899569311088693,0.1322379212672792,9.934489009841592
5660000000.0,21.97,-0.03536374199061708,0.010689130264901613,0.0,0.0820118198774182,0.0745554503064545,9.94420090993871
5665000000.0,21.97,-0.02411037052526361,0.0117111592808819,0.0,0.07514437992834379,0.0785784301074843,9.960485620071656
5670000000.0,21.97,-0.013207484861507884,0.01664144921472157,0.0,0.04924586960115869,0.1206635506647355,9.92163702906937
5675000000.0,21.97,-0.0033535424911631546,0.017797098456687498,0.0,0.013733559079735589,0.1628464409202644,9.853653728389537
5680000000.0,21.97,0.004769719594275628,0.006819868786465778,0.0,-0.03139255163592552,0.2205295722902957,9.80450595869126
5685000000.0,21.97,0.009464781952728247,-0.007654995358704243,0.0,-0.0366891791513918,0.31941492509164926,9.778019179151391
5690000000.0,21.97,0.0106465084371654,-0.016747204468635323,0.0,0.03747541573565415,0.39338155260711555,9.782924621042847
5695000000.0,21.97,0.0022036711800697637,-0.008129888437973375,0.0,0.09044842123708421,0.38808315752583156,9.826285263711252
5700000000.0,21.97,-0.01087005496619301,0.002129361765680771,0.0,0.10987222143132222,0.31980500355905006,9.908101107156611
5705000000.0,21.97,-0.021012464140126745,0.011178617278409315,0.0,0.059839891872198916,0.24397392431053927,9.98785607568946
5710000000.0,21.97,-0.026356951276256015,0.008566978528260341,0.0,0.0025502672703026745,0.18168053454060534,10.061529287279193
5715000000.0,21.97,-0.02769837522915,0.00015963739020915472,0.0,0.0069654330210543285,0.15136818899298188,10.083306377985965
5720000000.0,21.97,-0.022928642986822127,-0.0009368686268510877,0.0,0.01962,0.15813742220827423,10.080363711104138
5725000000.0,21.97,-0.016243718808720574,0.0011711400647876691,0.0,0.025015611201256113,0.18835244480502444,10.025328276786183
5730000000.0,21.97,-0.008666149157844366,0.0015543781529362868,0.0,0.013537466104874663,0.22720004519350046,9.923794887016248
5735000000.0,21.97,-0.004822880411465744,-0.0017567343392815105,0.0,0.0,0.2868452911639529,9.847473531627035
5740000000.0,21.97,-0.0053232542185827,-0.00924127822318854,0.0,0.0,0.33393262298522625,9.768796885073868
5745000000.0,21.97,-0.008038174422609545,-0.0132974769275096,0.0,0.030019269538392696,0.3483532115897321,9.731716423179464
5750000000.0,21.97,-0.015446273168305331,-0.012243472581690173,0.0,0.08338555843425559,0.3188242181920422,9.74133
5755000000.0,21.97,-0.02441934768322319,-0.005972557785759545,0.0,0.09348896464808965,0.24122689394426894,9.765365058919851
5760000000.0,21.97,-0.0302961597142085,-0.0015331336413419994,0.0,0.0549354405945544,0.18207326435673266,9.832760206929802
5765000000.0,21.97,-0.0299553864071486,-0.007197136924884639,0.0,0.034040811978208116,0.15754837604358377,9.915556495825665
5770000000.0,21.97,-0.023780362818591888,-0.013180413934841168,0.0,0.04826542415065424,0.14715,9.961662712075327
5775000000.0,21.97,-0.01629868397767812,-0.012988691598340978,0.0,0.0765184486897845,0.15156461217244613,9.953716163482662
5780000000.0,21.97,-0.008091224569343247,-0.012520342659267434,0.0,0.10241651226956514,0.19149209815652096,9.89436487730435
5785000000.0,21.97,-0.0016714896298046238,-0.013073863581517952,0.0,0.11212841236668412,0.26496888656678885,9.826774762899948
5790000000.0,21.97,-0.0006174852839852453,-0.011988005116359206,0.0,0.12596062492760624,0.3288318747828187,9.781157812753378
5795000000.0,21.97,-0.00261911437100488,-0.011221346597310078,0.0,0.14538442512184424,0.37101442512184424,9.765463275365533
5800000000.0,21.97,-0.0110794847830481,-0.006600810778141677,0.0,0.16873233797412338,0.3394247607615476,9.815886450632165
5805000000.0,21.97,-0.024344908626299684,-0.004492802086502881,0.0,0.17873797448967974,0.2593759489793595,9.870038102041281
5810000000.0,21.97,-0.03570459856402035,-0.004003111667435175,0.0,0.16304208714772087,0.20188878432948784,9.95891704137507
5815000000.0,21.97,-0.03676915138533274,-0.004929321148337016,0.0,0.16421962589879624,0.13263074820240747,10.02582
5820000000.0,21.97,-0.031403274285009414,-0.0027254570854719625,0.0,0.17658,0.0973148608604486,10.022288286953483
5825000000.0,21.97,-0.020292734266079776,0.00149056029780565,0.0,0.17658,0.10251529200545292,10.009142773712728
5830000000.0,21.97,-0.004897270984189375,0.007878539140409058,0.0,0.1565669205554692,0.1671630794445308,9.973041407314714
5835000000.0,21.97,0.0028319958447473544,0.016667606993492096,0.0,0.11772,0.2254344800272448,9.901820693297008
5840000000.0,21.97,0.0032365016325859503,0.02092722048465431,0.0,0.11772,0.2680093134349931,9.827264805955048
5845000000.0,21.97,-0.0009156736534610677,0.023035229176293134,0.0,0.09947271880732719,0.27468,9.789693640596337
5850000000.0,21.97,-0.006920292143411741,0.025782053037863545,0.0,0.05297377274153773,0.2687937727415377,9.815886227258463
5855000000.0,21.97,-0.013430419877948636,0.03092435368234731,0.0,0.022169917641899177,0.23514490391554904,9.8523801098108
5860000000.0,21.97,-0.01994770473396262,0.0344268944438529,0.0,-0.03335456911734569,0.1808961723530617,9.913593827646938
5865000000.0,21.97,-0.016301774975012954,0.024936006773257254,0.0,-0.07926525568235256,0.17471644176176443,9.938315255682353
5870000000.0,21.97,-0.006302634002713742,0.008942943347108698,0.0,-0.09770714392917144,0.20385214205312144,9.961858571964585
5875000000.0,21.97,-0.0010647003819207784,-4.9538204278465683e-08,0.0,-0.06376477177034771,0.23544045645930456,9.937529543540697
5880000000.0,21.97,-0.004769660570032258,-0.005493709909397274,0.0,-0.04669548578805486,0.281351599483616,9.89868194315222
5885000000.0,21.97,-0.006632787161985145,-0.013020692224284367,0.0,-0.03472717138187171,0.33128358569093586,9.85757792845468
5890000000.0,21.97,-0.009092205118537533,-0.015718185710523847,0.0,-0.02609494321854943,0.3215716855938169,9.828443257624732
5895000000.0,21.97,-0.016697490038310957,-0.023940244737809258,0.0,-0.030508069470280695,0.31185978549669785,9.865230643509907
5900000000.0,21.97,-0.024930370096245925,-0.028550021280615477,0.0,0.04512634380126344,0.28841308319663084,9.898290573002106
5905000000.0,21.97,-0.03271299273317681,-0.02364206796238126,0.0,0.06867,0.21071788241967881,9.950578102882782
5910000000.0,21.97,-0.04028253574354814,-0.026037619579603075,0.0,0.06867,0.1400863408213634,10.00796591479466
5915000000.0,21.97,-0.037599503386999675,-0.03265962322312625,0.0,0.08034470424244704,0.1112456297835563,10.009338740432888
5920000000.0,21.97,-0.0277408863864299,-0.031062684374705697,0.0,0.14518857494448575,0.1306694299777943,9.962642565099925
5925000000.0,21.97,-0.021576570428022402,-0.029239288424732165,0.0,0.19080484525804844,0.15745130560211307,9.87670707931187
5930000000.0,21.97,-0.015856914177210853,-0.012051697544972713,0.0,0.21444648481686485,0.21719351518313515,9.80450593926746
5935000000.0,21.97,-0.00865562387044703,4.2686122001365286e-05,0.0,0.20473458471974584,0.2281808305605083,9.765658338878982
5940000000.0,21.97,-0.009837398839084029,0.008732356734565898,0.0,0.1914907384905074,0.24289536924525368,9.732697315377372
5945000000.0,21.97,-0.012415824098026496,0.017411852818556506,0.0,0.1548015690510157,0.21915470715304708,9.748884508321444
5950000000.0,21.97,-0.01832947288974784,0.012351770577891353,0.0,0.1393022311432223,0.16382665328516655,9.813924462286446
5955000000.0,21.97,-0.019765092675386137,0.01859567328133234,0.0,0.14901285898142858,0.13645698433126985,9.85718714101857
5960000000.0,21.97,-0.014479188655885872,0.02326940259182555,0.0,0.06474542117075421,0.12909983153169832,9.932820505404905
5965000000.0,21.97,-0.008911014393460773,0.020191176230258654,0.0,0.016185920685159207,0.15264452690374528,9.877983184137031
5970000000.0,21.97,0.0007028079897836939,0.004684337864233885,0.0,-0.024131556359215565,0.2326945915210459,9.867093852119739
5975000000.0,21.97,0.011444933593193101,-0.00511027366843166,0.0,0.060822464228824646,0.34384061605720617,9.836486303656763
5980000000.0,21.97,0.005791524107330276,-0.000936854924794592,0.0,0.09770748384567485,0.3523749676913496,9.782140064617302
5985000000.0,21.97,-0.008933108398000357,0.0020334452622024564,0.0,0.0874067512456675,0.3329511674971117,9.821576497508666
5990000000.0,21.97,-0.02263078873672402,-0.0011498734191020756,0.0,0.05886,0.3121531528629315,9.880240530788505
5995000000.0,21.97,-0.03516159028111497,-0.005440679564122219,0.0,0.058958216445682166,0.22533535066295352,9.957739298674094
6000000000.0,21.97,-0.0362155313866737,-0.017051892088088896,0.0,0.06867081579960815,0.1961997669143977,10.016010233085602
6005000000.0,21.97,-0.031999514003395985,-0.019159900779727658,0.0,0.13665411647944115,0.17677596672015966,10.03543403327984
6010000000.0,21.97,-0.033000349099990604,-0.0035135066054407145,0.0,0.15656783347407832,0.10928258284072584,9.977946499577765
6015000000.0,21.97,-0.0268252854592687,0.013329631438087543,0.0,0.10938091582920917,0.09839418316584184,9.986285816834158
6020000000.0,21.97,-0.01641294938363138,0.010774228467774413,0.0,0.023150547618505476,0.11693543386255434,9.873567396824674
6025000000.0,21.97,-0.007879187093900323,-0.001490663590231485,0.0,0.01962,0.173637702170377,9.831581531886416
6030000000.0,21.97,-0.005450986897243859,-0.008134008713748806,0.0,0.07494910275309102,0.24113061987860618,9.838841517125516
6035000000.0,21.97,-0.00928380624453799,0.00039403530866717086,0.0,0.12409708611317086,0.19050949666419498,9.802936331109464
6040000000.0,21.97,-0.013499823627815693,0.01675257221902971,0.0,0.06435277876172778,0.16833936536049365,9.845316586598766
6045000000.0,21.97,-0.014809305979009556,0.0181165176357011,0.0,0.014223912915639125,0.1578427825831278,9.884948869667488
6050000000.0,21.97,-0.0149051118120315,0.013309816899372755,0.0,-0.01667735254197352,0.17461823502798235,9.932625587569957
6055000000.0,21.97,-0.006377143677928417,-0.011860542262810535,0.0,0.0065730528333305255,0.22023508805555086,9.89387491194445
6060000000.0,21.97,-0.00251253766757295,-0.011157489744018647,0.0,0.0875062593740626,0.27742750624937507,9.853948329167084
6065000000.0,21.97,-0.005834337763857453,0.006026153906744467,0.0,0.12370445341604454,0.3100944534160445,9.798031093167912
6070000000.0,21.97,-0.013712805231971045,0.016772729481944436,0.0,0.05159953887779538,0.2632996925851969,9.765069846292597
6075000000.0,21.97,-0.020349743460481563,0.015386784057186603,0.0,-0.002453089997930896,0.23838276400082764,9.80264308999793
6080000000.0,21.97,-0.023993428743094902,-0.006558556797922183,0.0,-0.02629103619341036,0.21071844570988446,9.892405180967051
6085000000.0,21.97,-0.0315738069181413,-0.01773037910038034,0.0,0.02756692735676927,0.18158274541852745,9.932527254581473
6090000000.0,21.97,-0.034767682506973624,-0.01830814194979714,0.0,0.047284318290943185,0.12026977196339772,9.969707273163772
6095000000.0,21.97,-0.033426171071719024,-0.003441919718834544,0.0,0.08083487355224873,0.09996378161193782,9.968823781611938
6100000000.0,21.97,-0.022800827041817674,0.0008517335338262189,0.0,0.04120128908891289,0.12164435545554356,9.919871289088912
6105000000.0,21.97,-0.009297899543991081,-0.008187306551503888,0.0,0.01392996283539963,0.18178013007610133,9.853849869923899
6110000000.0,21.97,-0.00306614291017114,-0.017303646520733407,0.0,0.04806959339709593,0.23445959339709593,9.824126162641162
6115000000.0,21.97,-0.007867859968377211,-0.01672178635901296,0.0,0.12684436898884371,0.24525,9.812256181223463
6120000000.0,21.97,-0.02092318789858466,-0.005455033185369874,0.0,0.12478284337902844,0.19305996788439966,9.824911437747314
6125000000.0,21.97,-0.030093930008384805,-0.002129301687433,0.0,0.09564714308767143,0.13243428617534286,9.895838570736984
6130000000.0,21.97,-0.030381269511129048,-0.006856428966094161,0.0,0.06651144279631444,0.08868192372841924,9.961467114407371
6135000000.0,21.97,-0.020501180334026287,-0.020965276642024612,0.0,0.03737574250495743,0.12860993415509936,10.005415676660057
6140000000.0,21.97,-0.008607123152045027,-0.03170156594691109,0.0,0.1283164696698647,0.18246659631066597,9.9948200422136
6145000000.0,21.97,-0.004567339165830504,-0.01971150223911317,0.0,0.23642219359252192,0.22406087743700878,9.944788683844488
6150000000.0,21.97,-0.011711288923416417,-0.007878312529474761,0.0,0.2374015221745152,0.21483864163088642,9.934587119456372
6155000000.0,21.97,-0.021528753309192978,-0.0009155218768352701,0.0,0.2053229413395294,0.1992409804465098,9.930760980446511
6160000000.0,21.97,-0.0245044226980003,-0.0025552269515873704,0.0,0.2028709196506092,0.1761872410481724,9.92772
6165000000.0,21.97,-0.02807106800381863,-0.002831945252538755,0.0,0.21915563949545638,0.133905901261359,9.973729738234098
6170000000.0,21.97,-0.029124994353316485,0.006302889071765473,0.0,0.2126805603103056,0.085346400775764,10.002864719844847
6175000000.0,21.97,-0.025994881811388787,0.01965432214049849,0.0,0.1805035202321352,0.036786900290169,9.999823380058034
6180000000.0,21.97,-0.013591019297665256,0.0279113705353618,0.0,0.1290988797654888,0.0635696402735964,9.946161839687317
6185000000.0,21.97,-0.0014158682798391994,0.02446173235998159,0.0,0.077007899318979,0.1439137812258378,9.868466638910366
6190000000.0,21.97,0.0008091085440769376,0.02065037359517267,0.0,0.05886,0.2313208820999088,9.778606797666768
6195000000.0,21.97,-0.0006494500737809096,0.0202458193231342,0.0,0.05886,0.2708542203304422,9.735345779669558
6200000000.0,21.97,-0.0029810615713679245,0.025356247930204686,0.0,0.04708775914487759,0.25702163871731637,9.690317157007073
6205000000.0,21.97,-0.01243494304570927,0.029391183150853168,0.0,-0.030216246296162458,0.20473385632723856,9.697578123148082
6210000000.0,21.97,-0.021204070536148943,0.02674012401613516,0.0,-0.09554976186539763,0.14813039689100396,9.812748729948787
6215000000.0,21.97,-0.022832907772091376,0.014784648791409798,0.0,-0.12468546215675462,0.1331218207189182,9.873078179281082
6220000000.0,21.97,-0.016999388693150385,-0.002683143027004768,0.0,-0.12635255836792558,0.17030232489622327,9.874353720816037
6225000000.0,21.97,-0.009262383606209207,-0.01181765060996176,0.0,-0.07995065360790654,0.22857372547893726,9.87867
6230000000.0,21.97,-0.00811267882780243,-0.011625960947596282,0.0,-0.027859915958899164,0.25506,9.841587352928073
6235000000.0,21.97,-0.012403248046468592,-0.008953674165353483,0.0,-0.030607684429576842,0.26545884221478844,9.804800578892607
6240000000.0,21.97,-0.019343240481435507,-0.018534263687901755,0.0,-0.043948678795486786,0.25427471518194716,9.795088678795487
6245000000.0,21.97,-0.02941260789719064,-0.029848996262485942,0.0,0.0007857704130577042,0.21042389349183893,9.830405770413059
6250000000.0,21.97,-0.03887730131355386,-0.0308923277602996,0.0,0.058860485595004855,0.13243366461373665,9.932626578183765
6255000000.0,21.97,-0.04469880776673544,-0.0303706356612841,0.0,0.09290106448761065,0.04483084952890849,10.01081106448761
6260000000.0,21.97,-0.04227175550176282,-0.027783494512109635,0.0,0.10320107840701079,0.014518921592989216,10.035237843185978
6265000000.0,21.97,-0.026263249287744584,-0.0290718672642655,0.0,0.10732164338021644,0.06572821690108217,10.036218356619782
6270000000.0,21.97,-0.010412192731046255,-0.030083113815788043,0.0,0.1628472178722722,0.14479633072336331,9.989718225702182
6275000000.0,21.97,-0.0063879050622992,-0.018960172468119256,0.0,0.22464924376869244,0.18540924376869244,9.920852268693922
6280000000.0,21.97,-0.01013558193853808,-0.005365721107680076,0.0,0.22249043405560434,0.19188347801853478,9.853947824148278
6285000000.0,21.97,-0.0194907480613365,0.004578131116327391,0.0,0.19335473376424733,0.1652978896070789,9.826873688314338
6290000000.0,21.97,-0.029146406451601832,0.0061748422998092285,0.0,0.15597838912148387,0.10437742259437421,9.873961933054218
6295000000.0,21.97,-0.030594119364741247,-0.004801721274223431,0.0,0.1436188890912889,0.06288222227282222,9.932233333636933
6300000000.0,21.97,-0.018748114119934572,-0.00702654948352681,0.0,0.19423885658958856,0.07259412236994121,9.974808244739883
6305000000.0,21.97,-0.005195389789378297,0.005813179680619496,0.0,0.22013591013175912,0.11674022467060224,9.9674498876647
6310000000.0,21.97,0.00040458062214711424,0.01855296988057119,0.0,0.17756038717910388,0.18776376769253766,9.915162464614925
6315000000.0,21.97,-0.0012989539017835298,0.023716554449500316,0.0,0.1181114187096142,0.20601,9.85689106403221
6320000000.0,21.97,-0.00800626760305287,0.01623623558521042,0.0,0.04394794069107941,0.2201368910336689,9.802151386207914
6325000000.0,21.97,-0.016135689151658597,0.0004789195486577802,0.0,0.0480707199775072,0.23151550857785508,9.784494491422144
6330000000.0,21.97,-0.02744304583838826,-0.002725292660794047,0.0,0.14067552295265523,0.16264820161548202,9.820006568857966
6335000000.0,21.97,-0.036226188424614246,0.010982403483816398,0.0,0.11801319255203192,0.062292884751128846,9.875041653547516
