#timestamp [ns], temperature [degC], w_RS_S_x [rad s^-1], w_RS_S_y [rad s^-1], w_RS_S_z [rad s^-1], a_RS_S_x [m s^-2], a_RS_S_y [m s^-2], a_RS_S_z [m s^-2]
0,21.97,0.0,0.0,0.0,0.05886,0.34335000000000004,9.888480000000001
5050505,21.97,0.0,0.0,0.0,0.05886,0.34335000000000004,9.87867
10101010,21.97,0.0,0.0,0.0,0.04905,0.30411,9.888480000000001
15151515,21.97,0.0,0.0,0.0,0.04905,0.33354000000000006,9.888480000000001
20202020,21.97,0.0,0.0,0.0,0.05886,0.30411,9.888480000000001
25252525,21.97,0.0,0.0,0.0,0.06867000000000001,0.33354000000000006,9.888480000000001
30303030,21.97,0.0,0.0,0.0,0.05886,0.2943,9.89829
35353535,21.97,0.0,0.0,0.0,0.05886,0.32373,9.89829
40404040,21.97,0.0,0.0,0.0,0.07848000000000001,0.35316,9.87867
45454545,21.97,0.0,0.0,0.0,0.06867000000000001,0.32373,9.89829
50505050,21.97,0.0,0.0,0.0,0.06867000000000001,0.34335000000000004,9.87867
55555555,21.97,0.0,0.0,0.0,0.08829,0.34335000000000004,9.85905
60606060,21.97,0.0,0.0,0.0,0.05886,0.33354000000000006,9.888480000000001
65656565,21.97,0.0,0.0,0.0,0.07848000000000001,0.33354000000000006,9.908100000000001
70707070,21.97,0.0,0.0,0.0,0.08829,0.35316,9.89829
75757575,21.97,0.0,0.0,0.0,0.05886,0.31392000000000003,9.908100000000001
80808080,21.97,0.0,0.0,0.0,0.06867000000000001,0.32373,9.87867
85858585,21.97,0.0,0.0,0.0,0.06867000000000001,0.31392000000000003,9.87867
90909090,21.97,0.0,0.0,0.0,0.07848000000000001,0.35316,9.86886
95959595,21.97,0.0,0.0,0.0,0.05886,0.35316,9.87867
101010100,21.97,0.0,0.0,0.0,0.08829,0.34335000000000004,9.89829
106060605,21.97,0.0,0.0,0.0,0.06867000000000001,0.31392000000000003,9.89829
111111110,21.97,0.0,0.0,0.0,0.04905,0.33354000000000006,9.888480000000001
116161615,21.97,0.0,0.0,0.0,0.06867000000000001,0.33354000000000006,9.908100000000001
121212120,21.97,0.0,0.0,0.0,0.07848000000000001,0.35316,9.85905
126262625,21.97,0.0,0.0,0.0,0.06867000000000001,0.32373,9.888480000000001
131313130,21.97,0.0,0.0,0.0,0.04905,0.32373,9.888480000000001
136363635,21.97,0.0,0.0,0.0,0.05886,0.32373,9.87867
141414140,21.97,0.0,0.0,0.0,0.06867000000000001,0.32373,9.908100000000001
146464645,21.97,0.0,0.0,0.0,0.07848000000000001,0.32373,9.908100000000001
151515150,21.97,0.0,0.0,0.0,0.05886,0.30411,9.89829
156565655,21.97,0.0,0.0,0.0,0.04905,0.33354000000000006,9.89829
161616160,21.97,0.0,0.0,0.0,0.05886,0.35316,9.86886
166666665,21.97,0.0,0.0,0.0,0.05886,0.33354000000000006,9.87867
171717170,21.97,0.0,0.0,0.0,0.06867000000000001,0.31392000000000003,9.84924
176767675,21.97,0.0,0.0,0.0,0.07848000000000001,0.34335000000000004,9.888480000000001
181818180,21.97,0.0,0.0,0.0,0.07848000000000001,0.35316,9.89829
186868685,21.97,0.0,0.0,0.0,0.04905,0.33354000000000006,9.888480000000001
191919190,21.97,0.0,0.0,0.0,0.07848000000000001,0.34335000000000004,9.91791
196969695,21.97,0.0,0.0,0.0,0.06867000000000001,0.31392000000000003,9.908100000000001
202020200,21.97,0.0,0.0,0.0,0.06867000000000001,0.31392000000000003,9.89829
207070705,21.97,0.0,0.0,0.0,0.07848000000000001,0.32373,9.85905
212121210,21.97,0.0,0.0,0.0,0.06867000000000001,0.32373,9.87867
217171715,21.97,0.0,0.0,0.0,0.04905,0.34335000000000004,9.87867
222222220,21.97,0.0,0.0,0.0,0.05886,0.36297,9.87867
227272725,21.97,0.0,0.0,0.0,0.06867000000000001,0.33354000000000006,9.87867
232323230,21.97,0.0,0.0,0.0,0.06867000000000001,0.32373,9.87867
237373735,21.97,0.0,0.0,0.0,0.06867000000000001,0.34335000000000004,9.89829
242424240,21.97,0.0,0.0,0.0,0.06867000000000001,0.34335000000000004,9.908100000000001
247474745,21.97,0.0,0.0,0.0,0.04905,0.34335000000000004,9.85905
252525250,21.97,0.0,0.0,0.0,0.07848000000000001,0.35316,9.87867
257575755,21.97,0.0,0.0,0.0,0.08829,0.33354000000000006,9.87867
262626260,21.97,0.0,0.0,0.0,0.039240000000000004,0.32373,9.87867
267676765,21.97,0.0,0.0,0.0,0.04905,0.33354000000000006,9.87867
272727270,21.97,0.0,0.0,0.0,0.05886,0.34335000000000004,9.92772
277777775,21.97,0.0,0.0,0.0,0.05886,0.30411,9.908100000000001
282828280,21.97,0.0,0.0,0.0,0.07848000000000001,0.33354000000000006,9.888480000000001
287878785,21.97,0.0,0.0,0.0,0.07848000000000001,0.36297,9.85905
292929290,21.97,0.0,0.0,0.0,0.08829,0.32373,9.888480000000001
297979795,21.97,0.0,0.0,0.0,0.05886,0.32373,9.888480000000001
303030300,21.97,0.0,0.0,0.0,0.05886,0.30411,9.908100000000001
308080805,21.97,0.0,0.0,0.0,0.039240000000000004,0.33354000000000006,9.91791
313131310,21.97,0.0,0.0,0.0,0.05886,0.32373,9.888480000000001
318181815,21.97,0.0,0.0,0.0,0.05886,0.30411,9.91791
323232320,21.97,0.0,0.0,0.0,0.039240000000000004,0.32373,9.888480000000001
328282825,21.97,0.0,0.0,0.0,0.07848000000000001,0.32373,9.91791
333333330,21.97,0.0,0.0,0.0,0.07848000000000001,0.35316,9.888480000000001
338383835,21.97,0.0,0.0,0.0,0.07848000000000001,0.34335000000000004,9.908100000000001
343434340,21.97,0.0,0.0,0.0,0.07848000000000001,0.33354000000000006,9.87867
348484845,21.97,0.0,0.0,0.0,0.05886,0.31392000000000003,9.89829
353535350,21.97,0.0,0.0,0.0,0.04905,0.33354000000000006,9.888480000000001
358585855,21.97,0.0,0.0,0.0,0.05886,0.35316,9.91791
363636360,21.97,0.0,0.0,0.0,0.06867000000000001,0.33354000000000006,9.87867
368686865,21.97,0.0,0.0,0.0,0.06867000000000001,0.35316,9.87867
373737370,21.97,0.0,0.0,0.0,0.07848000000000001,0.35316,9.888480000000001
378787875,21.97,0.0,0.0,0.0,0.05886,0.33354000000000006,9.87867
383838380,21.97,0.0,0.0,0.0,0.06867000000000001,0.33354000000000006,9.888480000000001
388888885,21.97,0.0,0.0,0.0,0.04905,0.32373,9.908100000000001
393939390,21.97,0.0,0.0,0.0,0.06867000000000001,0.32373,9.908100000000001
398989895,21.97,0.0,0.0,0.0,0.08829,0.30411,9.89829
404040400,21.97,0.0,0.0,0.0,0.039240000000000004,0.34335000000000004,9.908100000000001
409090905,21.97,0.0,0.0,0.0,0.06867000000000001,0.32373,9.87867
414141410,21.97,0.0,0.0,0.0,0.04905,0.34335000000000004,9.87867
419191915,21.97,0.0,0.0,0.0,0.07848000000000001,0.36297,9.86886
424242420,21.97,0.0,0.0,0.0,0.08829,0.33354000000000006,9.89829
429292925,21.97,0.0,0.0,0.0,0.06867000000000001,0.32373,9.87867
434343430,21.97,0.0,0.0,0.0,0.05886,0.32373,9.908100000000001
439393935,21.97,0.0,0.0,0.0,0.07848000000000001,0.32373,9.89829
444444440,21.97,0.0,0.0,0.0,0.07848000000000001,0.31392000000000003,9.87867
449494945,21.97,0.0,0.0,0.0,0.05886,0.34335000000000004,9.87867
454545450,21.97,0.0,0.0,0.0,0.04905,0.33354000000000006,9.87867
459595955,21.97,0.0,0.0,0.0,0.05886,0.33354000000000006,9.888480000000001
464646460,21.97,0.0,0.0,0.0,0.08829,0.33354000000000006,9.84924
469696965,21.97,0.0,0.0,0.0,0.07848000000000001,0.2943,9.87867
474747470,21.97,0.0,0.0,0.0,0.04905,0.31392000000000003,9.888480000000001
479797975,21.97,0.0,0.0,0.0,0.07848000000000001,0.30411,9.87867
484848480,21.97,0.0,0.0,0.0,0.05886,0.33354000000000006,9.89829
489898985,21.97,0.0,0.0,0.0,0.07848000000000001,0.33354000000000006,9.89829
494949490,21.97,0.0,0.0,0.0,0.05886,0.33354000000000006,9.87867
499999995,21.97,0.0,0.0,0.0,0.08829,0.36297,9.888480000000001
505050500,21.97,0.0,0.0,0.0,0.05886,0.31392000000000003,9.89829
510101005,21.97,0.0,0.0,0.0,0.06867000000000001,0.37278,9.888480000000001
515151510,21.97,0.0,0.0,0.0,0.08829,0.33354000000000006,9.888480000000001
520202015,21.97,0.0,0.0,0.0,0.08829,0.32373,9.908100000000001
525252520,21.97,0.0,0.0,0.0,0.06867000000000001,0.32373,9.908100000000001
530303025,21.97,0.0,0.0,0.0,0.06867000000000001,0.32373,9.908100000000001
535353530,21.97,0.0,0.0,0.0,0.05886,0.34335000000000004,9.87867
540404035,21.97,0.0,0.0,0.0,0.06867000000000001,0.34335000000000004,9.86886
545454540,21.97,0.0,0.0,0.0,0.07848000000000001,0.32373,9.86886
550505045,21.97,0.0,0.0,0.0,0.06867000000000001,0.31392000000000003,9.888480000000001
555555550,21.97,0.0,0.0,0.0,0.06867000000000001,0.32373,9.888480000000001
560606055,21.97,0.0,0.0,0.0,0.06867000000000001,0.32373,9.87867
565656560,21.97,0.0,0.0,0.0,0.06867000000000001,0.35316,9.888480000000001
570707065,21.97,0.0,0.0,0.0,0.07848000000000001,0.32373,9.908100000000001
575757570,21.97,0.0,0.0,0.0,0.06867000000000001,0.31392000000000003,9.87867
580808075,21.97,0.0,0.0,0.0,0.08829,0.34335000000000004,9.89829
585858580,21.97,0.0,0.0,0.0,0.07848000000000001,0.35316,9.888480000000001
590909085,21.97,0.0,0.0,0.0,0.08829,0.32373,9.888480000000001
595959590,21.97,0.0,0.0,0.0,0.07848000000000001,0.32373,9.89829
601010095,21.97,0.0,0.0,0.0,0.06867000000000001,0.33354000000000006,9.908100000000001
606060600,21.97,0.0,0.0,0.0,0.06867000000000001,0.31392000000000003,9.89829
611111105,21.97,0.0,0.0,0.0,0.07848000000000001,0.30411,9.89829
616161610,21.97,0.0,0.0,0.0,0.06867000000000001,0.35316,9.888480000000001
621212115,21.97,0.0,0.0,0.0,0.06867000000000001,0.36297,9.87867
626262620,21.97,0.0,0.0,0.0,0.05886,0.33354000000000006,9.86886
631313125,21.97,0.0,0.0,0.0,0.04905,0.33354000000000006,9.908100000000001
636363630,21.97,0.0,0.0,0.0,0.06867000000000001,0.2943,9.888480000000001
641414135,21.97,0.0,0.0,0.0,0.05886,0.31392000000000003,9.89829
646464640,21.97,0.0,0.0,0.0,0.07848000000000001,0.32373,9.89829
651515145,21.97,0.0,0.0,0.0,0.06867000000000001,0.34335000000000004,9.89829
656565650,21.97,0.0,0.0,0.0,0.06867000000000001,0.32373,9.888480000000001
661616155,21.97,0.0,0.0,0.0,0.06867000000000001,0.35316,9.85905
666666660,21.97,0.0,0.0,0.0,0.04905,0.33354000000000006,9.86886
671717165,21.97,0.0,0.0,0.0,0.07848000000000001,0.32373,9.888480000000001
676767670,21.97,0.0,0.0,0.0,0.06867000000000001,0.33354000000000006,9.888480000000001
681818175,21.97,0.0,0.0,0.0,0.05886,0.2943,9.908100000000001
686868680,21.97,0.0,0.0,0.0,0.07848000000000001,0.34335000000000004,9.89829
691919185,21.97,0.0,0.0,0.0,0.06867000000000001,0.34335000000000004,9.908100000000001
696969690,21.97,0.0,0.0,0.0,0.07848000000000001,0.33354000000000006,9.87867
702020195,21.97,0.0,0.0,0.0,0.06867000000000001,0.32373,9.89829
707070700,21.97,0.0,0.0,0.0,0.08829,0.2943,9.86886
712121205,21.97,0.0,0.0,0.0,0.06867000000000001,0.32373,9.87867
717171710,21.97,0.0,0.0,0.0,0.06867000000000001,0.32373,9.888480000000001
722222215,21.97,0.0,0.0,0.0,0.05886,0.32373,9.91791
727272720,21.97,0.0,0.0,0.0,0.05886,0.32373,9.89829
732323225,21.97,0.0,0.0,0.0,0.039240000000000004,0.30411,9.908100000000001
737373730,21.97,0.0,0.0,0.0,0.05886,0.33354000000000006,9.86886
742424235,21.97,0.0,0.0,0.0,0.06867000000000001,0.33354000000000006,9.888480000000001
747474740,21.97,0.0,0.0,0.0,0.07848000000000001,0.32373,9.89829
752525245,21.97,0.0,0.0,0.0,0.06867000000000001,0.33354000000000006,9.85905
757575750,21.97,0.0,0.0,0.0,0.07848000000000001,0.32373,9.86886
762626255,21.97,0.0,0.0,0.0,0.07848000000000001,0.30411,9.89829
767676760,21.97,0.0,0.0,0.0,0.05886,0.33354000000000006,9.888480000000001
772727265,21.97,0.0,0.0,0.0,0.06867000000000001,0.33354000000000006,9.908100000000001
777777770,21.97,0.0,0.0,0.0,0.05886,0.31392000000000003,9.888480000000001
782828275,21.97,0.0,0.0,0.0,0.06867000000000001,0.33354000000000006,9.86886
787878780,21.97,0.0,0.0,0.0,0.06867000000000001,0.33354000000000006,9.888480000000001
792929285,21.97,0.0,0.0,0.0,0.0981,0.35316,9.908100000000001
797979790,21.97,0.0,0.0,0.0,0.07848000000000001,0.34335000000000004,9.888480000000001
803030295,21.97,0.0,0.0,0.0,0.07848000000000001,0.35316,9.87867
808080800,21.97,0.0,0.0,0.0,0.08829,0.32373,9.89829
813131305,21.97,0.0,0.0,0.0,0.04905,0.30411,9.89829
818181810,21.97,0.0,0.0,0.0,0.06867000000000001,0.33354000000000006,9.888480000000001
823232315,21.97,0.0,0.0,0.0,0.08829,0.35316,9.87867
828282820,21.97,0.0,0.0,0.0,0.06867000000000001,0.37278,9.908100000000001
833333325,21.97,0.0,0.0,0.0,0.05886,0.34335000000000004,9.89829
838383830,21.97,0.0,0.0,0.0,0.06867000000000001,0.35316,9.89829
843434335,21.97,0.0,0.0,0.0,0.04905,0.31392000000000003,9.86886
848484840,21.97,0.0,0.0,0.0,0.05886,0.33354000000000006,9.89829
853535345,21.97,0.0,0.0,0.0,0.05886,0.2943,9.937529999999999
858585850,21.97,0.0,0.0,0.0,0.06867000000000001,0.35316,9.908100000000001
863636355,21.97,0.0,0.0,0.0,0.05886,0.34335000000000004,9.87867
868686860,21.97,0.0,0.0,0.0,0.07848000000000001,0.32373,9.888480000000001
873737365,21.97,0.0,0.0,0.0,0.039240000000000004,0.32373,9.86886
878787870,21.97,0.0,0.0,0.0,0.07848000000000001,0.35316,9.89829
883838375,21.97,0.0,0.0,0.0,0.06867000000000001,0.31392000000000003,9.89829
888888880,21.97,0.0,0.0,0.0,0.07848000000000001,0.32373,9.888480000000001
893939385,21.97,0.0,0.0,0.0,0.05886,0.32373,9.89829
898989890,21.97,0.0,0.0,0.0,0.05886,0.33354000000000006,9.888480000000001
904040395,21.97,0.0,0.0,0.0,0.04905,0.34335000000000004,9.87867
909090900,21.97,0.0,0.0,0.0,0.07848000000000001,0.32373,9.888480000000001
914141405,21.97,0.0,0.0,0.0,0.08829,0.31392000000000003,9.888480000000001
919191910,21.97,0.0,0.0,0.0,0.05886,0.33354000000000006,9.89829
924242415,21.97,0.0,0.0,0.0,0.07848000000000001,0.34335000000000004,9.908100000000001
929292920,21.97,0.0,0.0,0.0,0.07848000000000001,0.33354000000000006,9.908100000000001
934343425,21.97,0.0,0.0,0.0,0.06867000000000001,0.32373,9.91791
939393930,21.97,0.0,0.0,0.0,0.05886,0.33354000000000006,9.888480000000001
944444435,21.97,0.0,0.0,0.0,0.06867000000000001,0.34335000000000004,9.888480000000001
949494940,21.97,0.0,0.0,0.0,0.07848000000000001,0.35316,9.84924
954545445,21.97,0.0,0.0,0.0,0.07848000000000001,0.33354000000000006,9.85905
959595950,21.97,0.0,0.0,0.0,0.05886,0.33354000000000006,9.87867
964646455,21.97,0.0,0.0,0.0,0.05886,0.31392000000000003,9.888480000000001
969696960,21.97,0.0,0.0,0.0,0.05886,0.31392000000000003,9.888480000000001
974747465,21.97,0.0,0.0,0.0,0.08829,0.32373,9.937529999999999
979797970,21.97,0.0,0.0,0.0,0.07848000000000001,0.31392000000000003,9.87867
984848475,21.97,0.0,0.0,0.0,0.06867000000000001,0.36297,9.87867
989898980,21.97,0.0,0.0,0.0,0.06867000000000001,0.34335000000000004,9.87867
994949485,21.97,0.0,0.0,0.0,0.04905,0.34335000000000004,9.86886
999999990,21.97,0.0,0.0,0.0,0.04905,0.31392000000000003,9.87867
1005050495,21.97,0.0,0.0,0.0,0.039240000000000004,0.31392000000000003,9.86886
1010101000,21.97,0.0,0.0,0.0,0.07848000000000001,0.30411,9.87867
1015151505,21.97,0.0,0.0,0.0,0.05886,0.34335000000000004,9.91791
1020202010,21.97,0.0,0.0,0.0,0.05886,0.33354000000000006,9.908100000000001
1025252515,21.97,0.0,0.0,0.0,0.05886,0.32373,9.888480000000001
1030303020,21.97,0.0,0.0,0.0,0.08829,0.32373,9.87867
1035353525,21.97,0.0,0.0,0.0,0.05886,0.34335000000000004,9.86886
1040404030,21.97,0.0,0.0,0.0,0.07848000000000001,0.34335000000000004,9.87867
1045454535,21.97,0.0,0.0,0.0,0.04905,0.34335000000000004,9.888480000000001
1050505040,21.97,0.0,0.0,0.0,0.06867000000000001,0.33354000000000006,9.87867
1055555545,21.97,0.0,0.0,0.0,0.05886,0.31392000000000003,9.908100000000001
1060606050,21.97,0.0,0.0,0.0,0.05886,0.31392000000000003,9.89829
1065656555,21.97,0.0,0.0,0.0,0.04905,0.35316,9.86886
1070707060,21.97,0.0,0.0,0.0,0.04905,0.33354000000000006,9.87867
1075757565,21.97,0.0,0.0,0.0,0.06867000000000001,0.31392000000000003,9.888480000000001
1080808070,21.97,0.0,0.0,0.0,0.02943,0.34335000000000004,9.86886
1085858575,21.97,0.0,0.0,0.0,0.06867000000000001,0.30411,9.888480000000001
1090909080,21.97,0.0,0.0,0.0,0.06867000000000001,0.33354000000000006,9.86886
1095959585,21.97,0.0,0.0,0.0,0.05886,0.31392000000000003,9.87867
1101010090,21.97,0.0,0.0,0.0,0.04905,0.34335000000000004,9.89829
1106060595,21.97,0.0,0.0,0.0,0.05886,0.34335000000000004,9.888480000000001
1111111100,21.97,0.0,0.0,0.0,0.06867000000000001,0.36297,9.85905
1116161605,21.97,0.0,0.0,0.0,0.08829,0.35316,9.87867
1121212110,21.97,0.0,0.0,0.0,0.05886,0.34335000000000004,9.89829
1126262615,21.97,0.0,0.0,0.0,0.0981,0.32373,9.888480000000001
1131313120,21.97,0.0,0.0,0.0,0.08829,0.33354000000000006,9.888480000000001
1136363625,21.97,0.0,0.0,0.0,0.07848000000000001,0.32373,9.86886
1141414130,21.97,0.0,0.0,0.0,0.07848000000000001,0.32373,9.87867
1146464635,21.97,0.0,0.0,0.0,0.04905,0.33354000000000006,9.888480000000001
1151515140,21.97,0.0,0.0,0.0,0.04905,0.34335000000000004,9.85905
1156565645,21.97,0.0,0.0,0.0,0.06867000000000001,0.34335000000000004,9.84924
1161616150,21.97,0.0,0.0,0.0,0.07848000000000001,0.34335000000000004,9.89829
1166666655,21.97,0.0,0.0,0.0,0.06867000000000001,0.31392000000000003,9.89829
1171717160,21.97,0.0,0.0,0.0,0.06867000000000001,0.33354000000000006,9.91791
1176767665,21.97,0.0,0.0,0.0,0.08829,0.33354000000000006,9.908100000000001
1181818170,21.97,0.0,0.0,0.0,0.06867000000000001,0.33354000000000006,9.89829
1186868675,21.97,0.0,0.0,0.0,0.07848000000000001,0.34335000000000004,9.87867
1191919180,21.97,0.0,0.0,0.0,0.07848000000000001,0.33354000000000006,9.89829
1196969685,21.97,0.0,0.0,0.0,0.06867000000000001,0.34335000000000004,9.888480000000001
1202020190,21.97,0.0,0.0,0.0,0.05886,0.33354000000000006,9.87867
1207070695,21.97,0.0,0.0,0.0,0.06867000000000001,0.34335000000000004,9.888480000000001
1212121200,21.97,0.0,0.0,0.0,0.06867000000000001,0.32373,9.89829
1217171705,21.97,0.0,0.0,0.0,0.0981,0.34335000000000004,9.89829
1222222210,21.97,0.0,0.0,0.0,0.04905,0.32373,9.89829
1227272715,21.97,0.0,0.0,0.0,0.06867000000000001,0.30411,9.86886
1232323220,21.97,0.0,0.0,0.0,0.05886,0.32373,9.888480000000001
1237373725,21.97,0.0,0.0,0.0,0.05886,0.32373,9.87867
1242424230,21.97,0.0,0.0,0.0,0.05886,0.31392000000000003,9.85905
1247474735,21.97,0.0,0.0,0.0,0.0981,0.28449,9.89829
1252525240,21.97,0.0,0.0,0.0,0.06867000000000001,0.32373,9.87867
1257575745,21.97,0.0,0.0,0.0,0.06867000000000001,0.2943,9.87867
1262626250,21.97,0.0,0.0,0.0,0.08829,0.31392000000000003,9.888480000000001
1267676755,21.97,0.0,0.0,0.0,0.06867000000000001,0.33354000000000006,9.89829
1272727260,21.97,0.0,0.0,0.0,0.039240000000000004,0.35316,9.888480000000001
1277777765,21.97,0.0,0.0,0.0,0.06867000000000001,0.36297,9.888480000000001
1282828270,21.97,0.0,0.0,0.0,0.04905,0.32373,9.87867
1287878775,21.97,0.0,0.0,0.0,0.07848000000000001,0.31392000000000003,9.888480000000001
1292929280,21.97,0.0,0.0,0.0,0.04905,0.33354000000000006,9.888480000000001
1297979785,21.97,0.0,0.0,0.0,0.07848000000000001,0.34335000000000004,9.89829
1303030290,21.97,0.0,0.0,0.0,0.039240000000000004,0.32373,9.91791
1308080795,21.97,0.0,0.0,0.0,0.05886,0.33354000000000006,9.89829
1313131300,21.97,0.0,0.0,0.0,0.0981,0.33354000000000006,9.87867
1318181805,21.97,0.0,0.0,0.0,0.07848000000000001,0.32373,9.888480000000001
1323232310,21.97,0.0,0.0,0.0,0.06867000000000001,0.33354000000000006,9.888480000000001
1328282815,21.97,0.0,0.0,0.0,0.08829,0.30411,9.89829
1333333320,21.97,0.0,0.0,0.0,0.05886,0.30411,9.908100000000001
1338383825,21.97,0.0,0.0,0.0,0.06867000000000001,0.34335000000000004,9.91791
1343434330,21.97,0.0,0.0,0.0,0.05886,0.33354000000000006,9.89829
1348484835,21.97,0.0,0.0,0.0,0.08829,0.34335000000000004,9.87867
1353535340,21.97,0.0,0.0,0.0,0.039240000000000004,0.34335000000000004,9.89829
1358585845,21.97,0.0,0.0,0.0,0.08829,0.34335000000000004,9.888480000000001
1363636350,21.97,0.0,0.0,0.0,0.0981,0.33354000000000006,9.85905
1368686855,21.97,0.0,0.0,0.0,0.06867000000000001,0.31392000000000003,9.89829
1373737360,21.97,0.0,0.0,0.0,0.06867000000000001,0.32373,9.888480000000001
1378787865,21.97,0.0,0.0,0.0,0.04905,0.32373,9.908100000000001
1383838370,21.97,0.0,0.0,0.0,0.04905,0.33354000000000006,9.85905
1388888875,21.97,0.0,0.0,0.0,0.07848000000000001,0.32373,9.87867
1393939380,21.97,0.0,0.0,0.0,0.07848000000000001,0.35316,9.87867
1398989885,21.97,0.0,0.0,0.0,0.05886,0.34335000000000004,9.86886
1404040390,21.97,0.0,0.0,0.0,0.06867000000000001,0.33354000000000006,9.91791
1409090895,21.97,0.0,0.0,0.0,0.05886,0.32373,9.86886
1414141400,21.97,0.0,0.0,0.0,0.08829,0.32373,9.908100000000001
1419191905,21.97,0.0,0.0,0.0,0.06867000000000001,0.32373,9.86886
1424242410,21.97,0.0,0.0,0.0,0.07848000000000001,0.34335000000000004,9.89829
1429292915,21.97,0.0,0.0,0.0,0.05886,0.32373,9.888480000000001
1434343420,21.97,0.0,0.0,0.0,0.05886,0.34335000000000004,9.86886
1439393925,21.97,0.0,0.0,0.0,0.039240000000000004,0.35316,9.85905
1444444430,21.97,0.0,0.0,0.0,0.06867000000000001,0.34335000000000004,9.85905
1449494935,21.97,0.0,0.0,0.0,0.06867000000000001,0.31392000000000003,9.888480000000001
1454545440,21.97,0.0,0.0,0.0,0.06867000000000001,0.33354000000000006,9.888480000000001
1459595945,21.97,0.0,0.0,0.0,0.07848000000000001,0.32373,9.86886
1464646450,21.97,0.0,0.0,0.0,0.08829,0.32373,9.87867
1469696955,21.97,0.0,0.0,0.0,0.06867000000000001,0.33354000000000006,9.908100000000001
1474747460,21.97,0.0,0.0,0.0,0.06867000000000001,0.33354000000000006,9.85905
1479797965,21.97,0.0,0.0,0.0,0.06867000000000001,0.35316,9.87867
1484848470,21.97,0.0,0.0,0.0,0.06867000000000001,0.32373,9.888480000000001
1489898975,21.97,0.0,0.0,0.0,0.04905,0.34335000000000004,9.86886
1494949480,21.97,0.0,0.0,0.0,0.0981,0.32373,9.89829
1499999985,21.97,0.0,0.0,0.0,0.05886,0.35316,9.91791
1505050490,21.97,0.0,0.0,0.0,0.08829,0.31392000000000003,9.89829
1510100995,21.97,0.0,0.0,0.0,0.04905,0.32373,9.908100000000001
1515151500,21.97,0.0,0.0,0.0,0.07848000000000001,0.33354000000000006,9.888480000000001
1520202005,21.97,0.0,0.0,0.0,0.04905,0.35316,9.87867
1525252510,21.97,0.0,0.0,0.0,0.039240000000000004,0.35316,9.87867
1530303015,21.97,0.0,0.0,0.0,0.04905,0.33354000000000006,9.87867
1535353520,21.97,0.0,0.0,0.0,0.06867000000000001,0.33354000000000006,9.888480000000001
1540404025,21.97,0.0,0.0,0.0,0.05886,0.32373,9.908100000000001
1545454530,21.97,0.0,0.0,0.0,0.05886,0.34335000000000004,9.85905
1550505035,21.97,0.0,0.0,0.0,0.05886,0.33354000000000006,9.87867
1555555540,21.97,0.0,0.0,0.0,0.07848000000000001,0.32373,9.86886
1560606045,21.97,0.0,0.0,0.0,0.04905,0.33354000000000006,9.888480000000001
1565656550,21.97,0.0,0.0,0.0,0.06867000000000001,0.31392000000000003,9.87867
1570707055,21.97,0.0,0.0,0.0,0.07848000000000001,0.30411,9.908100000000001
1575757560,21.97,0.0,0.0,0.0,0.05886,0.34335000000000004,9.888480000000001
1580808065,21.97,0.0,0.0,0.0,0.08829,0.34335000000000004,9.89829
1585858570,21.97,0.0,0.0,0.0,0.06867000000000001,0.31392000000000003,9.87867
1590909075,21.97,0.0,0.0,0.0,0.07848000000000001,0.33354000000000006,9.89829
1595959580,21.97,0.0,0.0,0.0,0.07848000000000001,0.36297,9.86886
1601010085,21.97,0.0,0.0,0.0,0.07848000000000001,0.34335000000000004,9.89829
1606060590,21.97,0.0,0.0,0.0,0.07848000000000001,0.33354000000000006,9.87867
1611111095,21.97,0.0,0.0,0.0,0.08829,0.32373,9.87867
1616161600,21.97,0.0,0.0,0.0,0.05886,0.31392000000000003,9.87867
1621212105,21.97,0.0,0.0,0.0,0.08829,0.34335000000000004,9.87867
1626262610,21.97,0.0,0.0,0.0,0.05886,0.34335000000000004,9.908100000000001
1631313115,21.97,0.0,0.0,0.0,0.05886,0.34335000000000004,9.86886
1636363620,21.97,0.0,0.0,0.0,0.06867000000000001,0.34335000000000004,9.87867
1641414125,21.97,0.0,0.0,0.0,0.08829,0.33354000000000006,9.908100000000001
1646464630,21.97,0.0,0.0,0.0,0.05886,0.34335000000000004,9.86886
1651515135,21.97,0.0,0.0,0.0,0.07848000000000001,0.32373,9.908100000000001
1656565640,21.97,0.0,0.0,0.0,0.04905,0.32373,9.888480000000001
1661616145,21.97,0.0,0.0,0.0,0.06867000000000001,0.30411,9.86886
1666666650,21.97,0.0,0.0,0.0,0.05886,0.33354000000000006,9.908100000000001
1671717155,21.97,0.0,0.0,0.0,0.07848000000000001,0.34335000000000004,9.89829
1676767660,21.97,0.0,0.0,0.0,0.07848000000000001,0.32373,9.888480000000001
1681818165,21.97,0.0,0.0,0.0,0.06867000000000001,0.34335000000000004,9.908100000000001
1686868670,21.97,0.0,0.0,0.0,0.04905,0.34335000000000004,9.89829
1691919175,21.97,0.0,0.0,0.0,0.08829,0.33354000000000006,9.888480000000001
1696969680,21.97,0.0,0.0,0.0,0.07848000000000001,0.35316,9.89829
1702020185,21.97,0.0,0.0,0.0,0.08829,0.31392000000000003,9.86886
1707070690,21.97,0.0,0.0,0.0,0.05886,0.34335000000000004,9.908100000000001
1712121195,21.97,0.0,0.0,0.0,0.08829,0.33354000000000006,9.92772
1717171700,21.97,0.0,0.0,0.0,0.06867000000000001,0.31392000000000003,9.888480000000001
1722222205,21.97,0.0,0.0,0.0,0.05886,0.31392000000000003,9.908100000000001
1727272710,21.97,0.0,0.0,0.0,0.07848000000000001,0.33354000000000006,9.89829
1732323215,21.97,0.0,0.0,0.0,0.04905,0.31392000000000003,9.85905
1737373720,21.97,0.0,0.0,0.0,0.05886,0.31392000000000003,9.888480000000001
1742424225,21.97,0.0,0.0,0.0,0.05886,0.31392000000000003,9.87867
1747474730,21.97,0.0,0.0,0.0,0.06867000000000001,0.33354000000000006,9.908100000000001
1752525235,21.97,0.0,0.0,0.0,0.06867000000000001,0.31392000000000003,9.89829
1757575740,21.97,0.0,0.0,0.0,0.07848000000000001,0.32373,9.89829
1762626245,21.97,0.0,0.0,0.0,0.07848000000000001,0.35316,9.86886
1767676750,21.97,0.0,0.0,0.0,0.05886,0.35316,9.86886
1772727255,21.97,0.0,0.0,0.0,0.08829,0.34335000000000004,9.89829
1777777760,21.97,0.0,0.0,0.0,0.07848000000000001,0.33354000000000006,9.87867
1782828265,21.97,0.0,0.0,0.0,0.02943,0.33354000000000006,9.89829
1787878770,21.97,0.0,0.0,0.0,0.06867000000000001,0.33354000000000006,9.86886
1792929275,21.97,0.0,0.0,0.0,0.07848000000000001,0.33354000000000006,9.89829
1797979780,21.97,0.0,0.0,0.0,0.07848000000000001,0.34335000000000004,9.908100000000001
1803030285,21.97,0.0,0.0,0.0,0.05886,0.31392000000000003,9.89829
1808080790,21.97,0.0,0.0,0.0,0.06867000000000001,0.34335000000000004,9.888480000000001
1813131295,21.97,0.0,0.0,0.0,0.07848000000000001,0.31392000000000003,9.85905
1818181800,21.97,0.0,0.0,0.0,0.07848000000000001,0.32373,9.86886
1823232305,21.97,0.0,0.0,0.0,0.05886,0.34335000000000004,9.908100000000001
1828282810,21.97,0.0,0.0,0.0,0.10791,0.37278,9.87867
1833333315,21.97,0.0,0.0,0.0,0.07848000000000001,0.32373,9.888480000000001
1838383820,21.97,0.0,0.0,0.0,0.05886,0.32373,9.908100000000001
1843434325,21.97,0.0,0.0,0.0,0.08829,0.35316,9.888480000000001
1848484830,21.97,0.0,0.0,0.0,0.06867000000000001,0.37278,9.888480000000001
1853535335,21.97,0.0,0.0,0.0,0.05886,0.32373,9.87867
1858585840,21.97,0.0,0.0,0.0,0.06867000000000001,0.32373,9.86886
1863636345,21.97,0.0,0.0,0.0,0.06867000000000001,0.32373,9.888480000000001
1868686850,21.97,0.0,0.0,0.0,0.08829,0.33354000000000006,9.89829
1873737355,21.97,0.0,0.0,0.0,0.05886,0.33354000000000006,9.89829
1878787860,21.97,0.0,0.0,0.0,0.05886,0.34335000000000004,9.888480000000001
1883838365,21.97,0.0,0.0,0.0,0.08829,0.32373,9.86886
1888888870,21.97,0.0,0.0,0.0,0.06867000000000001,0.35316,9.86886
1893939375,21.97,0.0,0.0,0.0,0.05886,0.31392000000000003,9.87867
1898989880,21.97,0.0,0.0,0.0,0.05886,0.30411,9.86886
1904040385,21.97,0.0,0.0,0.0,0.07848000000000001,0.33354000000000006,9.89829
1909090890,21.97,0.0,0.0,0.0,0.06867000000000001,0.28449,9.888480000000001
1914141395,21.97,0.0,0.0,0.0,0.06867000000000001,0.31392000000000003,9.89829
1919191900,21.97,0.0,0.0,0.0,0.06867000000000001,0.33354000000000006,9.908100000000001
1924242405,21.97,0.0,0.0,0.0,0.05886,0.33354000000000006,9.888480000000001
1929292910,21.97,0.0,0.0,0.0,0.08829,0.33354000000000006,9.888480000000001
1934343415,21.97,0.0,0.0,0.0,0.05886,0.32373,9.888480000000001
1939393920,21.97,0.0,0.0,0.0,0.05886,0.35316,9.87867
1944444425,21.97,0.0,0.0,0.0,0.04905,0.33354000000000006,9.908100000000001
1949494930,21.97,0.0,0.0,0.0,0.05886,0.32373,9.888480000000001
1954545435,21.97,0.0,0.0,0.0,0.06867000000000001,0.32373,9.86886
1959595940,21.97,0.0,0.0,0.0,0.06867000000000001,0.30411,9.92772
1964646445,21.97,0.0,0.0,0.0,0.06867000000000001,0.33354000000000006,9.87867
1969696950,21.97,0.0,0.0,0.0,0.06867000000000001,0.34335000000000004,9.888480000000001
1974747455,21.97,0.0,0.0,0.0,0.06867000000000001,0.35316,9.86886
1979797960,21.97,0.0,0.0,0.0,0.039240000000000004,0.33354000000000006,9.86886
1984848465,21.97,0.0,0.0,0.0,0.06867000000000001,0.31392000000000003,9.908100000000001
1989898970,21.97,0.0,0.0,0.0,0.04905,0.32373,9.89829
1994949475,21.97,0.0,0.0,0.0,0.04905,0.32373,9.89829
1999999980,21.97,0.0,0.0,0.0,0.06867000000000001,0.33354000000000006,9.87867
2005050485,21.97,0.0,0.0,0.0,0.08829,0.32373,9.908100000000001
2010100990,21.97,0.0,0.0,0.0,0.05886,0.32373,9.908100000000001
2015151495,21.97,0.0,0.0,0.0,0.10791,0.36297,9.87867
2020202000,21.97,0.0,0.0,0.0,0.08829,0.34335000000000004,9.888480000000001
2025252505,21.97,0.0,0.0,0.0,0.05886,0.32373,9.888480000000001
2030303010,21.97,0.0,0.0,0.0,0.07848000000000001,0.30411,9.87867
2035353515,21.97,0.0,0.0,0.0,0.06867000000000001,0.36297,9.89829
2040404020,21.97,0.0,0.0,0.0,0.06867000000000001,0.32373,9.888480000000001
2045454525,21.97,0.0,0.0,0.0,0.05886,0.35316,9.87867
2050505030,21.97,0.0,0.0,0.0,0.06867000000000001,0.33354000000000006,9.85905
2055555535,21.97,0.0,0.0,0.0,0.04905,0.34335000000000004,9.87867
2060606040,21.97,0.0,0.0,0.0,0.06867000000000001,0.34335000000000004,9.84924
2065656545,21.97,0.0,0.0,0.0,0.07848000000000001,0.32373,9.85905
2070707050,21.97,0.0,0.0,0.0,0.08829,0.32373,9.888480000000001
2075757555,21.97,0.0,0.0,0.0,0.04905,0.31392000000000003,9.87867
2080808060,21.97,0.0,0.0,0.0,0.04905,0.33354000000000006,9.908100000000001
2085858565,21.97,0.0,0.0,0.0,0.06867000000000001,0.34335000000000004,9.87867
2090909070,21.97,0.0,0.0,0.0,0.07848000000000001,0.34335000000000004,9.89829
2095959575,21.97,0.0,0.0,0.0,0.04905,0.34335000000000004,9.85905
2101010080,21.97,0.0,0.0,0.0,0.08829,0.33354000000000006,9.888480000000001
2106060585,21.97,0.0,0.0,0.0,0.06867000000000001,0.34335000000000004,9.87867
2111111090,21.97,0.0,0.0,0.0,0.07848000000000001,0.32373,9.908100000000001
2116161595,21.97,0.0,0.0,0.0,0.05886,0.32373,9.89829
2121212100,21.97,0.0,0.0,0.0,0.06867000000000001,0.30411,9.91791
2126262605,21.97,0.0,0.0,0.0,0.07848000000000001,0.31392000000000003,9.86886
2131313110,21.97,0.0,0.0,0.0,0.05886,0.34335000000000004,9.86886
2136363615,21.97,0.0,0.0,0.0,0.06867000000000001,0.33354000000000006,9.888480000000001
2141414120,21.97,0.0,0.0,0.0,0.07848000000000001,0.34335000000000004,9.86886
2146464625,21.97,0.0,0.0,0.0,0.08829,0.33354000000000006,9.85905
2151515130,21.97,0.0,0.0,0.0,0.07848000000000001,0.33354000000000006,9.908100000000001
2156565635,21.97,0.0,0.0,0.0,0.06867000000000001,0.34335000000000004,9.87867
2161616140,21.97,0.0,0.0,0.0,0.05886,0.31392000000000003,9.89829
2166666645,21.97,0.0,0.0,0.0,0.05886,0.33354000000000006,9.89829
2171717150,21.97,0.0,0.0,0.0,0.05886,0.31392000000000003,9.87867
2176767655,21.97,0.0,0.0,0.0,0.07848000000000001,0.34335000000000004,9.85905
2181818160,21.97,0.0,0.0,0.0,0.05886,0.32373,9.86886
2186868665,21.97,0.0,0.0,0.0,0.08829,0.33354000000000006,9.908100000000001
2191919170,21.97,0.0,0.0,0.0,0.05886,0.32373,9.89829
2196969675,21.97,0.0,0.0,0.0,0.07848000000000001,0.32373,9.87867
2202020180,21.97,0.0,0.0,0.0,0.07848000000000001,0.34335000000000004,9.89829
2207070685,21.97,0.0,0.0,0.0,0.07848000000000001,0.32373,9.92772
2212121190,21.97,0.0,0.0,0.0,0.06867000000000001,0.34335000000000004,9.89829
2217171695,21.97,0.0,0.0,0.0,0.05886,0.32373,9.888480000000001
2222222200,21.97,0.0,0.0,0.0,0.07848000000000001,0.32373,9.86886
2227272705,21.97,0.0,0.0,0.0,0.039240000000000004,0.33354000000000006,9.87867
2232323210,21.97,0.0,0.0,0.0,0.10791,0.34335000000000004,9.908100000000001
2237373715,21.97,0.0,0.0,0.0,0.06867000000000001,0.34335000000000004,9.888480000000001
2242424220,21.97,0.0,0.0,0.0,0.06867000000000001,0.32373,9.888480000000001
2247474725,21.97,0.0,0.0,0.0,0.07848000000000001,0.31392000000000003,9.89829
2252525230,21.97,0.0,0.0,0.0,0.08829,0.35316,9.888480000000001
2257575735,21.97,0.0,0.0,0.0,0.08829,0.35316,9.888480000000001
2262626240,21.97,0.0,0.0,0.0,0.06867000000000001,0.33354000000000006,9.888480000000001
2267676745,21.97,0.0,0.0,0.0,0.06867000000000001,0.34335000000000004,9.888480000000001
2272727250,21.97,0.0,0.0,0.0,0.04905,0.33354000000000006,9.87867
2277777755,21.97,0.0,0.0,0.0,0.05886,0.31392000000000003,9.85905
2282828260,21.97,0.0,0.0,0.0,0.05886,0.32373,9.888480000000001
2287878765,21.97,0.0,0.0,0.0,0.07848000000000001,0.32373,9.87867
2292929270,21.97,0.0,0.0,0.0,0.08829,0.34335000000000004,9.888480000000001
2297979775,21.97,0.0,0.0,0.0,0.06867000000000001,0.34335000000000004,9.89829
2303030280,21.97,0.0,0.0,0.0,0.05886,0.33354000000000006,9.87867
2308080785,21.97,0.0,0.0,0.0,0.08829,0.33354000000000006,9.87867
2313131290,21.97,0.0,0.0,0.0,0.04905,0.31392000000000003,9.89829
2318181795,21.97,0.0,0.0,0.0,0.06867000000000001,0.37278,9.89829
2323232300,21.97,0.0,0.0,0.0,0.08829,0.32373,9.89829
2328282805,21.97,0.0,0.0,0.0,0.06867000000000001,0.34335000000000004,9.91791
2333333310,21.97,0.0,0.0,0.0,0.06867000000000001,0.33354000000000006,9.87867
2338383815,21.97,0.0,0.0,0.0,0.05886,0.34335000000000004,9.908100000000001
2343434320,21.97,0.0,0.0,0.0,0.06867000000000001,0.33354000000000006,9.87867
2348484825,21.97,0.0,0.0,0.0,0.08829,0.34335000000000004,9.888480000000001
2353535330,21.97,0.0,0.0,0.0,0.05886,0.34335000000000004,9.85905
2358585835,21.97,0.0,0.0,0.0,0.04905,0.32373,9.89829
2363636340,21.97,0.0,0.0,0.0,0.039240000000000004,0.32373,9.84924
2368686845,21.97,0.0,0.0,0.0,0.04905,0.32373,9.86886
2373737350,21.97,0.0,0.0,0.0,0.06867000000000001,0.34335000000000004,9.87867
2378787855,21.97,0.0,0.0,0.0,0.08829,0.33354000000000006,9.86886
2383838360,21.97,0.0,0.0,0.0,0.07848000000000001,0.32373,9.888480000000001
2388888865,21.97,0.0,0.0,0.0,0.0981,0.33354000000000006,9.89829
2393939370,21.97,0.0,0.0,0.0,0.07848000000000001,0.32373,9.89829
2398989875,21.97,0.0,0.0,0.0,0.07848000000000001,0.32373,9.888480000000001
2404040380,21.97,0.0,0.0,0.0,0.07848000000000001,0.34335000000000004,9.87867
2409090885,21.97,0.0,0.0,0.0,0.06867000000000001,0.31392000000000003,9.87867
2414141390,21.97,0.0,0.0,0.0,0.08829,0.31392000000000003,9.86886
2419191895,21.97,0.0,0.0,0.0,0.04905,0.35316,9.908100000000001
2424242400,21.97,0.0,0.0,0.0,0.05886,0.37278,9.85905
2429292905,21.97,0.0,0.0,0.0,0.0981,0.30411,9.888480000000001
2434343410,21.97,0.0,0.0,0.0,0.05886,0.34335000000000004,9.87867
2439393915,21.97,0.0,0.0,0.0,0.06867000000000001,0.30411,9.87867
2444444420,21.97,0.0,0.0,0.0,0.08829,0.31392000000000003,9.87867
2449494925,21.97,0.0,0.0,0.0,0.05886,0.30411,9.92772
2454545430,21.97,0.0,0.0,0.0,0.07848000000000001,0.34335000000000004,9.87867
2459595935,21.97,0.0,0.0,0.0,0.06867000000000001,0.33354000000000006,9.89829
2464646440,21.97,0.0,0.0,0.0,0.05886,0.35316,9.87867
2469696945,21.97,0.0,0.0,0.0,0.07848000000000001,0.32373,9.89829
2474747450,21.97,0.0,0.0,0.0,0.06867000000000001,0.34335000000000004,9.888480000000001
2479797955,21.97,0.0,0.0,0.0,0.05886,0.34335000000000004,9.87867
2484848460,21.97,0.0,0.0,0.0,0.07848000000000001,0.32373,9.87867
2489898965,21.97,0.0,0.0,0.0,0.06867000000000001,0.33354000000000006,9.87867
2494949470,21.97,0.0,0.0,0.0,0.039240000000000004,0.32373,9.888480000000001
2499999975,21.97,0.0,0.0,0.0,0.05886,0.34335000000000004,9.888480000000001
2505050480,21.97,0.0,0.0,0.0,0.05886,0.34335000000000004,9.87867
2510100985,21.97,0.0,0.0,0.0,0.05886,0.32373,9.888480000000001
2515151490,21.97,0.0,0.0,0.0,0.05886,0.32373,9.888480000000001
2520201995,21.97,0.0,0.0,0.0,0.06867000000000001,0.33354000000000006,9.888480000000001
2525252500,21.97,0.0,0.0,0.0,0.07848000000000001,0.34335000000000004,9.908100000000001
2530303005,21.97,0.0,0.0,0.0,0.05886,0.30411,9.87867
2535353510,21.97,0.0,0.0,0.0,0.07848000000000001,0.34335000000000004,9.89829
2540404015,21.97,0.0,0.0,0.0,0.05886,0.33354000000000006,9.908100000000001
2545454520,21.97,0.0,0.0,0.0,0.06867000000000001,0.33354000000000006,9.87867
2550505025,21.97,0.0,0.0,0.0,0.05886,0.35316,9.888480000000001
2555555530,21.97,0.0,0.0,0.0,0.06867000000000001,0.33354000000000006,9.888480000000001
2560606035,21.97,0.0,0.0,0.0,0.07848000000000001,0.34335000000000004,9.89829
2565656540,21.97,0.0,0.0,0.0,0.04905,0.35316,9.89829
2570707045,21.97,0.0,0.0,0.0,0.07848000000000001,0.34335000000000004,9.908100000000001
2575757550,21.97,0.0,0.0,0.0,0.07848000000000001,0.31392000000000003,9.888480000000001
2580808055,21.97,0.0,0.0,0.0,0.07848000000000001,0.32373,9.908100000000001
2585858560,21.97,0.0,0.0,0.0,0.06867000000000001,0.32373,9.888480000000001
2590909065,21.97,0.0,0.0,0.0,0.05886,0.33354000000000006,9.87867
2595959570,21.97,0.0,0.0,0.0,0.08829,0.35316,9.888480000000001
2601010075,21.97,0.0,0.0,0.0,0.06867000000000001,0.33354000000000006,9.87867
2606060580,21.97,0.0,0.0,0.0,0.07848000000000001,0.34335000000000004,9.888480000000001
2611111085,21.97,0.0,0.0,0.0,0.08829,0.31392000000000003,9.888480000000001
2616161590,21.97,0.0,0.0,0.0,0.07848000000000001,0.34335000000000004,9.908100000000001
2621212095,21.97,0.0,0.0,0.0,0.06867000000000001,0.32373,9.87867
2626262600,21.97,0.0,0.0,0.0,0.07848000000000001,0.34335000000000004,9.85905
2631313105,21.97,0.0,0.0,0.0,0.04905,0.35316,9.89829
2636363610,21.97,0.0,0.0,0.0,0.05886,0.35316,9.888480000000001
2641414115,21.97,0.0,0.0,0.0,0.07848000000000001,0.33354000000000006,9.87867
2646464620,21.97,0.0,0.0,0.0,0.06867000000000001,0.32373,9.86886
2651515125,21.97,0.0,0.0,0.0,0.06867000000000001,0.30411,9.908100000000001
2656565630,21.97,0.0,0.0,0.0,0.06867000000000001,0.31392000000000003,9.89829
2661616135,21.97,0.0,0.0,0.0,0.06867000000000001,0.31392000000000003,9.908100000000001
2666666640,21.97,0.0,0.0,0.0,0.0981,0.33354000000000006,9.85905
2671717145,21.97,0.0,0.0,0.0,0.07848000000000001,0.31392000000000003,9.888480000000001
2676767650,21.97,0.0,0.0,0.0,0.05886,0.31392000000000003,9.888480000000001
2681818155,21.97,0.0,0.0,0.0,0.08829,0.34335000000000004,9.888480000000001
2686868660,21.97,0.0,0.0,0.0,0.06867000000000001,0.32373,9.89829
2691919165,21.97,0.0,0.0,0.0,0.05886,0.30411,9.89829
2696969670,21.97,0.0,0.0,0.0,0.07848000000000001,0.33354000000000006,9.87867
2702020175,21.97,0.0,0.0,0.0,0.06867000000000001,0.34335000000000004,9.908100000000001
2707070680,21.97,0.0,0.0,0.0,0.06867000000000001,0.32373,9.87867
2712121185,21.97,0.0,0.0,0.0,0.07848000000000001,0.33354000000000006,9.86886
2717171690,21.97,0.0,0.0,0.0,0.06867000000000001,0.34335000000000004,9.908100000000001
2722222195,21.97,0.0,0.0,0.0,0.06867000000000001,0.35316,9.86886
2727272700,21.97,0.0,0.0,0.0,0.05886,0.34335000000000004,9.888480000000001
2732323205,21.97,0.0,0.0,0.0,0.06867000000000001,0.32373,9.908100000000001
2737373710,21.97,0.0,0.0,0.0,0.04905,0.32373,9.89829
2742424215,21.97,0.0,0.0,0.0,0.05886,0.36297,9.89829
2747474720,21.97,0.0,0.0,0.0,0.08829,0.33354000000000006,9.888480000000001
2752525225,21.97,0.0,0.0,0.0,0.05886,0.34335000000000004,9.86886
2757575730,21.97,0.0,0.0,0.0,0.08829,0.33354000000000006,9.87867
2762626235,21.97,0.0,0.0,0.0,0.07848000000000001,0.33354000000000006,9.86886
2767676740,21.97,0.0,0.0,0.0,0.06867000000000001,0.30411,9.84924
2772727245,21.97,0.0,0.0,0.0,0.06867000000000001,0.32373,9.89829
2777777750,21.97,0.0,0.0,0.0,0.05886,0.33354000000000006,9.86886
2782828255,21.97,0.0,0.0,0.0,0.05886,0.33354000000000006,9.908100000000001
2787878760,21.97,0.0,0.0,0.0,0.05886,0.35316,9.888480000000001
2792929265,21.97,0.0,0.0,0.0,0.06867000000000001,0.34335000000000004,9.86886
2797979770,21.97,0.0,0.0,0.0,0.08829,0.33354000000000006,9.89829
2803030275,21.97,0.0,0.0,0.0,0.07848000000000001,0.35316,9.86886
2808080780,21.97,0.0,0.0,0.0,0.05886,0.35316,9.89829
2813131285,21.97,0.0,0.0,0.0,0.06867000000000001,0.30411,9.888480000000001
2818181790,21.97,0.0,0.0,0.0,0.0981,0.32373,9.86886
2823232295,21.97,0.0,0.0,0.0,0.06867000000000001,0.33354000000000006,9.87867
2828282800,21.97,0.0,0.0,0.0,0.06867000000000001,0.34335000000000004,9.87867
2833333305,21.97,0.0,0.0,0.0,0.08829,0.32373,9.908100000000001
2838383810,21.97,0.0,0.0,0.0,0.07848000000000001,0.34335000000000004,9.89829
2843434315,21.97,0.0,0.0,0.0,0.06867000000000001,0.34335000000000004,9.87867
2848484820,21.97,0.0,0.0,0.0,0.08829,0.35316,9.86886
2853535325,21.97,0.0,0.0,0.0,0.04905,0.33354000000000006,9.86886
2858585830,21.97,0.0,0.0,0.0,0.05886,0.32373,9.908100000000001
2863636335,21.97,0.0,0.0,0.0,0.05886,0.33354000000000006,9.908100000000001
2868686840,21.97,0.0,0.0,0.0,0.08829,0.34335000000000004,9.86886
2873737345,21.97,0.0,0.0,0.0,0.039240000000000004,0.33354000000000006,9.89829
2878787850,21.97,0.0,0.0,0.0,0.06867000000000001,0.33354000000000006,9.86886
2883838355,21.97,0.0,0.0,0.0,0.06867000000000001,0.31392000000000003,9.87867
2888888860,21.97,0.0,0.0,0.0,0.06867000000000001,0.35316,9.86886
2893939365,21.97,0.0,0.0,0.0,0.07848000000000001,0.33354000000000006,9.87867
2898989870,21.97,0.0,0.0,0.0,0.05886,0.32373,9.888480000000001
2904040375,21.97,0.0,0.0,0.0,0.06867000000000001,0.34335000000000004,9.908100000000001
2909090880,21.97,0.0,0.0,0.0,0.06867000000000001,0.33354000000000006,9.87867
2914141385,21.97,0.0,0.0,0.0,0.04905,0.34335000000000004,9.86886
2919191890,21.97,0.0,0.0,0.0,0.06867000000000001,0.31392000000000003,9.85905
2924242395,21.97,0.0,0.0,0.0,0.08829,0.33354000000000006,9.86886
2929292900,21.97,0.0,0.0,0.0,0.06867000000000001,0.30411,9.89829
2934343405,21.97,0.0,0.0,0.0,0.06867000000000001,0.34335000000000004,9.89829
2939393910,21.97,0.0,0.0,0.0,0.05886,0.31392000000000003,9.888480000000001
2944444415,21.97,0.0,0.0,0.0,0.05886,0.34335000000000004,9.91791
2949494920,21.97,0.0,0.0,0.0,0.08829,0.30411,9.87867
2954545425,21.97,0.0,0.0,0.0,0.06867000000000001,0.33354000000000006,9.89829
2959595930,21.97,0.0,0.0,0.0,0.06867000000000001,0.34335000000000004,9.888480000000001
2964646435,21.97,0.0,0.0,0.0,0.07848000000000001,0.32373,9.89829
2969696940,21.97,0.0,0.0,0.0,0.08829,0.32373,9.888480000000001
2974747445,21.97,0.0,0.0,0.0,0.08829,0.32373,9.89829
2979797950,21.97,0.0,0.0,0.0,0.07848000000000001,0.32373,9.908100000000001
2984848455,21.97,0.0,0.0,0.0,0.07848000000000001,0.32373,9.888480000000001
2989898960,21.97,0.0,0.0,0.0,0.06867000000000001,0.34335000000000004,9.908100000000001
2994949465,21.97,0.0,0.0,0.0,0.07848000000000001,0.34335000000000004,9.908100000000001
2999999970,21.97,0.0,0.0,0.0,0.07848000000000001,0.34335000000000004,9.86886
3005050475,21.97,0.0,0.0,0.0,0.07848000000000001,0.32373,9.87867
3010100980,21.97,0.0,0.0,0.0,0.07848000000000001,0.31392000000000003,9.87867
3015151485,21.97,0.0,0.0,0.0,0.05886,0.33354000000000006,9.87867
3020201990,21.97,0.0,0.0,0.0,0.05886,0.32373,9.888480000000001
3025252495,21.97,0.0,0.0,0.0,0.07848000000000001,0.33354000000000006,9.888480000000001
3030303000,21.97,0.0,0.0,0.0,0.04905,0.34335000000000004,9.888480000000001
3035353505,21.97,0.0,0.0,0.0,0.06867000000000001,0.34335000000000004,9.86886
3040404010,21.97,0.0,0.0,0.0,0.06867000000000001,0.32373,9.86886
3045454515,21.97,0.0,0.0,0.0,0.08829,0.33354000000000006,9.89829
3050505020,21.97,0.0,0.0,0.0,0.04905,0.33354000000000006,9.89829
3055555525,21.97,0.0,0.0,0.0,0.06867000000000001,0.32373,9.888480000000001
3060606030,21.97,0.0,0.0,0.0,0.05886,0.32373,9.908100000000001
3065656535,21.97,0.0,0.0,0.0,0.05886,0.33354000000000006,9.87867
3070707040,21.97,0.0,0.0,0.0,0.06867000000000001,0.32373,9.908100000000001
3075757545,21.97,0.0,0.0,0.0,0.06867000000000001,0.33354000000000006,9.87867
3080808050,21.97,0.0,0.0,0.0,0.07848000000000001,0.35316,9.85905
3085858555,21.97,0.0,0.0,0.0,0.06867000000000001,0.33354000000000006,9.86886
3090909060,21.97,0.0,0.0,0.0,0.07848000000000001,0.34335000000000004,9.888480000000001
3095959565,21.97,0.0,0.0,0.0,0.05886,0.32373,9.87867
3101010070,21.97,0.0,0.0,0.0,0.07848000000000001,0.31392000000000003,9.89829
3106060575,21.97,0.0,0.0,0.0,0.04905,0.31392000000000003,9.888480000000001
3111111080,21.97,0.0,0.0,0.0,0.06867000000000001,0.30411,9.92772
3116161585,21.97,0.0,0.0,0.0,0.07848000000000001,0.32373,9.91791
3121212090,21.97,0.0,0.0,0.0,0.039240000000000004,0.31392000000000003,9.85905
3126262595,21.97,0.0,0.0,0.0,0.0981,0.35316,9.89829
3131313100,21.97,0.0,0.0,0.0,0.0981,0.31392000000000003,9.89829
3136363605,21.97,0.0,0.0,0.0,0.04905,0.34335000000000004,9.86886
3141414110,21.97,0.0,0.0,0.0,0.05886,0.33354000000000006,9.87867
3146464615,21.97,0.0,0.0,0.0,0.04905,0.33354000000000006,9.89829
3151515120,21.97,0.0,0.0,0.0,0.05886,0.32373,9.89829
3156565625,21.97,0.0,0.0,0.0,0.05886,0.34335000000000004,9.908100000000001
3161616130,21.97,0.0,0.0,0.0,0.02943,0.33354000000000006,9.87867
3166666635,21.97,0.0,0.0,0.0,0.06867000000000001,0.35316,9.87867
3171717140,21.97,0.0,0.0,0.0,0.08829,0.33354000000000006,9.888480000000001
3176767645,21.97,0.0,0.0,0.0,0.10791,0.33354000000000006,9.89829
3181818150,21.97,0.0,0.0,0.0,0.06867000000000001,0.36297,9.888480000000001
3186868655,21.97,0.0,0.0,0.0,0.05886,0.32373,9.89829
3191919160,21.97,0.0,0.0,0.0,0.05886,0.32373,9.87867
3196969665,21.97,0.0,0.0,0.0,0.06867000000000001,0.33354000000000006,9.888480000000001
3202020170,21.97,0.0,0.0,0.0,0.07848000000000001,0.34335000000000004,9.888480000000001
3207070675,21.97,0.0,0.0,0.0,0.07848000000000001,0.34335000000000004,9.87867
3212121180,21.97,0.0,0.0,0.0,0.06867000000000001,0.31392000000000003,9.87867
3217171685,21.97,0.0,0.0,0.0,0.05886,0.34335000000000004,9.86886
3222222190,21.97,0.0,0.0,0.0,0.06867000000000001,0.34335000000000004,9.888480000000001
3227272695,21.97,0.0,0.0,0.0,0.05886,0.30411,9.888480000000001
3232323200,21.97,0.0,0.0,0.0,0.07848000000000001,0.34335000000000004,9.89829
3237373705,21.97,0.0,0.0,0.0,0.06867000000000001,0.31392000000000003,9.888480000000001
3242424210,21.97,0.0,0.0,0.0,0.05886,0.32373,9.908100000000001
3247474715,21.97,0.0,0.0,0.0,0.05886,0.32373,9.89829
3252525220,21.97,0.0,0.0,0.0,0.05886,0.31392000000000003,9.86886
3257575725,21.97,0.0,0.0,0.0,0.08829,0.32373,9.87867
3262626230,21.97,0.0,0.0,0.0,0.06867000000000001,0.32373,9.87867
3267676735,21.97,0.0,0.0,0.0,0.05886,0.32373,9.908100000000001
3272727240,21.97,0.0,0.0,0.0,0.05886,0.35316,9.89829
3277777745,21.97,0.0,0.0,0.0,0.08829,0.31392000000000003,9.89829
3282828250,21.97,0.0,0.0,0.0,0.07848000000000001,0.36297,9.888480000000001
3287878755,21.97,0.0,0.0,0.0,0.05886,0.32373,9.92772
3292929260,21.97,0.0,0.0,0.0,0.06867000000000001,0.33354000000000006,9.87867
3297979765,21.97,0.0,0.0,0.0,0.039240000000000004,0.31392000000000003,9.87867
3303030270,21.97,0.0,0.0,0.0,0.06867000000000001,0.33354000000000006,9.89829
3308080775,21.97,0.0,0.0,0.0,0.07848000000000001,0.32373,9.908100000000001
3313131280,21.97,0.0,0.0,0.0,0.04905,0.36297,9.91791
3318181785,21.97,0.0,0.0,0.0,0.06867000000000001,0.31392000000000003,9.888480000000001
3323232290,21.97,0.0,0.0,0.0,0.0981,0.32373,9.86886
3328282795,21.97,0.0,0.0,0.0,0.07848000000000001,0.34335000000000004,9.87867
3333333300,21.97,0.0,0.0,0.0,0.05886,0.32373,9.89829
3338383805,21.97,0.0,0.0,0.0,0.05886,0.31392000000000003,9.87867
3343434310,21.97,0.0,0.0,0.0,0.07848000000000001,0.33354000000000006,9.908100000000001
3348484815,21.97,0.0,0.0,0.0,0.05886,0.31392000000000003,9.89829
3353535320,21.97,0.0,0.0,0.0,0.04905,0.35316,9.888480000000001
3358585825,21.97,0.0,0.0,0.0,0.07848000000000001,0.32373,9.87867
3363636330,21.97,0.0,0.0,0.0,0.05886,0.33354000000000006,9.888480000000001
3368686835,21.97,0.0,0.0,0.0,0.07848000000000001,0.35316,9.87867
3373737340,21.97,0.0,0.0,0.0,0.0981,0.32373,9.908100000000001
3378787845,21.97,0.0,0.0,0.0,0.05886,0.31392000000000003,9.888480000000001
3383838350,21.97,0.0,0.0,0.0,0.06867000000000001,0.31392000000000003,9.89829
3388888855,21.97,0.0,0.0,0.0,0.07848000000000001,0.32373,9.888480000000001
3393939360,21.97,0.0,0.0,0.0,0.05886,0.33354000000000006,9.888480000000001
3398989865,21.97,0.0,0.0,0.0,0.08829,0.32373,9.87867
3404040370,21.97,0.0,0.0,0.0,0.08829,0.33354000000000006,9.888480000000001
3409090875,21.97,0.0,0.0,0.0,0.06867000000000001,0.33354000000000006,9.87867
3414141380,21.97,0.0,0.0,0.0,0.05886,0.33354000000000006,9.84924
3419191885,21.97,0.0,0.0,0.0,0.0981,0.33354000000000006,9.908100000000001
3424242390,21.97,0.0,0.0,0.0,0.04905,0.2943,9.89829
3429292895,21.97,0.0,0.0,0.0,0.07848000000000001,0.31392000000000003,9.87867
3434343400,21.97,0.0,0.0,0.0,0.05886,0.31392000000000003,9.908100000000001
3439393905,21.97,0.0,0.0,0.0,0.06867000000000001,0.36297,9.87867
3444444410,21.97,0.0,0.0,0.0,0.07848000000000001,0.33354000000000006,9.888480000000001
3449494915,21.97,0.0,0.0,0.0,0.06867000000000001,0.33354000000000006,9.87867
3454545420,21.97,0.0,0.0,0.0,0.0981,0.32373,9.888480000000001
3459595925,21.97,0.0,0.0,0.0,0.08829,0.31392000000000003,9.87867
3464646430,21.97,0.0,0.0,0.0,0.06867000000000001,0.31392000000000003,9.87867
3469696935,21.97,0.0,0.0,0.0,0.04905,0.34335000000000004,9.908100000000001
3474747440,21.97,0.0,0.0,0.0,0.08829,0.31392000000000003,9.908100000000001
3479797945,21.97,0.0,0.0,0.0,0.039240000000000004,0.32373,9.908100000000001
3484848450,21.97,0.0,0.0,0.0,0.06867000000000001,0.34335000000000004,9.89829
3489898955,21.97,0.0,0.0,0.0,0.07848000000000001,0.33354000000000006,9.87867
3494949460,21.97,0.0,0.0,0.0,0.07848000000000001,0.33354000000000006,9.84924
3499999965,21.97,0.0,0.0,0.0,0.0981,0.31392000000000003,9.888480000000001
3505050470,21.97,0.0,0.0,0.0,0.06867000000000001,0.31392000000000003,9.86886
3510100975,21.97,0.0,0.0,0.0,0.05886,0.2943,9.86886
3515151480,21.97,0.0,0.0,0.0,0.02943,0.33354000000000006,9.87867
3520201985,21.97,0.0,0.0,0.0,0.05886,0.33354000000000006,9.888480000000001
3525252490,21.97,0.0,0.0,0.0,0.05886,0.33354000000000006,9.89829
3530302995,21.97,0.0,0.0,0.0,0.07848000000000001,0.34335000000000004,9.83943
3535353500,21.97,0.0,0.0,0.0,0.06867000000000001,0.34335000000000004,9.85905
3540404005,21.97,0.0,0.0,0.0,0.07848000000000001,0.33354000000000006,9.85905
3545454510,21.97,0.0,0.0,0.0,0.0981,0.34335000000000004,9.84924
3550505015,21.97,0.0,0.0,0.0,0.07848000000000001,0.2943,9.83943
3555555520,21.97,0.0,0.0,0.0,0.05886,0.28449,9.86886
3560606025,21.97,0.0,0.0,0.0,0.05886,0.30411,9.85905
3565656530,21.97,0.0,0.0,0.0,0.04905,0.30411,9.87867
3570707035,21.97,0.0,0.0,0.0,0.04905,0.35316,9.888480000000001
3575757540,21.97,0.0,0.0,0.0,0.06867000000000001,0.34335000000000004,9.85905
3580808045,21.97,0.0,0.0,0.0,0.0981,0.31392000000000003,9.87867
3585858550,21.97,0.0,0.0,0.0,0.08829,0.28449,9.89829
3590909055,21.97,0.0,0.0,0.0,0.07848000000000001,0.31392000000000003,9.91791
3595959560,21.97,0.0,0.0,0.0,0.06867000000000001,0.30411,9.937529999999999
3601010065,21.97,0.0,0.0,0.0,0.0981,0.27468000000000004,9.937529999999999
3606060570,21.97,-0.005323254218582705,0.033021629447732716,0.0,0.08829,0.22563,10.01601
3611111075,21.97,-0.04260348704118158,0.028763026072866547,0.0,0.17658,-0.04905,9.819809999999999
3616161580,21.97,-0.03089232776029963,0.1374272253020335,-0.006387905062299246,0.039240000000000004,0.0,10.074869999999999
3621212085,21.97,0.05752605214573309,0.12569861272863161,-0.002129301687433082,-0.32373,0.17658,9.95715
3626262590,21.97,0.06391395720803235,0.14913838458291545,0.002129301687433082,-0.41202000000000005,0.34335000000000004,9.98658
3631313095,21.97,0.07777187146886733,0.10012953918691468,0.0,-1.04967,0.90252,10.280880000000002
3636363600,21.97,0.10012953918691468,-0.015987215948268057,0.004258603374866164,-0.90252,0.6180300000000001,9.99639
3641414105,21.97,-0.05113814708343386,-0.12676326357234816,0.001064650843716541,-1.2556800000000001,0.33354000000000006,9.92772
3646464610,21.97,-0.006387905062299246,-0.3898891016030132,0.006387905062299246,-0.05886,0.8240400000000001,9.97677
3651515115,21.97,0.04581489286485115,-0.22156954854068012,0.005323254218582705,0.59841,0.9908100000000001,9.40779
3656565620,21.97,-0.07243116395776468,-0.27590164815526363,0.005323254218582705,0.44145,0.5591700000000001,9.81
3661616125,21.97,-0.10225884087434776,-0.1800307123432151,0.006387905062299246,1.04967,0.70632,9.70209
3666666630,21.97,-0.022375121010567305,-0.18641861740551433,0.0,0.84366,0.79461,9.55494
3671717135,21.97,-0.12356931104119852,-0.06710790973918197,0.008517206749732328,1.71675,0.039240000000000004,9.908100000000001
3676767640,21.97,-0.1704488547497662,0.0852244273748831,-0.002129301687433082,0.75537,-0.0981,9.66285
3681818145,21.97,-0.10012953918691468,0.021310470166850764,0.0,1.0987200000000001,-0.47088,9.82962
3686868650,21.97,-0.11079350091660004,0.24075071702009782,-0.002129301687433082,0.6867000000000001,-0.74556,9.937529999999999
3691919155,21.97,-0.001064650843716541,0.10545279340549739,-0.007452555906015787,-0.009810000000000001,-0.50031,9.56475
3696969660,21.97,0.09161233243718235,0.15233233711406508,-0.001064650843716541,0.51993,-0.20601000000000003,9.83943
3702020165,21.97,0.12569861272863161,0.18854791909294744,-0.006387905062299246,-0.18639,0.07848000000000001,9.68247
3707070670,21.97,0.14062117783318315,0.12250466019748199,-0.001064650843716541,0.15696000000000002,0.27468000000000004,9.43722
3712121175,21.97,0.1480737337391989,0.2151816434783809,-0.004258603374866164,-0.32373,0.50031,10.025820000000001
3717171680,21.97,0.1288925652597812,0.10438814256178083,-0.006387905062299246,-0.51993,1.29492,10.006200000000002
3722222185,21.97,0.1757721089683489,0.1331511686346474,-0.005323254218582705,-0.84366,2.13858,10.849860000000001
3727272690,21.97,0.05326744877086694,0.004258603374866164,-0.003193952531149623,-1.13796,1.26549,10.1043
3732323195,21.97,-0.20027653166634932,-0.001064650843716541,0.002129301687433082,-0.35316,0.0981,10.26126
3737373700,21.97,-0.13955652698946658,0.01918116847941768,0.0,-0.6180300000000001,0.12753,9.760950000000001
3742424205,21.97,-0.06497860805174888,-0.006387905062299246,0.003193952531149623,-0.5493600000000001,0.0,10.19259
3747474710,21.97,-0.10012953918691468,-0.0852244273748831,0.005323254218582705,-0.85347,-0.24525000000000002,9.72171
3752525215,21.97,-0.06497860805174888,-0.15872024217636432,0.001064650843716541,-0.37278,-0.17658,9.937529999999999
3757575720,21.97,0.001064650843716541,-0.13955652698946658,0.005323254218582705,-0.34335000000000004,0.07848000000000001,10.025820000000001
3762626225,21.97,0.023439771854283843,-0.22263419938439669,0.005323254218582705,-0.019620000000000002,0.11772,9.751140000000001
3767676730,21.97,0.024504422698000388,-0.19708257913519966,0.005323254218582705,0.24525000000000002,0.5395500000000001,9.751140000000001
3772727235,21.97,0.07243116395776468,-0.2343628119577986,0.005323254218582705,0.72594,0.75537,9.819809999999999
3777777740,21.97,0.003193952531149623,-0.16191419470751395,0.002129301687433082,1.00062,0.6768900000000001,9.40779
3782828245,21.97,-0.011711159280881954,-0.11611675513518273,0.006387905062299246,1.16739,0.71613,9.79038
3787878750,21.97,-0.04260348704118158,0.006387905062299246,0.0,1.26549,0.45126,9.73152
3792929255,21.97,-0.06923721142661506,0.03408628029144926,-0.002129301687433082,0.8829,0.26487,9.7119
3797979760,21.97,-0.06391395720803235,0.08735372906231618,-0.002129301687433082,1.08891,0.02943,10.12392
3803030265,21.97,-0.05965535383316618,0.16084954386379738,-0.004258603374866164,0.60822,-0.12753,9.91791
3808080770,21.97,-0.031956978604016174,0.16831955306233315,-0.004258603374866164,0.5886,-0.23544,9.96696
3813131275,21.97,-0.002129301687433082,0.2428800187075309,-0.006387905062299246,0.18639,-0.21582,9.95715
3818181780,21.97,0.04366813788489812,0.2343628119577986,-0.005323254218582705,-0.14715,-0.12753,9.73152
3823232285,21.97,0.07456046564519776,0.22689280275926285,-0.004258603374866164,-0.5395500000000001,0.039240000000000004,9.623610000000001
3828282790,21.97,0.11611675513518273,0.1288925652597812,-0.003193952531149623,-0.74556,0.40221,9.73152
3833333295,21.97,0.11611675513518273,0.09587093581204853,-0.001064650843716541,-0.51012,1.20663,9.751140000000001
3838383800,21.97,0.13421581947836395,0.1171814059788993,-0.001064650843716541,-1.3537800000000002,1.65789,10.72233
3843434305,21.97,0.0,-0.07670722062515077,0.001064650843716541,-1.20663,0.59841,9.83943
3848484810,21.97,-0.1629788455512305,-0.10012953918691468,0.002129301687433082,-0.6768900000000001,-0.02943,10.06506
3853535315,21.97,-0.046879543708567686,-0.1480737337391989,0.003193952531149623,-0.36297,0.41202000000000005,10.212209999999999
3858585820,21.97,0.0,-0.13634512116579703,0.004258603374866164,-0.15696000000000002,0.26487,9.908100000000001
3863636325,21.97,-0.08735372906231618,-0.1555262896452147,0.006387905062299246,-0.15696000000000002,0.04905,10.08468
3868686830,21.97,-0.02982767691658309,-0.1832246648743647,0.003193952531149623,0.14715,0.36297,10.06506
3873737335,21.97,0.005323254218582705,-0.17470745812463237,0.003193952531149623,0.33354000000000006,0.37278,9.908100000000001
3878787840,21.97,-0.05326744877086694,-0.1800307123432151,0.005323254218582705,0.59841,0.21582,9.92772
3883838345,21.97,-0.03728023282259888,-0.1374272253020335,0.001064650843716541,0.8829,0.36297,9.85905
3888888850,21.97,-0.0170518667919846,-0.05859070298944965,0.001064650843716541,0.9810000000000001,0.24525000000000002,9.78057
3893939355,21.97,-0.04153883619746504,0.0,0.002129301687433082,0.85347,0.16677000000000003,9.751140000000001
3898989860,21.97,-0.00958185759344887,0.03515093113516579,0.0,0.8338500000000001,0.20601000000000003,9.68247
3904040365,21.97,-0.005323254218582705,0.10225884087434776,-0.002129301687433082,0.6768900000000001,0.16677000000000003,9.623610000000001
3909090870,21.97,-0.020245819323134222,0.11824605682261582,0.0,0.52974,0.009810000000000001,9.623610000000001
3914141375,21.97,0.002129301687433082,0.15659094048893124,-0.002129301687433082,0.33354000000000006,0.0,9.67266
3919191880,21.97,0.03089232776029963,0.1672549022186166,-0.005323254218582705,0.05886,0.0,9.78057
3924242385,21.97,0.04794419455228423,0.15659094048893124,-0.005323254218582705,-0.05886,0.05886,9.79038
3929292890,21.97,0.07030186227033158,0.14381513036433274,-0.002129301687433082,-0.30411,0.27468000000000004,9.91791
3934343395,21.97,0.09693558665576507,0.11398745344774965,-0.003193952531149623,-0.36297,0.48069000000000006,9.89829
3939393900,21.97,0.08735372906231618,0.08841837990603273,-0.004258603374866164,-0.42183,0.94176,9.819809999999999
3944444405,21.97,0.09161233243718235,0.08841837990603273,0.0,-0.70632,1.34397,10.27107
3949494910,21.97,0.01811651763570114,-0.003193952531149623,0.0,-0.87309,0.7749900000000001,9.57456
3954545415,21.97,-0.11398745344774965,-0.0756251164889143,0.001064650843716541,-0.44145,0.30411,9.770760000000001
3959595920,21.97,-0.06391395720803235,-0.06817256058289851,0.001064650843716541,-0.30411,0.43164,9.94734
3964646425,21.97,-0.04366813788489812,-0.09480628496833199,0.001064650843716541,-0.28449,0.23544,9.78057
3969696930,21.97,-0.09800023749948161,-0.11398745344774965,0.005323254218582705,-0.18639,0.019620000000000002,10.074869999999999
3974747435,21.97,-0.05007349623971732,-0.14275047952061623,0.002129301687433082,-0.02943,0.23544,10.09449
3979797940,21.97,-0.022375121010567305,-0.14594443205176583,0.004258603374866164,0.21582,0.21582,9.85905
3984848445,21.97,-0.05007349623971732,-0.12144000935376545,0.003193952531149623,0.36297,0.14715,9.937529999999999
3989898950,21.97,-0.028763026072866547,-0.09906488834319814,0.001064650843716541,0.57879,0.18639,9.81
3994949455,21.97,-0.0170518667919846,-0.039409534510031964,0.001064650843716541,0.57879,0.17658,9.78057
3999999960,21.97,-0.020245819323134222,-0.028763026072866547,0.001064650843716541,0.48069000000000006,0.11772,9.908100000000001
4005050465,21.97,0.002129301687433082,-0.003193952531149623,0.0,0.6180300000000001,0.17658,9.94734
4010100970,21.97,0.007452555906015787,0.03408628029144926,-0.001064650843716541,0.51012,0.12753,10.06506
4015151475,21.97,0.005323254218582705,0.05007349623971732,-0.003193952531149623,0.48069000000000006,0.11772,10.09449
4020201980,21.97,0.024504422698000388,0.08309512568745003,-0.002129301687433082,0.42183,0.20601000000000003,9.98658
4025252485,21.97,0.033021629447732716,0.10545279340549739,-0.002129301687433082,0.24525000000000002,0.25506,9.94734
4030302990,21.97,0.031956978604016174,0.10332349171806432,-0.002129301687433082,0.13734000000000002,0.34335000000000004,9.84924
4035353495,21.97,0.03728023282259888,0.11292280260403312,-0.002129301687433082,0.0,0.38259000000000004,9.82962
4040404000,21.97,0.033021629447732716,0.09906488834319814,-0.002129301687433082,-0.16677000000000003,0.43164,9.85905
4045454505,21.97,0.02769837522915001,0.07670722062515077,-0.003193952531149623,-0.24525000000000002,0.46107000000000004,9.86886
4050505010,21.97,0.01918116847941768,0.06391395720803235,-0.001064650843716541,-0.30411,0.44145,9.89829
4055555515,21.97,0.007452555906015787,0.03515093113516579,-0.002129301687433082,-0.36297,0.49050000000000005,9.87867
4060606020,21.97,-0.002129301687433082,0.011711159280881954,0.001064650843716541,-0.35316,0.48069000000000006,9.78057
4065656525,21.97,-0.008517206749732328,-0.011711159280881954,0.002129301687433082,-0.40221,0.51012,9.73152
4070707030,21.97,-0.01064650843716541,-0.05539675045830002,0.001064650843716541,-0.2943,0.5493600000000001,9.66285
4075757535,21.97,-0.023439771854283843,-0.06923721142661506,0.003193952531149623,-0.20601000000000003,0.5493600000000001,9.66285
4080808040,21.97,-0.0404741853537485,-0.09161233243718235,0.003193952531149623,-0.06867000000000001,0.43164,9.73152
4085858545,21.97,-0.060720004676882725,-0.08948303074974927,0.001064650843716541,0.05886,0.2943,9.81
4090909050,21.97,-0.06391395720803235,-0.08841837990603273,0.001064650843716541,0.0981,0.20601000000000003,9.97677
4095959555,21.97,-0.05752605214573309,-0.0852244273748831,0.003193952531149623,0.20601000000000003,0.13734000000000002,9.99639
4101010060,21.97,-0.046879543708567686,-0.08096582400001695,0.001064650843716541,0.27468000000000004,0.08829,9.95715
4106060565,21.97,-0.03089232776029963,-0.05752605214573309,0.002129301687433082,0.40221,0.13734000000000002,9.937529999999999
4111111070,21.97,-0.014905111812031574,-0.033021629447732716,0.0,0.44145,0.13734000000000002,9.87867
4116161575,21.97,-0.003193952531149623,-0.005323254218582705,0.0,0.43164,0.12753,9.91791
4121212080,21.97,0.0,0.013840460968315033,0.0,0.43164,0.16677000000000003,9.937529999999999
4126262585,21.97,0.003193952531149623,0.03408628029144926,-0.001064650843716541,0.38259000000000004,0.12753,9.99639
4131313090,21.97,0.008517206749732328,0.05326744877086694,-0.001064650843716541,0.30411,0.14715,10.01601
4136363595,21.97,0.021310470166850764,0.06178465552059926,-0.002129301687433082,0.23544,0.24525000000000002,10.03563
4141414100,21.97,0.03408628029144926,0.07243116395776468,-0.001064650843716541,0.17658,0.30411,9.97677
4146464605,21.97,0.03834488366631542,0.08309512568745003,-0.001064650843716541,0.02943,0.41202000000000005,9.92772
4151515110,21.97,0.03621558197888234,0.06923721142661506,0.0,-0.009810000000000001,0.49050000000000005,9.84924
4156565615,21.97,0.024504422698000388,0.07243116395776468,-0.001064650843716541,-0.0981,0.52974,9.74133
4161616120,21.97,0.008517206749732328,0.05220279792715039,-0.002129301687433082,-0.20601000000000003,0.52974,9.72171
4166666625,21.97,-0.007452555906015787,0.03515093113516579,0.0,-0.20601000000000003,0.47088,9.72171
4171717130,21.97,-0.015987215948268057,0.023439771854283843,-0.001064650843716541,-0.26487,0.42183,9.751140000000001
4176767635,21.97,-0.022375121010567305,0.004258603374866164,0.001064650843716541,-0.28449,0.38259000000000004,9.770760000000001
4181818140,21.97,-0.021310470166850764,-0.00958185759344887,0.002129301687433082,-0.27468000000000004,0.3924,9.80019
4186868645,21.97,-0.02663372438543347,-0.03089232776029963,-0.001064650843716541,-0.24525000000000002,0.35316,9.79038
4191919150,21.97,-0.031956978604016174,-0.05113814708343386,0.001064650843716541,-0.16677000000000003,0.31392000000000003,9.81
4196969655,21.97,-0.03834488366631542,-0.06178465552059926,0.0,-0.12753,0.28449,9.80019
4202020160,21.97,-0.03621558197888234,-0.08096582400001695,0.001064650843716541,-0.02943,0.25506,9.83943
4207070665,21.97,-0.03621558197888234,-0.07456046564519776,0.003193952531149623,0.11772,0.20601000000000003,9.91791
4212121170,21.97,-0.031956978604016174,-0.05965535383316618,0.002129301687433082,0.18639,0.18639,9.98658
4217171675,21.97,-0.021310470166850764,-0.049008845396000776,0.001064650843716541,0.20601000000000003,0.16677000000000003,10.006200000000002
4222222180,21.97,-0.00958185759344887,-0.04260348704118158,0.002129301687433082,0.28449,0.21582,10.006200000000002
4227272685,21.97,-0.003193952531149623,-0.039409534510031964,0.0,0.30411,0.28449,9.97677
4232323190,21.97,-0.002129301687433082,-0.021310470166850764,0.002129301687433082,0.37278,0.31392000000000003,9.908100000000001
4237373695,21.97,-0.008517206749732328,0.004258603374866164,0.0,0.41202000000000005,0.2943,9.81
4242424200,21.97,-0.008517206749732328,0.023439771854283843,0.001064650843716541,0.33354000000000006,0.27468000000000004,9.81
4247474705,21.97,-0.005323254218582705,0.033021629447732716,0.0,0.27468000000000004,0.27468000000000004,9.81
4252525210,21.97,-0.004258603374866164,0.04366813788489812,-0.001064650843716541,0.22563,0.28449,9.84924
4257575715,21.97,-0.004258603374866164,0.046879543708567686,0.0,0.20601000000000003,0.23544,9.937529999999999
4262626220,21.97,-0.004258603374866164,0.05539675045830002,-0.001064650843716541,0.11772,0.20601000000000003,9.95715
4267676725,21.97,-0.003193952531149623,0.05539675045830002,-0.001064650843716541,0.009810000000000001,0.1962,10.006200000000002
4272727230,21.97,0.0,0.044732788728614664,-0.001064650843716541,-0.02943,0.20601000000000003,10.006200000000002
4277777735,21.97,0.008517206749732328,0.02663372438543347,0.0,-0.11772,0.28449,9.96696
4282828240,21.97,0.01811651763570114,0.001064650843716541,0.0,-0.0981,0.35316,9.908100000000001
4287878745,21.97,0.013840460968315033,-0.002129301687433082,0.0,-0.05886,0.44145,9.92772
4292929250,21.97,0.007452555906015787,-0.015987215948268057,0.0,-0.009810000000000001,0.46107000000000004,9.91791
4297979755,21.97,-0.007452555906015787,-0.004258603374866164,0.0,0.02943,0.42183,9.888480000000001
4303030260,21.97,-0.020245819323134222,-0.00958185759344887,0.001064650843716541,0.0,0.40221,9.819809999999999
4308080765,21.97,-0.022375121010567305,-0.014905111812031574,0.002129301687433082,0.0,0.41202000000000005,9.78057
4313131270,21.97,-0.024504422698000388,-0.01918116847941768,0.002129301687433082,0.039240000000000004,0.40221,9.74133
4318181775,21.97,-0.03408628029144926,-0.0170518667919846,-0.001064650843716541,0.04905,0.34335000000000004,9.69228
4323232280,21.97,-0.03834488366631542,-0.01064650843716541,-0.002129301687433082,0.08829,0.27468000000000004,9.7119
4328282785,21.97,-0.04260348704118158,0.002129301687433082,0.001064650843716541,0.02943,0.17658,9.751140000000001
4333333290,21.97,-0.04260348704118158,-0.0,-0.001064650843716541,0.009810000000000001,0.10791,9.81
4338383795,21.97,-0.031956978604016174,-0.006387905062299246,0.001064650843716541,0.0,0.07848000000000001,9.888480000000001
4343434300,21.97,-0.015987215948268057,-0.014905111812031574,0.001064650843716541,0.0,0.07848000000000001,9.908100000000001
4348484805,21.97,0.003193952531149623,-0.01918116847941768,0.0,0.08829,0.15696000000000002,9.89829
4353535310,21.97,0.015987215948268057,-0.002129301687433082,0.0,0.13734000000000002,0.25506,9.908100000000001
4358585815,21.97,0.0170518667919846,0.008517206749732328,0.0,0.06867000000000001,0.30411,9.83943
4363636320,21.97,0.012775810124598492,0.001064650843716541,0.0,0.04905,0.40221,9.84924
4368686825,21.97,0.008517206749732328,-0.001064650843716541,0.001064650843716541,0.05886,0.45126,9.84924
4373737330,21.97,0.001064650843716541,-0.005323254218582705,0.0,0.12753,0.47088,9.81
4378787835,21.97,-0.006387905062299246,0.006387905062299246,0.0,0.1962,0.42183,9.85905
4383838340,21.97,-0.022375121010567305,0.0404741853537485,0.0,0.17658,0.35316,9.92772
4388888845,21.97,-0.033021629447732716,0.03834488366631542,0.0,-0.019620000000000002,0.21582,9.97677
4393939350,21.97,-0.03408628029144926,0.020245819323134222,0.001064650843716541,-0.08829,0.20601000000000003,10.09449
4398989855,21.97,-0.02556907354171693,-0.00958185759344887,-0.001064650843716541,-0.10791,0.17658,10.045440000000001
4404040360,21.97,-0.024504422698000388,-0.014905111812031574,0.001064650843716541,0.019620000000000002,0.15696000000000002,10.03563
4409090865,21.97,-0.024504422698000388,-0.007452555906015787,0.0,0.0,0.17658,9.94734
4414141370,21.97,-0.008517206749732328,-0.014905111812031574,0.0,-0.009810000000000001,0.21582,9.908100000000001
4419191875,21.97,0.004258603374866164,-0.02663372438543347,0.002129301687433082,0.019620000000000002,0.28449,9.87867
4424242380,21.97,0.007452555906015787,-0.03621558197888234,0.001064650843716541,0.039240000000000004,0.40221,9.81
4429292885,21.97,0.004258603374866164,-0.05220279792715039,0.0,0.13734000000000002,0.46107000000000004,9.72171
4434343390,21.97,-0.012775810124598492,-0.03728023282259888,0.002129301687433082,0.26487,0.42183,9.770760000000001
4439393895,21.97,-0.02769837522915001,-0.021310470166850764,0.001064650843716541,0.24525000000000002,0.36297,9.74133
4444444400,21.97,-0.03515093113516579,-0.013840460968315033,0.0,0.28449,0.30411,9.83943
4449494905,21.97,-0.039409534510031964,0.001064650843716541,0.0,0.24525000000000002,0.22563,9.87867
4454545410,21.97,-0.0404741853537485,0.01064650843716541,0.0,0.22563,0.13734000000000002,9.888480000000001
4459595915,21.97,-0.03621558197888234,0.020245819323134222,-0.001064650843716541,0.20601000000000003,0.07848000000000001,9.91791
4464646420,21.97,-0.021310470166850764,0.02663372438543347,0.0,0.15696000000000002,0.10791,9.89829
4469696925,21.97,-0.006387905062299246,0.02556907354171693,0.0,0.07848000000000001,0.13734000000000002,9.888480000000001
4474747430,21.97,0.003193952531149623,0.03089232776029963,0.0,0.10791,0.1962,9.819809999999999
4479797935,21.97,0.007452555906015787,0.04153883619746504,0.0,0.019620000000000002,0.22563,9.81
4484848440,21.97,0.014905111812031574,0.031956978604016174,0.0,-0.009810000000000001,0.30411,9.760950000000001
4489898945,21.97,0.014905111812031574,0.03834488366631542,0.0,-0.019620000000000002,0.35316,9.770760000000001
4494949450,21.97,0.008517206749732328,0.020245819323134222,0.0,-0.07848000000000001,0.37278,9.85905
4499999955,21.97,-0.006387905062299246,0.01918116847941768,0.0,-0.019620000000000002,0.31392000000000003,9.97677
4505050460,21.97,-0.015987215948268057,0.02769837522915001,0.0,-0.07848000000000001,0.27468000000000004,10.006200000000002
4510100965,21.97,-0.015987215948268057,0.014905111812031574,0.0,-0.08829,0.23544,10.074869999999999
4515151470,21.97,-0.0170518667919846,0.021310470166850764,0.0,-0.11772,0.21582,10.09449
4520201975,21.97,-0.01811651763570114,0.011711159280881954,0.0,-0.21582,0.25506,10.006200000000002
4525252480,21.97,-0.012775810124598492,-0.013840460968315033,0.0,-0.20601000000000003,0.2943,9.95715
4530302985,21.97,-0.004258603374866164,-0.03834488366631542,0.0,-0.13734000000000002,0.3924,9.83943
4535353490,21.97,-0.00958185759344887,-0.044732788728614664,0.0,-0.05886,0.3924,9.73152
4540403995,21.97,-0.020245819323134222,-0.046879543708567686,0.0,0.0,0.3924,9.770760000000001
4545454500,21.97,-0.02982767691658309,-0.049008845396000776,0.0,0.0,0.35316,9.78057
4550505005,21.97,-0.04366813788489812,-0.06923721142661506,0.0,0.039240000000000004,0.28449,9.81
4555555510,21.97,-0.05007349623971732,-0.08628907821859966,0.0,0.1962,0.23544,9.888480000000001
4560606015,21.97,-0.05113814708343386,-0.07456046564519776,0.0,0.31392000000000003,0.17658,9.91791
4565656520,21.97,-0.046879543708567686,-0.06391395720803235,0.0,0.34335000000000004,0.15696000000000002,9.888480000000001
4570707025,21.97,-0.03621558197888234,-0.04581489286485115,0.0,0.41202000000000005,0.14715,9.82962
4575757530,21.97,-0.023439771854283843,-0.03621558197888234,0.0,0.43164,0.20601000000000003,9.79038
4580808035,21.97,-0.01064650843716541,-0.011711159280881954,0.0,0.51993,0.20601000000000003,9.79038
4585858540,21.97,-0.01064650843716541,0.01811651763570114,0.0,0.51012,0.21582,9.72171
4590909045,21.97,-0.01811651763570114,0.05113814708343386,0.0,0.43164,0.14715,9.770760000000001
4595959550,21.97,-0.0170518667919846,0.06710790973918197,0.0,0.32373,0.08829,9.82962
4601010055,21.97,-0.004258603374866164,0.08203047484373349,0.0,0.18639,0.08829,9.908100000000001
4606060560,21.97,0.006387905062299246,0.0852244273748831,0.0,0.12753,0.11772,9.95715
4611111065,21.97,0.00958185759344887,0.10332349171806432,0.0,0.009810000000000001,0.10791,9.98658
4616161570,21.97,0.012775810124598492,0.09906488834319814,0.0,-0.15696000000000002,0.14715,9.98658
4621212075,21.97,0.03089232776029963,0.07883652231258387,0.0,-0.28449,0.27468000000000004,9.95715
4626262580,21.97,0.03834488366631542,0.039409534510031964,0.0,-0.31392000000000003,0.42183,9.89829
4631313085,21.97,0.03089232776029963,0.02769837522915001,0.0,-0.22563,0.51012,9.89829
4636363590,21.97,0.008517206749732328,0.023439771854283843,0.0,-0.25506,0.51012,9.89829
4641414095,21.97,-0.012775810124598492,0.011711159280881954,0.0,-0.36297,0.46107000000000004,9.92772
4646464600,21.97,-0.02663372438543347,-0.023439771854283843,0.0,-0.30411,0.42183,9.99639
4651515105,21.97,-0.03728023282259888,-0.044732788728614664,0.0,-0.26487,0.40221,9.96696
4656565610,21.97,-0.05539675045830002,-0.06923721142661506,0.0,-0.1962,0.31392000000000003,9.95715
4661616115,21.97,-0.06178465552059926,-0.07670722062515077,0.0,-0.05886,0.24525000000000002,9.91791
4666666620,21.97,-0.05539675045830002,-0.07777187146886733,0.0,0.019620000000000002,0.25506,9.819809999999999
4671717125,21.97,-0.04366813788489812,-0.06817256058289851,0.0,0.0981,0.20601000000000003,9.79038
4676767630,21.97,-0.05220279792715039,-0.06497860805174888,0.0,0.08829,0.15696000000000002,9.760950000000001
4681818135,21.97,-0.054332099614583476,-0.07990117315630041,0.0,0.17658,0.08829,9.81
4686868640,21.97,-0.046879543708567686,-0.07990117315630041,0.0,0.31392000000000003,0.07848000000000001,9.81
4691919145,21.97,-0.03834488366631542,-0.05965535383316618,0.0,0.40221,0.06867000000000001,9.84924
4696969650,21.97,-0.033021629447732716,-0.0404741853537485,0.0,0.45126,0.009810000000000001,9.888480000000001
4702020155,21.97,-0.024504422698000388,-0.015987215948268057,0.0,0.46107000000000004,0.02943,9.85905
4707070660,21.97,0.0,-0.002129301687433082,0.0,0.47088,0.16677000000000003,9.81
4712121165,21.97,0.020245819323134222,0.012775810124598492,0.0,0.3924,0.2943,9.81
4717171670,21.97,0.020245819323134222,0.013840460968315033,0.0,0.50031,0.32373,9.770760000000001
4722222175,21.97,0.0,0.05859070298944965,0.0,0.48069000000000006,0.27468000000000004,9.81
4727272680,21.97,-0.00958185759344887,0.08203047484373349,0.0,0.33354000000000006,0.21582,9.87867
4732323185,21.97,-0.013840460968315033,0.09693558665576507,0.0,0.14715,0.15696000000000002,9.95715
4737373690,21.97,-0.012775810124598492,0.09267698328089889,0.0,0.039240000000000004,0.10791,10.03563
4742424195,21.97,-0.004258603374866164,0.08735372906231618,0.0,-0.02943,0.12753,10.01601
4747474700,21.97,0.003193952531149623,0.09374163412461543,0.0,-0.17658,0.18639,9.95715
4752525205,21.97,0.0170518667919846,0.07883652231258387,0.0,-0.28449,0.28449,9.888480000000001
4757575710,21.97,0.01811651763570114,0.07456046564519776,0.0,-0.30411,0.35316,9.86886
4762626215,21.97,0.006387905062299246,0.06497860805174888,0.0,-0.47088,0.30411,9.91791
4767676720,21.97,-0.0170518667919846,0.020245819323134222,0.0,-0.57879,0.26487,9.937529999999999
4772727225,21.97,-0.014905111812031574,-0.03089232776029963,0.0,-0.5395500000000001,0.2943,9.96696
4777777730,21.97,-0.007452555906015787,-0.06604325889546543,0.0,-0.36297,0.36297,10.01601
4782828235,21.97,-0.0170518667919846,-0.09054768159346581,0.0,-0.26487,0.41202000000000005,10.01601
4787878740,21.97,-0.031956978604016174,-0.10759954838545042,0.0,-0.08829,0.3924,9.98658
4792929245,21.97,-0.03515093113516579,-0.10332349171806432,0.0,0.039240000000000004,0.41202000000000005,9.94734
4797979750,21.97,-0.03834488366631542,-0.10225884087434776,0.0,0.14715,0.42183,9.81
4803030255,21.97,-0.05965535383316618,-0.10012953918691468,0.0,0.25506,0.35316,9.770760000000001
4808080760,21.97,-0.08309512568745003,-0.09800023749948161,0.0,0.37278,0.17658,9.760950000000001
4813131265,21.97,-0.0852244273748831,-0.06284930636431581,0.0,0.45126,0.04905,9.80019
4818181770,21.97,-0.07349581480148122,-0.044732788728614664,0.0,0.44145,-0.039240000000000004,9.81
4823232275,21.97,-0.05859070298944965,-0.03515093113516579,0.0,0.42183,-0.07848000000000001,9.81
4828282780,21.97,-0.033021629447732716,-0.01918116847941768,0.0,0.5395500000000001,-0.039240000000000004,9.73152
4833333285,21.97,-0.0170518667919846,0.02982767691658309,0.0,0.47088,-0.02943,9.7119
4838383790,21.97,0.003193952531149623,0.02663372438543347,0.0,0.33354000000000006,0.06867000000000001,9.65304
4843434295,21.97,0.01918116847941768,0.031956978604016174,0.0,0.42183,0.16677000000000003,9.66285
4848484800,21.97,0.01918116847941768,0.06178465552059926,0.0,0.38259000000000004,0.15696000000000002,9.73152
4853535305,21.97,0.011711159280881954,0.08841837990603273,0.0,0.26487,0.10791,9.84924
4858585810,21.97,0.00958185759344887,0.08628907821859966,0.0,0.05886,0.15696000000000002,10.025820000000001
4863636315,21.97,0.02663372438543347,0.06178465552059926,0.0,0.009810000000000001,0.27468000000000004,10.045440000000001
4868686820,21.97,0.02982767691658309,0.07030186227033158,0.0,0.07848000000000001,0.35316,10.1043
4873737325,21.97,0.021310470166850764,0.09267698328089889,0.0,-0.019620000000000002,0.38259000000000004,10.03563
4878787830,21.97,0.004258603374866164,0.10438814256178083,0.0,-0.13734000000000002,0.37278,9.95715
4883838335,21.97,-0.011711159280881954,0.09800023749948161,0.0,-0.34335000000000004,0.32373,9.92772
4888888840,21.97,-0.023439771854283843,0.06284930636431581,0.0,-0.51012,0.28449,9.89829
4893939345,21.97,-0.03408628029144926,0.0,0.0,-0.5591700000000001,0.27468000000000004,9.96696
4898989850,21.97,-0.03728023282259888,-0.03408628029144926,0.0,-0.42183,0.22563,9.92772
4904040355,21.97,-0.03408628029144926,-0.05539675045830002,0.0,-0.37278,0.24525000000000002,9.87867
4909090860,21.97,-0.031956978604016174,-0.06817256058289851,0.0,-0.22563,0.24525000000000002,9.91791
4914141365,21.97,-0.03621558197888234,-0.07670722062515077,0.0,-0.1962,0.24525000000000002,9.83943
4919191870,21.97,-0.04581489286485115,-0.10012953918691468,0.0,-0.18639,0.25506,9.83943
4924242375,21.97,-0.049008845396000776,-0.1480737337391989,0.0,0.009810000000000001,0.27468000000000004,9.79038
4929292880,21.97,-0.05646140130201656,-0.13955652698946658,0.005323254218582705,0.27468000000000004,0.24525000000000002,9.79038
4934343385,21.97,-0.054332099614583476,-0.13208651779093086,0.001064650843716541,0.41202000000000005,0.18639,9.78057
4939393890,21.97,-0.05965535383316618,-0.09693558665576507,0.001064650843716541,0.59841,0.11772,9.84924
4944444395,21.97,-0.05752605214573309,-0.06604325889546543,0.0,0.59841,0.04905,9.92772
4949494900,21.97,-0.05220279792715039,-0.04153883619746504,0.001064650843716541,0.6670800000000001,0.02943,9.908100000000001
4954545405,21.97,-0.03621558197888234,-0.008517206749732328,0.0,0.65727,0.07848000000000001,9.84924
4959595910,21.97,-0.03089232776029963,0.014905111812031574,0.001064650843716541,0.6867000000000001,0.0,9.79038
4964646415,21.97,-0.031956978604016174,0.06710790973918197,-0.001064650843716541,0.65727,-0.039240000000000004,9.73152
4969696920,21.97,-0.007452555906015787,0.1097288500728835,0.0,0.41202000000000005,-0.02943,9.770760000000001
4974747425,21.97,0.00958185759344887,0.11292280260403312,-0.004258603374866164,0.22563,0.0,9.81
4979797930,21.97,0.020245819323134222,0.10759954838545042,-0.005323254218582705,0.12753,0.02943,9.937529999999999
4984848435,21.97,0.023439771854283843,0.12569861272863161,-0.002129301687433082,0.08829,0.02943,10.006200000000002
4989898940,21.97,0.02982767691658309,0.1352804703220805,-0.001064650843716541,-0.15696000000000002,0.0981,10.025820000000001
4994949445,21.97,0.033021629447732716,0.1171814059788993,-0.001064650843716541,-0.2943,0.16677000000000003,10.03563
4999999950,21.97,0.04153883619746504,0.09054768159346581,-0.002129301687433082,-0.38259000000000004,0.31392000000000003,10.01601
5005050455,21.97,0.04581489286485115,0.05859070298944965,-0.003193952531149623,-0.43164,0.49050000000000005,9.937529999999999
5010100960,21.97,0.03515093113516579,0.03621558197888234,0.0,-0.5395500000000001,0.7651800000000001,9.937529999999999
5015151465,21.97,0.013840460968315033,-0.012775810124598492,0.0,-0.65727,0.6180300000000001,10.03563
5020201970,21.97,-0.07243116395776468,-0.05965535383316618,0.001064650843716541,-0.37278,0.31392000000000003,9.82962
5025252475,21.97,-0.07990117315630041,-0.05646140130201656,0.002129301687433082,-0.30411,0.34335000000000004,9.99639
5030302980,21.97,-0.06604325889546543,-0.09267698328089889,0.004258603374866164,-0.27468000000000004,0.1962,9.87867
5035353485,21.97,-0.10225884087434776,-0.1171814059788993,0.003193952531149623,-0.14715,0.06867000000000001,9.83943
5040403990,21.97,-0.05859070298944965,-0.13849187614575004,0.003193952531149623,0.019620000000000002,0.22563,9.80019
5045454495,21.97,-0.049008845396000776,-0.1278279144160647,0.002129301687433082,0.20601000000000003,0.13734000000000002,9.7119
5050505000,21.97,-0.07349581480148122,-0.13208651779093086,0.002129301687433082,0.26487,0.06867000000000001,9.73152
5055555505,21.97,-0.06923721142661506,-0.13634512116579703,0.002129301687433082,0.51012,0.05886,9.760950000000001
5060606010,21.97,-0.07030186227033158,-0.09161233243718235,0.004258603374866164,0.6670800000000001,-0.07848000000000001,9.751140000000001
5065656515,21.97,-0.07243116395776468,-0.06497860805174888,0.002129301687433082,0.63765,-0.16677000000000003,9.79038
5070707020,21.97,-0.03515093113516579,-0.044732788728614664,0.0,0.71613,-0.06867000000000001,9.81
5075757525,21.97,0.001064650843716541,0.006387905062299246,0.0,0.8142300000000001,-0.019620000000000002,9.81
5080808030,21.97,0.00958185759344887,0.06391395720803235,0.0,0.6867000000000001,0.04905,9.819809999999999
5085858535,21.97,0.01811651763570114,0.09693558665576507,-0.001064650843716541,0.59841,0.13734000000000002,9.819809999999999
5090909040,21.97,0.007452555906015787,0.1278279144160647,-0.003193952531149623,0.43164,0.07848000000000001,9.81
5095959545,21.97,-0.002129301687433082,0.13955652698946658,-0.002129301687433082,0.25506,0.039240000000000004,9.79038
5101010050,21.97,0.006387905062299246,0.1555262896452147,-0.002129301687433082,0.08829,0.02943,9.81
5106060555,21.97,0.03089232776029963,0.15446163880149816,-0.003193952531149623,-0.18639,0.13734000000000002,9.888480000000001
5111111060,21.97,0.04366813788489812,0.13102186694721432,-0.003193952531149623,-0.24525000000000002,0.23544,9.95715
5116161565,21.97,0.0404741853537485,0.14062117783318315,-0.002129301687433082,-0.36297,0.28449,10.01601
5121212070,21.97,0.023439771854283843,0.11505210429146619,-0.001064650843716541,-0.64746,0.51012,10.06506
5126262575,21.97,0.014905111812031574,0.049008845396000776,0.0,-0.89271,0.50031,10.35936
5131313080,21.97,-0.05326744877086694,-0.05326744877086694,0.0,-0.7651800000000001,0.1962,9.78057
5136363585,21.97,-0.06284930636431581,-0.07990117315630041,0.0,-0.41202000000000005,0.25506,9.94734
5141414090,21.97,-0.007452555906015787,-0.08309512568745003,0.003193952531149623,-0.42183,0.40221,9.86886
5146464595,21.97,-0.04794419455228423,-0.11611675513518273,0.003193952531149623,-0.23544,0.22563,9.89829
5151515100,21.97,-0.07030186227033158,-0.12463396188491506,0.007452555906015787,-0.13734000000000002,0.24525000000000002,10.01601
5156565605,21.97,-0.05752605214573309,-0.14700908289548237,0.003193952531149623,0.0,0.24525000000000002,10.06506
5161616110,21.97,-0.09161233243718235,-0.18216001403064813,0.005323254218582705,0.11772,0.10791,9.98658
5166666615,21.97,-0.09267698328089889,-0.19387117331153014,0.002129301687433082,0.51012,0.11772,9.888480000000001
5171717120,21.97,-0.07243116395776468,-0.13102186694721432,0.003193952531149623,0.7749900000000001,0.039240000000000004,9.78057
5176767625,21.97,-0.07030186227033158,-0.06710790973918197,0.004258603374866164,0.7749900000000001,-0.04905,9.760950000000001
5181818130,21.97,-0.05539675045830002,-0.04153883619746504,0.002129301687433082,0.70632,-0.07848000000000001,9.80019
5186868635,21.97,-0.04581489286485115,-0.013840460968315033,-0.001064650843716541,0.7651800000000001,-0.12753,9.84924
5191919140,21.97,-0.046879543708567686,0.01918116847941768,-0.001064650843716541,0.72594,-0.21582,9.86886
5196969645,21.97,-0.03408628029144926,0.06178465552059926,-0.001064650843716541,0.69651,-0.24525000000000002,9.888480000000001
5202020150,21.97,0.001064650843716541,0.1097288500728835,0.0,0.59841,-0.1962,9.81
5207070655,21.97,0.02663372438543347,0.16404349639494703,-0.004258603374866164,0.46107000000000004,-0.13734000000000002,9.78057
5212121160,21.97,0.05859070298944965,0.20134118251006583,-0.003193952531149623,0.14715,0.019620000000000002,9.770760000000001
5217171665,21.97,0.07349581480148122,0.18428931571808121,-0.005323254218582705,-0.21582,0.22563,9.80019
5222222170,21.97,0.06284930636431581,0.1352804703220805,-0.005323254218582705,-0.35316,0.2943,9.78057
5227272675,21.97,0.04366813788489812,0.1171814059788993,-0.003193952531149623,-0.40221,0.40221,9.82962
5232323180,21.97,0.024504422698000388,0.09693558665576507,-0.002129301687433082,-0.51012,0.5493600000000001,9.87867
5237373685,21.97,0.02556907354171693,0.07883652231258387,0.0,-0.6768900000000001,0.8829,10.06506
5242424190,21.97,0.013840460968315033,0.021310470166850764,-0.001064650843716541,-0.9123300000000001,0.63765,10.025820000000001
5247474695,21.97,-0.09161233243718235,-0.04581489286485115,0.003193952531149623,-0.60822,0.10791,9.99639
5252525200,21.97,-0.09693558665576507,-0.05113814708343386,0.002129301687433082,-0.5591700000000001,0.1962,9.92772
5257575705,21.97,-0.05113814708343386,-0.12995721610349775,0.003193952531149623,-0.56898,0.20601000000000003,9.89829
5262626210,21.97,-0.10866419922916695,-0.16084954386379738,0.005323254218582705,-0.22563,-0.06867000000000001,9.94734
5267676715,21.97,-0.09587093581204853,-0.1757721089683489,0.005323254218582705,-0.11772,0.0,9.87867
5272727220,21.97,-0.05326744877086694,-0.20027653166634932,0.006387905062299246,0.12753,0.04905,9.86886
5277777725,21.97,-0.06178465552059926,-0.19921188082263275,0.005323254218582705,0.42183,0.009810000000000001,9.92772
5282828230,21.97,-0.05752605214573309,-0.16938420390604966,0.004258603374866164,0.64746,0.04905,9.87867
5287878735,21.97,-0.04366813788489812,-0.150203035426632,0.002129301687433082,0.7651800000000001,0.12753,9.83943
5292929240,21.97,-0.05859070298944965,-0.12676326357234816,0.002129301687433082,0.9810000000000001,0.02943,9.80019
5297979745,21.97,-0.05646140130201656,-0.060720004676882725,0.001064650843716541,1.1870100000000001,0.0,9.751140000000001
5303030250,21.97,-0.044732788728614664,0.04260348704118158,0.0,1.0987200000000001,-0.07848000000000001,9.78057
5308080755,21.97,-0.0404741853537485,0.08841837990603273,-0.002129301687433082,0.89271,-0.22563,9.78057
5313131260,21.97,-0.02663372438543347,0.14913838458291545,-0.002129301687433082,0.8142300000000001,-0.26487,9.86886
5318181765,21.97,0.0,0.20453513504121545,-0.005323254218582705,0.46107000000000004,-0.25506,9.89829
5323232270,21.97,0.0170518667919846,0.20879373841608162,-0.006387905062299246,0.13734000000000002,-0.20601000000000003,9.937529999999999
5328282775,21.97,0.03728023282259888,0.20772908757236508,-0.006387905062299246,-0.009810000000000001,-0.12753,9.85905
5333333280,21.97,0.05965535383316618,0.22689280275926285,-0.003193952531149623,-0.24525000000000002,0.0,9.82962
5338383785,21.97,0.07883652231258387,0.20453513504121545,-0.003193952531149623,-0.6278400000000001,0.15696000000000002,9.81
5343434290,21.97,0.07990117315630041,0.13421581947836395,-0.003193952531149623,-0.84366,0.70632,9.86886
5348484795,21.97,0.10012953918691468,0.08309512568745003,-0.004258603374866164,-1.06929,1.29492,10.27107
5353535300,21.97,0.03089232776029963,-0.020245819323134222,0.002129301687433082,-1.3047300000000002,0.72594,9.86886
5358585805,21.97,-0.1480737337391989,-0.13849187614575004,0.003193952531149623,-0.7651800000000001,-0.039240000000000004,10.074869999999999
5363636310,21.97,-0.1097288500728835,-0.15126768627034853,0.002129301687433082,-0.35316,0.24525000000000002,10.09449
5368686815,21.97,-0.04153883619746504,-0.16938420390604966,0.007452555906015787,-0.22563,0.15696000000000002,9.94734
5373737320,21.97,-0.13208651779093086,-0.19387117331153014,0.005323254218582705,-0.13734000000000002,-0.14715,10.23183
5378787825,21.97,-0.09161233243718235,-0.23329816111408203,0.007452555906015787,0.14715,0.0981,10.074869999999999
5383838330,21.97,-0.044732788728614664,-0.21092304010351473,0.006387905062299246,0.60822,0.11772,9.91791
5388888835,21.97,-0.09693558665576507,-0.15446163880149816,0.007452555906015787,0.6867000000000001,-0.08829,9.84924
5393939340,21.97,-0.08203047484373349,-0.14275047952061623,0.004258603374866164,0.79461,-0.04905,9.78057
5398989845,21.97,-0.06391395720803235,-0.08096582400001695,0.001064650843716541,1.03005,-0.13734000000000002,9.67266
5404040350,21.97,-0.0756251164889143,-0.00958185759344887,0.0,1.00062,-0.2943,9.69228
5409090855,21.97,-0.03834488366631542,0.05007349623971732,0.0,0.8829,-0.22563,9.68247
5414141360,21.97,-0.004258603374866164,0.10012953918691468,-0.002129301687433082,0.72594,-0.21582,9.66285
5419191865,21.97,0.002129301687433082,0.14062117783318315,-0.003193952531149623,0.6768900000000001,-0.27468000000000004,9.64323
5424242370,21.97,0.02769837522915001,0.19708257913519966,-0.003193952531149623,0.40221,-0.16677000000000003,9.73152
5429292875,21.97,0.03834488366631542,0.19174187162409706,-0.005323254218582705,0.009810000000000001,-0.12753,9.760950000000001
5434343380,21.97,0.0404741853537485,0.1629788455512305,-0.007452555906015787,-0.04905,-0.07848000000000001,9.84924
5439393885,21.97,0.060720004676882725,0.18748326824923087,-0.004258603374866164,-0.16677000000000003,0.0981,9.86886
5444444390,21.97,0.07670722062515077,0.17364280728091586,-0.004258603374866164,-0.52974,0.24525000000000002,9.95715
5449494895,21.97,0.06391395720803235,0.10653489754173388,-0.002129301687433082,-0.64746,0.6278400000000001,10.006200000000002
5454545400,21.97,0.07349581480148122,0.08096582400001695,-0.002129301687433082,-0.79461,1.15758,10.24164
5459595905,21.97,0.02556907354171693,0.0170518667919846,0.001064650843716541,-1.04967,0.6180300000000001,9.95715
5464646410,21.97,-0.1374272253020335,-0.09267698328089889,0.002129301687433082,-0.72594,0.05886,9.91791
5469696915,21.97,-0.09906488834319814,-0.12037535851004891,0.002129301687433082,-0.45126,0.34335000000000004,9.97677
5474747420,21.97,-0.05646140130201656,-0.14700908289548237,0.004258603374866164,-0.30411,0.17658,9.82962
5479797925,21.97,-0.14700908289548237,-0.17364280728091586,0.006387905062299246,-0.20601000000000003,-0.18639,10.05525
5484848430,21.97,-0.10332349171806432,-0.22476350107182977,0.002129301687433082,-0.009810000000000001,0.019620000000000002,10.08468
5489898935,21.97,-0.06178465552059926,-0.21731094516581398,0.003193952531149623,0.51993,-0.02943,9.99639
5494949440,21.97,-0.10866419922916695,-0.15339698795778162,0.003193952531149623,0.5591700000000001,-0.21582,9.91791
5499999945,21.97,-0.08309512568745003,-0.14913838458291545,0.003193952531149623,0.69651,-0.18639,9.81
5505050450,21.97,-0.05539675045830002,-0.10012953918691468,0.002129301687433082,0.89271,-0.16677000000000003,9.74133
5510100955,21.97,-0.05646140130201656,-0.04366813788489812,0.003193952531149623,0.95157,-0.25506,9.7119
5515151460,21.97,-0.03089232776029963,0.021310470166850764,0.0,0.9613800000000001,-0.20601000000000003,9.74133
5520201965,21.97,-0.011711159280881954,0.07670722062515077,-0.001064650843716541,0.80442,-0.20601000000000003,9.770760000000001
5525252470,21.97,-0.005323254218582705,0.11505210429146619,-0.004258603374866164,0.71613,-0.27468000000000004,9.888480000000001
5530302975,21.97,0.014905111812031574,0.18216001403064813,-0.002129301687433082,0.5886,-0.23544,9.908100000000001
5535353480,21.97,0.028763026072866547,0.21411699263466438,-0.005323254218582705,0.04905,-0.17658,9.97677
5540403985,21.97,0.05113814708343386,0.15233233711406508,-0.004258603374866164,-0.0981,-0.05886,9.94734
5545454490,21.97,0.06817256058289851,0.17470745812463237,-0.002129301687433082,-0.05886,0.10791,9.89829
5550504995,21.97,0.07243116395776468,0.17151350559348277,-0.003193952531149623,-0.41202000000000005,0.22563,9.888480000000001
5555555500,21.97,0.060720004676882725,0.12144000935376545,-0.002129301687433082,-0.56898,0.38259000000000004,9.91791
5560606005,21.97,0.04260348704118158,0.08841837990603273,-0.002129301687433082,-0.59841,0.7749900000000001,9.99639
5565656510,21.97,0.02982767691658309,0.05646140130201656,0.0,-1.02024,0.65727,10.34955
5570707015,21.97,-0.07670722062515077,-0.0756251164889143,0.002129301687433082,-0.8240400000000001,0.13734000000000002,9.73152
5575757520,21.97,-0.10119419003063122,-0.10119419003063122,0.002129301687433082,-0.41202000000000005,0.34335000000000004,9.96696
5580808025,21.97,-0.03621558197888234,-0.1278279144160647,0.004258603374866164,-0.33354000000000006,0.28449,9.80019
5585858530,21.97,-0.11505210429146619,-0.1278279144160647,0.005323254218582705,-0.13734000000000002,-0.06867000000000001,9.908100000000001
5590909035,21.97,-0.11611675513518273,-0.15446163880149816,0.007452555906015787,-0.21582,-0.009810000000000001,9.888480000000001
5595959540,21.97,-0.07136651311404815,-0.22476350107182977,0.003193952531149623,0.11772,0.019620000000000002,9.85905
5601010045,21.97,-0.10545279340549739,-0.19600047499896323,0.005323254218582705,0.52974,-0.15696000000000002,9.86886
5606060550,21.97,-0.10545279340549739,-0.1629788455512305,0.005323254218582705,0.60822,-0.20601000000000003,9.79038
5611111055,21.97,-0.06710790973918197,-0.13102186694721432,0.003193952531149623,0.84366,-0.20601000000000003,9.79038
5616161560,21.97,-0.05859070298944965,-0.06710790973918197,0.001064650843716541,0.95157,-0.30411,9.81
5621212065,21.97,-0.04260348704118158,-0.003193952531149623,0.001064650843716541,0.8829,-0.24525000000000002,9.79038
5626262570,21.97,-0.012775810124598492,0.01811651763570114,-0.001064650843716541,0.73575,-0.21582,9.760950000000001
5631313075,21.97,-0.005323254218582705,0.0404741853537485,-0.004258603374866164,0.8142300000000001,-0.17658,9.73152
5636363580,21.97,-0.002129301687433082,0.11079350091660004,-0.001064650843716541,0.85347,-0.20601000000000003,9.73152
5641414085,21.97,0.0170518667919846,0.19708257913519966,-0.004258603374866164,0.52974,-0.17658,9.80019
5646464590,21.97,0.02769837522915001,0.20559978588493202,-0.004258603374866164,0.14715,-0.21582,9.84924
5651515095,21.97,0.033021629447732716,0.21198769094723127,-0.003193952531149623,-0.039240000000000004,-0.11772,9.95715
5656565600,21.97,0.06178465552059926,0.18854791909294744,-0.005323254218582705,-0.35316,0.039240000000000004,9.99639
5661616105,21.97,0.07030186227033158,0.1480737337391989,-0.006387905062299246,-0.46107000000000004,0.24525000000000002,9.94734
5666666610,21.97,0.054332099614583476,0.11505210429146619,-0.002129301687433082,-0.52974,0.30411,9.94734
5671717115,21.97,0.02663372438543347,0.09054768159346581,-0.002129301687433082,-0.56898,0.6670800000000001,9.94734
5676767620,21.97,0.02982767691658309,0.07030186227033158,0.0,-0.9908100000000001,0.6867000000000001,10.34955
5681818125,21.97,-0.06284930636431581,-0.05752605214573309,0.002129301687433082,-1.04967,0.14715,9.751140000000001
5686868630,21.97,-0.10332349171806432,-0.15978489302008084,0.001064650843716541,-0.49050000000000005,0.25506,9.96696
5691919135,21.97,-0.03408628029144926,-0.1374272253020335,0.005323254218582705,-0.24525000000000002,0.34335000000000004,10.06506
5696969640,21.97,-0.09906488834319814,-0.16084954386379738,0.006387905062299246,-0.21582,-0.019620000000000002,10.025820000000001
5702020145,21.97,-0.13634512116579703,-0.1832246648743647,0.005323254218582705,0.019620000000000002,-0.13734000000000002,10.074869999999999
5707070650,21.97,-0.08841837990603273,-0.18428931571808121,0.003193952531149623,0.1962,-0.06867000000000001,10.09449
5712121155,21.97,-0.10119419003063122,-0.19067722078038052,0.006387905062299246,0.38259000000000004,-0.25506,9.98658
5717171660,21.97,-0.10119419003063122,-0.18748326824923087,0.006387905062299246,0.6180300000000001,-0.24525000000000002,9.87867
5722222165,21.97,-0.05965535383316618,-0.14913838458291545,0.003193952531149623,0.89271,-0.18639,9.81
5727272670,21.97,-0.05113814708343386,-0.07030186227033158,0.002129301687433082,1.04967,-0.28449,9.72171
5732323175,21.97,-0.05220279792715039,0.0170518667919846,0.001064650843716541,0.9908100000000001,-0.38259000000000004,9.80019
5737373680,21.97,-0.028763026072866547,0.05007349623971732,0.0,0.6867000000000001,-0.31392000000000003,9.74133
5742424185,21.97,-0.005323254218582705,0.05326744877086694,-0.003193952531149623,0.7749900000000001,-0.26487,9.72171
5747474690,21.97,0.011711159280881954,0.1352804703220805,-0.004258603374866164,0.69651,-0.20601000000000003,9.67266
5752525195,21.97,0.02982767691658309,0.17470745812463237,-0.001064650843716541,0.46107000000000004,-0.13734000000000002,9.67266
5757575700,21.97,0.04260348704118158,0.20347048419749894,-0.003193952531149623,0.23544,-0.07848000000000001,9.69228
5762626205,21.97,0.04581489286485115,0.21944024685324706,-0.005323254218582705,-0.10791,-0.05886,9.80019
5767676710,21.97,0.046879543708567686,0.18748326824923087,-0.003193952531149623,-0.41202000000000005,0.05886,9.87867
5772727215,21.97,0.05007349623971732,0.14062117783318315,-0.002129301687433082,-0.5493600000000001,0.18639,9.89829
5777777720,21.97,0.049008845396000776,0.08628907821859966,-0.003193952531149623,-0.56898,0.26487,9.97677
5782828225,21.97,0.02663372438543347,0.06284930636431581,0.0,-0.5493600000000001,0.44145,9.937529999999999
5787878730,21.97,0.021310470166850764,0.03408628029144926,0.0,-0.7848,0.57879,10.06506
5792929235,21.97,-0.01811651763570114,-0.05007349623971732,0.002129301687433082,-0.7848,0.33354000000000006,9.86886
5797979740,21.97,-0.07990117315630041,-0.1171814059788993,0.003193952531149623,-0.47088,0.31392000000000003,10.03563
5803030245,21.97,-0.06604325889546543,-0.12676326357234816,0.002129301687433082,-0.2943,0.32373,9.92772
5808080750,21.97,-0.10759954838545042,-0.16404349639494703,0.006387905062299246,-0.17658,0.0,9.91791
5813131255,21.97,-0.1374272253020335,-0.17151350559348277,0.005323254218582705,0.02943,-0.10791,10.06506
5818181760,21.97,-0.10866419922916695,-0.17470745812463237,0.003193952531149623,0.23544,-0.14715,9.97677
5823232265,21.97,-0.11079350091660004,-0.1555262896452147,0.005323254218582705,0.42183,-0.32373,10.01601
5828282770,21.97,-0.10759954838545042,-0.1416858286768997,0.004258603374866164,0.49050000000000005,-0.36297,9.937529999999999
5833333275,21.97,-0.06923721142661506,-0.1331511686346474,0.003193952531149623,0.70632,-0.31392000000000003,9.85905
5838383780,21.97,-0.05326744877086694,-0.07990117315630041,0.003193952531149623,0.90252,-0.34335000000000004,9.760950000000001
5843434285,21.97,-0.046879543708567686,-0.020245819323134222,0.0,0.84366,-0.34335000000000004,9.78057
5848484790,21.97,-0.015987215948268057,0.0170518667919846,0.0,0.84366,-0.35316,9.751140000000001
5853535295,21.97,-0.003193952531149623,0.0756251164889143,-0.001064650843716541,0.74556,-0.31392000000000003,9.80019
5858585800,21.97,0.01811651763570114,0.10545279340549739,0.0,0.6670800000000001,-0.26487,9.85905
5863636305,21.97,0.03621558197888234,0.16510814723866357,-0.003193952531149623,0.51993,-0.17658,9.908100000000001
5868686810,21.97,0.04260348704118158,0.177901410655782,-0.003193952531149623,0.14715,-0.12753,9.94734
5873737315,21.97,0.05007349623971732,0.16084954386379738,-0.004258603374866164,0.02943,-0.019620000000000002,9.99639
5878787820,21.97,0.05326744877086694,0.16938420390604966,-0.005323254218582705,-0.13734000000000002,0.05886,9.95715
5883838325,21.97,0.044732788728614664,0.150203035426632,-0.004258603374866164,-0.38259000000000004,0.16677000000000003,9.95715
5888888830,21.97,0.03515093113516579,0.11505210429146619,-0.001064650843716541,-0.43164,0.24525000000000002,9.96696
5893939335,21.97,0.020245819323134222,0.09161233243718235,0.0,-0.56898,0.24525000000000002,9.97677
5898989840,21.97,0.001064650843716541,0.03621558197888234,0.0,-0.72594,0.26487,9.95715
5904040345,21.97,-0.01064650843716541,-0.022375121010567305,0.001064650843716541,-0.6278400000000001,0.33354000000000006,9.937529999999999
5909090850,21.97,-0.03621558197888234,-0.05965535383316618,0.003193952531149623,-0.52974,0.32373,9.888480000000001
5914141355,21.97,-0.06710790973918197,-0.10653489754173388,0.004258603374866164,-0.41202000000000005,0.26487,9.86886
5919191860,21.97,-0.09267698328089889,-0.12569861272863161,0.004258603374866164,-0.25506,0.08829,9.83943
5924242365,21.97,-0.10759954838545042,-0.14700908289548237,0.007452555906015787,-0.24525000000000002,-0.02943,9.87867
5929292870,21.97,-0.10653489754173388,-0.19921188082263275,0.006387905062299246,-0.009810000000000001,-0.0981,9.888480000000001
5934343375,21.97,-0.10438814256178083,-0.19600047499896323,0.006387905062299246,0.33354000000000006,-0.20601000000000003,9.908100000000001
5939393880,21.97,-0.10438814256178083,-0.16831955306233315,0.003193952531149623,0.5493600000000001,-0.30411,9.84924
5944444385,21.97,-0.09267698328089889,-0.1278279144160647,0.003193952531149623,0.69651,-0.35316,9.819809999999999
5949494890,21.97,-0.07349581480148122,-0.08948303074974927,0.001064650843716541,0.75537,-0.40221,9.82962
5954545395,21.97,-0.05113814708343386,-0.05539675045830002,0.002129301687433082,0.79461,-0.40221,9.78057
5959595900,21.97,-0.03089232776029963,-0.013840460968315033,0.003193952531149623,0.84366,-0.35316,9.760950000000001
5964646405,21.97,-0.01064650843716541,0.039409534510031964,-0.001064650843716541,0.8338500000000001,-0.34335000000000004,9.770760000000001
5969696910,21.97,0.00958185759344887,0.08096582400001695,-0.001064650843716541,0.75537,-0.24525000000000002,9.7119
5974747415,21.97,0.01811651763570114,0.13955652698946658,-0.003193952531149623,0.70632,-0.24525000000000002,9.81
5979797920,21.97,0.020245819323134222,0.18428931571808121,-0.005323254218582705,0.32373,-0.26487,9.89829
5984848425,21.97,0.03515093113516579,0.17151350559348277,-0.004258603374866164,0.039240000000000004,-0.16677000000000003,9.98658
5989898930,21.97,0.05539675045830002,0.16084954386379738,-0.003193952531149623,-0.04905,0.0,9.95715
5994949435,21.97,0.054332099614583476,0.1480737337391989,-0.004258603374866164,-0.23544,0.05886,9.94734
5999999940,21.97,0.039409534510031964,0.1352804703220805,-0.003193952531149623,-0.32373,0.11772,9.98658
6005050445,21.97,0.031956978604016174,0.1288925652597812,0.0,-0.52974,0.22563,9.96696
6010100950,21.97,0.0170518667919846,0.0756251164889143,0.0,-0.6670800000000001,0.24525000000000002,9.99639
6015151455,21.97,-0.008517206749732328,0.008517206749732328,0.0,-0.73575,0.23544,10.03563
6020201960,21.97,-0.024504422698000388,-0.04794419455228423,-0.001064650843716541,-0.59841,0.27468000000000004,10.025820000000001
6025252465,21.97,-0.04581489286485115,-0.0756251164889143,0.001064650843716541,-0.48069000000000006,0.22563,9.96696
6030302970,21.97,-0.06923721142661506,-0.09800023749948161,0.004258603374866164,-0.33354000000000006,0.13734000000000002,10.006200000000002
6035353475,21.97,-0.09161233243718235,-0.11931070766633237,0.004258603374866164,-0.25506,-0.019620000000000002,10.006200000000002
6040403980,21.97,-0.09906488834319814,-0.14275047952061623,0.004258603374866164,-0.15696000000000002,-0.08829,10.006200000000002
6045454485,21.97,-0.09587093581204853,-0.18961256993666398,0.002129301687433082,-0.009810000000000001,-0.11772,9.97677
6050504990,21.97,-0.09906488834319814,-0.20347048419749894,0.004258603374866164,0.33354000000000006,-0.21582,9.888480000000001
6055555495,21.97,-0.08948303074974927,-0.18109536318693162,0.004258603374866164,0.56898,-0.26487,9.83943
6060606000,21.97,-0.07670722062515077,-0.1288925652597812,0.003193952531149623,0.84366,-0.33354000000000006,9.82962
6065656505,21.97,-0.0756251164889143,-0.06710790973918197,0.005323254218582705,0.70632,-0.41202000000000005,9.83943
6070707010,21.97,-0.05326744877086694,-0.06497860805174888,0.002129301687433082,0.7651800000000001,-0.40221,9.819809999999999
6075757515,21.97,-0.03089232776029963,-0.020245819323134222,0.0,0.89271,-0.36297,9.7119
6080808020,21.97,-0.007452555906015787,0.02556907354171693,-0.001064650843716541,0.84366,-0.27468000000000004,9.68247
6085858525,21.97,0.003193952531149623,0.07883652231258387,-0.002129301687433082,0.8338500000000001,-0.24525000000000002,9.69228
6090909030,21.97,0.00958185759344887,0.150203035426632,-0.003193952531149623,0.63765,-0.31392000000000003,9.7119
6095959535,21.97,0.014905111812031574,0.18216001403064813,-0.003193952531149623,0.31392000000000003,-0.30411,9.81
6101010040,21.97,0.03515093113516579,0.16938420390604966,-0.004258603374866164,0.08829,-0.16677000000000003,9.89829
6106060545,21.97,0.04794419455228423,0.16617279808238014,-0.005323254218582705,-0.039240000000000004,-0.0981,9.86886
6111111050,21.97,0.049008845396000776,0.16084954386379738,-0.004258603374866164,-0.18639,0.0,9.888480000000001
6116161555,21.97,0.04581489286485115,0.15978489302008084,-0.001064650843716541,-0.30411,0.06867000000000001,9.91791
6121212060,21.97,0.03408628029144926,0.13421581947836395,-0.003193952531149623,-0.6278400000000001,0.14715,9.91791
6126262565,21.97,0.02769837522915001,0.05752605214573309,-0.002129301687433082,-0.72594,0.24525000000000002,9.94734
6131313070,21.97,0.005323254218582705,0.01064650843716541,0.0,-0.6180300000000001,0.26487,9.94734
6136363575,21.97,-0.02982767691658309,-0.04153883619746504,0.001064650843716541,-0.6670800000000001,0.22563,9.937529999999999
6141414080,21.97,-0.05326744877086694,-0.08628907821859966,0.002129301687433082,-0.47088,0.1962,9.92772
6146464585,21.97,-0.06284930636431581,-0.10438814256178083,0.002129301687433082,-0.33354000000000006,0.13734000000000002,9.96696
6151515090,21.97,-0.08735372906231618,-0.12463396188491506,0.006387905062299246,-0.26487,0.0,10.03563
6156565595,21.97,-0.10438814256178083,-0.15872024217636432,0.006387905062299246,-0.12753,-0.10791,10.025820000000001
6161616100,21.97,-0.10759954838545042,-0.18109536318693162,0.004258603374866164,0.0981,-0.17658,9.96696
6166666605,21.97,-0.10119419003063122,-0.18535396656179778,0.005323254218582705,0.33354000000000006,-0.24525000000000002,9.908100000000001
6171717110,21.97,-0.09161233243718235,-0.1555262896452147,0.004258603374866164,0.5395500000000001,-0.31392000000000003,9.89829
6176767615,21.97,-0.09161233243718235,-0.12250466019748199,0.003193952531149623,0.6670800000000001,-0.44145,9.83943
6181818120,21.97,-0.07777187146886733,-0.0852244273748831,0.003193952531149623,0.72594,-0.48069000000000006,9.84924
6186868625,21.97,-0.04581489286485115,-0.05220279792715039,0.001064650843716541,0.7848,-0.46107000000000004,9.83943
6191919130,21.97,-0.02769837522915001,-0.015987215948268057,-0.001064650843716541,0.75537,-0.41202000000000005,9.85905
6196969635,21.97,-0.01064650843716541,0.0170518667919846,0.0,0.8240400000000001,-0.42183,9.819809999999999
6202020140,21.97,0.005323254218582705,0.07883652231258387,0.0,0.7651800000000001,-0.35316,9.83943
6207070645,21.97,0.02556907354171693,0.11931070766633237,-0.002129301687433082,0.56898,-0.30411,9.908100000000001
6212121150,21.97,0.03834488366631542,0.13102186694721432,-0.005323254218582705,0.3924,-0.20601000000000003,9.908100000000001
6217171655,21.97,0.04366813788489812,0.14381513036433274,-0.003193952531149623,0.2943,-0.11772,9.98658
6222222160,21.97,0.03408628029144926,0.16404349639494703,-0.003193952531149623,0.0981,-0.08829,9.98658
6227272665,21.97,0.03408628029144926,0.15126768627034853,-0.003193952531149623,-0.16677000000000003,-0.019620000000000002,9.99639
6232323170,21.97,0.044732788728614664,0.12995721610349775,-0.001064650843716541,-0.22563,0.11772,9.99639
6237373675,21.97,0.02982767691658309,0.12144000935376545,-0.002129301687433082,-0.35316,0.14715,9.92772
6242424180,21.97,0.006387905062299246,0.09800023749948161,-0.001064650843716541,-0.52974,0.13734000000000002,9.92772
6247474685,21.97,-0.013840460968315033,0.05220279792715039,0.002129301687433082,-0.6180300000000001,0.11772,9.86886
6252525190,21.97,-0.02663372438543347,-0.006387905062299246,0.001064650843716541,-0.6768900000000001,0.12753,9.82962
6257575695,21.97,-0.03621558197888234,-0.05220279792715039,0.0,-0.5493600000000001,0.12753,9.80019
6262626200,21.97,-0.05113814708343386,-0.07349581480148122,0.0,-0.41202000000000005,0.02943,9.81
6267676705,21.97,-0.07456046564519776,-0.09480628496833199,0.003193952531149623,-0.32373,-0.06867000000000001,9.819809999999999
6272727210,21.97,-0.08841837990603273,-0.1171814059788993,0.002129301687433082,-0.25506,-0.17658,9.888480000000001
6277777715,21.97,-0.07990117315630041,-0.1480737337391989,0.003193952531149623,-0.13734000000000002,-0.15696000000000002,9.888480000000001
6282828220,21.97,-0.07883652231258387,-0.16510814723866357,0.004258603374866164,0.10791,-0.1962,9.87867
6287878725,21.97,-0.07883652231258387,-0.15233233711406508,0.006387905062299246,0.38259000000000004,-0.32373,9.81
6292929230,21.97,-0.07670722062515077,-0.12144000935376545,0.002129301687433082,0.43164,-0.34335000000000004,9.84924
6297979735,21.97,-0.05646140130201656,-0.11398745344774965,0.002129301687433082,0.52974,-0.2943,9.84924
6303030240,21.97,-0.04260348704118158,-0.08415977653116657,0.001064650843716541,0.75537,-0.32373,9.82962
6308080745,21.97,-0.04260348704118158,-0.039409534510031964,0.002129301687433082,0.72594,-0.37278,9.87867
6313131250,21.97,-0.033021629447732716,-0.014905111812031574,0.0,0.73575,-0.41202000000000005,9.888480000000001
6318181755,21.97,-0.013840460968315033,0.014905111812031574,0.0,0.74556,-0.31392000000000003,9.86886
6323232260,21.97,0.004258603374866164,0.05646140130201656,0.0,0.73575,-0.25506,9.937529999999999
6328282765,21.97,0.005323254218582705,0.09480628496833199,-0.002129301687433082,0.6180300000000001,-0.25506,9.888480000000001
6333333270,21.97,0.003193952531149623,0.12676326357234816,-0.001064650843716541,0.41202000000000005,-0.28449,9.97677
6338383775,21.97,0.008517206749732328,0.1278279144160647,-0.004258603374866164,0.22563,-0.25506,9.96696
6343434280,21.97,0.021310470166850764,0.12250466019748199,-0.004258603374866164,0.07848000000000001,-0.14715,9.94734
6348484785,21.97,0.031956978604016174,0.11505210429146619,-0.004258603374866164,0.0,-0.04905,9.95715
6353535290,21.97,0.021310470166850764,0.12144000935376545,0.0,-0.04905,-0.07848000000000001,9.92772
6358585795,21.97,0.00958185759344887,0.13208651779093086,0.0,-0.2943,-0.04905,9.937529999999999
6363636300,21.97,0.011711159280881954,0.09161233243718235,-0.002129301687433082,-0.51993,0.0,9.92772
6368686805,21.97,0.005323254218582705,0.031956978604016174,-0.001064650843716541,-0.52974,0.02943,9.92772
6373737310,21.97,-0.013840460968315033,0.003193952531149623,-0.001064650843716541,-0.48069000000000006,0.039240000000000004,9.94734
6378787815,21.97,-0.028763026072866547,-0.028763026072866547,0.001064650843716541,-0.42183,0.04905,9.89829
6383838320,21.97,-0.03515093113516579,-0.05007349623971732,0.002129301687433082,-0.36297,-0.009810000000000001,9.94734
6388888825,21.97,-0.05113814708343386,-0.07883652231258387,0.002129301687433082,-0.2943,-0.039240000000000004,9.97677
6393939330,21.97,-0.06604325889546543,-0.09267698328089889,0.003193952531149623,-0.20601000000000003,-0.11772,10.01601
6398989835,21.97,-0.07349581480148122,-0.11611675513518273,0.002129301687433082,-0.08829,-0.18639,9.98658
6404040340,21.97,-0.07243116395776468,-0.1331511686346474,0.003193952531149623,0.07848000000000001,-0.22563,9.95715
6409090845,21.97,-0.060720004676882725,-0.12569861272863161,0.004258603374866164,0.26487,-0.22563,9.87867
6414141350,21.97,-0.05646140130201656,-0.09693558665576507,0.003193952531149623,0.38259000000000004,-0.26487,9.819809999999999
6419191855,21.97,-0.06284930636431581,-0.07456046564519776,0.003193952531149623,0.47088,-0.33354000000000006,9.81
6424242360,21.97,-0.06178465552059926,-0.04794419455228423,0.001064650843716541,0.50031,-0.41202000000000005,9.79038
6429292865,21.97,-0.044732788728614664,-0.03515093113516579,0.0,0.45126,-0.40221,9.79038
6434343370,21.97,-0.023439771854283843,-0.021310470166850764,0.0,0.51993,-0.32373,9.72171
6439393875,21.97,-0.015987215948268057,0.014905111812031574,0.0,0.5493600000000001,-0.35316,9.74133
6444444380,21.97,-0.011711159280881954,0.04581489286485115,0.0,0.48069000000000006,-0.32373,9.79038
6449494885,21.97,0.006387905062299246,0.05539675045830002,-0.001064650843716541,0.38259000000000004,-0.28449,9.81
6454545390,21.97,0.015987215948268057,0.06284930636431581,-0.003193952531149623,0.31392000000000003,-0.20601000000000003,9.86886
6459595895,21.97,0.011711159280881954,0.06710790973918197,0.0,0.23544,-0.16677000000000003,9.86886
6464646400,21.97,0.002129301687433082,0.07670722062515077,-0.001064650843716541,0.13734000000000002,-0.18639,9.94734
6469696905,21.97,0.01064650843716541,0.060720004676882725,-0.002129301687433082,0.04905,-0.0981,9.97677
6474747410,21.97,0.014905111812031574,0.049008845396000776,0.0,0.06867000000000001,-0.02943,9.92772
6479797915,21.97,0.01064650843716541,0.05752605214573309,-0.001064650843716541,0.019620000000000002,0.0,10.01601
6484848420,21.97,-0.006387905062299246,0.05113814708343386,-0.002129301687433082,-0.019620000000000002,-0.05886,10.01601
6489898925,21.97,-0.03621558197888234,0.05007349623971732,0.0,-0.14715,-0.15696000000000002,9.97677
6494949430,21.97,-0.03515093113516579,0.01064650843716541,0.0,-0.30411,-0.11772,9.94734
6499999935,21.97,-0.02769837522915001,-0.02769837522915001,0.001064650843716541,-0.14715,-0.08829,9.908100000000001
6505050440,21.97,-0.03621558197888234,-0.01918116847941768,0.0,-0.07848000000000001,-0.16677000000000003,9.91791
6510100945,21.97,-0.04581489286485115,-0.01811651763570114,0.004258603374866164,-0.039240000000000004,-0.20601000000000003,9.89829
6515151450,21.97,-0.04366813788489812,-0.01918116847941768,0.001064650843716541,-0.08829,-0.24525000000000002,9.888480000000001
6520201955,21.97,-0.044732788728614664,-0.03515093113516579,0.002129301687433082,-0.12753,-0.28449,9.97677
6525252460,21.97,-0.046879543708567686,-0.06391395720803235,0.002129301687433082,-0.009810000000000001,-0.31392000000000003,9.908100000000001
6530302965,21.97,-0.0404741853537485,-0.06284930636431581,0.001064650843716541,0.07848000000000001,-0.25506,9.85905
6535353470,21.97,-0.02556907354171693,-0.06817256058289851,0.002129301687433082,0.17658,-0.26487,9.81
6540403975,21.97,-0.01918116847941768,-0.04581489286485115,0.0,0.31392000000000003,-0.20601000000000003,9.78057
6545454480,21.97,-0.014905111812031574,-0.01918116847941768,0.001064650843716541,0.30411,-0.18639,9.81
6550504985,21.97,-0.024504422698000388,-0.005323254218582705,0.0,0.28449,-0.26487,9.84924
6555555490,21.97,-0.03621558197888234,0.008517206749732328,0.0,0.24525000000000002,-0.30411,9.87867
6560605995,21.97,-0.031956978604016174,0.006387905062299246,0.0,0.20601000000000003,-0.32373,9.888480000000001
6565656500,21.97,-0.01918116847941768,0.006387905062299246,0.0,0.23544,-0.26487,9.89829
6570707005,21.97,-0.00958185759344887,0.024504422698000388,-0.001064650843716541,0.28449,-0.2943,9.86886
6575757510,21.97,-0.00958185759344887,0.04260348704118158,0.001064650843716541,0.14715,-0.27468000000000004,9.96696
6580808015,21.97,0.002129301687433082,0.02769837522915001,0.0,0.08829,-0.21582,9.99639
6585858520,21.97,-0.007452555906015787,0.02663372438543347,-0.001064650843716541,0.05886,-0.21582,10.025820000000001
6590909025,21.97,-0.015987215948268057,0.003193952531149623,-0.002129301687433082,0.0,-0.22563,10.03563
6595959530,21.97,-0.01918116847941768,-0.001064650843716541,0.0,0.08829,-0.22563,9.95715
6601010035,21.97,-0.015987215948268057,0.002129301687433082,0.0,0.05886,-0.17658,9.937529999999999
6606060540,21.97,-0.003193952531149623,-0.00958185759344887,0.002129301687433082,0.11772,-0.0981,9.91791
6611111045,21.97,0.002129301687433082,-0.007452555906015787,0.0,0.11772,-0.039240000000000004,9.937529999999999
6616161550,21.97,-0.01811651763570114,-0.013840460968315033,0.002129301687433082,0.11772,-0.05886,9.92772
6621212055,21.97,-0.046879543708567686,-0.01811651763570114,0.0,0.12753,-0.18639,9.908100000000001
6626262560,21.97,-0.05646140130201656,-0.024504422698000388,0.0,0.13734000000000002,-0.26487,9.888480000000001
6631313065,21.97,-0.05326744877086694,-0.02982767691658309,0.0,0.17658,-0.28449,9.83943
6636363570,21.97,-0.0404741853537485,-0.015987215948268057,0.0,0.26487,-0.30411,9.819809999999999
6641414075,21.97,-0.02663372438543347,0.011711159280881954,0.0,0.1962,-0.33354000000000006,9.80019
6646464580,21.97,-0.021310470166850764,0.0170518667919846,0.001064650843716541,0.0981,-0.35316,9.85905
6651515085,21.97,-0.012775810124598492,0.003193952531149623,-0.001064650843716541,0.07848000000000001,-0.28449,9.908100000000001
6656565590,21.97,-0.020245819323134222,-0.00958185759344887,-0.001064650843716541,0.15696000000000002,-0.32373,9.87867
6661616095,21.97,-0.033021629447732716,-0.008517206749732328,0.001064650843716541,0.14715,-0.32373,9.82962
6666666600,21.97,-0.014905111812031574,-0.003193952531149623,0.0,0.20601000000000003,-0.28449,9.82962
6671717105,21.97,0.005323254218582705,0.0170518667919846,-0.002129301687433082,0.21582,-0.21582,9.81
6676767610,21.97,0.014905111812031574,0.039409534510031964,0.0,0.15696000000000002,-0.13734000000000002,9.82962
6681818115,21.97,0.00958185759344887,0.02982767691658309,-0.001064650843716541,0.08829,-0.0981,9.87867
6686868620,21.97,-0.012775810124598492,0.02556907354171693,0.0,0.039240000000000004,-0.17658,9.91791
6691919125,21.97,-0.02769837522915001,0.0,0.0,-0.009810000000000001,-0.17658,9.92772
6696969630,21.97,-0.033021629447732716,-0.007452555906015787,0.0,0.08829,-0.20601000000000003,9.92772
6702020135,21.97,-0.03089232776029963,0.011711159280881954,0.0,0.11772,-0.24525000000000002,9.86886
6707070640,21.97,-0.024504422698000388,0.01811651763570114,-0.001064650843716541,0.05886,-0.24525000000000002,9.87867
6712121145,21.97,-0.014905111812031574,0.024504422698000388,0.0,0.0,-0.21582,9.89829
6717171650,21.97,-0.0170518667919846,0.008517206749732328,0.0,-0.11772,-0.22563,9.908100000000001
6722222155,21.97,-0.024504422698000388,-0.02556907354171693,0.0,-0.02943,-0.23544,9.937529999999999
6727272660,21.97,-0.03834488366631542,-0.02663372438543347,0.001064650843716541,0.04905,-0.2943,9.95715
6732323165,21.97,-0.05007349623971732,-0.01918116847941768,0.002129301687433082,0.039240000000000004,-0.3924,9.91791
6737373670,21.97,-0.02769837522915001,-0.02663372438543347,0.0,0.04905,-0.32373,9.908100000000001
6742424175,21.97,-0.003193952531149623,-0.023439771854283843,0.0,0.13734000000000002,-0.23544,9.91791
6747474680,21.97,-0.002129301687433082,-0.020245819323134222,0.0,0.14715,-0.20601000000000003,9.89829
6752525185,21.97,-0.008517206749732328,-0.022375121010567305,0.0,0.17658,-0.17658,9.908100000000001
6757575690,21.97,-0.021310470166850764,-0.011711159280881954,0.0,0.20601000000000003,-0.21582,9.908100000000001
6762626195,21.97,-0.033021629447732716,-0.0170518667919846,0.0,0.18639,-0.24525000000000002,9.92772
6767676700,21.97,-0.039409534510031964,-0.004258603374866164,-0.001064650843716541,0.21582,-0.33354000000000006,9.91791
6772727205,21.97,-0.03408628029144926,0.005323254218582705,0.0,0.21582,-0.36297,9.94734
6777777710,21.97,-0.020245819323134222,0.004258603374866164,0.0,0.14715,-0.2943,9.92772
6782828215,21.97,0.0,0.001064650843716541,0.0,0.18639,-0.21582,9.94734
6787878720,21.97,-0.002129301687433082,0.011711159280881954,-0.001064650843716541,0.15696000000000002,-0.20601000000000003,9.96696
6792929225,21.97,-0.0170518667919846,0.005323254218582705,0.0,0.15696000000000002,-0.27468000000000004,9.95715
6797979730,21.97,-0.02769837522915001,0.015987215948268057,0.0,0.14715,-0.32373,9.94734
6803030235,21.97,-0.028763026072866547,0.012775810124598492,0.0,0.06867000000000001,-0.36297,9.937529999999999
6808080740,21.97,-0.012775810124598492,-0.003193952531149623,0.0,0.07848000000000001,-0.2943,9.98658
6813131245,21.97,0.002129301687433082,0.002129301687433082,0.0,0.13734000000000002,-0.24525000000000002,9.94734
6818181750,21.97,0.002129301687433082,0.0,0.0,0.13734000000000002,-0.1962,9.92772
6823232255,21.97,-0.006387905062299246,0.002129301687433082,0.0,0.0981,-0.15696000000000002,9.92772
6828282760,21.97,-0.01064650843716541,-0.004258603374866164,0.0,0.10791,-0.13734000000000002,9.82962
6833333265,21.97,-0.02663372438543347,-0.002129301687433082,0.0,0.12753,-0.20601000000000003,9.81
6838383770,21.97,-0.03621558197888234,-0.006387905062299246,0.0,0.07848000000000001,-0.26487,9.81
