#timestamp [ns], temperature [degC], w_RS_S_x [rad s^-1], w_RS_S_y [rad s^-1], w_RS_S_z [rad s^-1], a_RS_S_x [m s^-2], a_RS_S_y [m s^-2], a_RS_S_z [m s^-2]
0.0,22.47,0.0,0.0,0.0,0.02943,0.15696,9.78057
5000000.0,22.47,0.0,0.0,0.0,0.02943,0.147248099902881,9.770858099902881
10000000.0,22.47,0.0,0.0,0.0,0.02943,0.14715,9.780373800194239
15000000.0,22.47,0.0,0.0,0.0,0.019914299708642995,0.175697100874071,9.799601400582715
20000000.0,22.47,0.0,0.0,0.0,0.01962,0.17658,9.819025200776952
25000000.0,22.47,0.0,0.0,0.0,0.028939500485595005,0.148621498543215,9.810490499514405
30000000.0,22.47,0.0,0.0,0.0,0.02020859941728599,0.14715,9.81
35000000.0,22.47,0.0,0.0,0.0,0.010496699320166992,0.14715,9.773506797280668
40000000.0,22.47,0.0,0.0,0.0,0.04591080310780803,0.14715,9.779785200776953
45000000.0,22.47,0.0,0.0,0.0,0.04012289912592899,0.165004201748142,9.798424201748142
50000000.0,22.47,0.0,0.0,0.0,0.03041099902880999,0.15794099902880998,9.80019
55000000.0,22.47,0.0,0.0,0.0,0.020699098931690987,0.15696,9.80892090106831
60000000.0,22.47,0.0,0.0,0.0,0.03688560233085603,0.148327198834572,9.818632801165428
65000000.0,22.47,0.0,0.0,0.0,0.005101194949811948,0.13861529873745299,9.802740597474907
70000000.0,22.47,0.0,0.0,0.0,0.008436601359666014,0.13734,9.808626601359666
75000000.0,22.47,0.0,0.0,0.0,0.018148501456785014,0.16235550437035504,9.793322997086431
80000000.0,22.47,0.0,0.0,0.0,0.01962,0.18325080310780803,9.798620401553904
85000000.0,22.47,0.0,0.0,0.0,0.05218920660409206,0.17824769834897697,9.77576309504693
90000000.0,22.47,0.0,0.0,0.0,0.05886,0.17658,9.794892605244426
95000000.0,22.47,0.0,0.0,0.0,0.04296779630947796,0.1368494907736949,9.80019
100000000.0,22.47,0.0,0.0,0.0,0.023543996115239958,0.11968199805761999,9.81588600388476
105000000.0,22.47,0.0,0.0,0.0,0.004120195921001957,0.10222019592100197,9.796560293881504
110000000.0,22.47,0.0,0.0,0.0,0.015303604273236043,0.15166261495632616,9.79038
115000000.0,22.47,0.0,0.0,0.0,0.004512595532525953,0.18187740446747405,9.805487404467474
120000000.0,22.47,0.0,0.0,0.0,0.014911204661712047,0.17893439766914396,9.81
125000000.0,22.47,0.0,0.0,0.0,0.03433500485595005,0.16922249757202498,9.81
130000000.0,22.47,0.0,0.0,0.0,0.03924,0.15951059747490598,9.81
135000000.0,22.47,0.0,0.0,0.0,0.04640130262221303,0.15696,9.802838697377787
140000000.0,22.47,0.0,0.0,0.0,0.020797189122671894,0.13577039184200393,9.814316405438664
145000000.0,22.47,0.0,0.0,0.0,0.002844897183548971,0.12753,9.812844897183549
150000000.0,22.47,0.0,0.0,0.0,0.0,0.14813100874071009,9.81686700291357
155000000.0,22.47,0.0,0.0,0.0,0.01353780602137806,0.17049780602137804,9.813041096989311
160000000.0,22.47,0.0,0.0,0.0,0.03296160621561606,0.17658,9.81
165000000.0,22.47,0.0,0.0,0.0,0.05238540640985406,0.17000729679507295,9.81
170000000.0,22.47,0.0,0.0,0.0,0.0394361900938619,0.1473461900938619,9.79705079339591
175000000.0,22.47,0.0,0.0,0.0,0.03580650339916503,0.13734,9.79038
180000000.0,22.47,0.0,0.0,0.0,0.014126386014863858,0.13734,9.80293680699257
185000000.0,22.47,0.0,0.0,0.0,0.012360607186806071,0.14352030359340304,9.81
190000000.0,22.47,0.0,0.0,0.0,0.03178440738104407,0.14715,9.785671185237911
195000000.0,22.47,0.0,0.0,0.0,0.03924,0.17108641515056416,9.794696415150565
200000000.0,22.47,0.0,0.0,0.0,0.05101200776952008,0.1569599805761998,9.786455984460959
205000000.0,22.47,0.0,0.0,0.0,0.04149628805436288,0.14312790398187902,9.77076
210000000.0,22.47,0.0,0.0,0.0,0.02943,0.15852960815799608,9.782139608157996
215000000.0,22.47,0.0,0.0,0.0,0.02943,0.17236170417611704,9.801563408352235
220000000.0,22.47,0.0,0.0,0.0,0.02943,0.17658,9.804506395726765
225000000.0,22.47,0.0,0.0,0.0,0.034825504370355045,0.1657889912592899,9.805585504370356
230000000.0,22.47,0.0,0.0,0.0,0.03924,0.1463651910650519,9.799405191065052
235000000.0,22.47,0.0,0.0,0.0,0.044439304564593045,0.13214069543540696,9.795579304564594
240000000.0,22.47,0.0,0.0,0.0,0.04905,0.14283361398513614,9.789987590676576
245000000.0,22.47,0.0,0.0,0.0,0.03404068572350686,0.15696,9.790576209517663
250000000.0,22.47,0.0,0.0,0.0,0.01962,0.15205499514404994,9.795284995144051
255000000.0,22.47,0.0,0.0,0.0,0.029233809906138098,0.15195690495306904,9.809607619812276
260000000.0,22.47,0.0,0.0,0.0,0.029822389899623894,0.14283358484943584,9.81078477979925
265000000.0,22.47,0.0,0.0,0.0,0.015009294852692947,0.1367514102946141,9.79038
270000000.0,22.47,0.0,0.0,0.0,0.018835210488852103,0.14715,9.781354789511148
275000000.0,22.47,0.0,0.0,0.0,0.020600989316909894,0.1383209893169099,9.784003516024635
280000000.0,22.47,0.0,0.0,0.0,0.022759216315992162,0.1447956217546562,9.80019
285000000.0,22.47,0.0,0.0,0.0,0.030803388928433886,0.18364322214313222,9.804408305535784
290000000.0,22.47,0.0,0.0,0.0,0.03198061689870617,0.1977695887341959,9.81
295000000.0,22.47,0.0,0.0,0.0,0.04502789426997894,0.17030157707991578,9.801955788539958
300000000.0,22.47,0.0,0.0,0.0,0.03531599417285994,0.13930198834571988,9.79038
305000000.0,22.47,0.0,0.0,0.0,0.025604094075740942,0.12753,9.79038
310000000.0,22.47,0.0,0.0,0.0,0.012164387957243878,0.13871341806413418,9.797835612042757
315000000.0,22.47,0.0,0.0,0.0,0.010889118355491183,0.16058970611849704,9.81
320000000.0,22.47,0.0,0.0,0.0,0.032961606215616064,0.17383321243123212,9.81
325000000.0,22.47,0.0,0.0,0.0,0.035806493687264934,0.18982350631273506,9.81
330000000.0,22.47,0.0,0.0,0.0,0.03610081281970813,0.17618756154087561,9.803329187180292
335000000.0,22.47,0.0,0.0,0.0,0.03933808047908081,0.14381461301394613,9.787142693493028
340000000.0,22.47,0.0,0.0,0.0,0.02589841320818413,0.15382079339590793,9.786848413208185
345000000.0,22.47,0.0,0.0,0.0,0.030116679896366797,0.15323221340242213,9.80019
350000000.0,22.47,0.0,0.0,0.0,0.0186390203949902,0.16677,9.80313300679833
355000000.0,22.47,0.0,0.0,0.0,0.030705279313652793,0.16961490689544906,9.801465279313653
360000000.0,22.47,0.0,0.0,0.0,0.01530361398513614,0.17658,9.791557227970273
365000000.0,22.47,0.0,0.0,0.0,0.02678129291031293,0.1659851716412517,9.81186387873094
370000000.0,22.47,0.0,0.0,0.0,0.022170607186806073,0.1347893928131939,9.79038
375000000.0,22.47,0.0,0.0,0.0,0.026977492716074927,0.13488752185177522,9.792832507283926
380000000.0,22.47,0.0,0.0,0.0,0.017265592618955924,0.15460559261895593,9.80019
385000000.0,22.47,0.0,0.0,0.0,0.016578922434489222,0.14940630747816308,9.802446307478164
390000000.0,22.47,0.0,0.0,0.0,0.03492358484943585,0.15696,9.81
395000000.0,22.47,0.0,0.0,0.0,0.02580032301720323,0.15696,9.803819676982798
400000000.0,22.47,0.0,0.0,0.0,0.04512598446095985,0.15892200776952006,9.78449401553904
405000000.0,22.47,0.0,0.0,0.0,0.02943,0.16304218426672185,9.796462184266723
410000000.0,22.47,0.0,0.0,0.0,0.02766419203624192,0.14538419203624192,9.778804192036242
415000000.0,22.47,0.0,0.0,0.0,0.01962,0.13900770806087706,9.77576312418263
420000000.0,22.47,0.0,0.0,0.0,0.01962,0.1487196081579961,9.801759608157997
425000000.0,22.47,0.0,0.0,0.0,0.02109150825511508,0.15696,9.81
430000000.0,22.47,0.0,0.0,0.0,0.030803408352234083,0.15696,9.81
435000000.0,22.47,0.0,0.0,0.0,0.036689383101293827,0.15696,9.808724691550648
440000000.0,22.47,0.0,0.0,0.0,0.02197441709294417,0.1546055829070558,9.799012791453528
445000000.0,22.47,0.0,0.0,0.0,0.03600267406922674,0.14057732593077324,9.791459108643592
450000000.0,22.47,0.0,0.0,0.0,0.011772017481420174,0.16775100874071008,9.80019
455000000.0,22.47,0.0,0.0,0.0,0.03031290883782909,0.1756970911621709,9.80107290883783
460000000.0,22.47,0.0,0.0,0.0,0.03924,0.1659851910650519,9.809215191065052
465000000.0,22.47,0.0,0.0,0.0,0.03992670903206709,0.1562732909679329,9.799503290967934
470000000.0,22.47,0.0,0.0,0.0,0.04610695435406954,0.1459727817416278,9.789791390870814
475000000.0,22.47,0.0,0.0,0.0,0.001962036905220369,0.12851101845261018,9.781060509226306
480000000.0,22.47,0.0,0.0,0.0,0.04002481864684818,0.1475424093234241,9.79038
485000000.0,22.47,0.0,0.0,0.0,0.05797707173837072,0.15696,9.790968618841086
490000000.0,22.47,0.0,0.0,0.0,0.030018628552986287,0.1567637904823379,9.809803790482338
495000000.0,22.47,0.0,0.0,0.0,0.058467561540875616,0.1472481096147811,9.80009189038522
500000000.0,22.47,0.0,0.0,0.0,0.01962,0.1569599902880999,9.790380009711901
505000000.0,22.47,0.0,0.0,0.0,0.01962,0.1472480901909809,9.80009190980902
510000000.0,22.47,0.0,0.0,0.0,0.0388476198122762,0.11830857028158571,9.780962380187725
515000000.0,22.47,0.0,0.0,0.0,0.0297242899967429,0.1367514200065142,9.790085710003257
520000000.0,22.47,0.0,0.0,0.0,0.020012389899623898,0.1561752202007522,9.809215220200752
525000000.0,22.47,0.0,0.0,0.0,0.0382590203949902,0.1662795101974951,9.82863902039499
530000000.0,22.47,0.0,0.0,0.0,0.02079717941077179,0.15754858970538588,9.811177179410773
535000000.0,22.47,0.0,0.0,0.0,0.01962,0.15696,9.800876689608268
540000000.0,22.47,0.0,0.0,0.0,0.037670420977704205,0.16598521048885212,9.80019
545000000.0,22.47,0.0,0.0,0.0,0.03924,0.16677,9.80019
550000000.0,22.47,0.0,0.0,0.0,0.003923957267639569,0.1579409893169099,9.809019010683091
555000000.0,22.47,0.0,0.0,0.0,0.026192732340627325,0.1307672676593727,9.801269089219792
560000000.0,22.47,0.0,0.0,0.0,0.03806281087732811,0.17069405438664054,9.817455621754657
565000000.0,22.47,0.0,0.0,0.0,0.013635867076658672,0.14244115610221156,9.79420586707666
570000000.0,22.47,0.0,0.0,0.0,0.02668322214313222,0.14577661107156611,9.781943388928434
575000000.0,22.47,0.0,0.0,0.0,0.02943,0.1554885111686851,9.78057
580000000.0,22.47,0.0,0.0,0.0,0.03767041126580411,0.17344082253160822,9.813531645063216
585000000.0,22.47,0.0,0.0,0.0,0.022955377274153768,0.17658,9.795383065911231
590000000.0,22.47,0.0,0.0,0.0,0.01962,0.15244736561987365,9.814512634380128
595000000.0,22.47,0.0,0.0,0.0,0.01962,0.17098833467148333,9.81186388844284
600000000.0,22.47,0.0,0.0,0.0,0.011771988345719882,0.1687319883457199,9.80215198834572
605000000.0,22.47,0.0,0.0,0.0,0.04080964700559647,0.13577035299440354,9.784690176497202
610000000.0,22.47,0.0,0.0,0.0,0.03374637630296377,0.1351818118485181,9.78822181184852
615000000.0,22.47,0.0,0.0,0.0,0.02187628805436288,0.13734,9.797933711945637
620000000.0,22.47,0.0,0.0,0.0,0.04198683612826837,0.15225122408551223,9.792734387957244
625000000.0,22.47,0.0,0.0,0.0,0.01961995144049952,0.17167502427975023,9.812452536419626
630000000.0,22.47,0.0,0.0,0.0,0.024328824473988243,0.15480176328901762,9.805291175526012
635000000.0,22.47,0.0,0.0,0.0,0.022268687665886876,0.16147262466822626,9.793028687665888
640000000.0,22.47,0.0,0.0,0.0,0.01962,0.15264357513753576,9.79038
645000000.0,22.47,0.0,0.0,0.0,0.012654887471648873,0.1541151125283511,9.79038
650000000.0,22.47,0.0,0.0,0.0,0.0029429873745298726,0.17069402525094024,9.79038
655000000.0,22.47,0.0,0.0,0.0,0.013537825445178255,0.16304217455482173,9.810686738167767
660000000.0,22.47,0.0,0.0,0.0,0.01962,0.15696,9.813139187180292
665000000.0,22.47,0.0,0.0,0.0,0.03276542583365426,0.15696,9.803427287083174
670000000.0,22.47,0.0,0.0,0.0,0.026290773972107738,0.15048538698605388,9.787240773972108
675000000.0,22.47,0.0,0.0,0.0,0.03237302622213026,0.15352651311106513,9.799699539333195
680000000.0,22.47,0.0,0.0,0.0,0.020404760375447605,0.15068158679181587,9.81
685000000.0,22.47,0.0,0.0,0.0,0.028350939915909396,0.17187125322121255,9.791459060084092
690000000.0,22.47,0.0,0.0,0.0,0.04532221340242214,0.1681433597927336,9.810981067012111
695000000.0,22.47,0.0,0.0,0.0,0.031097659501376596,0.16294411349954113,9.811667659501378
700000000.0,22.47,0.0,0.0,0.0,0.013733986403339862,0.17265601359666014,9.80019
705000000.0,22.47,0.0,0.0,0.0,0.021385827387558273,0.1592162589186626,9.805977913693779
710000000.0,22.47,0.0,0.0,0.0,0.02943,0.14146018620910186,9.804310186209102
715000000.0,22.47,0.0,0.0,0.0,0.018246572223965724,0.14293171388801715,9.80019
720000000.0,22.47,0.0,0.0,0.0,0.02079722797027228,0.16363084195540842,9.805683613985137
725000000.0,22.47,0.0,0.0,0.0,0.02943,0.17658,9.81
730000000.0,22.47,0.0,0.0,0.0,0.024132585820625857,0.17128258582062586,9.799405171641252
735000000.0,22.47,0.0,0.0,0.0,0.024819314276493143,0.16157068572350686,9.79038
740000000.0,22.47,0.0,0.0,0.0,0.049834857494448576,0.1467575712527757,9.79038
745000000.0,22.47,0.0,0.0,0.0,0.03865131317561313,0.15234934341219342,9.795383114470733
750000000.0,22.47,0.0,0.0,0.0,0.004904985432149854,0.17658002913570028,9.80019
755000000.0,22.47,0.0,0.0,0.0,0.01442074399490744,0.16716234134012342,9.80019
760000000.0,22.47,0.0,0.0,0.0,0.038847629524176294,0.16127644428626445,9.804898814762089
765000000.0,22.47,0.0,0.0,0.0,0.04905,0.17196928514079285,9.805389285140793
770000000.0,22.47,0.0,0.0,0.0,0.026486925218369255,0.15323215513102154,9.791164770087349
775000000.0,22.47,0.0,0.0,0.0,0.013243545160335452,0.14616903010689028,9.793813545160337
780000000.0,22.47,0.0,0.0,0.0,0.02943,0.1483271696988717,9.801367169698873
785000000.0,22.47,0.0,0.0,0.0,0.02943,0.13312168475231684,9.794598315247685
790000000.0,22.47,0.0,0.0,0.0,0.025309784655197846,0.13989064603440646,9.808430430689604
795000000.0,22.47,0.0,0.0,0.0,0.023642115441921154,0.15696,9.799699422790393
800000000.0,22.47,0.0,0.0,0.0,0.02943,0.16088401553904014,9.77860803107808
805000000.0,22.47,0.0,0.0,0.0,0.03325591563615916,0.17059591563615914,9.79420591563616
810000000.0,22.47,0.0,0.0,0.0,0.03551218426672184,0.16539655280016552,9.796462184266723
815000000.0,22.47,0.0,0.0,0.0,0.03305971583039716,0.15440943166079432,9.797639431660794
820000000.0,22.47,0.0,0.0,0.0,0.03570838407248384,0.16323838407248384,9.806468384072485
825000000.0,22.47,0.0,0.0,0.0,0.02943,0.15696,9.80705703204927
830000000.0,22.47,0.0,0.0,0.0,0.03276541612175416,0.15696,9.81981
835000000.0,22.47,0.0,0.0,0.0,0.03600268378112684,0.16019731621887315,9.810098051343381
840000000.0,22.47,0.0,0.0,0.0,0.026290783684007838,0.1573523510520235,9.784101567368015
845000000.0,22.47,0.0,0.0,0.0,0.01962,0.14038111641311116,9.767718883586888
850000000.0,22.47,0.0,0.0,0.0,0.02550603302046033,0.15303603302046034,9.77566508255115
855000000.0,22.47,0.0,0.0,0.0,0.03355016678530166,0.16392508339265083,9.80715508339265
860000000.0,22.47,0.0,0.0,0.0,0.027860450113404503,0.15696,9.794696366591065
865000000.0,22.47,0.0,0.0,0.0,0.04375256639682567,0.15696,9.785867433603174
870000000.0,22.47,0.0,0.0,0.0,0.02943,0.15696,9.797639383101295
875000000.0,22.47,0.0,0.0,0.0,0.024524966008349663,0.15205496600834964,9.792832516995826
880000000.0,22.47,0.0,0.0,0.0,0.00981,0.13969441709294417,9.802544417092944
885000000.0,22.47,0.0,0.0,0.0,0.014322634380126344,0.14940631719006317,9.81
890000000.0,22.47,0.0,0.0,0.0,0.031588217287182176,0.15696,9.803525348138454
895000000.0,22.47,0.0,0.0,0.0,0.03924,0.15902011738430116,9.782630117384302
900000000.0,22.47,0.0,0.0,0.0,0.03924,0.16677,9.79234201748142
905000000.0,22.47,0.0,0.0,0.0,0.03924,0.16677,9.798326082421461
910000000.0,22.47,0.0,0.0,0.0,0.03747418232434182,0.16500418232434183,9.792145817675658
915000000.0,22.47,0.0,0.0,0.0,0.026094564454445645,0.16029543554555434,9.80019
920000000.0,22.47,0.0,0.0,0.0,0.011379617869896178,0.17030152852041527,9.798620382130105
925000000.0,22.47,0.0,0.0,0.0,0.02256303593403036,0.14322607186806072,9.793323035934032
930000000.0,22.47,0.0,0.0,0.0,0.03649316387173163,0.17932683612826836,9.808626581935867
935000000.0,22.47,0.0,0.0,0.0,0.022170636322506362,0.19237404551624046,9.80019
940000000.0,22.47,0.0,0.0,0.0,0.03688556348325563,0.1655927817416278,9.801367218258372
945000000.0,22.47,0.0,0.0,0.0,0.01746176328901763,0.1558808816445088,9.808920881644509
950000000.0,22.47,0.0,0.0,0.0,0.003924073810440738,0.14813101845261017,9.799208981547391
955000000.0,22.47,0.0,0.0,0.0,0.036591244350812444,0.15960875564918756,9.79214583709946
960000000.0,22.47,0.0,0.0,0.0,0.011379637293696373,0.18482036270630361,9.81
965000000.0,22.47,0.0,0.0,0.0,0.02943,0.16470984376809844,9.81
970000000.0,22.47,0.0,0.0,0.0,0.02943,0.13734,9.81
975000000.0,22.47,0.0,0.0,0.0,0.028448962123589622,0.13881155681461557,9.810490518938206
980000000.0,22.47,0.0,0.0,0.0,0.01059483807064838,0.1663775809646758,9.81981
985000000.0,22.47,0.0,0.0,0.0,0.02884136173511362,0.1566656808675568,9.81892704260267
990000000.0,22.47,0.0,0.0,0.0,0.010202438459124384,0.14773865768868658,9.790576219229562
995000000.0,22.47,0.0,0.0,0.0,0.029528119326681194,0.1764818806733188,9.80019
1000000000.0,22.47,0.0,0.0,0.0,0.039239980576199804,0.1667699805761998,9.8001900194238
1005000000.0,22.47,0.0,0.0,0.0,0.029528080479080808,0.1570580804790808,9.80990191952092
1010000000.0,22.47,0.0,0.0,0.0,0.02943,0.15696,9.771544721527846
1015000000.0,22.47,0.0,0.0,0.0,0.010398560569685605,0.12841284085452842,9.80882287886063
1020000000.0,22.47,0.0,0.0,0.0,0.03806285943682859,0.1463652396245524,9.791164760375448
1025000000.0,22.47,0.0,0.0,0.0,0.011281440271814405,0.1657890398187904,9.79038
1030000000.0,22.47,0.0,0.0,0.0,0.0190314200065142,0.16677,9.79038
1035000000.0,22.47,0.0,0.0,0.0,0.056113280414532805,0.1576466798963668,9.799503320103634
1040000000.0,22.47,0.0,0.0,0.0,0.013733898996238988,0.1659852202007522,9.782139559598496
1045000000.0,22.47,0.0,0.0,0.0,0.00981,0.1578428797021288,9.789497120297872
1050000000.0,22.47,0.0,0.0,0.0,0.03629706118497061,0.1481309796050098,9.81686706118497
1055000000.0,22.47,0.0,0.0,0.0,0.021778159015781586,0.14715,9.793617238523673
1060000000.0,22.47,0.0,0.0,0.0,0.01962,0.1385171794107718,9.807645641178457
1065000000.0,22.47,0.0,0.0,0.0,0.03668944137269441,0.18001360343173603,9.81
1070000000.0,22.47,0.0,0.0,0.0,0.03924,0.15264351686613517,9.801563379216534
1075000000.0,22.47,0.0,0.0,0.0,0.030901479119414793,0.1638270417611704,9.808528520880586
1080000000.0,22.47,0.0,0.0,0.0,0.02943,0.14204873706688737,9.793519158044592
1085000000.0,22.47,0.0,0.0,0.0,0.02943,0.13734,9.81480696322447
1090000000.0,22.47,0.0,0.0,0.0,0.013341557656115579,0.13734,9.827854221171943
1095000000.0,22.47,0.0,0.0,0.0,0.025702242538122425,0.1452861212690612,9.805781636192817
1100000000.0,22.47,0.0,0.0,0.0,0.02943,0.14715,9.80019
1105000000.0,22.47,0.0,0.0,0.0,0.013930157073401572,0.14715,9.80019
1110000000.0,22.47,0.0,0.0,0.0,0.017461821560418214,0.15480182156041822,9.792538178439582
1115000000.0,22.47,0.0,0.0,0.0,0.01962,0.14940627834246278,9.805487443315075
1120000000.0,22.47,0.0,0.0,0.0,0.027075621754656217,0.16206124350931245,9.787633134736032
1125000000.0,22.47,0.0,0.0,0.0,0.014714956296449564,0.14469743444467434,9.79528504370355
1130000000.0,22.47,0.0,0.0,0.0,-0.00470884389778844,0.15185884389778842,9.792930578051106
1135000000.0,22.47,0.0,0.0,0.0,0.018835288184052883,0.14979867795398677,9.81186396613804
1140000000.0,22.47,0.0,0.0,0.0,0.02943,0.1542132221431322,9.826873222143133
1145000000.0,22.47,0.0,0.0,0.0,0.036395122240251224,0.13606463327924634,9.815689755519498
1150000000.0,22.47,0.0,0.0,0.0,0.03924,0.12753,9.80313297766263
1155000000.0,22.47,0.0,0.0,0.0,0.02570215513102155,0.1342989224344892,9.779883232696532
1160000000.0,22.47,0.0,0.0,0.0,0.01962,0.17069411265804113,9.790772467594826
1165000000.0,22.47,0.0,0.0,0.0,-9.816788618167635e-05,0.1666718321138183,9.80019
1170000000.0,22.47,0.0,0.0,0.0,0.01608849090338491,0.15696,9.80019
1175000000.0,22.47,0.0,0.0,0.0,0.02305347717703477,0.14420695435406952,9.806566522822965
1180000000.0,22.47,0.0,0.0,0.0,0.01962,0.14989684584016844,9.803721577079916
1185000000.0,22.47,0.0,0.0,0.0,0.04434129206881292,0.15696,9.794009676982798
1190000000.0,22.47,0.0,0.0,0.0,0.034531107542711076,0.16304222311432223,9.796462223114323
1195000000.0,22.47,0.0,0.0,0.0,0.031588246422882466,0.17275412321144124,9.788221753577119
1200000000.0,22.47,0.0,0.0,0.0,0.03924,0.17069397669143976,9.798228069925681
1205000000.0,22.47,0.0,0.0,0.0,0.050815846811358464,0.15519415318864152,9.786848306377284
1210000000.0,22.47,0.0,0.0,0.0,0.03610070598880706,0.15852964700559646,9.793519294011192
1215000000.0,22.47,0.0,0.0,0.0,0.01962,0.15558655280016553,9.793224829200248
1220000000.0,22.47,0.0,0.0,0.0,0.025113623697036236,0.15264362369703624,9.797050871091109
1225000000.0,22.47,0.0,0.0,0.0,0.03482552379415524,0.15696,9.815395523794155
1230000000.0,22.47,0.0,0.0,0.0,0.04453742389127424,0.15696,9.793322880543629
1235000000.0,22.47,0.0,0.0,0.0,0.04385067601160676,0.16215932398839322,9.78635797196518
1240000000.0,22.47,0.0,0.0,0.0,0.023936327743463277,0.15146632774346327,9.789987551828975
1245000000.0,22.47,0.0,0.0,0.0,0.01481312418263124,0.14234312418263123,9.790576248365264
1250000000.0,22.47,0.0,0.0,0.0,0.01962,0.1373399514404995,9.7903799514405
1255000000.0,22.47,0.0,0.0,0.0,0.024426924376869243,0.1371438487537385,9.799797697507477
1260000000.0,22.47,0.0,0.0,0.0,0.02001235105202351,0.15185882447398824,9.815101175526012
1265000000.0,22.47,0.0,0.0,0.0,0.014420724571107244,0.16618144914221447,9.81
1270000000.0,22.47,0.0,0.0,0.0,0.028645249336452492,0.158529501327095,9.78743687665887
1275000000.0,22.47,0.0,0.0,0.0,0.03482547523465475,0.15058357429603575,9.778608099061382
1280000000.0,22.47,0.0,0.0,0.0,0.025113575137535753,0.1581371502750715,9.795873575137536
1285000000.0,22.47,0.0,0.0,0.0,0.03227497487874975,0.13449502512125025,9.798816649919168
1290000000.0,22.47,0.0,0.0,0.0,0.040809549886595506,0.12184022505670225,9.81
1295000000.0,22.47,0.0,0.0,0.0,0.02943,0.1355742503076425,9.814022125153821
1300000000.0,22.47,0.0,0.0,0.0,0.03335402525094025,0.15107402525094024,9.808037924247179
1305000000.0,22.47,0.0,0.0,0.0,0.03158814930388149,0.15696,9.79420592534806
1310000000.0,22.47,0.0,0.0,0.0,0.027075650890356507,0.16068782544517823,9.803917825445179
1315000000.0,22.47,0.0,0.0,0.0,0.03561027445770274,0.16314027445770274,9.802740548915406
1320000000.0,22.47,0.0,0.0,0.0,0.03296162563941626,0.16755487691824877,9.79038
1325000000.0,22.47,0.0,0.0,0.0,0.03580647426346474,0.17265589705385898,9.786946474263466
1330000000.0,22.47,0.0,0.0,0.0,0.03610085166730852,0.15048542583365426,9.78724085166731
1335000000.0,22.47,0.0,0.0,0.0,0.04581267406922674,0.15048534813845346,9.80019
1340000000.0,22.47,0.0,0.0,0.0,0.03296154794421548,0.14047922602789226,9.80019
1345000000.0,22.47,0.0,0.0,0.0,0.01657887387498874,0.15323225225002252,9.79714887387499
1350000000.0,22.47,0.0,0.0,0.0,0.021582104888521046,0.16971302622213025,9.793323026222131
1355000000.0,22.47,0.0,0.0,0.0,0.03767029472300295,0.1680452210422522,9.803034926319249
1360000000.0,22.47,0.0,0.0,0.0,0.012556826416368263,0.15264365283273654,9.801759520750895
1365000000.0,22.47,0.0,0.0,0.0,0.027566179540461797,0.16941872651348727,9.783218726513487
1370000000.0,22.47,0.0,0.0,0.0,0.036296866946968674,0.16637749355757492,9.792930626610607
1375000000.0,22.47,0.0,0.0,0.0,0.007357580123175801,0.1446975801231758,9.805095053415451
1380000000.0,22.47,0.0,0.0,0.0,0.027075573195155734,0.16441557319515573,9.812746719585467
1385000000.0,22.47,0.0,0.0,0.0,0.02187632690196327,0.15696,9.79038
1390000000.0,22.47,0.0,0.0,0.0,0.02943,0.15696,9.794696453998165
1395000000.0,22.47,0.0,0.0,0.0,0.03149012709620127,0.15696,9.805879745807598
1400000000.0,22.47,0.0,0.0,0.0,0.035315945613359455,0.15696,9.792342027193321
1405000000.0,22.47,0.0,0.0,0.0,0.017756072709560727,0.15323214541912145,9.796462145419122
1410000000.0,22.47,0.0,0.0,0.0,0.013341654775116547,0.14087165477511654,9.787633309550234
1415000000.0,22.47,0.0,0.0,0.0,0.02943,0.14862136257661362,9.816474545030646
1420000000.0,22.47,0.0,0.0,0.0,0.02943,0.11261888274538884,9.797050744836408
1425000000.0,22.47,0.0,0.0,0.0,0.030901527678915276,0.14175458303674582,9.784984583036747
1430000000.0,22.47,0.0,0.0,0.0,0.03924,0.16402314444793145,9.811373427776035
1435000000.0,22.47,0.0,0.0,0.0,0.03796467212684672,0.14715,9.81598401638054
1440000000.0,22.47,0.0,0.0,0.0,0.02943,0.15068168391081685,9.792734455940545
1445000000.0,22.47,0.0,0.0,0.0,0.02943,0.17334261579782614,9.808920871932608
1450000000.0,22.47,0.0,0.0,0.0,0.02844897183548972,0.14715,9.802152056329021
1455000000.0,22.47,0.0,0.0,0.0,0.018737071738370716,0.14803292826162928,9.818044143476742
1460000000.0,22.47,0.0,0.0,0.0,0.011379656717496566,0.15696,9.80019
1465000000.0,22.47,0.0,0.0,0.0,0.03080345691173457,0.15764672845586727,9.80019
1470000000.0,22.47,0.0,0.0,0.0,0.04787274289402743,0.16677,9.799601371447014
1475000000.0,22.47,0.0,0.0,0.0,0.029920528650105287,0.16677,9.79038
1480000000.0,22.47,0.0,0.0,0.0,0.03924,0.16637757125277572,9.791557286241673
1485000000.0,22.47,0.0,0.0,0.0,0.038062684622626845,0.15696,9.819221342311314
1490000000.0,22.47,0.0,0.0,0.0,0.00019622894146228943,0.15696,9.800582457882925
1495000000.0,22.47,0.0,0.0,0.0,0.009908129038581289,0.1568618709614187,9.819515612884256
1500000000.0,22.47,0.0,0.0,0.0,0.01961997086429971,0.1471500291357003,9.7903800291357
1505000000.0,22.47,0.0,0.0,0.0,0.009908070767180706,0.15686192923281927,9.80009192923282
1510000000.0,22.47,0.0,0.0,0.0,0.04826531731975317,0.17618765865987657,9.80019
1515000000.0,22.47,0.0,0.0,0.0,0.030018541145885414,0.1575485411458854,9.80019
1520000000.0,22.47,0.0,0.0,0.0,0.010594740951647412,0.16637762952417628,9.771937111427471
1525000000.0,22.47,0.0,0.0,0.0,0.019129529621295296,0.1481309407574094,9.78939905924259
1530000000.0,22.47,0.0,0.0,0.0,0.047284289155242895,0.1840357188736572,9.79038
1535000000.0,22.47,0.0,0.0,0.0,0.0399266701844667,0.1407733509223335,9.799503329815535
1540000000.0,22.47,0.0,0.0,0.0,0.0211895401746954,0.1463652299126523,9.809215229912652
1545000000.0,22.47,0.0,0.0,0.0,0.0285471300097713,0.14715,9.783218609970687
1550000000.0,22.47,0.0,0.0,0.0,0.0382590301068903,0.1559790301068903,9.807057090320672
1555000000.0,22.47,0.0,0.0,0.0,0.030509069795990697,0.1482290697959907,9.792538139591983
1560000000.0,22.47,0.0,0.0,0.0,0.02943,0.1644156606022566,9.781747169698873
1565000000.0,22.47,0.0,0.0,0.0,0.02943,0.1582352696017527,9.797639460796495
1570000000.0,22.47,0.0,0.0,0.0,0.01255673900926739,0.1653966304953663,9.791753369504635
1575000000.0,22.47,0.0,0.0,0.0,0.034825591777455915,0.14175440822254406,9.823734122369942
1580000000.0,22.47,0.0,0.0,0.0,0.030999569310395693,0.1455804306896043,9.813139138620793
1585000000.0,22.47,0.0,0.0,0.0,0.013145338426553386,0.13900766921327667,9.801857669213277
1590000000.0,22.47,0.0,0.0,0.0,0.01785423088384231,0.16147269265152692,9.808234230883842
1595000000.0,22.47,0.0,0.0,0.0,0.01962,0.1588238690190387,9.81
1600000000.0,22.47,0.0,0.0,0.0,0.02746803107808031,0.1726560621561606,9.81
1605000000.0,22.47,0.0,0.0,0.0,0.060429724700797244,0.14558027529920275,9.786750206474403
1610000000.0,22.47,0.0,0.0,0.0,0.022759012366090126,0.16029549381695493,9.788221831272319
1615000000.0,22.47,0.0,0.0,0.0,0.04002492547774925,0.14410880589168806,9.797933731369438
1620000000.0,22.47,0.0,0.0,0.0,0.041594368533443685,0.12988436853344368,9.807645631466556
1625000000.0,22.47,0.0,0.0,0.0,0.024524936872649367,0.12753,9.824715063127352
1630000000.0,22.47,0.0,0.0,0.0,0.026879431660794317,0.13478943166079432,9.815101136678411
1635000000.0,22.47,0.0,0.0,0.0,0.02943,0.15166266351582663,9.795677336484173
1640000000.0,22.47,0.0,0.0,0.0,0.02943,0.15696,9.797443231855032
1645000000.0,22.47,0.0,0.0,0.0,0.02943,0.17089026390430262,9.793224868047849
1650000000.0,22.47,0.0,0.0,0.0,0.02256296795072968,0.16284593590145935,9.783512967950731
1655000000.0,22.47,0.0,0.0,0.0,0.02638893214638932,0.15019106785361067,9.79410786429278
1660000000.0,22.47,0.0,0.0,0.0,0.02943,0.16049166448701666,9.806860832243508
1665000000.0,22.47,0.0,0.0,0.0,0.016284535318745352,0.15362453531874534,9.803427267659373
1670000000.0,22.47,0.0,0.0,0.0,0.00981,0.14715,9.806664632437746
1675000000.0,22.47,0.0,0.0,0.0,0.02893959760459597,0.16627959760459596,9.790870402395404
1680000000.0,22.47,0.0,0.0,0.0,0.03296156736801567,0.157744702104047,9.78057
1685000000.0,22.47,0.0,0.0,0.0,0.03561033272910333,0.15333033272910332,9.799110998187311
1690000000.0,22.47,0.0,0.0,0.0,0.020993301521333014,0.16304223282622232,9.81
1695000000.0,22.47,0.0,0.0,0.0,0.02177826584668266,0.15480173415331736,9.804015867076659
1700000000.0,22.47,0.0,0.0,0.0,0.02943,0.14126396697953966,9.80607603302046
1705000000.0,22.47,0.0,0.0,0.0,0.02943,0.14891586623515865,9.81
1710000000.0,22.47,0.0,0.0,0.0,0.03511983321469833,0.16833966642939666,9.798620333570604
1715000000.0,22.47,0.0,0.0,0.0,0.03364826668818267,0.1653965333763653,9.79038
1720000000.0,22.47,0.0,0.0,0.0,0.02943,0.16245363340893632,9.79038
1725000000.0,22.47,0.0,0.0,0.0,0.034825533506055335,0.16677,9.79038
1730000000.0,22.47,0.0,0.0,0.0,0.018050265587302654,0.15617513279365133,9.79038
1735000000.0,22.47,0.0,0.0,0.0,0.005199333700293337,0.15234933370029333,9.800778667400587
1740000000.0,22.47,0.0,0.0,0.0,0.020012467594824675,0.15696,9.81
1745000000.0,22.47,0.0,0.0,0.0,0.014420598316405984,0.16196313389453135,9.815003133894532
1750000000.0,22.47,0.0,0.0,0.0,0.01962013596660136,0.17167503399165032,9.814904966008351
1755000000.0,22.47,0.0,0.0,0.0,0.03443306591123066,0.16215919773369197,9.800386131822462
1760000000.0,22.47,0.0,0.0,0.0,0.024721165814111656,0.15656766837177669,9.79038
1765000000.0,22.47,0.0,0.0,0.0,0.028841468566014685,0.17138073428300735,9.781158531433986
1770000000.0,22.47,0.0,0.0,0.0,0.03924,0.1675547312397473,9.784297903140379
1775000000.0,22.47,0.0,0.0,0.0,0.03924,0.15696,9.795775465522755
1780000000.0,22.47,0.0,0.0,0.0,0.034923565425635655,0.16127643457436433,9.79901286914873
1785000000.0,22.47,0.0,0.0,0.0,0.020993330657033307,0.17098833467148333,9.801563330657034
1790000000.0,22.47,0.0,0.0,0.0,0.02629093907440939,0.1683395304627953,9.798620469537205
1795000000.0,22.47,0.0,0.0,0.0,0.041005730268557306,0.16098213486572135,9.797933595402837
1800000000.0,22.47,0.0,0.0,0.0,0.02550596503715965,0.16284596503715965,9.77664596503716
1805000000.0,22.47,0.0,0.0,0.0,0.02344593505995935,0.16078593505995933,9.786063740239838
1810000000.0,22.47,0.0,0.0,0.0,0.02570216484292165,0.16677,9.81372783515708
1815000000.0,22.47,0.0,0.0,0.0,0.01962,0.16677,9.812550529491606
1820000000.0,22.47,0.0,0.0,0.0,0.023151635351316355,0.16677,9.81078490605395
1825000000.0,22.47,0.0,0.0,0.0,0.025996464551564645,0.16333646455156464,9.82962
1830000000.0,22.47,0.0,0.0,0.0,0.012949128908891288,0.15696,9.819613693363337
1835000000.0,22.47,0.0,0.0,0.0,0.006474671285346713,0.1634346712853467,9.803427335642674
1840000000.0,22.47,0.0,0.0,0.0,0.022759235739792355,0.17344076426020763,9.806860764260207
1845000000.0,22.47,0.0,0.0,0.0,0.02638886416308864,0.16677,9.79714886416309
1850000000.0,22.47,0.0,0.0,0.0,0.01667696406596964,0.16382696406596964,9.796266071868061
1855000000.0,22.47,0.0,0.0,0.0,0.01265493603114936,0.15411506396885064,9.807155063968851
1860000000.0,22.47,0.0,0.0,0.0,0.01962,0.14989683612826837,9.80019
1865000000.0,22.47,0.0,0.0,0.0,0.016971263774612635,0.15696,9.797541263774614
1870000000.0,22.47,0.0,0.0,0.0,0.014911272645012727,0.15440936367749364,9.792930636322508
1875000000.0,22.47,0.0,0.0,0.0,0.026977463580374637,0.15450760925887608,9.80019
1880000000.0,22.47,0.0,0.0,0.0,0.02903774606697746,0.17422556348325563,9.797835563483256
1885000000.0,22.47,0.0,0.0,0.0,0.056603663386136635,0.16677,9.792636336613864
1890000000.0,22.47,0.0,0.0,0.0,0.04041705315607053,0.16677,9.802348236710984
1895000000.0,22.47,0.0,0.0,0.0,0.007749863191898632,0.16470986319189862,9.81
1900000000.0,22.47,0.0,0.0,0.0,0.003924073810440738,0.15303592618955925,9.81
1905000000.0,22.47,0.0,0.0,0.0,0.017756062997660627,0.14106787400467874,9.806272125995322
1910000000.0,22.47,0.0,0.0,0.0,0.01157583709945837,0.15872583709945837,9.793911674198917
1915000000.0,22.47,0.0,0.0,0.0,0.02128773719657737,0.16343452560684527,9.808332262803424
1920000000.0,22.47,0.0,0.0,0.0,0.02943,0.15028927458739275,9.795481088118912
1925000000.0,22.47,0.0,0.0,0.0,0.027958462609184626,0.16824153739081538,9.77664614956326
1930000000.0,22.47,0.0,0.0,0.0,0.02236687497586875,0.17520656251206562,9.81
1935000000.0,22.47,0.0,0.0,0.0,0.034138649659786496,0.16549466241494662,9.80617398724484
1940000000.0,22.47,0.0,0.0,0.0,0.0023544753643447536,0.15696,9.784101713046518
1945000000.0,22.47,0.0,0.0,0.0,0.020699137779291377,0.15372258666212585,9.81
1950000000.0,22.47,0.0,0.0,0.0,0.028448962123589622,0.13145415150564152,9.81
1955000000.0,22.47,0.0,0.0,0.0,0.021385875947058756,0.16588706202647063,9.807351186079412
1960000000.0,22.47,0.0,0.0,0.0,0.03924,0.15852967614129676,9.779785161929352
1965000000.0,22.47,0.0,0.0,0.0,0.03786652366446523,0.17520652366446524,9.773506952671069
1970000000.0,22.47,0.0,0.0,0.0,0.020797276529772764,0.15754863826488638,9.808822723470227
1975000000.0,22.47,0.0,0.0,0.0,0.03776838491398385,0.16529838491398385,9.790870538362006
1980000000.0,22.47,0.0,0.0,0.0,0.011379753836497537,0.13734,9.801759753836498
1985000000.0,22.47,0.0,0.0,0.0,0.04846132288751323,0.1388116927812169,9.838252645775027
1990000000.0,22.47,0.0,0.0,0.0,0.02943,0.1859975226932752,9.800386238653363
1995000000.0,22.47,0.0,0.0,0.0,0.029626277500962778,0.16677,9.809803722499037
2000000000.0,22.47,0.0,0.0,0.0,0.04905,0.1667700388476004,9.7903799611524
2005000000.0,22.47,0.0,0.0,0.0,0.04905,0.17648193894471936,9.780668061055282
2010000000.0,22.47,0.0,0.0,0.0,0.039436160958161603,0.1573523219163232,9.809411517125517
2015000000.0,22.47,0.0,0.0,0.0,0.020208521722085215,0.16647573913895738,9.781452782583129
2020000000.0,22.47,0.0,0.0,0.0,0.02903763923607639,0.16677,9.80882291770823
2025000000.0,22.47,0.0,0.0,0.0,0.020110460666804608,0.1574504606668046,9.800680460666806
2030000000.0,22.47,0.0,0.0,0.0,0.047284318290943185,0.1477385605696856,9.80019
2035000000.0,22.47,0.0,0.0,0.0,0.021679981417699813,0.1289033209451332,9.791066660472568
2040000000.0,22.47,0.0,0.0,0.0,0.04669571887365719,0.15460571887365718,9.799405239624553
2045000000.0,22.47,0.0,0.0,0.0,0.03119572055665721,0.1658871397216714,9.79126286027833
2050000000.0,22.47,0.0,0.0,0.0,0.02943,0.16677,9.772721920362418
2055000000.0,22.47,0.0,0.0,0.0,0.0468918798318188,0.16677,9.78822187983182
2060000000.0,22.47,0.0,0.0,0.0,0.023151479960914798,0.1581371599869716,9.807645680026058
2065000000.0,22.47,0.0,0.0,0.0,0.04522422033044221,0.1228210395594104,9.784395779669559
2070000000.0,22.47,0.0,0.0,0.0,0.023740079378200794,0.1345932804145328,9.78057
2075000000.0,22.47,0.0,0.0,0.0,0.027958540304385403,0.15401708060877078,9.805585620913156
2080000000.0,22.47,0.0,0.0,0.0,0.02943,0.1734408808030088,9.785278678795487
2085000000.0,22.47,0.0,0.0,0.0,0.02943,0.17658,9.796854680997248
2090000000.0,22.47,0.0,0.0,0.0,0.013341518808515189,0.16049151880851517,9.808234240595743
2095000000.0,22.47,0.0,0.0,0.0,0.017756140692861404,0.1490138593071386,9.817946140692861
2100000000.0,22.47,0.0,0.0,0.0,0.01962,0.12360587763005879,9.79626587763006
2105000000.0,22.47,0.0,0.0,0.0,0.01962,0.1332198817741988,9.8058798817742
2110000000.0,22.47,0.0,0.0,0.0,0.02727184098421841,0.1526436819684368,9.81
2115000000.0,22.47,0.0,0.0,0.0,0.01432251783732518,0.1645137410813374,9.802446258918664
2120000000.0,22.47,0.0,0.0,0.0,0.024721282356912823,0.16677,9.80019
2125000000.0,22.47,0.0,0.0,0.0,0.007357376173273762,0.15205491744884916,9.80019
2130000000.0,22.47,0.0,0.0,0.0,0.021778324118083243,0.14715,9.80019
2135000000.0,22.47,0.0,0.0,0.0,0.03659134146981341,0.13998865853018658,9.771544634120746
2140000000.0,22.47,0.0,0.0,0.0,0.025113516866135166,0.15146648313386482,9.796266207834663
2145000000.0,22.47,0.0,0.0,0.0,0.01962,0.16392514166405142,9.803034858335948
2150000000.0,22.47,0.0,0.0,0.0,0.012752958238829581,0.15990295823882958,9.813924083522341
2155000000.0,22.47,0.0,0.0,0.0,0.00981,0.1704978837165788,9.81981
2160000000.0,22.47,0.0,0.0,0.0,0.029822525866225254,0.16323831608918316,9.813139158044592
2165000000.0,22.47,0.0,0.0,0.0,0.03924,0.15696,9.790281773842418
2170000000.0,22.47,0.0,0.0,0.0,0.026290715700707155,0.15048535785035358,9.806468568598586
2175000000.0,22.47,0.0,0.0,0.0,0.032373084493530845,0.15990308449353086,9.80705691550647
2180000000.0,22.47,0.0,0.0,0.0,0.032961557656115574,0.16049155765611556,9.806468442343885
2185000000.0,22.47,0.0,0.0,0.0,0.023249657558996575,0.16314034244100342,9.81
2190000000.0,22.47,0.0,0.0,0.0,0.025702242538122425,0.15460551492375516,9.828246727614367
2195000000.0,22.47,0.0,0.0,0.0,0.035414142635241425,0.15313414263524142,9.815493429459035
2200000000.0,22.47,0.0,0.0,0.0,0.027467914535279143,0.15696,9.78841791453528
2205000000.0,22.47,0.0,0.0,0.0,0.01962,0.15117205717052057,9.78057
2210000000.0,22.47,0.0,0.0,0.0,0.01962,0.15852968585319685,9.786259842926599
2215000000.0,22.47,0.0,0.0,0.0,0.036395229071152294,0.16677,9.801563486047435
2220000000.0,22.47,0.0,0.0,0.0,0.06003728624167286,0.17775728624167286,9.81
2225000000.0,22.47,0.0,0.0,0.0,0.0524833703461337,0.16480782712817826,9.815395543217956
2230000000.0,22.47,0.0,0.0,0.0,0.03924,0.14185255668492555,9.809215113369852
2235000000.0,22.47,0.0,0.0,0.0,0.03404065658780656,0.13734,9.789791313175614
2240000000.0,22.47,0.0,0.0,0.0,0.01922751298137513,0.16284621754656217,9.785671243509313
2245000000.0,22.47,0.0,0.0,0.0,0.004806856393568563,0.17638371278713713,9.810392574425727
2250000000.0,22.47,0.0,0.0,0.0,0.01471513111065131,0.16186495629644956,9.809999825185798
2255000000.0,22.47,0.0,0.0,0.0,0.03904388760133888,0.16657388760133887,9.799993887601339
2260000000.0,22.47,0.0,0.0,0.0,0.03492346830663468,0.15774462440884623,9.805291156102212
2265000000.0,22.47,0.0,0.0,0.0,0.02884148798981488,0.13272925600509256,9.804800743994909
2270000000.0,22.47,0.0,0.0,0.0,0.03924,0.1500932204601322,9.800974711815948
2275000000.0,22.47,0.0,0.0,0.0,0.034825455810854555,0.15450727905427278,9.79920908837829
2280000000.0,22.47,0.0,0.0,0.0,0.020797111427471114,0.12753,9.81
2285000000.0,22.47,0.0,0.0,0.0,0.018246688766766887,0.14018503315015032,9.801563311233235
2290000000.0,22.47,0.0,0.0,0.0,0.03355024448050244,0.16108024448050243,9.786259755519499
2295000000.0,22.47,0.0,0.0,0.0,0.043262144577621446,0.15470356626713566,9.788614289155243
2300000000.0,22.47,0.0,0.0,0.0,0.04120191065051911,0.15303617869896177,9.80411404467474
2305000000.0,22.47,0.0,0.0,0.0,0.02943,0.1612762209125622,9.798522165684423
2310000000.0,22.47,0.0,0.0,0.0,0.03315784486897845,0.14106784486897844,9.788025689737959
2315000000.0,22.47,0.0,0.0,0.0,0.03924,0.15440948993219492,9.803819744966098
2320000000.0,22.47,0.0,0.0,0.0,0.03924,0.17030164506321643,9.806468354936785
2325000000.0,22.47,0.0,0.0,0.0,0.03924,0.16627936451899364,9.796756454839665
2330000000.0,22.47,0.0,0.0,0.0,0.03256910948509109,0.15048544525745444,9.793715445257455
2335000000.0,22.47,0.0,0.0,0.0,0.02285734535457345,0.16019734535457344,9.796952654645427
2340000000.0,22.47,0.0,0.0,0.0,0.02943,0.16363075454830756,9.793519245451693
2345000000.0,22.47,0.0,0.0,0.0,0.032471145548811454,0.1508777089023771,9.803231145548812
2350000000.0,22.47,0.0,0.0,0.0,0.03924,0.14616913693779138,9.80705695435407
2355000000.0,22.47,0.0,0.0,0.0,0.033550108513901084,0.1610801085139011,9.80303494574305
2360000000.0,22.47,0.0,0.0,0.0,0.025113691680336916,0.14989684584016846,9.81
2365000000.0,22.47,0.0,0.0,0.0,0.03924,0.16490623781186237,9.802053762188137
2370000000.0,22.47,0.0,0.0,0.0,0.03924,0.17873806189678063,9.778019353965593
2375000000.0,22.47,0.0,0.0,0.0,0.03678745386847454,0.1618650922630509,9.778117638394576
2380000000.0,22.47,0.0,0.0,0.0,0.024721107542711077,0.1695166613140666,9.802544446228644
2385000000.0,22.47,0.0,0.0,0.0,0.01657903897729039,0.15166269265152693,9.807743653674237
2390000000.0,22.47,0.0,0.0,0.0,0.03276526073135261,0.1602952607313526,9.802348246422882
2395000000.0,22.47,0.0,0.0,0.0,0.007749853479998534,0.14146029304000293,9.807939853479999
2400000000.0,22.47,0.0,0.0,0.0,0.0,0.15696,9.80215204661712
2405000000.0,22.47,0.0,0.0,0.0,0.001863946714239467,0.15696,9.81
2410000000.0,22.47,0.0,0.0,0.0,0.011575846811358467,0.15872584681135846,9.804702459565926
2415000000.0,22.47,0.0,0.0,0.0,0.021287746908477467,0.16843774690847746,9.785573240725434
2420000000.0,22.47,0.0,0.0,0.0,0.03256929401119294,0.1750103529944035,9.81
2425000000.0,22.47,0.0,0.0,0.0,0.04905,0.16235535869185358,9.80705690579457
2430000000.0,22.47,0.0,0.0,0.0,0.04767655280016553,0.14008689439966893,9.791753447199834
2435000000.0,22.47,0.0,0.0,0.0,0.03541395810913958,0.15440930540609304,9.801465347296954
2440000000.0,22.47,0.0,0.0,0.0,0.010987247394072473,0.13969449478814494,9.807645505211855
2445000000.0,22.47,0.0,0.0,0.0,0.020699147491191474,0.15803914749119147,9.788221705017618
2450000000.0,22.47,0.0,0.0,0.0,0.030411047588310477,0.16873209517662097,9.77174104758831
2455000000.0,22.47,0.0,0.0,0.0,0.037474104629141046,0.18374115694371157,9.78233589537086
2460000000.0,22.47,0.0,0.0,0.0,0.01883515221745152,0.15774484778254846,9.800974847782548
2465000000.0,22.47,0.0,0.0,0.0,0.011183495759334958,0.16470975636099758,9.81
2470000000.0,22.47,0.0,0.0,0.0,0.027664056069640564,0.1367513520232135,9.808234056069642
2475000000.0,22.47,0.0,0.0,0.0,0.0014716442217164423,0.12802054807390548,9.782041644221717
2480000000.0,22.47,0.0,0.0,0.0,0.029822448171024484,0.13812489634204894,9.81
2485000000.0,22.47,0.0,0.0,0.0,0.03982869653628696,0.15725434826814347,9.81
2490000000.0,22.47,0.0,0.0,0.0,0.058271254904212554,0.16716249673052497,9.809803751634737
2495000000.0,22.47,0.0,0.0,0.0,0.029528148462381484,0.18619370307523703,9.799993703075238
2500000000.0,22.47,0.0,0.0,0.0,0.039239951440499514,0.16677,9.780570097119002
2505000000.0,22.47,0.0,0.0,0.0,0.029528051343380515,0.16677,9.79999389731324
2510000000.0,22.47,0.0,0.0,0.0,0.02943,0.14754230249252304,9.771348453738783
2515000000.0,22.47,0.0,0.0,0.0,0.010398502298285026,0.13763425114914252,9.780275748850858
2520000000.0,22.47,0.0,0.0,0.0,0.02864529789595298,0.15617529789595297,9.827658244739883
2525000000.0,22.47,0.0,0.0,0.0,0.010790901909809022,0.15696,9.81098090190981
2530000000.0,22.47,0.0,0.0,0.0,0.06513869485328694,0.1661814491422145,9.791557101715572
2535000000.0,22.47,0.0,0.0,0.0,0.03217660304266603,0.17589334923933347,9.79038
2540000000.0,22.47,0.0,0.0,0.0,0.02943,0.1675547506635475,9.772329501327095
2545000000.0,22.47,0.0,0.0,0.0,0.04728429886714299,0.1578428505664285,9.788614298867143
2550000000.0,22.47,0.0,0.0,0.0,0.04905,0.15696,9.799209049530692
2555000000.0,22.47,0.0,0.0,0.0,0.014126201488762015,0.15696,9.80892094962781
2560000000.0,22.47,0.0,0.0,0.0,0.035708549174785484,0.13969430055014298,9.81863284972493
2565000000.0,22.47,0.0,0.0,0.0,0.022170500355905,0.15440949964409498,9.802740500355906
2570000000.0,22.47,0.0,0.0,0.0,0.0027467001616670005,0.1485233500808335,9.808626649919168
2575000000.0,22.47,0.0,0.0,0.0,0.050031300097713,0.17216565004885648,9.79332289996743
2580000000.0,22.47,0.0,0.0,0.0,0.025898199546382,0.1683395498865955,9.765658649659786
2585000000.0,22.47,0.0,0.0,0.0,0.035904700421047,0.19119705063157053,9.78537705063157
2590000000.0,22.47,0.0,0.0,0.0,0.03924,0.180111499384715,9.798424250307644
2595000000.0,22.47,0.0,0.0,0.0,0.015401548785715487,0.17658,9.808136150404762
2600000000.0,22.47,0.0,0.0,0.0,0.017658050501880504,0.13733974749059746,9.80215194949812
2605000000.0,22.47,0.0,0.0,0.0,0.027369950598999507,0.1352799505989995,9.807939950599
2610000000.0,22.47,0.0,0.0,0.0,0.00647444791164448,0.152643701392237,9.779392597215525
2615000000.0,22.47,0.0,0.0,0.0,0.030215003172950033,0.15696,9.793421252379712
2620000000.0,22.47,0.0,0.0,0.0,0.03178434910964349,0.171871301780713,9.785278698219289
2625000000.0,22.47,0.0,0.0,0.0,0.036787550987475506,0.16922244901252448,9.787927550987476
2630000000.0,22.47,0.0,0.0,0.0,0.05375890216918902,0.15951054891540548,9.804898902169189
2635000000.0,22.47,0.0,0.0,0.0,0.02305324409143244,0.14263729763657296,9.78851594645486
2640000000.0,22.47,0.0,0.0,0.0,0.01687325127883251,0.14440325127883252,9.78057
2645000000.0,22.47,0.0,0.0,0.0,0.03355030275190303,0.16108030275190302,9.801465454127856
2650000000.0,22.47,0.0,0.0,0.0,0.032372948526929485,0.14616884558078844,9.78939884558079
2655000000.0,22.47,0.0,0.0,0.0,0.02943,0.15087790314037902,9.79410790314038
2660000000.0,22.47,0.0,0.0,0.0,0.04277170333461704,0.15696,9.793519148332692
2665000000.0,22.47,0.0,0.0,0.0,0.04905,0.14381449647114494,9.796952751764428
2670000000.0,22.47,0.0,0.0,0.0,0.036100696276906964,0.1308653481384535,9.80019
2675000000.0,22.47,0.0,0.0,0.0,0.010300344124003442,0.13390655195866552,9.787436896082669
2680000000.0,22.47,0.0,0.0,0.0,0.012556904111569041,0.14989690411156903,9.799405356167354
2685000000.0,22.47,0.0,0.0,0.0,0.0072592956941929555,0.15077964784709647,9.797639295694193
2690000000.0,22.47,0.0,0.0,0.0,0.012164504500045045,0.1958080180001802,9.796462252250024
2695000000.0,22.47,0.0,0.0,0.0,0.037572457041424576,0.13586771479287713,9.79420584765286
2700000000.0,22.47,0.0025551847914135296,0.02492352378509953,-0.003193980989266957,0.01961973777869738,0.02550552800165528,9.77860789511148
2705000000.0,22.47,-0.0007665942247839846,0.07485136536727705,-0.0034388051187138444,-0.08681928812069288,0.0827972406620724,9.747608189834482
2710000000.0,22.47,0.0012989254436661934,0.11097792774603615,0.0015757175249218034,-0.44302233720192336,0.16421955791549558,9.759969263192493
2715000000.0,22.47,0.013222339843249031,0.10822827595624832,0.0006174631498940264,-0.7858803129192031,0.2213140218849402,9.797345258206853
2720000000.0,22.47,0.017988748066887838,0.07043702450467508,-0.0009368812749032374,-0.8609253886690539,0.1781488603416886,9.738582513174425
2725000000.0,22.47,0.016466303083616785,0.0022414270844316256,0.0,-0.8058911294910113,0.301168799615088,9.644701129491011
2730000000.0,22.47,0.014827956655023896,-0.0915305172505016,0.0005749172104706382,-0.6319587682716877,0.8220817118882172,9.608502546973025
2735000000.0,22.47,-0.004789722886162102,-0.1779454361235679,0.0016289215562900166,-0.15656398756163986,1.0443716437663164,9.97314407181064
2740000000.0,22.47,-0.038481896628617576,-0.23857980486529515,0.0010220532580802097,0.5344527383697274,0.7267223518242235,10.172968669469686
2745000000.0,22.47,-0.09235834233722516,-0.23487319421005062,0.0010859554335585471,1.1280545125982453,0.2249402608551026,9.800089180765092
2750000000.0,22.47,-0.1288925652597812,-0.1842890604589631,0.001064639249668696,1.3537798931690992,-0.21582181612531817,9.476459145352791
2755000000.0,22.47,-0.12471908749190082,-0.0961264296274881,0.0005216847209850305,1.3680047675628477,-0.5027638378142384,9.537381651864518
2760000000.0,22.47,-0.10043649013383132,0.024418459831431316,-0.0014905402717230924,1.312969488635295,-0.5854603175128033,9.762520511364706
2765000000.0,22.47,-0.06230718909521537,0.14961617031663593,-0.0022570364741029032,0.9864908072460081,-0.48422095551830957,10.065945424219954
2770000000.0,22.47,-0.014757112254003744,0.2429852920913922,0.0004897452272936659,0.5175732326272324,-0.44890592282355923,10.206518962509689
2775000000.0,22.47,0.04026936665039747,0.26408403548945825,0.00010645338492341146,0.001958550333085507,-0.31735150566131504,10.014047137583272
2780000000.0,22.47,0.07260926968123624,0.24134871682206938,-0.0015331030752159228,-0.550539791911898,-0.11340354600183547,9.750745386075254
2785000000.0,22.47,0.09791214115532898,0.16328122376076845,-0.002129301687433,-0.9323439146679392,-0.05307139676131398,9.639405560572657
2790000000.0,22.47,0.12261115468857488,0.04554679051378523,-0.0012349832160226406,-1.0641884748455848,0.11850610061766101,9.670892628420328
2795000000.0,22.47,0.12395256177739927,-0.068698778421066,-0.0013095382134242152,-0.9335182970514829,0.5768323431617235,9.614488165817082
2800000000.0,22.47,0.1363523091644178,-0.14551537046808977,-0.0027680862912386234,-0.5787870087347702,1.2360627193320273,9.806076489479764
2805000000.0,22.47,0.09308148853309593,-0.15190996152920233,-0.0008836424613915548,-0.05228441236074413,1.3811477751333778,10.096259177993092
2810000000.0,22.47,-0.018084528068163894,-0.10199269266461773,0.0006600775995998065,0.26487,0.7451617052651172,9.82607901208889
2815000000.0,22.47,-0.065854052225436,-0.05105055640218582,0.0011817802386587528,0.10516079416810792,0.13547681081396812,8.877953376305934
2820000000.0,22.47,-0.11436430179869997,0.013761702964436304,0.0016608315378597624,-0.10673186882301869,0.07102215422022154,9.253187631731876
2825000000.0,22.47,-0.09092019624140008,0.02018634106307663,0.0004258841579848503,-0.0034335548722355487,-0.18295644512776443,9.853658176439781
2830000000.0,22.47,-0.07704196274655631,-0.013490640433525831,0.0024699780260931514,-0.00647454503064545,-0.17658,10.25753181521452
2835000000.0,22.47,-0.05558717410593732,-0.06903615919915444,0.0007133100890854142,0.042085615864156156,-0.18629206519942065,10.166887029069372
2840000000.0,22.47,-0.010135392217755841,-0.11219884601705049,0.0,0.21228988941699892,-0.19659223450922234,9.980692345092224
2845000000.0,22.47,0.008916700107592407,-0.10565634129062494,-0.0013201910353474017,0.4775523472999235,-0.13400382635003827,9.765364223696443
2850000000.0,22.47,0.03036003237756517,-0.06359582035489605,-0.0036198008529866274,0.7171119410831195,-0.05101222143132221,9.755064442862645
2855000000.0,22.47,0.0340862802914492,0.02275663222490725,-0.0024380564504756287,0.7627261136262612,-0.030115757265857572,9.792930267270302
2860000000.0,22.47,0.03557682161717665,0.10448345643395465,-0.0017034112054221816,0.4952069112296691,0.0690620111355201,9.759380566656205
2865000000.0,22.47,0.044588558808490206,0.15587178703431007,0.0015543781529362868,0.14381226273412262,0.06729760168537602,9.804408800842689
2870000000.0,22.47,0.057206626642693374,0.1697036294090893,-0.0005536305387024699,-0.23858098388180982,0.22935852470198526,9.835701475298015
2875000000.0,22.47,0.05513063017104577,0.16405200466360165,-0.0023954704588871386,-0.5420041194593412,0.35070811427768117,9.76830811427768
2880000000.0,22.47,0.05739821512064166,0.12070732294987048,-0.002682907984035592,-0.8095224866325248,0.48814694257306945,9.865721191583813
2885000000.0,22.47,0.041488262287072225,0.060349641942968595,0.0004046038102427682,-0.9674618637740187,0.6129274550960746,9.91791
2890000000.0,22.47,0.016877512252700982,-0.0019883140229065444,0.003917878552006163,-0.9113487193260872,0.4294817438652175,9.870428365034783
2895000000.0,22.47,-0.011310391510816389,-0.06641290031027415,-0.0008410680638508727,-0.8195259379705594,0.4032885939128859,9.683548593912885
2900000000.0,22.47,-0.03494163844254815,-0.12165671148958893,0.0004258725639370115,-0.5591683101293832,0.3276538310129383,9.633420563290205
2905000000.0,22.47,-0.054789881106085805,-0.16935234724673254,0.0019270119033616157,-0.2473077865282779,0.33206934639209346,9.71376395642614
2910000000.0,22.47,-0.055460733792112894,-0.2069412888881519,0.0014479374160650434,0.21091923924439243,0.43889900433719004,9.762324700034947
2915000000.0,22.47,-0.06993986869377722,-0.21142337069645348,0.0026509621663181595,0.87593699495397,0.35423813745358135,9.910649354351694
2920000000.0,22.47,-0.0712416584374501,-0.19068583453586352,0.00034070058076003917,1.2227200448074005,0.15617304473513047,9.733089656717496
2925000000.0,22.47,-0.08591639492996997,-0.11078515335768996,0.0016501903099843057,1.454332215926922,-0.19963514762385148,9.711898863707688
2930000000.0,22.47,-0.0750863966041169,-0.02193880701305407,-0.0018099373166454106,1.3824239479418394,-0.4428234569117346,9.565731853676018
2935000000.0,22.47,-0.05526657483946784,0.09074665791617033,-0.005834261875544554,1.1598346467432465,-0.4474339289734393,9.754772493433824
2940000000.0,22.47,-0.02573487542321202,0.17683916418604462,-0.001873773089849933,0.8452263449595634,-0.4100574289402743,10.162374686046247
2945000000.0,22.47,0.03074535801635391,0.2259260084090562,0.0,0.2938063538299635,-0.3043051703443517,10.051226126704162
2950000000.0,22.47,0.05880557758541009,0.23936465809116708,-0.00010647130299729033,-0.2266133493086335,-0.14028259889852598,9.761929911296
2955000000.0,22.47,0.09111362333489641,0.19411944636782044,-0.0015437748692173619,-0.6142057645225577,-0.058171979861419795,9.59329704260267
2960000000.0,22.47,0.1075995483854504,0.14990328099676467,-0.00613237014069005,-0.8927114373612144,0.15735314742783146,9.598497434900073
2965000000.0,22.47,0.1075995483854504,0.10532902965795482,-0.0031939525311496,-1.1252075759156757,0.29940327329643274,9.768504333507243
2970000000.0,22.47,0.10664022141413126,0.04253220063220767,-0.0030661819083319854,-1.2129080538678805,0.646088388349284,9.879455838396359
2975000000.0,22.47,0.08788386995649514,-0.028658670260263846,-0.0009581732166931347,-1.1453160553548607,0.9314594422141944,10.05868506021675
2980000000.0,22.47,0.016241914560625702,-0.0893136738152682,0.0011924277905601872,-0.8997713477464134,0.9060492268000923,10.271456669590465
2985000000.0,22.47,-0.004856182456316108,-0.13720818194609768,0.004194711739431218,-0.5913454084789541,0.5243453697006537,9.341769221820392
2990000000.0,22.47,-0.059336528352338144,-0.16568357804298947,0.002108002367612682,-0.3523720638332207,0.6623698061480982,9.430157613080276
2995000000.0,22.47,-0.09590289427781809,-0.1940630987425726,0.0010859564875628938,0.17148159236551594,0.4290878874686789,9.5684800106227
3000000000.0,22.47,-0.0990650781676529,-0.21305201905827287,0.003193933559071375,0.6376518646848187,0.17657778568677784,9.937529825185798
3005000000.0,22.47,-0.130702487302003,-0.1592632399019474,3.192052161314109e-05,0.9484326677926267,-0.19247441800374418,9.908394124894441
3010000000.0,22.47,-0.10387729414586896,-0.10651782491757028,0.0,1.0669363015876632,-0.46538803703788045,9.927327716931277
3015000000.0,22.47,-0.0795709852148855,-0.022801519885526825,0.0,1.06929,-0.48039575856275757,10.013361827064818
3020000000.0,22.47,-0.04405259179297771,0.05748185586012805,-0.0010220711761540888,1.0127840480407404,-0.4712723413401234,10.110186586598767
3025000000.0,22.47,0.003938628891071098,0.10525585198505186,0.0009581985127974345,0.8147192661030926,-0.44292132372901327,9.778605884748158
3030000000.0,22.47,0.034426100312053995,0.13864007817628482,-0.0029384618777229766,0.4816689401059894,-0.26624228177182285,9.65951395260474
3035000000.0,22.47,0.08278423438848335,0.15646328475258725,-0.0031939525311496,0.18736923146299228,-0.14557969258519693,9.52531297468273
3040000000.0,22.47,0.10687432422865124,0.1576555913326477,-0.002214467346583905,-0.14911406669234065,0.025114662870346638,9.542775777145058
3045000000.0,22.47,0.11835258609585207,0.13632525762451952,-0.003098140374101572,-0.41761329692773297,0.22671034205490342,9.804017615218676
3050000000.0,22.47,0.11356155453370397,0.09874700042515382,-0.0051103369086924096,-0.679834599549946,0.7131901398573015,9.926739651668496
3055000000.0,22.47,0.1129228026040331,0.05783646948831926,-0.0005855257642113322,-0.7499747966985479,0.852489593397096,10.216920698870707
3060000000.0,22.47,0.05855193140503111,0.024208214785411627,0.0018737983859542329,-0.75537,0.8460142811263428,9.975198498021486
3065000000.0,22.47,0.005721396083690093,-0.010335704084917869,0.0002767962972730102,-0.6700224046605241,0.6302910116513101,9.562000580506307
3070000000.0,22.47,-0.015729359936301777,-0.04972816718029954,0.0,-0.6235233614757337,0.5056067440582674,9.3540301266408
3075000000.0,22.47,-0.058854539508467835,-0.07984549774392252,0.0018099193985715036,-0.4846130443490304,0.3987758429899584,9.446049836194598
3080000000.0,22.47,-0.06425463249268805,-0.11726402585470105,0.00034067528465573944,-0.2632989641926896,0.18481896419268964,9.713863794759137
3085000000.0,22.47,-0.08336911102424771,-0.1288713112621477,0.0008836667034915087,-0.046498081706680794,-0.04012427821574277,9.948224278215744
3090000000.0,22.47,-0.07686317478853398,-0.12908419589790332,0.0001916306381221128,0.1269424203322242,-0.12674556011725557,10.058978340175884
3095000000.0,22.47,-0.06766147598361934,-0.12113120189050548,0.0,0.37945248326652486,-0.1532323202333232,10.225847042216571
3100000000.0,22.47,-0.03877402544071544,-0.10226220072918454,-0.0008517272098001441,0.6199934451307345,-0.2118964214964642,10.072906554869265
3105000000.0,22.47,-0.01259833402185397,-0.06686646295067668,0.0006175105800895451,0.7833294046634942,-0.17138027782370277,9.80882111129481
3110000000.0,22.47,0.0033430888760613243,-0.02202437022190966,-0.0014266517983012028,0.8830967436721675,-0.08809325632783256,9.682273256327832
3115000000.0,22.47,0.030175187972341724,0.02273336393857514,-0.002129301687433,0.8571974369691744,-0.04600871848458718,9.594866155453762
3120000000.0,22.47,0.03647109160438714,0.07997834932427986,-0.005365866560279784,0.7243694303638943,-0.009417357590973573,9.656572266624822
3125000000.0,22.47,0.04660910342035389,0.12516217441766772,-0.0023954314607263676,0.43654293622122936,0.058860485595004855,9.778118289091884
3130000000.0,22.47,0.050861344462134715,0.15262604675989405,-0.0018524990661339148,0.04826264654722645,0.19463137274391373,9.897113529557936
3135000000.0,22.47,0.05036094535891351,0.14861661975760004,-0.002129301687433,-0.259378105021181,0.27124680446806804,10.035140413404205
3140000000.0,22.47,0.05084005146634047,0.12263711315685141,-0.002129301687433,-0.531311307740513,0.33393282693512827,9.91241499721315
3145000000.0,22.47,0.045078485307252586,0.0852381378634135,-0.003641119144885171,-0.7057322552299226,0.44370709414207093,9.751727744770077
3150000000.0,22.47,0.03515086473289193,0.03547522361558418,-0.0012775544515503151,-0.7386929388150294,0.5424935506647355,9.636362326965322
3155000000.0,22.47,0.012110310933988844,-0.013900625264250371,0.0,-0.6815983097432832,0.5757489612820896,9.58368311615373
3160000000.0,22.47,-0.01781302363297239,-0.06208934758069399,0.0,-0.5505362179326622,0.492068802070288,9.554547415862375
3165000000.0,22.47,-0.044829814735815085,-0.09704327918694515,0.0,-0.3754275319497753,0.3263775319497753,9.656866945097569
3170000000.0,22.47,-0.05888885868479064,-0.1163723648911004,0.002810704956961836,-0.1909014301045143,0.12242744538417447,9.815494585175145
3175000000.0,22.47,-0.06662886371000265,-0.12005594987107869,0.002874543892179393,0.012754356752443574,-0.0019624933645249337,9.964508425058485
3180000000.0,22.47,-0.05492816331424424,-0.11726655793599364,0.0007665352005406011,0.25780846772748467,-0.07965769414147694,10.022288461767683
3185000000.0,22.47,-0.04083191731427241,-0.09732513057545453,0.0,0.48294759916087604,-0.13263144745921449,9.933114572027945
3190000000.0,22.47,-0.025398608364863153,-0.05854364551401467,0.0,0.607828095695381,-0.1532322619619226,9.76310702272347
3195000000.0,22.47,-0.0025192210227361032,-0.013602108339157655,-0.0006494437497548348,0.6316658379409584,-0.1330233517638335,9.638422541468625
3200000000.0,22.47,0.008730150409731186,0.03302542388065634,-0.0017034480955742132,0.5807515027507151,-0.08240362706303628,9.651078497249285
3205000000.0,22.47,0.022783320979965348,0.06728871357554875,-0.0008730001795118165,0.4625405662008057,-0.035708150986881515,9.786653320559033
3210000000.0,22.47,0.039367029676778034,0.08394691402950223,0.0,0.27134316594083163,0.042968485854384855,9.927328348204783
3215000000.0,22.47,0.05323874583078259,0.0884183799060327,-0.0012137155163326973,0.04796946370709462,0.21690053629290534,9.99913704979007
3220000000.0,22.47,0.05667429753181985,0.08186005604307092,-0.0015330904271637729,-0.10948028799100287,0.3688566254463662,10.01601
3225000000.0,22.47,0.049647581515606394,0.06908527929197911,-0.003992474655577138,-0.21091562641755626,0.4228111252835113,9.854143120747331
3230000000.0,22.47,0.03085759309891939,0.05537536892614068,-0.002938395475449188,-0.297439701910997,0.42634253726112536,9.65284298439463
3235000000.0,22.47,0.011336006079937365,0.03376425734156871,0.0005642717665778625,-0.35953681417996813,0.40623191149201915,9.56298382298404
3240000000.0,22.47,-0.005195625886351741,0.005288861244676913,-4.259969364498188e-05,-0.37748873706688735,0.3719949482675495,9.571028840531788
3245000000.0,22.47,-0.02305869466511045,-0.025358449935349463,-0.0005216720729328806,-0.34276102181861023,0.3081315327279153,9.689043771513937
3250000000.0,22.47,-0.034086321397618684,-0.05645286659685943,0.0,-0.2599643055991431,0.1912940530897405,9.834525820655557
3255000000.0,22.47,-0.03988866169754578,-0.07815698041472977,0.0005216857749893763,-0.12429162518401625,0.06965036775530367,9.91271088967341
3260000000.0,22.47,-0.035959976438981946,-0.08215819171232942,0.0005536115666242452,0.04081067646700677,0.010202273356822732,9.913593410035235
3265000000.0,22.47,-0.024259491060110116,-0.07082203468514668,-0.0015011783375854465,0.20130221469932214,-0.018443053674830536,9.870625419487753
3270000000.0,22.47,-0.015744915882769137,-0.046594492172798,-0.0007452211246594957,0.3115659810949598,-0.021189345936693457,9.79881602835756
3275000000.0,22.47,-0.005003762313269213,-0.0134239789092276,0.0006920023372303295,0.3654228180647282,-0.008829127225891272,9.689336109418761
3280000000.0,22.47,0.0060046722441722995,0.01610535934722719,-0.0005961975582127314,0.34923536289935364,0.014911709680517096,9.631065854840259
3285000000.0,22.47,0.013251816923607157,0.03623697194307632,-0.001831227150426631,0.2647714533497145,0.12635382091493821,9.72053382091494
3290000000.0,22.47,0.018563677925410627,0.04383846814919551,-0.002469962216027956,0.19678815266988153,0.2240605278086053,9.892405278086054
3295000000.0,22.47,0.0191811684794176,0.03780183533124489,-0.0008730275836248078,0.1288048519900485,0.23141783599857838,9.982067015991472
3300000000.0,22.47,0.01661898328487801,0.028337123996807788,-0.0025551689813483225,0.05297342311313422,0.21778187180291872,9.927719679507296
3305000000.0,22.47,0.011530147736543879,0.02325876030994578,-0.0019482901430950784,-0.015303856782638568,0.1868801790217018,9.844726501260764
3310000000.0,22.47,0.008368134699085645,0.0213104701668507,0.0,-0.06160718575667186,0.16441572858555728,9.727399221364992
3315000000.0,22.47,0.004812193861403455,0.018940445532716545,0.0,-0.10172976438989766,0.1947288219494882,9.665400471220206
3320000000.0,22.47,0.0017460203851062037,0.011455580091090226,0.0003832813023267962,-0.11144166448701665,0.22916166448701664,9.681293315896134
3325000000.0,22.47,-0.002289062396150677,0.00047900176099675406,-5.3253569572524195e-05,-0.11085287083172872,0.23544,9.76242208125722
3330000000.0,22.47,-0.0085172067497323,-0.014314953888786695,-0.0014053250743678936,-0.08475814127498142,0.22876907063749072,9.839822788087528
3335000000.0,22.47,-0.009219890367003197,-0.029785175245342247,0.0003513418086354316,-0.03943581132975811,0.2028705408865054,9.894856823891867
3340000000.0,22.47,-0.0106465084371654,-0.038004188355577055,0.0007239555329781899,0.025114119003941192,0.14832661612056613,9.912023675622537
3345000000.0,22.47,-0.011306606062847778,-0.032659549442822004,-0.0003300488128411885,0.09368582486305825,0.05483718530127185,9.857381845191718
3350000000.0,22.47,-0.009901189290101706,-0.01598183860816203,-0.000745248528772433,0.1216438698605387,-0.02256306506973065,9.792341609581616
3355000000.0,22.47,-0.0007239059947739494,0.006041794519134756,0.0003087558170469454,0.1022200696663007,-0.01236020899890209,9.75114
3360000000.0,22.47,0.008006238090931199,0.028507630279831005,0.000766541524566676,0.06631507788825078,0.04591119158381192,9.740152538944125
3365000000.0,22.47,0.01605967560230879,0.041538836197465,0.0,-0.00873135752761358,0.13067024577740244,9.727792592166526
3370000000.0,22.47,0.0191811684794176,0.03738659134713113,0.0,-0.07671465820744659,0.2733073200402732,9.788614658207447
3375000000.0,22.47,0.01731361626144671,0.018111954989118162,0.0,-0.12507743444467434,0.35316,9.849240262221302
3380000000.0,22.47,0.00864487935014575,-0.008862212177979563,0.0,-0.10830213739022138,0.33667874043288737,9.87867
3385000000.0,22.47,-0.0035134191403587535,-0.025888540150926054,-0.0004897536593284323,-0.06268543975305439,0.2619263425043634,9.862875439753054
3390000000.0,22.47,-0.012413850276183205,-0.03502320161851762,-0.0014266106921317161,0.0009813292334132917,0.1755986707665867,9.788417341533174
3395000000.0,22.47,-0.015355944788523446,-0.03655621299535553,0.0008410670098465268,0.05984165943801659,0.131159502168595,9.705719502168595
3400000000.0,22.47,-0.0170518667919846,-0.028550052900745852,0.0,0.1471503302046033,0.09613760375447604,9.690318264163682
3405000000.0,22.47,-0.015430223844131548,-0.02100896555412781,0.00020229083807573003,0.19011793227607932,0.05650586455215865,9.732893796828238
3410000000.0,22.47,-0.007942273729196456,-0.008730065035379243,0.0006813621633592829,0.20601,0.08475826752968267,9.79469692988127
3415000000.0,22.47,-0.004418265007175231,0.0009049892114074687,-0.000883653001435013,0.201006701003167,0.07534106532911065,9.864053298996833
3420000000.0,22.47,0.0015331620994593366,0.006345362284888924,0.0,0.17344066714120665,0.10320100071181001,9.894758665717587
3425000000.0,22.47,0.0095818575934488,0.013470530704479147,0.0,0.14224433473484333,0.07700843347348432,9.91741903431439
3430000000.0,22.47,0.010327149336399439,0.02522847203736534,0.00014905834859012233,0.053366133505461336,0.07553733311817333,9.849435733634557
3435000000.0,22.47,0.015184204560150193,0.03843244063670307,0.0006494152916374977,0.00559096607170966,0.121546100162261,9.785278533116985
3440000000.0,22.47,0.01769069355596402,0.05377851018205043,-0.002129301687433,-0.10006266817872668,0.15539086772510868,9.742899132274891
3445000000.0,22.47,0.022140883300769774,0.05611870590572001,-0.0018950639776354845,-0.196102502234925,0.22445333531993336,9.691103335319934
3450000000.0,22.47,0.01939229501864564,0.04228392451757688,0.0,-0.2786042680484427,0.3011674690847747,9.764874268048443
3455000000.0,22.47,0.010465423112523175,0.018040253648007265,-0.00047912929552259106,-0.31392,0.35590626312616264,9.80107296710923
3460000000.0,22.47,-0.0028107365770921764,-0.00621912506560683,-0.004982536773753112,-0.3131351327936513,0.28370513279365134,9.812354601619047
3465000000.0,22.47,-0.01102039460393497,-0.030329438052600466,-0.000915585117095957,-0.2965555596618556,0.2691858615722586,9.838743232696533
3470000000.0,22.47,-0.01617887504450746,-0.05216032893004424,0.0010646508437165,-0.18795865639178658,0.1938453303976533,9.82962
3475000000.0,22.47,-0.019287648214449664,-0.06870583204277218,0.0009581711086844431,-0.047086380055063805,0.15548829750688298,9.827657730009177
3480000000.0,22.47,-0.021182690057993978,-0.07845248373405266,-0.000979464104478686,0.18246701392237014,0.12870740278447404,9.788810129620702
3485000000.0,22.47,-0.01805262389225753,-0.06869411460734463,0.0010327039719947146,0.32814551537915515,0.15637126461611264,9.749668161540281
3490000000.0,22.47,-0.015965566387987195,-0.05062658892518571,0.0,0.4718613389453134,0.13576985768749858,9.702875071156251
3495000000.0,22.47,-0.014851842432393786,-0.02531320586575215,1.0653875927542277e-05,0.5201263357723633,0.05807465691054657,9.74191900731709
3500000000.0,22.47,-0.0095818575934488,1.5505959015382728e-07,0.0010646360876556584,0.5395492521836927,-0.019620271933202718,9.800190475883106
3505000000.0,22.47,-0.0095818575934488,0.02215152508156548,-0.0010433726039830984,0.43271835111538354,-0.05846787232167872,9.868173776562937
3510000000.0,22.47,0.0060686207958418545,0.046389625555446165,0.0010220796081888554,0.2778181091593811,-0.030018395467383958,9.916929340887693
3515000000.0,22.47,0.01879745961418034,0.0675339182696796,-0.0010007866123946123,0.12242770760547705,0.027664609647946096,9.927425768274658
3520000000.0,22.47,0.031446035241319295,0.0845424715478957,-0.003108795304033465,-0.014127357204873583,0.06710067348710673,9.81470797953868
3525000000.0,22.47,0.039036958729845576,0.08117872444583765,-0.00015967533436556623,-0.16873309550233095,0.14322654775116547,9.688845609904357
3530000000.0,22.47,0.0394095345100319,0.06994084620505357,-0.002001558468728383,-0.324123497056235,0.3961296512823965,9.691691468566015
3535000000.0,22.47,0.031488472618295064,0.045457794067200054,-0.00014903621449886004,-0.3700334746525348,0.4758835806419358,9.847377267273272
3540000000.0,22.47,0.02011797913602971,0.027016871829208335,0.0,-0.4269316125615161,0.3904373123974731,9.795873118678232
3545000000.0,22.47,-0.001180348693412006,0.005207556368887201,0.0,-0.46734867542948677,0.32902698685576987,9.799307168857373
3550000000.0,22.47,-0.019498945744284325,-0.026525746080845448,0.0009581932427757053,-0.42673465522754656,0.20012303463713033,9.764873724182037
3555000000.0,22.47,-0.0260482038912438,-0.06111225305077221,0.00011710409883791619,-0.3432512785355128,0.15146612379356122,9.79587387620644
3560000000.0,22.47,-0.030381325373359427,-0.08747957299974714,0.0,-0.14361687872796877,0.1644157382974574,9.782924261702544
3565000000.0,22.47,-0.023482297767624612,-0.10351523408064701,0.0018525074981686814,0.07004492340864925,0.23504815396678153,9.806174307737544
3570000000.0,22.47,-0.021459513759379996,-0.10087475714956103,0.0002980871850585616,0.3765100883179009,0.20306665328516654,9.826873338685933
3575000000.0,22.47,-0.02764519543988164,-0.08022040261453169,0.0,0.5802628193616282,0.12115287503922875,9.787927152799572
3580000000.0,22.47,-0.03323459734983155,-0.04895415692910208,-0.0008943142553929761,0.665903286760433,-0.01569704305807043,9.76408906092559
3585000000.0,22.47,-0.030551609261465617,-0.010957944500869933,-0.00018098308622064544,0.6198934125597342,-0.14509080524620804,9.777234739268648
3590000000.0,22.47,-0.017591067458272432,0.028057495054215984,-0.000873021259598733,0.5116887632226876,-0.12654865134278653,9.820791348657213
3595000000.0,22.47,0.0006176338985979923,0.06189868603909219,-0.0019270256054181114,0.4030921318858213,-0.10977383017143831,9.940866377599864
3600000000.0,22.47,0.02556577272840222,0.08011071903458483,-0.0004258451598240201,0.2491728112634281,-0.04512544059455441,9.880631230817512
3605000000.0,22.47,0.04098530895118842,0.09655243394196837,0.0,0.05307062952120628,0.0325697601823976,9.766050359726403
3610000000.0,22.47,0.0511556689899088,0.09846866865089411,-0.0008304352680102468,-0.16618301275813013,0.11791683107926829,9.710722519520326
3615000000.0,22.47,0.05408723754098003,0.09308150487880261,-0.0002448620736033747,-0.36689540434075407,0.37150687672816873,9.724751310651113
3620000000.0,22.47,0.04947724598128723,0.07622536463766427,-0.002427426816648087,-0.5163993843981939,0.46381701094247013,9.880633406283135
3625000000.0,22.47,0.03355818051988279,0.04420456669254405,3.05661260035367e-08,-0.6229357041127571,0.4855951408225514,9.868859436709794
3630000000.0,22.47,0.005114632218304271,0.0036240445163856425,-0.001298896985548782,-0.6111626474580265,0.45420264745802646,9.776645294916053
3635000000.0,22.47,-0.00552556086672359,-0.047115379669086126,0.00020230664814091743,-0.5267962939448629,0.39132040576140403,9.708171776366918
3640000000.0,22.47,-0.022498153451881418,-0.08402735415520177,0.0018312071243440176,-0.380234398055244,0.3515901878921019,9.685216729297368
3645000000.0,22.47,-0.03329848476924902,-0.10705166111642825,0.002129301687433,-0.12458487600744875,0.29459380440173805,9.696400341599503
3650000000.0,22.47,-0.04708736112339746,-0.11888490888269951,-0.00010648816706682355,0.11183555973115558,0.1854080783406808,9.763893638071837
3655000000.0,22.47,-0.05514126507489505,-0.11482845827133974,-0.000330034056780347,0.3728801588257016,0.06592234807212348,9.80391794198798
3660000000.0,22.47,-0.05718537159105554,-0.09012717472375067,-0.0007239702890390314,0.5611330663666306,-0.05729132418441324,9.85669609763776
3665000000.0,22.47,-0.04752782523710422,-0.05633810038333309,0.0010753205297092297,0.6542293983175941,-0.17697325425873256,9.832660601682406
3670000000.0,22.47,-0.027847263883040416,-0.016614177698932715,0.0014266243941882116,0.6380419722879198,-0.18344664357326645,9.822949342570693
3675000000.0,22.47,-0.003625735467652727,0.021411090121525336,-0.0010114415423265004,0.5989002858526029,-0.16039342861753428,9.87425599967726
3680000000.0,22.47,0.022369031889231377,0.0545389794493508,-0.002129301687433,0.4881444563266446,-0.08789681372456815,9.854340699642908
3685000000.0,22.47,0.03732288100044374,0.08483491298459402,-0.0007878260883261525,0.30185219688922194,-0.01814814211648142,9.804898513693185
3690000000.0,22.47,0.05104646734912929,0.10644321780742935,-0.003300456508281635,0.09790229484972296,0.04865817339058173,9.76605091330471
3695000000.0,22.47,0.05817549694949224,0.11941725064162516,-0.0033749198073050363,-0.11801595073165949,0.2041476071897761,9.739171656458117
3700000000.0,22.47,0.06050709790703584,0.11142167112644415,-0.002129301687433,-0.34138965296539653,0.4022114373612144,9.802152862416728
3705000000.0,22.47,0.0473268663667827,0.085096791716458,-0.0015011498794680624,-0.5184595794776958,0.5212058037562581,9.947635523408055
3710000000.0,22.47,0.029870169101784718,0.04710332320711322,-0.000447145533648684,-0.6072393603114936,0.47539166319011666,9.868073326380232
3715000000.0,22.47,0.010536721512956287,0.00569244270526173,0.0,-0.6446153164782532,0.42183,9.705032278405822
3720000000.0,22.47,-0.010741595629289821,-0.03498298748228243,0.0,-0.5803585884084859,0.3723869496911695,9.62988796646078
3725000000.0,22.47,-0.0267935240923118,-0.07962750994742096,0.0,-0.4174141252805412,0.3497267170609672,9.657945723536557
3730000000.0,22.47,-0.04165484413178326,-0.116726436536434,0.0011498386369586597,-0.1640208815752088,0.2994003305907033,9.723279889803099
3735000000.0,22.47,-0.05126593667832964,-0.13448064904226348,0.0015650288668507917,0.12596243134102433,0.21405376471263765,9.819320588218405
3740000000.0,22.47,-0.057142833029662665,-0.1290711528187477,-4.260180165367353e-05,0.43870581522045815,0.08436454709974547,9.893581272645012
3745000000.0,22.47,-0.059634045027306716,-0.1002762036842903,-0.0005216710189285348,0.6682580729055807,-0.05984172742131728,9.888283654515735
3750000000.0,22.47,-0.04846764300267252,-0.06178437068024443,0.0005323333268908437,0.745560291357003,-0.16186580123175803,9.829619271607493
3755000000.0,22.47,-0.029476207573421783,-0.022249148467327316,0.0005429640147227778,0.7411451353181514,-0.20620605412726056,9.76614908119089
3760000000.0,22.47,-0.007972473666469481,0.019385340110494115,-0.0005110403310966006,0.6878767617990676,-0.17736450786604507,9.779393238200932
3765000000.0,22.47,0.018842090892562564,0.06057020821423278,-0.0005642570105170209,0.5834976299102763,-0.1292953612163536,9.805389226869393
3770000000.0,22.47,0.040461024295221124,0.09868991288885524,-0.000979494670604715,0.37846782285137825,-0.04394792126727922,9.822753366138635
3775000000.0,22.47,0.054172505438552496,0.12783592768280946,-0.0030875033622435166,0.11183194690431945,0.05052201327392013,9.84924
3780000000.0,22.47,0.06365847287863174,0.14189879868700717,-0.0037901490353579852,-0.18168362292483625,0.14440415448554156,9.84924
3785000000.0,22.47,0.0660432588954654,0.13708954285407826,-0.0018205290063165785,-0.4768660850152609,0.3128425909389259,9.84924
3790000000.0,22.47,0.059783000083470955,0.11065812468481674,-0.0004471613437138713,-0.6937643778592438,0.4702919153134192,9.861600820848608
3795000000.0,22.47,0.04414675356928657,0.0670148404988532,-0.0015011656895332498,-0.8049108685666088,0.5382752159932522,9.802248699446887
3800000000.0,22.47,0.022154985101372596,0.013204728294568424,-0.0012775649915937434,-0.8142296309477964,0.5827140738104407,9.680507778568678
3805000000.0,22.47,-0.002800168075516748,-0.04416128574923775,0.001245665550067559,-0.7197584435714846,0.5579922087395222,9.65519805218488
3810000000.0,22.47,-0.023152326450020952,-0.09689997032838893,0.0031939525311496,-0.5397446459017465,0.4728412599532126,9.654413622014037
3815000000.0,22.47,-0.048987420580548224,-0.13606435650760443,0.002012165968464772,-0.2849779064370791,0.32853519565865197,9.694438644610786
3820000000.0,22.47,-0.07133029897614153,-0.15897583085219508,0.00038328235633114204,0.05847027116100274,0.15107325801083257,9.773900090387
3825000000.0,22.47,-0.07771250595271723,-0.15728279421154878,0.0006920149852824794,0.3943643774731438,0.026485662671356623,9.876708594368287
3830000000.0,22.47,-0.07128124416247134,-0.1282590365955155,0.0007239787210737979,0.6551130646836307,-0.12831569271785692,9.921049051213691
3835000000.0,22.47,-0.0575791634247189,-0.08255663633586538,0.001426615962153445,0.7975537449027376,-0.21895949796109498,9.862776757136167
3840000000.0,22.47,-0.035966089664187684,-0.03153703692253303,-0.0006813927294853117,0.8507229016504291,-0.2515285491747855,9.764481450825214
3845000000.0,22.47,-0.005514713053996396,0.01889816496048573,-0.0017992518205874656,0.7966694278393943,-0.24358177720841778,9.766345873422559
3850000000.0,22.47,0.01735921530588476,0.07329373020268203,-0.0017034575816133558,0.6739454295857543,-0.1785415513102155,9.80313307478163
3855000000.0,22.47,0.03981934219891138,0.11655855923398821,-0.0022676819179956974,0.4415457787587578,-0.10035532657625326,9.821379899515
3860000000.0,22.47,0.05974061540671251,0.14266542136990853,-0.0005962207463083394,0.13498312579633126,0.025899374686293747,9.851986874975868
3865000000.0,22.47,0.07162683960852839,0.1510972769557251,-0.002416765562690075,-0.19345590262755902,0.149505300875853,9.861698775072988
3870000000.0,22.47,0.0809658240000169,0.13823162616161794,-0.002363500399069794,-0.5175775544227755,0.3221629557836296,9.863758649659786
3875000000.0,22.47,0.07856592262781119,0.10759046205588767,0.0,-0.7283931774050317,0.5910531774050318,9.859050301068903
3880000000.0,22.47,0.06293001959809225,0.06041732909988906,0.0005110487631313671,-0.804027901457379,0.6549155246356553,9.846099443441794
3885000000.0,22.47,0.025926696473266765,0.010612953811404782,0.001884423803764438,-0.8022607435395075,0.6339217472312175,9.664516115309262
3890000000.0,22.47,-0.01390836848125878,-0.04118496923631961,0.0008304194579450595,-0.6727689688555897,0.5583841421798414,9.523156204468663
3895000000.0,22.47,-0.0386149169706216,-0.09528941265525857,-0.00022358488787431894,-0.5412159599188596,0.4327184190986842,9.613212459179824
3900000000.0,22.47,-0.0628494296828242,-0.140398055480429,-0.0006387740637621051,-0.29233527289845274,0.3256905606964056,9.751141136292311
3905000000.0,22.47,-0.07583072464152027,-0.1718117066110106,0.0014692346278766706,0.05915710644777106,0.16166819320048192,9.885635782649457
3910000000.0,22.47,-0.07709051141351662,-0.1767908012657517,0.002619016348600719,0.4220291619352916,0.06631423295294234,9.967745255682352
3915000000.0,22.47,-0.07575657388070345,-0.14527041296389617,0.00018099889628583277,0.7724410729719108,-0.10849996879519969,9.974315598895556
3920000000.0,22.47,-0.059186833091384235,-0.10056677168873958,0.0007239460469390775,0.9625577329890773,-0.2629083807064838,9.753493562445735
3925000000.0,22.47,-0.04618464603867808,-0.03904871832544691,-0.0012243567442080897,1.02024,-0.30263842376158423,9.668736304953663
3930000000.0,22.47,-0.014536648376669903,0.013675467957400914,-0.0019802422848385318,0.9955174259603743,-0.28605914198679144,9.719945192361951
3935000000.0,22.47,0.011330386301552987,0.07162696560524456,-0.0009262379390191533,0.8130509656163096,-0.2252369885387699,9.837272258595922
3940000000.0,22.47,0.04009318830346288,0.12071844031125,-0.00012776640680022507,0.5670153214579532,-0.14400995817249956,9.895543659178637
3945000000.0,22.47,0.06294720294454835,0.15598611761574513,-0.0010646508437165,0.22817799468567995,-0.035020703850407044,9.943023293492434
3950000000.0,22.47,0.08107229741102287,0.16874544670635705,-0.0013840710767344558,-0.10398876206438762,0.09515830430818303,9.902213539655934
3955000000.0,22.47,0.08222212866995113,0.17113918180756454,-0.0042586033748661,-0.45273418873954185,0.25761167549581676,9.839527254967573
3960000000.0,22.47,0.0834769368092232,0.15318232748021215,-0.004173422959654361,-0.7793077845284779,0.4100606921387069,9.738975369245253
3965000000.0,22.47,0.07323880926734949,0.11010924601239543,-0.0028958168618911234,-0.9465674391075745,0.7293738850768389,9.72082810119978
3970000000.0,22.47,0.03994060337728299,0.05392377936773859,0.0011285382631339958,-1.0086639686625396,0.7685145517626456,9.82471307218783
3975000000.0,22.47,0.01272136122770394,-0.022537092139185585,0.0020228198443922514,-0.9716790330174904,0.6626648051135482,9.593198845580789
3980000000.0,22.47,-0.030041557050803858,-0.08880354575085106,0.0,-0.784405590025156,0.5717254084789541,9.579269727680698
3985000000.0,22.47,-0.061359486927892656,-0.150416825348448,3.194792572613118e-05,-0.5286580360577804,0.3954393197115932,9.695518151442283
3990000000.0,22.47,-0.0822221876941945,-0.19199783796178002,0.0011072536993745213,-0.16814006745860066,0.17500977999229778,9.801760220007703
3995000000.0,22.47,-0.09156971271745475,-0.2043538265613908,0.0031726426712858228,0.2501588799040888,0.09613644803836449,9.880142663971226
4000000000.0,22.47,-0.08735360244356452,-0.18641818709528105,0.0010646677077860332,0.7357522531608226,-0.09810116542801166,10.025818368400783
4005000000.0,22.47,-0.07152625849650576,-0.1326294079389556,0.003172676399424889,1.0173973559772735,-0.2437796668847967,9.821868466361286
4010000000.0,22.47,-0.05884611775456333,-0.0631901345832742,6.385369127843163e-05,1.0779232673366328,-0.331774901004949,9.694829587437296
4015000000.0,22.47,-0.02346130056691883,0.0043432701962225415,-0.0030981593461798023,1.0791000000000002,-0.3430557779865578,9.682764222013443
4020000000.0,22.47,0.00012724654075506672,0.06978995927987475,-0.00421602581531238,0.9095817944938179,-0.2774262534142625,9.851988205506181
4025000000.0,22.47,0.028389754839878257,0.12505851837755688,-0.0012243230160690283,0.6602109672993097,-0.21876253091522532,9.92428704726557
4030000000.0,22.47,0.05886671151350731,0.1648895975541731,-0.0010646508437165,0.3154867819950678,-0.0959407823871078,9.955384434833745
4035000000.0,22.47,0.07756851081638051,0.18903784560898856,-0.0020547846341879158,-0.07063513500135138,0.030313918875439175,9.893286351374764
4040000000.0,22.47,0.09156985711605008,0.18773875890265745,-0.002129301687433,-0.4681364173582642,0.18364445555444456,9.82530305069493
4045000000.0,22.47,0.09364582407557606,0.157433320978259,-0.0030981424821102635,-0.7859797142166972,0.3390348571083486,9.757319750015098
4050000000.0,22.47,0.08895066264071497,0.10268773056892155,-0.0022357582343694588,-0.9908115733278157,0.7681266973203671,9.689336449335265
4055000000.0,22.47,0.07418962935231468,0.03152372139189337,-0.00023420608966714072,-0.9842370637094706,0.8753468513445686,9.822165660216157
4060000000.0,22.47,0.022760035967793794,-0.029994320377351363,0.0009369013009858081,-0.9119369691149697,0.8570013634181136,9.770366969114969
4065000000.0,22.47,-0.03313465762537156,-0.0928858900178595,0.00013839604062781345,-0.663546189183062,0.6144961891830619,9.57318486292955
4070000000.0,22.47,-0.06154818634537149,-0.15249827506579325,0.0036624332207663454,-0.45066973984779735,0.4100564189026642,9.646370148658402
4075000000.0,22.47,-0.09304725951734155,-0.1862033099075066,0.002448679760277128,-0.12997972968049726,0.20747983780829837,9.729558633215886
4080000000.0,22.47,-0.09442297626189215,-0.20052935009046277,0.00034067106863835614,0.2923415662097157,0.0694537697616377,9.873177667985676
4085000000.0,22.47,-0.09904364699361677,-0.1758812826348163,0.0017673376230004007,0.7049499325413994,-0.08937044888580448,10.012283310847133
4090000000.0,22.47,-0.07916269181923331,-0.13113422695521287,0.0030023240010361605,0.9760969860835699,-0.29469414775354147,9.818434455029744
4095000000.0,22.47,-0.061624828409607854,-0.06987146082250809,0.0006068250840316472,1.0520247181618472,-0.34943235908092357,9.715136743216767
4100000000.0,22.47,-0.03132140204386399,-0.00980128479703294,-0.002555187953426587,1.0830242389127425,-0.37670423891274235,9.741330398187904
4105000000.0,22.47,-0.0017813983174338882,0.0534629301879483,-0.004035035351061314,0.9649103242448032,-0.2973402229183022,9.828639797346998
4110000000.0,22.47,0.03333748835557494,0.11114826222635096,-0.0009368580868076514,0.7406530042045301,-0.2058130815136308,9.925758798318189
4115000000.0,22.47,0.0653261802743171,0.1555545533592256,-0.0016395796482349422,0.3996563627003636,-0.09574464085274641,9.954893779928938
4120000000.0,22.47,0.08539072182198283,0.1845408517126448,-0.0005110150349923008,0.03805983903589838,0.0207981603126816,9.882593199739432
4125000000.0,22.47,0.09507250854801202,0.19147571760870372,-0.000798496828323228,-0.35071078505020786,0.1667712819708128,9.80754693913777
4130000000.0,22.47,0.09614773632533889,0.17282054811468245,-0.003428201834994893,-0.6980823274900233,0.3366806439653064,9.717785197797053
4135000000.0,22.47,0.0873216936542293,0.1296314769070815,-0.0027041957098080573,-0.9566731276179313,0.7621431568229315,9.663634478730346
4140000000.0,22.47,0.0642167193170548,0.06626539535674465,0.00017037031646259006,-1.0414298412435985,0.8883934391709344,9.87906497326505
4145000000.0,22.47,0.026200183870765524,-0.004559569132186976,-0.0012030816664877254,-1.0218092779533927,0.7853874728368747,9.778900126185402
4150000000.0,22.47,-0.02567076643825798,-0.07105463310716882,0.00010649132907986081,-0.873088387824584,0.6082183878245839,9.61281795208598
4155000000.0,22.47,-0.05583865109353625,-0.13611807356262898,0.0017992686846569988,-0.6382365016468651,0.373366501646865,9.642249807058898
4160000000.0,22.47,-0.07699992210718355,-0.18412558828992626,0.0014053303443896227,-0.3323600526977005,0.2075785495608855,9.712685284818052
4165000000.0,22.47,-0.09057970013748308,-0.20421582758666243,0.0003513259985702443,0.07014514050575138,0.14047887639948875,9.810393370801533
4170000000.0,22.47,-0.0902282423883696,-0.19436667965746293,0.002108035041747468,0.5525034118568342,-0.014912981939429831,9.959309576953196
4175000000.0,22.47,-0.07941062108004056,-0.15424304991150173,0.0018098888324455096,0.8917311084535111,-0.17118555422675555,9.862972053735222
4180000000.0,22.47,-0.06910938283355839,-0.08930719141208132,0.0003832654922616089,1.0563417742978176,-0.284883293106333,9.736620631659607
4185000000.0,22.47,-0.041214925594916164,-0.02325372256658431,-0.0033536942677889737,1.0801788561341885,-0.35463190644301906,9.7119
4190000000.0,22.47,-0.011440779019079533,0.04094736842327848,-0.002682884795939984,0.9902203419856035,-0.31803946752849466,9.827463346328733
4195000000.0,22.47,0.017364720698879395,0.10113462852150909,-0.0010646508437165,0.7801870999632711,-0.2426007296201073,9.940179270379893
4200000000.0,22.47,0.04836333047336304,0.14849295819664277,-0.0010646508437165,0.47087714470137154,-0.1451870210404702,9.96107391842004
4205000000.0,22.47,0.07203705378023138,0.17830965492792009,-0.0016928037056857833,0.1020207329168073,-0.022856238197962397,9.870330274843804
4210000000.0,22.47,0.08607623679702224,0.18130820460850897,-0.002129301687433,-0.26369574387115746,0.12046810838718108,9.76448094580641
4215000000.0,22.47,0.09358198092434111,0.15983473503676732,-0.0027361615536080973,-0.6077323654961236,0.27026672806976726,9.697969308772093
4220000000.0,22.47,0.09229365560238081,0.12075614671196506,-0.0031939525311496,-0.8542562754318628,0.608224098421841,9.689141045905311
4225000000.0,22.47,0.0771765270148605,0.06790416240218655,-0.0020228187903879504,-0.93195,0.8240400000000001,9.874748626097785
4230000000.0,22.47,0.040077227308309066,0.00817460474513241,8.518990125085135e-05,-0.93195,0.7392802853972029,9.899465392421154
4235000000.0,22.47,-0.016268042982783348,-0.0535564787065155,0.0010646508437165,-0.8227629725443297,0.5838898838432989,9.670205443505155
4240000000.0,22.47,-0.0507975392550562,-0.11799180213615412,0.003279160350474334,-0.5882053763633538,0.42849948228939483,9.59064897649839
4245000000.0,22.47,-0.06571338715535432,-0.16650136311628377,0.004780273339790338,-0.3009681614709816,0.31313454036774535,9.673641824540319
4250000000.0,22.47,-0.07723084642472933,-0.18588635469691459,0.0037262689939709104,0.06867363225063633,0.2207240919373409,9.785476073164961
4255000000.0,22.47,-0.08092327384457618,-0.18230893957469063,0.0026722646481514827,0.5008042191721422,0.07063034703460347,9.916537757075778
4260000000.0,22.47,-0.08053991876194518,-0.1537380058802435,0.0026403430725339943,0.8436620686347207,-0.10477212392622123,9.901820110583001
4265000000.0,22.47,-0.07376050917636434,-0.10298334687405462,0.0016927678695380784,1.0080762627400626,-0.26016252548012525,9.786946085787461
4270000000.0,22.47,-0.052087989138759935,-0.04294504921001863,-0.0014692451679201557,1.0541826829396268,-0.34335,9.765462682939626
4275000000.0,22.47,-0.020450679080818338,0.018700862258452303,-0.0027148506397399732,1.0197487526692874,-0.3212770848162708,9.83256416251444
4280000000.0,22.47,0.01048416870076492,0.07764248842674568,-0.002129301687433,0.8632779216533792,-0.27271758433067583,9.92536593253546
4285000000.0,22.47,0.04295189716264719,0.1297309134913358,-0.002129301687433,0.5909517366085174,-0.17775586830425869,9.926248083845081
4290000000.0,22.47,0.06512781290694303,0.1670533322158408,-0.002576464085151259,0.27193036684450367,-0.042966883390868835,9.861207450047074
4295000000.0,22.47,0.08130697918494645,0.1800307123432151,-0.0036304684309706953,-0.08642952043409521,0.067886201102662,9.761733798897339
4300000000.0,22.47,0.0894830307497492,0.170654604035282,-0.003832733972942126,-0.44537658919256595,0.20797350340213502,9.704052250567022
4305000000.0,22.47,0.0882373620376686,0.14163610901111104,-0.0019482838190690035,-0.7311415577254157,0.49374123011461235,9.74466590171676
4310000000.0,22.47,0.08142752894494217,0.097194818903668,0.0,-0.9225330697326307,0.7787178837165789,9.870039209197893
4315000000.0,22.47,0.05615644097189762,0.04117024567682527,0.0007878598164652188,-0.9893389190684893,0.763021297117813,9.968822810421928
4320000000.0,22.47,0.00784027060980248,-0.017217834273113346,0.0013627348667620241,-0.9460746378728464,0.637647902229579,9.757807695299777
4325000000.0,22.47,-0.031158627228292605,-0.07627663515853579,0.0007452738248767326,-0.7867613279365133,0.43261982388889825,9.532377168015872
4330000000.0,22.47,-0.05059453083008732,-0.12808969348404228,0.002129301687433,-0.6256790245331902,0.3266725794747258,9.56514290463033
4335000000.0,22.47,-0.07028062408276331,-0.16183500169357928,0.0014266138541447534,-0.27928724771087243,0.2554513895739139,9.675212452447825
4340000000.0,22.47,-0.07558814310502476,-0.17998815375573954,0.0,0.12517922486959226,0.15774429420424294,9.851202842992928
4345000000.0,22.47,-0.07810192238971718,-0.1739033303385672,0.0006601018416997603,0.5275850070636501,0.05993749646817497,9.945280659567706
4350000000.0,22.47,-0.07372081540725828,-0.14146725889721157,0.0024487061103857888,0.8348324363900244,-0.1334178588576786,9.947338310129384
4355000000.0,22.47,-0.05746204456982011,-0.08796223343445206,0.0019589208309270228,0.9629499383625993,-0.28449,9.7872401232748
4360000000.0,22.47,-0.03942187095702808,-0.020278107329410055,-0.0016608736980335591,0.9798224612489246,-0.29273065406330656,9.745254423438844
4365000000.0,22.47,-0.012192088763990926,0.03925976804330898,-0.002619022672626785,0.9118382282266823,-0.2927297217208972,9.804409063063991
4370000000.0,22.47,0.017060493247356003,0.09421502383083341,-0.0010646508437165,0.738102193067822,-0.21248383606193838,9.856106575589966
4375000000.0,22.47,0.04447120161037924,0.13581739900424653,-0.000798478910249349,0.4610669407514695,-0.12017156522961565,9.81981
4380000000.0,22.47,0.0666863768394331,0.15812409310235145,0.0,0.11614750740767509,-0.008631694008816942,9.803328604466286
4385000000.0,22.47,0.08079555381396714,0.16175445086286588,-0.0007346368130187464,-0.2208262514144625,0.12213577760045777,9.76242192586682
4390000000.0,22.47,0.08711949662254032,0.15156170802241511,-0.002491255211822219,-0.5564254170325542,0.31313826973738274,9.802348285270483
4395000000.0,22.47,0.08494756256732756,0.11877425366625455,0.0,-0.7780320390436204,0.6071416683084168,9.838842595146426
4400000000.0,22.47,0.07052485599999798,0.0664791456929221,-0.0002129394439815432,-0.86328,0.6867004273236044,9.931643316282234
4405000000.0,22.47,0.026544938895226307,0.01362715716712626,-0.0010646508437165,-0.8520960866289609,0.699844202134242,9.811076447582964
4410000000.0,22.47,-0.005284014448889508,-0.04840201030756714,-0.0006813579473418998,-0.7708681724797818,0.576238800387288,9.561218228682083
4415000000.0,22.47,-0.030299388319586087,-0.10594882087882482,0.0010646508437165,-0.5763353560980536,0.5015843566831436,9.556804500292545
4420000000.0,22.47,-0.06114600477534555,-0.1448402766931989,0.001575711200895687,-0.31313193757851937,0.3806262829360628,9.638914973651149
4425000000.0,22.47,-0.07663927420043995,-0.1738558120731668,0.0036197755568823427,0.05444868016168681,0.19521779669557798,9.786947445453475
4430000000.0,22.47,-0.08961086355882325,-0.1773664081579185,-0.00014906045659881395,0.4137889837550899,0.05238376509873764,9.893778346521783
4435000000.0,22.47,-0.09374979652433577,-0.1490612253308417,-0.0005109950089097173,0.7476215644574157,-0.1283161783128618,9.972550752409907
4440000000.0,22.47,-0.07077018696730511,-0.10550810078029214,0.0025551152271267334,0.9033055761750558,-0.27311100369171004,9.869251710066617
4445000000.0,22.47,-0.0543724283089959,-0.04539537986939784,-0.0022464226503404604,0.981,-0.3313816273224163,9.799110813661208
4450000000.0,22.47,-0.017582212214842956,0.007243660780381665,-0.0029810036011289343,0.9692269627690696,-0.3050902220768022,9.794304345743644
4455000000.0,22.47,0.009168487058862829,0.0677396745876506,-0.0009688228766032937,0.843854296273343,-0.22121506733485066,9.826088053867881
4460000000.0,22.47,0.039240803032096955,0.12033451675742268,-0.00017036293843216942,0.618419194684492,-0.16637647380806472,9.7919497732603
4465000000.0,22.47,0.06290390197515942,0.15778472191481038,-0.002054766716114037,0.2597656778183568,-0.03943498581824986,9.810686786727269
4470000000.0,22.47,0.07834686772966389,0.17351503033407212,-0.0011285393171383416,-0.08986272567792725,0.09594292871702928,9.822753434121935
4475000000.0,22.47,0.08751345498889027,0.17018158338609374,-0.002129301687433,-0.4394911291742113,0.22710349919463502,9.86886
4480000000.0,22.47,0.09024951325007259,0.14313197005228062,-0.0020867062098054016,-0.7808773052793732,0.45283212354012126,9.867682538944125
4485000000.0,22.47,0.0819763876431172,0.0994998465973837,-0.0010646508437165,-0.9244950969259509,0.7268231613472317,9.841785096925951
4490000000.0,22.47,0.04517511996782309,0.043390033931085835,-0.0010433483618831445,-0.9990497022970971,0.7528182662327827,9.910647373124073
4495000000.0,22.47,0.013456670858349316,-0.022961549503582684,1.0655983936233915e-05,-0.92056900304029,0.6273490634500907,9.55435087614011
4500000000.0,22.47,-0.02450470743468251,-0.08096629845748135,0.0010646698157947248,-0.7651777274153774,0.578788601486386,9.496080961478109
4505000000.0,22.47,-0.056142116569032646,-0.13368379450821982,0.0031726785074335812,-0.5126683248902832,0.42339819993248196,9.602911862546419
4510000000.0,22.47,-0.07315527864539909,-0.1749413542679068,0.004237319865110969,-0.21208948435849484,0.23916613557456137,9.777039976824101
4515000000.0,22.47,-0.08797083635615276,-0.19023020067324894,0.0021931617027375074,0.17462150793831507,0.12125054761850548,9.923306815476868
4520000000.0,22.47,-0.08637423122969835,-0.17739025438420727,-0.0009369213270683787,0.5819328874142289,-0.09888681929826819,10.021896877955768
4525000000.0,22.47,-0.08224336685751939,-0.13331220111192013,-5.322300344649529e-05,0.8500388731027888,-0.19178629103426292,9.951263296858434
4530000000.0,22.47,-0.06400000442950657,-0.07694686195604791,0.0,0.9647163678879637,-0.34374380783703806,9.790574704173148
4535000000.0,22.47,-0.02916848993337666,-0.020012301481026083,-0.0009901348444757616,1.0168069404346693,-0.33491322382613226,9.716706283391463
4540000000.0,22.47,-0.007027900267850416,0.04478923309763842,-8.516249713785991e-05,0.9119365417913654,-0.27036298271162984,9.775077017288371
4545000000.0,22.47,0.028602093138528753,0.09659378762968904,-0.001937683697363037,0.7239762343765623,-0.2202340585941406,9.807351564843517
4550000000.0,22.47,0.05401117979256276,0.13667883425066457,-0.003087497038217487,0.4414473486512735,-0.09221276270392761,9.871803618648036
4555000000.0,22.47,0.0725697318011008,0.1567295083322674,-0.004141501384036875,0.08897342640983424,0.008829884754098849,9.90486296542623
4560000000.0,22.47,0.08581865296007979,0.15590953511139374,-0.005195505729856342,-0.2358353228934532,0.13184755144287552,9.899467111427471
4565000000.0,22.47,0.08272244977685075,0.1407061959317256,-0.0043969983614895805,-0.5307236600894367,0.3605197167411972,9.838546479312464
4570000000.0,22.47,0.08660852163971312,0.10641552859490187,-0.002427384656474192,-0.6955303315015033,0.6623740405365404,9.787436556166167
4575000000.0,22.47,0.05838008204401117,0.06679076584453328,-0.0003193759648354214,-0.7745001220472013,0.781367299774973,9.888971655230517
4580000000.0,22.47,0.02731761330822737,0.013291915568612069,-0.0008943163634016677,-0.7683190220779903,0.654521687662917,9.652644842208847
4585000000.0,22.47,-0.01830266558511889,-0.038186522951829185,-0.0019483207092210462,-0.6918984984768851,0.5545584984768851,9.555135665651257
4590000000.0,22.47,-0.051965713904535034,-0.08879897721221103,0.0013627917829966986,-0.5562256626713566,0.37061992773989927,9.585351445776213
4595000000.0,22.47,-0.06701219771254674,-0.1351107175484919,0.002991678557143384,-0.3390314579433146,0.19845478270984782,9.745157595794877
4600000000.0,22.47,-0.07776847793772772,-0.16170146817241024,0.0006387614157099754,-0.035313051467130485,0.11183337455363375,9.890443250892732
4605000000.0,22.47,-0.06979437840907911,-0.1661727980823801,0.00084108387391606,0.35492955675719556,0.00510012664080127,9.9721599261262
4610000000.0,22.47,-0.0671079097391819,-0.1429069378263732,0.002725525595754455,0.7092661340301614,-0.06553133726231336,9.99423188954372
4615000000.0,22.47,-0.05235167393298866,-0.10108067421183421,0.0007345798967840723,0.9434295824575958,-0.22200200317592003,9.799991469338215
4620000000.0,22.47,-0.030129753525369278,-0.04359077821648984,-0.0008091443802246954,0.99081,-0.2425029307861293,9.651861723144517
4625000000.0,22.47,-0.010916868569212567,0.01997152500755428,-0.0010646508437165,0.9245916914843169,-0.2133672304947723,9.667755539010455
4630000000.0,22.47,0.013321295144928892,0.07169472547118613,-0.00027679945928604766,0.8008871409492715,-0.1842315302034153,9.805881328847313
4635000000.0,22.47,0.03812153171340146,0.11759232771581467,-0.0007772048865333308,0.5073699589446996,-0.09780470967754709,9.899369730205196
4640000000.0,22.47,0.05624373108911946,0.1537330926821824,-0.0025977676209889902,0.20012129620701294,-0.01922696911496969,9.953226450632165
4645000000.0,22.47,0.07130277114723035,0.16752670889387397,-0.003949864421888687,-0.13999203827142043,0.09751266312972663,9.89034290754093
4650000000.0,22.47,0.0771278647400547,0.1567024747622793,-0.0042586033748661,-0.45812979994079805,0.23347926448939263,9.797246187113961
4655000000.0,22.47,0.07555597185132863,0.12921707648929828,-0.0035239844799212555,-0.7253537508625376,0.4439047604447476,9.73014605749326
4660000000.0,22.47,0.07094060365995895,0.08670821299928032,-0.001022035340006363,-0.8644580146341801,0.6400060292683603,9.731912671544727
4665000000.0,22.47,0.04211913339169191,0.037828501986769326,0.0,-0.9190011624481116,0.7096555812240558,9.787339534284195
4670000000.0,22.47,0.0034550482932935445,-0.019467973774746215,0.00070267940125348,-0.8413043300719433,0.5931108765262088,9.674031495107915
4675000000.0,22.47,-0.029662156592478377,-0.07855868464173839,0.0010646508437165,-0.7053377287122773,0.4404677287122773,9.60399
4680000000.0,22.47,-0.05411308373187568,-0.1290682307212896,0.0031088100600942742,-0.5065862183187622,0.32961509096615094,9.660496418130464
4685000000.0,22.47,-0.06580909496597208,-0.16540688510725743,0.0035878634673039847,-0.1807947509803475,0.2201353079939531,9.809707429009574
4690000000.0,22.47,-0.07081293422155853,-0.1794771334507255,0.0012136723021545569,0.19796935280729352,0.13400396231663964,9.896916873292868
4695000000.0,22.47,-0.07437950469306834,-0.16484854372204943,-0.0006494469117678723,0.5946860301791603,0.01216294088412942,9.94400514716845
4700000000.0,22.47,-0.06732071110859418,-0.13017675093647635,0.0002129499840250015,0.8730918258372182,-0.15499964325349644,9.802149443827895
4705000000.0,22.47,-0.05172389525984085,-0.07312655609392245,0.0004364969277428708,0.9920859397228594,-0.25456995694489953,9.69228
4710000000.0,22.47,-0.03176513294900747,-0.011994772498131016,0.0,1.0259298914860988,-0.29743956594439563,9.726419348916593
4715000000.0,22.47,-0.005979927626048199,0.04268096328938194,-0.003034304600897044,0.9126223767524237,-0.27477745891747457,9.823833290581833
4720000000.0,22.47,0.01832196751486763,0.09229624148973138,-0.0023421821071712653,0.692191399671914,-0.19031308319663082,9.933606916803368
4725000000.0,22.47,0.044689444510490034,0.13108500773414347,-0.001171135848770286,0.41594106312141066,-0.082402898670529,9.955187632890176
4730000000.0,22.47,0.06837379218116416,0.15226856774313424,-0.0027042231139210752,0.08926778438987781,0.0288424106203241,9.889852573128826
4735000000.0,22.47,0.08234996991105992,0.15483421668969308,-0.0015011277453768474,-0.24544932703759326,0.15647087957540878,9.776448512396286
4740000000.0,22.47,0.08624647220092854,0.14014343576288843,-0.001660885292081387,-0.5246410096515102,0.36846617792676184,9.696596123793562
4745000000.0,22.47,0.08250951771089972,0.10716438660475348,-0.0026509705983528923,-0.707694690323047,0.6103802276505024,9.747511498157115
4750000000.0,22.47,0.05646096039990356,0.06284886546220277,-0.002129301687433,-0.7946103690522038,0.721035092263051,9.868861107156611
4755000000.0,22.47,0.018405786934008773,0.010699538419586554,-0.0005642348764257588,-0.7998090229194903,0.6105721833559219,9.778703236834733
4760000000.0,22.47,-0.012145698386913087,-0.045252710618691905,0.0010646508437165,-0.7612555377135554,0.4716644301708443,9.609483322628133
4765000000.0,22.47,-0.040780731874014,-0.09703083046256802,0.0020654427261328884,-0.6066478084765781,0.40976286701032866,9.649509510652894
4770000000.0,22.47,-0.055311598501205546,-0.1431673174530398,0.0031939525311496,-0.31666383515113833,0.29076691757556916,9.752514233863742
4775000000.0,22.47,-0.06316884253781176,-0.17192988757399358,0.0017566436949077724,0.029433709945837078,0.18393703625677035,9.835506741989168
4780000000.0,22.47,-0.07089805666653125,-0.17333690451540293,0.0,0.41790971383059716,0.07494663593046634,9.908885449920355
4785000000.0,22.47,-0.06892843242147241,-0.1464794651675916,0.0,0.7431098235720983,-0.08005071531460715,9.888282498799626
4790000000.0,22.47,-0.06353060212540128,-0.09576670756852917,0.0,0.9323435164800352,-0.20483410256004103,9.78115794871998
4795000000.0,22.47,-0.04592455531287484,-0.03688887712127513,-0.0008730339076508828,0.9764868411772685,-0.28851219313712195,9.737307806862878
4800000000.0,22.47,-0.01704463234805751,0.024501539477751796,-0.002129301687433,0.886822694720627,-0.2707554405945544,9.798229584982096
4805000000.0,22.47,0.009322755057195492,0.08694590983038952,-0.0025445256454642374,0.7164221533787216,-0.21631003334320034,9.90976797999408
4810000000.0,22.47,0.035690142462448435,0.1420440575054395,-0.002384797610881408,0.44458583657475836,-0.15283895914368958,9.912808426286084
4815000000.0,22.47,0.058505693322941844,0.17596388822108378,-0.0022464437304274025,0.08043825897608259,-0.05091268416722685,9.855811858269618
4820000000.0,22.47,0.07269305495754805,0.18037126852537969,-0.003875318910526266,-0.2939109704178097,0.07534201709532017,9.768404757395547
4825000000.0,22.47,0.07958179824546925,0.15995561981463616,-0.0028213145647068526,-0.6229378115950781,0.20503031207770311,9.7119
4830000000.0,22.47,0.08024184106292569,0.11893246827154816,-0.0014053187503418186,-0.8742688887051889,0.4177132712273327,9.735248456718685
4835000000.0,22.47,0.07777672764702119,0.05635439679377155,-0.00035134497064846906,-0.9810978182577782,0.715543090453331,9.803231757398517
4840000000.0,22.47,0.05619413310035717,-0.014065173744511945,-0.00038325389821380494,-0.9048727077985271,0.8464071760447718,9.896329410167894
4845000000.0,22.47,0.003017830029166578,-0.07932030386233752,0.001724754793424983,-0.6844405944257059,0.7788129826423299,9.850412682801027
4850000000.0,22.47,-0.03430479422618571,-0.13965638937419791,0.0028745470541924655,-0.39632192748051925,0.521890492713105,9.546111659438017
4855000000.0,22.47,-0.0689231848275735,-0.16818117915579658,0.002129301687433,-0.13429522220055223,0.3522751196464512,9.60840497151275
4860000000.0,22.47,-0.09220855739950805,-0.16985262978744045,0.0012349642439444157,0.23897509278775092,0.15107211200662113,9.689927204794373
4865000000.0,22.47,-0.0966162939572729,-0.1576738865672949,-0.0007771848604507601,0.5797738349036384,-0.03786830094218302,9.855029506445396
4870000000.0,22.47,-0.09829811388367096,-0.11781524782068574,-0.0005536389707372365,0.8252183351268834,-0.21268250269032501,9.941060275685302
4875000000.0,22.47,-0.07297627088427379,-0.07190700991194243,-0.0018631286999615032,0.914782594691026,-0.34335,9.844335189382052
4880000000.0,22.47,-0.041849914729072436,-0.013678585270286843,-0.0018312303124396493,0.9150765156355651,-0.33628651563556516,9.882594947881449
4885000000.0,22.47,-0.010847219910204535,0.047317828694207545,-0.0037688433915115693,0.847582102294721,-0.30489442045894416,9.94586802557368
4890000000.0,22.47,0.02290770413648812,0.1009855120817286,-0.0016608346998727356,0.6360777404932774,-0.2487804602114046,9.89299193512332
4895000000.0,22.47,0.0476963691713807,0.14047992072367668,-0.0008943479835320632,0.3497231722174317,-0.13841824428448243,9.82912902460249
4900000000.0,22.47,0.06753748814784136,0.1644693773909188,-0.004045662876880211,0.015692954348129534,-0.039238572350685716,9.778607428940274
4905000000.0,22.47,0.08730054821904347,0.1629360940809597,-0.0027893645309720458,-0.29695184403341846,0.10830392437983924,9.73897598109496
4910000000.0,22.47,0.0916123324371823,0.14127455346839557,-0.001256298345908146,-0.598019698158897,0.28841686112576864,9.776057686112576
4915000000.0,22.47,0.09070732741570964,0.09476779969296276,-0.002129301687433,-0.7833289773398898,0.5864450459112505,9.801857795467978
4920000000.0,22.47,0.07776576750507676,0.033912614518087456,-0.0017885926746381941,-0.8114824354792245,0.8711284778254849,9.842963606867036
4925000000.0,22.47,0.02838747903715058,-0.02178061830862133,0.0003194160170005626,-0.7220144694045447,0.8755401084446011,9.948316599538066
4930000000.0,22.47,-0.005030538084161651,-0.08509954938923812,0.0022783631980361737,-0.5625035805726358,0.6478510593693106,9.56200300848133
4935000000.0,22.47,-0.05316356487575096,-0.12772403052094877,0.0036091975692677273,-0.35884654088056545,0.4953043118757431,9.554057770995177
4940000000.0,22.47,-0.08186020360367935,-0.15642066924887715,0.005493525458636759,-0.03688300925353009,0.24367867283568673,9.636168623117886
4945000000.0,22.47,-0.08876974595676809,-0.1608706492468181,-0.0010646508437165,0.23936784202767844,0.06670607898616078,9.81098196050692
4950000000.0,22.47,-0.09097347932309423,-0.14083207033161,-0.0009581753247018263,0.6052786345127864,-0.11968315377373154,9.903195480739054
4955000000.0,22.47,-0.08321044696385513,-0.10957617654122342,0.0,0.7624339699594397,-0.2326939699594397,9.940276030040561
4960000000.0,22.47,-0.06029243423289588,-0.0606315064978929,-0.00025554756966129953,0.8377744817102449,-0.3056797926840979,9.869644896342049
4965000000.0,22.47,-0.02858048907322246,-0.005724686961717863,-0.002970344455179666,0.8732848498516486,-0.3182356284866563,9.876609610682495
4970000000.0,22.47,0.0039192558246683865,0.06291581447050593,-0.00012777905485237488,0.7326086762016868,-0.24289521385485213,9.849828696536287
4975000000.0,22.47,0.033288927178792456,0.11547913111111316,-0.0021825447169620707,0.515022100997821,-0.20061343703253437,9.85659701683297
4980000000.0,22.47,0.05897407177413712,0.1446670609969716,-0.0031939525311496,0.2220951111621511,-0.09260504577265047,9.808822509808426
4985000000.0,22.47,0.06871623492743534,0.16501229713745902,-0.0031939525311496,-0.10810949213989493,0.04247836510408365,9.780275603172356
4990000000.0,22.47,0.0862890782185996,0.16125343585825272,-0.0031513454594741955,-0.4367437200438372,0.15009445387144454,9.77076
4995000000.0,22.47,0.08621447895301554,0.12837019569515276,-0.0010859649195976604,-0.6886639404376395,0.2993080481159805,9.771054591065646
5000000000.0,22.47,0.07883635349910087,0.07670663003714184,-0.003193910370975767,-0.8828992230479923,0.794610097119001,9.800192233737024
5005000000.0,22.47,0.06195500520622264,0.017647829151719398,0.0010221070123018457,-0.8052040222710403,0.80432199721612,10.023565935970758
5010000000.0,22.47,0.02420628915402931,-0.03828086656980581,2.128245575078484e-05,-0.7563505134338051,0.7467366161205662,9.74701697791607
5015000000.0,22.47,-0.03339379183359151,-0.0807522698468778,-0.0010327218900685936,-0.5555382543824826,0.5457282543824826,9.55101405179284
5020000000.0,22.47,-0.055609194312893864,-0.12906269821792088,0.003023650724969484,-0.34217065483550657,0.29468986480559867,9.563965395014954
5025000000.0,22.47,-0.07974084667187295,-0.15126702563424752,0.0021825236368751546,-0.09123046228050463,0.1633352311402523,9.65794597604596
5030000000.0,22.47,-0.08196660639639412,-0.15733624909595134,0.003130084083810323,0.2442724195600242,0.08318801838628018,9.791950967824011
5035000000.0,22.47,-0.07707979535133268,-0.14478382465240583,0.0012136807341892918,0.5568187295626873,-0.04924756918367568,10.01002814937318
5040000000.0,22.47,-0.06297831181370014,-0.11245541234238773,0.0010646508437165,0.7953971495028715,-0.21229006423120064,9.90849112735261
5045000000.0,22.47,-0.054033912299112016,-0.06513031120826032,0.0010646508437165,0.8945747819376478,-0.252411593979216,9.844726812041568
5050000000.0,22.47,-0.021631259275053744,-0.014695160971454388,-0.0008517419658609856,0.90252,-0.27271819618038196,9.759968117188281
5055000000.0,22.47,0.0027451139209463404,0.04540710421632922,-0.0010646508437165,0.8326720145015203,-0.22229401087614012,9.85591197824772
5060000000.0,22.47,0.027824295106730134,0.0981264240401612,-0.0020015542527109997,0.6341162377425624,-0.15538971200899712,9.86886
5065000000.0,22.47,0.04572762287738441,0.13405873279595043,-0.003981815509627843,0.32657165340891653,-0.0447324194214242,9.860325201618451
5070000000.0,22.47,0.06167835075028856,0.14947920110415353,-0.0033429929616658432,0.03982574411865744,0.05493698478666985,9.833739904563998
5075000000.0,22.47,0.07840821532690438,0.14674286669383266,-0.0013840247005432445,-0.2584965558493656,0.16873318290943184,9.804604204272643
5080000000.0,22.47,0.0809658240000169,0.12983205759718797,-0.0019589682611225135,-0.5595654588600546,0.4171239628413396,9.767228005308379
5085000000.0,22.47,0.07743114032198117,0.09051826946396563,-0.0003619598484152159,-0.6896439877002398,0.6320603741705039,9.826089190160191
5090000000.0,22.47,0.040884595587538534,0.047272500649837755,-0.001746048843223541,-0.722408597734286,0.6992571954685719,9.927917287538573
5095000000.0,22.47,0.00627377646956585,-0.005462392209154912,-0.0004045458400037021,-0.7179938010357381,0.5156112248577123,9.70895403107214
5100000000.0,22.47,-0.02045551702988073,-0.055180824346135054,0.0025551942774526618,-0.6611933065703332,0.41594330657033307,9.590255207508951
5105000000.0,22.47,-0.04492781516139388,-0.09780849679565969,0.004876122386990491,-0.4614600201960002,0.3402100067320001,9.628809994109501
5110000000.0,22.47,-0.05671700367990381,-0.13976604848742094,0.0036623773585360534,-0.20541872009828718,0.2319072089325721,9.71974899255619
5115000000.0,22.47,-0.0676084142428377,-0.15979567970055597,0.0015543686668971972,0.13234057605130578,0.183348601941786,9.824421792880118
5120000000.0,22.47,-0.06706528053341526,-0.15084166403779437,-0.0005536400247415825,0.49168087964470886,0.0498331093524311,9.92379699449857
5125000000.0,22.47,-0.06205076421380565,-0.11825003104103486,0.0005323470289473394,0.7480147895804479,-0.09319639365766395,9.881121604077215
5130000000.0,22.47,-0.05520503760783889,-0.07003359851837064,-0.0005110540331530963,0.8407174982204749,-0.21464399572913995,9.793714503203145
5135000000.0,22.47,-0.036156176998044895,-0.020684445875297143,-0.0018418567842541766,0.8319858007763581,-0.24525,9.763598600258785
5140000000.0,22.47,-0.013717362072890718,0.03396678709305581,-0.002129301687433,0.7887235008083351,-0.22406010048500102,9.845709598059996
5145000000.0,22.47,0.016749050341262596,0.08183423193443029,-0.0006174757979461329,0.649616401161864,-0.174028800387288,9.857774400193644
5150000000.0,22.47,0.0393032539818212,0.12015756164384271,-0.0022357993405390055,0.385529898990299,-0.067687699576577,9.835505799934857
5155000000.0,22.47,0.055764130912835684,0.14352244902933375,-0.0031939525311496,0.08446099597960996,0.017953000907830006,9.809312999610931
5160000000.0,22.47,0.06723576573635152,0.14551851732765492,-0.0010220321779933253,-0.1899243061238431,0.12596170294851702,9.80019
5165000000.0,22.47,0.0745935178737393,0.1338168591356851,-0.0014266539063098947,-0.4652912093939121,0.27193480518284807,9.806762800323929
5170000000.0,22.47,0.07247961854187804,0.10569259088454652,-0.0007239407769173483,-0.6951387088419871,0.5050216117893161,9.829424101263141
5175000000.0,22.47,0.05229763455997938,0.06188538244807552,0.0013840679147214085,-0.7779332010363321,0.649422804145328,9.928702407254324
5180000000.0,22.47,0.029657125311372982,0.009970858009749915,0.0028106891468966467,-0.778521499384715,0.61410499384715,9.77585798031088
5185000000.0,22.47,-0.003805767997462243,-0.036433487563044875,0.0018524706080166144,-0.700825191451152,0.5478879964379799,9.607226393588364
5190000000.0,22.47,-0.030402774361796808,-0.0792774921583102,0.0010646508437165,-0.5477885854285859,0.41417628461906286,9.592806902428569
5195000000.0,22.47,-0.05092928679177938,-0.12187014781886517,0.0010646508437165,-0.3310849773339498,0.2835079909335799,9.651863607253135
5200000000.0,22.47,-0.06732097144766755,-0.15062910403537733,0.0017034523115915965,-0.0647430708909307,0.1746167879548679,9.764875414052655
5205000000.0,22.47,-0.0724311639577646,-0.15495131235649626,0.0002448367774990751,0.28057004403520047,0.0754379900920799,9.8776900110088
5210000000.0,22.47,-0.06996113006944113,-0.13626699375025594,0.0007878745725260602,0.5893874311479743,-0.03472871557398714,9.952049407187994
5215000000.0,22.47,-0.057249045047590874,-0.09487782803600332,0.0009155777390655361,0.7971624233121242,-0.18894242331212424,9.876117576687877
5220000000.0,22.47,-0.038863408274926535,-0.04380304707180478,-0.0011924309525732208,0.862102597215526,-0.26487,9.767227791646578
5225000000.0,22.47,-0.018000210744281313,0.0050593328435752545,-0.0009581637306540223,0.837283195531932,-0.25407879702128794,9.757516804468068
5230000000.0,22.47,0.007504853545482962,0.05308958344677994,0.0,0.7392799746163998,-0.20816748889467487,9.78135500317295
5235000000.0,22.47,0.030967062992444293,0.09539327673163703,-0.0011285519651904915,0.5370949579101496,-0.11938658148046581,9.811177606734377
5240000000.0,22.47,0.051002221456205026,0.12344176281329788,-0.002129301687433,0.27899355014003546,-0.027859585754295854,9.834721301780712
5245000000.0,22.47,0.06723580051849498,0.13750393388949497,-0.0010433357138309946,0.007060347420703439,0.08485802816748028,9.83943
5250000000.0,22.47,0.07510155109587982,0.13901541940469322,-0.001597009466711693,-0.2746830592485306,0.24525183554911836,9.849240203949902
5255000000.0,22.47,0.07513359835719585,0.12330287139062751,-0.0037156425221563593,-0.5371980497296804,0.4248730393693304,9.86385700207207
5260000000.0,22.47,0.05866717573911896,0.09233661578279087,-0.0022144294024274997,-0.6996501195227012,0.5623101195227012,9.86886
5265000000.0,22.47,0.03359634112735588,0.047466967820999614,0.0,-0.7501708022663081,0.5805551864021519,9.744368338809682
5270000000.0,22.47,0.010698230227405792,-0.009325567607316638,0.0,-0.7373191905462919,0.558385404726854,9.599477297636573
5275000000.0,22.47,-0.016723161523666572,-0.06407243249797448,0.001437311998254865,-0.6145941434074415,0.5292485778550858,9.611838409842184
5280000000.0,22.47,-0.04039689326256964,-0.11223982176645873,0.0036624100326707516,-0.3869039386160394,0.4073094565196946,9.70248404092264
5285000000.0,22.47,-0.059378745148666645,-0.14627466320735882,0.003342981367617996,-0.13694472566604726,0.21689673893996736,9.815690415928705
5290000000.0,22.47,-0.07343934437608766,-0.15703810499465812,0.0007878081702522737,0.1555899908127999,0.0594478807366788,9.865721211007612
5295000000.0,22.47,-0.07733535346103747,-0.14717200311181716,-0.00019161482805692554,0.46803828831968286,-0.03266863703728637,9.92870202849022
5300000000.0,22.47,-0.06860868043626692,-0.1175999049530568,0.0010646508437165,0.7259420589228206,-0.15892333829983338,9.90809794107718
5305000000.0,22.47,-0.050641444166108246,-0.07301994621527183,0.0006494258316809558,0.8627900152163002,-0.23544,9.763597978697181
5310000000.0,22.47,-0.029394848338653835,-0.0178538317092958,-0.0008091570282768452,0.89271,-0.23544,9.714254193719242
5315000000.0,22.47,0.0002729007144896753,0.03394390960043333,-0.002129301687433,0.8346331482000315,-0.20640157410001575,9.749277442087475
5320000000.0,22.47,0.02471757715886848,0.08696611772007039,-0.0017460161690888204,0.6509891199691913,-0.13930148332691483,9.843746813338468
5325000000.0,22.47,0.04394057780942224,0.1319332769803089,-0.001809928884610651,0.3801338798892388,-0.07014036225090363,9.889461620590417
5330000000.0,22.47,0.05939999493028272,0.1570169131832811,-0.0028319600085996294,0.046888383547783824,0.04336154587511546,9.917713489413435
5335000000.0,22.47,0.07064259552522632,0.15877330602515458,-0.00142660963812737,-0.28331653053506534,0.15990403625974037,9.869153367366234
5340000000.0,22.47,0.07315511527472547,0.13580296553784993,-0.00034069952675569334,-0.5889946819080468,0.31353050424660506,9.78802487393835
5345000000.0,22.47,0.07210111092890603,0.09288532419031342,-0.0017247569014336747,-0.7631208343819084,0.5702576878648768,9.74133
5350000000.0,22.47,0.05890442223391233,0.040693577688795286,-0.0022357329382652192,-0.8063813764960138,0.7494848313386483,9.785476558759965
5355000000.0,22.47,0.019633534185573488,-0.010295260002947768,-0.000926280099193015,-0.7338849558410496,0.727604891609849,9.808819887595398
5360000000.0,22.47,-0.016661342769204775,-0.062471348526922,-0.001703384855313536,-0.6215602465496025,0.49285263010332636,9.602812383553724
5365000000.0,22.47,-0.05271410175933343,-0.10024105612966669,0.0024167687247031128,-0.47676391582623917,0.3145063074088631,9.598399237878192
5370000000.0,22.47,-0.07219697473216702,-0.13104800364589786,0.0026403114524036456,-0.2621202794374028,0.13145295694192957,9.711313381810335
5375000000.0,22.47,-0.07216489927191501,-0.15419555540439597,0.0007984768022406574,0.0245285496994855,0.06867041761170418,9.871313439626334
5380000000.0,22.47,-0.06395649787743389,-0.1541590980852245,0.000255527543578721,0.3688601800018018,0.06984594599945947,9.968138558500586
5385000000.0,22.47,-0.05581836931987868,-0.12679074594084241,0.000574888752353301,0.7144644965404451,-0.062491687346116875,10.001880671279407
5390000000.0,22.47,-0.03870683086667844,-0.0816814704711618,-0.001298885391500978,0.8795649140828492,-0.20601,9.764480343668604
5395000000.0,22.47,-0.03151656755338063,-0.02374060983517611,-0.001682125587658287,0.8922189760429897,-0.21219061437420614,9.668539590417197
5400000000.0,22.47,-0.009794571480500398,0.030470561580015095,0.0,0.8220763217836632,-0.22170526578035266,9.692282097770422
5405000000.0,22.47,0.009830237294244433,0.08291437106099102,-0.0002022950540931133,0.6480458703733587,-0.15744997507179975,9.86415203988512
5410000000.0,22.47,0.029298778382510056,0.11762877601547359,-0.0010646508437165,0.38670694243446946,-0.1035927593379276,9.92948590508276
5415000000.0,22.47,0.05439618413281359,0.1354858011333134,-0.0010646508437165,0.09397706532317064,-0.015890727481707268,9.924187558560977
5420000000.0,22.47,0.07132678834684698,0.1403201914795807,-0.0012350064041182487,-0.16324145303291454,0.11850616860096169,9.844922652507027
5425000000.0,22.47,0.0763851843187889,0.12883640576566976,-0.001969592624928373,-0.4404717397270174,0.2683065558493656,9.767816789251768
5430000000.0,22.47,0.07306983999912259,0.09946663428113281,-0.0009155882791089943,-0.6696315492411156,0.5211080437698804,9.75663402188494
5435000000.0,22.47,0.05879029362390017,0.06314463537551016,-0.00013841606671038405,-0.74556,0.6000786501151866,9.789104594431647
5440000000.0,22.47,0.020669241050507,0.015982453403713334,-0.0009368812749032374,-0.7384961660071617,0.6592304150179042,9.764087720683378
5445000000.0,22.47,-0.009445568161933069,-0.03710369061954108,0.0,-0.6715911193237113,0.5189479423740794,9.645388411525184
5450000000.0,22.47,-0.028339209957801988,-0.09161453750066752,0.00031942971905706826,-0.5258134593669347,0.4208478355431784,9.672661058597111
5455000000.0,22.47,-0.05432157959720781,-0.1321628788161395,0.003002292380905795,-0.28213178555411783,0.30695288682022887,9.76801404765464
