#timestamp [ns], temperature [degC], w_RS_S_x [rad s^-1], w_RS_S_y [rad s^-1], w_RS_S_z [rad s^-1], a_RS_S_x [m s^-2], a_RS_S_y [m s^-2], a_RS_S_z [m s^-2]
0,21.78,0.0,0.0,0.0,0.38259000000000004,-1.16739,9.819809999999999
5050505,21.78,0.0,0.0,0.0,0.37278,-1.1477700000000002,9.80019
10101010,21.78,0.0,0.0,0.0,0.41202000000000005,-1.13796,9.80019
15151515,21.78,0.0,0.0,0.0,0.38259000000000004,-1.10853,9.81
20202020,21.78,0.0,0.0,0.0,0.38259000000000004,-1.1477700000000002,9.81
25252525,21.78,0.0,0.0,0.0,0.3924,-1.13796,9.78057
30303030,21.78,0.0,0.0,0.0,0.3924,-1.15758,9.81
35353535,21.78,0.0,0.0,0.0,0.37278,-1.1870100000000001,9.79038
40404040,21.78,0.0,0.0,0.0,0.42183,-1.13796,9.83943
45454545,21.78,0.0,0.0,0.0,0.3924,-1.1281500000000002,9.79038
50505050,21.78,0.0,0.0,0.0,0.38259000000000004,-1.1281500000000002,9.770760000000001
55555555,21.78,0.0,0.0,0.0,0.3924,-1.13796,9.79038
60606060,21.78,0.0,0.0,0.0,0.3924,-1.1281500000000002,9.82962
65656565,21.78,0.0,0.0,0.0,0.38259000000000004,-1.15758,9.78057
70707070,21.78,0.0,0.0,0.0,0.3924,-1.1772,9.819809999999999
75757575,21.78,0.0,0.0,0.0,0.40221,-1.1281500000000002,9.80019
80808080,21.78,0.0,0.0,0.0,0.40221,-1.1183400000000001,9.81
85858585,21.78,0.0,0.0,0.0,0.3924,-1.1281500000000002,9.819809999999999
90909090,21.78,0.0,0.0,0.0,0.37278,-1.15758,9.819809999999999
95959595,21.78,0.0,0.0,0.0,0.3924,-1.13796,9.78057
101010100,21.78,0.0,0.0,0.0,0.38259000000000004,-1.1477700000000002,9.81
106060605,21.78,0.0,0.0,0.0,0.3924,-1.1477700000000002,9.81
111111110,21.78,0.0,0.0,0.0,0.36297,-1.13796,9.81
116161615,21.78,0.0,0.0,0.0,0.40221,-1.10853,9.81
121212120,21.78,0.0,0.0,0.0,0.38259000000000004,-1.13796,9.81
126262625,21.78,0.0,0.0,0.0,0.3924,-1.13796,9.819809999999999
131313130,21.78,0.0,0.0,0.0,0.40221,-1.1477700000000002,9.81
136363635,21.78,0.0,0.0,0.0,0.38259000000000004,-1.1477700000000002,9.83943
141414140,21.78,0.0,0.0,0.0,0.37278,-1.1281500000000002,9.79038
146464645,21.78,0.0,0.0,0.0,0.35316,-1.1183400000000001,9.770760000000001
151515150,21.78,0.0,0.0,0.0,0.38259000000000004,-1.1281500000000002,9.79038
156565655,21.78,0.0,0.0,0.0,0.41202000000000005,-1.1477700000000002,9.819809999999999
161616160,21.78,0.0,0.0,0.0,0.3924,-1.15758,9.80019
166666665,21.78,0.0,0.0,0.0,0.35316,-1.1281500000000002,9.81
171717170,21.78,0.0,0.0,0.0,0.3924,-1.10853,9.79038
176767675,21.78,0.0,0.0,0.0,0.40221,-1.1183400000000001,9.78057
181818180,21.78,0.0,0.0,0.0,0.3924,-1.0987200000000001,9.81
186868685,21.78,0.0,0.0,0.0,0.38259000000000004,-1.15758,9.79038
191919190,21.78,0.0,0.0,0.0,0.36297,-1.1477700000000002,9.79038
196969695,21.78,0.0,0.0,0.0,0.3924,-1.1477700000000002,9.819809999999999
202020200,21.78,0.0,0.0,0.0,0.37278,-1.10853,9.82962
207070705,21.78,0.0,0.0,0.0,0.38259000000000004,-1.1281500000000002,9.80019
212121210,21.78,0.0,0.0,0.0,0.3924,-1.10853,9.80019
217171715,21.78,0.0,0.0,0.0,0.3924,-1.1183400000000001,9.79038
222222220,21.78,0.0,0.0,0.0,0.36297,-1.15758,9.79038
227272725,21.78,0.0,0.0,0.0,0.36297,-1.1772,9.78057
232323230,21.78,0.0,0.0,0.0,0.37278,-1.1477700000000002,9.78057
237373735,21.78,0.0,0.0,0.0,0.40221,-1.13796,9.80019
242424240,21.78,0.0,0.0,0.0,0.41202000000000005,-1.10853,9.80019
247474745,21.78,0.0,0.0,0.0,0.37278,-1.13796,9.819809999999999
252525250,21.78,0.0,0.0,0.0,0.38259000000000004,-1.1281500000000002,9.79038
257575755,21.78,0.0,0.0,0.0,0.36297,-1.16739,9.80019
262626260,21.78,0.0,0.0,0.0,0.38259000000000004,-1.1772,9.80019
267676765,21.78,0.0,0.0,0.0,0.40221,-1.15758,9.81
272727270,21.78,0.0,0.0,0.0,0.3924,-1.0987200000000001,9.80019
277777775,21.78,0.0,0.0,0.0,0.3924,-1.1477700000000002,9.81
282828280,21.78,0.0,0.0,0.0,0.3924,-1.1477700000000002,9.79038
287878785,21.78,0.0,0.0,0.0,0.33354000000000006,-1.1772,9.81
292929290,21.78,0.0,0.0,0.0,0.37278,-1.1477700000000002,9.81
297979795,21.78,0.0,0.0,0.0,0.38259000000000004,-1.15758,9.81
303030300,21.78,0.0,0.0,0.0,0.37278,-1.10853,9.78057
308080805,21.78,0.0,0.0,0.0,0.37278,-1.1477700000000002,9.819809999999999
313131310,21.78,0.0,0.0,0.0,0.41202000000000005,-1.15758,9.78057
318181815,21.78,0.0,0.0,0.0,0.40221,-1.1772,9.78057
323232320,21.78,0.0,0.0,0.0,0.3924,-1.1183400000000001,9.81
328282825,21.78,0.0,0.0,0.0,0.41202000000000005,-1.1281500000000002,9.81
333333330,21.78,0.0,0.0,0.0,0.38259000000000004,-1.1477700000000002,9.81
338383835,21.78,0.0,0.0,0.0,0.36297,-1.13796,9.81
343434340,21.78,0.0,0.0,0.0,0.35316,-1.15758,9.819809999999999
348484845,21.78,0.0,0.0,0.0,0.3924,-1.15758,9.80019
353535350,21.78,0.0,0.0,0.0,0.40221,-1.16739,9.81
358585855,21.78,0.0,0.0,0.0,0.38259000000000004,-1.1281500000000002,9.81
363636360,21.78,0.0,0.0,0.0,0.3924,-1.1477700000000002,9.80019
368686865,21.78,0.0,0.0,0.0,0.3924,-1.1281500000000002,9.78057
373737370,21.78,0.0,0.0,0.0,0.37278,-1.15758,9.770760000000001
378787875,21.78,0.0,0.0,0.0,0.37278,-1.15758,9.82962
383838380,21.78,0.0,0.0,0.0,0.37278,-1.13796,9.79038
388888885,21.78,0.0,0.0,0.0,0.3924,-1.15758,9.81
393939390,21.78,0.0,0.0,0.0,0.38259000000000004,-1.13796,9.81
398989895,21.78,0.0,0.0,0.0,0.36297,-1.1183400000000001,9.79038
404040400,21.78,0.0,0.0,0.0,0.38259000000000004,-1.10853,9.79038
409090905,21.78,0.0,0.0,0.0,0.40221,-1.10853,9.819809999999999
414141410,21.78,0.0,0.0,0.0,0.38259000000000004,-1.16739,9.79038
419191915,21.78,0.0,0.0,0.0,0.38259000000000004,-1.1477700000000002,9.81
424242420,21.78,0.0,0.0,0.0,0.36297,-1.15758,9.83943
429292925,21.78,0.0,0.0,0.0,0.42183,-1.1183400000000001,9.80019
434343430,21.78,0.0,0.0,0.0,0.40221,-1.13796,9.78057
439393935,21.78,0.0,0.0,0.0,0.36297,-1.13796,9.78057
444444440,21.78,0.0,0.0,0.0,0.37278,-1.1477700000000002,9.81
449494945,21.78,0.0,0.0,0.0,0.38259000000000004,-1.1281500000000002,9.819809999999999
454545450,21.78,0.0,0.0,0.0,0.3924,-1.13796,9.81
459595955,21.78,0.0,0.0,0.0,0.38259000000000004,-1.10853,9.79038
464646460,21.78,0.0,0.0,0.0,0.40221,-1.1183400000000001,9.80019
469696965,21.78,0.0,0.0,0.0,0.38259000000000004,-1.1477700000000002,9.78057
474747470,21.78,0.0,0.0,0.0,0.38259000000000004,-1.16739,9.819809999999999
479797975,21.78,0.0,0.0,0.0,0.37278,-1.15758,9.80019
484848480,21.78,0.0,0.0,0.0,0.38259000000000004,-1.16739,9.819809999999999
489898985,21.78,0.0,0.0,0.0,0.38259000000000004,-1.13796,9.80019
494949490,21.78,0.0,0.0,0.0,0.40221,-1.10853,9.80019
499999995,21.78,0.0,0.0,0.0,0.3924,-1.1281500000000002,9.80019
505050500,21.78,0.0,0.0,0.0,0.38259000000000004,-1.1183400000000001,9.79038
510101005,21.78,0.0,0.0,0.0,0.36297,-1.16739,9.79038
515151510,21.78,0.0,0.0,0.0,0.38259000000000004,-1.1477700000000002,9.79038
520202015,21.78,0.0,0.0,0.0,0.3924,-1.15758,9.79038
525252520,21.78,0.0,0.0,0.0,0.38259000000000004,-1.1477700000000002,9.79038
530303025,21.78,0.0,0.0,0.0,0.3924,-1.1183400000000001,9.82962
535353530,21.78,0.0,0.0,0.0,0.40221,-1.1183400000000001,9.80019
540404035,21.78,0.0,0.0,0.0,0.3924,-1.13796,9.80019
545454540,21.78,0.0,0.0,0.0,0.37278,-1.13796,9.79038
550505045,21.78,0.0,0.0,0.0,0.40221,-1.1477700000000002,9.81
555555550,21.78,0.0,0.0,0.0,0.38259000000000004,-1.10853,9.80019
560606055,21.78,0.0,0.0,0.0,0.3924,-1.13796,9.770760000000001
565656560,21.78,0.0,0.0,0.0,0.38259000000000004,-1.13796,9.819809999999999
570707065,21.78,0.0,0.0,0.0,0.3924,-1.1477700000000002,9.79038
575757570,21.78,0.0,0.0,0.0,0.38259000000000004,-1.13796,9.80019
580808075,21.78,0.0,0.0,0.0,0.36297,-1.13796,9.80019
585858580,21.78,0.0,0.0,0.0,0.37278,-1.10853,9.819809999999999
590909085,21.78,0.0,0.0,0.0,0.38259000000000004,-1.13796,9.80019
595959590,21.78,0.0,0.0,0.0,0.38259000000000004,-1.13796,9.79038
601010095,21.78,0.0,0.0,0.0,0.3924,-1.1477700000000002,9.80019
606060600,21.78,0.0,0.0,0.0,0.3924,-1.1477700000000002,9.81
611111105,21.78,0.0,0.0,0.0,0.37278,-1.15758,9.82962
616161610,21.78,0.0,0.0,0.0,0.3924,-1.1477700000000002,9.81
621212115,21.78,0.0,0.0,0.0,0.40221,-1.1477700000000002,9.81
626262620,21.78,0.0,0.0,0.0,0.38259000000000004,-1.1477700000000002,9.81
631313125,21.78,0.0,0.0,0.0,0.38259000000000004,-1.16739,9.760950000000001
636363630,21.78,0.0,0.0,0.0,0.37278,-1.1772,9.81
641414135,21.78,0.0,0.0,0.0,0.40221,-1.16739,9.81
646464640,21.78,0.0,0.0,0.0,0.3924,-1.15758,9.79038
651515145,21.78,0.0,0.0,0.0,0.44145,-1.1183400000000001,9.81
656565650,21.78,0.0,0.0,0.0,0.40221,-1.13796,9.79038
661616155,21.78,0.0,0.0,0.0,0.37278,-1.15758,9.81
666666660,21.78,0.0,0.0,0.0,0.36297,-1.1477700000000002,9.80019
671717165,21.78,0.0,0.0,0.0,0.37278,-1.16739,9.80019
676767670,21.78,0.0,0.0,0.0,0.38259000000000004,-1.13796,9.80019
681818175,21.78,0.0,0.0,0.0,0.38259000000000004,-1.1281500000000002,9.81
686868680,21.78,0.0,0.0,0.0,0.3924,-1.0987200000000001,9.80019
691919185,21.78,0.0,0.0,0.0,0.40221,-1.10853,9.82962
696969690,21.78,0.0,0.0,0.0,0.37278,-1.13796,9.80019
702020195,21.78,0.0,0.0,0.0,0.41202000000000005,-1.1281500000000002,9.819809999999999
707070700,21.78,0.0,0.0,0.0,0.40221,-1.13796,9.79038
712121205,21.78,0.0,0.0,0.0,0.3924,-1.1477700000000002,9.80019
717171710,21.78,0.0,0.0,0.0,0.37278,-1.1183400000000001,9.819809999999999
722222215,21.78,0.0,0.0,0.0,0.3924,-1.1281500000000002,9.79038
727272720,21.78,0.0,0.0,0.0,0.40221,-1.13796,9.81
732323225,21.78,0.0,0.0,0.0,0.38259000000000004,-1.16739,9.79038
737373730,21.78,0.0,0.0,0.0,0.40221,-1.16739,9.79038
742424235,21.78,0.0,0.0,0.0,0.40221,-1.13796,9.79038
747474740,21.78,0.0,0.0,0.0,0.38259000000000004,-1.1183400000000001,9.819809999999999
752525245,21.78,0.0,0.0,0.0,0.38259000000000004,-1.13796,9.79038
757575750,21.78,0.0,0.0,0.0,0.37278,-1.10853,9.770760000000001
762626255,21.78,0.0,0.0,0.0,0.38259000000000004,-1.1281500000000002,9.79038
767676760,21.78,0.0,0.0,0.0,0.40221,-1.15758,9.81
772727265,21.78,0.0,0.0,0.0,0.40221,-1.1772,9.82962
777777770,21.78,0.0,0.0,0.0,0.40221,-1.10853,9.80019
782828275,21.78,0.0,0.0,0.0,0.3924,-1.10853,9.81
787878780,21.78,0.0,0.0,0.0,0.3924,-1.10853,9.770760000000001
792929285,21.78,0.0,0.0,0.0,0.37278,-1.1477700000000002,9.79038
797979790,21.78,0.0,0.0,0.0,0.36297,-1.19682,9.78057
803030295,21.78,0.0,0.0,0.0,0.36297,-1.1870100000000001,9.80019
808080800,21.78,0.0,0.0,0.0,0.38259000000000004,-1.16739,9.80019
813131305,21.78,0.0,0.0,0.0,0.3924,-1.13796,9.81
818181810,21.78,0.0,0.0,0.0,0.3924,-1.1281500000000002,9.81
823232315,21.78,0.0,0.0,0.0,0.3924,-1.1477700000000002,9.819809999999999
828282820,21.78,0.0,0.0,0.0,0.37278,-1.15758,9.81
833333325,21.78,0.0,0.0,0.0,0.41202000000000005,-1.16739,9.79038
838383830,21.78,0.0,0.0,0.0,0.38259000000000004,-1.16739,9.79038
843434335,21.78,0.0,0.0,0.0,0.37278,-1.1281500000000002,9.78057
848484840,21.78,0.0,0.0,0.0,0.3924,-1.10853,9.819809999999999
853535345,21.78,0.0,0.0,0.0,0.37278,-1.1281500000000002,9.81
858585850,21.78,0.0,0.0,0.0,0.3924,-1.15758,9.81
863636355,21.78,0.0,0.0,0.0,0.37278,-1.1477700000000002,9.81
868686860,21.78,0.0,0.0,0.0,0.36297,-1.1477700000000002,9.81
873737365,21.78,0.0,0.0,0.0,0.3924,-1.15758,9.770760000000001
878787870,21.78,0.0,0.0,0.0,0.38259000000000004,-1.13796,9.79038
883838375,21.78,0.0,0.0,0.0,0.3924,-1.1183400000000001,9.751140000000001
888888880,21.78,0.0,0.0,0.0,0.40221,-1.13796,9.819809999999999
893939385,21.78,0.0,0.0,0.0,0.38259000000000004,-1.1477700000000002,9.81
898989890,21.78,0.0,0.0,0.0,0.40221,-1.1772,9.82962
904040395,21.78,0.0,0.0,0.0,0.36297,-1.15758,9.79038
909090900,21.78,0.0,0.0,0.0,0.35316,-1.1183400000000001,9.81
914141405,21.78,0.0,0.0,0.0,0.40221,-1.1183400000000001,9.81
919191910,21.78,0.0,0.0,0.0,0.3924,-1.1183400000000001,9.80019
924242415,21.78,0.0,0.0,0.0,0.38259000000000004,-1.1183400000000001,9.80019
929292920,21.78,0.0,0.0,0.0,0.38259000000000004,-1.16739,9.81
934343425,21.78,0.0,0.0,0.0,0.37278,-1.1772,9.79038
939393930,21.78,0.0,0.0,0.0,0.38259000000000004,-1.13796,9.819809999999999
944444435,21.78,0.0,0.0,0.0,0.3924,-1.1183400000000001,9.80019
949494940,21.78,0.0,0.0,0.0,0.37278,-1.13796,9.81
954545445,21.78,0.0,0.0,0.0,0.36297,-1.1183400000000001,9.81
959595950,21.78,0.0,0.0,0.0,0.36297,-1.1281500000000002,9.78057
964646455,21.78,0.0,0.0,0.0,0.37278,-1.1772,9.81
969696960,21.78,0.0,0.0,0.0,0.40221,-1.13796,9.80019
974747465,21.78,0.0,0.0,0.0,0.3924,-1.1183400000000001,9.81
979797970,21.78,0.0,0.0,0.0,0.41202000000000005,-1.1183400000000001,9.80019
984848475,21.78,0.0,0.0,0.0,0.37278,-1.1183400000000001,9.81
989898980,21.78,0.0,0.0,0.0,0.3924,-1.1477700000000002,9.819809999999999
994949485,21.78,0.0,0.0,0.0,0.35316,-1.1772,9.80019
999999990,21.78,0.0,0.0,0.0,0.38259000000000004,-1.1772,9.81
1005050495,21.78,0.0,0.0,0.0,0.35316,-1.1281500000000002,9.81
1010101000,21.78,0.0,0.0,0.0,0.41202000000000005,-1.13796,9.80019
1015151505,21.78,0.0,0.0,0.0,0.41202000000000005,-1.1281500000000002,9.79038
1020202010,21.78,0.0,0.0,0.0,0.38259000000000004,-1.1477700000000002,9.80019
1025252515,21.78,0.0,0.0,0.0,0.37278,-1.1477700000000002,9.81
1030303020,21.78,0.0,0.0,0.0,0.35316,-1.1281500000000002,9.80019
1035353525,21.78,0.0,0.0,0.0,0.3924,-1.16739,9.81
1040404030,21.78,0.0,0.0,0.0,0.37278,-1.1281500000000002,9.80019
1045454535,21.78,0.0,0.0,0.0,0.38259000000000004,-1.1183400000000001,9.770760000000001
1050505040,21.78,0.0,0.0,0.0,0.3924,-1.13796,9.819809999999999
1055555545,21.78,0.0,0.0,0.0,0.41202000000000005,-1.13796,9.79038
1060606050,21.78,0.0,0.0,0.0,0.3924,-1.1477700000000002,9.79038
1065656555,21.78,0.0,0.0,0.0,0.3924,-1.1477700000000002,9.819809999999999
1070707060,21.78,0.0,0.0,0.0,0.37278,-1.16739,9.819809999999999
1075757565,21.78,0.0,0.0,0.0,0.38259000000000004,-1.1281500000000002,9.78057
1080808070,21.78,0.0,0.0,0.0,0.3924,-1.1477700000000002,9.79038
1085858575,21.78,0.0,0.0,0.0,0.37278,-1.1281500000000002,9.78057
1090909080,21.78,0.0,0.0,0.0,0.40221,-1.1477700000000002,9.79038
1095959585,21.78,0.0,0.0,0.0,0.41202000000000005,-1.15758,9.78057
1101010090,21.78,0.0,0.0,0.0,0.37278,-1.1477700000000002,9.80019
1106060595,21.78,0.0,0.0,0.0,0.38259000000000004,-1.1477700000000002,9.81
1111111100,21.78,0.0,0.0,0.0,0.36297,-1.1183400000000001,9.819809999999999
1116161605,21.78,0.0,0.0,0.0,0.34335000000000004,-1.1477700000000002,9.80019
1121212110,21.78,0.0,0.0,0.0,0.37278,-1.1183400000000001,9.81
1126262615,21.78,0.0,0.0,0.0,0.37278,-1.15758,9.81
1131313120,21.78,0.0,0.0,0.0,0.38259000000000004,-1.16739,9.79038
1136363625,21.78,0.0,0.0,0.0,0.37278,-1.13796,9.80019
1141414130,21.78,0.0,0.0,0.0,0.40221,-1.13796,9.80019
1146464635,21.78,0.0,0.0,0.0,0.3924,-1.1183400000000001,9.78057
1151515140,21.78,0.0,0.0,0.0,0.3924,-1.1281500000000002,9.80019
1156565645,21.78,0.0,0.0,0.0,0.37278,-1.1183400000000001,9.79038
1161616150,21.78,0.0,0.0,0.0,0.41202000000000005,-1.16739,9.79038
1166666655,21.78,0.0,0.0,0.0,0.37278,-1.1870100000000001,9.80019
1171717160,21.78,0.0,0.0,0.0,0.38259000000000004,-1.13796,9.80019
1176767665,21.78,0.0,0.0,0.0,0.36297,-1.15758,9.79038
1181818170,21.78,0.0,0.0,0.0,0.38259000000000004,-1.1477700000000002,9.80019
1186868675,21.78,0.0,0.0,0.0,0.37278,-1.1183400000000001,9.81
1191919180,21.78,0.0,0.0,0.0,0.3924,-1.1281500000000002,9.79038
1196969685,21.78,0.0,0.0,0.0,0.38259000000000004,-1.16739,9.819809999999999
1202020190,21.78,0.0,0.0,0.0,0.3924,-1.1477700000000002,9.79038
1207070695,21.78,0.0,0.0,0.0,0.38259000000000004,-1.13796,9.819809999999999
1212121200,21.78,0.0,0.0,0.0,0.38259000000000004,-1.15758,9.79038
1217171705,21.78,0.0,0.0,0.0,0.38259000000000004,-1.1477700000000002,9.79038
1222222210,21.78,0.0,0.0,0.0,0.38259000000000004,-1.1183400000000001,9.81
1227272715,21.78,0.0,0.0,0.0,0.37278,-1.13796,9.80019
1232323220,21.78,0.0,0.0,0.0,0.37278,-1.13796,9.81
1237373725,21.78,0.0,0.0,0.0,0.37278,-1.10853,9.81
1242424230,21.78,0.0,0.0,0.0,0.3924,-1.15758,9.81
1247474735,21.78,0.0,0.0,0.0,0.3924,-1.1477700000000002,9.79038
1252525240,21.78,0.0,0.0,0.0,0.41202000000000005,-1.1477700000000002,9.81
1257575745,21.78,0.0,0.0,0.0,0.3924,-1.1183400000000001,9.80019
1262626250,21.78,0.0,0.0,0.0,0.38259000000000004,-1.1281500000000002,9.80019
1267676755,21.78,0.0,0.0,0.0,0.38259000000000004,-1.1477700000000002,9.80019
1272727260,21.78,0.0,0.0,0.0,0.38259000000000004,-1.13796,9.81
1277777765,21.78,0.0,0.0,0.0,0.36297,-1.16739,9.78057
1282828270,21.78,0.0,0.0,0.0,0.36297,-1.15758,9.770760000000001
1287878775,21.78,0.0,0.0,0.0,0.38259000000000004,-1.1281500000000002,9.770760000000001
1292929280,21.78,0.0,0.0,0.0,0.41202000000000005,-1.1281500000000002,9.80019
1297979785,21.78,0.0,0.0,0.0,0.40221,-1.1183400000000001,9.80019
1303030290,21.78,0.0,0.0,0.0,0.40221,-1.15758,9.78057
1308080795,21.78,0.0,0.0,0.0,0.37278,-1.15758,9.79038
1313131300,21.78,0.0,0.0,0.0,0.38259000000000004,-1.15758,9.81
1318181805,21.78,0.0,0.0,0.0,0.36297,-1.1477700000000002,9.81
1323232310,21.78,0.0,0.0,0.0,0.3924,-1.13796,9.78057
1328282815,21.78,0.0,0.0,0.0,0.41202000000000005,-1.0987200000000001,9.79038
1333333320,21.78,0.0,0.0,0.0,0.38259000000000004,-1.1281500000000002,9.80019
1338383825,21.78,0.0,0.0,0.0,0.3924,-1.15758,9.78057
1343434330,21.78,0.0,0.0,0.0,0.3924,-1.15758,9.81
1348484835,21.78,0.0,0.0,0.0,0.36297,-1.13796,9.80019
1353535340,21.78,0.0,0.0,0.0,0.38259000000000004,-1.13796,9.81
1358585845,21.78,0.0,0.0,0.0,0.40221,-1.1281500000000002,9.80019
1363636350,21.78,0.0,0.0,0.0,0.40221,-1.1281500000000002,9.79038
1368686855,21.78,0.0,0.0,0.0,0.37278,-1.1477700000000002,9.81
1373737360,21.78,0.0,0.0,0.0,0.38259000000000004,-1.1281500000000002,9.78057
1378787865,21.78,0.0,0.0,0.0,0.3924,-1.19682,9.81
1383838370,21.78,0.0,0.0,0.0,0.3924,-1.1477700000000002,9.81
1388888875,21.78,0.0,0.0,0.0,0.36297,-1.1183400000000001,9.819809999999999
1393939380,21.78,0.0,0.0,0.0,0.38259000000000004,-1.0987200000000001,9.78057
1398989885,21.78,0.0,0.0,0.0,0.3924,-1.1281500000000002,9.81
1404040390,21.78,0.0,0.0,0.0,0.40221,-1.13796,9.79038
1409090895,21.78,0.0,0.0,0.0,0.37278,-1.1477700000000002,9.81
1414141400,21.78,0.0,0.0,0.0,0.34335000000000004,-1.13796,9.80019
1419191905,21.78,0.0,0.0,0.0,0.38259000000000004,-1.1281500000000002,9.80019
1424242410,21.78,0.0,0.0,0.0,0.3924,-1.1183400000000001,9.80019
1429292915,21.78,0.0,0.0,0.0,0.3924,-1.1183400000000001,9.82962
1434343420,21.78,0.0,0.0,0.0,0.38259000000000004,-1.13796,9.81
1439393925,21.78,0.0,0.0,0.0,0.3924,-1.1477700000000002,9.819809999999999
1444444430,21.78,0.0,0.0,0.0,0.38259000000000004,-1.15758,9.79038
1449494935,21.78,0.0,0.0,0.0,0.36297,-1.15758,9.78057
1454545440,21.78,0.0,0.0,0.0,0.3924,-1.1183400000000001,9.770760000000001
1459595945,21.78,0.0,0.0,0.0,0.37278,-1.1183400000000001,9.81
1464646450,21.78,0.0,0.0,0.0,0.40221,-1.1183400000000001,9.80019
1469696955,21.78,0.0,0.0,0.0,0.3924,-1.15758,9.80019
1474747460,21.78,0.0,0.0,0.0,0.3924,-1.13796,9.819809999999999
1479797965,21.78,0.0,0.0,0.0,0.3924,-1.15758,9.81
1484848470,21.78,0.0,0.0,0.0,0.3924,-1.1477700000000002,9.770760000000001
1489898975,21.78,0.0,0.0,0.0,0.41202000000000005,-1.0987200000000001,9.79038
1494949480,21.78,0.0,0.0,0.0,0.36297,-1.10853,9.79038
1499999985,21.78,0.0,0.0,0.0,0.36297,-1.1477700000000002,9.79038
1505050490,21.78,0.0,0.0,0.0,0.37278,-1.16739,9.79038
1510100995,21.78,0.0,0.0,0.0,0.38259000000000004,-1.15758,9.81
1515151500,21.78,0.0,0.0,0.0,0.40221,-1.1281500000000002,9.81
1520202005,21.78,0.0,0.0,0.0,0.38259000000000004,-1.1477700000000002,9.80019
1525252510,21.78,0.0,0.0,0.0,0.3924,-1.10853,9.81
1530303015,21.78,0.0,0.0,0.0,0.38259000000000004,-1.1281500000000002,9.80019
1535353520,21.78,0.0,0.0,0.0,0.36297,-1.13796,9.81
1540404025,21.78,0.0,0.0,0.0,0.37278,-1.1870100000000001,9.78057
1545454530,21.78,0.0,0.0,0.0,0.37278,-1.16739,9.79038
1550505035,21.78,0.0,0.0,0.0,0.41202000000000005,-1.1477700000000002,9.81
1555555540,21.78,0.0,0.0,0.0,0.36297,-1.1281500000000002,9.78057
1560606045,21.78,0.0,0.0,0.0,0.38259000000000004,-1.0987200000000001,9.80019
1565656550,21.78,0.0,0.0,0.0,0.40221,-1.1477700000000002,9.81
1570707055,21.78,0.0,0.0,0.0,0.38259000000000004,-1.1477700000000002,9.79038
1575757560,21.78,0.0,0.0,0.0,0.36297,-1.1772,9.819809999999999
1580808065,21.78,0.0,0.0,0.0,0.36297,-1.13796,9.81
1585858570,21.78,0.0,0.0,0.0,0.3924,-1.10853,9.80019
1590909075,21.78,0.0,0.0,0.0,0.38259000000000004,-1.08891,9.79038
1595959580,21.78,0.0,0.0,0.0,0.40221,-1.1477700000000002,9.81
1601010085,21.78,0.0,0.0,0.0,0.38259000000000004,-1.1772,9.80019
1606060590,21.78,0.0,0.0,0.0,0.36297,-1.16739,9.80019
1611111095,21.78,0.0,0.0,0.0,0.37278,-1.16739,9.81
1616161600,21.78,0.0,0.0,0.0,0.3924,-1.1281500000000002,9.79038
1621212105,21.78,0.0,0.0,0.0,0.3924,-1.1183400000000001,9.78057
1626262610,21.78,0.0,0.0,0.0,0.40221,-1.10853,9.81
1631313115,21.78,0.0,0.0,0.0,0.37278,-1.1183400000000001,9.79038
1636363620,21.78,0.0,0.0,0.0,0.37278,-1.16739,9.81
1641414125,21.78,0.0,0.0,0.0,0.36297,-1.1772,9.80019
1646464630,21.78,0.0,0.0,0.0,0.36297,-1.15758,9.81
1651515135,21.78,0.0,0.0,0.0,0.36297,-1.1281500000000002,9.81
1656565640,21.78,0.0,0.0,0.0,0.41202000000000005,-1.10853,9.81
1661616145,21.78,0.0,0.0,0.0,0.3924,-1.0987200000000001,9.81
1666666650,21.78,0.0,0.0,0.0,0.41202000000000005,-1.1477700000000002,9.78057
1671717155,21.78,0.0,0.0,0.0,0.38259000000000004,-1.22625,9.81
1676767660,21.78,0.0,0.0,0.0,0.36297,-1.1870100000000001,9.819809999999999
1681818165,21.78,0.0,0.0,0.0,0.40221,-1.1183400000000001,9.81
1686868670,21.78,0.0,0.0,0.0,0.41202000000000005,-1.1477700000000002,9.84924
1691919175,21.78,0.0,0.0,0.0,0.38259000000000004,-1.1772,9.888480000000001
1696969680,21.78,0.0,0.0,0.0,0.37278,-1.16739,9.91791
1702020185,21.78,0.0,0.0,0.0,0.34335000000000004,-1.2556800000000001,9.92772
1707070690,21.78,0.001064650843716541,-0.02769837522915001,0.0,0.34335000000000004,-0.90252,10.12392
1712121195,21.78,0.02769837522915001,-0.07777187146886733,0.0,0.44145,-0.47088,9.888480000000001
1717171700,21.78,0.005323254218582705,-0.150203035426632,0.0,1.06929,-1.15758,10.006200000000002
1722222205,21.78,-0.05113814708343386,-0.08841837990603273,0.0,2.42307,-1.8639000000000001,9.81
1727272710,21.78,-0.03089232776029963,-0.07777187146886733,0.0,2.5015500000000004,-1.74618,10.280880000000002
1732323215,21.78,-0.002129301687433082,0.09374163412461543,0.0,2.56041,-1.45188,9.38817
1737373720,21.78,0.06710790973918197,0.09587093581204853,0.0,1.2753,-1.55979,10.29069
1742424225,21.78,0.06710790973918197,0.28975956241609857,0.0,0.7848,-0.8142300000000001,9.43722
1747474730,21.78,0.06923721142661506,0.27270769562411395,0.0,-2.07972,-0.56898,10.08468
1752525235,21.78,0.01064650843716541,0.16617279808238014,0.0,-1.9914300000000003,-0.6768900000000001,10.1043
1757575740,21.78,0.006387905062299246,0.06497860805174888,0.0,-3.11958,-0.9123300000000001,10.29069
1762626245,21.78,-0.01918116847941768,-0.17257815643719931,0.0,-2.01105,-1.43226,10.46727
1767676750,21.78,-0.03515093113516579,-0.21411699263466438,0.0,-1.29492,-1.52055,10.01601
1772727255,21.78,-0.028763026072866547,-0.3323630494572802,0.0,0.8829,-1.46169,10.24164
1777777760,21.78,0.005323254218582705,-0.25459117798841285,0.0,2.17782,-1.3537800000000002,9.46665
1782828265,21.78,0.06178465552059926,-0.16831955306233315,0.0,2.46231,-0.9319500000000001,9.65304
1787878770,21.78,0.05646140130201656,-0.07243116395776468,0.0,2.9626200000000003,-0.23544,9.44703
1792929275,21.78,0.023439771854283843,0.05646140130201656,0.0,2.95281,-0.40221,8.81919
1797979780,21.78,-0.03089232776029963,0.15339698795778162,0.0,2.21706,-1.16739,9.064440000000001
1803030285,21.78,-0.03834488366631542,0.21731094516581398,0.0,1.10853,-2.03067,9.10368
1808080790,21.78,-0.03621558197888234,0.2396860661763813,-0.006387905062299246,0.17658,-2.17782,10.212209999999999
1813131295,21.78,0.03515093113516579,0.17364280728091586,-0.001064650843716541,-0.37278,-1.78542,10.77138
1818181800,21.78,0.09800023749948161,0.09480628496833199,-0.003193952531149623,-1.24587,-0.90252,10.34955
1823232305,21.78,0.1097288500728835,-0.024504422698000388,-0.002129301687433082,-1.01043,0.039240000000000004,10.48689
1828282810,21.78,0.05646140130201656,-0.06923721142661506,0.001064650843716541,-0.43164,-0.039240000000000004,9.78057
1833333315,21.78,-0.020245819323134222,-0.08948303074974927,0.0,-0.23544,-1.05948,10.025820000000001
1838383820,21.78,-0.06817256058289851,-0.10438814256178083,0.001064650843716541,-0.009810000000000001,-2.02086,9.83943
1843434325,21.78,-0.05326744877086694,-0.08948303074974927,0.0,0.6670800000000001,-2.04048,10.006200000000002
1848484830,21.78,0.01811651763570114,-0.06604325889546543,0.001064650843716541,1.01043,-1.49112,10.143540000000002
1853535335,21.78,0.0852244273748831,0.023439771854283843,0.0,1.15758,-0.8240400000000001,9.819809999999999
1858585840,21.78,0.08203047484373349,0.03834488366631542,-0.002129301687433082,0.95157,-0.45126,10.182780000000001
1863636345,21.78,0.04153883619746504,0.04794419455228423,0.0,0.87309,-0.6278400000000001,9.770760000000001
1868686850,21.78,-0.006387905062299246,0.039409534510031964,-0.001064650843716541,0.52974,-1.06929,9.80019
1873737355,21.78,-0.013840460968315033,-0.022375121010567305,0.0,0.43164,-1.46169,9.99639
1878787860,21.78,0.006387905062299246,-0.013840460968315033,-0.001064650843716541,0.60822,-1.5303600000000002,9.73152
1883838365,21.78,0.02556907354171693,-0.02663372438543347,-0.001064650843716541,1.0791000000000002,-1.34397,10.2024
1888888870,21.78,0.05326744877086694,0.011711159280881954,-0.001064650843716541,1.03986,-1.1772,10.006200000000002
1893939375,21.78,0.054332099614583476,0.021310470166850764,-0.004258603374866164,0.94176,-1.0987200000000001,10.36917
1898989880,21.78,0.05326744877086694,0.039409534510031964,-0.002129301687433082,0.5886,-1.00062,10.1043
1904040385,21.78,0.04581489286485115,0.08415977653116657,0.0,0.13734000000000002,-1.04967,9.81
1909090890,21.78,0.03408628029144926,0.08628907821859966,-0.001064650843716541,-0.38259000000000004,-1.01043,9.96696
1914141395,21.78,0.03408628029144926,0.05007349623971732,-0.001064650843716541,-0.63765,-1.00062,9.80019
1919191900,21.78,0.02982767691658309,-0.007452555906015787,0.0,-0.84366,-1.15758,10.045440000000001
1924242405,21.78,0.02663372438543347,-0.07883652231258387,0.0,-0.60822,-1.1183400000000001,10.09449
1929292910,21.78,0.02556907354171693,-0.15233233711406508,0.001064650843716541,0.20601000000000003,-1.1281500000000002,10.13373
1934343415,21.78,0.02982767691658309,-0.19174187162409706,0.0,1.2753,-1.1870100000000001,10.074869999999999
1939393920,21.78,0.033021629447732716,-0.11505210429146619,-0.001064650843716541,2.17782,-1.3047300000000002,9.73152
1944444425,21.78,0.04260348704118158,-0.02663372438543347,-0.001064650843716541,2.10915,-1.1870100000000001,9.83943
1949494930,21.78,0.05859070298944965,0.0756251164889143,-0.001064650843716541,1.8639000000000001,-0.8142300000000001,9.38817
1954545435,21.78,0.0404741853537485,0.1555262896452147,-0.003193952531149623,1.31454,-0.9908100000000001,9.24102
1959595940,21.78,0.04260348704118158,0.1800307123432151,-0.002129301687433082,-0.009810000000000001,-1.1772,9.47646
1964646445,21.78,0.02769837522915001,0.15765559133264778,-0.002129301687433082,-0.70632,-1.1870100000000001,9.937529999999999
1969696950,21.78,0.03728023282259888,0.06817256058289851,0.0,-1.2360600000000002,-1.31454,10.33974
1974747455,21.78,0.06604325889546543,-0.020245819323134222,0.0,-1.26549,-0.9810000000000001,10.418220000000002
1979797960,21.78,0.05326744877086694,-0.11611675513518273,0.002129301687433082,-0.37278,-0.6670800000000001,10.535940000000002
1984848465,21.78,0.03408628029144926,-0.177901410655782,0.0,0.44145,-0.87309,10.15335
1989898970,21.78,0.01918116847941768,-0.15978489302008084,0.0,1.51074,-1.2851100000000002,9.81
1994949475,21.78,0.008517206749732328,-0.07136651311404815,-0.001064650843716541,1.9129500000000002,-1.58922,9.56475
1999999980,21.78,0.03515093113516579,0.05113814708343386,-0.003193952531149623,1.69713,-1.4813100000000001,9.358740000000001
2005050485,21.78,0.06923721142661506,0.11398745344774965,-0.001064650843716541,1.03986,-1.0791000000000002,9.760950000000001
2010100990,21.78,0.09161233243718235,0.1331511686346474,-0.003193952531149623,0.26487,-0.72594,9.85905
2015151495,21.78,0.07883652231258387,0.1097288500728835,0.0,-0.28449,-0.71613,10.26126
2020202000,21.78,0.046879543708567686,0.028763026072866547,0.0,-0.6867000000000001,-1.00062,10.51632
2025252505,21.78,0.033021629447732716,-0.05113814708343386,0.0,-0.33354000000000006,-1.21644,10.457460000000001
2030303010,21.78,0.031956978604016174,-0.10759954838545042,-0.001064650843716541,0.32373,-1.2851100000000002,10.280880000000002
2035353515,21.78,0.0404741853537485,-0.10759954838545042,-0.003193952531149623,1.0987200000000001,-1.2556800000000001,9.89829
2040404020,21.78,0.05859070298944965,-0.05007349623971732,-0.001064650843716541,1.29492,-1.2753,9.69228
2045454525,21.78,0.06284930636431581,0.033021629447732716,-0.002129301687433082,1.10853,-1.06929,9.633420000000001
2050505030,21.78,0.07243116395776468,0.09800023749948161,0.0,0.79461,-0.9613800000000001,9.74133
2055555535,21.78,0.07349581480148122,0.08948303074974927,0.0,0.23544,-0.85347,10.17297
2060606040,21.78,0.07777187146886733,0.03515093113516579,-0.003193952531149623,-0.15696000000000002,-0.9123300000000001,10.33974
2065656545,21.78,0.060720004676882725,-0.005323254218582705,-0.001064650843716541,-0.10791,-1.05948,10.280880000000002
2070707050,21.78,0.05113814708343386,-0.02982767691658309,-0.003193952531149623,0.11772,-1.16739,10.163160000000001
2075757555,21.78,0.05007349623971732,-0.03834488366631542,0.0,0.31392000000000003,-1.1772,9.86886
2080808060,21.78,0.05539675045830002,-0.046879543708567686,-0.002129301687433082,0.43164,-0.9810000000000001,9.68247
2085858565,21.78,0.06284930636431581,-0.04366813788489812,0.0,0.8142300000000001,-0.9123300000000001,9.53532
2090909070,21.78,0.06178465552059926,-0.022375121010567305,-0.002129301687433082,1.00062,-0.9123300000000001,9.59418
2095959575,21.78,0.06923721142661506,0.002129301687433082,-0.002129301687433082,0.9319500000000001,-1.08891,9.751140000000001
2101010080,21.78,0.06710790973918197,0.05752605214573309,-0.002129301687433082,0.8142300000000001,-1.2556800000000001,9.937529999999999
2106060585,21.78,0.07136651311404815,0.07670722062515077,0.0,0.24525000000000002,-1.22625,10.17297
2111111090,21.78,0.08203047484373349,0.05113814708343386,-0.002129301687433082,-0.08829,-0.9810000000000001,10.212209999999999
2116161595,21.78,0.07883652231258387,-0.004258603374866164,-0.001064650843716541,-0.019620000000000002,-0.84366,10.13373
2121212100,21.78,0.06284930636431581,-0.021310470166850764,-0.003193952531149623,0.16677000000000003,-0.9123300000000001,9.751140000000001
2126262605,21.78,0.054332099614583476,-0.03834488366631542,-0.003193952531149623,0.34335000000000004,-1.01043,9.78057
2131313110,21.78,0.06178465552059926,-0.03515093113516579,0.0,0.5591700000000001,-1.0987200000000001,9.78057
2136363615,21.78,0.06923721142661506,0.0,-0.001064650843716541,0.5886,-1.0987200000000001,9.96696
2141414120,21.78,0.07777187146886733,0.005323254218582705,-0.003193952531149623,0.71613,-1.1281500000000002,10.212209999999999
2146464625,21.78,0.07777187146886733,0.023439771854283843,-0.003193952531149623,0.6768900000000001,-1.22625,10.29069
2151515130,21.78,0.07777187146886733,0.024504422698000388,-0.003193952531149623,0.42183,-1.1281500000000002,10.22202
2156565635,21.78,0.08948303074974927,0.006387905062299246,-0.001064650843716541,0.38259000000000004,-0.7749900000000001,10.05525
2161616140,21.78,0.09161233243718235,-0.006387905062299246,-0.001064650843716541,0.5395500000000001,-0.6670800000000001,9.908100000000001
2166666645,21.78,0.07777187146886733,-0.015987215948268057,-0.001064650843716541,0.51012,-0.7848,9.81
2171717150,21.78,0.06604325889546543,-0.002129301687433082,-0.002129301687433082,0.5395500000000001,-1.1183400000000001,9.79038
2176767655,21.78,0.054332099614583476,0.031956978604016174,-0.002129301687433082,0.48069000000000006,-1.44207,9.97677
2181818160,21.78,0.07243116395776468,0.0404741853537485,-0.003193952531149623,0.10791,-1.41264,10.182780000000001
2186868665,21.78,0.10438814256178083,0.008517206749732328,-0.003193952531149623,0.05886,-1.03005,10.35936
2191919170,21.78,0.11931070766633237,-0.022375121010567305,-0.002129301687433082,0.28449,-0.6180300000000001,10.23183
2196969675,21.78,0.10759954838545042,-0.028763026072866547,-0.002129301687433082,0.5886,-0.46107000000000004,10.01601
2202020180,21.78,0.08948303074974927,-0.028763026072866547,-0.004258603374866164,0.70632,-0.69651,9.87867
2207070685,21.78,0.06604325889546543,0.0,-0.002129301687433082,0.6670800000000001,-1.0791000000000002,9.67266
2212121190,21.78,0.060720004676882725,0.00958185759344887,-0.003193952531149623,0.49050000000000005,-1.26549,9.73152
2217171695,21.78,0.07883652231258387,-0.011711159280881954,-0.002129301687433082,0.47088,-1.2556800000000001,9.89829
2222222200,21.78,0.09480628496833199,-0.00958185759344887,-0.003193952531149623,0.71613,-1.15758,9.888480000000001
2227272705,21.78,0.10866419922916695,0.015987215948268057,-0.003193952531149623,0.8338500000000001,-0.87309,9.94734
2232323210,21.78,0.1171814059788993,0.054332099614583476,-0.006387905062299246,0.69651,-0.70632,10.045440000000001
2237373715,21.78,0.11398745344774965,0.08096582400001695,-0.001064650843716541,0.07848000000000001,-0.65727,10.045440000000001
2242424220,21.78,0.09480628496833199,0.04153883619746504,-0.001064650843716541,-0.2943,-0.5493600000000001,10.09449
2247474725,21.78,0.07777187146886733,-0.03621558197888234,-0.002129301687433082,-0.07848000000000001,-0.94176,9.94734
2252525230,21.78,0.06178465552059926,-0.06284930636431581,-0.001064650843716541,0.24525000000000002,-1.34397,9.78057
2257575735,21.78,0.06817256058289851,-0.05113814708343386,-0.003193952531149623,0.49050000000000005,-1.3537800000000002,9.79038
2262626240,21.78,0.10225884087434776,-0.0170518667919846,-0.002129301687433082,0.85347,-1.13796,9.86886
2267676745,21.78,0.13208651779093086,0.02556907354171693,-0.002129301687433082,0.7848,-0.6180300000000001,10.025820000000001
2272727250,21.78,0.13208651779093086,0.02663372438543347,-0.003193952531149623,0.5493600000000001,-0.3924,10.2024
2277777755,21.78,0.1097288500728835,0.01064650843716541,-0.004258603374866164,0.6867000000000001,-0.63765,10.25145
2282828260,21.78,0.07670722062515077,0.00958185759344887,-0.002129301687433082,0.57879,-1.22625,10.03563
2287878765,21.78,0.07456046564519776,0.01811651763570114,-0.002129301687433082,0.21582,-1.42245,9.92772
2292929270,21.78,0.09587093581204853,0.012775810124598492,-0.003193952531149623,0.2943,-1.1281500000000002,9.92772
2297979775,21.78,0.12356931104119852,-0.002129301687433082,-0.004258603374866164,0.32373,-0.6768900000000001,9.888480000000001
2303030280,21.78,0.13849187614575004,-0.01811651763570114,-0.005323254218582705,0.40221,-0.34335000000000004,9.908100000000001
2308080785,21.78,0.1171814059788993,-0.012775810124598492,-0.003193952531149623,0.59841,-0.6278400000000001,10.01601
2313131290,21.78,0.08309512568745003,0.02982767691658309,-0.001064650843716541,0.56898,-1.1281500000000002,10.08468
2318181795,21.78,0.08628907821859966,0.03728023282259888,0.0,0.1962,-1.3832099999999998,10.27107
2323232300,21.78,0.11079350091660004,0.015987215948268057,-0.004258603374866164,0.019620000000000002,-1.02024,10.26126
2328282805,21.78,0.1331511686346474,-0.022375121010567305,-0.003193952531149623,0.14715,-0.5886,10.025820000000001
2333333310,21.78,0.13208651779093086,-0.03834488366631542,-0.004258603374866164,0.52974,-0.44145,9.770760000000001
2338383815,21.78,0.10759954838545042,-0.02769837522915001,-0.003193952531149623,0.74556,-0.71613,9.7119
2343434320,21.78,0.08948303074974927,0.00958185759344887,-0.002129301687433082,0.60822,-1.02024,9.72171
2348484825,21.78,0.10119419003063122,0.0170518667919846,-0.002129301687433082,0.47088,-0.9319500000000001,10.03563
2353535330,21.78,0.12144000935376545,0.008517206749732328,-0.003193952531149623,0.70632,-0.8829,10.17297
2358585835,21.78,0.1288925652597812,0.022375121010567305,-0.004258603374866164,0.52974,-0.9123300000000001,10.09449
2363636340,21.78,0.12676326357234816,0.031956978604016174,-0.003193952531149623,0.25506,-0.8240400000000001,10.1043
2368686845,21.78,0.12569861272863161,0.021310470166850764,-0.003193952531149623,0.08829,-0.6670800000000001,9.94734
2373737350,21.78,0.1278279144160647,-0.005323254218582705,-0.002129301687433082,0.13734000000000002,-0.52974,9.86886
2378787855,21.78,0.11931070766633237,-0.04260348704118158,-0.002129301687433082,0.32373,-0.52974,9.82962
2383838360,21.78,0.10438814256178083,-0.0404741853537485,-0.004258603374866164,0.72594,-0.84366,9.72171
2388888865,21.78,0.09693558665576507,0.011711159280881954,-0.002129301687433082,0.8240400000000001,-1.16739,9.81
2393939370,21.78,0.11292280260403312,0.03621558197888234,-0.005323254218582705,0.56898,-1.13796,10.08468
2398989875,21.78,0.14275047952061623,0.031956978604016174,-0.002129301687433082,0.2943,-0.8338500000000001,10.13373
2404040380,21.78,0.1555262896452147,0.014905111812031574,-0.004258603374866164,0.20601000000000003,-0.3924,10.12392
2409090885,21.78,0.14381513036433274,0.007452555906015787,-0.003193952531149623,0.25506,-0.33354000000000006,9.94734
2414141390,21.78,0.11824605682261582,0.002129301687433082,-0.002129301687433082,0.30411,-0.5591700000000001,9.84924
2419191895,21.78,0.10119419003063122,-0.002129301687433082,-0.003193952531149623,0.34335000000000004,-0.8240400000000001,9.81
2424242400,21.78,0.10438814256178083,-0.011711159280881954,-0.002129301687433082,0.34335000000000004,-1.03986,9.92772
2429292905,21.78,0.11292280260403312,-0.02663372438543347,-0.004258603374866164,0.47088,-1.16739,10.01601
2434343410,21.78,0.12995721610349775,-0.014905111812031574,-0.002129301687433082,0.59841,-0.9908100000000001,10.05525
2439393915,21.78,0.14594443205176583,0.004258603374866164,-0.005323254218582705,0.6867000000000001,-0.60822,10.05525
2444444420,21.78,0.15872024217636432,0.028763026072866547,-0.005323254218582705,0.71613,-0.36297,10.025820000000001
2449494925,21.78,0.15339698795778162,0.04581489286485115,-0.004258603374866164,0.37278,-0.27468000000000004,10.045440000000001
2454545430,21.78,0.1288925652597812,0.04260348704118158,-0.002129301687433082,0.14715,-0.49050000000000005,10.03563
2459595935,21.78,0.10759954838545042,0.006387905062299246,-0.001064650843716541,-0.009810000000000001,-0.9221400000000001,9.97677
2464646440,21.78,0.10012953918691468,-0.04260348704118158,-0.004258603374866164,0.07848000000000001,-1.16739,10.01601
2469696945,21.78,0.11931070766633237,-0.06178465552059926,-0.004258603374866164,0.51012,-1.02024,9.97677
2474747450,21.78,0.15339698795778162,-0.02982767691658309,-0.003193952531149623,0.90252,-0.6768900000000001,9.89829
2479797955,21.78,0.16831955306233315,0.031956978604016174,-0.005323254218582705,0.86328,-0.37278,9.97677
2484848460,21.78,0.15872024217636432,0.05007349623971732,-0.005323254218582705,0.44145,-0.23544,10.13373
2489898965,21.78,0.14700908289548237,0.01918116847941768,-0.003193952531149623,0.20601000000000003,-0.37278,10.163160000000001
2494949470,21.78,0.12144000935376545,0.005323254218582705,-0.004258603374866164,0.26487,-0.69651,9.97677
2499999975,21.78,0.10653489754173388,0.001064650843716541,-0.004258603374866164,0.37278,-1.10853,9.87867
2505050480,21.78,0.11931070766633237,0.00958185759344887,-0.003193952531149623,0.31392000000000003,-1.10853,9.84924
2510100985,21.78,0.1480737337391989,-0.002129301687433082,-0.003193952531149623,0.14715,-0.6867000000000001,9.97677
2515151490,21.78,0.1757721089683489,-0.02769837522915001,-0.005323254218582705,0.28449,-0.019620000000000002,9.91791
2520201995,21.78,0.177901410655782,-0.04260348704118158,-0.006387905062299246,0.71613,0.0,9.97677
2525252500,21.78,0.12995721610349775,0.007452555906015787,-0.006387905062299246,0.86328,-0.6867000000000001,9.86886
2530303005,21.78,0.10225884087434776,0.05539675045830002,0.0,0.2943,-1.16739,9.95715
2535353510,21.78,0.12463396188491506,0.04260348704118158,-0.001064650843716541,0.12753,-0.8829,10.045440000000001
2540404015,21.78,0.16617279808238014,0.004258603374866164,-0.006387905062299246,0.24525000000000002,-0.45126,9.99639
2545454520,21.78,0.1672549022186166,-0.015987215948268057,-0.005323254218582705,0.25506,-0.28449,9.79038
2550505025,21.78,0.14275047952061623,-0.024504422698000388,-0.004258603374866164,0.37278,-0.48069000000000006,9.819809999999999
2555555530,21.78,0.1288925652597812,-0.00958185759344887,-0.002129301687433082,0.47088,-0.51993,9.819809999999999
2560606035,21.78,0.14381513036433274,-0.007452555906015787,-0.003193952531149623,0.59841,-0.5395500000000001,10.045440000000001
2565656540,21.78,0.15659094048893124,0.001064650843716541,-0.002129301687433082,0.70632,-0.6180300000000001,10.163160000000001
2570707045,21.78,0.13634512116579703,0.023439771854283843,-0.004258603374866164,0.63765,-0.8142300000000001,10.06506
2575757550,21.78,0.14062117783318315,0.015987215948268057,-0.003193952531149623,0.38259000000000004,-0.6768900000000001,9.97677
2580808055,21.78,0.17151350559348277,0.0,-0.002129301687433082,0.37278,-0.27468000000000004,9.86886
2585858560,21.78,0.177901410655782,0.005323254218582705,-0.007452555906015787,0.44145,-0.12753,9.81
2590909065,21.78,0.15126768627034853,0.028763026072866547,-0.002129301687433082,0.35316,-0.35316,9.819809999999999
2595959570,21.78,0.12995721610349775,0.02556907354171693,-0.004258603374866164,0.1962,-0.71613,10.05525
2601010075,21.78,0.13102186694721432,0.005323254218582705,-0.005323254218582705,0.07848000000000001,-0.8142300000000001,10.143540000000002
2606060580,21.78,0.1629788455512305,-0.023439771854283843,-0.007452555906015787,0.1962,-0.57879,10.22202
2611111085,21.78,0.1704488547497662,-0.013840460968315033,-0.003193952531149623,0.5591700000000001,-0.49050000000000005,10.05525
2616161590,21.78,0.15339698795778162,0.01918116847941768,-0.004258603374866164,0.3924,-0.48069000000000006,9.89829
2621212095,21.78,0.15765559133264778,0.007452555906015787,-0.003193952531149623,0.33354000000000006,-0.18639,9.94734
2626262600,21.78,0.17683675981206545,-0.003193952531149623,-0.005323254218582705,0.45126,0.0,9.86886
2631313105,21.78,0.16084954386379738,0.002129301687433082,-0.005323254218582705,0.48069000000000006,-0.30411,9.819809999999999
2636363610,21.78,0.12463396188491506,0.01918116847941768,-0.003193952531149623,0.17658,-0.9319500000000001,9.86886
2641414115,21.78,0.11824605682261582,0.008517206749732328,-0.006387905062299246,0.23544,-1.06929,10.074869999999999
2646464620,21.78,0.16617279808238014,-0.007452555906015787,-0.004258603374866164,0.30411,-0.41202000000000005,9.99639
2651515125,21.78,0.2183755960095305,-0.03089232776029963,-0.007452555906015787,0.5591700000000001,0.26487,10.006200000000002
2656565630,21.78,0.18854791909294744,-0.01064650843716541,-0.004258603374866164,0.84366,0.08829,9.86886
2661616135,21.78,0.12995721610349775,0.03089232776029963,-0.002129301687433082,0.59841,-0.51993,9.7119
2666666640,21.78,0.11931070766633237,0.02769837522915001,-0.003193952531149623,0.3924,-0.74556,9.97677
2671717145,21.78,0.15765559133264778,-0.002129301687433082,-0.006387905062299246,0.2943,-0.6670800000000001,9.98658
2676767650,21.78,0.16617279808238014,0.0,-0.005323254218582705,0.41202000000000005,-0.60822,9.82962
2681818155,21.78,0.1629788455512305,0.005323254218582705,-0.005323254218582705,0.35316,-0.41202000000000005,9.94734
2686868660,21.78,0.18216001403064813,0.023439771854283843,-0.005323254218582705,0.47088,-0.039240000000000004,9.82962
2691919165,21.78,0.19814722997891623,0.04366813788489812,-0.005323254218582705,0.24525000000000002,0.28449,9.91791
2696969670,21.78,0.17257815643719931,0.049008845396000776,-0.004258603374866164,0.14715,-0.039240000000000004,10.11411
2702020175,21.78,0.12144000935376545,0.01918116847941768,-0.003193952531149623,-0.039240000000000004,-0.9123300000000001,10.25145
2707070680,21.78,0.10866419922916695,-0.01811651763570114,-0.004258603374866164,-0.14715,-1.22625,10.13373
2712121185,21.78,0.16831955306233315,-0.05539675045830002,-0.004258603374866164,0.12753,-0.46107000000000004,10.074869999999999
2717171690,21.78,0.21944024685324706,-0.06178465552059926,-0.005323254218582705,0.7749900000000001,0.24525000000000002,9.89829
2722222195,21.78,0.19174187162409706,-0.014905111812031574,-0.005323254218582705,1.03986,0.13734000000000002,9.888480000000001
2727272700,21.78,0.16084954386379738,0.023439771854283843,-0.004258603374866164,0.75537,-0.22563,10.006200000000002
2732323205,21.78,0.15872024217636432,0.05113814708343386,-0.004258603374866164,0.37278,-0.24525000000000002,9.96696
2737373710,21.78,0.16831955306233315,0.02769837522915001,-0.004258603374866164,0.22563,-0.33354000000000006,10.03563
2742424215,21.78,0.15765559133264778,0.002129301687433082,-0.006387905062299246,0.27468000000000004,-0.60822,10.06506
2747474720,21.78,0.14594443205176583,-0.006387905062299246,-0.003193952531149623,0.37278,-0.72594,9.888480000000001
2752525225,21.78,0.17683675981206545,-0.005323254218582705,-0.003193952531149623,0.24525000000000002,-0.15696000000000002,9.70209
2757575730,21.78,0.21411699263466438,-0.001064650843716541,-0.007452555906015787,0.50031,0.47088,9.760950000000001
2762626235,21.78,0.19814722997891623,0.011711159280881954,-0.005323254218582705,0.59841,0.32373,9.819809999999999
2767676740,21.78,0.13955652698946658,0.044732788728614664,-0.005323254218582705,0.35316,-0.41202000000000005,9.79038
2772727245,21.78,0.12463396188491506,0.03621558197888234,-0.005323254218582705,0.08829,-0.79461,10.01601
2777777750,21.78,0.16404349639494703,0.00958185759344887,-0.003193952531149623,-0.12753,-0.5493600000000001,9.92772
2782828255,21.78,0.19280652246781357,-0.023439771854283843,-0.004258603374866164,-0.05886,-0.019620000000000002,9.91791
2787878760,21.78,0.19174187162409706,-0.039409534510031964,-0.005323254218582705,0.43164,0.18639,9.82962
2792929265,21.78,0.17470745812463237,-0.01064650843716541,-0.007452555906015787,0.6278400000000001,0.08829,9.64323
2797979770,21.78,0.16831955306233315,0.00958185759344887,-0.004258603374866164,0.43164,0.009810000000000001,9.78057
2803030275,21.78,0.16084954386379738,0.012775810124598492,-0.004258603374866164,0.24525000000000002,-0.18639,9.92772
2808080780,21.78,0.14487978120804929,0.0,-0.004258603374866164,0.43164,-0.51993,10.006200000000002
2813131285,21.78,0.14913838458291545,-0.013840460968315033,-0.005323254218582705,0.5591700000000001,-0.60822,9.92772
2818181790,21.78,0.18535396656179778,0.0,-0.005323254218582705,0.65727,-0.23544,9.91791
2823232295,21.78,0.21198769094723127,0.03621558197888234,-0.004258603374866164,0.51012,0.21582,9.89829
2828282800,21.78,0.19493582415524666,0.04366813788489812,-0.007452555906015787,0.34335000000000004,0.34335000000000004,9.937529999999999
2833333305,21.78,0.17151350559348277,0.02769837522915001,-0.005323254218582705,0.13734000000000002,0.02943,10.025820000000001
2838383810,21.78,0.15233233711406508,0.006387905062299246,-0.005323254218582705,0.11772,-0.24525000000000002,9.91791
2843434315,21.78,0.15339698795778162,-0.005323254218582705,-0.007452555906015787,0.14715,-0.35316,9.91791
2848484820,21.78,0.16938420390604966,-0.012775810124598492,-0.005323254218582705,0.30411,-0.38259000000000004,10.025820000000001
2853535325,21.78,0.17683675981206545,0.01811651763570114,-0.003193952531149623,0.25506,-0.21582,9.91791
2858585830,21.78,0.19280652246781357,0.015987215948268057,-0.003193952531149623,-0.009810000000000001,0.18639,10.01601
2863636335,21.78,0.20347048419749894,-0.0170518667919846,-0.004258603374866164,0.05886,0.43164,10.01601
2868686840,21.78,0.17364280728091586,-0.03621558197888234,-0.005323254218582705,0.43164,0.16677000000000003,9.91791
2873737345,21.78,0.1416858286768997,-0.01918116847941768,-0.003193952531149623,0.6278400000000001,-0.42183,9.83943
2878787850,21.78,0.14381513036433274,0.022375121010567305,-0.004258603374866164,0.57879,-0.5886,9.80019
2883838355,21.78,0.17896606149949854,0.02982767691658309,-0.003193952531149623,0.21582,-0.08829,9.84924
2888888860,21.78,0.21092304010351473,-0.001064650843716541,-0.005323254218582705,0.18639,0.3924,9.89829
2893939365,21.78,0.19814722997891623,-0.021310470166850764,-0.006387905062299246,0.59841,0.45126,9.85905
2898989870,21.78,0.16191419470751395,0.020245819323134222,-0.004258603374866164,0.6180300000000001,0.02943,9.64323
2904040375,21.78,0.15126768627034853,0.03408628029144926,-0.005323254218582705,0.26487,-0.21582,9.819809999999999
2909090880,21.78,0.1757721089683489,0.02556907354171693,-0.005323254218582705,0.019620000000000002,-0.019620000000000002,9.85905
2914141385,21.78,0.18428931571808121,0.003193952531149623,-0.006387905062299246,0.16677000000000003,0.10791,9.89829
2919191890,21.78,0.1757721089683489,0.0,-0.004258603374866164,0.27468000000000004,-0.039240000000000004,9.86886
2924242395,21.78,0.16404349639494703,0.005323254218582705,-0.005323254218582705,0.23544,-0.13734000000000002,9.81
2929292900,21.78,0.1704488547497662,0.00958185759344887,-0.003193952531149623,0.0981,0.07848000000000001,9.72171
2934343405,21.78,0.19174187162409706,-0.007452555906015787,-0.006387905062299246,0.24525000000000002,0.46107000000000004,9.82962
2939393910,21.78,0.19600047499896323,0.002129301687433082,-0.004258603374866164,0.51993,0.48069000000000006,9.85905
2944444415,21.78,0.1629788455512305,0.031956978604016174,-0.003193952531149623,0.45126,0.0,9.87867
2949494920,21.78,0.14062117783318315,0.02663372438543347,-0.003193952531149623,-0.009810000000000001,-0.44145,10.025820000000001
2954545425,21.78,0.15233233711406508,-0.015987215948268057,-0.004258603374866164,-0.02943,-0.26487,10.045440000000001
2959595930,21.78,0.18641861740551433,-0.04581489286485115,-0.006387905062299246,0.48069000000000006,0.14715,9.819809999999999
2964646435,21.78,0.19921188082263275,-0.02982767691658309,-0.006387905062299246,0.8829,0.38259000000000004,9.819809999999999
2969696940,21.78,0.19174187162409706,0.02982767691658309,-0.005323254218582705,0.74556,0.3924,9.74133
2974747445,21.78,0.17470745812463237,0.06817256058289851,-0.003193952531149623,0.26487,0.27468000000000004,9.82962
2979797950,21.78,0.16938420390604966,0.04153883619746504,-0.003193952531149623,-0.04905,0.20601000000000003,10.03563
2984848455,21.78,0.16617279808238014,-0.007452555906015787,-0.003193952531149623,0.08829,-0.019620000000000002,10.1043
2989898960,21.78,0.15126768627034853,-0.0170518667919846,-0.004258603374866164,0.27468000000000004,-0.34335000000000004,9.87867
2994949465,21.78,0.16404349639494703,-0.020245819323134222,-0.005323254218582705,0.32373,-0.0981,9.888480000000001
2999999970,21.78,0.20453513504121545,-0.004258603374866164,-0.005323254218582705,0.49050000000000005,0.5395500000000001,9.74133
3005050475,21.78,0.2205048976969636,0.020245819323134222,-0.007452555906015787,0.51012,0.85347,9.73152
3010100980,21.78,0.18428931571808121,0.04794419455228423,-0.006387905062299246,0.26487,0.43164,9.80019
3015151485,21.78,0.1374272253020335,0.05326744877086694,-0.004258603374866164,-0.11772,-0.17658,9.84924
3020201990,21.78,0.1352804703220805,0.012775810124598492,-0.004258603374866164,-0.38259000000000004,-0.31392000000000003,9.888480000000001
3025252495,21.78,0.17896606149949854,-0.039409534510031964,-0.004258603374866164,-0.019620000000000002,0.17658,9.96696
3030303000,21.78,0.2130523417909478,-0.04366813788489812,-0.004258603374866164,0.47088,0.57879,9.770760000000001
3035353505,21.78,0.19174187162409706,-0.001064650843716541,-0.005323254218582705,0.56898,0.60822,9.70209
3040404010,21.78,0.15978489302008084,0.001064650843716541,-0.003193952531149623,0.49050000000000005,0.35316,9.81
3045454515,21.78,0.15765559133264778,0.003193952531149623,-0.006387905062299246,0.38259000000000004,0.27468000000000004,9.751140000000001
3050505020,21.78,0.16510814723866357,-0.014905111812031574,-0.004258603374866164,0.49050000000000005,0.0981,9.751140000000001
3055555525,21.78,0.15765559133264778,0.005323254218582705,-0.004258603374866164,0.5886,-0.07848000000000001,9.72171
3060606030,21.78,0.16617279808238014,0.04153883619746504,-0.004258603374866164,0.46107000000000004,-0.04905,9.760950000000001
3065656535,21.78,0.19280652246781357,0.05965535383316618,-0.006387905062299246,0.08829,0.51993,9.82962
3070707040,21.78,0.2162462943220974,0.020245819323134222,-0.005323254218582705,-0.06867000000000001,1.01043,9.96696
3075757545,21.78,0.18748326824923087,-0.008517206749732328,-0.006387905062299246,0.18639,0.74556,9.908100000000001
3080808050,21.78,0.12676326357234816,-0.007452555906015787,-0.004258603374866164,0.34335000000000004,-0.08829,9.760950000000001
3085858555,21.78,0.12037535851004891,0.005323254218582705,-0.002129301687433082,0.11772,-0.36297,9.79038
3090909060,21.78,0.1757721089683489,0.001064650843716541,-0.005323254218582705,0.17658,0.26487,9.87867
3095959565,21.78,0.21411699263466438,-0.005323254218582705,-0.005323254218582705,0.31392000000000003,0.75537,9.85905
3101010070,21.78,0.18854791909294744,0.001064650843716541,-0.006387905062299246,0.50031,0.59841,9.91791
3106060575,21.78,0.15339698795778162,0.0170518667919846,-0.004258603374866164,0.22563,0.23544,9.82962
3111111080,21.78,0.15446163880149816,0.007452555906015787,-0.005323254218582705,0.17658,0.2943,9.91791
3116161585,21.78,0.18109536318693162,-0.003193952531149623,-0.002129301687433082,0.2943,0.5493600000000001,9.92772
3121212090,21.78,0.1832246648743647,-0.008517206749732328,-0.006387905062299246,0.51012,0.49050000000000005,9.81
3126262595,21.78,0.15659094048893124,0.013840460968315033,-0.004258603374866164,0.40221,0.20601000000000003,9.68247
3131313100,21.78,0.15446163880149816,0.014905111812031574,-0.006387905062299246,0.22563,0.25506,9.73152
3136363605,21.78,0.18216001403064813,0.013840460968315033,-0.004258603374866164,0.11772,0.6180300000000001,9.7119
3141414110,21.78,0.18641861740551433,0.0,-0.005323254218582705,0.27468000000000004,0.69651,9.760950000000001
3146464615,21.78,0.16084954386379738,0.015987215948268057,-0.004258603374866164,0.30411,0.37278,9.78057
3151515120,21.78,0.15659094048893124,0.03408628029144926,-0.005323254218582705,0.039240000000000004,0.27468000000000004,9.80019
3156565625,21.78,0.16510814723866357,0.006387905062299246,-0.005323254218582705,0.0,0.46107000000000004,9.94734
3161616130,21.78,0.17896606149949854,-0.03089232776029963,-0.004258603374866164,0.24525000000000002,0.6278400000000001,9.85905
3166666635,21.78,0.16404349639494703,-0.02556907354171693,-0.006387905062299246,0.48069000000000006,0.51993,9.66285
3171717140,21.78,0.150203035426632,-0.00958185759344887,-0.005323254218582705,0.52974,0.30411,9.55494
3176767645,21.78,0.1555262896452147,0.01918116847941768,-0.003193952531149623,0.41202000000000005,0.47088,9.6138
3181818150,21.78,0.18535396656179778,0.028763026072866547,-0.006387905062299246,0.3924,0.75537,9.78057
3186868655,21.78,0.1757721089683489,0.02769837522915001,-0.005323254218582705,0.38259000000000004,0.5493600000000001,9.87867
3191919160,21.78,0.14700908289548237,0.03408628029144926,-0.003193952531149623,0.04905,0.28449,9.87867
3196969665,21.78,0.14913838458291545,0.00958185759344887,-0.002129301687433082,-0.009810000000000001,0.35316,9.89829
3202020170,21.78,0.17364280728091586,-0.014905111812031574,-0.004258603374866164,0.08829,0.64746,9.81
3207070675,21.78,0.1800307123432151,-0.01064650843716541,-0.005323254218582705,0.35316,0.75537,9.770760000000001
3212121180,21.78,0.16191419470751395,0.011711159280881954,-0.004258603374866164,0.25506,0.60822,9.68247
3217171685,21.78,0.1480737337391989,0.007452555906015787,-0.005323254218582705,0.18639,0.5591700000000001,9.74133
3222222190,21.78,0.15659094048893124,-0.006387905062299246,-0.006387905062299246,0.18639,0.6180300000000001,9.770760000000001
3227272695,21.78,0.16084954386379738,-0.0170518667919846,-0.005323254218582705,0.41202000000000005,0.46107000000000004,9.819809999999999
3232323200,21.78,0.150203035426632,0.008517206749732328,-0.003193952531149623,0.44145,0.18639,9.80019
3237373705,21.78,0.15126768627034853,0.05007349623971732,-0.002129301687433082,0.18639,0.32373,9.770760000000001
3242424210,21.78,0.18428931571808121,0.03834488366631542,-0.005323254218582705,-0.14715,1.02024,9.84924
3247474715,21.78,0.20134118251006583,-0.01918116847941768,-0.004258603374866164,-0.04905,1.3243500000000001,9.819809999999999
3252525220,21.78,0.15339698795778162,-0.02769837522915001,-0.003193952531149623,0.33354000000000006,0.69651,9.70209
3257575725,21.78,0.10653489754173388,-0.002129301687433082,-0.003193952531149623,0.32373,0.009810000000000001,9.69228
3262626230,21.78,0.11611675513518273,0.001064650843716541,-0.004258603374866164,0.34335000000000004,0.039240000000000004,9.79038
3267676735,21.78,0.177901410655782,-0.00958185759344887,-0.006387905062299246,0.32373,0.73575,9.78057
3272727240,21.78,0.2130523417909478,-0.01918116847941768,-0.006387905062299246,0.48069000000000006,1.2851100000000002,9.751140000000001
3277777745,21.78,0.17257815643719931,-0.003193952531149623,-0.007452555906015787,0.6768900000000001,0.9221400000000001,9.7119
3282828250,21.78,0.11611675513518273,0.04366813788489812,-0.001064650843716541,0.50031,0.33354000000000006,9.64323
3287878755,21.78,0.1278279144160647,0.05220279792715039,-0.005323254218582705,-0.009810000000000001,0.31392000000000003,9.73152
3292929260,21.78,0.16510814723866357,0.031956978604016174,-0.005323254218582705,-0.10791,0.80442,9.770760000000001
3297979765,21.78,0.17683675981206545,0.013840460968315033,-0.004258603374866164,-0.0981,0.9221400000000001,9.74133
3303030270,21.78,0.15446163880149816,0.003193952531149623,-0.005323254218582705,-0.039240000000000004,0.8240400000000001,9.79038
3308080775,21.78,0.14275047952061623,-0.020245819323134222,-0.002129301687433082,0.009810000000000001,0.71613,9.82962
3313131280,21.78,0.14062117783318315,-0.023439771854283843,-0.003193952531149623,0.17658,0.63765,9.770760000000001
3318181785,21.78,0.14913838458291545,-0.033021629447732716,-0.002129301687433082,0.35316,0.69651,9.79038
3323232290,21.78,0.150203035426632,-0.00958185759344887,-0.003193952531149623,0.56898,0.79461,9.60399
3328282795,21.78,0.15339698795778162,0.013840460968315033,-0.005323254218582705,0.49050000000000005,0.84366,9.55494
3333333300,21.78,0.15446163880149816,0.03408628029144926,-0.002129301687433082,0.27468000000000004,0.84366,9.56475
3338383805,21.78,0.14275047952061623,0.031956978604016174,-0.003193952531149623,0.11772,0.6867000000000001,9.74133
3343434310,21.78,0.1288925652597812,0.011711159280881954,-0.003193952531149623,0.0,0.5395500000000001,9.81
3348484815,21.78,0.14062117783318315,-0.028763026072866547,-0.003193952531149623,0.11772,0.74556,9.87867
3353535320,21.78,0.16084954386379738,-0.023439771854283843,-0.004258603374866164,0.52974,0.9613800000000001,9.69228
3358585825,21.78,0.15978489302008084,0.02982767691658309,-0.005323254218582705,0.60822,0.89271,9.633420000000001
3363636330,21.78,0.14275047952061623,0.07136651311404815,-0.004258603374866164,0.04905,0.73575,9.751140000000001
3368686835,21.78,0.1288925652597812,0.046879543708567686,-0.002129301687433082,-0.3924,0.6670800000000001,9.86886
3373737340,21.78,0.13102186694721432,-0.00958185759344887,-0.003193952531149623,-0.27468000000000004,0.85347,9.79038
3378787845,21.78,0.15233233711406508,-0.07030186227033158,-0.003193952531149623,0.08829,1.03005,9.72171
3383838350,21.78,0.15126768627034853,-0.060720004676882725,-0.001064650843716541,0.6278400000000001,0.84366,9.67266
3388888855,21.78,0.12569861272863161,0.021310470166850764,-0.004258603374866164,0.6768900000000001,0.6278400000000001,9.623610000000001
3393939360,21.78,0.1331511686346474,0.046879543708567686,-0.005323254218582705,0.26487,0.69651,9.87867
3398989865,21.78,0.15765559133264778,0.0170518667919846,-0.004258603374866164,-0.039240000000000004,0.95157,9.81
3404040370,21.78,0.14594443205176583,-0.002129301687433082,-0.003193952531149623,0.21582,0.9613800000000001,9.68247
3409090875,21.78,0.1278279144160647,0.0,-0.004258603374866164,0.33354000000000006,0.72594,9.60399
3414141380,21.78,0.1331511686346474,0.020245819323134222,-0.004258603374866164,0.28449,0.70632,9.623610000000001
3419191885,21.78,0.150203035426632,0.03834488366631542,-0.001064650843716541,-0.06867000000000001,1.10853,9.751140000000001
3424242390,21.78,0.15978489302008084,0.0,-0.002129301687433082,-0.20601000000000003,1.3832099999999998,9.92772
3429292895,21.78,0.12995721610349775,-0.04260348704118158,-0.003193952531149623,0.35316,0.9613800000000001,9.908100000000001
3434343400,21.78,0.09054768159346581,-0.03834488366631542,-0.005323254218582705,0.50031,0.25506,9.60399
3439393905,21.78,0.09906488834319814,0.001064650843716541,-0.004258603374866164,0.5395500000000001,0.10791,9.65304
3444444410,21.78,0.15339698795778162,0.05965535383316618,-0.005323254218582705,0.25506,0.79461,9.56475
3449494915,21.78,0.19600047499896323,0.09054768159346581,-0.006387905062299246,-0.0981,1.6382700000000001,9.67266
3454545420,21.78,0.18748326824923087,0.049008845396000776,-0.001064650843716541,-0.51993,1.88352,9.888480000000001
3459595925,21.78,0.12676326357234816,-0.023439771854283843,-0.003193952531149623,-0.33354000000000006,1.21644,9.82962
3464646430,21.78,0.07456046564519776,-0.05646140130201656,-0.001064650843716541,-0.10791,0.3924,9.82962
3469696935,21.78,0.07136651311404815,-0.0756251164889143,-0.001064650843716541,0.20601000000000003,0.0,9.82962
3474747440,21.78,0.11398745344774965,-0.06604325889546543,-0.003193952531149623,0.69651,0.45126,9.67266
3479797945,21.78,0.1629788455512305,-0.05007349623971732,-0.005323254218582705,1.05948,1.1772,9.55494
3484848450,21.78,0.18535396656179778,0.023439771854283843,-0.007452555906015787,1.1477700000000002,1.8442800000000001,9.34893
3489898955,21.78,0.15872024217636432,0.08735372906231618,-0.007452555906015787,0.89271,1.5696,9.33912
3494949460,21.78,0.10332349171806432,0.15446163880149816,-0.005323254218582705,0.05886,0.90252,9.37836
3499999965,21.78,0.09054768159346581,0.1374272253020335,-0.003193952531149623,-0.9810000000000001,0.47088,9.908100000000001
3505050470,21.78,0.10759954838545042,0.05539675045830002,-0.004258603374866164,-1.44207,0.51012,9.95715
3510100975,21.78,0.1352804703220805,-0.05965535383316618,-0.003193952531149623,-1.21644,1.13796,9.92772
3515151480,21.78,0.1416858286768997,-0.150203035426632,-0.004258603374866164,-0.13734000000000002,1.46169,9.81
3520201985,21.78,0.11824605682261582,-0.12676326357234816,-0.003193952531149623,0.63765,1.22625,9.40779
3525252490,21.78,0.10012953918691468,-0.05326744877086694,0.0,0.9123300000000001,1.02024,9.36855
3530302995,21.78,0.10545279340549739,-0.007452555906015787,0.0,1.02024,0.95157,9.6138
3535353500,21.78,0.11611675513518273,0.02663372438543347,-0.003193952531149623,0.9810000000000001,0.84366,9.59418
3540404005,21.78,0.1097288500728835,0.04581489286485115,-0.003193952531149623,0.75537,0.6670800000000001,9.73152
3545454510,21.78,0.11505210429146619,0.049008845396000776,-0.005323254218582705,0.47088,0.69651,9.770760000000001
3550505015,21.78,0.13208651779093086,0.046879543708567686,-0.003193952531149623,0.23544,1.10853,9.69228
3555555520,21.78,0.150203035426632,0.05007349623971732,-0.005323254218582705,0.0,1.5794100000000002,9.65304
3560606025,21.78,0.13849187614575004,0.04794419455228423,-0.008517206749732328,-0.11772,1.6480800000000002,9.7119
3565656530,21.78,0.10119419003063122,0.023439771854283843,-0.001064650843716541,-0.30411,1.1870100000000001,9.7119
3570707035,21.78,0.07777187146886733,0.0,-0.002129301687433082,-0.38259000000000004,0.75537,9.64323
3575757540,21.78,0.08203047484373349,-0.0170518667919846,0.0,-0.28449,0.63765,9.66285
3580808045,21.78,0.10438814256178083,-0.03408628029144926,0.0,-0.0981,0.87309,9.69228
3585858550,21.78,0.1288925652597812,-0.05646140130201656,-0.001064650843716541,0.1962,1.1870100000000001,9.74133
3590909055,21.78,0.12356931104119852,-0.033021629447732716,-0.002129301687433082,0.56898,1.3537800000000002,9.6138
3595959560,21.78,0.10653489754173388,-0.004258603374866164,-0.003193952531149623,0.6867000000000001,1.39302,9.496080000000001
3601010065,21.78,0.10119419003063122,0.01064650843716541,-0.003193952531149623,0.6180300000000001,1.3047300000000002,9.45684
3606060570,21.78,0.09800023749948161,0.028763026072866547,-0.005323254218582705,0.40221,1.00062,9.47646
3611111075,21.78,0.08203047484373349,0.046879543708567686,-0.001064650843716541,0.12753,0.7848,9.5157
3616161580,21.78,0.09587093581204853,0.031956978604016174,0.0,-0.05886,0.9123300000000001,9.7119
3621212085,21.78,0.1171814059788993,0.003193952531149623,-0.003193952531149623,-0.009810000000000001,1.16739,9.86886
3626262590,21.78,0.11611675513518273,-0.00958185759344887,-0.002129301687433082,0.0981,1.34397,9.70209
3631313095,21.78,0.10332349171806432,-0.007452555906015787,0.0,0.10791,1.3537800000000002,9.633420000000001
3636363600,21.78,0.08841837990603273,-0.0170518667919846,-0.004258603374866164,0.21582,1.2360600000000002,9.6138
3641414105,21.78,0.0852244273748831,-0.007452555906015787,-0.003193952531149623,0.2943,1.1870100000000001,9.40779
3646464610,21.78,0.09267698328089889,0.0,-0.002129301687433082,0.36297,1.1477700000000002,9.53532
3651515115,21.78,0.08948303074974927,0.012775810124598492,-0.002129301687433082,0.31392000000000003,0.94176,9.56475
3656565620,21.78,0.07990117315630041,0.0170518667919846,-0.002129301687433082,0.05886,0.90252,9.633420000000001
3661616125,21.78,0.09587093581204853,-0.001064650843716541,-0.003193952531149623,0.07848000000000001,1.1772,9.80019
3666666630,21.78,0.10653489754173388,-0.020245819323134222,-0.002129301687433082,0.47088,1.3832099999999998,9.760950000000001
3671717135,21.78,0.09906488834319814,-0.013840460968315033,-0.004258603374866164,0.51993,1.3341600000000002,9.64323
3676767640,21.78,0.09374163412461543,0.003193952531149623,-0.005323254218582705,0.49050000000000005,1.22625,9.60399
3681818145,21.78,0.07990117315630041,0.04581489286485115,-0.004258603374866164,0.25506,1.1281500000000002,9.40779
3686868650,21.78,0.07883652231258387,0.04794419455228423,0.0,-0.0981,1.15758,9.5157
3691919155,21.78,0.08735372906231618,0.012775810124598492,0.0,-0.26487,1.1183400000000001,9.60399
3696969660,21.78,0.07670722062515077,0.0,-0.001064650843716541,-0.14715,1.03986,9.67266
3702020165,21.78,0.07243116395776468,0.002129301687433082,-0.001064650843716541,0.0,1.06929,9.74133
3707070670,21.78,0.10012953918691468,-0.004258603374866164,0.0,0.019620000000000002,1.3832099999999998,9.87867
3712121175,21.78,0.10438814256178083,-0.003193952531149623,-0.005323254218582705,0.0,1.4813100000000001,9.80019
3717171680,21.78,0.07456046564519776,-0.004258603374866164,0.0,0.02943,1.26549,9.70209
3722222185,21.78,0.06178465552059926,-0.007452555906015787,0.0,0.0981,1.05948,9.64323
3727272690,21.78,0.06284930636431581,-0.006387905062299246,-0.001064650843716541,0.15696000000000002,0.9319500000000001,9.47646
3732323195,21.78,0.0756251164889143,0.0170518667919846,-0.001064650843716541,0.08829,1.16739,9.42741
3737373700,21.78,0.09800023749948161,0.01811651763570114,-0.002129301687433082,-0.039240000000000004,1.5696,9.6138
3742424205,21.78,0.09693558665576507,-0.007452555906015787,-0.001064650843716541,-0.0981,1.58922,9.67266
3747474710,21.78,0.05752605214573309,-0.01918116847941768,-0.001064650843716541,0.0981,1.2753,9.623610000000001
3752525215,21.78,0.04794419455228423,-0.04260348704118158,0.0,0.26487,1.08891,9.66285
3757575720,21.78,0.05752605214573309,-0.046879543708567686,-0.001064650843716541,0.65727,0.9810000000000001,9.496080000000001
3762626225,21.78,0.06178465552059926,-0.012775810124598492,0.0,0.7749900000000001,1.04967,9.38817
3767676730,21.78,0.08415977653116657,0.006387905062299246,-0.003193952531149623,0.5493600000000001,1.44207,9.42741
3772727235,21.78,0.09374163412461543,0.01918116847941768,-0.002129301687433082,0.5591700000000001,1.6480800000000002,9.4176
3777777740,21.78,0.07349581480148122,0.02769837522915001,-0.002129301687433082,0.3924,1.51074,9.45684
3782828245,21.78,0.05220279792715039,0.02663372438543347,-0.003193952531149623,0.23544,1.16739,9.6138
3787878750,21.78,0.04153883619746504,0.02663372438543347,0.0,0.10791,0.9221400000000001,9.55494
3792929255,21.78,0.04794419455228423,0.01918116847941768,-0.002129301687433082,-0.05886,1.03005,9.57456
3797979760,21.78,0.07777187146886733,-0.014905111812031574,-0.003193952531149623,-0.009810000000000001,1.55979,9.623610000000001
3803030265,21.78,0.08096582400001695,-0.01918116847941768,-0.003193952531149623,0.37278,1.71675,9.38817
3808080770,21.78,0.046879543708567686,0.006387905062299246,0.0,0.33354000000000006,1.3341600000000002,9.3195
3813131275,21.78,0.03515093113516579,0.02769837522915001,-0.001064650843716541,0.06867000000000001,1.0987200000000001,9.53532
3818181780,21.78,0.04366813788489812,0.02663372438543347,-0.002129301687433082,-0.11772,1.0791000000000002,9.633420000000001
3823232285,21.78,0.04581489286485115,0.013840460968315033,0.0,-0.12753,1.06929,9.74133
3828282790,21.78,0.05965535383316618,-0.014905111812031574,0.0,-0.07848000000000001,1.2851100000000002,9.89829
3833333295,21.78,0.06391395720803235,-0.03515093113516579,-0.001064650843716541,0.27468000000000004,1.44207,9.73152
3838383800,21.78,0.05220279792715039,-0.01811651763570114,-0.002129301687433082,0.32373,1.3832099999999998,9.57456
3843434305,21.78,0.05113814708343386,0.0,0.0,0.27468000000000004,1.46169,9.60399
3848484810,21.78,0.04366813788489812,0.00958185759344887,-0.003193952531149623,0.20601000000000003,1.3047300000000002,9.54513
3853535315,21.78,0.033021629447732716,0.022375121010567305,0.0,0.039240000000000004,1.1281500000000002,9.59418
3858585820,21.78,0.039409534510031964,0.001064650843716541,-0.001064650843716541,-0.009810000000000001,1.2360600000000002,9.78057
3863636325,21.78,0.05113814708343386,-0.024504422698000388,0.0,0.25506,1.34397,9.7119
3868686830,21.78,0.04366813788489812,-0.03408628029144926,-0.001064650843716541,0.37278,1.2753,9.67266
3873737335,21.78,0.0404741853537485,-0.031956978604016174,-0.001064650843716541,0.5591700000000001,1.3734000000000002,9.623610000000001
3878787840,21.78,0.04794419455228423,-0.014905111812031574,-0.002129301687433082,0.6278400000000001,1.51074,9.40779
3883838345,21.78,0.04260348704118158,0.014905111812031574,0.0,0.6867000000000001,1.45188,9.32931
3888888850,21.78,0.033021629447732716,0.044732788728614664,-0.003193952531149623,0.37278,1.3734000000000002,9.3195
3893939355,21.78,0.02769837522915001,0.05752605214573309,-0.001064650843716541,0.13734000000000002,1.16739,9.33912
3898989860,21.78,0.021310470166850764,0.06923721142661506,-0.001064650843716541,-0.26487,1.1477700000000002,9.42741
3904040365,21.78,0.039409534510031964,0.02982767691658309,-0.001064650843716541,-0.41202000000000005,1.34397,9.72171
3909090870,21.78,0.04794419455228423,0.005323254218582705,-0.001064650843716541,-0.52974,1.45188,9.64323
3914141375,21.78,0.03621558197888234,-0.008517206749732328,-0.001064650843716541,-0.45126,1.60884,9.57456
3919191880,21.78,0.028763026072866547,-0.05113814708343386,0.002129301687433082,-0.25506,1.6382700000000001,9.70209
3924242385,21.78,0.014905111812031574,-0.0852244273748831,0.0,0.28449,1.41264,9.58437
3929292890,21.78,-0.005323254218582705,-0.09267698328089889,0.0,0.69651,0.9613800000000001,9.59418
3934343395,21.78,0.004258603374866164,-0.060720004676882725,-0.001064650843716541,1.01043,0.9221400000000001,9.5157
3939393900,21.78,0.022375121010567305,-0.012775810124598492,-0.002129301687433082,1.34397,1.0791000000000002,9.5157
3944444405,21.78,0.04153883619746504,0.05007349623971732,-0.001064650843716541,1.0987200000000001,1.3832099999999998,9.46665
3949494910,21.78,0.05965535383316618,0.10012953918691468,-0.005323254218582705,0.63765,1.8246600000000002,9.53532
3954545415,21.78,0.04366813788489812,0.1097288500728835,-0.003193952531149623,0.02943,1.69713,9.633420000000001
3959595920,21.78,0.008517206749732328,0.09587093581204853,-0.003193952531149623,-0.5395500000000001,1.29492,9.64323
3964646425,21.78,-0.001064650843716541,0.03408628029144926,0.0,-0.90252,1.13796,9.86886
3969696930,21.78,0.005323254218582705,-0.03089232776029963,0.0,-0.90252,1.1870100000000001,9.69228
3974747435,21.78,0.00958185759344887,-0.08948303074974927,0.001064650843716541,-0.41202000000000005,1.40283,9.66285
3979797940,21.78,0.021310470166850764,-0.12250466019748199,0.001064650843716541,0.37278,1.5696,9.66285
3984848445,21.78,0.012775810124598492,-0.09480628496833199,0.0,0.9221400000000001,1.42245,9.33912
3989898950,21.78,-0.007452555906015787,-0.02556907354171693,0.001064650843716541,1.21644,1.24587,9.33912
3994949455,21.78,0.004258603374866164,0.02556907354171693,-0.002129301687433082,1.03986,1.21644,9.37836
3999999960,21.78,0.00958185759344887,0.08841837990603273,-0.002129301687433082,0.57879,1.16739,9.25083
4005050465,21.78,0.013840460968315033,0.11398745344774965,-0.001064650843716541,-0.28449,1.3537800000000002,9.42741
4010100970,21.78,0.021310470166850764,0.06923721142661506,-0.002129301687433082,-0.51993,1.6775100000000003,9.623610000000001
4015151475,21.78,0.015987215948268057,-0.007452555906015787,0.0,-0.51993,1.71675,9.68247
4020201980,21.78,-0.007452555906015787,-0.05965535383316618,0.001064650843716541,-0.30411,1.49112,9.73152
4025252485,21.78,-0.024504422698000388,-0.09480628496833199,0.0,0.28449,1.20663,9.81
4030302990,21.78,-0.024504422698000388,-0.08309512568745003,0.002129301687433082,0.85347,0.90252,9.623610000000001
4035353495,21.78,-0.0170518667919846,-0.02663372438543347,-0.001064650843716541,1.03005,0.90252,9.54513
4040404000,21.78,0.012775810124598492,0.04366813788489812,-0.002129301687433082,0.86328,1.21644,9.5157
4045454505,21.78,0.024504422698000388,0.10653489754173388,-0.001064650843716541,0.3924,1.5303600000000002,9.44703
4050505010,21.78,0.023439771854283843,0.09906488834319814,-0.001064650843716541,-0.15696000000000002,1.7658,9.73152
4055555515,21.78,0.0170518667919846,0.03621558197888234,0.002129301687433082,-0.64746,1.72656,9.95715
4060606020,21.78,-0.011711159280881954,-0.02769837522915001,0.001064650843716541,-0.56898,1.50093,9.84924
4065656525,21.78,-0.03834488366631542,-0.09587093581204853,0.0,0.0,1.1183400000000001,9.888480000000001
4070707030,21.78,-0.03515093113516579,-0.10332349171806432,0.001064650843716541,0.50031,0.8240400000000001,9.56475
4075757535,21.78,-0.02663372438543347,-0.05113814708343386,0.001064650843716541,0.84366,1.01043,9.27045
4080808040,21.78,0.0,0.003193952531149623,-0.001064650843716541,0.9613800000000001,1.45188,9.13311
4085858545,21.78,0.02556907354171693,0.05326744877086694,-0.001064650843716541,0.74556,1.8639000000000001,9.084060000000001
4090909050,21.78,0.007452555906015787,0.08415977653116657,-0.001064650843716541,0.26487,1.79523,9.29007
4095959555,21.78,-0.022375121010567305,0.08309512568745003,0.001064650843716541,-0.37278,1.4813100000000001,9.496080000000001
4101010060,21.78,-0.0404741853537485,0.023439771854283843,0.002129301687433082,-0.6180300000000001,1.1281500000000002,9.78057
4106060565,21.78,-0.05007349623971732,-0.0404741853537485,0.0,-0.3924,0.9908100000000001,9.64323
4111111070,21.78,-0.03621558197888234,-0.08841837990603273,0.0,0.039240000000000004,1.1772,9.48627
4116161575,21.78,-0.013840460968315033,-0.08841837990603273,0.0,0.64746,1.5990300000000002,9.21159
4121212080,21.78,-0.011711159280881954,-0.04260348704118158,0.0,0.9711900000000001,1.71675,8.99577
4126262585,21.78,-0.020245819323134222,0.03408628029144926,0.003193952531149623,0.75537,1.6480800000000002,9.10368
4131313090,21.78,-0.033021629447732716,0.07136651311404815,0.0,0.36297,1.45188,9.358740000000001
4136363595,21.78,-0.049008845396000776,0.07030186227033158,0.002129301687433082,0.0,1.10853,9.57456
4141414100,21.78,-0.049008845396000776,0.020245819323134222,0.001064650843716541,-0.32373,0.9123300000000001,9.819809999999999
4146464605,21.78,-0.0404741853537485,-0.014905111812031574,0.0,-0.12753,1.0791000000000002,9.80019
4151515110,21.78,-0.03089232776029963,-0.03834488366631542,0.001064650843716541,0.10791,1.39302,9.60399
4156565615,21.78,-0.015987215948268057,-0.05007349623971732,0.001064650843716541,0.36297,1.69713,9.52551
4161616120,21.78,-0.024504422698000388,-0.039409534510031964,0.0,0.5591700000000001,1.7658,9.54513
4166666625,21.78,-0.05007349623971732,0.00958185759344887,0.001064650843716541,0.59841,1.26549,9.46665
4171717130,21.78,-0.06604325889546543,0.05752605214573309,0.001064650843716541,0.27468000000000004,0.9319500000000001,9.72171
4176767635,21.78,-0.049008845396000776,0.060720004676882725,0.002129301687433082,0.02943,0.9319500000000001,9.95715
4181818140,21.78,-0.03621558197888234,0.03089232776029963,0.0,-0.24525000000000002,1.06929,9.97677
4186868645,21.78,-0.02663372438543347,-0.033021629447732716,0.0,-0.25506,1.43226,10.05525
4191919150,21.78,-0.024504422698000388,-0.0756251164889143,0.001064650843716541,0.31392000000000003,1.65789,9.82962
4196969655,21.78,-0.0404741853537485,-0.06178465552059926,0.0,0.6867000000000001,1.46169,9.48627
4202020160,21.78,-0.05965535383316618,0.006387905062299246,0.0,0.71613,1.2360600000000002,9.45684
4207070665,21.78,-0.054332099614583476,0.05752605214573309,0.001064650843716541,0.34335000000000004,1.16739,9.45684
4212121170,21.78,-0.049008845396000776,0.05113814708343386,0.002129301687433082,0.0,1.2360600000000002,9.67266
4217171675,21.78,-0.04260348704118158,0.007452555906015787,0.003193952531149623,-0.15696000000000002,1.34397,9.79038
4222222180,21.78,-0.04366813788489812,-0.03621558197888234,0.002129301687433082,0.05886,1.3243500000000001,9.69228
4227272685,21.78,-0.060720004676882725,-0.046879543708567686,0.003193952531149623,0.27468000000000004,1.16739,9.48627
4232323190,21.78,-0.05859070298944965,-0.02663372438543347,0.0,0.38259000000000004,1.3243500000000001,9.37836
4237373695,21.78,-0.03728023282259888,-0.01064650843716541,0.0,0.41202000000000005,1.6775100000000003,9.26064
4242424200,21.78,-0.05113814708343386,0.002129301687433082,0.0,0.46107000000000004,1.6382700000000001,9.172350000000002
4247474705,21.78,-0.07349581480148122,0.01064650843716541,0.0,0.36297,1.2753,9.2214
4252525210,21.78,-0.08415977653116657,0.02769837522915001,0.001064650843716541,0.12753,0.9810000000000001,9.28026
4257575715,21.78,-0.07990117315630041,0.03621558197888234,0.002129301687433082,-0.05886,0.9319500000000001,9.36855
4262626220,21.78,-0.05539675045830002,0.0170518667919846,0.002129301687433082,-0.13734000000000002,1.2753,9.66285
4267676725,21.78,-0.03515093113516579,-0.01918116847941768,0.001064650843716541,-0.10791,1.65789,9.7119
4272727230,21.78,-0.05646140130201656,-0.05007349623971732,0.002129301687433082,0.20601000000000003,1.6284600000000002,9.56475
4277777735,21.78,-0.08415977653116657,-0.049008845396000776,0.001064650843716541,0.49050000000000005,1.3341600000000002,9.47646
4282828240,21.78,-0.09587093581204853,-0.02663372438543347,0.0,0.71613,0.84366,9.52551
4287878745,21.78,-0.09693558665576507,0.03515093113516579,0.002129301687433082,0.5886,0.73575,9.46665
4292929250,21.78,-0.06178465552059926,0.044732788728614664,0.003193952531149623,0.12753,1.16739,9.770760000000001
4297979755,21.78,-0.028763026072866547,0.023439771854283843,0.0,-0.02943,1.70694,9.84924
4303030260,21.78,-0.054332099614583476,-0.003193952531149623,0.002129301687433082,0.08829,1.6186500000000001,9.819809999999999
4308080765,21.78,-0.08841837990603273,-0.020245819323134222,0.0,0.13734000000000002,1.1772,9.87867
4313131270,21.78,-0.09906488834319814,-0.014905111812031574,0.001064650843716541,0.20601000000000003,0.8240400000000001,9.80019
4318181775,21.78,-0.09374163412461543,-0.004258603374866164,0.0,0.10791,0.8829,9.72171
4323232280,21.78,-0.06710790973918197,-0.007452555906015787,0.001064650843716541,0.22563,1.24587,9.751140000000001
4328282785,21.78,-0.05539675045830002,-0.006387905062299246,0.002129301687433082,0.3924,1.45188,9.68247
4333333290,21.78,-0.07030186227033158,-0.002129301687433082,0.002129301687433082,0.32373,1.40283,9.60399
4338383795,21.78,-0.08735372906231618,0.002129301687433082,0.002129301687433082,0.24525000000000002,1.13796,9.72171
4343434300,21.78,-0.09374163412461543,0.008517206749732328,0.002129301687433082,0.15696000000000002,1.02024,9.72171
4348484805,21.78,-0.08309512568745003,0.003193952531149623,0.002129301687433082,0.0,1.1772,9.68247
4353535310,21.78,-0.06604325889546543,-0.023439771854283843,0.002129301687433082,0.17658,1.3734000000000002,9.69228
4358585815,21.78,-0.07883652231258387,-0.023439771854283843,0.002129301687433082,0.35316,1.34397,9.37836
4363636320,21.78,-0.10545279340549739,0.0,0.002129301687433082,0.3924,1.15758,9.21159
4368686825,21.78,-0.09374163412461543,0.005323254218582705,0.002129301687433082,0.20601000000000003,1.22625,9.29007
4373737330,21.78,-0.08309512568745003,0.012775810124598492,0.003193952531149623,0.22563,1.31454,9.34893
4378787835,21.78,-0.09054768159346581,0.00958185759344887,0.001064650843716541,0.06867000000000001,1.2851100000000002,9.54513
4383838340,21.78,-0.09161233243718235,-0.00958185759344887,0.003193952531149623,0.0981,1.05948,9.72171
4388888845,21.78,-0.1097288500728835,-0.012775810124598492,0.004258603374866164,0.08829,0.9221400000000001,9.60399
4393939350,21.78,-0.11292280260403312,-0.03408628029144926,0.001064650843716541,0.30411,1.02024,9.496080000000001
4398989855,21.78,-0.08628907821859966,-0.04260348704118158,0.002129301687433082,0.5493600000000001,1.31454,9.496080000000001
4404040360,21.78,-0.08096582400001695,-0.006387905062299246,0.001064650843716541,0.6867000000000001,1.42245,9.30969
4409090865,21.78,-0.09267698328089889,0.054332099614583476,0.001064650843716541,0.42183,1.41264,9.29007
4414141370,21.78,-0.10225884087434776,0.060720004676882725,0.005323254218582705,0.05886,1.24587,9.73152
4419191875,21.78,-0.11931070766633237,0.02556907354171693,0.002129301687433082,-0.2943,0.79461,9.79038
4424242380,21.78,-0.12995721610349775,-0.0170518667919846,0.004258603374866164,-0.35316,0.75537,9.92772
4429292885,21.78,-0.10012953918691468,-0.0756251164889143,0.003193952531149623,0.07848000000000001,0.9123300000000001,9.99639
4434343390,21.78,-0.08948303074974927,-0.05859070298944965,0.002129301687433082,0.5886,1.1281500000000002,9.60399
4439393895,21.78,-0.09161233243718235,-0.008517206749732328,0.003193952531149623,0.59841,1.41264,9.56475
4444444400,21.78,-0.08948303074974927,0.007452555906015787,0.001064650843716541,0.6180300000000001,1.50093,9.7119
4449494905,21.78,-0.1097288500728835,0.03089232776029963,0.001064650843716541,0.45126,1.26549,9.54513
4454545410,21.78,-0.1331511686346474,0.02663372438543347,0.002129301687433082,0.20601000000000003,0.8338500000000001,9.65304
4459595915,21.78,-0.13102186694721432,0.011711159280881954,0.003193952531149623,0.009810000000000001,0.52974,9.79038
4464646420,21.78,-0.11931070766633237,0.013840460968315033,0.003193952531149623,-0.06867000000000001,0.79461,9.751140000000001
4469696925,21.78,-0.08203047484373349,-0.0170518667919846,0.001064650843716541,-0.009810000000000001,1.34397,9.86886
4474747430,21.78,-0.06604325889546543,-0.03408628029144926,0.002129301687433082,0.25506,1.68732,9.85905
4479797935,21.78,-0.10759954838545042,-0.02556907354171693,0.002129301687433082,0.3924,1.31454,9.55494
4484848440,21.78,-0.15126768627034853,-0.012775810124598492,0.003193952531149623,0.22563,0.8142300000000001,9.50589
4489898945,21.78,-0.14062117783318315,-0.028763026072866547,0.004258603374866164,0.32373,0.74556,9.57456
4494949450,21.78,-0.1171814059788993,-0.005323254218582705,0.001064650843716541,0.6180300000000001,0.8829,9.42741
4499999955,21.78,-0.10332349171806432,0.024504422698000388,0.003193952531149623,0.50031,1.02024,9.55494
4505050460,21.78,-0.09587093581204853,0.04260348704118158,0.002129301687433082,0.13734000000000002,1.24587,9.67266
4510100965,21.78,-0.11079350091660004,0.01064650843716541,0.001064650843716541,-0.0981,1.31454,9.633420000000001
4515151470,21.78,-0.1278279144160647,-0.04153883619746504,0.002129301687433082,0.07848000000000001,1.19682,9.70209
4520201975,21.78,-0.13208651779093086,-0.05326744877086694,0.003193952531149623,0.42183,0.94176,9.56475
4525252480,21.78,-0.14381513036433274,-0.01064650843716541,0.005323254218582705,0.5886,0.7848,9.36855
4530302985,21.78,-0.12995721610349775,0.020245819323134222,0.004258603374866164,0.36297,0.86328,9.496080000000001
4535353490,21.78,-0.1097288500728835,0.024504422698000388,0.004258603374866164,0.13734000000000002,1.1870100000000001,9.60399
4540403995,21.78,-0.11505210429146619,0.008517206749732328,0.004258603374866164,0.17658,1.21644,9.57456
4545454500,21.78,-0.1331511686346474,-0.001064650843716541,0.005323254218582705,0.10791,0.87309,9.633420000000001
4550505005,21.78,-0.14913838458291545,-0.01064650843716541,0.004258603374866164,0.13734000000000002,0.69651,9.73152
4555555510,21.78,-0.13955652698946658,-0.015987215948268057,0.004258603374866164,0.15696000000000002,0.9221400000000001,9.633420000000001
4560606015,21.78,-0.10545279340549739,-0.02769837522915001,0.0,0.35316,1.46169,9.74133
4565656520,21.78,-0.10119419003063122,-0.033021629447732716,0.002129301687433082,0.70632,1.42245,9.69228
4570707025,21.78,-0.15659094048893124,0.0170518667919846,0.004258603374866164,0.52974,0.71613,9.39798
4575757530,21.78,-0.18216001403064813,0.015987215948268057,0.004258603374866164,0.12753,0.23544,9.770760000000001
4580808035,21.78,-0.14062117783318315,0.001064650843716541,0.004258603374866164,0.05886,0.5395500000000001,9.7119
4585858540,21.78,-0.10332349171806432,-0.006387905062299246,0.002129301687433082,0.21582,1.1477700000000002,9.72171
4590909045,21.78,-0.09693558665576507,-0.003193952531149623,0.003193952531149623,0.33354000000000006,1.52055,9.85905
4595959550,21.78,-0.12037535851004891,0.0,0.003193952531149623,0.33354000000000006,1.3341600000000002,9.78057
4601010055,21.78,-0.15872024217636432,-0.002129301687433082,0.003193952531149623,0.16677000000000003,0.9123300000000001,9.760950000000001
4606060560,21.78,-0.16617279808238014,-0.013840460968315033,0.004258603374866164,0.20601000000000003,0.49050000000000005,9.819809999999999
4611111065,21.78,-0.15978489302008084,-0.008517206749732328,0.004258603374866164,0.22563,0.30411,9.72171
4616161570,21.78,-0.15659094048893124,-0.007452555906015787,0.007452555906015787,0.17658,0.43164,9.65304
4621212075,21.78,-0.1171814059788993,-0.02769837522915001,0.004258603374866164,0.2943,1.1772,9.70209
4626262580,21.78,-0.0852244273748831,-0.024504422698000388,0.003193952531149623,0.6867000000000001,1.78542,9.623610000000001
4631313085,21.78,-0.11611675513518273,0.023439771854283843,0.003193952531149623,0.6180300000000001,1.31454,9.59418
4636363590,21.78,-0.177901410655782,0.05752605214573309,0.004258603374866164,0.009810000000000001,0.43164,9.82962
4641414095,21.78,-0.19921188082263275,0.033021629447732716,0.003193952531149623,-0.38259000000000004,0.039240000000000004,9.96696
4646464600,21.78,-0.16404349639494703,-0.04260348704118158,0.006387905062299246,-0.20601000000000003,0.51012,9.80019
4651515105,21.78,-0.10438814256178083,-0.09161233243718235,0.002129301687433082,0.3924,1.3047300000000002,9.59418
4656565610,21.78,-0.10438814256178083,-0.054332099614583476,0.002129301687433082,0.94176,1.3635900000000003,9.30969
4661616115,21.78,-0.16084954386379738,0.05007349623971732,0.005323254218582705,0.69651,0.9908100000000001,9.182160000000001
4666666620,21.78,-0.16938420390604966,0.05539675045830002,0.002129301687433082,0.13734000000000002,0.8338500000000001,9.770760000000001
4671717125,21.78,-0.1480737337391989,0.003193952531149623,0.004258603374866164,-0.02943,0.7848,9.92772
4676767630,21.78,-0.16938420390604966,-0.02982767691658309,0.005323254218582705,0.12753,0.38259000000000004,9.81
4681818135,21.78,-0.18109536318693162,-0.046879543708567686,0.005323254218582705,0.40221,0.22563,9.80019
4686868640,21.78,-0.14487978120804929,-0.03515093113516579,0.005323254218582705,0.69651,0.6867000000000001,9.55494
4691919145,21.78,-0.10438814256178083,0.021310470166850764,0.004258603374866164,0.51993,1.46169,9.34893
4696969650,21.78,-0.11079350091660004,0.039409534510031964,0.004258603374866164,0.37278,1.6382700000000001,9.70209
4702020155,21.78,-0.17364280728091586,0.02663372438543347,0.004258603374866164,0.13734000000000002,0.85347,9.751140000000001
4707070660,21.78,-0.2183755960095305,-0.01064650843716541,0.005323254218582705,-0.0981,0.039240000000000004,9.78057
4712121165,21.78,-0.19600047499896323,-0.03834488366631542,0.006387905062299246,0.12753,0.05886,9.87867
4717171670,21.78,-0.1374272253020335,-0.02556907354171693,0.002129301687433082,0.46107000000000004,0.56898,9.74133
4722222175,21.78,-0.11505210429146619,0.004258603374866164,0.003193952531149623,0.32373,1.02024,9.74133
4727272680,21.78,-0.13421581947836395,0.004258603374866164,0.004258603374866164,0.24525000000000002,1.2360600000000002,9.937529999999999
4732323185,21.78,-0.15446163880149816,-0.003193952531149623,0.004258603374866164,0.21582,1.13796,9.65304
4737373690,21.78,-0.177901410655782,-0.023439771854283843,0.006387905062299246,0.33354000000000006,0.69651,9.751140000000001
4742424195,21.78,-0.19600047499896323,-0.021310470166850764,0.003193952531149623,0.46107000000000004,0.08829,9.770760000000001
4747474700,21.78,-0.19708257913519966,0.008517206749732328,0.006387905062299246,0.41202000000000005,-0.15696000000000002,9.760950000000001
4752525205,21.78,-0.15446163880149816,0.012775810124598492,0.007452555906015787,0.11772,0.51993,9.83943
4757575710,21.78,-0.09054768159346581,-0.011711159280881954,0.003193952531149623,0.1962,1.50093,9.937529999999999
4762626215,21.78,-0.11611675513518273,-0.021310470166850764,0.003193952531149623,0.52974,1.40283,9.81
4767676720,21.78,-0.19921188082263275,0.0,0.006387905062299246,0.50031,0.46107000000000004,9.69228
4772727225,21.78,-0.21944024685324706,0.012775810124598492,0.005323254218582705,0.22563,0.0,9.7119
4777777730,21.78,-0.16831955306233315,0.005323254218582705,0.005323254218582705,0.02943,0.42183,9.633420000000001
4782828235,21.78,-0.1331511686346474,-0.01064650843716541,0.004258603374866164,0.18639,0.8142300000000001,9.70209
4787878740,21.78,-0.14487978120804929,-0.02556907354171693,0.004258603374866164,0.38259000000000004,0.70632,9.82962
4792929245,21.78,-0.1757721089683489,-0.005323254218582705,0.004258603374866164,0.38259000000000004,0.51993,9.65304
4797979750,21.78,-0.17257815643719931,0.0,0.005323254218582705,0.21582,0.60822,9.72171
4803030255,21.78,-0.150203035426632,-0.00958185759344887,0.002129301687433082,0.1962,0.8338500000000001,9.86886
4808080760,21.78,-0.16617279808238014,-0.014905111812031574,0.003193952531149623,0.44145,0.72594,9.74133
4813131265,21.78,-0.18748326824923087,-0.011711159280881954,0.005323254218582705,0.51012,0.33354000000000006,9.7119
4818181770,21.78,-0.17896606149949854,0.004258603374866164,0.004258603374866164,0.34335000000000004,0.35316,9.633420000000001
4823232275,21.78,-0.1629788455512305,0.005323254218582705,0.005323254218582705,0.13734000000000002,0.57879,9.633420000000001
4828282780,21.78,-0.15978489302008084,-0.011711159280881954,0.004258603374866164,0.17658,0.6670800000000001,9.70209
4833333285,21.78,-0.1672549022186166,-0.033021629447732716,0.002129301687433082,0.49050000000000005,0.6180300000000001,9.81
4838383790,21.78,-0.1757721089683489,-0.01064650843716541,0.005323254218582705,0.51012,0.51012,9.70209
4843434295,21.78,-0.16831955306233315,0.006387905062299246,0.004258603374866164,0.41202000000000005,0.47088,9.83943
4848484800,21.78,-0.16831955306233315,0.01811651763570114,0.006387905062299246,0.30411,0.45126,9.94734
4853535305,21.78,-0.177901410655782,0.01064650843716541,0.007452555906015787,0.1962,0.28449,9.85905
4858585810,21.78,-0.18216001403064813,-0.008517206749732328,0.005323254218582705,0.0981,0.42183,9.81
4863636315,21.78,-0.15765559133264778,-0.046879543708567686,0.005323254218582705,0.22563,0.74556,9.751140000000001
4868686820,21.78,-0.15978489302008084,-0.044732788728614664,0.004258603374866164,0.69651,0.75537,9.623610000000001
4873737325,21.78,-0.18428931571808121,-0.002129301687433082,0.005323254218582705,0.8142300000000001,0.28449,9.79038
4878787830,21.78,-0.19600047499896323,0.039409534510031964,0.006387905062299246,0.38259000000000004,0.05886,9.91791
4883838335,21.78,-0.17257815643719931,0.028763026072866547,0.004258603374866164,0.019620000000000002,0.30411,9.98658
4888888840,21.78,-0.15233233711406508,-0.01811651763570114,0.002129301687433082,0.17658,0.60822,9.98658
4893939345,21.78,-0.15126768627034853,-0.02769837522915001,0.004258603374866164,0.38259000000000004,0.60822,9.79038
4898989850,21.78,-0.17470745812463237,0.005323254218582705,0.008517206749732328,0.34335000000000004,0.46107000000000004,9.60399
4904040355,21.78,-0.1832246648743647,0.03089232776029963,0.004258603374866164,0.02943,0.3924,9.770760000000001
4909090860,21.78,-0.17151350559348277,-0.006387905062299246,0.003193952531149623,-0.1962,0.50031,9.86886
4914141365,21.78,-0.18109536318693162,-0.060720004676882725,0.004258603374866164,0.14715,0.47088,9.908100000000001
4919191870,21.78,-0.19280652246781357,-0.07670722062515077,0.005323254218582705,0.73575,0.0981,9.83943
4924242375,21.78,-0.18961256993666398,-0.022375121010567305,0.004258603374866164,0.9221400000000001,-0.039240000000000004,9.72171
4929292880,21.78,-0.16938420390604966,0.021310470166850764,0.006387905062299246,0.60822,0.2943,9.68247
4934343385,21.78,-0.1416858286768997,0.02663372438543347,0.005323254218582705,0.25506,0.89271,9.760950000000001
4939393890,21.78,-0.14275047952061623,-0.001064650843716541,0.005323254218582705,0.46107000000000004,0.94176,9.81
4944444395,21.78,-0.18748326824923087,0.0,0.005323254218582705,0.34335000000000004,0.30411,9.633420000000001
4949494900,21.78,-0.2236988502281132,0.008517206749732328,0.005323254218582705,0.20601000000000003,-0.26487,9.79038
4954545405,21.78,-0.20666443672864854,0.003193952531149623,0.006387905062299246,0.039240000000000004,-0.20601000000000003,9.85905
4959595910,21.78,-0.15659094048893124,-0.007452555906015787,0.004258603374866164,0.17658,0.34335000000000004,9.85905
4964646415,21.78,-0.13849187614575004,-0.021310470166850764,0.005323254218582705,0.31392000000000003,0.8142300000000001,9.95715
4969696920,21.78,-0.1555262896452147,-0.00958185759344887,0.003193952531149623,0.41202000000000005,0.6867000000000001,9.80019
4974747425,21.78,-0.19600047499896323,0.00958185759344887,0.005323254218582705,0.22563,0.2943,9.760950000000001
4979797930,21.78,-0.20347048419749894,0.004258603374866164,0.005323254218582705,0.15696000000000002,0.019620000000000002,9.85905
4984848435,21.78,-0.18641861740551433,-0.015987215948268057,0.006387905062299246,0.07848000000000001,0.15696000000000002,9.87867
4989898940,21.78,-0.17364280728091586,-0.046879543708567686,0.006387905062299246,0.21582,0.17658,9.86886
4994949445,21.78,-0.18641861740551433,-0.05326744877086694,0.006387905062299246,0.6768900000000001,0.10791,9.888480000000001
4999999950,21.78,-0.1832246648743647,-0.03515093113516579,0.005323254218582705,0.89271,0.14715,9.81
5005050455,21.78,-0.1672549022186166,-0.011711159280881954,0.005323254218582705,0.9613800000000001,0.2943,9.87867
5010100960,21.78,-0.15872024217636432,0.022375121010567305,0.003193952531149623,0.79461,0.47088,9.82962
5015151465,21.78,-0.17364280728091586,0.05220279792715039,0.003193952531149623,0.47088,0.32373,9.84924
5020201970,21.78,-0.18641861740551433,0.033021629447732716,0.006387905062299246,0.1962,0.11772,9.937529999999999
5025252475,21.78,-0.18535396656179778,0.020245819323134222,0.005323254218582705,0.06867000000000001,0.009810000000000001,9.908100000000001
5030302980,21.78,-0.1800307123432151,0.012775810124598492,0.004258603374866164,-0.13734000000000002,0.009810000000000001,9.91791
5035353485,21.78,-0.18216001403064813,-0.012775810124598492,0.006387905062299246,-0.039240000000000004,0.14715,9.937529999999999
5040403990,21.78,-0.17470745812463237,-0.05220279792715039,0.005323254218582705,0.15696000000000002,0.28449,10.01601
5045454495,21.78,-0.1672549022186166,-0.05752605214573309,0.005323254218582705,0.48069000000000006,0.41202000000000005,9.86886
5050505000,21.78,-0.17364280728091586,-0.02663372438543347,0.006387905062299246,0.75537,0.23544,9.84924
5055555505,21.78,-0.19174187162409706,0.012775810124598492,0.005323254218582705,0.59841,-0.18639,9.888480000000001
5060606010,21.78,-0.19708257913519966,0.03621558197888234,0.006387905062299246,0.17658,-0.23544,9.87867
5065656515,21.78,-0.1757721089683489,0.003193952531149623,0.005323254218582705,-0.009810000000000001,0.15696000000000002,9.83943
5070707020,21.78,-0.14913838458291545,-0.049008845396000776,0.004258603374866164,0.43164,0.60822,9.888480000000001
5075757525,21.78,-0.15872024217636432,-0.0404741853537485,0.005323254218582705,0.73575,0.38259000000000004,9.69228
5080808030,21.78,-0.20134118251006583,0.012775810124598492,0.006387905062299246,0.6670800000000001,-0.20601000000000003,9.81
5085858535,21.78,-0.20879373841608162,0.033021629447732716,0.008517206749732328,0.23544,-0.33354000000000006,9.98658
5090909040,21.78,-0.16617279808238014,-0.013840460968315033,0.004258603374866164,0.08829,0.18639,10.01601
5095959545,21.78,-0.14913838458291545,-0.05007349623971732,0.003193952531149623,0.5493600000000001,0.38259000000000004,9.937529999999999
5101010050,21.78,-0.17683675981206545,-0.01811651763570114,0.004258603374866164,0.85347,0.04905,9.66285
5106060555,21.78,-0.19600047499896323,0.04153883619746504,0.007452555906015787,0.37278,-0.11772,9.54513
5111111060,21.78,-0.17896606149949854,0.04153883619746504,0.005323254218582705,0.07848000000000001,0.12753,9.86886
5116161565,21.78,-0.15659094048893124,0.003193952531149623,0.003193952531149623,0.05886,0.41202000000000005,10.05525
5121212070,21.78,-0.16938420390604966,-0.04260348704118158,0.003193952531149623,0.16677000000000003,0.11772,10.045440000000001
5126262575,21.78,-0.2130523417909478,-0.05752605214573309,0.007452555906015787,0.5591700000000001,-0.50031,9.95715
5131313080,21.78,-0.2130523417909478,-0.028763026072866547,0.006387905062299246,0.6768900000000001,-0.57879,9.760950000000001
5136363585,21.78,-0.15126768627034853,-0.006387905062299246,0.003193952531149623,0.52974,0.13734000000000002,9.86886
5141414090,21.78,-0.12250466019748199,0.00958185759344887,0.004258603374866164,0.6670800000000001,0.6180300000000001,9.908100000000001
5146464595,21.78,-0.16191419470751395,0.04260348704118158,0.004258603374866164,0.41202000000000005,0.26487,9.84924
5151515100,21.78,-0.20559978588493202,0.028763026072866547,0.005323254218582705,0.02943,-0.2943,9.94734
5156565605,21.78,-0.20559978588493202,-0.01064650843716541,0.006387905062299246,-0.11772,-0.3924,9.97677
5161616110,21.78,-0.17257815643719931,-0.04366813788489812,0.004258603374866164,0.18639,-0.13734000000000002,10.006200000000002
5166666615,21.78,-0.1555262896452147,-0.05007349623971732,0.004258603374866164,0.52974,-0.009810000000000001,9.99639
5171717120,21.78,-0.16831955306233315,-0.015987215948268057,0.006387905062299246,0.6867000000000001,-0.10791,9.95715
5176767625,21.78,-0.17364280728091586,0.004258603374866164,0.004258603374866164,0.42183,0.04905,9.91791
5181818130,21.78,-0.1629788455512305,-0.022375121010567305,0.002129301687433082,0.43164,0.17658,10.01601
5186868635,21.78,-0.1757721089683489,-0.024504422698000388,0.001064650843716541,0.8142300000000001,-0.019620000000000002,9.85905
5191919140,21.78,-0.19493582415524666,0.006387905062299246,0.006387905062299246,0.90252,-0.48069000000000006,9.78057
5196969645,21.78,-0.18854791909294744,0.03408628029144926,0.007452555906015787,0.36297,-0.47088,9.84924
5202020150,21.78,-0.15233233711406508,0.03089232776029963,0.005323254218582705,0.15696000000000002,0.039240000000000004,9.99639
5207070655,21.78,-0.13634512116579703,0.00958185759344887,0.003193952531149623,0.11772,0.30411,10.03563
5212121160,21.78,-0.16510814723866357,-0.023439771854283843,0.004258603374866164,0.26487,0.0,10.05525
5217171665,21.78,-0.19708257913519966,-0.02663372438543347,0.007452555906015787,0.28449,-0.34335000000000004,9.91791
5222222170,21.78,-0.18109536318693162,-0.033021629447732716,0.004258603374866164,0.33354000000000006,-0.28449,9.83943
5227272675,21.78,-0.15765559133264778,-0.03089232776029963,0.003193952531149623,0.5886,-0.0981,9.85905
5232323180,21.78,-0.1629788455512305,-0.011711159280881954,0.005323254218582705,0.69651,-0.20601000000000003,9.87867
5237373685,21.78,-0.177901410655782,0.008517206749732328,0.005323254218582705,0.57879,-0.38259000000000004,9.888480000000001
5242424190,21.78,-0.1704488547497662,0.012775810124598492,0.005323254218582705,0.34335000000000004,-0.23544,9.96696
5247474695,21.78,-0.15233233711406508,-0.007452555906015787,0.004258603374866164,0.35316,0.0,9.98658
5252525200,21.78,-0.15659094048893124,-0.014905111812031574,0.004258603374866164,0.51993,-0.009810000000000001,9.937529999999999
5257575705,21.78,-0.17151350559348277,-0.003193952531149623,0.004258603374866164,0.59841,-0.28449,9.91791
5262626210,21.78,-0.1832246648743647,0.02982767691658309,0.004258603374866164,0.40221,-0.42183,9.84924
5267676715,21.78,-0.16084954386379738,0.020245819323134222,0.003193952531149623,0.009810000000000001,-0.14715,9.98658
5272727220,21.78,-0.14700908289548237,-0.03408628029144926,0.004258603374866164,0.11772,-0.06867000000000001,10.06506
5277777725,21.78,-0.1704488547497662,-0.049008845396000776,0.005323254218582705,0.38259000000000004,-0.32373,9.888480000000001
5282828230,21.78,-0.18748326824923087,-0.0404741853537485,0.005323254218582705,0.63765,-0.47088,9.91791
5287878735,21.78,-0.16404349639494703,-0.02663372438543347,0.003193952531149623,0.89271,-0.33354000000000006,9.937529999999999
5292929240,21.78,-0.14275047952061623,0.014905111812031574,0.003193952531149623,0.8240400000000001,-0.23544,9.91791
5297979745,21.78,-0.15126768627034853,0.04260348704118158,0.006387905062299246,0.44145,-0.26487,10.03563
5303030250,21.78,-0.16617279808238014,0.01918116847941768,0.003193952531149623,0.15696000000000002,-0.22563,10.03563
5308080755,21.78,-0.1672549022186166,-0.03089232776029963,0.005323254218582705,0.36297,-0.27468000000000004,9.99639
5313131260,21.78,-0.15872024217636432,-0.0404741853537485,0.004258603374866164,0.56898,-0.26487,9.82962
5318181765,21.78,-0.15446163880149816,-0.004258603374866164,0.004258603374866164,0.59841,-0.28449,9.81
5323232270,21.78,-0.1629788455512305,0.039409534510031964,0.007452555906015787,0.48069000000000006,-0.51993,9.96696
5328282775,21.78,-0.1629788455512305,0.04581489286485115,0.005323254218582705,-0.05886,-0.49050000000000005,10.17297
5333333280,21.78,-0.14594443205176583,-0.024504422698000388,0.002129301687433082,-0.20601000000000003,-0.06867000000000001,10.19259
5338383785,21.78,-0.1480737337391989,-0.07777187146886733,0.003193952531149623,0.60822,-0.0981,10.03563
5343434290,21.78,-0.17151350559348277,-0.05113814708343386,0.005323254218582705,1.06929,-0.5591700000000001,9.819809999999999
5348484795,21.78,-0.16938420390604966,0.003193952531149623,0.005323254218582705,0.73575,-0.73575,9.81
5353535300,21.78,-0.14913838458291545,0.039409534510031964,0.005323254218582705,0.50031,-0.38259000000000004,9.97677
5358585805,21.78,-0.12676326357234816,0.03515093113516579,0.002129301687433082,0.24525000000000002,-0.07848000000000001,10.025820000000001
5363636310,21.78,-0.1416858286768997,-0.01064650843716541,0.003193952531149623,0.22563,-0.21582,10.11411
5368686815,21.78,-0.1757721089683489,-0.028763026072866547,0.003193952531149623,0.42183,-0.56898,9.908100000000001
5373737320,21.78,-0.17364280728091586,-0.014905111812031574,0.004258603374866164,0.5395500000000001,-0.6180300000000001,9.87867
5378787825,21.78,-0.13849187614575004,-0.012775810124598492,0.004258603374866164,0.50031,-0.36297,9.95715
5383838330,21.78,-0.12569861272863161,-0.005323254218582705,0.004258603374866164,0.47088,-0.17658,9.99639
5388888835,21.78,-0.14913838458291545,-0.006387905062299246,0.005323254218582705,0.37278,-0.32373,10.074869999999999
5393939340,21.78,-0.16831955306233315,-0.012775810124598492,0.003193952531149623,0.56898,-0.63765,9.97677
5398989845,21.78,-0.16510814723866357,-0.008517206749732328,0.004258603374866164,0.57879,-0.72594,9.91791
5404040350,21.78,-0.14062117783318315,0.0,0.003193952531149623,0.45126,-0.5591700000000001,9.908100000000001
5409090855,21.78,-0.13208651779093086,0.01811651763570114,0.005323254218582705,0.42183,-0.31392000000000003,9.96696
5414141360,21.78,-0.12995721610349775,0.013840460968315033,0.004258603374866164,0.28449,-0.15696000000000002,10.08468
5419191865,21.78,-0.13421581947836395,-0.02769837522915001,0.004258603374866164,0.2943,-0.13734000000000002,10.163160000000001
5424242370,21.78,-0.15339698795778162,-0.049008845396000776,0.005323254218582705,0.60822,-0.51993,10.06506
5429292875,21.78,-0.1757721089683489,-0.03408628029144926,0.006387905062299246,0.8338500000000001,-0.9711900000000001,9.96696
5434343380,21.78,-0.16510814723866357,-0.004258603374866164,0.002129301687433082,0.79461,-1.00062,9.91791
5439393885,21.78,-0.13208651779093086,0.0170518667919846,0.003193952531149623,0.6278400000000001,-0.56898,9.97677
5444444390,21.78,-0.10012953918691468,0.020245819323134222,0.002129301687433082,0.5493600000000001,0.0,9.94734
5449494895,21.78,-0.11079350091660004,0.031956978604016174,0.003193952531149623,0.41202000000000005,-0.0981,9.96696
5454545400,21.78,-0.1555262896452147,0.02556907354171693,0.002129301687433082,0.17658,-0.5493600000000001,10.163160000000001
5459595905,21.78,-0.16938420390604966,-0.008517206749732328,0.007452555906015787,0.04905,-0.89271,10.17297
5464646410,21.78,-0.14913838458291545,-0.0404741853537485,0.005323254218582705,0.22563,-0.75537,10.17297
5469696915,21.78,-0.12463396188491506,-0.07670722062515077,0.001064650843716541,0.60822,-0.52974,10.1043
5474747420,21.78,-0.12569861272863161,-0.06817256058289851,0.003193952531149623,1.03005,-0.40221,9.85905
5479797925,21.78,-0.13102186694721432,-0.02982767691658309,0.002129301687433082,1.34397,-0.44145,9.770760000000001
5484848430,21.78,-0.13102186694721432,0.04794419455228423,0.003193952531149623,1.15758,-0.50031,9.60399
5489898935,21.78,-0.13102186694721432,0.08841837990603273,0.004258603374866164,0.6670800000000001,-0.60822,9.888480000000001
5494949440,21.78,-0.12569861272863161,0.08948303074974927,0.002129301687433082,-0.039240000000000004,-0.69651,10.025820000000001
5499999945,21.78,-0.12250466019748199,0.06604325889546543,0.002129301687433082,-0.48069000000000006,-0.60822,10.09449
5505050450,21.78,-0.12569861272863161,0.001064650843716541,0.005323254218582705,-0.60822,-0.38259000000000004,10.19259
5510100955,21.78,-0.12144000935376545,-0.09054768159346581,0.005323254218582705,-0.24525000000000002,-0.32373,10.143540000000002
5515151460,21.78,-0.1352804703220805,-0.1171814059788993,0.007452555906015787,0.44145,-0.43164,10.01601
5520201965,21.78,-0.14913838458291545,-0.10866419922916695,0.007452555906015787,1.1477700000000002,-0.74556,10.01601
5525252470,21.78,-0.1480737337391989,-0.07349581480148122,0.005323254218582705,1.51074,-0.8829,9.91791
5530302975,21.78,-0.12676326357234816,-0.03408628029144926,0.004258603374866164,1.5794100000000002,-0.8142300000000001,9.937529999999999
5535353480,21.78,-0.11824605682261582,0.03515093113516579,0.003193952531149623,1.51074,-0.7651800000000001,9.82962
5540403985,21.78,-0.10866419922916695,0.08415977653116657,0.003193952531149623,1.02024,-0.64746,9.95715
5545454490,21.78,-0.09587093581204853,0.10438814256178083,0.004258603374866164,0.51993,-0.50031,10.09449
5550504995,21.78,-0.10119419003063122,0.10119419003063122,0.002129301687433082,0.0,-0.41202000000000005,10.2024
5555555500,21.78,-0.10759954838545042,0.054332099614583476,0.003193952531149623,-0.56898,-0.45126,10.32993
5560606005,21.78,-0.12356931104119852,-0.013840460968315033,0.002129301687433082,-0.59841,-0.6278400000000001,10.33974
5565656510,21.78,-0.1352804703220805,-0.05752605214573309,0.003193952531149623,-0.26487,-0.84366,10.163160000000001
5570707015,21.78,-0.1331511686346474,-0.07883652231258387,0.005323254218582705,0.14715,-0.84366,10.08468
5575757520,21.78,-0.10653489754173388,-0.07883652231258387,0.003193952531149623,0.56898,-0.63765,10.045440000000001
5580808025,21.78,-0.10225884087434776,-0.05752605214573309,0.004258603374866164,0.9221400000000001,-0.5886,10.006200000000002
5585858530,21.78,-0.10545279340549739,-0.01918116847941768,0.003193952531149623,1.00062,-0.6867000000000001,9.92772
5590909035,21.78,-0.11611675513518273,0.012775810124598492,0.001064650843716541,0.86328,-0.80442,9.95715
5595959540,21.78,-0.1097288500728835,0.0170518667919846,0.001064650843716541,0.6768900000000001,-0.70632,9.937529999999999
5601010045,21.78,-0.09374163412461543,0.013840460968315033,0.001064650843716541,0.70632,-0.5591700000000001,9.92772
5606060550,21.78,-0.09693558665576507,0.03089232776029963,0.002129301687433082,0.5493600000000001,-0.6867000000000001,9.937529999999999
5611111055,21.78,-0.10866419922916695,0.03834488366631542,0.003193952531149623,0.13734000000000002,-0.72594,9.937529999999999
5616161560,21.78,-0.10332349171806432,0.013840460968315033,0.004258603374866164,0.02943,-0.6867000000000001,10.11411
5621212065,21.78,-0.10653489754173388,-0.015987215948268057,0.002129301687433082,0.15696000000000002,-0.6867000000000001,10.09449
5626262570,21.78,-0.10225884087434776,-0.044732788728614664,0.004258603374866164,0.32373,-0.6768900000000001,10.1043
5631313075,21.78,-0.10332349171806432,-0.05752605214573309,0.001064650843716541,0.75537,-0.72594,10.09449
5636363580,21.78,-0.10225884087434776,-0.023439771854283843,0.004258603374866164,0.87309,-0.8142300000000001,9.937529999999999
5641414085,21.78,-0.09587093581204853,0.013840460968315033,0.003193952531149623,0.6670800000000001,-0.7651800000000001,9.94734
5646464590,21.78,-0.08948303074974927,0.024504422698000388,0.002129301687433082,0.52974,-0.6670800000000001,10.01601
5651515095,21.78,-0.09480628496833199,0.022375121010567305,0.003193952531149623,0.46107000000000004,-0.7848,10.01601
5656565600,21.78,-0.09693558665576507,0.0170518667919846,0.002129301687433082,0.26487,-0.7848,10.025820000000001
5661616105,21.78,-0.08735372906231618,0.006387905062299246,0.003193952531149623,0.13734000000000002,-0.70632,10.045440000000001
5666666610,21.78,-0.08415977653116657,-0.001064650843716541,0.002129301687433082,0.17658,-0.69651,10.15335
5671717115,21.78,-0.09267698328089889,-0.007452555906015787,0.002129301687433082,0.21582,-0.74556,10.163160000000001
5676767620,21.78,-0.09267698328089889,-0.02982767691658309,0.003193952531149623,0.30411,-0.7749900000000001,10.15335
5681818125,21.78,-0.09054768159346581,-0.039409534510031964,0.002129301687433082,0.47088,-0.7749900000000001,10.01601
5686868630,21.78,-0.09161233243718235,-0.028763026072866547,0.002129301687433082,0.75537,-0.87309,9.96696
5691919135,21.78,-0.08948303074974927,0.003193952531149623,0.003193952531149623,0.73575,-0.85347,9.96696
5696969640,21.78,-0.07243116395776468,0.012775810124598492,0.002129301687433082,0.52974,-0.64746,10.01601
5702020145,21.78,-0.06923721142661506,0.001064650843716541,0.002129301687433082,0.45126,-0.5591700000000001,10.11411
5707070650,21.78,-0.07990117315630041,-0.006387905062299246,0.001064650843716541,0.50031,-0.7749900000000001,10.074869999999999
5712121155,21.78,-0.10119419003063122,-0.0170518667919846,0.002129301687433082,0.56898,-0.9711900000000001,10.025820000000001
5717171660,21.78,-0.09161233243718235,-0.021310470166850764,0.001064650843716541,0.69651,-0.95157,9.99639
5722222165,21.78,-0.0756251164889143,-0.015987215948268057,0.003193952531149623,0.7749900000000001,-0.80442,9.92772
5727272670,21.78,-0.06710790973918197,-0.00958185759344887,0.002129301687433082,0.8142300000000001,-0.6278400000000001,9.91791
5732323175,21.78,-0.06817256058289851,-0.003193952531149623,0.0,0.84366,-0.57879,9.89829
5737373680,21.78,-0.07883652231258387,0.015987215948268057,0.001064650843716541,0.85347,-0.8829,9.94734
5742424185,21.78,-0.09587093581204853,0.033021629447732716,0.0,0.64746,-1.26549,10.09449
5747474690,21.78,-0.08309512568745003,0.044732788728614664,0.001064650843716541,0.36297,-1.1772,10.163160000000001
5752525195,21.78,-0.05007349623971732,0.03408628029144926,0.0,0.20601000000000003,-0.8240400000000001,10.280880000000002
5757575700,21.78,-0.04153883619746504,0.02663372438543347,0.0,0.12753,-0.60822,10.26126
5762626205,21.78,-0.05007349623971732,0.01064650843716541,0.0,-0.05886,-0.56898,10.22202
5767676710,21.78,-0.06817256058289851,-0.005323254218582705,0.002129301687433082,-0.0981,-0.7749900000000001,10.19259
5772727215,21.78,-0.08309512568745003,-0.011711159280881954,0.002129301687433082,0.05886,-1.0791000000000002,10.19259
5777777720,21.78,-0.07670722062515077,-0.02769837522915001,0.003193952531149623,-0.009810000000000001,-1.1183400000000001,10.15335
5782828225,21.78,-0.060720004676882725,-0.05646140130201656,0.003193952531149623,0.24525000000000002,-0.8829,10.26126
5787878730,21.78,-0.049008845396000776,-0.049008845396000776,0.0,0.74556,-0.73575,10.045440000000001
5792929235,21.78,-0.05007349623971732,-0.03089232776029963,0.0,0.8829,-0.65727,10.01601
5797979740,21.78,-0.054332099614583476,-0.02663372438543347,0.003193952531149623,0.89271,-0.7749900000000001,10.074869999999999
5803030245,21.78,-0.06391395720803235,-0.007452555906015787,0.001064650843716541,1.08891,-0.90252,10.006200000000002
5808080750,21.78,-0.05646140130201656,0.014905111812031574,0.0,0.9613800000000001,-0.95157,9.92772
5813131255,21.78,-0.05220279792715039,0.01918116847941768,0.0,0.73575,-0.9908100000000001,9.94734
5818181760,21.78,-0.04366813788489812,0.01811651763570114,0.0,0.5591700000000001,-0.8142300000000001,9.94734
5823232265,21.78,-0.03834488366631542,0.014905111812031574,0.001064650843716541,0.45126,-0.70632,9.91791
5828282770,21.78,-0.0404741853537485,0.01064650843716541,0.001064650843716541,0.46107000000000004,-0.73575,10.01601
5833333275,21.78,-0.04581489286485115,0.008517206749732328,0.001064650843716541,0.40221,-0.86328,10.01601
5838383780,21.78,-0.049008845396000776,0.008517206749732328,0.0,0.32373,-0.94176,10.13373
5843434285,21.78,-0.046879543708567686,0.020245819323134222,0.002129301687433082,0.30411,-1.03005,10.05525
5848484790,21.78,-0.04153883619746504,0.022375121010567305,0.002129301687433082,-0.019620000000000002,-0.9221400000000001,9.99639
5853535295,21.78,-0.03834488366631542,-0.015987215948268057,0.001064650843716541,0.02943,-0.8142300000000001,10.12392
5858585800,21.78,-0.039409534510031964,-0.008517206749732328,0.0,0.23544,-0.8142300000000001,9.92772
5863636305,21.78,-0.04260348704118158,-0.007452555906015787,0.0,0.27468000000000004,-0.87309,10.03563
5868686810,21.78,-0.04260348704118158,-0.005323254218582705,0.002129301687433082,0.25506,-0.8829,10.05525
5873737315,21.78,-0.03621558197888234,-0.0170518667919846,0.001064650843716541,0.24525000000000002,-0.87309,10.143540000000002
5878787820,21.78,-0.03728023282259888,-0.02769837522915001,0.001064650843716541,0.46107000000000004,-0.7749900000000001,10.12392
5883838325,21.78,-0.03408628029144926,-0.05646140130201656,0.001064650843716541,0.6670800000000001,-0.8142300000000001,10.12392
5888888830,21.78,-0.04260348704118158,-0.0756251164889143,0.002129301687433082,1.15758,-1.01043,10.12392
5893939335,21.78,-0.0404741853537485,-0.05965535383316618,0.001064650843716541,1.40283,-0.95157,10.006200000000002
5898989840,21.78,-0.02663372438543347,-0.02663372438543347,0.0,1.71675,-1.04967,9.99639
5904040345,21.78,-0.024504422698000388,0.04794419455228423,-0.001064650843716541,1.49112,-1.02024,9.937529999999999
5909090850,21.78,-0.014905111812031574,0.10012953918691468,-0.002129301687433082,0.9908100000000001,-1.01043,10.025820000000001
5914141355,21.78,-0.006387905062299246,0.13955652698946658,-0.003193952531149623,0.22563,-0.9221400000000001,10.09449
5919191860,21.78,-0.001064650843716541,0.14275047952061623,-0.001064650843716541,-0.50031,-0.8338500000000001,10.19259
5924242365,21.78,-0.008517206749732328,0.10545279340549739,0.0,-1.22625,-0.84366,10.36917
5929292870,21.78,-0.01064650843716541,0.02769837522915001,0.0,-1.5303600000000002,-0.6867000000000001,10.40841
5934343375,21.78,-0.015987215948268057,-0.07136651311404815,0.002129301687433082,-1.21644,-0.6180300000000001,10.35936
5939393880,21.78,-0.02982767691658309,-0.16084954386379738,0.002129301687433082,-0.48069000000000006,-0.73575,10.25145
5944444385,21.78,-0.04260348704118158,-0.22263419938439669,0.005323254218582705,0.6867000000000001,-0.9810000000000001,10.13373
5949494890,21.78,-0.04581489286485115,-0.20347048419749894,0.005323254218582705,1.9718100000000003,-1.4715,9.888480000000001
5954545395,21.78,-0.03089232776029963,-0.09693558665576507,0.0,2.2366800000000002,-1.20663,9.70209
5959595900,21.78,0.001064650843716541,0.005323254218582705,0.0,2.20725,-0.89271,9.7119
5964646405,21.78,0.02769837522915001,0.10332349171806432,-0.002129301687433082,1.8933300000000002,-0.51012,9.4176
5969696910,21.78,0.008517206749732328,0.19600047499896323,-0.003193952531149623,1.2851100000000002,-0.6278400000000001,9.34893
5974747415,21.78,-0.006387905062299246,0.20666443672864854,0.0,-0.02943,-0.9123300000000001,9.819809999999999
5979797920,21.78,-0.0170518667919846,0.14913838458291545,-0.001064650843716541,-1.0987200000000001,-0.84366,10.300500000000001
5984848425,21.78,-0.007452555906015787,0.044732788728614664,0.0,-1.34397,-0.7749900000000001,10.33974
5989898930,21.78,0.005323254218582705,-0.0852244273748831,0.0,-1.00062,-0.7749900000000001,10.38879
5994949435,21.78,-0.01064650843716541,-0.15233233711406508,0.001064650843716541,-0.15696000000000002,-0.8829,10.26126
5999999940,21.78,-0.031956978604016174,-0.15765559133264778,0.002129301687433082,0.89271,-1.13796,10.09449
6005050445,21.78,-0.023439771854283843,-0.10012953918691468,0.001064650843716541,1.4715,-1.31454,9.98658
6010100950,21.78,0.005323254218582705,-0.01064650843716541,0.0,1.5499800000000001,-1.16739,9.98658
6015151455,21.78,0.02769837522915001,0.06710790973918197,0.0,1.19682,-0.75537,9.92772
6020201960,21.78,0.03408628029144926,0.09480628496833199,-0.001064650843716541,0.7651800000000001,-0.5886,10.03563
6025252465,21.78,0.020245819323134222,0.09587093581204853,0.0,0.11772,-0.7749900000000001,10.17297
6030302970,21.78,-0.002129301687433082,0.05220279792715039,0.0,-0.40221,-0.94176,10.300500000000001
6035353475,21.78,-0.007452555906015787,-0.031956978604016174,0.0,-0.22563,-1.03005,10.418220000000002
6040403980,21.78,-0.003193952531149623,-0.08415977653116657,0.0,0.36297,-1.00062,10.2024
6045454485,21.78,0.008517206749732328,-0.09693558665576507,-0.001064650843716541,0.8338500000000001,-0.9221400000000001,10.01601
6050504990,21.78,0.013840460968315033,-0.04794419455228423,0.0,1.20663,-0.85347,9.80019
6055555495,21.78,0.014905111812031574,0.03834488366631542,-0.003193952531149623,1.24587,-0.84366,9.59418
6060606000,21.78,0.014905111812031574,0.0852244273748831,0.0,0.70632,-0.80442,9.74133
6065656505,21.78,0.02556907354171693,0.08309512568745003,0.0,-0.08829,-0.79461,9.84924
6070707010,21.78,0.0170518667919846,0.046879543708567686,0.0,-0.30411,-0.8240400000000001,10.1043
6075757515,21.78,0.00958185759344887,-0.01064650843716541,0.001064650843716541,-0.20601000000000003,-0.95157,10.17297
6080808020,21.78,0.011711159280881954,-0.04794419455228423,0.0,0.13734000000000002,-1.04967,10.23183
6085858525,21.78,0.012775810124598492,-0.044732788728614664,0.0,0.32373,-1.02024,10.143540000000002
6090909030,21.78,0.01811651763570114,-0.03621558197888234,-0.002129301687433082,0.5591700000000001,-0.86328,10.06506
6095959535,21.78,0.02982767691658309,-0.03728023282259888,-0.001064650843716541,0.8142300000000001,-0.7848,10.025820000000001
6101010040,21.78,0.031956978604016174,-0.012775810124598492,0.0,0.79461,-0.7749900000000001,9.85905
6106060545,21.78,0.023439771854283843,0.012775810124598492,0.0,0.7749900000000001,-0.9613800000000001,10.01601
6111111050,21.78,0.0170518667919846,0.049008845396000776,0.0,0.6670800000000001,-1.1183400000000001,10.17297
6116161555,21.78,0.02982767691658309,0.04794419455228423,0.001064650843716541,0.40221,-1.1870100000000001,10.47708
6121212060,21.78,0.04366813788489812,0.02982767691658309,-0.001064650843716541,0.11772,-1.03005,10.54575
6126262565,21.78,0.05113814708343386,0.005323254218582705,-0.003193952531149623,0.14715,-0.84366,10.47708
6131313070,21.78,0.04581489286485115,-0.011711159280881954,-0.002129301687433082,0.28449,-0.79461,10.24164
6136363575,21.78,0.04366813788489812,-0.01918116847941768,-0.001064650843716541,0.2943,-0.71613,10.06506
6141414080,21.78,0.0404741853537485,-0.022375121010567305,0.001064650843716541,0.34335000000000004,-0.74556,10.03563
