#timestamp [ns], temperature [degC], w_RS_S_x [rad s^-1], w_RS_S_y [rad s^-1], w_RS_S_z [rad s^-1], a_RS_S_x [m s^-2], a_RS_S_y [m s^-2], a_RS_S_z [m s^-2]
0,21.84,0.0,0.0,0.0,0.73575,0.46107000000000004,9.81
5050505,21.84,0.0,0.0,0.0,0.75537,0.50031,9.80019
10101010,21.84,0.0,0.0,0.0,0.7749900000000001,0.48069000000000006,9.83943
15151515,21.84,0.0,0.0,0.0,0.7651800000000001,0.48069000000000006,9.87867
20202020,21.84,0.0,0.0,0.0,0.75537,0.47088,9.82962
25252525,21.84,0.0,0.0,0.0,0.73575,0.48069000000000006,9.81
30303030,21.84,0.0,0.0,0.0,0.7651800000000001,0.48069000000000006,9.80019
35353535,21.84,0.0,0.0,0.0,0.74556,0.50031,9.79038
40404040,21.84,0.0,0.0,0.0,0.7651800000000001,0.45126,9.84924
45454545,21.84,0.0,0.0,0.0,0.75537,0.48069000000000006,9.82962
50505050,21.84,0.0,0.0,0.0,0.73575,0.47088,9.85905
55555555,21.84,0.0,0.0,0.0,0.75537,0.48069000000000006,9.82962
60606060,21.84,0.0,0.0,0.0,0.75537,0.45126,9.819809999999999
65656565,21.84,0.0,0.0,0.0,0.75537,0.47088,9.81
70707070,21.84,0.0,0.0,0.0,0.7651800000000001,0.48069000000000006,9.86886
75757575,21.84,0.0,0.0,0.0,0.79461,0.46107000000000004,9.81
80808080,21.84,0.0,0.0,0.0,0.7848,0.50031,9.82962
85858585,21.84,0.0,0.0,0.0,0.7848,0.48069000000000006,9.82962
90909090,21.84,0.0,0.0,0.0,0.73575,0.49050000000000005,9.819809999999999
95959595,21.84,0.0,0.0,0.0,0.74556,0.46107000000000004,9.83943
101010100,21.84,0.0,0.0,0.0,0.73575,0.48069000000000006,9.80019
106060605,21.84,0.0,0.0,0.0,0.73575,0.47088,9.819809999999999
111111110,21.84,0.0,0.0,0.0,0.73575,0.48069000000000006,9.81
116161615,21.84,0.0,0.0,0.0,0.75537,0.47088,9.819809999999999
121212120,21.84,0.0,0.0,0.0,0.7651800000000001,0.50031,9.85905
126262625,21.84,0.0,0.0,0.0,0.7651800000000001,0.48069000000000006,9.83943
131313130,21.84,0.0,0.0,0.0,0.75537,0.47088,9.819809999999999
136363635,21.84,0.0,0.0,0.0,0.74556,0.48069000000000006,9.79038
141414140,21.84,0.0,0.0,0.0,0.75537,0.49050000000000005,9.80019
146464645,21.84,0.0,0.0,0.0,0.75537,0.49050000000000005,9.81
151515150,21.84,0.0,0.0,0.0,0.73575,0.48069000000000006,9.85905
156565655,21.84,0.0,0.0,0.0,0.7651800000000001,0.47088,9.819809999999999
161616160,21.84,0.0,0.0,0.0,0.72594,0.46107000000000004,9.819809999999999
166666665,21.84,0.0,0.0,0.0,0.73575,0.48069000000000006,9.79038
171717170,21.84,0.0,0.0,0.0,0.75537,0.49050000000000005,9.819809999999999
176767675,21.84,0.0,0.0,0.0,0.7651800000000001,0.48069000000000006,9.82962
181818180,21.84,0.0,0.0,0.0,0.74556,0.51012,9.82962
186868685,21.84,0.0,0.0,0.0,0.7749900000000001,0.45126,9.83943
191919190,21.84,0.0,0.0,0.0,0.75537,0.48069000000000006,9.81
196969695,21.84,0.0,0.0,0.0,0.74556,0.47088,9.81
202020200,21.84,0.0,0.0,0.0,0.75537,0.48069000000000006,9.81
207070705,21.84,0.0,0.0,0.0,0.7749900000000001,0.47088,9.82962
212121210,21.84,0.0,0.0,0.0,0.7749900000000001,0.49050000000000005,9.82962
217171715,21.84,0.0,0.0,0.0,0.72594,0.46107000000000004,9.819809999999999
222222220,21.84,0.0,0.0,0.0,0.7651800000000001,0.47088,9.819809999999999
227272725,21.84,0.0,0.0,0.0,0.72594,0.48069000000000006,9.81
232323230,21.84,0.0,0.0,0.0,0.74556,0.46107000000000004,9.81
237373735,21.84,0.0,0.0,0.0,0.72594,0.48069000000000006,9.82962
242424240,21.84,0.0,0.0,0.0,0.7749900000000001,0.47088,9.81
247474745,21.84,0.0,0.0,0.0,0.7651800000000001,0.49050000000000005,9.81
252525250,21.84,0.0,0.0,0.0,0.7651800000000001,0.48069000000000006,9.83943
257575755,21.84,0.0,0.0,0.0,0.7749900000000001,0.48069000000000006,9.80019
262626260,21.84,0.0,0.0,0.0,0.74556,0.48069000000000006,9.82962
267676765,21.84,0.0,0.0,0.0,0.7651800000000001,0.47088,9.81
272727270,21.84,0.0,0.0,0.0,0.72594,0.46107000000000004,9.82962
277777775,21.84,0.0,0.0,0.0,0.7749900000000001,0.49050000000000005,9.819809999999999
282828280,21.84,0.0,0.0,0.0,0.7651800000000001,0.51012,9.81
287878785,21.84,0.0,0.0,0.0,0.7651800000000001,0.51012,9.819809999999999
292929290,21.84,0.0,0.0,0.0,0.7749900000000001,0.45126,9.82962
297979795,21.84,0.0,0.0,0.0,0.74556,0.46107000000000004,9.819809999999999
303030300,21.84,0.0,0.0,0.0,0.7651800000000001,0.47088,9.84924
308080805,21.84,0.0,0.0,0.0,0.7651800000000001,0.49050000000000005,9.81
313131310,21.84,0.0,0.0,0.0,0.75537,0.49050000000000005,9.80019
318181815,21.84,0.0,0.0,0.0,0.74556,0.47088,9.80019
323232320,21.84,0.0,0.0,0.0,0.75537,0.48069000000000006,9.83943
328282825,21.84,0.0,0.0,0.0,0.79461,0.48069000000000006,9.82962
333333330,21.84,0.0,0.0,0.0,0.7749900000000001,0.48069000000000006,9.80019
338383835,21.84,0.0,0.0,0.0,0.74556,0.50031,9.819809999999999
343434340,21.84,0.0,0.0,0.0,0.7848,0.48069000000000006,9.79038
348484845,21.84,0.0,0.0,0.0,0.74556,0.48069000000000006,9.819809999999999
353535350,21.84,0.0,0.0,0.0,0.75537,0.49050000000000005,9.83943
358585855,21.84,0.0,0.0,0.0,0.75537,0.46107000000000004,9.819809999999999
363636360,21.84,0.0,0.0,0.0,0.7749900000000001,0.45126,9.819809999999999
368686865,21.84,0.0,0.0,0.0,0.75537,0.48069000000000006,9.819809999999999
373737370,21.84,0.0,0.0,0.0,0.75537,0.48069000000000006,9.82962
378787875,21.84,0.0,0.0,0.0,0.75537,0.48069000000000006,9.82962
383838380,21.84,0.0,0.0,0.0,0.74556,0.50031,9.85905
388888885,21.84,0.0,0.0,0.0,0.72594,0.48069000000000006,9.83943
393939390,21.84,0.0,0.0,0.0,0.74556,0.48069000000000006,9.81
398989895,21.84,0.0,0.0,0.0,0.72594,0.45126,9.83943
404040400,21.84,0.0,0.0,0.0,0.7848,0.45126,9.819809999999999
409090905,21.84,0.0,0.0,0.0,0.74556,0.48069000000000006,9.81
414141410,21.84,0.0,0.0,0.0,0.74556,0.49050000000000005,9.819809999999999
419191915,21.84,0.0,0.0,0.0,0.7651800000000001,0.46107000000000004,9.819809999999999
424242420,21.84,0.0,0.0,0.0,0.72594,0.49050000000000005,9.82962
429292925,21.84,0.0,0.0,0.0,0.75537,0.46107000000000004,9.819809999999999
434343430,21.84,0.0,0.0,0.0,0.72594,0.48069000000000006,9.83943
439393935,21.84,0.0,0.0,0.0,0.75537,0.46107000000000004,9.83943
444444440,21.84,0.0,0.0,0.0,0.74556,0.51012,9.82962
449494945,21.84,0.0,0.0,0.0,0.7651800000000001,0.49050000000000005,9.819809999999999
454545450,21.84,0.0,0.0,0.0,0.73575,0.50031,9.83943
459595955,21.84,0.0,0.0,0.0,0.75537,0.47088,9.81
464646460,21.84,0.0,0.0,0.0,0.74556,0.45126,9.819809999999999
469696965,21.84,0.0,0.0,0.0,0.75537,0.48069000000000006,9.819809999999999
474747470,21.84,0.0,0.0,0.0,0.73575,0.48069000000000006,9.819809999999999
479797975,21.84,0.0,0.0,0.0,0.74556,0.49050000000000005,9.80019
484848480,21.84,0.0,0.0,0.0,0.7651800000000001,0.48069000000000006,9.81
489898985,21.84,0.0,0.0,0.0,0.74556,0.47088,9.84924
494949490,21.84,0.0,0.0,0.0,0.75537,0.47088,9.83943
499999995,21.84,0.0,0.0,0.0,0.7651800000000001,0.47088,9.82962
505050500,21.84,0.0,0.0,0.0,0.74556,0.49050000000000005,9.83943
510101005,21.84,0.0,0.0,0.0,0.75537,0.46107000000000004,9.79038
515151510,21.84,0.0,0.0,0.0,0.75537,0.49050000000000005,9.80019
520202015,21.84,0.0,0.0,0.0,0.74556,0.46107000000000004,9.82962
525252520,21.84,0.0,0.0,0.0,0.74556,0.47088,9.85905
530303025,21.84,0.0,0.0,0.0,0.75537,0.48069000000000006,9.83943
535353530,21.84,0.0,0.0,0.0,0.74556,0.47088,9.819809999999999
540404035,21.84,0.0,0.0,0.0,0.73575,0.49050000000000005,9.78057
545454540,21.84,0.0,0.0,0.0,0.75537,0.51012,9.81
550505045,21.84,0.0,0.0,0.0,0.75537,0.46107000000000004,9.86886
555555550,21.84,0.0,0.0,0.0,0.7651800000000001,0.49050000000000005,9.86886
560606055,21.84,0.0,0.0,0.0,0.7651800000000001,0.48069000000000006,9.83943
565656560,21.84,0.0,0.0,0.0,0.75537,0.46107000000000004,9.770760000000001
570707065,21.84,0.0,0.0,0.0,0.73575,0.49050000000000005,9.79038
575757570,21.84,0.0,0.0,0.0,0.75537,0.46107000000000004,9.81
580808075,21.84,0.0,0.0,0.0,0.73575,0.49050000000000005,9.85905
585858580,21.84,0.0,0.0,0.0,0.74556,0.49050000000000005,9.83943
590909085,21.84,0.0,0.0,0.0,0.7651800000000001,0.46107000000000004,9.83943
595959590,21.84,0.0,0.0,0.0,0.7651800000000001,0.47088,9.81
601010095,21.84,0.0,0.0,0.0,0.74556,0.47088,9.819809999999999
606060600,21.84,0.0,0.0,0.0,0.74556,0.47088,9.83943
611111105,21.84,0.0,0.0,0.0,0.74556,0.48069000000000006,9.80019
616161610,21.84,0.0,0.0,0.0,0.74556,0.48069000000000006,9.82962
621212115,21.84,0.0,0.0,0.0,0.7651800000000001,0.47088,9.82962
626262620,21.84,0.0,0.0,0.0,0.75537,0.47088,9.84924
631313125,21.84,0.0,0.0,0.0,0.7749900000000001,0.48069000000000006,9.84924
636363630,21.84,0.0,0.0,0.0,0.75537,0.50031,9.82962
641414135,21.84,0.0,0.0,0.0,0.75537,0.47088,9.83943
646464640,21.84,0.0,0.0,0.0,0.7651800000000001,0.47088,9.79038
651515145,21.84,0.0,0.0,0.0,0.7651800000000001,0.50031,9.819809999999999
656565650,21.84,0.0,0.0,0.0,0.75537,0.48069000000000006,9.84924
661616155,21.84,0.0,0.0,0.0,0.74556,0.48069000000000006,9.84924
666666660,21.84,0.0,0.0,0.0,0.7651800000000001,0.48069000000000006,9.81
671717165,21.84,0.0,0.0,0.0,0.74556,0.46107000000000004,9.819809999999999
676767670,21.84,0.0,0.0,0.0,0.75537,0.48069000000000006,9.80019
681818175,21.84,0.0,0.0,0.0,0.7651800000000001,0.49050000000000005,9.81
686868680,21.84,0.0,0.0,0.0,0.74556,0.48069000000000006,9.83943
691919185,21.84,0.0,0.0,0.0,0.7749900000000001,0.46107000000000004,9.81
696969690,21.84,0.0,0.0,0.0,0.75537,0.47088,9.819809999999999
702020195,21.84,0.0,0.0,0.0,0.72594,0.48069000000000006,9.819809999999999
707070700,21.84,0.0,0.0,0.0,0.7651800000000001,0.49050000000000005,9.84924
712121205,21.84,0.0,0.0,0.0,0.74556,0.48069000000000006,9.81
717171710,21.84,0.0,0.0,0.0,0.74556,0.48069000000000006,9.80019
722222215,21.84,0.0,0.0,0.0,0.75537,0.49050000000000005,9.82962
727272720,21.84,0.0,0.0,0.0,0.7749900000000001,0.47088,9.85905
732323225,21.84,0.0,0.0,0.0,0.7749900000000001,0.47088,9.83943
737373730,21.84,0.0,0.0,0.0,0.7651800000000001,0.48069000000000006,9.82962
742424235,21.84,0.0,0.0,0.0,0.74556,0.49050000000000005,9.81
747474740,21.84,0.0,0.0,0.0,0.75537,0.47088,9.81
752525245,21.84,0.0,0.0,0.0,0.74556,0.47088,9.82962
757575750,21.84,0.0,0.0,0.0,0.7651800000000001,0.49050000000000005,9.86886
762626255,21.84,0.0,0.0,0.0,0.7651800000000001,0.48069000000000006,9.84924
767676760,21.84,0.0,0.0,0.0,0.75537,0.45126,9.819809999999999
772727265,21.84,0.0,0.0,0.0,0.72594,0.47088,9.81
777777770,21.84,0.0,0.0,0.0,0.74556,0.47088,9.82962
782828275,21.84,0.0,0.0,0.0,0.75537,0.48069000000000006,9.819809999999999
787878780,21.84,0.0,0.0,0.0,0.75537,0.49050000000000005,9.84924
792929285,21.84,0.0,0.0,0.0,0.74556,0.48069000000000006,9.83943
797979790,21.84,0.0,0.0,0.0,0.71613,0.47088,9.819809999999999
803030295,21.84,0.0,0.0,0.0,0.74556,0.45126,9.80019
808080800,21.84,0.0,0.0,0.0,0.75537,0.47088,9.83943
813131305,21.84,0.0,0.0,0.0,0.7749900000000001,0.49050000000000005,9.81
818181810,21.84,0.0,0.0,0.0,0.75537,0.47088,9.81
823232315,21.84,0.0,0.0,0.0,0.7651800000000001,0.49050000000000005,9.85905
828282820,21.84,0.0,0.0,0.0,0.7651800000000001,0.49050000000000005,9.81
833333325,21.84,0.0,0.0,0.0,0.75537,0.46107000000000004,9.819809999999999
838383830,21.84,0.0,0.0,0.0,0.74556,0.48069000000000006,9.79038
843434335,21.84,0.0,0.0,0.0,0.7651800000000001,0.48069000000000006,9.819809999999999
848484840,21.84,0.0,0.0,0.0,0.75537,0.47088,9.819809999999999
853535345,21.84,0.0,0.0,0.0,0.75537,0.48069000000000006,9.87867
858585850,21.84,0.0,0.0,0.0,0.7651800000000001,0.49050000000000005,9.83943
863636355,21.84,0.0,0.0,0.0,0.72594,0.48069000000000006,9.80019
868686860,21.84,0.0,0.0,0.0,0.73575,0.45126,9.80019
873737365,21.84,0.0,0.0,0.0,0.73575,0.47088,9.81
878787870,21.84,0.0,0.0,0.0,0.75537,0.46107000000000004,9.83943
883838375,21.84,0.0,0.0,0.0,0.7651800000000001,0.46107000000000004,9.819809999999999
888888880,21.84,0.0,0.0,0.0,0.75537,0.51012,9.83943
893939385,21.84,0.0,0.0,0.0,0.7651800000000001,0.49050000000000005,9.81
898989890,21.84,0.0,0.0,0.0,0.7749900000000001,0.47088,9.81
904040395,21.84,0.0,0.0,0.0,0.74556,0.47088,9.819809999999999
909090900,21.84,0.0,0.0,0.0,0.7651800000000001,0.48069000000000006,9.82962
914141405,21.84,0.0,0.0,0.0,0.7651800000000001,0.50031,9.81
919191910,21.84,0.0,0.0,0.0,0.75537,0.50031,9.82962
924242415,21.84,0.0,0.0,0.0,0.74556,0.48069000000000006,9.85905
929292920,21.84,0.0,0.0,0.0,0.73575,0.48069000000000006,9.85905
934343425,21.84,0.0,0.0,0.0,0.75537,0.45126,9.81
939393930,21.84,0.0,0.0,0.0,0.73575,0.48069000000000006,9.80019
944444435,21.84,0.0,0.0,0.0,0.7651800000000001,0.48069000000000006,9.80019
949494940,21.84,0.0,0.0,0.0,0.7651800000000001,0.48069000000000006,9.82962
954545445,21.84,0.0,0.0,0.0,0.74556,0.48069000000000006,9.83943
959595950,21.84,0.0,0.0,0.0,0.7651800000000001,0.46107000000000004,9.84924
964646455,21.84,0.0,0.0,0.0,0.74556,0.45126,9.80019
969696960,21.84,0.0,0.0,0.0,0.7651800000000001,0.48069000000000006,9.82962
974747465,21.84,0.0,0.0,0.0,0.75537,0.49050000000000005,9.81
979797970,21.84,0.0,0.0,0.0,0.75537,0.48069000000000006,9.83943
984848475,21.84,0.0,0.0,0.0,0.7651800000000001,0.48069000000000006,9.82962
989898980,21.84,0.0,0.0,0.0,0.7749900000000001,0.45126,9.83943
994949485,21.84,0.0,0.0,0.0,0.7651800000000001,0.46107000000000004,9.80019
999999990,21.84,0.0,0.0,0.0,0.7749900000000001,0.48069000000000006,9.819809999999999
1005050495,21.84,0.0,0.0,0.0,0.73575,0.46107000000000004,9.79038
1010101000,21.84,0.0,0.0,0.0,0.7651800000000001,0.49050000000000005,9.83943
1015151505,21.84,0.0,0.0,0.0,0.74556,0.49050000000000005,9.83943
1020202010,21.84,0.0,0.0,0.0,0.75537,0.50031,9.81
1025252515,21.84,0.0,0.0,0.0,0.74556,0.50031,9.81
1030303020,21.84,0.0,0.0,0.0,0.75537,0.48069000000000006,9.82962
1035353525,21.84,0.0,0.0,0.0,0.75537,0.47088,9.83943
1040404030,21.84,0.0,0.0,0.0,0.7651800000000001,0.47088,9.82962
1045454535,21.84,0.0,0.0,0.0,0.7749900000000001,0.47088,9.80019
1050505040,21.84,0.0,0.0,0.0,0.75537,0.49050000000000005,9.819809999999999
1055555545,21.84,0.0,0.0,0.0,0.7651800000000001,0.47088,9.819809999999999
1060606050,21.84,0.0,0.0,0.0,0.75537,0.46107000000000004,9.84924
1065656555,21.84,0.0,0.0,0.0,0.75537,0.48069000000000006,9.82962
1070707060,21.84,0.0,0.0,0.0,0.74556,0.45126,9.81
1075757565,21.84,0.0,0.0,0.0,0.73575,0.48069000000000006,9.78057
1080808070,21.84,0.0,0.0,0.0,0.74556,0.47088,9.82962
1085858575,21.84,0.0,0.0,0.0,0.7651800000000001,0.49050000000000005,9.81
1090909080,21.84,0.0,0.0,0.0,0.7651800000000001,0.50031,9.82962
1095959585,21.84,0.0,0.0,0.0,0.74556,0.47088,9.83943
1101010090,21.84,0.0,0.0,0.0,0.75537,0.47088,9.82962
1106060595,21.84,0.0,0.0,0.0,0.73575,0.47088,9.81
1111111100,21.84,0.0,0.0,0.0,0.75537,0.48069000000000006,9.85905
1116161605,21.84,0.0,0.0,0.0,0.74556,0.48069000000000006,9.83943
1121212110,21.84,0.0,0.0,0.0,0.75537,0.51012,9.81
1126262615,21.84,0.0,0.0,0.0,0.7749900000000001,0.47088,9.81
1131313120,21.84,0.0,0.0,0.0,0.74556,0.47088,9.82962
1136363625,21.84,0.0,0.0,0.0,0.7848,0.47088,9.819809999999999
1141414130,21.84,0.0,0.0,0.0,0.74556,0.47088,9.82962
1146464635,21.84,0.0,0.0,0.0,0.74556,0.47088,9.81
1151515140,21.84,0.0,0.0,0.0,0.74556,0.49050000000000005,9.81
1156565645,21.84,0.0,0.0,0.0,0.75537,0.47088,9.81
1161616150,21.84,0.0,0.0,0.0,0.74556,0.49050000000000005,9.82962
1166666655,21.84,0.0,0.0,0.0,0.74556,0.48069000000000006,9.84924
1171717160,21.84,0.0,0.0,0.0,0.75537,0.46107000000000004,9.83943
1176767665,21.84,0.0,0.0,0.0,0.75537,0.45126,9.82962
1181818170,21.84,0.0,0.0,0.0,0.72594,0.47088,9.81
1186868675,21.84,0.0,0.0,0.0,0.7848,0.49050000000000005,9.770760000000001
1191919180,21.84,0.0,0.0,0.0,0.7651800000000001,0.47088,9.81
1196969685,21.84,0.0,0.0,0.0,0.75537,0.45126,9.83943
1202020190,21.84,0.0,0.0,0.0,0.7749900000000001,0.46107000000000004,9.84924
1207070695,21.84,0.0,0.0,0.0,0.73575,0.49050000000000005,9.82962
1212121200,21.84,0.0,0.0,0.0,0.73575,0.48069000000000006,9.79038
1217171705,21.84,0.0,0.0,0.0,0.73575,0.47088,9.80019
1222222210,21.84,0.0,0.0,0.0,0.74556,0.47088,9.81
1227272715,21.84,0.0,0.0,0.0,0.7749900000000001,0.47088,9.82962
1232323220,21.84,0.0,0.0,0.0,0.75537,0.48069000000000006,9.81
1237373725,21.84,0.0,0.0,0.0,0.7848,0.49050000000000005,9.80019
1242424230,21.84,0.0,0.0,0.0,0.75537,0.48069000000000006,9.80019
1247474735,21.84,0.0,0.0,0.0,0.75537,0.48069000000000006,9.819809999999999
1252525240,21.84,0.0,0.0,0.0,0.72594,0.49050000000000005,9.82962
1257575745,21.84,0.0,0.0,0.0,0.75537,0.47088,9.81
1262626250,21.84,0.0,0.0,0.0,0.75537,0.48069000000000006,9.82962
1267676755,21.84,0.0,0.0,0.0,0.75537,0.48069000000000006,9.79038
1272727260,21.84,0.0,0.0,0.0,0.7651800000000001,0.48069000000000006,9.819809999999999
1277777765,21.84,0.0,0.0,0.0,0.75537,0.47088,9.82962
1282828270,21.84,0.0,0.0,0.0,0.75537,0.49050000000000005,9.84924
1287878775,21.84,0.0,0.0,0.0,0.75537,0.48069000000000006,9.82962
1292929280,21.84,0.0,0.0,0.0,0.75537,0.48069000000000006,9.81
1297979785,21.84,0.0,0.0,0.0,0.75537,0.47088,9.81
1303030290,21.84,0.0,0.0,0.0,0.74556,0.47088,9.83943
1308080795,21.84,0.0,0.0,0.0,0.7749900000000001,0.45126,9.84924
1313131300,21.84,0.0,0.0,0.0,0.75537,0.49050000000000005,9.819809999999999
1318181805,21.84,0.0,0.0,0.0,0.75537,0.49050000000000005,9.81
1323232310,21.84,0.0,0.0,0.0,0.75537,0.49050000000000005,9.819809999999999
1328282815,21.84,0.0,0.0,0.0,0.7651800000000001,0.47088,9.84924
1333333320,21.84,0.0,0.0,0.0,0.7749900000000001,0.48069000000000006,9.85905
1338383825,21.84,0.0,0.0,0.0,0.7651800000000001,0.48069000000000006,9.82962
1343434330,21.84,0.0,0.0,0.0,0.73575,0.46107000000000004,9.80019
1348484835,21.84,0.0,0.0,0.0,0.7651800000000001,0.48069000000000006,9.819809999999999
1353535340,21.84,0.0,0.0,0.0,0.75537,0.49050000000000005,9.819809999999999
1358585845,21.84,0.0,0.0,0.0,0.74556,0.47088,9.82962
1363636350,21.84,0.0,0.0,0.0,0.75537,0.47088,9.84924
1368686855,21.84,0.0,0.0,0.0,0.73575,0.48069000000000006,9.83943
1373737360,21.84,0.0,0.0,0.0,0.75537,0.46107000000000004,9.80019
1378787865,21.84,0.0,0.0,0.0,0.74556,0.48069000000000006,9.819809999999999
1383838370,21.84,0.0,0.0,0.0,0.7651800000000001,0.47088,9.80019
1388888875,21.84,0.0,0.0,0.0,0.7651800000000001,0.47088,9.819809999999999
1393939380,21.84,0.0,0.0,0.0,0.7749900000000001,0.49050000000000005,9.819809999999999
1398989885,21.84,0.0,0.0,0.0,0.74556,0.47088,9.84924
1404040390,21.84,0.0,0.0,0.0,0.7651800000000001,0.49050000000000005,9.82962
1409090895,21.84,0.0,0.0,0.0,0.73575,0.47088,9.78057
1414141400,21.84,0.0,0.0,0.0,0.74556,0.46107000000000004,9.819809999999999
1419191905,21.84,0.0,0.0,0.0,0.7651800000000001,0.46107000000000004,9.82962
1424242410,21.84,0.0,0.0,0.0,0.7749900000000001,0.48069000000000006,9.819809999999999
1429292915,21.84,0.0,0.0,0.0,0.7651800000000001,0.48069000000000006,9.819809999999999
1434343420,21.84,0.0,0.0,0.0,0.75537,0.47088,9.83943
1439393925,21.84,0.0,0.0,0.0,0.74556,0.46107000000000004,9.79038
1444444430,21.84,0.0,0.0,0.0,0.74556,0.49050000000000005,9.81
1449494935,21.84,0.0,0.0,0.0,0.7749900000000001,0.48069000000000006,9.819809999999999
1454545440,21.84,0.0,0.0,0.0,0.74556,0.48069000000000006,9.83943
1459595945,21.84,0.0,0.0,0.0,0.74556,0.49050000000000005,9.84924
1464646450,21.84,0.0,0.0,0.0,0.7749900000000001,0.46107000000000004,9.79038
1469696955,21.84,0.0,0.0,0.0,0.74556,0.47088,9.819809999999999
1474747460,21.84,0.0,0.0,0.0,0.75537,0.45126,9.81
1479797965,21.84,0.0,0.0,0.0,0.72594,0.46107000000000004,9.81
1484848470,21.84,0.0,0.0,0.0,0.74556,0.49050000000000005,9.819809999999999
1489898975,21.84,0.0,0.0,0.0,0.7749900000000001,0.49050000000000005,9.82962
1494949480,21.84,0.0,0.0,0.0,0.75537,0.46107000000000004,9.82962
1499999985,21.84,0.0,0.0,0.0,0.74556,0.47088,9.819809999999999
1505050490,21.84,0.0,0.0,0.0,0.7651800000000001,0.48069000000000006,9.819809999999999
1510100995,21.84,0.0,0.0,0.0,0.7651800000000001,0.48069000000000006,9.819809999999999
1515151500,21.84,0.0,0.0,0.0,0.7651800000000001,0.47088,9.81
1520202005,21.84,0.0,0.0,0.0,0.7651800000000001,0.51012,9.81
1525252510,21.84,0.0,0.0,0.0,0.75537,0.51012,9.84924
1530303015,21.84,0.0,0.0,0.0,0.75537,0.48069000000000006,9.83943
1535353520,21.84,0.0,0.0,0.0,0.75537,0.45126,9.83943
1540404025,21.84,0.0,0.0,0.0,0.7651800000000001,0.49050000000000005,9.819809999999999
1545454530,21.84,0.0,0.0,0.0,0.73575,0.48069000000000006,9.78057
1550505035,21.84,0.0,0.0,0.0,0.74556,0.46107000000000004,9.819809999999999
1555555540,21.84,0.0,0.0,0.0,0.74556,0.48069000000000006,9.82962
1560606045,21.84,0.0,0.0,0.0,0.75537,0.48069000000000006,9.819809999999999
1565656550,21.84,0.0,0.0,0.0,0.75537,0.47088,9.819809999999999
1570707055,21.84,0.0,0.0,0.0,0.74556,0.46107000000000004,9.819809999999999
1575757560,21.84,0.0,0.0,0.0,0.7651800000000001,0.47088,9.819809999999999
1580808065,21.84,0.0,0.0,0.0,0.75537,0.46107000000000004,9.81
1585858570,21.84,0.0,0.0,0.0,0.74556,0.47088,9.82962
1590909075,21.84,0.0,0.0,0.0,0.75537,0.47088,9.81
1595959580,21.84,0.0,0.0,0.0,0.73575,0.48069000000000006,9.82962
1601010085,21.84,0.0,0.0,0.0,0.74556,0.49050000000000005,9.82962
1606060590,21.84,0.0,0.0,0.0,0.75537,0.47088,9.84924
1611111095,21.84,0.0,0.0,0.0,0.73575,0.46107000000000004,9.81
1616161600,21.84,0.0,0.0,0.0,0.75537,0.47088,9.82962
1621212105,21.84,0.0,0.0,0.0,0.75537,0.45126,9.81
1626262610,21.84,0.0,0.0,0.0,0.73575,0.48069000000000006,9.84924
1631313115,21.84,0.0,0.0,0.0,0.7651800000000001,0.47088,9.819809999999999
1636363620,21.84,0.0,0.0,0.0,0.74556,0.45126,9.81
1641414125,21.84,0.0,0.0,0.0,0.74556,0.47088,9.81
1646464630,21.84,0.0,0.0,0.0,0.72594,0.48069000000000006,9.819809999999999
1651515135,21.84,0.0,0.0,0.0,0.74556,0.46107000000000004,9.84924
1656565640,21.84,0.0,0.0,0.0,0.74556,0.47088,9.81
1661616145,21.84,0.0,0.0,0.0,0.73575,0.45126,9.83943
1666666650,21.84,0.0,0.0,0.0,0.7651800000000001,0.46107000000000004,9.81
1671717155,21.84,0.0,0.0,0.0,0.74556,0.46107000000000004,9.82962
1676767660,21.84,0.0,0.0,0.0,0.7651800000000001,0.47088,9.82962
1681818165,21.84,0.0,0.0,0.0,0.71613,0.48069000000000006,9.819809999999999
1686868670,21.84,0.0,0.0,0.0,0.75537,0.48069000000000006,9.81
1691919175,21.84,0.0,0.0,0.0,0.73575,0.50031,9.79038
1696969680,21.84,0.0,0.0,0.0,0.7749900000000001,0.49050000000000005,9.819809999999999
1702020185,21.84,0.0,0.0,0.0,0.74556,0.48069000000000006,9.81
1707070690,21.84,0.0,0.0,0.0,0.74556,0.47088,9.84924
1712121195,21.84,0.0,0.0,0.0,0.75537,0.47088,9.819809999999999
1717171700,21.84,0.0,0.0,0.0,0.74556,0.48069000000000006,9.819809999999999
1722222205,21.84,0.0,0.0,0.0,0.7848,0.48069000000000006,9.81
1727272710,21.84,0.0,0.0,0.0,0.7651800000000001,0.49050000000000005,9.81
1732323215,21.84,0.0,0.0,0.0,0.73575,0.47088,9.81
1737373720,21.84,0.0,0.0,0.0,0.7651800000000001,0.49050000000000005,9.82962
1742424225,21.84,0.0,0.0,0.0,0.7651800000000001,0.47088,9.819809999999999
1747474730,21.84,0.0,0.0,0.0,0.72594,0.51012,9.819809999999999
1752525235,21.84,0.0,0.0,0.0,0.74556,0.47088,9.84924
1757575740,21.84,0.0,0.0,0.0,0.75537,0.49050000000000005,9.82962
1762626245,21.84,0.0,0.0,0.0,0.75537,0.49050000000000005,9.819809999999999
1767676750,21.84,0.0,0.0,0.0,0.75537,0.46107000000000004,9.79038
1772727255,21.84,0.0,0.0,0.0,0.75537,0.47088,9.81
1777777760,21.84,0.0,0.0,0.0,0.74556,0.47088,9.819809999999999
1782828265,21.84,0.0,0.0,0.0,0.75537,0.48069000000000006,9.819809999999999
1787878770,21.84,0.0,0.0,0.0,0.74556,0.48069000000000006,9.82962
1792929275,21.84,0.0,0.0,0.0,0.75537,0.45126,9.81
1797979780,21.84,0.0,0.0,0.0,0.72594,0.47088,9.82962
1803030285,21.84,0.0,0.0,0.0,0.73575,0.48069000000000006,9.80019
1808080790,21.84,0.0,0.0,0.0,0.7651800000000001,0.45126,9.819809999999999
1813131295,21.84,0.0,0.0,0.0,0.74556,0.47088,9.819809999999999
1818181800,21.84,0.0,0.0,0.0,0.73575,0.47088,9.81
1823232305,21.84,0.0,0.0,0.0,0.7749900000000001,0.48069000000000006,9.84924
1828282810,21.84,0.0,0.0,0.0,0.73575,0.49050000000000005,9.80019
1833333315,21.84,0.0,0.0,0.0,0.73575,0.47088,9.819809999999999
1838383820,21.84,0.0,0.0,0.0,0.75537,0.48069000000000006,9.80019
1843434325,21.84,0.0,0.0,0.0,0.73575,0.45126,9.819809999999999
1848484830,21.84,0.0,0.0,0.0,0.74556,0.46107000000000004,9.819809999999999
1853535335,21.84,0.0,0.0,0.0,0.74556,0.47088,9.82962
1858585840,21.84,0.0,0.0,0.0,0.7749900000000001,0.48069000000000006,9.81
1863636345,21.84,0.0,0.0,0.0,0.7749900000000001,0.49050000000000005,9.80019
1868686850,21.84,0.0,0.0,0.0,0.73575,0.48069000000000006,9.80019
1873737355,21.84,0.0,0.0,0.0,0.75537,0.45126,9.819809999999999
1878787860,21.84,0.0,0.0,0.0,0.74556,0.45126,9.82962
1883838365,21.84,0.0,0.0,0.0,0.75537,0.48069000000000006,9.81
1888888870,21.84,0.0,0.0,0.0,0.74556,0.46107000000000004,9.81
1893939375,21.84,0.0,0.0,0.0,0.7651800000000001,0.47088,9.81
1898989880,21.84,0.0,0.0,0.0,0.75537,0.48069000000000006,9.82962
1904040385,21.84,0.0,0.0,0.0,0.75537,0.48069000000000006,9.82962
1909090890,21.84,0.0,0.0,0.0,0.74556,0.47088,9.82962
1914141395,21.84,0.0,0.0,0.0,0.7749900000000001,0.45126,9.79038
1919191900,21.84,0.0,0.0,0.0,0.7848,0.48069000000000006,9.81
1924242405,21.84,0.0,0.0,0.0,0.7651800000000001,0.49050000000000005,9.82962
1929292910,21.84,0.0,0.0,0.0,0.73575,0.48069000000000006,9.819809999999999
1934343415,21.84,0.0,0.0,0.0,0.75537,0.50031,9.82962
1939393920,21.84,0.0,0.0,0.0,0.74556,0.46107000000000004,9.81
1944444425,21.84,0.0,0.0,0.0,0.75537,0.47088,9.81
1949494930,21.84,0.0,0.0,0.0,0.7651800000000001,0.47088,9.83943
1954545435,21.84,0.0,0.0,0.0,0.74556,0.46107000000000004,9.81
1959595940,21.84,0.0,0.0,0.0,0.7651800000000001,0.48069000000000006,9.819809999999999
1964646445,21.84,0.0,0.0,0.0,0.74556,0.49050000000000005,9.81
1969696950,21.84,0.0,0.0,0.0,0.7651800000000001,0.47088,9.86886
1974747455,21.84,0.0,0.0,0.0,0.74556,0.47088,9.83943
1979797960,21.84,0.0,0.0,0.0,0.72594,0.46107000000000004,9.819809999999999
1984848465,21.84,0.0,0.0,0.0,0.73575,0.49050000000000005,9.80019
1989898970,21.84,0.0,0.0,0.0,0.74556,0.47088,9.819809999999999
1994949475,21.84,0.0,0.0,0.0,0.7651800000000001,0.49050000000000005,9.80019
1999999980,21.84,0.0,0.0,0.0,0.75537,0.46107000000000004,9.83943
2005050485,21.84,0.0,0.0,0.0,0.75537,0.47088,9.86886
2010100990,21.84,0.0,0.0,0.0,0.7848,0.46107000000000004,9.81
2015151495,21.84,0.0,0.0,0.0,0.75537,0.48069000000000006,9.80019
2020202000,21.84,0.0,0.0,0.0,0.74556,0.48069000000000006,9.819809999999999
2025252505,21.84,0.0,0.0,0.0,0.74556,0.46107000000000004,9.83943
2030303010,21.84,0.0,0.0,0.0,0.7651800000000001,0.46107000000000004,9.82962
2035353515,21.84,0.0,0.0,0.0,0.73575,0.49050000000000005,9.84924
2040404020,21.84,0.0,0.0,0.0,0.74556,0.48069000000000006,9.81
2045454525,21.84,0.0,0.0,0.0,0.73575,0.46107000000000004,9.81
2050505030,21.84,0.0,0.0,0.0,0.75537,0.45126,9.80019
2055555535,21.84,0.0,0.0,0.0,0.7651800000000001,0.48069000000000006,9.82962
2060606040,21.84,0.0,0.0,0.0,0.7848,0.48069000000000006,9.84924
2065656545,21.84,0.0,0.0,0.0,0.74556,0.49050000000000005,9.81
2070707050,21.84,0.0,0.0,0.0,0.7651800000000001,0.48069000000000006,9.82962
2075757555,21.84,0.0,0.0,0.0,0.74556,0.45126,9.82962
2080808060,21.84,0.0,0.0,0.0,0.7651800000000001,0.46107000000000004,9.819809999999999
2085858565,21.84,0.0,0.0,0.0,0.74556,0.47088,9.819809999999999
2090909070,21.84,0.0,0.0,0.0,0.74556,0.46107000000000004,9.80019
2095959575,21.84,0.0,0.0,0.0,0.7749900000000001,0.47088,9.819809999999999
2101010080,21.84,0.0,0.0,0.0,0.75537,0.48069000000000006,9.82962
2106060585,21.84,0.0,0.0,0.0,0.75537,0.48069000000000006,9.83943
2111111090,21.84,0.0,0.0,0.0,0.7651800000000001,0.48069000000000006,9.819809999999999
2116161595,21.84,0.0,0.0,0.0,0.74556,0.47088,9.81
2121212100,21.84,0.0,0.0,0.0,0.74556,0.46107000000000004,9.80019
2126262605,21.84,0.0,0.0,0.0,0.73575,0.48069000000000006,9.80019
2131313110,21.84,0.0,0.0,0.0,0.73575,0.48069000000000006,9.83943
2136363615,21.84,0.0,0.0,0.0,0.7749900000000001,0.47088,9.83943
2141414120,21.84,0.0,0.0,0.0,0.7848,0.47088,9.819809999999999
2146464625,21.84,0.0,0.0,0.0,0.75537,0.47088,9.81
2151515130,21.84,0.0,0.0,0.0,0.71613,0.49050000000000005,9.819809999999999
2156565635,21.84,0.0,0.0,0.0,0.72594,0.49050000000000005,9.81
2161616140,21.84,0.0,0.0,0.0,0.75537,0.47088,9.83943
2166666645,21.84,0.0,0.0,0.0,0.7749900000000001,0.48069000000000006,9.84924
2171717150,21.84,0.0,0.0,0.0,0.7749900000000001,0.48069000000000006,9.84924
2176767655,21.84,0.0,0.0,0.0,0.75537,0.48069000000000006,9.79038
2181818160,21.84,0.0,0.0,0.0,0.75537,0.46107000000000004,9.81
2186868665,21.84,0.0,0.0,0.0,0.7848,0.48069000000000006,9.83943
2191919170,21.84,0.0,0.0,0.0,0.74556,0.45126,9.83943
2196969675,21.84,0.0,0.0,0.0,0.74556,0.47088,9.83943
2202020180,21.84,0.0,0.0,0.0,0.74556,0.48069000000000006,9.83943
2207070685,21.84,0.0,0.0,0.0,0.74556,0.48069000000000006,9.85905
2212121190,21.84,0.0,0.0,0.0,0.72594,0.47088,9.83943
2217171695,21.84,0.0,0.0,0.0,0.75537,0.46107000000000004,9.819809999999999
2222222200,21.84,0.0,0.0,0.0,0.75537,0.45126,9.82962
2227272705,21.84,0.0,0.0,0.0,0.7651800000000001,0.46107000000000004,9.80019
2232323210,21.84,0.0,0.0,0.0,0.79461,0.48069000000000006,9.82962
2237373715,21.84,0.0,0.0,0.0,0.7651800000000001,0.45126,9.84924
2242424220,21.84,0.0,0.0,0.0,0.72594,0.48069000000000006,9.81
2247474725,21.84,0.0,0.0,0.0,0.75537,0.49050000000000005,9.80019
2252525230,21.84,0.0,0.0,0.0,0.73575,0.47088,9.82962
2257575735,21.84,0.0,0.0,0.0,0.75537,0.48069000000000006,9.81
2262626240,21.84,0.0,0.0,0.0,0.74556,0.48069000000000006,9.819809999999999
2267676745,21.84,0.0,0.0,0.0,0.7651800000000001,0.47088,9.82962
2272727250,21.84,0.0,0.0,0.0,0.7651800000000001,0.47088,9.83943
2277777755,21.84,0.0,0.0,0.0,0.75537,0.44145,9.81
2282828260,21.84,0.0,0.0,0.0,0.75537,0.46107000000000004,9.81
2287878765,21.84,0.0,0.0,0.0,0.74556,0.49050000000000005,9.82962
2292929270,21.84,0.0,0.0,0.0,0.74556,0.50031,9.82962
2297979775,21.84,0.0,0.0,0.0,0.75537,0.49050000000000005,9.82962
2303030280,21.84,0.0,0.0,0.0,0.72594,0.50031,9.84924
2308080785,21.84,0.0,0.0,0.0,0.75537,0.46107000000000004,9.83943
2313131290,21.84,0.0,0.0,0.0,0.75537,0.47088,9.819809999999999
2318181795,21.84,0.0,0.0,0.0,0.75537,0.48069000000000006,9.819809999999999
2323232300,21.84,0.0,0.0,0.0,0.75537,0.48069000000000006,9.84924
2328282805,21.84,0.0,0.0,0.0,0.74556,0.47088,9.81
2333333310,21.84,0.0,0.0,0.0,0.75537,0.50031,9.84924
2338383815,21.84,0.0,0.0,0.0,0.7651800000000001,0.48069000000000006,9.82962
2343434320,21.84,0.0,0.0,0.0,0.7651800000000001,0.48069000000000006,9.83943
2348484825,21.84,0.0,0.0,0.0,0.7749900000000001,0.48069000000000006,9.819809999999999
2353535330,21.84,0.0,0.0,0.0,0.75537,0.47088,9.81
2358585835,21.84,0.0,0.0,0.0,0.74556,0.49050000000000005,9.82962
2363636340,21.84,0.0,0.0,0.0,0.72594,0.50031,9.81
2368686845,21.84,0.0,0.0,0.0,0.74556,0.48069000000000006,9.81
2373737350,21.84,0.0,0.0,0.0,0.7651800000000001,0.48069000000000006,9.81
2378787855,21.84,0.0,0.0,0.0,0.74556,0.45126,9.82962
2383838360,21.84,0.0,0.0,0.0,0.75537,0.49050000000000005,9.81
2388888865,21.84,0.0,0.0,0.0,0.7749900000000001,0.47088,9.81
2393939370,21.84,0.0,0.0,0.0,0.75537,0.50031,9.81
2398989875,21.84,0.0,0.0,0.0,0.75537,0.50031,9.819809999999999
2404040380,21.84,0.0,0.0,0.0,0.73575,0.47088,9.819809999999999
2409090885,21.84,0.0,0.0,0.0,0.73575,0.47088,9.819809999999999
2414141390,21.84,0.0,0.0,0.0,0.75537,0.45126,9.819809999999999
2419191895,21.84,0.0,0.0,0.0,0.75537,0.47088,9.81
2424242400,21.84,0.0,0.0,0.0,0.7848,0.48069000000000006,9.819809999999999
2429292905,21.84,0.0,0.0,0.0,0.7749900000000001,0.48069000000000006,9.83943
2434343410,21.84,0.0,0.0,0.0,0.75537,0.50031,9.819809999999999
2439393915,21.84,0.0,0.0,0.0,0.74556,0.49050000000000005,9.81
2444444420,21.84,0.0,0.0,0.0,0.74556,0.45126,9.81
2449494925,21.84,0.0,0.0,0.0,0.75537,0.47088,9.80019
2454545430,21.84,0.0,0.0,0.0,0.74556,0.47088,9.81
2459595935,21.84,0.0,0.0,0.0,0.75537,0.47088,9.83943
2464646440,21.84,0.0,0.0,0.0,0.7651800000000001,0.49050000000000005,9.81
2469696945,21.84,0.0,0.0,0.0,0.74556,0.47088,9.81
2474747450,21.84,0.0,0.0,0.0,0.7848,0.48069000000000006,9.80019
2479797955,21.84,0.0,0.0,0.0,0.74556,0.46107000000000004,9.82962
2484848460,21.84,0.0,0.0,0.0,0.75537,0.46107000000000004,9.84924
2489898965,21.84,0.0,0.0,0.0,0.75537,0.47088,9.82962
2494949470,21.84,0.0,0.0,0.0,0.7651800000000001,0.49050000000000005,9.81
2499999975,21.84,0.0,0.0,0.0,0.74556,0.49050000000000005,9.819809999999999
2505050480,21.84,0.0,0.0,0.0,0.75537,0.47088,9.82962
2510100985,21.84,0.0,0.0,0.0,0.73575,0.48069000000000006,9.84924
2515151490,21.84,0.0,0.0,0.0,0.75537,0.45126,9.819809999999999
2520201995,21.84,0.0,0.0,0.0,0.7651800000000001,0.46107000000000004,9.819809999999999
2525252500,21.84,0.0,0.0,0.0,0.74556,0.47088,9.80019
2530303005,21.84,0.0,0.0,0.0,0.74556,0.50031,9.80019
2535353510,21.84,0.0,0.0,0.0,0.7651800000000001,0.48069000000000006,9.82962
2540404015,21.84,0.0,0.0,0.0,0.7651800000000001,0.46107000000000004,9.85905
2545454520,21.84,0.0,0.0,0.0,0.7749900000000001,0.45126,9.86886
2550505025,21.84,0.0,0.0,0.0,0.73575,0.49050000000000005,9.82962
2555555530,21.84,0.0,0.0,0.0,0.7749900000000001,0.50031,9.80019
2560606035,21.84,0.0,0.0,0.0,0.7749900000000001,0.47088,9.81
2565656540,21.84,0.0,0.0,0.0,0.75537,0.49050000000000005,9.81
2570707045,21.84,0.0,0.0,0.0,0.72594,0.49050000000000005,9.84924
2575757550,21.84,0.0,0.0,0.0,0.75537,0.46107000000000004,9.84924
2580808055,21.84,0.0,0.0,0.0,0.74556,0.46107000000000004,9.80019
2585858560,21.84,0.0,0.0,0.0,0.71613,0.47088,9.82962
2590909065,21.84,0.0,0.0,0.0,0.75537,0.47088,9.82962
2595959570,21.84,0.0,0.0,0.0,0.75537,0.48069000000000006,9.819809999999999
2601010075,21.84,0.0,0.0,0.0,0.75537,0.48069000000000006,9.79038
2606060580,21.84,0.0,0.0,0.0,0.74556,0.47088,9.81
2611111085,21.84,0.0,0.0,0.0,0.79461,0.47088,9.819809999999999
2616161590,21.84,0.0,0.0,0.0,0.7651800000000001,0.47088,9.85905
2621212095,21.84,0.0,0.0,0.0,0.75537,0.46107000000000004,9.819809999999999
2626262600,21.84,0.0,0.0,0.0,0.75537,0.48069000000000006,9.83943
2631313105,21.84,0.0,0.0,0.0,0.74556,0.47088,9.81
2636363610,21.84,0.0,0.0,0.0,0.74556,0.48069000000000006,9.81
2641414115,21.84,0.0,0.0,0.0,0.7651800000000001,0.47088,9.82962
2646464620,21.84,0.0,0.0,0.0,0.75537,0.47088,9.83943
2651515125,21.84,0.0,0.0,0.0,0.74556,0.46107000000000004,9.82962
2656565630,21.84,0.0,0.0,0.0,0.75537,0.48069000000000006,9.83943
2661616135,21.84,0.0,0.0,0.0,0.7651800000000001,0.48069000000000006,9.79038
2666666640,21.84,0.0,0.0,0.0,0.73575,0.47088,9.79038
2671717145,21.84,0.0,0.0,0.0,0.7651800000000001,0.48069000000000006,9.81
2676767650,21.84,0.0,0.0,0.0,0.75537,0.48069000000000006,9.819809999999999
2681818155,21.84,0.0,0.0,0.0,0.74556,0.48069000000000006,9.819809999999999
2686868660,21.84,0.0,0.0,0.0,0.75537,0.48069000000000006,9.82962
2691919165,21.84,0.0,0.0,0.0,0.74556,0.47088,9.79038
2696969670,21.84,0.0,0.0,0.0,0.7749900000000001,0.48069000000000006,9.80019
2702020175,21.84,0.0,0.0,0.0,0.74556,0.46107000000000004,9.82962
2707070680,21.84,0.0,0.0,0.0,0.7749900000000001,0.48069000000000006,9.84924
2712121185,21.84,0.0,0.0,0.0,0.75537,0.52974,9.80019
2717171690,21.84,0.001064650843716541,0.00958185759344887,0.0,0.69651,0.51012,9.79038
2722222195,21.84,0.0,0.00958185759344887,0.0,0.6670800000000001,0.5591700000000001,9.78057
2727272700,21.84,0.0,0.05113814708343386,0.0,1.06929,0.28449,9.78057
2732323205,21.84,-0.00958185759344887,0.19493582415524666,-0.006387905062299246,0.16677000000000003,0.69651,10.03563
2737373710,21.84,-0.007452555906015787,0.1555262896452147,-0.004258603374866164,0.38259000000000004,0.24525000000000002,10.300500000000001
2742424215,21.84,0.006387905062299246,0.27803094984269666,-0.008517206749732328,-1.02024,0.72594,9.4176
2747474720,21.84,-0.007452555906015787,0.14700908289548237,-0.005323254218582705,-1.5696,0.40221,9.074250000000001
2752525225,21.84,-0.024504422698000388,0.13102186694721432,0.0,-0.70632,0.45126,9.937529999999999
2757575730,21.84,0.001064650843716541,-0.05220279792715039,0.003193952531149623,-2.7173700000000003,0.40221,10.75176
2762626235,21.84,0.00958185759344887,-0.23116885942664894,0.01064650843716541,-0.02943,0.5591700000000001,9.56475
2767676740,21.84,-0.015987215948268057,-0.27377234646783055,0.011711159280881954,-1.5303600000000002,0.5395500000000001,10.33974
2772727245,21.84,0.031956978604016174,-0.519846317706511,0.011711159280881954,1.43226,-0.05886,8.71128
2777777750,21.84,-0.023439771854283843,-0.24500932039496398,0.011711159280881954,1.9914300000000003,2.16801,9.78057
2782828255,21.84,0.08628907821859966,-0.4442212012175968,0.011711159280881954,4.2575400000000005,0.039240000000000004,11.45808
2787878760,21.84,-0.09480628496833199,0.17683675981206545,0.0,3.65913,0.009810000000000001,9.70209
2792929265,21.84,-0.028763026072866547,0.07030186227033158,-0.002129301687433082,2.65851,-0.32373,8.85843
2797979770,21.84,0.01918116847941768,0.2279749068954993,-0.005323254218582705,1.9718100000000003,0.04905,8.35812
2803030275,21.84,-0.004258603374866164,0.4079881659461945,-0.014905111812031574,0.25506,0.48069000000000006,10.457460000000001
2808080780,21.84,0.07030186227033158,0.32171654102011477,-0.012775810124598492,-0.0981,0.69651,11.12454
2813131285,21.84,0.07777187146886733,0.3792425931658478,-0.013840460968315033,-1.45188,0.9123300000000001,11.065679999999999
2818181790,21.84,0.033021629447732716,0.18748326824923087,-0.011711159280881954,-2.2661100000000003,1.03986,9.21159
2823232295,21.84,-0.003193952531149623,0.10545279340549739,0.0,-1.71675,0.44145,8.81919
2828282800,21.84,-0.03408628029144926,-0.054332099614583476,0.003193952531149623,-2.28573,0.8240400000000001,9.14292
2833333305,21.84,-0.06391395720803235,-0.19600047499896323,0.01064650843716541,-0.84366,0.44145,9.60399
2838383810,21.84,-0.022375121010567305,-0.27803094984269666,0.013840460968315033,-0.85347,0.1962,10.908720000000002
2843434315,21.84,-0.03728023282259888,-0.3824365456969975,0.012775810124598492,0.35316,0.31392000000000003,10.26126
2848484820,21.84,-0.005323254218582705,-0.3611260755301467,0.01064650843716541,1.58922,-0.04905,9.84924
2853535325,21.84,0.008517206749732328,-0.3089232776029963,0.01064650843716541,1.9227600000000002,0.59841,9.10368
2858585830,21.84,0.021310470166850764,-0.21731094516581398,0.004258603374866164,3.73761,0.48069000000000006,9.50589
2863636335,21.84,-0.03408628029144926,0.1416858286768997,-0.006387905062299246,3.54141,0.31392000000000003,10.54575
2868686840,21.84,0.031956978604016174,0.12250466019748199,-0.005323254218582705,2.38383,0.40221,9.09387
2873737345,21.84,0.02769837522915001,0.36219072637386324,-0.01064650843716541,0.95157,0.70632,9.67266
2878787850,21.84,0.021310470166850764,0.341944907050729,-0.013840460968315033,-0.22563,0.7749900000000001,10.05525
2883838355,21.84,0.001064650843716541,0.29188886410353165,-0.00958185759344887,-0.51012,0.6278400000000001,10.320120000000001
2888888860,21.84,-0.014905111812031574,0.26099653634323206,-0.008517206749732328,-1.69713,0.6867000000000001,10.33974
2893939365,21.84,-0.02769837522915001,0.06178465552059926,-0.006387905062299246,-1.80504,0.3924,9.74133
2898989870,21.84,-0.03515093113516579,-0.003193952531149623,0.001064650843716541,-1.22625,0.38259000000000004,9.191970000000001
2904040375,21.84,-0.03621558197888234,-0.1374272253020335,0.004258603374866164,-1.60884,0.23544,9.69228
2909090880,21.84,-0.013840460968315033,-0.22156954854068012,0.005323254218582705,0.0,0.1962,9.6138
2914141385,21.84,0.013840460968315033,-0.2396860661763813,0.008517206749732328,0.02943,0.37278,10.26126
2919191890,21.84,0.02982767691658309,-0.27909560068641326,0.008517206749732328,1.02024,0.47088,10.05525
2924242395,21.84,0.02982767691658309,-0.19387117331153014,0.012775810124598492,1.68732,0.50031,9.91791
2929292900,21.84,0.024504422698000388,-0.16938420390604966,0.004258603374866164,1.75599,0.64746,9.6138
2934343405,21.84,0.0170518667919846,-0.03621558197888234,0.0,2.58984,0.72594,9.358740000000001
2939393910,21.84,0.006387905062299246,0.07990117315630041,-0.005323254218582705,1.8442800000000001,0.72594,9.86886
2944444415,21.84,-0.01064650843716541,0.16831955306233315,-0.006387905062299246,1.6284600000000002,0.73575,9.74133
2949494920,21.84,-0.023439771854283843,0.25459117798841285,-0.008517206749732328,0.51993,0.64746,9.98658
2954545425,21.84,-0.031956978604016174,0.22263419938439669,-0.006387905062299246,-0.27468000000000004,0.48069000000000006,10.074869999999999
2959595930,21.84,-0.03834488366631542,0.20027653166634932,-0.003193952531149623,-0.5395500000000001,0.33354000000000006,9.74133
2964646435,21.84,-0.04581489286485115,0.11931070766633237,-0.002129301687433082,-1.21644,0.25506,9.68247
2969696940,21.84,-0.033021629447732716,0.023439771854283843,0.001064650843716541,-0.9123300000000001,0.07848000000000001,9.70209
2974747445,21.84,-0.008517206749732328,-0.04153883619746504,0.001064650843716541,-1.00062,0.32373,9.84924
2979797950,21.84,0.011711159280881954,-0.150203035426632,0.003193952531149623,-0.34335000000000004,0.32373,9.91791
2984848455,21.84,0.02769837522915001,-0.16084954386379738,0.005323254218582705,0.16677000000000003,0.49050000000000005,9.94734
2989898960,21.84,0.024504422698000388,-0.20240583335378237,0.004258603374866164,0.42183,0.56898,9.55494
2994949465,21.84,0.011711159280881954,-0.150203035426632,0.003193952531149623,1.46169,0.5493600000000001,9.60399
2999999970,21.84,0.014905111812031574,-0.08628907821859966,0.004258603374866164,1.1870100000000001,0.8142300000000001,10.143540000000002
3005050475,21.84,0.00958185759344887,-0.08309512568745003,0.001064650843716541,1.58922,0.6670800000000001,9.84924
3010100980,21.84,-0.011711159280881954,0.04153883619746504,0.0,1.46169,0.6867000000000001,9.98658
3015151485,21.84,-0.028763026072866547,-0.020245819323134222,0.002129301687433082,1.0987200000000001,0.45126,9.43722
3020201990,21.84,-0.049008845396000776,0.05646140130201656,-0.003193952531149623,1.5303600000000002,0.33354000000000006,9.5157
3025252495,21.84,-0.022375121010567305,0.024504422698000388,0.003193952531149623,0.5886,0.43164,10.17297
3030303000,21.84,-0.02769837522915001,-0.02663372438543347,-0.001064650843716541,1.26549,0.1962,9.85905
3035353505,21.84,-0.0170518667919846,0.03089232776029963,0.002129301687433082,0.75537,0.3924,10.23183
3040404010,21.84,0.004258603374866164,-0.09480628496833199,0.003193952531149623,0.9123300000000001,0.21582,9.4176
3045454515,21.84,0.002129301687433082,0.023439771854283843,-0.001064650843716541,1.5696,0.57879,9.45684
3050505020,21.84,0.02663372438543347,-0.020245819323134222,0.002129301687433082,0.8338500000000001,0.5886,10.12392
3055555525,21.84,0.008517206749732328,0.03621558197888234,-0.006387905062299246,1.78542,0.5886,9.78057
3060606030,21.84,-0.00958185759344887,0.10866419922916695,0.0,0.52974,0.71613,10.48689
3065656535,21.84,-0.003193952531149623,0.02556907354171693,-0.002129301687433082,0.86328,0.47088,9.39798
3070707040,21.84,-0.04260348704118158,0.13421581947836395,-0.003193952531149623,0.47088,0.57879,9.54513
3075757545,21.84,-0.008517206749732328,0.013840460968315033,0.001064650843716541,0.0,0.40221,9.67266
3080808050,21.84,-0.039409534510031964,0.02769837522915001,0.0,0.45126,0.42183,9.91791
3085858555,21.84,-0.01811651763570114,-0.05007349623971732,0.002129301687433082,-0.06867000000000001,0.37278,10.42803
3090909060,21.84,-0.007452555906015787,-0.13102186694721432,0.0,0.8338500000000001,0.30411,9.42741
3095959565,21.84,-0.01811651763570114,-0.0852244273748831,0.002129301687433082,0.7848,0.42183,9.908100000000001
3101010070,21.84,0.021310470166850764,-0.16938420390604966,0.004258603374866164,1.39302,0.36297,9.25083
3106060575,21.84,-0.008517206749732328,-0.05646140130201656,-0.002129301687433082,1.9227600000000002,0.57879,9.888480000000001
3111111080,21.84,0.02663372438543347,-0.05326744877086694,0.004258603374866164,1.88352,0.69651,10.36917
3116161585,21.84,-0.007452555906015787,0.024504422698000388,-0.003193952531149623,2.09934,0.56898,9.67266
3121212090,21.84,-0.01064650843716541,0.09800023749948161,-0.001064650843716541,1.3832099999999998,0.56898,9.6138
3126262595,21.84,-0.014905111812031574,0.06923721142661506,0.0,1.1477700000000002,0.5395500000000001,9.33912
3131313100,21.84,-0.04366813788489812,0.1416858286768997,-0.003193952531149623,0.94176,0.51012,9.98658
3136363605,21.84,-0.01811651763570114,0.06710790973918197,-0.001064650843716541,0.23544,0.35316,10.418220000000002
3141414110,21.84,-0.03834488366631542,0.04581489286485115,-0.003193952531149623,0.5591700000000001,0.35316,9.751140000000001
3146464615,21.84,-0.015987215948268057,0.02982767691658309,0.0,0.0981,0.2943,9.888480000000001
3151515120,21.84,-0.00958185759344887,-0.06710790973918197,0.0,0.2943,0.31392000000000003,9.496080000000001
3156565625,21.84,-0.006387905062299246,-0.0404741853537485,0.002129301687433082,0.72594,0.42183,9.60399
3161616130,21.84,0.01064650843716541,-0.11079350091660004,0.003193952531149623,0.75537,0.3924,10.08468
3166666635,21.84,-0.002129301687433082,-0.08203047484373349,0.0,1.45188,0.48069000000000006,10.045440000000001
3171717140,21.84,0.008517206749732328,-0.07990117315630041,0.006387905062299246,1.3832099999999998,0.50031,10.045440000000001
3176767645,21.84,0.005323254218582705,-0.06497860805174888,-0.001064650843716541,1.81485,0.5591700000000001,9.53532
3181818150,21.84,0.0,0.01918116847941768,-0.003193952531149623,1.72656,0.6278400000000001,9.67266
3186868655,21.84,-0.006387905062299246,-0.0,-0.002129301687433082,1.46169,0.5395500000000001,9.69228
3191919160,21.84,-0.02556907354171693,0.0756251164889143,0.0,1.6677000000000002,0.47088,9.7119
3196969665,21.84,-0.021310470166850764,0.07349581480148122,0.0,0.94176,0.48069000000000006,10.40841
3202020170,21.84,-0.020245819323134222,0.05113814708343386,-0.001064650843716541,0.9613800000000001,0.3924,9.819809999999999
3207070675,21.84,-0.021310470166850764,0.05752605214573309,0.0,0.60822,0.40221,9.623610000000001
3212121180,21.84,-0.015987215948268057,-0.01918116847941768,0.001064650843716541,0.5395500000000001,0.34335000000000004,9.58437
3217171685,21.84,-0.0170518667919846,-0.012775810124598492,0.0,0.9908100000000001,0.31392000000000003,9.73152
3222222190,21.84,0.0,-0.04581489286485115,0.001064650843716541,0.75537,0.3924,10.27107
3227272695,21.84,0.007452555906015787,-0.04794419455228423,0.0,1.34397,0.49050000000000005,9.74133
3232323200,21.84,0.005323254218582705,-0.01918116847941768,0.0,1.15758,0.51993,9.91791
3237373705,21.84,0.002129301687433082,-0.03089232776029963,0.0,1.3635900000000003,0.49050000000000005,9.5157
3242424210,21.84,-0.005323254218582705,0.02556907354171693,0.0,1.41264,0.52974,9.52551
3247474715,21.84,-0.003193952531149623,0.00958185759344887,0.0,1.10853,0.5591700000000001,10.17297
3252525220,21.84,-0.011711159280881954,0.024504422698000388,0.0,1.2556800000000001,0.48069000000000006,10.006200000000002
3257575725,21.84,-0.020245819323134222,0.012775810124598492,0.0,0.94176,0.40221,9.96696
3262626230,21.84,-0.021310470166850764,0.00958185759344887,-0.001064650843716541,1.13796,0.37278,9.55494
3267676735,21.84,-0.014905111812031574,0.023439771854283843,0.0,1.00062,0.38259000000000004,9.760950000000001
3272727240,21.84,-0.008517206749732328,0.0,0.0,0.89271,0.38259000000000004,9.92772
3277777745,21.84,-0.006387905062299246,-0.001064650843716541,0.0,1.01043,0.35316,9.908100000000001
3282828250,21.84,-0.003193952531149623,-0.021310470166850764,0.0,0.9221400000000001,0.36297,9.86886
3287878755,21.84,0.0,-0.03408628029144926,0.002129301687433082,1.1477700000000002,0.3924,9.74133
3292929260,21.84,0.014905111812031574,-0.02769837522915001,0.001064650843716541,1.2556800000000001,0.51993,9.79038
3297979765,21.84,0.00958185759344887,-0.021310470166850764,0.0,1.3047300000000002,0.56898,10.01601
3303030270,21.84,0.0,0.011711159280881954,0.0,1.42245,0.5493600000000001,9.89829
3308080775,21.84,-0.007452555906015787,0.01918116847941768,0.0,1.1477700000000002,0.48069000000000006,9.70209
3313131280,21.84,-0.014905111812031574,0.033021629447732716,0.0,1.1870100000000001,0.45126,9.54513
3318181785,21.84,-0.015987215948268057,0.039409534510031964,0.0,0.94176,0.38259000000000004,9.770760000000001
3323232290,21.84,-0.01918116847941768,0.008517206749732328,0.001064650843716541,0.84366,0.36297,10.163160000000001
3328282795,21.84,-0.01064650843716541,-0.01811651763570114,0.0,1.02024,0.33354000000000006,10.182780000000001
3333333300,21.84,0.007452555906015787,-0.04581489286485115,0.0,0.9711900000000001,0.41202000000000005,9.79038
3338383805,21.84,0.01064650843716541,-0.04260348704118158,0.0,1.31454,0.47088,9.3195
3343434310,21.84,0.006387905062299246,-0.013840460968315033,0.001064650843716541,1.3832099999999998,0.45126,9.64323
3348484815,21.84,-0.006387905062299246,0.004258603374866164,-0.003193952531149623,1.44207,0.41202000000000005,10.06506
3353535320,21.84,-0.003193952531149623,0.05539675045830002,-0.002129301687433082,1.45188,0.43164,10.19259
3358585825,21.84,0.003193952531149623,0.05220279792715039,-0.002129301687433082,0.9319500000000001,0.5395500000000001,10.025820000000001
3363636330,21.84,0.006387905062299246,0.06284930636431581,-0.004258603374866164,0.89271,0.5395500000000001,9.36855
3368686835,21.84,-0.005323254218582705,0.02982767691658309,0.001064650843716541,0.48069000000000006,0.46107000000000004,9.60399
3373737340,21.84,-0.014905111812031574,-0.01064650843716541,0.0,0.6670800000000001,0.43164,9.84924
3378787845,21.84,-0.014905111812031574,-0.04260348704118158,0.001064650843716541,0.73575,0.36297,10.32993
3383838350,21.84,-0.004258603374866164,-0.08203047484373349,0.002129301687433082,1.03005,0.34335000000000004,10.12392
3388888855,21.84,-0.001064650843716541,-0.05326744877086694,0.0,1.3832099999999998,0.31392000000000003,9.53532
3393939360,21.84,0.003193952531149623,-0.022375121010567305,0.0,1.46169,0.33354000000000006,9.52551
3398989865,21.84,0.012775810124598492,0.05646140130201656,-0.001064650843716541,1.5499800000000001,0.50031,9.73152
3404040370,21.84,0.01811651763570114,0.12144000935376545,-0.004258603374866164,1.02024,0.56898,10.09449
3409090875,21.84,0.008517206749732328,0.1480737337391989,-0.007452555906015787,0.51012,0.56898,10.01601
3414141380,21.84,-0.00958185759344887,0.12569861272863161,-0.005323254218582705,-0.07848000000000001,0.49050000000000005,9.7119
3419191885,21.84,-0.012775810124598492,0.04581489286485115,0.0,-0.22563,0.51993,9.496080000000001
3424242390,21.84,-0.01811651763570114,-0.06817256058289851,0.006387905062299246,-0.41202000000000005,0.41202000000000005,10.074869999999999
3429292895,21.84,0.0,-0.24075071702009782,0.00958185759344887,0.26487,0.28449,9.908100000000001
3434343400,21.84,0.001064650843716541,-0.328104446082414,0.01064650843716541,1.1183400000000001,2.2268700000000003,9.65304
3439393905,21.84,0.024504422698000388,-0.4548677096547622,0.015987215948268057,5.003100000000001,0.35316,11.34036
3444444410,21.84,-0.08948303074974927,-0.1288925652597812,0.004258603374866164,3.57084,-0.23544,9.57456
3449494915,21.84,-0.07670722062515077,-0.03089232776029963,0.0,4.1888700000000005,-0.70632,7.955910000000001
3454545420,21.84,0.003193952531149623,0.14594443205176583,-0.007452555906015787,3.7278000000000002,-0.59841,8.88786
3459595925,21.84,0.013840460968315033,0.31852258848896514,-0.014905111812031574,2.81547,-0.20601000000000003,10.15335
3464646430,21.84,0.10866419922916695,0.4442212012175968,-0.014905111812031574,1.8737100000000002,0.5493600000000001,11.016630000000001
3469696935,21.84,0.13849187614575004,0.5102644601130623,-0.0170518667919846,-0.52974,1.2753,11.21283
3474747440,21.84,0.1097288500728835,0.36432002806129626,-0.013840460968315033,-1.65789,1.16739,9.81
3479797945,21.84,0.023439771854283843,0.23755676448894822,-0.008517206749732328,-2.32497,1.19682,9.20178
3484848450,21.84,-0.02769837522915001,-0.023439771854283843,0.002129301687433082,-2.39364,0.86328,9.2214
3489898955,21.84,-0.05859070298944965,-0.1757721089683489,0.00958185759344887,-1.6284600000000002,0.5886,9.39798
3494949460,21.84,-0.08628907821859966,-0.3696432822798791,0.012775810124598492,-0.9221400000000001,0.14715,10.40841
3499999965,21.84,-0.07456046564519776,-0.4804367831964791,0.0170518667919846,0.7749900000000001,-0.16677000000000003,10.11411
3505050470,21.84,-0.03834488366631542,-0.4665788689356441,0.015987215948268057,1.7658,0.75537,10.163160000000001
3510100975,21.84,0.06923721142661506,-0.4846953865713453,0.01811651763570114,5.003100000000001,0.34335000000000004,10.11411
3515151480,21.84,-0.044732788728614664,-0.005323254218582705,0.001064650843716541,4.65975,-0.10791,10.025820000000001
3520201985,21.84,0.00958185759344887,-0.001064650843716541,-0.001064650843716541,4.29678,-0.48069000000000006,7.965720000000001
3525252490,21.84,0.049008845396000776,0.23223351027036546,-0.007452555906015787,3.1882500000000005,0.28449,8.58375
3530302995,21.84,0.08203047484373349,0.3355570019884298,-0.013840460968315033,2.42307,0.52974,10.23183
3535353500,21.84,0.10119419003063122,0.3952123558215959,-0.01811651763570114,0.86328,1.03986,10.82043
3540404005,21.84,0.06497860805174888,0.3472681612693117,-0.0170518667919846,-0.25506,1.19682,11.046059999999999
3545454510,21.84,0.03728023282259888,0.22903955773921586,-0.00958185759344887,-1.10853,1.03986,9.72171
3550505015,21.84,-0.01918116847941768,0.11611675513518273,-0.003193952531149623,-1.3537800000000002,0.8338500000000001,9.4176
3555555520,21.84,-0.04153883619746504,-0.02982767691658309,0.003193952531149623,-1.21644,0.64746,9.035010000000002
3560606025,21.84,-0.07456046564519776,-0.14594443205176583,0.008517206749732328,-0.90252,0.27468000000000004,9.36855
3565656530,21.84,-0.06923721142661506,-0.27590164815526363,0.012775810124598492,-0.07848000000000001,-0.12753,10.143540000000002
3570707035,21.84,-0.05752605214573309,-0.32171654102011477,0.011711159280881954,1.06929,-0.16677000000000003,10.62423
3575757540,21.84,0.001064650843716541,-0.3206518901763982,0.008517206749732328,1.81485,-0.16677000000000003,10.457460000000001
3580808045,21.84,0.05113814708343386,-0.2599318854995155,0.006387905062299246,2.93319,0.7848,9.56475
3585858550,21.84,0.031956978604016174,-0.08415977653116657,0.001064650843716541,4.19868,0.45126,9.92772
3590909055,21.84,0.02769837522915001,0.04153883619746504,-0.003193952531149623,3.24711,0.11772,8.779950000000001
3595959560,21.84,0.01918116847941768,0.19387117331153014,-0.008517206749732328,2.48193,0.44145,8.99577
3601010065,21.84,0.06178465552059926,0.24500932039496398,-0.008517206749732328,1.7756100000000001,0.70632,10.23183
3606060570,21.84,0.049008845396000776,0.2641904888743817,-0.01064650843716541,0.6670800000000001,0.79461,10.84005
3611111075,21.84,0.01811651763570114,0.20666443672864854,-0.008517206749732328,-0.02943,0.71613,10.66347
3616161580,21.84,-0.003193952531149623,0.1097288500728835,-0.004258603374866164,-0.50031,0.5395500000000001,9.50589
3621212085,21.84,-0.011711159280881954,0.0170518667919846,-0.001064650843716541,-0.34335000000000004,0.43164,9.025200000000002
3626262590,21.84,-0.0170518667919846,-0.03728023282259888,0.001064650843716541,-0.30411,0.43164,9.37836
3631313095,21.84,-0.011711159280881954,-0.11505210429146619,0.006387905062299246,0.07848000000000001,0.1962,9.94734
3636363600,21.84,-0.006387905062299246,-0.16191419470751395,0.005323254218582705,0.69651,0.27468000000000004,10.32993
3641414105,21.84,0.020245819323134222,-0.18535396656179778,0.006387905062299246,1.08891,0.32373,10.29069
3646464610,21.84,0.03408628029144926,-0.18428931571808121,0.005323254218582705,1.7658,0.41202000000000005,9.60399
3651515115,21.84,0.03515093113516579,-0.12250466019748199,0.004258603374866164,2.18763,1.1477700000000002,9.29007
3656565620,21.84,-0.003193952531149623,-0.022375121010567305,0.0,3.08034,0.34335000000000004,10.08468
3661616125,21.84,-0.011711159280881954,0.0404741853537485,-0.004258603374866164,2.10915,0.2943,9.39798
3666666630,21.84,0.0,0.12037535851004891,-0.006387905062299246,1.85409,0.36297,9.3195
3671717135,21.84,0.015987215948268057,0.13102186694721432,-0.008517206749732328,1.41264,0.48069000000000006,10.08468
3676767640,21.84,0.00958185759344887,0.1555262896452147,-0.007452555906015787,0.8338500000000001,0.5395500000000001,10.24164
3681818145,21.84,0.0170518667919846,0.10653489754173388,-0.002129301687433082,0.41202000000000005,0.49050000000000005,10.05525
3686868650,21.84,0.007452555906015787,0.0852244273748831,-0.002129301687433082,0.20601000000000003,0.56898,9.888480000000001
3691919155,21.84,0.006387905062299246,-0.007452555906015787,0.0,-0.13734000000000002,0.52974,9.496080000000001
3696969660,21.84,-0.011711159280881954,-0.049008845396000776,0.0,0.51993,0.31392000000000003,9.54513
3702020165,21.84,-0.002129301687433082,-0.07883652231258387,0.002129301687433082,0.37278,0.43164,9.87867
3707070670,21.84,0.002129301687433082,-0.1374272253020335,0.002129301687433082,1.24587,0.22563,10.08468
3712121175,21.84,0.023439771854283843,-0.06817256058289851,0.002129301687433082,1.3537800000000002,0.51993,10.27107
3717171680,21.84,0.028763026072866547,-0.12676326357234816,0.003193952531149623,1.3734000000000002,0.36297,9.60399
3722222185,21.84,0.007452555906015787,-0.00958185759344887,-0.003193952531149623,2.2661100000000003,0.47088,9.58437
3727272690,21.84,0.021310470166850764,-0.022375121010567305,0.003193952531149623,1.39302,0.57879,9.89829
3732323195,21.84,0.00958185759344887,0.05113814708343386,-0.004258603374866164,2.49174,0.46107000000000004,9.32931
3737373700,21.84,0.02663372438543347,0.10759954838545042,0.0,0.7848,0.72594,10.33974
3742424205,21.84,0.003193952531149623,0.033021629447732716,-0.005323254218582705,1.45188,0.44145,9.57456
3747474710,21.84,0.002129301687433082,0.13849187614575004,-0.003193952531149623,0.70632,0.57879,9.95715
3752525215,21.84,-0.001064650843716541,-0.011711159280881954,0.0,0.51993,0.44145,9.751140000000001
3757575720,21.84,0.0,0.10866419922916695,-0.001064650843716541,0.89271,0.48069000000000006,9.74133
3762626225,21.84,0.0,-0.01064650843716541,-0.001064650843716541,0.0,0.45126,9.96696
3767676730,21.84,0.006387905062299246,0.07990117315630041,-0.004258603374866164,1.08891,0.45126,9.38817
3772727235,21.84,-0.005323254218582705,0.039409534510031964,-0.002129301687433082,-0.34335000000000004,0.41202000000000005,10.457460000000001
3777777740,21.84,0.014905111812031574,0.044732788728614664,-0.004258603374866164,0.73575,0.5591700000000001,9.074250000000001
3782828245,21.84,-0.007452555906015787,0.05220279792715039,0.001064650843716541,-0.31392000000000003,0.36297,10.15335
3787878750,21.84,0.01811651763570114,-0.006387905062299246,0.0,0.23544,0.60822,9.6138
3792929255,21.84,-0.008517206749732328,-0.033021629447732716,0.002129301687433082,-0.039240000000000004,0.37278,10.08468
3797979760,21.84,0.033021629447732716,-0.09054768159346581,0.001064650843716541,0.3924,0.6867000000000001,9.760950000000001
3803030265,21.84,0.0,-0.11611675513518273,0.004258603374866164,0.5591700000000001,0.51993,9.60399
3808080770,21.84,0.013840460968315033,-0.12463396188491506,0.003193952531149623,1.2556800000000001,0.51993,9.751140000000001
3813131275,21.84,-0.01811651763570114,-0.11079350091660004,0.004258603374866164,1.2851100000000002,0.46107000000000004,9.78057
3818181780,21.84,0.003193952531149623,-0.05859070298944965,0.0,2.04048,0.42183,10.05525
3823232285,21.84,0.002129301687433082,-0.02556907354171693,0.001064650843716541,1.4715,0.5493600000000001,9.95715
3828282790,21.84,0.0,0.06923721142661506,-0.001064650843716541,1.9620000000000002,0.41202000000000005,9.55494
3833333295,21.84,0.006387905062299246,0.07990117315630041,-0.004258603374866164,1.0791000000000002,0.52974,9.66285
3838383800,21.84,0.001064650843716541,0.15126768627034853,-0.004258603374866164,1.08891,0.52974,9.67266
3843434305,21.84,-0.002129301687433082,0.13421581947836395,-0.004258603374866164,0.2943,0.50031,10.143540000000002
3848484810,21.84,-0.007452555906015787,0.14275047952061623,-0.004258603374866164,0.11772,0.51993,9.89829
3853535315,21.84,-0.020245819323134222,0.07136651311404815,-0.005323254218582705,-0.33354000000000006,0.2943,10.06506
3858585820,21.84,-0.012775810124598492,0.05326744877086694,0.0,-0.05886,0.44145,9.45684
3863636325,21.84,-0.006387905062299246,-0.03834488366631542,0.0,-0.51993,0.31392000000000003,9.770760000000001
3868686830,21.84,0.028763026072866547,-0.06284930636431581,0.002129301687433082,0.22563,0.56898,9.5157
3873737335,21.84,-0.00958185759344887,-0.12569861272863161,0.005323254218582705,0.0,0.42183,10.27107
3878787840,21.84,0.01918116847941768,-0.15978489302008084,0.003193952531149623,0.9810000000000001,0.46107000000000004,9.74133
3883838345,21.84,-0.007452555906015787,-0.13102186694721432,0.005323254218582705,1.04967,0.51993,9.908100000000001
3888888850,21.84,0.031956978604016174,-0.11824605682261582,0.001064650843716541,1.79523,0.5591700000000001,9.623610000000001
3893939355,21.84,0.0,-0.04260348704118158,0.001064650843716541,1.60884,0.60822,9.6138
3898989860,21.84,0.001064650843716541,0.0404741853537485,0.0,1.9227600000000002,0.57879,9.7119
3904040365,21.84,-0.01064650843716541,0.06923721142661506,-0.005323254218582705,1.2753,0.56898,9.95715
3909090870,21.84,-0.001064650843716541,0.15446163880149816,-0.003193952531149623,1.22625,0.63765,9.84924
3914141375,21.84,-0.01811651763570114,0.11505210429146619,-0.003193952531149623,0.26487,0.51012,9.84924
3919191880,21.84,-0.02769837522915001,0.15233233711406508,-0.008517206749732328,0.33354000000000006,0.44145,9.56475
3924242385,21.84,-0.028763026072866547,0.05007349623971732,0.0,-0.46107000000000004,0.25506,10.006200000000002
3929292890,21.84,-0.013840460968315033,0.04366813788489812,-0.003193952531149623,0.18639,0.48069000000000006,9.53532
3934343395,21.84,-0.008517206749732328,-0.05752605214573309,0.001064650843716541,-0.43164,0.22563,10.182780000000001
3939393900,21.84,0.008517206749732328,-0.04794419455228423,-0.001064650843716541,0.5395500000000001,0.6180300000000001,9.5157
3944444405,21.84,0.0,-0.11292280260403312,0.007452555906015787,0.02943,0.24525000000000002,10.1043
3949494910,21.84,0.02556907354171693,-0.08628907821859966,0.001064650843716541,1.21644,0.69651,9.3195
3954545415,21.84,-0.003193952531149623,-0.08309512568745003,0.007452555906015787,0.59841,0.37278,10.29069
3959595920,21.84,0.0170518667919846,-0.07243116395776468,-0.001064650843716541,1.65789,0.73575,9.52551
3964646425,21.84,-0.020245819323134222,-0.007452555906015787,0.003193952531149623,0.9123300000000001,0.38259000000000004,10.19259
3969696930,21.84,0.012775810124598492,0.00958185759344887,-0.006387905062299246,1.85409,0.6867000000000001,9.38817
3974747435,21.84,-0.021310470166850764,0.08096582400001695,0.001064650843716541,0.5493600000000001,0.44145,9.99639
3979797940,21.84,-0.002129301687433082,0.07243116395776468,-0.007452555906015787,1.3537800000000002,0.60822,9.52551
3984848445,21.84,-0.03408628029144926,0.12356931104119852,0.001064650843716541,-0.12753,0.45126,10.1043
3989898950,21.84,-0.028763026072866547,0.04794419455228423,-0.005323254218582705,0.6768900000000001,0.20601000000000003,9.92772
3994949455,21.84,-0.013840460968315033,0.10225884087434776,0.001064650843716541,-0.45126,0.45126,10.01601
3999999960,21.84,-0.00958185759344887,-0.05965535383316618,-0.002129301687433082,0.1962,0.30411,9.57456
4005050465,21.84,0.00958185759344887,0.01918116847941768,0.002129301687433082,-0.009810000000000001,0.5395500000000001,9.80019
4010100970,21.84,-0.006387905062299246,-0.1480737337391989,0.001064650843716541,0.36297,0.36297,9.85905
4015151475,21.84,0.014905111812031574,-0.0170518667919846,0.0,0.9908100000000001,0.59841,9.70209
4020201980,21.84,0.0,-0.11611675513518273,0.003193952531149623,0.43164,0.50031,10.320120000000001
4025252485,21.84,0.003193952531149623,0.012775810124598492,0.0,1.73637,0.6278400000000001,9.358740000000001
4030302990,21.84,-0.013840460968315033,-0.03515093113516579,0.005323254218582705,0.27468000000000004,0.42183,10.182780000000001
4035353495,21.84,-0.007452555906015787,0.039409534510031964,-0.005323254218582705,1.79523,0.63765,9.25083
4040404000,21.84,-0.008517206749732328,0.012775810124598492,0.005323254218582705,0.0,0.37278,10.418220000000002
4045454505,21.84,-0.01918116847941768,0.039409534510031964,-0.007452555906015787,1.43226,0.59841,9.42741
4050505010,21.84,-0.008517206749732328,0.046879543708567686,0.004258603374866164,-0.12753,0.37278,10.13373
4055555515,21.84,-0.023439771854283843,-0.013840460968315033,-0.005323254218582705,0.9613800000000001,0.46107000000000004,9.42741
4060606020,21.84,-0.012775810124598492,0.08415977653116657,0.0,0.25506,0.37278,10.03563
4065656525,21.84,-0.01064650843716541,-0.05113814708343386,-0.001064650843716541,0.30411,0.41202000000000005,9.86886
4070707030,21.84,-0.007452555906015787,0.07883652231258387,0.001064650843716541,0.75537,0.48069000000000006,9.58437
4075757535,21.84,0.004258603374866164,-0.05539675045830002,0.001064650843716541,-0.15696000000000002,0.44145,10.15335
4080808040,21.84,-0.007452555906015787,0.021310470166850764,-0.001064650843716541,0.95157,0.5886,9.14292
4085858545,21.84,-0.005323254218582705,-0.031956978604016174,0.005323254218582705,-0.23544,0.46107000000000004,10.56537
4090909050,21.84,-0.002129301687433082,-0.06391395720803235,-0.004258603374866164,1.06929,0.57879,9.29007
4095959555,21.84,-0.022375121010567305,0.022375121010567305,0.003193952531149623,0.42183,0.36297,10.437840000000001
4101010060,21.84,0.005323254218582705,-0.08841837990603273,0.0,0.7848,0.59841,9.37836
4106060565,21.84,-0.033021629447732716,0.06497860805174888,0.0,1.1477700000000002,0.35316,9.66285
4111111070,21.84,0.003193952531149623,-0.028763026072866547,0.001064650843716541,0.31392000000000003,0.5591700000000001,10.06506
4116161575,21.84,-0.02982767691658309,0.05859070298944965,0.0,1.1870100000000001,0.31392000000000003,9.44703
4121212080,21.84,-0.012775810124598492,0.046879543708567686,0.0,-0.04905,0.51012,10.712520000000001
4126262585,21.84,-0.001064650843716541,-0.004258603374866164,-0.001064650843716541,0.6768900000000001,0.46107000000000004,9.00558
4131313090,21.84,-0.022375121010567305,0.06391395720803235,-0.002129301687433082,0.18639,0.37278,10.19259
4136363595,21.84,0.008517206749732328,-0.04581489286485115,0.002129301687433082,0.17658,0.60822,9.44703
4141414100,21.84,-0.02982767691658309,0.02556907354171693,-0.004258603374866164,0.6867000000000001,0.35316,9.89829
4146464605,21.84,0.00958185759344887,-0.03834488366631542,0.002129301687433082,0.06867000000000001,0.6180300000000001,10.32993
4151515110,21.84,-0.013840460968315033,-0.012775810124598492,0.001064650843716541,0.80442,0.42183,9.10368
4156565615,21.84,-0.00958185759344887,0.015987215948268057,0.0,0.2943,0.51012,10.300500000000001
4161616120,21.84,-0.00958185759344887,-0.03728023282259888,0.003193952531149623,0.45126,0.47088,9.46665
4166666625,21.84,-0.023439771854283843,0.024504422698000388,-0.001064650843716541,0.8240400000000001,0.36297,9.79038
4171717130,21.84,-0.007452555906015787,0.003193952531149623,0.002129301687433082,0.08829,0.5493600000000001,10.418220000000002
4176767635,21.84,-0.007452555906015787,-0.013840460968315033,0.0,0.85347,0.37278,9.34893
4181818140,21.84,-0.011711159280881954,0.04794419455228423,0.0,0.24525000000000002,0.51993,9.97677
4186868645,21.84,-0.006387905062299246,-0.012775810124598492,0.0,0.33354000000000006,0.41202000000000005,9.60399
4191919150,21.84,-0.01918116847941768,0.0404741853537485,0.001064650843716541,0.51012,0.37278,9.937529999999999
4196969655,21.84,-0.00958185759344887,0.0,0.002129301687433082,-0.039240000000000004,0.51993,10.36917
4202020160,21.84,-0.00958185759344887,-0.01064650843716541,-0.002129301687433082,0.59841,0.35316,9.54513
4207070665,21.84,-0.01064650843716541,0.013840460968315033,0.0,0.11772,0.50031,9.94734
4212121170,21.84,-0.003193952531149623,-0.05113814708343386,0.0,0.43164,0.41202000000000005,9.53532
4217171675,21.84,-0.01064650843716541,0.01918116847941768,-0.001064650843716541,0.60822,0.51012,9.85905
4222222180,21.84,-0.01064650843716541,-0.0170518667919846,0.001064650843716541,0.27468000000000004,0.40221,10.280880000000002
4227272685,21.84,-0.014905111812031574,0.011711159280881954,-0.001064650843716541,0.74556,0.45126,9.623610000000001
4232323190,21.84,-0.011711159280881954,0.02663372438543347,0.001064650843716541,0.15696000000000002,0.43164,10.1043
4237373695,21.84,-0.004258603374866164,-0.004258603374866164,0.0,0.50031,0.45126,9.50589
4242424200,21.84,-0.0170518667919846,0.05752605214573309,0.0,0.2943,0.40221,9.89829
4247474705,21.84,0.0,-0.01918116847941768,0.0,-0.009810000000000001,0.45126,10.1043
4252525210,21.84,-0.004258603374866164,0.003193952531149623,0.0,0.49050000000000005,0.46107000000000004,9.52551
4257575715,21.84,-0.008517206749732328,-0.01918116847941768,0.003193952531149623,0.12753,0.42183,10.182780000000001
4262626220,21.84,-0.005323254218582705,-0.02556907354171693,-0.001064650843716541,0.60822,0.45126,9.52551
4267676725,21.84,-0.01064650843716541,0.0170518667919846,0.0,0.3924,0.44145,10.006200000000002
4272727230,21.84,0.003193952531149623,-0.031956978604016174,0.0,0.32373,0.50031,9.85905
4277777735,21.84,-0.0170518667919846,0.006387905062299246,0.0,0.6180300000000001,0.41202000000000005,9.760950000000001
4282828240,21.84,-0.006387905062299246,-0.024504422698000388,-0.001064650843716541,0.33354000000000006,0.41202000000000005,10.163160000000001
4287878745,21.84,-0.004258603374866164,0.003193952531149623,-0.002129301687433082,0.7848,0.46107000000000004,9.58437
4292929250,21.84,0.003193952531149623,0.02556907354171693,0.001064650843716541,0.41202000000000005,0.51012,9.98658
4297979755,21.84,-0.001064650843716541,0.007452555906015787,0.0,0.48069000000000006,0.51012,9.68247
4303030260,21.84,-0.014905111812031574,0.04581489286485115,0.0,0.38259000000000004,0.43164,9.81
4308080765,21.84,-0.015987215948268057,0.006387905062299246,0.0,0.12753,0.37278,9.937529999999999
4313131270,21.84,-0.0170518667919846,0.012775810124598492,0.0,0.41202000000000005,0.37278,9.84924
4318181775,21.84,-0.003193952531149623,0.004258603374866164,0.002129301687433082,0.0981,0.40221,10.074869999999999
4323232280,21.84,0.002129301687433082,-0.01811651763570114,-0.001064650843716541,0.33354000000000006,0.43164,9.64323
4328282785,21.84,0.0,0.0,0.0,0.31392000000000003,0.46107000000000004,9.78057
4333333290,21.84,0.0,-0.020245819323134222,0.0,0.34335000000000004,0.45126,9.86886
4338383795,21.84,0.0,0.001064650843716541,0.0,0.45126,0.47088,9.87867
4343434300,21.84,-0.004258603374866164,0.001064650843716541,0.0,0.32373,0.41202000000000005,9.94734
4348484805,21.84,-0.011711159280881954,-0.021310470166850764,0.001064650843716541,0.32373,0.36297,9.908100000000001
4353535310,21.84,-0.008517206749732328,-0.01811651763570114,0.0,0.51012,0.38259000000000004,9.751140000000001
4358585815,21.84,0.005323254218582705,-0.03621558197888234,0.001064650843716541,0.47088,0.41202000000000005,9.91791
4363636320,21.84,0.001064650843716541,-0.02982767691658309,-0.002129301687433082,0.73575,0.45126,9.751140000000001
4368686825,21.84,0.005323254218582705,0.001064650843716541,0.0,0.75537,0.46107000000000004,9.937529999999999
4373737330,21.84,0.0,0.006387905062299246,-0.003193952531149623,0.69651,0.50031,9.89829
4378787835,21.84,-0.002129301687433082,0.05859070298944965,-0.002129301687433082,0.72594,0.43164,9.72171
4383838340,21.84,-0.003193952531149623,0.05646140130201656,-0.001064650843716541,0.25506,0.45126,9.85905
4388888845,21.84,-0.008517206749732328,0.08309512568745003,-0.003193952531149623,0.31392000000000003,0.43164,9.73152
4393939350,21.84,-0.006387905062299246,0.06497860805174888,-0.001064650843716541,-0.25506,0.3924,10.163160000000001
4398989855,21.84,-0.001064650843716541,0.02663372438543347,-0.001064650843716541,-0.1962,0.44145,9.73152
4404040360,21.84,-0.001064650843716541,-0.02663372438543347,0.001064650843716541,-0.30411,0.41202000000000005,9.888480000000001
4409090865,21.84,0.003193952531149623,-0.13208651779093086,0.003193952531149623,-0.06867000000000001,0.41202000000000005,9.79038
4414141370,21.84,-0.006387905062299246,-0.16510814723866357,0.005323254218582705,0.5886,0.34335000000000004,9.633420000000001
4419191875,21.84,0.0,-0.20985838925979816,0.005323254218582705,1.0791000000000002,0.33354000000000006,10.03563
4424242380,21.84,0.006387905062299246,-0.17364280728091586,0.004258603374866164,1.9620000000000002,0.35316,9.85905
4429292885,21.84,0.0170518667919846,-0.07136651311404815,0.001064650843716541,2.2955400000000004,0.47088,9.85905
4434343390,21.84,0.01811651763570114,0.06497860805174888,-0.004258603374866164,2.2955400000000004,0.5886,9.7119
4439393895,21.84,0.020245819323134222,0.18641861740551433,-0.007452555906015787,1.6775100000000003,0.64746,9.633420000000001
4444444400,21.84,-0.003193952531149623,0.31531118266529556,-0.013840460968315033,0.8829,0.5395500000000001,9.46665
4449494905,21.84,-0.022375121010567305,0.3526088687804144,-0.012775810124598492,-0.25506,0.6768900000000001,10.32993
4454545410,21.84,-0.02982767691658309,0.4207814293633129,-0.011711159280881954,-0.9319500000000001,0.40221,10.50651
4459595915,21.84,-0.012775810124598492,0.3312983986135636,-0.01064650843716541,-2.5996500000000005,0.30411,9.81
4464646420,21.84,-0.02769837522915001,0.16617279808238014,-0.004258603374866164,-2.65851,0.20601000000000003,9.73152
4469696925,21.84,0.0,0.0,0.003193952531149623,-2.90376,0.14715,9.30969
4474747430,21.84,-0.012775810124598492,-0.2428800187075309,0.011711159280881954,-2.2366800000000002,0.26487,9.80019
4479797935,21.84,0.01918116847941768,-0.37283723481102865,0.015987215948268057,-1.1183400000000001,0.45126,10.06506
4484848440,21.84,0.001064650843716541,-0.5528679471542438,0.021310470166850764,-0.34335000000000004,0.25506,10.15335
4489898945,21.84,0.007452555906015787,-0.5677905122587952,0.01811651763570114,2.14839,1.50093,9.92772
4494949450,21.84,0.08948303074974927,-0.5709844647899449,0.022375121010567305,3.9828600000000005,0.5886,10.63404
4499999955,21.84,-0.11931070766633237,-0.012775810124598492,-0.002129301687433082,5.30721,-0.41202000000000005,9.908100000000001
4505050460,21.84,-0.046879543708567686,0.049008845396000776,-0.006387905062299246,3.9730500000000006,-0.8829,7.5929400000000005
4510100965,21.84,0.011711159280881954,0.328104446082414,-0.00958185759344887,3.05091,0.0,8.61318
4515151470,21.84,0.04794419455228423,0.48895398994621136,-0.020245819323134222,2.07972,0.1962,10.045440000000001
4520201975,21.84,0.10545279340549739,0.5624672580402125,-0.022375121010567305,-0.33354000000000006,0.72594,11.69352
4525252480,21.84,0.11611675513518273,0.5081351584256291,-0.020245819323134222,-1.3635900000000003,1.3047300000000002,11.41884
4530302985,21.84,0.0852244273748831,0.3632553772175798,-0.0170518667919846,-2.943,1.34397,9.65304
4535353490,21.84,0.0404741853537485,0.14594443205176583,-0.007452555906015787,-2.92338,0.9711900000000001,8.515080000000001
4540403995,21.84,-0.023439771854283843,-0.008517206749732328,-0.001064650843716541,-2.78604,0.9711900000000001,8.7309
4545454500,21.84,-0.05859070298944965,-0.22689280275926285,0.01064650843716541,-2.11896,0.65727,9.23121
4550505005,21.84,-0.09693558665576507,-0.3387509545195794,0.015987215948268057,-1.3341600000000002,0.11772,10.280880000000002
4555555510,21.84,-0.07670722062515077,-0.46979027475931373,0.022375121010567305,-0.15696000000000002,0.02943,11.07549
4560606015,21.84,-0.02663372438543347,-0.4633849164044945,0.0170518667919846,1.3243500000000001,-0.36297,10.280880000000002
4565656520,21.84,-0.00958185759344887,-0.4207814293633129,0.014905111812031574,2.30535,-0.16677000000000003,9.40779
4570707025,21.84,0.05007349623971732,-0.2844188549049959,0.006387905062299246,3.52179,1.05948,9.26064
4575757530,21.84,0.03408628029144926,-0.021310470166850764,-0.001064650843716541,5.11101,0.10791,10.418220000000002
4580808035,21.84,0.013840460968315033,0.18216001403064813,-0.008517206749732328,2.62908,0.27468000000000004,8.80938
4585858540,21.84,0.0170518667919846,0.41545817514473016,-0.013840460968315033,2.2563000000000004,0.57879,9.633420000000001
4590909045,21.84,0.05646140130201656,0.4090702700824309,-0.014905111812031574,0.21582,0.60822,10.40841
4595959550,21.84,0.013840460968315033,0.4143935243010136,-0.014905111812031574,-0.6180300000000001,0.7651800000000001,10.58499
4601010055,21.84,0.014905111812031574,0.32597514439498093,-0.011711159280881954,-1.7658,0.6180300000000001,10.604610000000001
4606060560,21.84,0.002129301687433082,0.15872024217636432,-0.005323254218582705,-2.14839,0.5493600000000001,9.60399
4611111065,21.84,-0.014905111812031574,0.024504422698000388,-0.001064650843716541,-2.04048,0.41202000000000005,9.191970000000001
4616161570,21.84,-0.014905111812031574,-0.12995721610349775,0.006387905062299246,-1.79523,0.22563,9.29007
4621212075,21.84,-0.021310470166850764,-0.23862141533266473,0.00958185759344887,-0.9319500000000001,0.22563,9.819809999999999
4626262580,21.84,-0.005323254218582705,-0.3036000233844136,0.013840460968315033,-0.1962,0.039240000000000004,10.2024
4631313085,21.84,0.023439771854283843,-0.3387509545195794,0.008517206749732328,0.8142300000000001,0.10791,10.300500000000001
4636363590,21.84,0.05007349623971732,-0.29188886410353165,0.007452555906015787,1.6382700000000001,0.46107000000000004,9.85905
4641414095,21.84,0.0756251164889143,-0.21198769094723127,0.003193952531149623,2.1974400000000003,0.90252,9.59418
4646464600,21.84,0.0756251164889143,-0.09587093581204853,0.001064650843716541,2.7664199999999997,0.9711900000000001,9.65304
4651515105,21.84,0.0,0.10332349171806432,-0.008517206749732328,2.49174,0.72594,9.623610000000001
4656565610,21.84,0.001064650843716541,0.15978489302008084,-0.007452555906015787,1.9325700000000001,0.5591700000000001,9.44703
4661616115,21.84,-0.022375121010567305,0.27377234646783055,-0.007452555906015787,0.8142300000000001,0.5886,9.82962
4666666620,21.84,-0.01918116847941768,0.2769662989989801,-0.011711159280881954,0.13734000000000002,0.49050000000000005,10.045440000000001
4671717125,21.84,-0.0170518667919846,0.24500932039496398,-0.008517206749732328,-0.72594,0.40221,10.34955
4676767630,21.84,-0.011711159280881954,0.1555262896452147,-0.004258603374866164,-1.0987200000000001,0.32373,9.7119
4681818135,21.84,0.005323254218582705,0.060720004676882725,0.0,-1.2360600000000002,0.37278,9.4176
4686868640,21.84,0.001064650843716541,-0.03834488366631542,0.0,-1.15758,0.33354000000000006,9.60399
4691919145,21.84,0.003193952531149623,-0.12144000935376545,0.006387905062299246,-0.74556,0.36297,9.66285
4696969650,21.84,0.01064650843716541,-0.19493582415524666,0.008517206749732328,-0.22563,0.26487,10.05525
4702020155,21.84,0.023439771854283843,-0.20453513504121545,0.003193952531149623,0.5493600000000001,0.42183,10.212209999999999
4707070660,21.84,0.0404741853537485,-0.20347048419749894,0.005323254218582705,0.8240400000000001,0.56898,9.80019
4712121165,21.84,0.03089232776029963,-0.14062117783318315,0.001064650843716541,1.6677000000000002,0.5493600000000001,9.66285
4717171670,21.84,0.022375121010567305,-0.04794419455228423,0.0,1.55979,0.71613,9.86886
4722222175,21.84,0.01064650843716541,0.001064650843716541,-0.002129301687433082,1.71675,0.51012,9.81
4727272680,21.84,-0.004258603374866164,0.13849187614575004,-0.002129301687433082,1.3047300000000002,0.6278400000000001,10.1043
4732323185,21.84,-0.008517206749732328,0.10332349171806432,-0.002129301687433082,0.6278400000000001,0.35316,9.83943
4737373690,21.84,-0.02769837522915001,0.17257815643719931,-0.005323254218582705,0.60822,0.32373,9.78057
4742424195,21.84,0.002129301687433082,0.12037535851004891,-0.001064650843716541,-0.5395500000000001,0.36297,10.11411
4747474700,21.84,0.008517206749732328,0.07883652231258387,-0.003193952531149623,0.12753,0.28449,9.38817
4752525205,21.84,0.013840460968315033,0.08415977653116657,0.0,-0.86328,0.5493600000000001,10.32993
4757575710,21.84,0.023439771854283843,-0.07136651311404815,-0.001064650843716541,-0.12753,0.27468000000000004,9.45684
4762626215,21.84,0.008517206749732328,0.01811651763570114,0.001064650843716541,-0.17658,0.52974,9.85905
4767676720,21.84,0.023439771854283843,-0.14913838458291545,0.002129301687433082,-0.20601000000000003,0.41202000000000005,9.91791
4772727225,21.84,0.033021629447732716,-0.04581489286485115,0.001064650843716541,0.75537,0.6768900000000001,9.42741
4777777730,21.84,0.023439771854283843,-0.12250466019748199,0.005323254218582705,-0.02943,0.60822,10.34955
4782828235,21.84,0.02982767691658309,-0.07777187146886733,0.0,1.5303600000000002,0.63765,9.025200000000002
4787878740,21.84,-0.003193952531149623,-0.04260348704118158,0.004258603374866164,0.41202000000000005,0.65727,10.418220000000002
4792929245,21.84,0.01918116847941768,-0.08203047484373349,0.0,1.6382700000000001,0.63765,9.29988
4797979750,21.84,-0.03408628029144926,0.014905111812031574,0.001064650843716541,0.8142300000000001,0.44145,10.08468
4803030255,21.84,0.0,-0.07136651311404815,0.003193952531149623,1.2753,0.42183,9.72171
4808080760,21.84,-0.02556907354171693,0.0,0.0,1.22625,0.32373,9.760950000000001
4813131265,21.84,0.007452555906015787,-0.03834488366631542,0.0,1.2753,0.42183,10.006200000000002
4818181770,21.84,0.011711159280881954,-0.014905111812031574,0.001064650843716541,1.3832099999999998,0.44145,9.40779
4823232275,21.84,0.006387905062299246,0.03089232776029963,0.0,1.3734000000000002,0.50031,9.99639
4828282780,21.84,0.014905111812031574,0.04260348704118158,0.0,1.19682,0.49050000000000005,9.72171
4833333285,21.84,-0.008517206749732328,0.10012953918691468,-0.004258603374866164,1.03005,0.48069000000000006,9.92772
4838383790,21.84,0.008517206749732328,0.11079350091660004,-0.004258603374866164,0.60822,0.5493600000000001,9.91791
4843434295,21.84,-0.005323254218582705,0.10012953918691468,-0.003193952531149623,0.24525000000000002,0.40221,9.89829
4848484800,21.84,0.0,0.09054768159346581,-0.002129301687433082,0.05886,0.5886,9.79038
4853535305,21.84,0.003193952531149623,0.005323254218582705,0.0,-0.21582,0.36297,9.78057
4858585810,21.84,-0.004258603374866164,-0.0170518667919846,-0.001064650843716541,0.0981,0.59841,9.67266
4863636315,21.84,0.0,-0.08628907821859966,0.005323254218582705,0.07848000000000001,0.23544,10.1043
4868686820,21.84,-0.004258603374866164,-0.12144000935376545,0.0,0.71613,0.51993,9.67266
4873737325,21.84,0.003193952531149623,-0.09906488834319814,0.007452555906015787,0.9613800000000001,0.21582,9.91791
4878787830,21.84,0.02663372438543347,-0.12144000935376545,0.0,1.24587,0.60822,9.70209
4883838335,21.84,0.01918116847941768,-0.04153883619746504,0.003193952531149623,1.65789,0.51012,9.68247
4888888840,21.84,0.033021629447732716,-0.044732788728614664,0.001064650843716541,1.5303600000000002,0.70632,9.84924
4893939345,21.84,0.0,0.028763026072866547,0.0,1.5696,0.63765,9.70209
4898989850,21.84,0.013840460968315033,0.049008845396000776,0.0,1.3341600000000002,0.65727,9.87867
4904040355,21.84,-0.01811651763570114,0.0756251164889143,-0.004258603374866164,1.01043,0.59841,9.633420000000001
4909090860,21.84,-0.014905111812031574,0.10438814256178083,-0.002129301687433082,0.94176,0.50031,9.66285
4914141365,21.84,-0.022375121010567305,0.07243116395776468,-0.001064650843716541,0.17658,0.47088,9.99639
4919191870,21.84,-0.01811651763570114,0.06923721142661506,-0.004258603374866164,0.60822,0.41202000000000005,9.633420000000001
4924242375,21.84,-0.012775810124598492,0.023439771854283843,0.0,-0.16677000000000003,0.37278,10.03563
4929292880,21.84,-0.008517206749732328,-0.01064650843716541,-0.001064650843716541,0.40221,0.51012,9.56475
4934343385,21.84,-0.004258603374866164,-0.04260348704118158,0.002129301687433082,0.14715,0.26487,9.888480000000001
4939393890,21.84,0.001064650843716541,-0.08628907821859966,0.001064650843716541,0.60822,0.52974,9.70209
4944444395,21.84,0.003193952531149623,-0.09587093581204853,0.006387905062299246,0.87309,0.33354000000000006,9.97677
4949494900,21.84,0.014905111812031574,-0.09374163412461543,-0.001064650843716541,1.2556800000000001,0.65727,9.770760000000001
4954545405,21.84,0.005323254218582705,-0.06284930636431581,0.002129301687433082,1.41264,0.42183,9.82962
4959595910,21.84,0.012775810124598492,-0.014905111812031574,0.0,1.74618,0.69651,9.69228
4964646415,21.84,-0.013840460968315033,0.03515093113516579,0.0,1.22625,0.46107000000000004,10.06506
4969696920,21.84,-0.002129301687433082,0.05965535383316618,-0.005323254218582705,1.4813100000000001,0.60822,9.60399
4974747425,21.84,-0.03089232776029963,0.09161233243718235,0.0,0.6180300000000001,0.41202000000000005,10.05525
4979797930,21.84,-0.008517206749732328,0.04794419455228423,-0.004258603374866164,0.9319500000000001,0.43164,9.65304
4984848435,21.84,-0.023439771854283843,0.0756251164889143,0.001064650843716541,0.21582,0.3924,9.87867
4989898940,21.84,-0.001064650843716541,-0.0,-0.002129301687433082,0.65727,0.37278,9.7119
4994949445,21.84,-0.003193952531149623,0.02663372438543347,0.0,0.0981,0.47088,10.025820000000001
4999999950,21.84,0.0,-0.04260348704118158,0.0,0.65727,0.41202000000000005,9.68247
5005050455,21.84,0.0,-0.0170518667919846,0.002129301687433082,0.49050000000000005,0.45126,9.73152
5010100960,21.84,-0.001064650843716541,-0.06710790973918197,0.0,0.80442,0.50031,9.80019
5015151465,21.84,0.01918116847941768,-0.05326744877086694,0.006387905062299246,0.94176,0.5493600000000001,9.74133
5020201970,21.84,-0.002129301687433082,-0.06923721142661506,0.001064650843716541,1.15758,0.63765,9.82962
5025252475,21.84,0.011711159280881954,-0.033021629447732716,0.001064650843716541,1.3635900000000003,0.57879,9.81
5030302980,21.84,-0.01064650843716541,-0.046879543708567686,-0.001064650843716541,1.40283,0.63765,9.623610000000001
5035353485,21.84,-0.020245819323134222,0.05007349623971732,-0.001064650843716541,1.51074,0.5395500000000001,9.65304
5040403990,21.84,-0.022375121010567305,0.003193952531149623,0.0,1.0791000000000002,0.41202000000000005,9.86886
5045454495,21.84,-0.03089232776029963,0.11611675513518273,-0.002129301687433082,1.3341600000000002,0.51993,9.79038
5050505000,21.84,-0.013840460968315033,0.020245819323134222,0.0,0.37278,0.27468000000000004,10.09449
5055555505,21.84,-0.02769837522915001,0.08841837990603273,-0.006387905062299246,1.03005,0.5493600000000001,9.358740000000001
5060606010,21.84,0.0,0.007452555906015787,0.004258603374866164,-0.10791,0.27468000000000004,10.163160000000001
5065656515,21.84,-0.011711159280881954,-0.004258603374866164,-0.001064650843716541,0.9810000000000001,0.5493600000000001,9.36855
5070707020,21.84,-0.012775810124598492,-0.022375121010567305,0.007452555906015787,0.08829,0.31392000000000003,10.33974
5075757525,21.84,-0.003193952531149623,-0.09480628496833199,-0.001064650843716541,1.2360600000000002,0.42183,9.68247
5080808030,21.84,-0.008517206749732328,-0.005323254218582705,0.003193952531149623,0.75537,0.48069000000000006,10.006200000000002
5085858535,21.84,0.00958185759344887,-0.1097288500728835,0.002129301687433082,1.20663,0.41202000000000005,9.57456
5090909040,21.84,-0.007452555906015787,0.02769837522915001,0.001064650843716541,1.49112,0.59841,9.60399
5095959545,21.84,0.003193952531149623,-0.05113814708343386,0.003193952531149623,0.9711900000000001,0.42183,10.26126
5101010050,21.84,-0.011711159280881954,0.04794419455228423,-0.002129301687433082,1.68732,0.5886,9.66285
5106060555,21.84,-0.012775810124598492,0.023439771854283843,0.003193952531149623,0.6768900000000001,0.42183,10.22202
5111111060,21.84,-0.01064650843716541,0.01918116847941768,-0.001064650843716541,1.40283,0.51012,9.3195
5116161565,21.84,-0.022375121010567305,0.06284930636431581,0.002129301687433082,0.5886,0.40221,10.006200000000002
5121212070,21.84,-0.007452555906015787,-0.02769837522915001,-0.003193952531149623,0.87309,0.46107000000000004,9.52551
5126262575,21.84,-0.021310470166850764,0.04260348704118158,-0.002129301687433082,0.95157,0.41202000000000005,10.143540000000002
5131313080,21.84,0.01064650843716541,-0.04581489286485115,0.001064650843716541,0.5493600000000001,0.5591700000000001,9.95715
5136363585,21.84,-0.01918116847941768,-0.003193952531149623,0.0,1.26549,0.3924,9.46665
5141414090,21.84,-0.006387905062299246,-0.020245819323134222,0.001064650843716541,0.65727,0.57879,10.05525
5146464595,21.84,-0.002129301687433082,-0.03834488366631542,0.001064650843716541,1.31454,0.45126,9.33912
5151515100,21.84,-0.021310470166850764,0.020245819323134222,0.0,1.05948,0.51012,10.31031
5156565605,21.84,0.006387905062299246,-0.03515093113516579,0.001064650843716541,1.0791000000000002,0.5395500000000001,9.58437
5161616110,21.84,-0.02769837522915001,0.02556907354171693,-0.003193952531149623,1.3341600000000002,0.44145,9.84924
5166666615,21.84,0.0,-0.004258603374866164,0.001064650843716541,0.8240400000000001,0.5591700000000001,9.84924
5171717120,21.84,-0.02982767691658309,0.006387905062299246,-0.003193952531149623,1.24587,0.3924,9.43722
5176767625,21.84,-0.01811651763570114,0.01064650843716541,-0.001064650843716541,0.9613800000000001,0.43164,10.23183
5181818130,21.84,-0.01811651763570114,-0.020245819323134222,0.003193952531149623,1.04967,0.37278,9.81
5186868635,21.84,-0.015987215948268057,0.003193952531149623,0.0,1.22625,0.33354000000000006,9.83943
5191919140,21.84,-0.001064650843716541,-0.007452555906015787,0.0,0.9711900000000001,0.48069000000000006,9.82962
5196969645,21.84,-0.004258603374866164,-0.012775810124598492,-0.001064650843716541,1.22625,0.40221,9.7119
5202020150,21.84,-0.001064650843716541,0.004258603374866164,0.0,1.1870100000000001,0.49050000000000005,9.82962
5207070655,21.84,-0.014905111812031574,0.005323254218582705,-0.001064650843716541,1.10853,0.3924,10.01601
5212121160,21.84,-0.005323254218582705,0.013840460968315033,0.0,1.1870100000000001,0.49050000000000005,9.97677
5217171665,21.84,-0.00958185759344887,0.0,0.0,0.86328,0.47088,9.70209
5222222170,21.84,-0.012775810124598492,-0.002129301687433082,-0.002129301687433082,1.19682,0.38259000000000004,9.68247
5227272675,21.84,-0.007452555906015787,0.0,0.0,0.87309,0.5395500000000001,9.97677
5232323180,21.84,-0.004258603374866164,-0.039409534510031964,0.002129301687433082,1.19682,0.3924,9.86886
5237373685,21.84,-0.001064650843716541,-0.00958185759344887,0.0,1.2360600000000002,0.50031,9.80019
5242424190,21.84,-0.008517206749732328,-0.024504422698000388,0.002129301687433082,1.21644,0.43164,9.87867
5247474695,21.84,-0.007452555906015787,0.004258603374866164,-0.001064650843716541,1.49112,0.43164,9.67266
5252525200,21.84,-0.00958185759344887,0.020245819323134222,0.0,1.03986,0.48069000000000006,9.819809999999999
5257575705,21.84,0.0,0.002129301687433082,0.001064650843716541,1.2851100000000002,0.48069000000000006,9.7119
5262626210,21.84,-0.007452555906015787,0.044732788728614664,-0.002129301687433082,1.1281500000000002,0.5395500000000001,9.89829
5267676715,21.84,-0.012775810124598492,0.023439771854283843,0.0,0.90252,0.48069000000000006,9.97677
5272727220,21.84,-0.005323254218582705,0.02769837522915001,0.0,0.9810000000000001,0.50031,9.54513
5277777725,21.84,-0.0170518667919846,0.014905111812031574,0.0,0.5886,0.50031,9.97677
5282828230,21.84,-0.01064650843716541,-0.03515093113516579,0.002129301687433082,0.9613800000000001,0.36297,9.70209
5287878735,21.84,-0.024504422698000388,-0.01811651763570114,0.001064650843716541,0.9319500000000001,0.36297,9.908100000000001
5292929240,21.84,-0.007452555906015787,-0.0404741853537485,0.001064650843716541,1.13796,0.38259000000000004,9.94734
5297979745,21.84,0.002129301687433082,-0.012775810124598492,0.0,1.2360600000000002,0.47088,9.770760000000001
5303030250,21.84,0.002129301687433082,-0.022375121010567305,0.0,1.0791000000000002,0.49050000000000005,9.82962
5308080755,21.84,-0.002129301687433082,-0.023439771854283843,0.0,1.3832099999999998,0.3924,9.56475
5313131260,21.84,-0.015987215948268057,-0.001064650843716541,-0.001064650843716541,1.2360600000000002,0.37278,10.01601
5318181765,21.84,-0.002129301687433082,-0.002129301687433082,0.0,1.45188,0.42183,10.06506
5323232270,21.84,0.005323254218582705,0.02769837522915001,0.0,1.2851100000000002,0.5591700000000001,10.03563
5328282775,21.84,0.002129301687433082,0.020245819323134222,-0.001064650843716541,1.08891,0.51012,9.72171
5333333280,21.84,-0.013840460968315033,0.03834488366631542,-0.003193952531149623,1.01043,0.43164,9.50589
5338383785,21.84,-0.0170518667919846,0.02769837522915001,0.0,0.85347,0.36297,9.74133
5343434290,21.84,-0.012775810124598492,0.0170518667919846,0.0,0.94176,0.35316,9.96696
5348484795,21.84,-0.011711159280881954,0.001064650843716541,0.002129301687433082,0.7848,0.33354000000000006,10.300500000000001
5353535300,21.84,0.003193952531149623,-0.044732788728614664,0.002129301687433082,0.87309,0.34335000000000004,9.97677
5358585805,21.84,0.007452555906015787,-0.05220279792715039,0.001064650843716541,1.08891,0.44145,9.53532
5363636310,21.84,0.01811651763570114,-0.06284930636431581,0.0,1.29492,0.49050000000000005,9.46665
5368686815,21.84,0.013840460968315033,-0.03089232776029963,0.0,1.54017,0.5886,9.80019
5373737320,21.84,0.007452555906015787,0.001064650843716541,0.0,1.5990300000000002,0.52974,10.01601
5378787825,21.84,-0.013840460968315033,0.04153883619746504,-0.001064650843716541,1.50093,0.47088,10.045440000000001
5383838330,21.84,-0.01064650843716541,0.07349581480148122,-0.004258603374866164,1.1281500000000002,0.46107000000000004,9.819809999999999
5388888835,21.84,-0.001064650843716541,0.06923721142661506,-0.001064650843716541,0.89271,0.43164,9.5157
5393939340,21.84,-0.007452555906015787,0.05965535383316618,-0.001064650843716541,0.60822,0.47088,9.74133
5398989845,21.84,-0.005323254218582705,0.013840460968315033,0.0,0.5395500000000001,0.41202000000000005,9.908100000000001
5404040350,21.84,-0.00958185759344887,-0.028763026072866547,0.003193952531149623,0.5591700000000001,0.37278,10.05525
5409090855,21.84,-0.003193952531149623,-0.060720004676882725,0.0,0.80442,0.37278,9.91791
5414141360,21.84,-0.003193952531149623,-0.07990117315630041,0.003193952531149623,1.0987200000000001,0.32373,9.751140000000001
5419191865,21.84,0.0,-0.04581489286485115,0.001064650843716541,1.45188,0.37278,9.633420000000001
5424242370,21.84,0.008517206749732328,0.01811651763570114,-0.001064650843716541,1.55979,0.41202000000000005,9.92772
5429292875,21.84,0.01811651763570114,0.07883652231258387,-0.006387905062299246,1.2753,0.56898,9.95715
5434343380,21.84,0.012775810124598492,0.1352804703220805,-0.003193952531149623,0.90252,0.60822,9.74133
5439393885,21.84,0.0,0.1352804703220805,-0.003193952531149623,0.17658,0.52974,9.89829
5444444390,21.84,-0.015987215948268057,0.0852244273748831,0.0,-0.05886,0.44145,9.60399
5449494895,21.84,-0.023439771854283843,0.01918116847941768,0.002129301687433082,-0.32373,0.34335000000000004,10.01601
5454545400,21.84,-0.006387905062299246,-0.1757721089683489,0.01064650843716541,-0.20601000000000003,0.32373,10.13373
5459595905,21.84,-0.002129301687433082,-0.27483699731154704,0.008517206749732328,0.89271,0.42183,9.32931
5464646410,21.84,0.01918116847941768,-0.40479421341504485,0.013840460968315033,1.7658,2.1287700000000003,9.79038
5469696915,21.84,-0.11398745344774965,-0.2844188549049959,0.008517206749732328,5.9841,-0.04905,11.546370000000001
5474747420,21.84,-0.0756251164889143,-0.14062117783318315,0.004258603374866164,3.3844499999999997,-0.6768900000000001,8.74071
5479797925,21.84,-0.07990117315630041,0.05859070298944965,-0.005323254218582705,3.8651400000000002,-0.50031,8.07363
5484848430,21.84,0.02982767691658309,0.23116885942664894,-0.00958185759344887,3.3452100000000002,-0.5395500000000001,9.3195
5489898935,21.84,0.07349581480148122,0.3898891016030132,-0.01918116847941768,2.14839,0.1962,10.68309
5494949440,21.84,0.1352804703220805,0.5060058567381961,-0.013840460968315033,0.8142300000000001,0.8829,11.14416
5499999945,21.84,0.1331511686346474,0.4378158428627775,-0.022375121010567305,-1.41264,1.42245,10.84005
5505050450,21.84,0.06817256058289851,0.3110525792904294,-0.01064650843716541,-1.7756100000000001,1.19682,9.39798
5510100955,21.84,0.011711159280881954,0.14275047952061623,-0.006387905062299246,-2.5800300000000003,1.03005,9.035010000000002
5515151460,21.84,-0.049008845396000776,-0.08735372906231618,0.006387905062299246,-1.8737100000000002,0.80442,9.20178
5520201965,21.84,-0.08096582400001695,-0.24075071702009782,0.00958185759344887,-1.4813100000000001,0.36297,9.85905
5525252470,21.84,-0.07670722062515077,-0.4303632869567618,0.014905111812031574,-0.24525000000000002,-0.07848000000000001,10.300500000000001
5530302975,21.84,-0.06497860805174888,-0.4687081706230772,0.0170518667919846,1.44207,-0.27468000000000004,10.29069
5535353480,21.84,-0.013840460968315033,-0.48150143404019563,0.012775810124598492,2.40345,1.15758,9.85905
5540403985,21.84,0.03728023282259888,-0.38882445075929667,0.01811651763570114,6.327450000000001,0.009810000000000001,10.830240000000002
5545454490,21.84,0.003193952531149623,-0.021310470166850764,0.001064650843716541,3.56103,-0.27468000000000004,9.064440000000001
5550504995,21.84,0.002129301687433082,0.11611675513518273,-0.003193952531149623,4.17906,-0.22563,7.789140000000001
5555555500,21.84,0.08096582400001695,0.27377234646783055,-0.011711159280881954,2.93319,0.31392000000000003,9.152730000000002
5560606005,21.84,0.08948303074974927,0.37496653649846173,-0.0170518667919846,1.9423800000000002,0.90252,10.653660000000002
5565656510,21.84,0.10438814256178083,0.37496653649846173,-0.01811651763570114,0.30411,1.00062,11.134350000000001
5570707015,21.84,0.05326744877086694,0.328104446082414,-0.014905111812031574,-0.6768900000000001,1.21644,10.64385
5575757520,21.84,0.006387905062299246,0.19387117331153014,-0.008517206749732328,-1.3832099999999998,0.9123300000000001,9.50589
5580808025,21.84,-0.02556907354171693,0.07030186227033158,-0.002129301687433082,-1.3341600000000002,0.75537,9.20178
5585858530,21.84,-0.05113814708343386,-0.05113814708343386,0.004258603374866164,-1.22625,0.46107000000000004,8.946720000000001
5590909035,21.84,-0.08203047484373349,-0.20453513504121545,0.011711159280881954,-0.72594,0.23544,9.72171
5595959540,21.84,-0.05965535383316618,-0.2961474674783978,0.011711159280881954,0.2943,-0.24525000000000002,10.44765
5601010045,21.84,-0.02556907354171693,-0.3291690969261305,0.011711159280881954,1.2753,-0.15696000000000002,10.76157
5606060550,21.84,0.01811651763570114,-0.31744048435272865,0.008517206749732328,2.27592,0.11772,9.92772
5611111055,21.84,0.07136651311404815,-0.24394466955124744,0.007452555906015787,3.39426,0.94176,9.496080000000001
5616161560,21.84,0.005323254218582705,-0.002129301687433082,0.001064650843716541,4.1888700000000005,0.31392000000000003,9.81
5621212065,21.84,0.013840460968315033,0.09161233243718235,-0.005323254218582705,3.0901500000000004,0.04905,8.61318
5626262570,21.84,0.03834488366631542,0.20666443672864854,-0.00958185759344887,2.2366800000000002,0.5886,9.26064
5631313075,21.84,0.05539675045830002,0.2599318854995155,-0.008517206749732328,1.4813100000000001,0.80442,10.47708
5636363580,21.84,0.04153883619746504,0.24500932039496398,-0.00958185759344887,0.41202000000000005,0.79461,10.987200000000001
5641414085,21.84,0.014905111812031574,0.18216001403064813,-0.008517206749732328,-0.24525000000000002,0.70632,10.29069
5646464590,21.84,0.0,0.09906488834319814,-0.004258603374866164,-0.49050000000000005,0.5886,9.358740000000001
5651515095,21.84,-0.011711159280881954,0.014905111812031574,0.0,-0.45126,0.46107000000000004,9.152730000000002
5656565600,21.84,-0.024504422698000388,-0.06710790973918197,0.002129301687433082,-0.2943,0.35316,9.33912
5661616105,21.84,-0.020245819323134222,-0.12144000935376545,0.008517206749732328,0.18639,0.1962,9.84924
5666666610,21.84,0.002129301687433082,-0.1757721089683489,0.003193952531149623,0.75537,0.25506,10.604610000000001
5671717115,21.84,0.01918116847941768,-0.20453513504121545,0.007452555906015787,1.31454,0.34335000000000004,10.24164
5676767620,21.84,0.039409534510031964,-0.17151350559348277,0.004258603374866164,1.83447,0.49050000000000005,9.45684
5681818125,21.84,0.04366813788489812,-0.1331511686346474,0.002129301687433082,2.4426900000000002,1.01043,9.23121
5686868630,21.84,-0.0170518667919846,0.003193952531149623,-0.001064650843716541,3.0901500000000004,0.41202000000000005,9.96696
5691919135,21.84,0.0,0.05220279792715039,-0.002129301687433082,2.24649,0.28449,9.3195
5696969640,21.84,0.003193952531149623,0.1374272253020335,-0.003193952531149623,1.8246600000000002,0.49050000000000005,9.633420000000001
5702020145,21.84,0.015987215948268057,0.1629788455512305,-0.005323254218582705,1.22625,0.45126,10.22202
5707070650,21.84,0.013840460968315033,0.13849187614575004,-0.006387905062299246,0.5591700000000001,0.5395500000000001,9.99639
5712121155,21.84,0.007452555906015787,0.11292280260403312,-0.002129301687433082,0.3924,0.51012,9.96696
5717171660,21.84,0.013840460968315033,0.07243116395776468,0.0,-0.04905,0.5493600000000001,9.888480000000001
5722222165,21.84,-0.001064650843716541,-0.03408628029144926,0.001064650843716541,0.05886,0.36297,9.57456
5727272670,21.84,-0.01064650843716541,-0.04581489286485115,0.004258603374866164,0.42183,0.44145,9.7119
5732323175,21.84,0.011711159280881954,-0.13849187614575004,0.005323254218582705,0.38259000000000004,0.25506,9.79038
5737373680,21.84,0.006387905062299246,-0.09906488834319814,0.001064650843716541,1.43226,0.37278,10.01601
5742424185,21.84,0.031956978604016174,-0.1171814059788993,0.005323254218582705,1.1183400000000001,0.51993,10.11411
5747474690,21.84,0.012775810124598492,-0.11079350091660004,-0.002129301687433082,2.16801,0.44145,9.53532
5752525195,21.84,0.006387905062299246,0.005323254218582705,0.004258603374866164,1.7658,0.51993,10.1043
5757575700,21.84,0.023439771854283843,-0.04581489286485115,-0.004258603374866164,1.9914300000000003,0.2943,9.29988
5762626205,21.84,0.015987215948268057,0.1278279144160647,-0.004258603374866164,1.85409,0.80442,9.53532
5767676710,21.84,0.023439771854283843,0.024504422698000388,0.0,0.95157,0.42183,10.2024
5772727215,21.84,0.0,0.13955652698946658,-0.004258603374866164,1.52055,0.70632,9.7119
5777777720,21.84,0.0,0.028763026072866547,0.002129301687433082,0.10791,0.41202000000000005,10.34955
5782828225,21.84,0.002129301687433082,0.04794419455228423,-0.005323254218582705,1.31454,0.6180300000000001,9.152730000000002
5787878730,21.84,-0.014905111812031574,0.031956978604016174,0.002129301687433082,-0.17658,0.32373,10.22202
5792929235,21.84,0.006387905062299246,-0.05646140130201656,-0.003193952531149623,1.16739,0.5591700000000001,9.09387
5797979740,21.84,-0.015987215948268057,0.01811651763570114,0.004258603374866164,0.50031,0.1962,10.418220000000002
5803030245,21.84,0.022375121010567305,-0.07777187146886733,-0.001064650843716541,1.08891,0.57879,9.69228
5808080750,21.84,-0.002129301687433082,0.049008845396000776,0.0,1.1183400000000001,0.32373,9.86886
5813131255,21.84,0.03621558197888234,0.011711159280881954,-0.002129301687433082,0.8829,0.6670800000000001,9.770760000000001
5818181760,21.84,-0.005323254218582705,0.11292280260403312,-0.001064650843716541,0.8142300000000001,0.46107000000000004,9.47646
5823232265,21.84,0.012775810124598492,0.09054768159346581,-0.004258603374866164,0.36297,0.5493600000000001,10.212209999999999
5828282770,21.84,0.002129301687433082,0.09800023749948161,-0.002129301687433082,0.019620000000000002,0.6278400000000001,9.6138
5833333275,21.84,0.002129301687433082,0.049008845396000776,0.0,0.009810000000000001,0.43164,9.96696
5838383780,21.84,-0.013840460968315033,0.013840460968315033,-0.002129301687433082,-0.26487,0.6278400000000001,9.80019
5843434285,21.84,-0.007452555906015787,-0.07349581480148122,0.004258603374866164,0.14715,0.30411,9.69228
5848484790,21.84,0.007452555906015787,-0.10653489754173388,0.001064650843716541,0.24525000000000002,0.57879,9.81
5853535295,21.84,-0.005323254218582705,-0.150203035426632,0.006387905062299246,0.79461,0.32373,9.751140000000001
5858585800,21.84,0.0,-0.1352804703220805,0.005323254218582705,1.43226,0.38259000000000004,9.760950000000001
5863636305,21.84,0.005323254218582705,-0.09693558665576507,0.003193952531149623,1.55979,0.44145,9.87867
5868686810,21.84,0.01064650843716541,-0.05113814708343386,-0.001064650843716541,2.06991,0.47088,9.84924
5873737315,21.84,0.024504422698000388,0.04794419455228423,0.0,1.65789,0.6180300000000001,9.751140000000001
5878787820,21.84,0.001064650843716541,0.09800023749948161,-0.004258603374866164,1.46169,0.65727,9.60399
5883838325,21.84,0.0,0.15872024217636432,-0.004258603374866164,0.9221400000000001,0.5591700000000001,9.7119
5888888830,21.84,-0.020245819323134222,0.15659094048893124,-0.002129301687433082,0.25506,0.60822,9.96696
5893939335,21.84,-0.006387905062299246,0.12356931104119852,-0.004258603374866164,0.10791,0.42183,9.91791
5898989840,21.84,-0.01918116847941768,0.08841837990603273,-0.001064650843716541,-0.51012,0.52974,9.99639
5904040345,21.84,-0.021310470166850764,0.003193952531149623,-0.001064650843716541,-0.23544,0.22563,9.7119
5909090850,21.84,-0.012775810124598492,-0.03728023282259888,0.0,-0.18639,0.45126,9.64323
5914141355,21.84,-0.007452555906015787,-0.10012953918691468,0.004258603374866164,0.08829,0.26487,9.79038
5919191860,21.84,0.022375121010567305,-0.11611675513518273,0.003193952531149623,0.6278400000000001,0.51993,9.74133
5924242365,21.84,-0.002129301687433082,-0.12250466019748199,0.005323254218582705,0.6867000000000001,0.42183,9.95715
5929292870,21.84,0.022375121010567305,-0.1171814059788993,0.002129301687433082,1.52055,0.49050000000000005,9.81
5934343375,21.84,0.007452555906015787,-0.05752605214573309,0.002129301687433082,1.1772,0.59841,10.06506
5939393880,21.84,0.03408628029144926,-0.024504422698000388,0.0,1.83447,0.69651,9.53532
5944444385,21.84,-0.004258603374866164,0.04153883619746504,-0.001064650843716541,1.15758,0.6180300000000001,9.760950000000001
5949494890,21.84,-0.008517206749732328,0.08309512568745003,-0.004258603374866164,1.3832099999999998,0.6768900000000001,9.60399
5954545395,21.84,-0.022375121010567305,0.09480628496833199,-0.003193952531149623,0.64746,0.44145,9.98658
5959595900,21.84,-0.022375121010567305,0.11931070766633237,-0.003193952531149623,0.6278400000000001,0.60822,9.89829
5964646405,21.84,-0.03089232776029963,0.07030186227033158,0.0,-0.04905,0.21582,10.143540000000002
5969696910,21.84,-0.01918116847941768,0.05539675045830002,-0.005323254218582705,0.21582,0.48069000000000006,9.52551
5974747415,21.84,-0.013840460968315033,0.01064650843716541,0.002129301687433082,-0.2943,0.16677000000000003,9.85905
5979797920,21.84,0.006387905062299246,-0.031956978604016174,0.0,0.34335000000000004,0.5886,9.34893
5984848425,21.84,-0.001064650843716541,-0.05007349623971732,0.003193952531149623,-0.019620000000000002,0.32373,10.143540000000002
5989898930,21.84,0.020245819323134222,-0.07777187146886733,0.0,0.8142300000000001,0.6670800000000001,9.819809999999999
5994949435,21.84,-0.011711159280881954,-0.049008845396000776,0.003193952531149623,0.41202000000000005,0.37278,10.182780000000001
5999999940,21.84,0.020245819323134222,-0.06497860805174888,-0.002129301687433082,1.2360600000000002,0.6867000000000001,9.38817
6005050445,21.84,-0.008517206749732328,-0.006387905062299246,0.004258603374866164,0.63765,0.51012,9.760950000000001
6010100950,21.84,0.0,-0.02663372438543347,0.001064650843716541,1.34397,0.5886,9.5157
6015151455,21.84,-0.03089232776029963,0.044732788728614664,0.003193952531149623,0.60822,0.38259000000000004,10.300500000000001
6020201960,21.84,-0.011711159280881954,0.008517206749732328,-0.001064650843716541,1.26549,0.52974,9.79038
6025252465,21.84,-0.01811651763570114,0.06923721142661506,0.0,0.23544,0.42183,9.96696
6030302970,21.84,-0.013840460968315033,0.002129301687433082,0.0,0.84366,0.36297,9.39798
6035353475,21.84,-0.020245819323134222,0.06710790973918197,0.001064650843716541,0.21582,0.36297,9.70209
6040403980,21.84,-0.023439771854283843,-0.023439771854283843,0.0,0.57879,0.27468000000000004,10.045440000000001
6045454485,21.84,0.00958185759344887,0.060720004676882725,0.0,0.35316,0.5395500000000001,10.045440000000001
6050504990,21.84,0.0,-0.05007349623971732,-0.001064650843716541,0.21582,0.40221,10.03563
6055555495,21.84,0.005323254218582705,0.04153883619746504,0.001064650843716541,0.5591700000000001,0.6278400000000001,9.4176
6060606000,21.84,-0.00958185759344887,-0.08203047484373349,0.002129301687433082,0.10791,0.3924,9.86886
6065656505,21.84,-0.005323254218582705,0.024504422698000388,0.0,1.16739,0.64746,9.633420000000001
6070707010,21.84,-0.002129301687433082,-0.07136651311404815,0.004258603374866164,0.0,0.41202000000000005,10.418220000000002
6075757515,21.84,-0.007452555906015787,0.005323254218582705,-0.004258603374866164,1.6284600000000002,0.6278400000000001,9.32931
6080808020,21.84,-0.012775810124598492,-0.00958185759344887,0.003193952531149623,-0.05886,0.42183,10.22202
6085858525,21.84,-0.014905111812031574,-0.003193952531149623,-0.003193952531149623,1.5499800000000001,0.51993,9.00558
6090909030,21.84,-0.01064650843716541,0.06817256058289851,0.004258603374866164,0.0,0.40221,10.36917
6095959535,21.84,-0.013840460968315033,-0.011711159280881954,-0.002129301687433082,0.94176,0.51012,9.74133
6101010040,21.84,-0.0170518667919846,0.09587093581204853,0.002129301687433082,0.17658,0.35316,10.06506
6106060545,21.84,-0.006387905062299246,-0.06178465552059926,0.0,0.1962,0.41202000000000005,9.69228
6111111050,21.84,-0.011711159280881954,0.05752605214573309,-0.001064650843716541,0.73575,0.52974,9.42741
6116161555,21.84,0.008517206749732328,-0.060720004676882725,0.001064650843716541,-0.21582,0.51012,10.26126
6121212060,21.84,-0.011711159280881954,-0.007452555906015787,-0.003193952531149623,1.1772,0.57879,9.29007
6126262565,21.84,-0.0170518667919846,-0.01064650843716541,0.004258603374866164,0.02943,0.41202000000000005,10.64385
6131313070,21.84,-0.002129301687433082,-0.03834488366631542,-0.001064650843716541,1.04967,0.5395500000000001,9.074250000000001
6136363575,21.84,-0.03408628029144926,0.08096582400001695,0.003193952531149623,0.43164,0.37278,10.280880000000002
6141414080,21.84,0.004258603374866164,-0.049008845396000776,-0.002129301687433082,0.33354000000000006,0.5395500000000001,9.55494
6146464585,21.84,-0.039409534510031964,0.06817256058289851,0.001064650843716541,0.7749900000000001,0.27468000000000004,9.819809999999999
6151515090,21.84,0.001064650843716541,-0.023439771854283843,0.001064650843716541,-0.08829,0.52974,10.44765
6156565595,21.84,-0.006387905062299246,-0.012775810124598492,-0.002129301687433082,0.85347,0.3924,8.946720000000001
6161616100,21.84,-0.012775810124598492,0.022375121010567305,0.001064650843716541,0.11772,0.51012,10.4967
6166666605,21.84,0.006387905062299246,-0.05007349623971732,0.0,0.64746,0.46107000000000004,9.172350000000002
6171717110,21.84,-0.04366813788489812,0.054332099614583476,-0.001064650843716541,0.59841,0.35316,10.25145
6176767615,21.84,0.01064650843716541,-0.03089232776029963,0.002129301687433082,0.23544,0.5395500000000001,10.09449
6181818120,21.84,-0.0170518667919846,0.02556907354171693,-0.003193952531149623,0.7651800000000001,0.42183,9.29007
6186868625,21.84,0.0,0.03089232776029963,0.001064650843716541,0.11772,0.5886,10.280880000000002
6191919130,21.84,-0.005323254218582705,-0.01811651763570114,0.001064650843716541,0.37278,0.44145,9.40779
6196969635,21.84,-0.022375121010567305,0.04581489286485115,0.002129301687433082,0.46107000000000004,0.45126,10.05525
6202020140,21.84,-0.003193952531149623,-0.01918116847941768,-0.001064650843716541,0.009810000000000001,0.51993,10.143540000000002
6207070645,21.84,-0.022375121010567305,-0.003193952531149623,-0.001064650843716541,0.64746,0.3924,9.33912
6212121150,21.84,-0.01918116847941768,0.014905111812031574,0.003193952531149623,0.12753,0.41202000000000005,10.143540000000002
6217171655,21.84,-0.008517206749732328,-0.03408628029144926,0.001064650843716541,0.41202000000000005,0.41202000000000005,9.633420000000001
6222222160,21.84,-0.01064650843716541,0.022375121010567305,-0.001064650843716541,0.48069000000000006,0.47088,9.92772
6227272665,21.84,0.003193952531149623,-0.03408628029144926,0.0,0.17658,0.51012,9.98658
6232323170,21.84,-0.012775810124598492,0.011711159280881954,0.002129301687433082,0.79461,0.42183,9.57456
6237373675,21.84,-0.007452555906015787,0.006387905062299246,0.002129301687433082,0.11772,0.46107000000000004,10.15335
6242424180,21.84,-0.011711159280881954,-0.013840460968315033,0.0,0.6670800000000001,0.44145,9.47646
6247474685,21.84,-0.01064650843716541,0.03515093113516579,-0.001064650843716541,0.31392000000000003,0.47088,10.05525
6252525190,21.84,-0.005323254218582705,-0.023439771854283843,0.001064650843716541,0.32373,0.42183,9.97677
6257575695,21.84,-0.0170518667919846,0.033021629447732716,0.0,0.56898,0.40221,9.69228
6262626200,21.84,-0.006387905062299246,0.001064650843716541,0.001064650843716541,-0.009810000000000001,0.49050000000000005,10.08468
6267676705,21.84,-0.001064650843716541,-0.007452555906015787,0.0,0.5395500000000001,0.46107000000000004,9.47646
6272727210,21.84,-0.013840460968315033,0.006387905062299246,0.003193952531149623,0.14715,0.3924,10.2024
6277777715,21.84,-0.012775810124598492,-0.04153883619746504,0.0,0.45126,0.35316,9.80019
6282828220,21.84,-0.008517206749732328,0.015987215948268057,0.0,0.5395500000000001,0.40221,9.751140000000001
6287878725,21.84,0.002129301687433082,-0.01811651763570114,-0.001064650843716541,0.1962,0.52974,10.03563
6292929230,21.84,0.007452555906015787,-0.014905111812031574,0.0,0.71613,0.45126,9.46665
6297979735,21.84,-0.012775810124598492,0.002129301687433082,0.0,0.2943,0.47088,10.19259
6303030240,21.84,-0.00958185759344887,-0.020245819323134222,0.001064650843716541,0.71613,0.3924,9.751140000000001
6308080745,21.84,-0.008517206749732328,0.04366813788489812,0.0,0.51993,0.50031,9.86886
6313131250,21.84,0.004258603374866164,0.006387905062299246,-0.003193952531149623,0.27468000000000004,0.51012,9.85905
6318181755,21.84,-0.007452555906015787,0.02982767691658309,-0.002129301687433082,0.52974,0.42183,9.58437
6323232260,21.84,-0.0170518667919846,0.014905111812031574,0.001064650843716541,-0.019620000000000002,0.45126,10.025820000000001
6328282765,21.84,-0.011711159280881954,-0.01918116847941768,0.0,0.44145,0.34335000000000004,9.760950000000001
6333333270,21.84,-0.003193952531149623,0.00958185759344887,0.0,0.2943,0.47088,9.97677
6338383775,21.84,0.0,-0.021310470166850764,-0.001064650843716541,0.35316,0.44145,9.78057
6343434280,21.84,-0.008517206749732328,0.012775810124598492,-0.002129301687433082,0.49050000000000005,0.41202000000000005,9.73152
6348484785,21.84,-0.003193952531149623,0.001064650843716541,0.001064650843716541,0.23544,0.42183,9.97677
6353535290,21.84,0.003193952531149623,0.005323254218582705,-0.002129301687433082,0.48069000000000006,0.48069000000000006,9.760950000000001
6358585795,21.84,-0.001064650843716541,0.015987215948268057,0.0,0.20601000000000003,0.49050000000000005,9.937529999999999
6363636300,21.84,-0.00958185759344887,-0.0170518667919846,-0.001064650843716541,0.22563,0.42183,9.819809999999999
6368686805,21.84,-0.014905111812031574,-0.022375121010567305,0.001064650843716541,0.42183,0.32373,9.85905
6373737310,21.84,0.001064650843716541,-0.04260348704118158,0.003193952531149623,0.40221,0.43164,9.937529999999999
6378787815,21.84,0.0,-0.03621558197888234,0.003193952531149623,0.65727,0.43164,9.84924
6383838320,21.84,0.003193952531149623,-0.020245819323134222,0.0,0.73575,0.42183,9.80019
6388888825,21.84,-0.004258603374866164,0.002129301687433082,0.0,0.70632,0.41202000000000005,9.89829
6393939330,21.84,0.0,0.03728023282259888,-0.003193952531149623,0.7848,0.43164,9.819809999999999
6398989835,21.84,0.004258603374866164,0.060720004676882725,0.0,0.38259000000000004,0.50031,9.89829
6404040340,21.84,0.0,0.06710790973918197,-0.002129301687433082,0.34335000000000004,0.46107000000000004,9.81
6409090845,21.84,-0.008517206749732328,0.06817256058289851,-0.002129301687433082,-0.05886,0.42183,9.908100000000001
6414141350,21.84,-0.012775810124598492,0.03089232776029963,-0.001064650843716541,-0.13734000000000002,0.41202000000000005,9.888480000000001
6419191855,21.84,0.004258603374866164,-0.005323254218582705,0.002129301687433082,-0.14715,0.45126,9.81
6424242360,21.84,0.006387905062299246,-0.09054768159346581,0.001064650843716541,-0.15696000000000002,0.47088,9.84924
6429292865,21.84,0.0,-0.1480737337391989,0.004258603374866164,0.45126,0.3924,9.623610000000001
6434343370,21.84,-0.006387905062299246,-0.18641861740551433,0.005323254218582705,0.86328,0.34335000000000004,9.888480000000001
6439393875,21.84,0.003193952531149623,-0.18109536318693162,0.005323254218582705,1.69713,0.35316,9.888480000000001
6444444380,21.84,0.01811651763570114,-0.0852244273748831,0.004258603374866164,2.1287700000000003,0.47088,9.83943
6449494885,21.84,0.01918116847941768,0.028763026072866547,-0.004258603374866164,2.1582000000000003,0.56898,9.888480000000001
6454545390,21.84,0.0170518667919846,0.14275047952061623,-0.007452555906015787,1.7658,0.6180300000000001,9.58437
6459595895,21.84,-0.007452555906015787,0.28975956241609857,-0.012775810124598492,1.05948,0.56898,9.39798
6464646400,21.84,-0.012775810124598492,0.3334277003009967,-0.013840460968315033,0.0981,0.56898,10.22202
6469696905,21.84,-0.015987215948268057,0.4399625978427305,-0.013840460968315033,-0.7749900000000001,0.51993,10.535940000000002
6474747410,21.84,-0.005323254218582705,0.35473817046784745,-0.011711159280881954,-2.48193,0.41202000000000005,9.98658
6479797915,21.84,-0.033021629447732716,0.20453513504121545,-0.004258603374866164,-2.6683200000000005,0.22563,9.79038
6484848420,21.84,-0.006387905062299246,0.023439771854283843,0.004258603374866164,-2.99205,0.11772,9.29988
6489898925,21.84,-0.01064650843716541,-0.22263419938439669,0.00958185759344887,-2.2661100000000003,0.26487,9.60399
6494949430,21.84,0.012775810124598492,-0.3600614246864302,0.01811651763570114,-1.31454,0.49050000000000005,10.06506
6499999935,21.84,0.007452555906015787,-0.5486093437793775,0.01918116847941768,-0.51012,0.25506,10.12392
6505050440,21.84,0.007452555906015787,-0.5795016715396772,0.020245819323134222,1.9914300000000003,1.08891,9.99639
6510100945,21.84,0.06923721142661506,-0.5752430681648111,0.021310470166850764,3.67875,0.84366,10.51632
6515151450,21.84,-0.13421581947836395,-0.03834488366631542,-0.005323254218582705,5.7879,-0.40221,10.29069
6520201955,21.84,-0.05220279792715039,0.020245819323134222,-0.002129301687433082,3.9338100000000003,-0.9711900000000001,7.46541
6525252460,21.84,-0.005323254218582705,0.328104446082414,-0.012775810124598492,3.1392,0.0,8.47584
6530302965,21.84,0.054332099614583476,0.4761781798216129,-0.01918116847941768,2.20725,0.08829,9.91791
6535353470,21.84,0.11505210429146619,0.58482492575826,-0.01918116847941768,-0.23544,0.71613,11.664090000000002
6540403975,21.84,0.11611675513518273,0.5070705075819125,-0.01918116847941768,-1.3537800000000002,1.3243500000000001,11.546370000000001
6545454480,21.84,0.08948303074974927,0.39308305413416283,-0.01811651763570114,-2.83509,1.24587,9.84924
6550504985,21.84,0.046879543708567686,0.16191419470751395,-0.006387905062299246,-3.0607200000000003,1.06929,8.642610000000001
6555555490,21.84,-0.022375121010567305,-0.004258603374866164,-0.002129301687433082,-2.77623,1.03005,8.55432
6560605995,21.84,-0.054332099614583476,-0.21411699263466438,0.00958185759344887,-2.33478,0.71613,9.20178
6565656500,21.84,-0.10332349171806432,-0.35473817046784745,0.015987215948268057,-1.3635900000000003,0.07848000000000001,10.08468
6570707005,21.84,-0.09267698328089889,-0.4601909638733449,0.021310470166850764,-0.23544,-0.07848000000000001,11.153970000000001
6575757510,21.84,-0.024504422698000388,-0.48150143404019563,0.0170518667919846,1.34397,-0.33354000000000006,10.52613
6580808015,21.84,-0.00958185759344887,-0.4271693344256121,0.015987215948268057,2.34459,-0.11772,9.40779
6585858520,21.84,0.05326744877086694,-0.2950828166346813,0.006387905062299246,3.44331,1.02024,9.23121
6590909025,21.84,0.049008845396000776,-0.049008845396000776,0.001064650843716541,5.17968,0.21582,10.26126
6595959530,21.84,0.015987215948268057,0.19174187162409706,-0.01064650843716541,2.68794,0.25506,8.88786
6601010035,21.84,0.03089232776029963,0.40692351510247793,-0.015987215948268057,2.40345,0.56898,9.60399
6606060540,21.84,0.05646140130201656,0.4261046835818956,-0.013840460968315033,0.24525000000000002,0.6278400000000001,10.418220000000002
6611111045,21.84,0.011711159280881954,0.41652282598844675,-0.01811651763570114,-0.6278400000000001,0.79461,10.58499
6616161550,21.84,0.01064650843716541,0.3398156053632959,-0.012775810124598492,-1.70694,0.6278400000000001,10.575180000000001
6621212055,21.84,0.002129301687433082,0.16831955306233315,-0.007452555906015787,-2.20725,0.5395500000000001,9.72171
6626262560,21.84,-0.014905111812031574,0.022375121010567305,0.0,-2.07972,0.41202000000000005,9.14292
6631313065,21.84,-0.022375121010567305,-0.12250466019748199,0.004258603374866164,-1.79523,0.18639,9.30969
