#timestamp [ns], temperature [degC], w_RS_S_x [rad s^-1], w_RS_S_y [rad s^-1], w_RS_S_z [rad s^-1], a_RS_S_x [m s^-2], a_RS_S_y [m s^-2], a_RS_S_z [m s^-2]
0.0,22.35,0.0,0.0,0.0,-0.2943,-1.48131,9.72171
5000000.0,22.35,0.0,0.0,0.0,-0.2943,-1.461886199805762,9.73142190009712
10000000.0,22.35,0.0,0.0,0.0,-0.28468619980576204,-1.46169,9.693064799223048
15000000.0,22.35,0.0,0.0,0.0,-0.27497429970864296,-1.452174299708643,9.69228
20000000.0,22.35,0.0,0.0,0.0,-0.27468,-1.470715200776952,9.701697600388476
25000000.0,22.35,0.0,0.0,0.0,-0.283999500485595,-1.45286099902881,9.72072900097119
30000000.0,22.35,0.0,0.0,0.0,-0.293711400582714,-1.4703228011654281,9.67560299708643
35000000.0,22.35,0.0,0.0,0.0,-0.28517669932016704,-1.489746601359666,9.690906601359666
40000000.0,22.35,0.0,0.0,0.0,-0.27546479922304795,-1.49112,9.746431204661711
45000000.0,22.35,0.0,0.0,0.0,-0.28360710087407104,-1.473265798251858,9.742212899125928
50000000.0,22.35,0.0,0.0,0.0,-0.29331900097119,-1.48032900097119,9.73250099902881
55000000.0,22.35,0.0,0.0,0.0,-0.303030901068309,-1.472579098931691,9.74025090106831
60000000.0,22.35,0.0,0.0,0.0,-0.295477198834572,-1.480132801165428,9.732697198834572
65000000.0,22.35,0.0,0.0,0.0,-0.2943,-1.464240597474906,9.705915896212359
70000000.0,22.35,0.0,0.0,0.0,-0.285863398640334,-1.470126601359666,9.710526601359666
75000000.0,22.35,0.0,0.0,0.0,-0.27615149854321497,-1.4715,9.7119
80000000.0,22.35,0.0,0.0,0.0,-0.27468,-1.479740401553904,9.7119
85000000.0,22.35,0.0,0.0,0.0,-0.299106904953069,-1.473167698348977,9.7119
90000000.0,22.35,0.0,0.0,0.0,-0.288021596503716,-1.479544201748142,9.727988403496283
95000000.0,22.35,0.0,0.0,0.0,-0.30038220369052204,-1.4654177963094779,9.73152
100000000.0,22.35,0.0,0.0,0.0,-0.29626199805762,-1.45384199805762,9.72367199805762
105000000.0,22.35,0.0,0.0,0.0,-0.2710502938815029,-1.459629902039499,9.7294599020395
110000000.0,22.35,0.0,0.0,0.0,-0.28017360427323607,-1.484645406409854,9.700912791453527
115000000.0,22.35,0.0,0.0,0.0,-0.28449,-1.483566297766263,9.699833702233738
120000000.0,22.35,0.0,0.0,0.0,-0.27703439766914395,-1.458943193007432,9.709545602330856
125000000.0,22.35,0.0,0.0,0.0,-0.267322497572025,-1.459237502427975,9.69718499514405
130000000.0,22.35,0.0,0.0,0.0,-0.3011670126254701,-1.5052464151505642,9.69228
135000000.0,22.35,0.0,0.0,0.0,-0.29959739475557395,-1.4847434868889349,9.706602605244425
140000000.0,22.35,0.0,0.0,0.0,-0.28017359456133595,-1.457373594561336,9.733089608157997
145000000.0,22.35,0.0,0.0,0.0,-0.27468,-1.4936706168987062,9.734364897183548
150000000.0,22.35,0.0,0.0,0.0,-0.27468,-1.4764049854321497,9.71778599417286
155000000.0,22.35,0.0,0.0,0.0,-0.28821780602137803,-1.46169,9.71866890301069
160000000.0,22.35,0.0,0.0,0.0,-0.28762919689219196,-1.4817024093234241,9.735051606215615
165000000.0,22.35,0.0,0.0,0.0,-0.28449,-1.4976927032049272,9.72161189038522
170000000.0,22.35,0.0,0.0,0.0,-0.28449,-1.481506190093862,9.7119
175000000.0,22.35,0.0,0.0,0.0,-0.29086650339916503,-1.4842530067983302,9.705523496600835
180000000.0,22.35,0.0,0.0,0.0,-0.28174319300743195,-1.472284789511148,9.70209
185000000.0,22.35,0.0,0.0,0.0,-0.280860303593403,-1.467870303593403,9.70209
190000000.0,22.35,0.0,0.0,0.0,-0.2966544073810441,-1.477582203690522,9.70209
195000000.0,22.35,0.0,0.0,0.0,-0.28017358484943583,-1.48131,9.720042311362922
200000000.0,22.35,0.0,0.0,0.0,-0.2766420077695201,-1.47542399611524,9.73152
205000000.0,22.35,0.0,0.0,0.0,-0.2960658079637581,-1.477287903981879,9.719944192036241
210000000.0,22.35,0.0,0.0,0.0,-0.29273039184200395,-1.486999804078998,9.7119
215000000.0,22.35,0.0,0.0,0.0,-0.29008170417611706,-1.49112,9.72867511252835
220000000.0,22.35,0.0,0.0,0.0,-0.288806395726764,-1.4801327914535278,9.719355582907056
225000000.0,22.35,0.0,0.0,0.0,-0.2952810087407101,-1.476895504370355,9.69129899125929
230000000.0,22.35,0.0,0.0,0.0,-0.28821778659757785,-1.465417786597578,9.687767404467474
235000000.0,22.35,0.0,0.0,0.0,-0.2850786091291861,-1.4622786091291862,9.702678609129187
240000000.0,22.35,0.0,0.0,0.0,-0.28919879533828796,-1.476601204661712,9.701697590676575
245000000.0,22.35,0.0,0.0,0.0,-0.28949310475883105,-1.4763068952411689,9.702286209517663
250000000.0,22.35,0.0,0.0,0.0,-0.2844899902880999,-1.45678498543215,9.7217100097119
255000000.0,22.35,0.0,0.0,0.0,-0.2698730950469309,-1.4564907148592072,9.73152
260000000.0,22.35,0.0,0.0,0.0,-0.28841402525094023,-1.4856264151505643,9.73152
265000000.0,22.35,0.0,0.0,0.0,-0.30008788455807883,-1.487097884558079,9.722298589705385
270000000.0,22.35,0.0,0.0,0.0,-0.2935152104888521,-1.4715,9.707387394755575
275000000.0,22.35,0.0,0.0,0.0,-0.29969549465845496,-1.4715,9.69326098931691
280000000.0,22.35,0.0,0.0,0.0,-0.28135078368400784,-1.4801328108773282,9.691102810877329
285000000.0,22.35,0.0,0.0,0.0,-0.2733066110715661,-1.4784650833926507,9.706308305535783
290000000.0,22.35,0.0,0.0,0.0,-0.2886102056329021,-1.4822910281645103,9.720140411265804
295000000.0,22.35,0.0,0.0,0.0,-0.29027789426997896,-1.5026957885399579,9.73152
300000000.0,22.35,0.0,0.0,0.0,-0.28449,-1.4793479825185798,9.72759599417286
305000000.0,22.35,0.0,0.0,0.0,-0.2921418118485181,-1.465515905924259,9.72171
310000000.0,22.35,0.0,0.0,0.0,-0.2929265819358658,-1.467772193978622,9.717982193978623
315000000.0,22.35,0.0,0.0,0.0,-0.28556911835549115,-1.4580602938815028,9.7119
320000000.0,22.35,0.0,0.0,0.0,-0.30411,-1.4589432124312323,9.718963212431232
325000000.0,22.35,0.0,0.0,0.0,-0.30067649368726496,-1.468066493687265,9.71778597474906
330000000.0,22.35,0.0,0.0,0.0,-0.2909645935901459,-1.465025406409854,9.695615406409853
335000000.0,22.35,0.0,0.0,0.0,-0.2780153869860539,-1.4715,9.695615386986054
340000000.0,22.35,0.0,0.0,0.0,-0.26800920660409205,-1.468360793395908,9.691887619812276
345000000.0,22.35,0.0,0.0,0.0,-0.2838033201036332,-1.467772213402422,9.724064426804844
350000000.0,22.35,0.0,0.0,0.0,-0.29822398640333986,-1.4783669932016699,9.74525398640334
355000000.0,22.35,0.0,0.0,0.0,-0.29017981379089813,-1.4715,9.73152
360000000.0,22.35,0.0,0.0,0.0,-0.3013631930074319,-1.474246806992568,9.73152
365000000.0,22.35,0.0,0.0,0.0,-0.29165129291031294,-1.4760125858206257,9.726222585820626
370000000.0,22.35,0.0,0.0,0.0,-0.28449,-1.4565887856263877,9.714450607186807
375000000.0,22.35,0.0,0.0,0.0,-0.28939501456785016,-1.4469750145678502,9.7118999708643
380000000.0,22.35,0.0,0.0,0.0,-0.29940118523791187,-1.466398814762088,9.691887629524176
385000000.0,22.35,0.0,0.0,0.0,-0.28449,-1.479053692521837,9.72171
390000000.0,22.35,0.0,0.0,0.0,-0.28449,-1.4650253772741537,9.717393584849436
395000000.0,22.35,0.0,0.0,0.0,-0.28449,-1.4523705383620054,9.706210215344802
400000000.0,22.35,0.0,0.0,0.0,-0.28841401553904017,-1.4970060233085603,9.72563401553904
405000000.0,22.35,0.0,0.0,0.0,-0.3022460921333609,-1.5075026449335265,9.737602184266722
410000000.0,22.35,0.0,0.0,0.0,-0.2925341920362419,-1.4554116159275161,9.72171
415000000.0,22.35,0.0,0.0,0.0,-0.28449,-1.4765031241826312,9.720042291939123
420000000.0,22.35,0.0,0.0,0.0,-0.2876292163159922,-1.4946515673680159,9.7119
425000000.0,22.35,0.0,0.0,0.0,-0.30116698348976984,-1.4587469834897697,9.7119
430000000.0,22.35,0.0,0.0,0.0,-0.2858634083522341,-1.4461902250567022,9.710526591647765
435000000.0,22.35,0.0,0.0,0.0,-0.2943,-1.4740506168987062,9.699539383101294
440000000.0,22.35,0.0,0.0,0.0,-0.29194558290705586,-1.4864111658141117,9.686001625639417
445000000.0,22.35,0.0,0.0,0.0,-0.27468,-1.4540382172871822,9.71297910864359
450000000.0,22.35,0.0,0.0,0.0,-0.27762302622213025,-1.4734620174814201,9.72269100874071
455000000.0,22.35,0.0,0.0,0.0,-0.3032270911621709,-1.4875883646486836,9.73152
460000000.0,22.35,0.0,0.0,0.0,-0.2943,-1.4550192357397924,9.73152
465000000.0,22.35,0.0,0.0,0.0,-0.2936132909679329,-1.4897465819358657,9.730833290967933
470000000.0,22.35,0.0,0.0,0.0,-0.28331278174162783,-1.4697341726124418,9.722298609129187
475000000.0,22.35,0.0,0.0,0.0,-0.2653605092263051,-1.4459940738104406,9.73053898154739
480000000.0,22.35,0.0,0.0,0.0,-0.27664204661712044,-1.5178031347360315,9.713077227970272
485000000.0,22.35,0.00012776219078284478,-0.00044716766773996125,0.0,-0.32314138115891383,-1.448348286953483,9.74221292826163
490000000.0,22.35,0.003576844698527648,-0.01656709494467225,-0.00017035239838871722,-0.2848814672691147,-1.3449515234714156,9.774880399870904
495000000.0,22.35,-0.02967843663993128,-0.09727585487011944,-0.008506559197830832,0.6631565768868658,-1.871649698089597,9.97578890385219
500000000.0,22.35,-0.014905067526570216,-0.025568953316106438,-0.007452551689998317,1.2458690190980901,-1.6677001262547015,9.8786699125929
505000000.0,22.35,0.02938039375761275,0.09465665714637742,-0.0032365343067207036,0.2649671092890711,-1.7939548275172483,9.791262811718829
510000000.0,22.35,0.05071195919940978,0.17000073058172174,0.007239636488116721,-0.9178248085488481,-1.401063793848338,9.675014281126343
515000000.0,22.35,0.09762713497630372,0.10951690192862855,0.0074525559060157,-1.9980038103615385,-0.5175746797003468,9.653628579993487
520000000.0,22.35,0.008050757161047403,-0.06318598901139445,0.00029809456308899,-1.3996901232748014,-0.7353578626097786,9.784886541405266
525000000.0,22.35,-0.08783030471265389,-0.15429941509196948,-0.002022838816470476,-0.5160050618304506,-2.7585742026589424,9.743782449012524
530000000.0,22.35,-0.11370962051128429,-0.1366868320356407,-0.004130847508109327,0.5342537221129373,-1.8686076881816769,10.00875089854381
535000000.0,22.35,0.04346551118228999,-0.05107103052299715,-0.003268476962425105,1.6293440742658407,-1.3579977908050778,10.007573379216534
540000000.0,22.35,0.03775005494873017,0.09835156403369338,0.002682926956113825,1.1654273706688736,-1.5138794202658943,9.230031897958721
545000000.0,22.35,0.03524674856223546,0.18155010536186963,0.006100452781089946,-0.649227896022279,-1.7089022117194221,9.653531082228412
550000000.0,22.35,0.05049762981743496,0.08789116867740852,0.0063879050622992,-1.66279601489356,-0.8613169530571697,9.975789331175795
555000000.0,22.35,0.053150338348002896,-0.050340863016701154,0.0007026625371839689,-1.2059426208468262,-0.6254854275166543,9.753003587373936
560000000.0,22.35,-0.06111040441354345,-0.12416139995224115,-0.003747575691821637,-0.3351085884084859,-2.4297430951162307,9.62674908034939
565000000.0,22.35,-0.061872077440200526,-0.11263532186470651,-0.0024061085247494814,0.1840361267734612,-1.8417283245041833,9.81863306338673
570000000.0,22.35,0.045698792195429216,0.00021831044278269873,-0.0002980998331107115,0.4308554435744544,-1.328665890707959,10.119211554290116
575000000.0,22.35,0.04564033688978611,0.07787318060415396,0.005429726575584305,0.2109146649394466,-1.415583201036332,9.3793399501436
580000000.0,22.35,0.027400252207943593,0.10183299887653673,0.004599289199565313,-0.8468005856939059,-1.4750316450632164,9.727204264682443
585000000.0,22.35,0.013885999243354865,0.005374603254138674,-0.0010433652259526603,-1.2352754727101547,-1.269609904563999,10.169929388605695
590000000.0,22.35,0.013457189152027298,-0.0760590924628858,-0.002129301687433,-0.5352325456761254,-1.2745152687602528,9.9359599645184
595000000.0,22.35,-0.022393150601561756,-0.07913460949764235,-0.0029916701251086176,0.1834478090012781,-1.825445585886956,9.7258299919711
600000000.0,22.35,-0.003623263032638848,-0.028131144748278263,-0.0006387867118142752,0.4865762563941626,-1.6147254988659552,9.74721608157996
605000000.0,22.35,0.04443422542733068,0.03283652404684298,0.0,0.33599220621502207,-1.321112382712224,9.729950352994404
610000000.0,22.35,0.03379198432546506,0.0748935194935439,0.0016608578879683438,-0.1363596516684965,-1.4797407317585074,9.706406376302963
615000000.0,22.35,0.01950055076827919,0.06012777814051847,0.0004897367952588993,-0.7460512764664129,-1.5175088641630887,9.86071795085838
620000000.0,22.35,0.02837977006664398,-0.0017935892772727516,-0.0008091359481899288,-0.9076212240855123,-1.2125155182897551,9.975200508384805
625000000.0,22.35,0.02317359465079492,-0.05273081538270522,-0.00425860864488788,-0.4855942958872429,-1.294920291357003,9.797737172223371
630000000.0,22.35,-0.004978070611764668,-0.0497198686066734,-0.0037475683137912544,0.0051017873757178145,-1.6223782527687827,9.615369404208094
635000000.0,22.35,0.004035057485152635,-0.02062695771367461,-0.0008623631676538345,0.09172343832943439,-1.6093303149883031,9.631850498672906
640000000.0,22.35,0.03288902357133924,-0.005578759628070143,0.0007665499566014426,0.17030176160601762,-1.2870715027507151,9.716608911881089
645000000.0,22.35,0.04457484189226116,0.033114197206616694,0.0010646508437165,0.08760308701803086,-1.400083600907236,9.692574212301542
650000000.0,22.35,0.027916508478251296,0.07180463462534181,0.002555164765330969,-0.5032539974121399,-1.6009922020075222,9.7413301262547
655000000.0,22.35,0.030530365803875636,0.04160281379472971,0.004663173456969825,-1.101271287019813,-1.3096343638705437,9.899369341729193
660000000.0,22.35,0.04094264285526963,-0.034512950131919455,-0.0011924214665341125,-0.9252785461948856,-0.9441139897693399,9.770367241048172
665000000.0,22.35,-0.0005809325342235744,-0.09390732899875127,-0.0042586033748661,-0.1276268470677686,-1.658676401686564,9.72847899041779
670000000.0,22.35,-0.013931550183725671,-0.06824822449654436,-0.0014479194979911802,0.4647983595996836,-1.8788108356095083,9.777038452055784
675000000.0,22.35,0.02642610424220387,0.011284545872841105,0.0006920244713215918,0.4233011197791112,-1.4155822395582223,9.809509539333195
680000000.0,22.35,0.07103704801226937,0.06783681231931163,0.0037901627374145094,0.034922992423529975,-1.2980593717063937,9.7005201490445
685000000.0,22.35,0.06777441341321185,0.08471340074584292,0.0033110597920005275,-0.6034141245083412,-1.34397,9.682862506442424
690000000.0,22.35,0.03309208690820664,0.036750241700709486,0.0008091317321725455,-1.2113395237307951,-1.1006814639031146,9.870037548462976
695000000.0,22.35,0.010312609346448912,-0.08133952236394662,-0.0032471923986656503,-0.9099744660385446,-1.3824261719669617,9.901134751505047
700000000.0,22.35,-0.006175001454465435,-0.12144695375643103,-0.004684462236746656,0.40613629783556304,-1.8462424350931248,9.770759796050099
705000000.0,22.35,0.017577110695579098,-0.0008062564255959109,0.0007665604966449191,0.7509547468421476,-1.7750209344115095,9.798718705406687
710000000.0,22.35,0.06412973982009729,0.10713781064543908,0.00672859931903318,-0.1587274686986746,-1.3708487518277874,9.739563910391139
715000000.0,22.35,0.09356067211848162,0.08381653020161485,0.005482944309009088,-0.8306131305285314,-0.8472888806069888,9.731323994432241
720000000.0,22.35,0.056331431887903446,-0.0005055734006212051,-0.0003832834103354994,-0.8679885622526856,-1.2191883803203838,9.927720349628403
725000000.0,22.35,-0.022528821626265367,-0.07749969952062835,-0.0026083930387991684,-0.3953419579131196,-1.8634099083853992,10.01404794367098
730000000.0,22.35,0.006326989451331713,-0.07472548295004805,-0.002129301687433,-0.01569585820625858,-1.5146627238563275,9.895739130591892
735000000.0,22.35,0.05507733971132115,-0.006288487294614259,-0.0004365021977645999,0.138615599806356,-1.2073169712533698,9.591628800387289
740000000.0,22.35,0.043974600516785,0.04095174178104814,0.0005110308450574882,-0.03492436180144362,-1.3510333581097336,9.49490307309863
745000000.0,22.35,0.034544069160982016,0.014710922759786943,0.0,-0.3795491749438918,-1.4528611447073114,9.80450703671217
750000000.0,22.35,0.04367690250123264,-0.018648835152526758,-0.0005323270028647687,-0.25015434444674345,-1.3537795629644958,9.898289650371597
755000000.0,22.35,0.04914932209304347,0.009592233073999045,-2.128983378120561e-05,-0.159216695954167,-1.3844858426038584,9.756535426675155
760000000.0,22.35,0.037961598147971176,0.022920320188374838,0.0015756848507870256,-0.5156142938181429,-1.376538594754386,9.73152
765000000.0,22.35,0.04410223354883856,-0.017519349875127415,0.0016289141782595959,-0.5478878313356783,-1.222718578310486,9.773016433732865
770000000.0,22.35,0.03971700955628987,-0.04295358707718876,-0.0008943132013886762,-0.061213562445735614,-1.5017155179036552,9.81981
775000000.0,22.35,0.03041326592105512,-0.004792559712940764,-0.0022357635043912328,0.1294916387173164,-1.6500416387173165,9.903685786015458
780000000.0,22.35,0.05606840415307242,0.03996316610273875,0.0008091412182117017,-0.24603566358215667,-1.2788307515684076,9.937137357590974
785000000.0,22.35,0.0667778398462538,0.01587628323494123,0.0004471434256400064,-0.4705853797986538,-1.110394403173544,9.845021684752316
790000000.0,22.35,0.04035649018309641,-0.027740981246821023,-0.004088262570525235,-0.20483224758712246,-1.4968105518953054,9.880632153448023
795000000.0,22.35,0.02771970511509632,-0.01287468476902769,-0.00445023717500131,-0.08446442428034424,-1.5664599970200999,9.917419422790394
800000000.0,22.35,0.05645796972304792,0.022162202646672596,-0.0023422284833624534,-0.308034404015044,-1.163465595984956,9.813923704758237
805000000.0,22.35,0.06803411182477458,0.012509589689652649,-0.0006494353177200682,-0.4342885905468859,-1.1213815534486156,9.640875349821453
810000000.0,22.35,0.03980358201750351,-0.016870732378385843,-0.0012137070842979686,-0.31038805386788054,-1.4552160765309607,9.683059182131291
815000000.0,22.35,0.03549813900052679,-0.015757124829797055,-0.002012184940542997,-0.14391255752642557,-1.4989670501761705,9.889951420848014
820000000.0,22.35,0.06387139018852202,0.011760052728214686,0.0,-0.15892231855032318,-1.124618384072484,9.79548091330471
825000000.0,22.35,0.06242340428825706,0.014969659401023462,-0.0003726295344079456,-0.33255922434489227,-1.2453800929115009,9.685903516024636
830000000.0,22.35,0.04363706049764655,-0.006947506639293355,-0.001426633880227324,-0.3517862614431626,-1.4946516644870167,9.81235498038315
835000000.0,22.35,0.05136073643828538,-0.017493214766089712,-0.0017779651488192974,-0.18020952159239523,-1.3716334539318347,10.038965367562254
840000000.0,22.35,0.07119614595959856,0.008565416822116255,-4.2580721566757044e-05,-0.16127667737186677,-1.1100998121078982,9.90966899630829
845000000.0,22.35,0.05716404592112659,0.014927749406353363,0.001469214601794081,-0.3324612118491121,-1.2850123759802237,9.681096698478667
850000000.0,22.35,0.04911532302302406,-0.00958711152865259,-0.0006387940898446758,-0.390437603754476,-1.4342217358363172,9.795285412755755
855000000.0,22.35,0.06050711055508799,-0.012724297649253917,-0.0015118005933825673,-0.20571558374855584,-1.2589169180309692,9.96696
860000000.0,22.35,0.06906682740809594,0.0014479469021042492,0.0,-0.14597273318212733,-1.1536563340893633,9.868074598639145
865000000.0,22.35,0.054215000785767194,0.008346848027317506,0.00028745755123097327,-0.1759917696349177,-1.3478943360317435,9.653530752023807
870000000.0,22.35,0.060762598046501554,0.001022057474097593,-4.259336961893274e-05,-0.3360906168987062,-1.401848408545284,9.822164805568947
875000000.0,22.35,0.06737845978207774,-0.002661630798306485,-0.0026616234202761144,-0.3163723130459231,-1.1085297280667974,9.974317347037573
880000000.0,22.35,0.0724018034399199,-0.004514121432405732,-0.0008091327861768913,-0.24014883418588834,-1.0920499349965993,9.83511307011873
885000000.0,22.35,0.05466213577937249,-0.0014053092643027685,0.0,-0.2798794890906949,-1.4013584140496842,9.635578440660884
890000000.0,22.35,0.05665307410031242,0.005149017796900852,0.00023422506174536556,-0.34570426170254265,-1.3031599159588994,9.786652563030826
895000000.0,22.35,0.07444703625475703,-0.019010831891094118,0.000841072279868256,-0.20208530462795304,-1.08891,9.918498356619784
900000000.0,22.35,0.0781942069670073,-0.011934468399750403,-0.00021293206595112248,0.06474561540875616,-1.167390699256807,9.790379825185799
905000000.0,22.35,0.06204016409209975,0.029625391348529,-0.00045779413955449716,-0.19924196134841962,-1.451487318743373,9.745450516413705
910000000.0,22.35,0.06434301671825714,0.020516262807918514,0.0015543844769623618,-0.5727076409190764,-1.236059116217091,9.907903994432239
915000000.0,22.35,0.08873775587086814,-0.0170518667919846,-0.0012456434159762578,-0.4369367246344673,-0.880546097637761,9.959700208998902
920000000.0,22.35,0.07393347543641567,-0.014153190969223567,-0.0017886095387077273,-0.1416565608290656,-1.179162804145328,9.761734585561246
925000000.0,22.35,0.045001598714008016,-0.0011711432268007819,0.00015969957646551477,-0.23494973357119733,-1.501419907088499,9.686394287472243
930000000.0,22.35,0.06485337578241365,-0.014886276011385074,0.0006174916080113203,-0.2925335316270353,-1.1836740400118404,9.83629101676961
935000000.0,22.35,0.10110898642732387,-0.01493922953529422,-0.0017140819454191849,0.025996590806265908,-0.9693267719663677,9.923501500226216
940000000.0,22.35,0.08245418130778849,0.02935925630521401,0.0008091306781681997,-0.010203623310936244,-1.2886416547751167,9.830797218258372
945000000.0,22.35,0.05773031347085142,0.03544700988902524,-0.0009475372588394714,-0.6004703019104031,-1.2713752657803528,9.840509118355492
950000000.0,22.35,0.08596969698374247,-0.0154392126350953,-0.00010646708697990705,-0.6474590773694907,-0.9339122214313221,9.84629694464217
955000000.0,22.35,0.08893840947734079,-0.028005514894680783,-0.0009688302546337145,-0.19100038465460384,-1.0848888460361885,9.82157583709946
960000000.0,22.35,0.05241575845121881,-0.008730116681592136,0.0,-0.054936372936963726,-1.506422798185528,9.83943
965000000.0,22.35,0.06934495930166266,0.0009901232504279575,-0.00022358277986563428,-0.22582593758445937,-1.1121595313042951,9.838743281256033
970000000.0,22.35,0.09804279081693532,0.001023144757334764,-0.003066190340366752,-0.09986585652325858,-1.042999614503896,9.833151713046517
975000000.0,22.35,0.0813907869754822,0.01785038575439912,-0.0010114162462222006,-0.14911283328102834,-1.242926886370769,9.888970518938205
980000000.0,22.35,0.07047296448050037,0.03195622879223605,0.0,-0.5634866093885662,-1.166604210163142,9.891618876399487
985000000.0,22.35,0.0996823567631138,0.004821719313366875,0.0,-0.6556015538347156,-0.6963150627412508,9.733580233927102
990000000.0,22.35,0.08405249846559695,-0.045665478038168214,-8.518041521174088e-05,-0.27605257312882575,-1.3261159730660597,9.80372194613212
995000000.0,22.35,0.027379475933460216,-0.03794006207458456,-0.004216008951242846,0.13704564201995642,-1.4079302723193026,9.977162477306726
1000000000.0,22.35,0.10119418159859643,0.0021293523141991187,-2.1080086916387567e-09,0.10790984460959845,-0.9417601359666014,10.016009261895592
1005000000.0,22.35,0.09697816421531873,0.027442735373632777,-0.00105400645382807,0.030214643832646437,-1.0097434366464344,9.646957058205071
1010000000.0,22.35,0.09589222669983405,0.06214635803644526,0.0031087889800073924,-0.4320333416658334,-1.0969543765623437,9.691299098090191
1015000000.0,22.35,0.08864194160581142,0.027720119062344048,0.0031939525311496,-0.9077202660427026,-1.136782878860629,9.996783030885032
1020000000.0,22.35,0.09250664774657961,-0.032679669694633276,-0.002938449229670824,-0.6207761660071616,-0.6388261499493615,9.921441421689513
1025000000.0,22.35,0.07344341383503059,-0.05640734150551319,-0.005216793455628864,-0.22611968371479685,-1.2051597542918977,9.824714800906047
1030000000.0,22.35,0.04941336277788712,-0.03048874897792253,-0.004322480254240143,0.1351825402410254,-1.365159880091199,9.746038639947885
1035000000.0,22.35,0.09548654453947296,0.017805428045687362,-0.0002980935090846435,0.010986878341868761,-0.962850595336506,9.923796402072664
1040000000.0,22.35,0.11279367896793185,0.02914631791523673,0.0,-0.20758006461730064,-0.8597482383939823,9.729949935382699
1045000000.0,22.35,0.11204978450644731,0.04242252503504782,0.0,-0.359536804468068,-0.898105601489356,9.658337278212773
1050000000.0,22.35,0.07349921685104932,0.012990414757216292,0.0,-0.7347698361945985,-1.0437843263198432,9.935568652639686
1055000000.0,22.35,0.07967570111684173,-0.0435115319321389,-0.0018950829497137093,-0.5392551467130515,-0.884861590157816,9.940767238523673
1060000000.0,22.35,0.09220856372353414,-0.044436767443910154,-0.004939986618312376,-0.1130102528955026,-0.9582410264815102,9.79940487057235
1065000000.0,22.35,0.07057023774675308,-0.0066030143210960845,-0.0016182603023320793,0.026487206863472064,-1.2528357826494578,9.737896396568264
1070000000.0,22.35,0.09001296913686377,0.016346796666972075,-0.0010646508437165,-0.19698538193705387,-0.9490185478778854,9.841196070185061
1075000000.0,22.35,0.12271504492499563,0.020991079445954422,-0.00015969536044813147,-0.32716372968643725,-0.7592936659106366,9.89240408352234
1080000000.0,22.35,0.11083604369401033,0.0168389252399943,0.0,-0.27742663217836633,-0.7934329468439295,9.791164527289844
1085000000.0,22.35,0.0801770387331785,0.012438079728084906,0.0,-0.4847126690202267,-0.918412495047525,9.721906073551061
1090000000.0,22.35,0.08330493727850216,-0.019731728081425405,-0.0017460319791540078,-0.5619168846877689,-1.0141579905474798,9.760165327031652
1095000000.0,22.35,0.07486185626994242,-0.03784452777727235,-0.006441149145832574,-0.14783557273975573,-1.03005,9.913790182843101
1100000000.0,22.35,0.09288647848058093,-0.0063913029304076,-0.0031939409371017366,-0.04120197863381979,-0.8809375940425759,9.93164395726764
1105000000.0,22.35,0.1005234669871386,0.015600313760880561,-0.00044714869566172145,-0.20973827219258273,-0.8591598429265984,9.795971335123912
1110000000.0,22.35,0.09621161004269986,0.0075415349010535156,0.0,-0.21680089219790893,-0.8709318215604183,9.806860929362509
1115000000.0,22.35,0.0948062849683319,0.0034388198747747037,-0.0016395670001827923,-0.2966546598904466,-0.9259660516027606,9.933115824863059
1120000000.0,22.35,0.09885196997930343,-0.0032791434864048253,-0.002129301687433,-0.3088187564906876,-0.9343043782453437,9.892403782453437
1125000000.0,22.35,0.1057320627252621,0.013055117388519631,-0.0005323206788386938,-0.2967524781482248,-0.7406544318538444,9.802642303334023
1130000000.0,22.35,0.10364741287793529,0.0049870608887017925,0.0,-0.35963479754004796,-0.7930407511823077,9.882201907284518
1135000000.0,22.35,0.09526406329782121,-0.014002296095815202,-0.003108790034011713,-0.36110603386196033,-0.9054632204601322,9.87494206772392
1140000000.0,22.35,0.09344353429150466,-0.012269642973955316,-0.0019589503430486625,-0.2825277785686778,-0.8613177785686779,9.837860333570603
1145000000.0,22.35,0.09752115668815887,-0.010337762106157538,-0.001820555356425167,-0.12272267743522677,-0.8826058556817585,9.843550244480502
1150000000.0,22.35,0.10578442782100736,0.011723449351686878,-0.0036198177170561605,-0.19914342441003424,-0.7514455085778551,9.746234664939447
1155000000.0,22.35,0.11160264529682473,0.01615614673669686,-0.0013201573072083353,-0.3092113794759138,-0.8085406038208061,9.756241379475915
1160000000.0,22.35,0.10132749402075554,0.010944600892245655,-0.0014479300380346046,-0.3068567098735671,-0.7565468394942684,9.833936580252866
1165000000.0,22.35,0.10586908885397928,0.0010220353400063626,-0.0014159831663128192,-0.4454726204607262,-0.6274473284552733,9.826186386856364
1170000000.0,22.35,0.10445793349409677,-0.022177616371668357,-0.0024699948901626845,-0.3062674500470745,-0.731041699968617,9.712880659112308
1175000000.0,22.35,0.08942975610008981,-0.0028805618595826553,-0.001117875955171722,-0.1260582489473825,-0.9319504564593046,9.790380456459305
1180000000.0,22.35,0.08650202082459421,0.0052806408228811665,-0.0006813790274288161,-0.3708190314037903,-0.8813299645183997,9.959504766721347
1185000000.0,22.35,0.114587944173008,-0.0076548720401957825,-0.0017353833732481946,-0.30106804836348044,-0.6226399864666999,9.867682247587123
1190000000.0,22.35,0.12203618372388257,0.0090178500018291,-0.001469215655798427,-0.10594776885677767,-0.6013533467148335,9.798816669342967
1195000000.0,22.35,0.09638869434956662,0.019777362875617373,-0.00041521130997904847,-0.36787616057206163,-0.8487619427661195,9.899761848171618
1200000000.0,22.35,0.09139943515337459,-0.0055397687243539315,-0.0025551721433613797,-0.482651696988717,-0.7710652075089521,9.910061813531518
1205000000.0,22.35,0.11893101296800673,-0.013134267689360084,-0.001746017223093207,-0.30430568507505684,-0.5218915318864153,9.849730382971604
1210000000.0,22.35,0.10950569492504329,-0.0031300556256929754,0.0,-0.17599123548041234,-0.6804225871175258,9.82962
1215000000.0,22.35,0.09464660014792724,0.0084959495900858,-0.0006068535421489653,-0.2533927483984275,-0.8311031056003311,9.801661382000415
1220000000.0,22.35,0.1088695014267737,0.006558213192505406,-0.0022570649322202437,-0.39946348436443485,-0.6219531706037318,9.846493484364435
1225000000.0,22.35,0.1194171779153253,-0.00996412864124957,-0.003779513077504322,-0.2947898099694981,-0.4762755237941553,9.849730285852603
1230000000.0,22.35,0.11001748081734515,-0.0025844135068787914,-0.001958947181035643,-0.1561751522174515,-0.6237204450644045,9.74643091330471
1235000000.0,22.35,0.09611578207558667,0.014041364028242517,0.0,-0.2667344517330445,-0.7715566199419662,9.801465803756258
1240000000.0,22.35,0.1026938292454116,0.004309506825765235,-0.0005536210526633576,-0.44929836128268363,-0.6313708292636083,9.91869489634205
1245000000.0,22.35,0.12323931914459199,-0.008538505015548222,-0.001607625398482736,-0.3698362745210627,-0.46067750326947504,9.822458143799482
1250000000.0,22.35,0.11610794412537818,0.003735070517736413,-0.0005323175168256563,-0.2354400485595005,-0.5836957041127571,9.731520097119
1255000000.0,22.35,0.09019630184067387,0.008696409691727929,-0.000500393833199479,-0.38465080692920806,-0.6970984537387847,9.866506185044862
1260000000.0,22.35,0.09937146382266501,-0.013806324272974086,-0.0031513718095827906,-0.44027233499422336,-0.6011564573641647,9.93007410631214
1265000000.0,22.35,0.117809541976799,-0.014743943212689372,-0.0027574376853328033,-0.2050282628667826,-0.5527936228555362,9.83658492800225
1270000000.0,22.35,0.10876259559752574,0.011847004838337944,-8.516671315524321e-05,-0.2205297373925974,-0.6013531233411312,9.813727874004678
1275000000.0,22.35,0.10876111342551287,0.01204008392033388,0.0005855552763329931,-0.4350735742960357,-0.5881092771118929,9.82962
1280000000.0,22.35,0.12118450394427793,8.519095525518503e-05,0.0,-0.34766580330085806,-0.4618543524756436,9.846885699449857
1285000000.0,22.35,0.1189912853253057,0.0015117879453304746,-0.0013734077147678342,-0.266439899514999,-0.4220265494341655,9.860423350080833
1290000000.0,22.35,0.1053138189238288,-0.009291129293945127,-0.0031939525311496,-0.29645797448967975,-0.6115560765309608,9.779196174036063
1295000000.0,22.35,0.10048806534835256,-0.0017064736582458225,-0.001884423803764497,-0.27340487607674874,-0.6445162453853626,9.738779752153498
1300000000.0,22.35,0.11420041924183978,0.014489665856494824,-0.0017034523115916364,-0.3963245302697453,-0.40024754548307545,9.890442454516926
1305000000.0,22.35,0.12084379387747875,-0.006416054425478094,-0.0046738199548669165,-0.37071891142568913,-0.3593407309170073,9.881612239558223
1310000000.0,22.35,0.11257544337673647,-0.0031341600050094343,-0.0033004038080643437,-0.2118965089035651,-0.4946204290066043,9.72445695267107
1315000000.0,22.35,0.10017210304441188,0.013425540719044213,-0.0003939235842065345,-0.4061345108459451,-0.5130627445770275,9.837174236388242
1320000000.0,22.35,0.10516104952960957,-0.01188787290651536,-0.002214482102644775,-0.4308544820963448,-0.3841591128510911,9.913985615408757
1325000000.0,22.35,0.11984300515707545,-0.019600819566719004,-0.0035133421980414817,-0.17952243379622435,-0.34040756620377566,9.778607691161577
1330000000.0,22.35,0.10821107526191742,0.01293085428481984,-0.0006813653253723204,-0.1659861816788618,-0.5273859616711597,9.745450535837506
1335000000.0,22.35,0.10469204945775296,0.018909175781032572,0.0014266265021969033,-0.48647849640778495,-0.5209102220768023,9.845806629653866
1340000000.0,22.35,0.12293616212951497,-0.004045715577097562,-0.0006813821894418536,-0.4995240547727406,-0.24211012327480125,9.859834643832647
1345000000.0,22.35,0.12718502166617304,-0.008634264472378982,-0.002129301687433,-0.19992774774997749,-0.20856180175051803,9.838056756750067
1350000000.0,22.35,0.0960837919896867,0.0037262637239492214,-0.002129301687433,-0.26879473421964734,-0.5405311835549118,9.861011842667219
1355000000.0,22.35,0.08720983656181246,-0.007106348325336401,-0.0018205500864034378,-0.4354656631267566,-0.45204353667603536,9.797050589446005
1360000000.0,22.35,0.11709627404788744,-0.020624169388374636,-0.0019589661531138496,-0.2189577206833772,-0.19188431324194313,9.790772875494628
1365000000.0,22.35,0.12265365952182873,0.007185349959727857,-0.0031087689539247964,0.046792400839124004,-0.4514568893506689,9.888774008351639
1370000000.0,22.35,0.11032507187319614,0.047364661442092955,0.0008304363220146186,-0.4418438369727384,-0.49481490980604914,9.81
1375000000.0,22.35,0.12197677350758095,0.01118741548465287,0.001330793265062018,-0.7112236646137368,-0.03433441243004411,9.829620213661803
1380000000.0,22.35,0.13303237560615722,-0.025181569673356843,-0.003747565151778167,-0.26565391544013917,-0.05611529077785293,9.893188853609688
1385000000.0,22.35,0.09319453986427279,-0.006735140867414828,-0.001639556460139334,-0.14597430650994309,-0.6241120385882204,9.883280404078404
1390000000.0,22.35,0.07456829169658048,0.003927524765221594,-0.00023422611574971136,-0.5625053190027532,-0.44066347205873474,9.823930496989906
1395000000.0,22.35,0.12103917196757678,-0.04237990742332891,-0.0026297081686846918,-0.35619868843808694,-0.014813939982239406,9.879258220653181
1400000000.0,22.35,0.13252275261716676,-0.01767636393491358,-0.006813741790088494,0.25309688507386885,-0.34335122369941223,9.757025809646757
1405000000.0,22.35,0.10479603198002961,0.0741273960976848,0.00020228662205834674,-0.24574309259173094,-0.580946507992765,9.737504618518345
1410000000.0,22.35,0.11631168551533634,0.04171694713912208,-8.518990125088713e-05,-0.9140944580096446,-0.0017644580096445733,9.876119208287092
1415000000.0,22.35,0.1534258380783415,-0.03388397575131694,-0.004780273339790355,-0.4282049883427499,0.2723236211032362,9.799797270183873
1420000000.0,22.35,0.10524872926558547,-0.021563086032063538,-0.0017886074306990357,-0.04787398601723987,-0.3986798894169989,9.733482551635925
1425000000.0,22.35,0.051711659064208826,0.0068136933058886105,0.0,-0.45077041340420415,-0.7274093133656931,9.911533749110237
1430000000.0,22.35,0.1113773018977326,-0.01848485450414743,0.0,-0.627053200125532,-0.015106316734663165,9.945377166718972
1435000000.0,22.35,0.15364780890542964,-0.034381980450403464,-0.00013840763467561749,0.027567131306671322,0.20296647503566473,9.69610598361946
1440000000.0,22.35,0.10213100384925629,0.014313284432296692,-0.000936889706938004,0.24093116658631167,-0.5607401034649011,9.748786243316262
1445000000.0,22.35,0.08573950673702668,0.06891580487921042,0.00011711463888137442,-0.5705511717739117,-0.5995841687217417,9.940865231595653
1450000000.0,22.35,0.15222767548469326,0.033869669854003775,0.0007452464207637413,-0.9976752256358522,0.3698377604417776,9.870821493038815
1455000000.0,22.35,0.16162698019931784,-0.027391255606980452,-0.00222512333052014,-0.40348408474994085,0.5040344651277446,9.718080497831405
1460000000.0,22.35,0.06893758669111849,-0.04308649559105954,-0.003108777385959582,-0.05022830599118305,-0.5736896791211968,9.793912082098721
1465000000.0,22.35,0.03525068373065751,-0.011263987397124557,-0.0019802443928472234,-0.411824198382142,-0.7875440682367406,9.948026728455869
1470000000.0,22.35,0.12450844702146381,-0.005770429264353079,0.0,-0.510707200903672,0.10653748514257484,9.941257029069371
1475000000.0,22.35,0.16943550756758244,-0.011391683185633581,5.323565149864517e-05,-0.053954713498947135,0.3644398669439987,9.687865242149053
1480000000.0,22.35,0.10840788812839028,0.015161344916486578,0.0009794725365134527,0.02315042136380421,-0.18285957863619579,9.618117434900073
1485000000.0,22.35,0.07801739315912476,0.021470183445372718,-0.0010327081880120979,-0.3703282211085822,-0.5530862424054624,9.95715
1490000000.0,22.35,0.12116366546625941,0.026846685963506214,2.1296157807280543e-05,-0.6099860604731606,-0.02825117927811179,9.952244276463443
1495000000.0,22.35,0.15935873203908574,0.03673675099800329,0.001054001183806341,-0.6959212257685122,0.5078630321126303,9.712096258077162
1500000000.0,22.35,0.11718120666840538,-0.017052066102478516,-9.486039112374702e-09,-0.6376488345719884,0.28448810617948106,9.731520349628402
1505000000.0,22.35,0.05074437536224688,-0.08348889740863692,-0.0031620225234973466,-0.24917283068722823,-0.3467854001332541,9.848063150793832
1510000000.0,22.35,0.05633366229932926,-0.052841841954255044,-0.0031939525311496,0.00470956257839561,-0.4589121226293212,9.887695317319753
1515000000.0,22.35,0.1101964154202015,0.017039863617706742,-9.580899503498471e-05,-0.01873718828117188,-0.299302599740026,9.869448541145886
1520000000.0,22.35,0.14969142349688347,0.05803650823012562,0.0,-0.2550607381044073,0.12007569906375698,9.802936593330767
1525000000.0,22.35,0.16746701121084617,0.07179241202809372,0.0,-0.544455888638859,0.4635235367453354,9.809509529621296
1530000000.0,22.35,0.13225884010616307,0.02737988198431473,0.0,-0.7343771646498717,0.3608114136606141,9.846885718873658
1535000000.0,22.35,0.07348742720768472,-0.04089275449694942,-0.0019802570408993733,-0.654326701844667,-0.039143182067931825,9.7397600422136
1540000000.0,22.35,0.04571358580301563,-0.09088712298460774,-0.00506774775509088,-0.3315769530571695,-0.3304016674669166,9.89397413842774
1545000000.0,22.35,0.08342215949494178,-0.05313047485856171,-0.0014479121199607431,0.16902789051787892,-0.29959721994137223,9.943808520039086
1550000000.0,22.35,0.12952975425651603,0.04016556615985502,0.0027681052633168777,0.05689745807597457,-0.10006133764841338,9.841391638717317
1555000000.0,22.35,0.1617100862994194,0.10790465746841206,0.0031939525311496,-0.5544632538726326,0.5064923236686233,9.655001395919813
1560000000.0,22.35,0.15761297899095061,0.05317088939385269,0.002257056500185433,-0.9731532120451322,0.7169152848180529,9.780178115119181
1565000000.0,22.35,0.09357560340322592,-0.05071646643301015,0.00027680262129908513,-0.8324759312385593,0.34315240168062405,9.859933112787731
1570000000.0,22.35,0.052098660414398534,-0.0887992968519879,-0.0027468091055095935,-0.15479945185679456,-0.18796130774051317,9.919479782972198
1575000000.0,22.35,0.03510027337095188,-0.05917875604873709,-0.0031939525311496,-0.08240412236994121,-0.4649947342196474,9.969412652962427
1580000000.0,22.35,0.10371610501936018,-0.012994175358328433,-0.002299642491773923,0.027076029654460293,-0.17893320310543204,9.84492310896633
1585000000.0,22.35,0.16492820979386894,0.05744582980152154,0.001405352478480885,0.04090766921327669,0.2975388701228887,9.852379323146893
1590000000.0,22.35,0.17558047516821373,0.12271150839484016,0.0038753357745957813,-0.42732539126285396,0.5515188485606886,9.71425384409084
1595000000.0,22.35,0.13952427160548914,0.07727108901908183,0.0033962328291818715,-1.1892688714197888,0.5329770831332709,9.539439642342698
1600000000.0,22.35,0.09097687401191074,-0.035793607140294906,-0.00021294365999890638,-1.061440881189109,0.30803316089183164,9.600066372936963
1605000000.0,22.35,0.04561299059152502,-0.10364253603438467,-0.004428961043276599,-0.5025643359624433,0.14656096354720963,9.879357728781578
1610000000.0,22.35,0.04119816829083964,-0.10673418014773403,-0.0044928231665897584,0.07102621379446217,-0.22661240725432408,9.977947325089273
1615000000.0,22.35,0.07214260917073087,-0.03795871549792164,-0.0042586033748661,0.40015074697480746,-0.202870298089003,9.759968058916881
1620000000.0,22.35,0.11739030108725457,0.04260863025409271,-0.001022051150071542,0.20012289867052896,-0.002746107735761061,9.863759523730794
1625000000.0,22.35,0.1624553907595373,0.08016305138708033,0.0,-0.16186619941966202,0.49050189382051895,9.895837405308974
1630000000.0,22.35,0.16970358197889376,0.09101614858102601,0.0007878450604043774,-0.4946212448062125,0.6594282949823831,9.77232909342729
1635000000.0,22.35,0.1123230336816852,0.05767756604798876,0.00028745228120924415,-0.8437592750427928,0.5238533648417337,9.552486706052166
1640000000.0,22.35,0.0724359643946395,-0.02046183604511532,-0.0007665520646101343,-1.0759614052456141,0.23779334878393346,9.655787564520775
1645000000.0,22.35,0.06195498578489668,-0.08815799649531769,-0.003332367543855609,-0.6614861592058616,0.1750105278086053,9.833152111234421
1650000000.0,22.35,0.07191110807090532,-0.07041339980936524,-0.0020228261684183562,0.0029452113996520923,0.17265593590145936,9.858068903852189
1655000000.0,22.35,0.08258412119250114,-0.014968973399703225,-0.0010646508437165,0.08416922136499222,-0.0024533036597330082,9.700323492779434
1660000000.0,22.35,0.103335447496704,0.02926859945620897,-0.00034068477069485186,-0.1506824705747247,0.10830330281823308,9.680115825704558
1665000000.0,22.35,0.129702834901957,0.04011219704721588,0.0014266391502490532,-0.36689464681254647,0.5182638846907389,9.905844702559449
1670000000.0,22.35,0.13075095306547402,0.023236534503026735,0.0007239555329781899,-0.3539444107470441,0.5927197783092979,9.876707351245074
1675000000.0,22.35,0.10322301517709577,0.012829032074040585,0.0,-0.4414506506973065,0.35168749141917494,9.637833621558636
1680000000.0,22.35,0.0666882085780348,-0.008741413327383096,0.0,-0.6356886526396865,0.10084604946436049,9.720926113695562
1685000000.0,22.35,0.07407118549300193,-0.0376958881275889,-0.0006707335835360404,-0.4838280217522802,0.26683330916413306,9.96813798549848
1690000000.0,22.35,0.10214198937369881,-0.0340715446541018,-0.003044912100633318,-0.11595291977732919,0.4545956297835563,9.891029713691998
1695000000.0,22.35,0.09820925285072607,0.006924248979398511,-0.002310281611640647,-0.03639546215675461,0.3729756073798561,9.634792543993125
1700000000.0,22.35,0.0894830307497492,0.02897596340883935,-0.0004258567538718242,-0.30214925477749255,0.23936363677493638,9.647154627388746
1705000000.0,22.35,0.09450821148532987,0.014741837208333797,-0.0018844427758427215,-0.4570479331175793,0.3061707292340073,9.843256595469166
1710000000.0,22.35,0.10480287250279155,0.0024061000927147434,-0.0013414492489982439,-0.375722501779525,0.6158731618026316,9.842372501779526
1715000000.0,22.35,0.10061608269458094,0.0004577962475631888,0.0,-0.263594400193644,0.6394149338927494,9.663143600451836
1720000000.0,22.35,0.07346078488065404,-0.00298104049128106,0.0,-0.308034501134045,0.23308379591743794,9.591040900226808
1725000000.0,22.35,0.06396722974968302,-0.0035665694175053856,0.0,-0.4483174690847747,0.15107493816954937,9.765856005181659
1730000000.0,22.35,0.09282758030304629,-0.007878452712052682,-0.001149830204923893,-0.41476619514286195,0.45479274250792745,9.919479734412697
1735000000.0,22.35,0.10727086625339174,0.00020236778039299866,-0.002129301687433,-0.24515132709501325,0.5198313270950132,9.79714799009208
1740000000.0,22.35,0.09395450927433184,0.028882520359821817,-0.0004684353674298896,-0.3963255208835552,0.3853364282284643,9.71857110417671
1745000000.0,22.35,0.08520312700105839,0.020289985094449473,-0.0005642759825952458,-0.6982764101015642,0.3735650711562507,9.896034615152345
1750000000.0,22.35,0.09108005497252179,-0.010655286790113955,-0.0010646434656860792,-0.6474590482337905,0.5640760537411605,9.937529388150294
1755000000.0,22.35,0.09017499830483618,-0.022289978539511958,-0.0005216826129763388,-0.40917438413584384,0.6199913182246132,9.78194292275723
1760000000.0,22.35,0.07026826655568014,-0.0251006160401957,-0.0005536147286372827,-0.2476039897693399,0.3880826427951264,9.68364699488467
1765000000.0,22.35,0.06453150678628262,-0.01392416601934523,0.0,-0.1956114685660147,0.3098002799621028,9.699147342830074
1770000000.0,22.35,0.08664174299275541,0.0026829649002702736,0.0,-0.21052263438012636,0.5315069345441693,9.755652634380127
1775000000.0,22.35,0.10044891198973706,0.007665471107897344,0.0,-0.13635837940958379,0.6356874483640745,9.681488379409583
1780000000.0,22.35,0.08850348443293153,0.018447537186544793,0.0,-0.20326451382584515,0.4889299159588992,9.601635738297457
1785000000.0,22.35,0.07684875924021131,0.02186712101548178,0.0,-0.48795002408670024,0.47107668540076686,9.71219502810115
1790000000.0,22.35,0.08144548959368518,-0.005586183879173291,0.0,-0.46499295694192955,0.6441253996778541,9.813139060925591
1795000000.0,22.35,0.08511792445175537,-0.012189842490663544,-0.0004365106297993665,-0.29027786513427867,0.6301931448340314,9.717981572417015
1800000000.0,22.35,0.06349145080567939,-0.0029810299512375298,-0.001490514975618745,-0.3158822797027228,0.3511973706688737,9.692280699256807
1805000000.0,22.35,0.05792693967488255,-0.0042586033748661,-0.0017140840534278765,-0.39740341553963415,0.3791577270985773,9.886518701199188
1810000000.0,22.35,0.09048385214428731,-0.003449461102650058,-0.0010646508437165,-0.3692476265442763,0.5923278351570783,9.94282680232967
1815000000.0,22.35,0.09591349123751094,0.013240216983746148,0.0005110477091270582,-0.2898860288129603,0.6492262935587629,9.77046503017025
1820000000.0,22.35,0.08249255739867468,0.03058785403461324,0.0008942836892669756,-0.492070695890807,0.6509907515684076,9.709546165621063
1825000000.0,22.35,0.06891782386773178,0.004471425824365306,-0.0028213208887329275,-0.6454975746187758,0.5209112126906121,9.782531716412517
1830000000.0,22.35,0.07102583255937056,-0.01635898657280666,-0.0003193759648353876,-0.5289547734533477,0.6292141464566415,9.758203484364435
1835000000.0,22.35,0.06856643884491813,-0.024802586825376137,0.0017885979446599905,-0.3768012802185128,0.7230946366452464,9.79057598614396
1840000000.0,22.35,0.05935723608198155,-0.03178658404545359,-0.0017460351411670773,-0.1754022281633223,0.5717260494643606,9.704051463903115
1845000000.0,22.35,0.057451538254500986,-0.01675893436204869,-0.0015437242770088137,-0.07475227167382271,0.4620513583691136,9.652648173390581
1850000000.0,22.35,0.06668737124933644,-0.001384010998486744,0.0008517050757088818,-0.07946089219790892,0.562113395274334,9.749177856263879
1855000000.0,22.35,0.08587389958275526,0.018918494077945117,-0.0002767857572295233,-0.11291378459183785,0.6120455757196558,9.693260639688505
1860000000.0,22.35,0.09088834633807802,0.054885753341381495,0.0033642849034557125,-0.4100601676961017,0.601549886437099,9.662065705795756
1865000000.0,22.35,0.0834097691727727,0.045964949355556714,0.0007771911844768351,-0.8285525275492254,0.7569398898030989,9.80068104338081
1870000000.0,22.35,0.07451786384354407,-0.0034541012617494357,-0.0005536263226850868,-0.7861730004524301,0.8448376358700764,9.862188546194885
1875000000.0,22.35,0.0609816498517509,-0.03036448430185558,-0.0018631350239875781,-0.6278388345719883,0.8583739074112391,9.706994635803746
1880000000.0,22.35,0.024202044419347264,-0.06097981277401238,-0.0018312113403614247,-0.3029314123637141,0.5834979601148796,9.656964365167443
1885000000.0,22.35,0.0127586347436506,-0.07639436616533556,-0.003768856039563719,0.05935178148521783,0.34884257481182573,9.760852375980223
1890000000.0,22.35,0.04158538951324743,-0.03854213202664937,-0.0014266201781708283,0.3431541303988413,0.18482120764161206,9.865524710132947
1895000000.0,22.35,0.07935892468957707,0.0491198629825955,0.0015118121874303924,0.28223138108961376,0.4376256091321561,9.882299589575695
1900000000.0,22.35,0.1254892493831653,0.1267632835984307,0.0025551500092701376,-0.39044146909071475,0.8495477714505777,9.819809261895593
1905000000.0,22.35,0.13338540157550724,0.11260373985127596,0.0,-1.1915238580795386,1.2448893700233938,9.638618818969588
1910000000.0,22.35,0.08342922464158073,0.009735284029786948,0.0,-1.3575056111319561,1.2749065612151655,9.538851674198916
1915000000.0,22.35,0.006910230445138971,-0.11133582637747683,-0.00036198936053689895,-0.7511487614703876,0.9129155498806556,9.576620583555506
1920000000.0,22.35,-0.041240701582210826,-0.15352177942867629,-0.003151390781661016,0.003534247852442468,0.16519849802148498,9.702875284818052
1925000000.0,22.35,-0.01954557282309222,-0.09268077816307028,-0.007079891589464397,0.5944861495632615,-0.1755969808959698,9.81294307478163
1930000000.0,22.35,0.07537727261973781,0.05079023529867857,0.0010646508437165,0.5193384384531844,0.39142218647442184,9.822752812560328
1935000000.0,22.35,0.1528859718687849,0.15284335320306172,0.0016182855984363793,-0.2593797074846971,1.1837749175181491,9.785671350340214
1940000000.0,22.35,0.1471323494467126,0.13379854384039785,0.004556681073885625,-1.032797515961275,1.624926402844864,9.803328672449586
1945000000.0,22.35,0.06734089508447152,0.008654295617626161,-0.0011817665366022202,-1.156891902166219,1.0853755287738551,9.671678622207086
1950000000.0,22.35,-0.019928280453316027,-0.09608570181100383,-0.0023422400774102074,-0.7847981061794811,0.40024716671897165,9.608895946910259
1955000000.0,22.35,-0.039006768779695736,-0.11171637051691138,-0.0038753125865001823,-0.2894907836147078,0.23691282907352829,9.835800565814706
1960000000.0,22.35,0.033663398542597825,-0.05015417356823095,-8.517619919435562e-05,0.25349032385870324,0.565841599483616,9.870820667527306
1965000000.0,22.35,0.07903887639092033,0.025804709068622117,-0.0006920023372303226,0.20728373512153736,0.7718517160264171,9.553566523664465
1970000000.0,22.35,0.09382562603761531,0.07040826506304637,0.004003070561265643,-0.17442229744352297,0.9866895321457952,9.555333701006138
1975000000.0,22.35,0.06071904867766225,0.05417143349885406,-5.3236705502990985e-05,-0.3124499193941992,0.9079143875018438,9.865916769827967
1980000000.0,22.35,0.04098596604514364,0.030125005823269234,-0.000979470428504761,-0.669435592232856,0.6486382768554828,9.802151230817513
1985000000.0,22.35,0.05269193832873714,0.009793489363612407,0.001032707134007752,-0.9496064577502646,0.9188054482373544,9.617626401231163
1990000000.0,22.35,0.03361739249697354,-0.05284206341611898,-0.0001064860590581358,-0.5564207261848073,1.117356874065069,9.741918715960086
1995000000.0,22.35,0.010540001298020348,-0.08359493948996283,-0.005248699221181164,0.06013580375625804,0.5848707274817073,9.770269306247592
2000000000.0,22.35,1.5184574083706642e-07,-0.027698041956431604,0.0021293059034503833,0.18638879572438796,0.21582159275161594,9.721710621561606
2005000000.0,22.35,0.03796158705500744,0.055620137642605025,0.003183310249269861,-0.11468010728630107,0.614009496733495,9.87710102311551
2010000000.0,22.35,0.09472064371131846,0.0616782116217149,0.0011072284032702215,-0.5887981130500811,1.2044741815521418,9.667165541079555
2015000000.0,22.35,0.08554378015162292,0.02458996537968937,0.0031300819758016346,-0.5127683477493835,1.3782075653622754,9.491566695498767
2020000000.0,22.35,0.008518981572099349,-0.007239055420704556,0.00012774532671331294,-0.293514297570243,0.6486341395860415,9.627534588541145
2025000000.0,22.35,-0.024024581016491315,-0.009528629319980575,-0.002022845140496551,-0.6479520339946205,0.3384438200041382,9.801171707997517
2030000000.0,22.35,0.03150797491254198,-0.027612233060890796,0.0028745786743228636,-0.7224086365818864,0.8954592446794924,9.773114242278742
2035000000.0,22.35,0.04605858808652859,-0.042624840115223515,0.0022038229566954744,-0.06905955402479547,1.1144167905486682,9.871116734801767
2040000000.0,22.35,0.018458477388800434,-0.020160544047531318,-0.0027681136953516465,0.19698575098925752,0.49638322628133236,9.734266166007162
2045000000.0,22.35,0.010158313909445753,0.043936671099117586,-0.00028744279517014084,-0.18590128747521284,0.40574144111331445,9.72171
2050000000.0,22.35,0.06614648842667009,0.06827910777420862,0.002874570242288093,-0.7023981502146814,1.1173622253220223,9.810000398187904
2055000000.0,22.35,0.0610606409633776,0.005837831632755114,-0.0024913089660438554,-0.6593296609249967,1.3015912789909128,9.68884590126136
2060000000.0,22.35,0.02122721438085319,-0.03774674988484055,-0.002257055446181087,-0.2762478794397788,1.0037577595309775,9.491370359726403
2065000000.0,22.35,-0.027576930515792086,-0.02500472588682613,-0.002129301687433,-0.1573520791188208,0.3127397516287975,9.69708798297398
2070000000.0,22.35,-0.01026556406981835,0.002361199300237732,-0.003960509865781449,-0.33275608455986083,0.5448489680833897,9.765266560829065
2075000000.0,22.35,0.046129305972469864,-0.0026616708504716563,0.0002661845815192859,-0.5047251851745518,1.1654307406982074,9.612327734216677
2080000000.0,22.35,0.042861734313384,-0.022159486080061987,-0.0043012157165633,0.0882930301128303,1.05947898996239,9.633812642409026
2085000000.0,22.35,0.0059967798250733645,0.04074923003402878,-0.0009049312411684484,0.018736168531661684,0.4584185055949851,9.724653404986233
2090000000.0,22.35,-0.00019163274613080445,0.06480831678561216,0.0008730180975856955,-0.912530706127407,0.7294735485956356,9.757418481191484
2095000000.0,22.35,0.03797262486497696,-0.023483519946139217,0.0010646508437165,-0.8860380605998807,1.3386752857288529,9.737111577921416
2100000000.0,22.35,0.0298310789661512,-0.06518815387819697,-0.0006387993598664049,0.07652273163772727,0.9672634302312342,9.692279796050098
2105000000.0,22.35,-0.02576429764350786,0.005436576601664106,0.0006175063640721618,-0.02138751725817517,0.23141466991914672,9.659220177338703
2110000000.0,22.35,-0.01780468611302171,0.02639950564771411,0.002725515055710997,-0.6894499148005993,0.74203200661122,9.813728660668586
2115000000.0,22.35,0.048160068327085775,-0.03243115672276366,-0.0025445467255511686,-0.4077992762010928,1.241653384334834,9.851496258918663
2120000000.0,22.35,0.03042787347095638,-0.02172709823145813,-0.0034494642646631336,0.21739231777812318,0.7153417821881178,9.655393329360134
2125000000.0,22.35,-0.02156813483383129,0.0519282715578268,-0.0007984746942319909,-0.20846576077045764,0.5346450825511508,9.74133082551151
2130000000.0,22.35,0.010569974520686434,0.03093920911333621,0.0023635383432262435,-0.7797009513801094,1.011413689225137,9.884752737845027
2135000000.0,22.35,0.04296765730949752,-0.019789448365906726,-0.0014692451679201553,-0.46116548740175484,1.227329390288694,9.588488292388583
2140000000.0,22.35,0.0006782995895843191,-0.012312128800573453,-0.0008942931753060878,-0.13184544396055445,0.8291387475509876,9.431333792165338
2145000000.0,22.35,-0.043829734651907294,-0.01181766958203997,0.0,-0.3124499582417996,0.5486725917111259,9.758891941538518
2150000000.0,22.35,-0.001381978757156746,-0.013414591566390955,0.0,-0.31588141534361414,0.7818587122079872,9.809018457104784
2155000000.0,22.35,0.029391220041005316,0.01515155046879121,0.002203840874769415,-0.22052846513368465,0.9431336511497366,9.63538116283421
2160000000.0,22.35,0.0047750431801600775,0.026250440975097943,0.0010220511500715502,-0.3563002069298021,0.914684106312141,9.714647681063578
2165000000.0,22.35,-0.001384000458443375,0.0020177989996578785,-0.0014266412582577448,-0.4842219364202194,0.8335553215272532,9.892306614892966
2170000000.0,22.35,0.002129301687433,-0.006068486937289914,-0.0007239534249694982,-0.4518482206531822,0.7785214314014144,9.804897872707778
2175000000.0,22.35,-0.013106650961229907,-0.009794824441543329,0.0006920276333346293,-0.4473361689870617,0.8098157957273581,9.795285422467654
2180000000.0,22.35,-0.011759964088177078,-0.037327871365445964,-0.0002981114271585156,-0.297830499059005,0.8212931153122313,9.892404423438844
2185000000.0,22.35,0.003002379863266522,-0.02160383173206418,-0.0010646508437165,0.06592506740415069,0.7400658907079589,9.742309726769896
2190000000.0,22.35,0.0032365016325859967,0.043949473053180685,0.0015757017148566204,-0.06631764182987637,0.8059903656862036,9.572597574618776
2195000000.0,22.35,0.005844974775715471,0.05010526911432818,0.002544510889403396,-0.6162668433849685,1.0167094232457943,9.48744685891807
2200000000.0,22.35,0.013425100508081593,0.0006350492642402464,-0.0004258788879630865,-0.6239143334379433,1.1379602136618021,9.46272604273236
2205000000.0,22.35,-0.009787473573333046,-0.016083337032261932,-0.0027574503333849592,-0.25672611530926115,0.8681828585260287,9.518741485465315
2210000000.0,22.35,-0.048086069100992154,-0.0055361378003338825,-0.0013414460869852066,-0.3753326175501262,0.6670800000000001,9.583389214632993
2215000000.0,22.35,-0.033700338250184564,-0.020493980102043514,0.0,-0.5018790837153908,0.9019332069961322,9.576031284881413
2220000000.0,22.35,-0.005152858606015787,-0.032169885373862915,-0.001192418304521071,-0.10516048338730483,0.886822490770725,9.64833193305422
2225000000.0,22.35,-0.026369518221907525,0.005910843775139424,-0.0009581763787061721,0.01029924667929244,0.5253238144997381,9.786456518615465
2230000000.0,22.35,-0.03183711731620335,0.03572584729163204,0.0022996646258652232,-0.4991359186853592,0.6657091555893915,9.897701876465819
2235000000.0,22.35,0.006165578327317404,0.0074193287473102686,0.0020015247405893635,-0.6056675766878759,1.0931296457779964,9.942140656587807
2240000000.0,22.35,0.0016599350985242595,-0.014785702882149457,-0.0011072463213440986,-0.21307150313681503,0.9197829024226292,9.866112590869626
2245000000.0,22.35,-0.04301713545278215,-0.000308649362608009,0.0011285582892166168,-0.27458403671514037,0.5728054203292542,9.795186856393569
2250000000.0,22.35,-0.04048271271543267,-0.0037351327385502873,0.002129282715354825,-0.47578469407514695,0.7848023599917237,9.805095131110653
2255000000.0,22.35,-0.0050658737699215365,-0.019681568636643203,-0.0010433673339613693,-0.20110280996652813,0.9967936181926362,9.718864180185943
2260000000.0,22.35,-0.015509917855705626,0.004258143604347505,-8.51530110987475e-05,-0.02629150236461502,0.7063178051105781,9.538458497635384
2265000000.0,22.35,-0.03703532015678684,0.0389706511263837,0.0026296923586194886,-0.37533315170463155,0.7417368716791688,9.558276367887963
2270000000.0,22.35,-0.012359183079437841,0.01698106335890376,0.001724720011281594,-0.5956624063435242,1.0918532204601321,9.67266
2275000000.0,22.35,-0.0113998386911289,-0.016671370549272105,0.0,-0.3281427766233278,0.9417582324341823,9.522565497569055
2280000000.0,22.35,-0.05287454969616326,-0.0017884788421689054,0.0014053535324852747,-0.29037777145057775,0.7173071114274711,9.472929772874197
2285000000.0,22.35,-0.0589982817701553,-0.0148672023513317,0.000447124453561782,-0.43840814548248147,0.70632,9.761343642734737
2290000000.0,22.35,-0.03187169068036111,-0.03285384596895238,-0.0018524779860470564,-0.14557826493588266,0.7392819558440196,9.786062176623922
2295000000.0,22.35,-0.024036053732844242,0.018209431833718454,0.0021825584190186434,-0.09368795176917952,0.7445785542237856,9.648233590353836
2300000000.0,22.35,-0.03621560622098224,0.02770162330768985,0.003193928289049666,-0.447336402072664,0.7337885360968854,9.829621340242214
2305000000.0,22.35,-0.02819182307003796,-0.0088328158067083,0.0,-0.40848732547537325,0.8273756686311567,9.95263677319397
2310000000.0,22.35,-0.023194878661634104,-0.005866278864473495,0.0008091443802246954,-0.2723256897379569,0.7738117231445173,9.839037241048173
2315000000.0,22.35,-0.05037133245079023,0.0031619202850758452,0.0013414503030025476,-0.32441719462707197,0.6750266845592668,9.815788214762682
2320000000.0,22.35,-0.045297366899439445,-0.01418749119074688,0.0003832791943181046,-0.33942532405175324,0.7624332901264329,9.84845506481035
2325000000.0,22.35,-0.022321971787424958,-0.013425827563735157,0.0003193854508745338,-0.15941137099161373,0.7681229096793292,9.726613645189937
2330000000.0,22.35,-0.03916002127075925,0.016231389877984913,-0.0007026646451926384,-0.10339880298108804,0.7753826715447267,9.562003562059635
2335000000.0,22.35,-0.040922272614361974,0.030992885511438997,0.0,-0.4141797420554974,0.856315489609455,9.56847716503597
2340000000.0,22.35,-0.0296148207389448,0.004471459552504363,0.0,-0.5152194273839943,0.8915320727729208,9.47646
2345000000.0,22.35,-0.04807067016661476,-0.0017672511946440882,0.0006600934096649938,-0.288512601036926,0.7543885445118855,9.543365202073852
2350000000.0,22.35,-0.06370100722400727,0.002768003024895334,0.0027681021013037806,-0.4306600498564005,0.7043582738755828,9.68933695435407
2355000000.0,22.35,-0.056706206459385226,-0.01713539786318272,0.0030235885387130557,-0.4861819532502195,0.7654746202013463,9.662555379798654
2360000000.0,22.35,-0.05313979514253163,-0.027054598221448484,0.0002981072111411323,-0.17226254567612548,0.7098498580735987,9.704445912725559
2365000000.0,22.35,-0.06866229000012695,-0.007974170008709652,0.0010646508437165,-0.08397488624404888,0.45734247562372476,9.953422475623725
2370000000.0,22.35,-0.05547717475665562,0.004343815410208217,0.0007878366283696108,-0.3048951682752517,0.6099877794794778,9.968332893621529
2375000000.0,22.35,-0.02556913361996461,0.01011417300226584,-0.0005323354348995353,-0.28203597765965976,0.8755416235010162,9.890932546131525
2380000000.0,22.35,-0.04128762927688114,0.0113321290372632,-0.0016182592483277077,-0.1263545104598451,0.6886610754271107,9.853555521655755
2385000000.0,22.35,-0.057781508017016286,0.01509943582866874,0.000979498886622121,-0.4473369265152693,0.6298038530305385,9.700618268371183
2390000000.0,22.35,-0.04559807250775321,-0.006115021298272877,0.0037901469273492715,-0.47538995389569955,0.9168422750398227,9.665008246422882
2395000000.0,22.35,-0.04533284022779971,-0.011742383192016292,0.001682138235710437,-0.06190161172001611,0.7726335531199355,9.645878095239981
2400000000.0,22.35,-0.07498631080502179,0.018751781985942975,0.0006388056838924997,-0.25898665717586655,0.47676707219377074,9.53924386014864
2405000000.0,22.35,-0.06656147457713064,0.00508552217336104,0.002384797610881427,-0.6112587175737871,0.7038686678559867,9.562298667855988
2410000000.0,22.35,-0.04403332689161123,-0.021371039891605305,-0.0006813663793766662,-0.17599060420690604,0.8548421360933214,9.746823225509132
2415000000.0,22.35,-0.061915564035305674,0.009084484657655736,0.0010646508437165,-0.11595635778996358,0.6176370370982704,9.674131265457612
2420000000.0,22.35,-0.08828766595016124,0.010402661352468305,0.0007239523709651524,-0.4732338829384388,0.5591711751399118,9.661673646100736
2425000000.0,22.35,-0.058697137402294756,-0.02370590900560751,-0.0009049481052379477,-0.3222565687886657,0.7460498876646989,9.81
2430000000.0,22.35,-0.05744346705207469,-0.012766863044560726,0.00014905624058143068,-0.016089627195696274,0.6197951864021519,9.794892080801821
2435000000.0,22.35,-0.08060148130695718,0.02455530923299354,0.0013414703290851313,-0.2685990297207903,0.5266995148603951,9.72759694593907
2440000000.0,22.35,-0.061997508536224405,0.007450332838062854,0.0026828995520008373,-0.468132299512623,0.64235898957629,9.890049268241492
2445000000.0,22.35,-0.04981806250252532,-0.01422854479824662,-0.00047906710926615874,-0.29439767257927674,0.6660985250880853,9.816670230105702
2450000000.0,22.35,-0.06625799645358212,0.0013841132369083286,0.004045662876880201,-0.22661152347141525,0.5836952379415524,9.721710475883105
2455000000.0,22.35,-0.0767162393256477,0.012019809697494301,0.001937654185241354,-0.325495895370859,0.6375524245397243,9.803819366201994
2460000000.0,22.35,-0.065872904389068,-0.007666960208692867,0.00017035450639740285,-0.32608334878393347,0.7231924354792244,9.723278501001385
2465000000.0,22.35,-0.0651076711085183,-0.019839853514652804,0.00198024017682984,-0.12340951272199513,0.5678020339253204,9.519133739398338
2470000000.0,22.35,-0.08064535543008633,0.014927540627099101,6.388425740445834e-05,-0.09339321502503214,0.4330143115589431,9.57652295953573
2475000000.0,22.35,-0.07456036129876752,0.03030573530913274,0.0009581753247018263,-0.4836332884434329,0.6224458941432589,9.76193109614781
2480000000.0,22.35,-0.05501355980034687,-0.0016616267236629822,-0.0010220595821062847,-0.5242445213300453,0.8766196249879963,9.777430414631805
2485000000.0,22.35,-0.07235732447380508,-0.015411686516781261,3.194476371309372e-05,-0.16461305497173054,0.4893226069274261,9.702384348268144
2490000000.0,22.35,-0.10400477377709329,0.0026185502022197074,0.0010646508437165,-0.41339373855683736,0.4543999738441997,9.714843725478937
2495000000.0,22.35,-0.08508577977279183,-0.025622332381311157,0.0010539990757976493,-0.4749973891818739,0.6074348123009481,9.858068515376186
2500000000.0,22.35,-0.07136659752078957,-0.03089206935644728,2.635010864548545e-08,0.08828927160749271,0.5297386888934869,9.760950242797502
2505000000.0,22.35,-0.0882479458136678,0.020788701108239226,0.005270048079205736,-0.0573892298492923,0.26751738627127386,9.809509743283098
2510000000.0,22.35,-0.07798474872659245,0.01922374393096263,0.00323652798269463,-0.491483193918232,0.5821270088733701,9.838841546261216
2515000000.0,22.35,-0.049871592946944335,0.0026407727780106242,0.0011285192910557738,-0.1291957948165579,0.7408519816137198,9.829914251149143
2520000000.0,22.35,-0.07251645820544574,0.029741950233381265,0.0010646508437165,-0.25898473421964735,0.5572070210404703,9.64126702104047
2525000000.0,22.35,-0.10183225699570739,0.015704392681357975,5.3227219463878586e-05,-0.7308474522547745,0.46548405859414055,9.652059098090191
2530000000.0,22.35,-0.08530950344366456,-0.0351501506881446,0.0,-0.3680691360269914,0.627056084559861,9.73603304227993
2535000000.0,22.35,-0.08614003778808335,-0.01159512504829125,0.0,-0.13351296749532968,0.4460596659739967,9.713959952282
2540000000.0,22.35,-0.1117717227300877,-0.0095818575934488,0.003917936522245119,-0.27114923871969243,0.3323622572990226,9.702874750663547
2545000000.0,22.35,-0.09071946767966745,-0.003768831797463807,0.0003832528442094681,-0.1416556090628561,0.4933458392378584,9.755652896601429
2550000000.0,22.35,-0.06828065802453502,0.016943769350347995,0.002874573404301131,-0.12753,0.43948760375447604,9.849240495306905
2555000000.0,22.35,-0.08879986369898087,0.02391889166376724,0.00035131862053983456,-0.3981894384620944,0.4403709496278095,9.710623856327238
2560000000.0,22.35,-0.08411714732539988,0.00012971209882262427,0.0018737962779455412,-0.517968497249285,0.631372693948427,9.726811398899713
2565000000.0,22.35,-0.09235764209820685,-0.02821793129332543,0.00027679840528170184,-0.1627457576519576,0.38415800569448005,9.90221499644095
2570000000.0,22.35,-0.10749072119267385,-0.010883050390529166,-0.001831210286357055,-0.09947335008083351,0.21680025121250251,9.801170251212504
2575000000.0,22.35,-0.0988545109418786,0.006121823773205813,0.00330045018425552,-0.34825650048856505,0.37130955034199553,9.738877249918572
2580000000.0,22.35,-0.07903468285320353,0.001362709570657773,0.0006813547853288782,-0.15342694671126947,0.501095401360854,9.780962700680428
2585000000.0,22.35,-0.07917426540898582,0.0203387962603282,0.0017673312989743258,-0.18119115189471152,0.43036414768424147,9.741525898736858
2590000000.0,22.35,-0.09648853703651175,0.014013881089549101,0.0012562825358429586,-0.42948325892163264,0.36375449815414496,9.667165997538861
2595000000.0,22.35,-0.09236818530367807,-0.007261039100362982,0.0010646508437165,-0.385336195142862,0.5200291584999917,9.716609203238091
2600000000.0,22.35,-0.09310286006085328,-0.006600802346106951,0.0002129246879207017,-0.26879339397743396,0.37081678795486794,9.778608303011284
2605000000.0,22.35,-0.11898781205268978,-0.016271077962378956,0.002523238973696109,-0.2684998517969985,0.2074807410150074,9.767130148203002
2610000000.0,22.35,-0.1082459027102376,-0.018350735319416046,0.004024385691151155,-0.1828577916465779,0.36022441670684413,9.837468506961185
2615000000.0,22.35,-0.08282882516545262,-0.0017073452680035732,0.0009794567264482883,-0.0587612396879124,0.2684987349284873,9.821281246033813
2620000000.0,22.35,-0.09208088374509024,0.033954543363884496,0.0032365606568293243,-0.21582127225891273,0.27036390534213905,9.675798283973583
2625000000.0,22.35,-0.09454010565683436,0.017304756836557345,0.0042586033748661,-0.5027640806117408,0.49785897863678985,9.802643672711936
2630000000.0,22.35,-0.08665100960889749,-0.025373137019381927,0.0011072147012137499,-0.28841195661621954,0.3294181142083812,9.888087804338378
2635000000.0,22.35,-0.10904293898227643,-0.003070662325297284,0.001554401341031895,-0.1219378393645784,0.12350702991087029,9.75506297636573
2640000000.0,22.35,-0.1182460568226158,0.0095818575934488,0.002895855860051898,-0.42300955882629565,0.32569379475913796,9.800975517903655
2645000000.0,22.35,-0.0932887116277048,-0.028225918071731606,-0.0005855858424589928,-0.22199788533027887,0.4148648486240485,9.776743637616436
2650000000.0,22.35,-0.09576456569346839,-0.007883384000975442,-0.0006387793337838342,0.11772154419211546,0.048066271927262705,9.675602433796225
2655000000.0,22.35,-0.11002160904135003,0.0397996875060032,0.0029384587157099138,-0.3287371740449718,0.1560791112373911,9.744764273552844
2660000000.0,22.35,-0.08066118045867954,0.007250431185936476,0.0006387624697143332,-0.6023342583365426,0.5615266216942663,9.817063406669234
2665000000.0,22.35,-0.08353666561129733,-0.026329952540247583,0.0003619925225499365,-0.17765563178335636,0.3612996600141966,9.72445597176916
2670000000.0,22.35,-0.13415785774049363,0.005307844744161835,0.0010646508437165,-0.15499955584639558,-0.056311422600314215,9.743881170477012
2675000000.0,22.35,-0.12852582610641428,0.003040188657911995,0.0010646508437165,-0.573887597933276,0.10693139009861391,9.952736902883968
2680000000.0,22.35,-0.0798960035760018,-0.03511345253761945,0.0010646508437165,-0.26839764376037645,0.5097296301755964,9.819415725991757
2685000000.0,22.35,-0.10031540181217243,-0.017185456019875214,0.001735386535261232,0.2286730296574303,0.14067112346191124,9.65519788708258
2690000000.0,22.35,-0.1321612916929399,0.02656342298671765,0.003449480074728283,-0.12969243225182436,-0.24211153150031534,9.809805315250653
2695000000.0,22.35,-0.0990781664480441,0.02399323681063141,0.003609160679115611,-0.6051804180671042,0.208368797159888,9.941846609388566
2700000000.0,22.35,-0.06370093028169004,-0.0006389100303227369,0.001916360135442805,-0.3570808009001081,0.6886634159950342,9.774682374227924
2705000000.0,22.35,-0.10296507417091025,-0.0095818575934488,0.0029490999435852964,-0.0945681898344819,0.23317860348618613,9.65304
2710000000.0,22.35,-0.14764065736657586,-0.010199360795507982,0.0036411001728069757,-0.25486543179345433,-0.2252382316619823,9.744077642215977
2715000000.0,22.35,-0.1207664980022516,-0.0057916548038691494,0.001980239122825537,-0.3322642253794422,0.010499389516493929,9.81
2720000000.0,22.35,-0.0812114458552448,0.005025220787745798,0.0034494916687761376,-0.22837616600716165,0.39593323781483236,9.738582513174425
2725000000.0,22.35,-0.09363713284213421,0.004790871353487583,0.002980999385111551,-0.17118444707014446,0.2977312240162122,9.671678894140289
2730000000.0,22.35,-0.12796525852579785,-0.007473923736118567,0.0004897336332458618,-0.22504198329671982,-0.09339321502503214,9.784691419620414
2735000000.0,22.35,-0.1332125176487462,-0.005376400279711986,0.0016928121377206026,-0.27468,-0.17648099689040997,9.940473531240935
2740000000.0,22.35,-0.1046518167641298,0.008219168048873605,0.0026403283164731528,-0.3818063176454632,0.1773676739454767,9.915162454903024
2745000000.0,22.35,-0.08576740509166238,0.005152817499846318,0.0026722794042123247,-0.330595400450054,0.3115643203600432,9.78419900686169
2750000000.0,22.35,-0.1129230926452945,-0.01171997877455751,0.002661621312267398,-0.1716748397536484,0.05885850436738502,9.756045373908155
2755000000.0,22.35,-0.14059989643143664,-0.025462666532984703,0.001085932245462939,-0.1713808605377086,-0.11693562810055627,9.872098209713682
2760000000.0,22.35,-0.13094564831626482,-0.02168526206892855,0.0,-0.03570668448996683,-0.18992197526781973,9.891226049464361
2765000000.0,22.35,-0.09527549857110178,0.028336585020454427,0.003002350351144818,-0.0845646705131467,-0.08269663508896632,9.787534724052348
2770000000.0,22.35,-0.07699600328446829,0.05683644846321238,0.003939178925830778,-0.490698190745282,0.18227103749031037,9.76467796141178
2775000000.0,22.35,-0.09358201254447145,0.012830489468311952,0.0005855521143199557,-0.5807507063749071,0.3835719702188197,9.767326338296863
2780000000.0,22.35,-0.12275835176916285,-0.03532918336524145,0.0009369044629988454,-0.30881701806057016,0.17422176613031765,9.75114
2785000000.0,22.35,-0.16257129524592084,-0.05675948005504031,0.0012136902202283975,-0.1064382295235823,-0.3972092260971923,9.742703291809432
2790000000.0,22.35,-0.15480480181287015,-0.03151231763507068,0.0017886369428207606,-0.06611923742279237,-0.5140423742279238,9.78096305030883
2795000000.0,22.35,-0.09698098414347031,0.01965738509440625,0.0042586033748661,-0.08122723431617235,-0.12213151407631515,9.881417234316173
2800000000.0,22.35,-0.06263638800042111,0.05688738559041419,0.00298100465513325,-0.2099351421194514,0.27075703334617035,9.884555401746955
2805000000.0,22.35,-0.08011433402758832,0.05617758416084464,0.0018950903277441691,-0.50188199728542,0.256333502035935,9.808332136548723
2810000000.0,22.35,-0.12205356111081081,-0.0011314889914970788,0.0019802327987994816,-0.6943507629633077,-0.011969237036692372,9.809019272904393
2815000000.0,22.35,-0.1550472857762092,-0.0708088899377686,0.0,-0.38641300206613005,-0.18197632016996318,9.886616810813969
2820000000.0,22.35,-0.16165862500376132,-0.07895780095978155,-0.0007665604966449008,0.1353810126314101,-0.4512627387558274,9.931643452248835
2825000000.0,22.35,-0.1380002858752096,-0.011348282500522125,-0.0006387666857316846,0.34334780511057805,-0.6621733538329336,9.837958006149881
2830000000.0,22.35,-0.08299771531423847,0.0872845097459308,0.0032152634450176897,-0.15186275779352765,-0.19403723754357238,9.833937279509673
2835000000.0,22.35,-0.04081489752855631,0.09397076822441913,0.004269231954689376,-0.6827771013294711,0.3983850361300504,9.885732318936425
2840000000.0,22.35,-0.06991835110866357,0.030259490972132513,0.0017886074306990357,-0.7483056415645565,0.3876890486198905,9.711506386400965
2845000000.0,22.35,-0.14650244277334812,-0.030721146015999536,0.0004045553260428146,-0.60822,-0.08839202351052028,9.634696570996367
2850000000.0,22.35,-0.19504756738063656,-0.09246956555833995,-0.0007452495827767788,-0.46401028746630285,-0.5601508339265084,9.83746888572529
2855000000.0,22.35,-0.1817360612233151,-0.11656929483844941,-0.0015437738152130562,0.08299670366626705,-0.4741160245361603,9.916045489995556
2860000000.0,22.35,-0.12590644486496477,-0.05850276692307263,-0.003534604627709776,0.6615876776975769,-0.4292879331868793,9.82020201113552
2865000000.0,22.35,-0.09331565299823075,0.055394038574233216,0.002501959679958337,0.5962470141698702,-0.6332335522784356,9.789301289544312
2870000000.0,22.35,-0.06364521682148323,0.12899893959437872,0.006941535601001696,-0.2313244269434443,-0.13262573686195736,9.877689836194598
2875000000.0,22.35,-0.027964640969003904,0.09587481399512082,0.0066540253495534305,-0.8289448883131489,0.4880454337932544,9.96450699740917
2880000000.0,22.35,-0.06889647502698597,0.020965331951334605,0.001575695390830508,-0.7742042490107426,0.0886793792105938,9.839428601486386
2885000000.0,22.35,-0.16263170149632925,-0.02535765113828541,0.0034388283068094703,-0.703868900941589,-0.35002169660261695,9.716217969054581
2890000000.0,22.35,-0.1800905870816942,-0.07844385207777452,0.002618998430526814,-0.6984669478695695,-0.4449809263826093,9.906137438652175
2895000000.0,22.35,-0.15094444264520543,-0.11116526672036467,-0.002523204191552697,0.1158595301459953,-0.38818265594232654,9.804898125217182
2900000000.0,22.35,-0.12548567644666306,-0.02236412911026243,0.0004258725639370115,0.494421296207013,-0.5532849575933496,9.719748225316081
2905000000.0,22.35,-0.11511970958162282,0.05108494516007426,0.002129301687433,0.05620943793739438,-0.5785905272839054,9.784691215670511
2910000000.0,22.35,-0.06899966865292789,0.05558839374447426,0.002512588259781543,-0.22896613480236133,-0.08593458258134583,9.92772
2915000000.0,22.35,-0.05489884023947197,0.05320049195256427,0.0038966097983118004,-0.3685628890279289,0.007159544768295445,9.904371407314715
2920000000.0,22.35,-0.11398760733238414,0.02893027596626639,0.002129301687433,-0.5803610746549108,-0.2530982835874828,9.798228283587484
2925000000.0,22.35,-0.13762536960061897,-0.023853760380991608,0.0013307827250184949,-0.7210321592692216,-0.30754401133154013,9.851202454516924
2930000000.0,22.35,-0.14428355202970608,-0.07187743434265362,-0.0024486660582207034,-0.2450513527954135,-0.4224202504403025,9.906922344706123
2935000000.0,22.35,-0.13965003322690855,-0.04667233220800658,0.00185248009405569,0.1011403588849036,-0.6619785719645859,9.833053214955733
2940000000.0,22.35,-0.12727191639353513,0.013374189661873401,0.0003832928963746122,-0.028646113695561137,-0.5901677726088778,9.788025485788056
2945000000.0,22.35,-0.08298667855827326,0.026506015948872228,0.003076834730255177,-0.1700074716092747,-0.29989095635980956,9.77076
2950000000.0,22.35,-0.07583992889861835,0.0340862802914492,0.002129301687433,-0.21189691680336917,-0.20993537520505376,9.774684229200842
2955000000.0,22.35,-0.09933277768171359,0.03207238848590131,0.002129301687433,-0.37788280712522804,-0.42183,9.814414786986648
2960000000.0,22.35,-0.1228878845835741,0.009154413699098536,0.0019589450730269054,-0.6207762825499629,-0.40770256509992564,9.857480285011103
2965000000.0,22.35,-0.1157974223845254,-0.022110336388721855,0.0,-0.520320787436108,-0.26173218219762184,9.837369727225298
2970000000.0,22.35,-0.12710513687981237,-0.04572856080302206,0.0,-0.24779892702808926,-0.4930518114624181,9.812354630754747
2975000000.0,22.35,-0.1480194967317354,-0.026632726191481687,5.323881351168263e-05,0.010789959855499598,-0.6822849799277498,9.849730557785806
2980000000.0,22.35,-0.12565516513168726,-0.006132351168611825,0.001149835474945626,-0.1510731317561313,-0.595662794819528,9.85905
2985000000.0,22.35,-0.09877737598374113,0.0008311149625832538,0.0031939525311496,-0.012164863840348638,-0.5256189882793899,9.859344357980044
2990000000.0,22.35,-0.08967472462813207,0.027591878630048406,0.0031939525311496,-0.09260767769757677,-0.39200748384567485,9.86886
2995000000.0,22.35,-0.09920354966462464,0.022055361716446422,0.003172646887303206,-0.30381552547715523,-0.3742523726142237,9.868467367302873
3000000000.0,22.35,-0.11292288481637208,-0.0095818575934488,0.001064657167742575,-0.2746800582714006,-0.5199303496284035,9.8296199417286
3005000000.0,22.35,-0.12662494131202448,-0.0095818575934488,0.0021186615135619534,-0.2843919583685196,-0.5782017502111175,9.81990804163148
3010000000.0,22.35,-0.1131995293370193,-0.02316269615946534,0.0010859375154846681,-0.17873755687797555,-0.57879,9.858265433862554
3015000000.0,22.35,-0.10672649655972555,-0.0007030532272210739,0.0020973685177677103,-0.03384362155863624,-0.7310421370041214,9.840018482874484
3020000000.0,22.35,-0.10242985757193443,0.034767175254423174,0.006217586392049548,-0.34963039443580396,-0.5662321441222216,9.83943
3025000000.0,22.35,-0.0850646213439786,0.012936233646540701,0.002342206349271141,-0.4654851463269515,-0.4193766186450662,9.895347352541974
3030000000.0,22.35,-0.08916366743296592,-0.0002981788834366221,-0.0008730328536465369,-0.26800790520947904,-0.5042345885411459,9.87984708229177
3035000000.0,22.35,-0.11623281784316944,0.012797192710762103,0.006856402615985481,-0.42840382007343825,-0.6104769484635696,9.814806487341365
3040000000.0,22.35,-0.12902039385283778,-0.02731397391761504,0.0015756447986219006,-0.5046268133384681,-0.5909542228549423,9.864151554290116
3045000000.0,22.35,-0.11542463580346994,-0.05028498409509071,9.581215704801893e-05,-0.09054352016283518,-0.5796728408545284,9.81529704512717
3050000000.0,22.35,-0.11686203001406385,-0.015760078616500507,0.001916384377542719,0.13636024409440242,-0.7995164810647649,9.792341881514819
3055000000.0,22.35,-0.1171814059788993,0.01294056221776511,0.004971938760055892,-0.15735453622954543,-0.7978471219808713,9.781649040660291
3060000000.0,22.35,-0.08905907118642115,0.014098058559150157,0.002512556639651175,-0.1616685622526856,-0.49245991971099917,9.832367156620972
3065000000.0,22.35,-0.0870769327650431,0.004577934017514704,0.001203048992353005,-0.1484252404660524,-0.621955190678952,9.856499519067896
3070000000.0,22.35,-0.10751207533799886,0.016027449229369044,0.0038114694352652054,-0.189333298155333,-0.7149532770485328,9.816866701844667
3075000000.0,22.35,-0.10353898791740736,0.016306598237129512,0.0024486839762945115,-0.4213411126610111,-0.6425544027181441,9.81
3080000000.0,22.35,-0.09778727486740438,0.0043464834580614255,0.002129301687433,-0.3869058615722586,-0.6608018393012185,9.82648091965061
3085000000.0,22.35,-0.11020507354753968,-0.006707365347482336,0.002129301687433,-0.3402105603103056,-0.7403612393018124,9.902901239301812
3090000000.0,22.35,-0.10155922812465652,-0.001533045104976957,0.0003832612762442256,-0.3657170400781704,-0.6990601798632019,9.853555919843659
3095000000.0,22.35,-0.09734014092780349,0.0017247474153945313,0.002587121123091878,-0.4045646404666464,-0.6787538398833385,9.791753039300032
3100000000.0,22.35,-0.11824272964191372,-0.01491920524971467,0.004045679740949744,-0.3492355182897552,-0.6768900000000001,9.804114180641342
3105000000.0,22.35,-0.12188714961739237,-0.0435862973329981,0.000894280527253931,-0.13204103191661032,-0.754389603108996,9.918499444352594
3110000000.0,22.35,-0.11977914092575352,-0.04009467199600661,-0.001660868428011802,0.21994255591272555,-0.9356790685683907,9.855517675103776
3115000000.0,22.35,-0.11111283050524419,0.00619539441694212,0.00033006146089333823,0.2059111134332111,-1.0112150420205503,9.784297436969174
3120000000.0,22.35,-0.08923154538195177,0.04589609329053796,0.004301215716563284,-0.1589247271015473,-0.8562154667503548,9.808038303011283
3125000000.0,22.35,-0.058328699280316226,0.045535567613740946,0.0005322858966953321,-0.4046636532881365,-0.6572687860124878,9.95224609258876
3130000000.0,22.35,-0.06189121957597897,0.0528584294772381,0.0005110456011183297,-0.5238546079649461,-0.6299983823894839,9.894757548849075
3135000000.0,22.35,-0.08704044646939148,0.036241415452610726,0.0010646508437165,-0.8931053228934532,-0.5731977519574776,9.758790947489409
3140000000.0,22.35,-0.11551584256628335,-0.04179775421384285,0.0010646508437165,-0.8295319532502196,-0.5069804340556043,9.813532392879523
3145000000.0,22.35,-0.1545863528117129,-0.11916436336165388,-0.0019589840711877714,-0.05188873012698725,-1.263632880751529,9.911926449790665
3150000000.0,22.35,-0.13965576485070488,-0.07393679843565784,-0.002448690300320601,0.8260072619074728,-1.208588696011587,9.779587592745676
3155000000.0,22.35,-0.08372688467841906,0.04166459375837592,0.002278392710157911,0.5781968651253687,-1.245969877180599,9.833741303077613
3160000000.0,22.35,-0.04652682721908387,0.12297977632826095,0.007154480315004978,-0.15382546481985465,-0.7938202282841024,9.79508794069108
3165000000.0,22.35,-0.024078428923563582,0.11991245811685033,0.005663915801181909,-0.8722115877719159,-0.4278130549024306,10.053487027911071
3170000000.0,22.35,-0.055710579232820925,0.03694514569619704,0.0014478984179042637,-1.205649923601699,-0.24328676853106768,9.943413537062137
3175000000.0,22.35,-0.12617732185655292,-0.07547662080585721,-0.0020760892240300277,-0.9177222314600223,-0.5336674535516746,9.676092204918122
3180000000.0,22.35,-0.19362093975532027,-0.1495268744982591,-0.0025125692877033365,-0.21463767328217676,-1.667709265152693,9.748394620656747
3185000000.0,22.35,-0.14040905933763564,-0.0837517447013797,-0.001458564941883922,0.8015823381820234,-1.3198286151978862,9.82962
3190000000.0,22.35,-0.051623246916163976,0.06432127236670027,0.002895890642195362,0.587612493998125,-1.0416282165149822,9.860031309809614
3195000000.0,22.35,-0.007608238585525572,0.16362188010790352,0.01051880421662156,-0.27056464060524643,-0.5107996873282967,9.597414383225043
3200000000.0,22.35,-0.02300720688111366,0.11057276602191926,0.008091285701595341,-1.098725594054456,-0.27272005115330056,9.89437103464901
3205000000.0,22.35,-0.09830524493149961,-0.0451159567341137,-0.00013845190285816013,-1.0293587555105876,-0.5526970185852702,10.07329890592129
3210000000.0,22.35,-0.16875970771345244,-0.1394216822177763,-0.00381145678721307,-0.343149497822495,-1.459540591406206,9.914181514145614
3215000000.0,22.35,-0.1469635652167241,-0.10512725025388941,-0.0012243145840342999,0.4164398080389981,-1.4645284679056847,9.661964789441848
3220000000.0,22.35,-0.07162713210337374,0.014025691432867957,0.002853284624524237,0.379446296786163,-1.117948600714186,9.78057312723183
3225000000.0,22.35,-0.03775931890394324,0.08596977814207704,0.00484416813723826,-0.1741303188790032,-0.7445738633760386,9.850709808672597
3230000000.0,22.35,-0.043038840356930445,0.057013201104285316,0.00359849942515764,-0.5211089566884896,-0.610380897771609,9.954013435032735
3235000000.0,22.35,-0.0778598485377412,0.009132049264689909,0.001000758154277275,-0.5902670088040701,-0.8928091682118917,9.919967398052275
3240000000.0,22.35,-0.11380884795343046,-0.019130362066033472,0.0016608758060422746,-0.6211702069298021,-1.0885190474615904,9.793127681063577
3245000000.0,22.35,-0.1154459361772946,-0.04936250725826768,0.001565016218798691,-0.5414119460628195,-1.0967567393953674,9.864053163030231
3250000000.0,22.35,-0.09587949792131857,-0.058590593372997636,-0.0021293290915460413,-0.02452026544870267,-1.0251453156367532,9.86886
3255000000.0,22.35,-0.08570355456239698,-0.01927693106370397,-0.0011284887249297933,0.3289291103265911,-1.1842649702851498,9.815983404530833
3260000000.0,22.35,-0.07767817739402785,0.04089972575080769,0.0026403409645253026,0.06435024395580241,-1.2960968200704681,9.798620906572708
3265000000.0,22.35,-0.04802091568412525,0.07086612033485291,0.003694345310344733,-0.45038046119150466,-0.9012396899220969,9.85787305367483
3270000000.0,22.35,-0.037501329482672846,0.03992153557472909,0.0022996182496740074,-0.689838691873387,-0.5446519621899196,9.90574598109496
3275000000.0,22.35,-0.07968693972327859,-0.024982191602208985,0.0,-0.5238522188375222,-0.8863375076155751,9.840409600515196
3280000000.0,22.35,-0.12561356511796745,-0.059314644820371305,0.0,-0.27350133466851334,-1.3989085484025854,9.764874637100647
3285000000.0,22.35,-0.10382582918711375,-0.03462070270678973,0.000457806787606647,-0.14715,-1.2938359868468599,9.83246509142155
3290000000.0,22.35,-0.05580124149007771,0.007822054943844107,0.0015118111334260255,-0.12242841657418416,-0.8261976248612763,9.746233402392434
3295000000.0,22.35,-0.05599306606499945,0.021012312363500946,0.001256274103808192,-0.1285116400142164,-0.8795662640369626,9.632145148009952
3300000000.0,22.35,-0.07967799373180273,0.00959222510849075,0.0004258672939152824,-0.2334787691824877,-1.2223291408284913,9.817850371646005
3305000000.0,22.35,-0.08517478363196486,0.004152207960181765,0.0018950924357528608,-0.4035850690871507,-1.319441790217018,10.02032614321736
3310000000.0,22.35,-0.05773891253938866,0.003364171070986426,0.004003101127391716,-0.5032520356083204,-0.8897647497527476,9.925560578437207
3315000000.0,22.35,-0.058622775287688535,-0.01876578738834511,0.0037475430176869546,-0.2886080107434801,-0.9091949209534493,9.791851178050512
3320000000.0,22.35,-0.08441064399323597,-0.026627266120673867,-8.519306326388882e-05,-0.03610002615580026,-1.3824266187143663,9.831583289740333
3325000000.0,22.35,-0.08858295582496478,0.007192817373172913,-0.0013840320785736505,-0.09123545419715454,-1.4072423687235238,9.967450693752408
3330000000.0,22.35,-0.04674572501874737,0.037258918746717676,0.0018099415326628338,-0.3468818587250186,-0.9533310782684108,9.879845130199852
3335000000.0,22.35,-0.03865948350549091,0.01686963768256077,0.0035665451754054757,-0.3598305408865054,-0.72025499359965,9.747119389902593
3340000000.0,22.35,-0.07078195070980883,-0.019223733390919238,0.0,-0.3272614702490147,-1.322782800393228,9.870036616120565
3345000000.0,22.35,-0.10147725050035526,-0.013085870401614078,0.0,-0.34433164972611646,-1.387130101643301,9.825205824863058
3350000000.0,22.35,-0.05699362079643802,-0.010332483462327274,0.0012776092597762978,-0.33844337325673374,-0.9957153253486533,9.826676284232963
3355000000.0,22.35,-0.05415129992511895,-0.01400166334763253,0.0033323359237252344,-0.10418076632930766,-1.1580734325082342,9.74260510449945
3360000000.0,22.35,-0.07217559109199902,0.014697139510399117,0.001362760162866324,-0.07181207161462069,-1.416562694720627,9.837078341086682
3365000000.0,22.35,-0.05683973611011212,0.016908614901499284,0.001266913223674893,-0.37199493855564936,-1.1772956816397568,10.086052223500422
3370000000.0,22.35,-0.03444832551421643,0.005732451863569722,-0.0005110181970053384,-0.32804600725076005,-0.91233,9.844920719838907
3375000000.0,22.35,-0.053259035397160884,0.012256474952087818,0.0010646508437165,-0.32373104888521054,-1.125703203313332,9.6211600566577
3380000000.0,22.35,-0.08458134108560328,-0.003283434631835601,0.0002980808610324868,-0.44380446565244464,-1.5703793508470936,9.955189313048892
3385000000.0,22.35,-0.06557059835290949,-0.020969896066612197,-0.002129301687433,-0.35423627276876274,-0.9831591204938912,10.068198148006982
3390000000.0,22.35,-0.04822885484509638,-0.023542075520425178,-0.0014266106921317161,0.0007857218535572245,-1.1752406338673063,9.858851100286012
3395000000.0,22.35,-0.0668310575796786,0.018762970622206554,0.0017354023453264402,-0.01982028851570289,-1.4648286724495867,9.652258629077686
3400000000.0,22.35,-0.05560598200138672,0.02748162459184772,0.0034068540309746733,-0.4904996697953967,-1.2851060375447605,10.049363801877238
3405000000.0,22.35,-0.03291523614105698,-0.01191345011895763,-0.00020229083807573003,-0.3431499639936996,-0.8682850180031503,9.96430911744469
3410000000.0,22.35,-0.04825267152470601,-0.003957028765887362,-0.0002980734830020481,0.03825601941786019,-1.2064378403446783,9.710919331175793
3415000000.0,22.35,-0.07629958534290057,0.032230662270947105,0.0031939525311496,-0.4137893819429938,-1.5903929547342295,9.762814364325942
3420000000.0,22.35,-0.05709711078766751,0.0003345766945594599,0.002342195809227757,-0.7467326828010268,-1.0394663378414635,9.840215663582157
3425000000.0,22.35,-0.025146004594782195,-0.057789271847585075,-0.0014904823014840244,-0.09515287535602875,-0.9873812233826122,9.914965536416656
3430000000.0,22.35,-0.052248087837297306,-0.009146887157737652,0.0022783600360231364,0.3201934698510347,-1.5849038664945387,9.750748532730885
3435000000.0,22.35,-0.07746882564260942,0.033870791435578994,0.0027787169790705847,-0.32196513409055133,-1.5140699288981994,9.87906293376603
3440000000.0,22.35,-0.023139437324614844,-0.003705013942333129,-0.0003832960583876497,-0.3849411927421119,-0.8401298699931988,9.930858264549784
3445000000.0,22.35,-0.012119987765166599,-0.0011242977790268558,-0.0026083582566558006,-0.02129084500460845,-1.098037515644475,9.7970499970201
3450000000.0,22.35,-0.06764027152419011,0.04591758341970245,0.002235774044434646,-0.4816744176176442,-1.5960834483581348,9.687374664939448
3455000000.0,22.35,-0.06696594815736101,0.0028603392311196806,0.0028106490947315326,-0.8745571379000713,-1.1166714275800145,9.661772309293823
3460000000.0,22.35,-0.015035947133911584,-0.05211603984022048,-0.001149830204923893,-0.25348690526986906,-1.0524212356190124,9.852379468825395
3465000000.0,22.35,-0.05453450744714156,-0.02380025372942478,-0.0016821045075713639,0.19453021359250214,-1.6329711193237113,9.89122706921387
3470000000.0,22.35,-0.06836280662216414,0.013393256410422933,0.003939171547800344,-0.10006334801173347,-1.4063586343741865,9.925365330397653
3475000000.0,22.35,-0.02083043857449305,0.0070808961247209755,-0.0010114109762004715,-0.27565978504129784,-1.0123936199449364,9.886027162511471
3480000000.0,22.35,-0.013629257417654715,0.020458786171228743,0.0001277801088567247,-0.12400117138781172,-1.2482264954395652,9.842569740758597
3485000000.0,22.35,-0.05895199893607824,0.024674037414298328,0.003225899402871385,-0.5157129861469298,-1.523685409251154,9.91555505846445
3490000000.0,22.35,-0.035789225315932864,-0.0049618648975361754,0.004130801131918114,-0.6872854139140541,-0.9941465524140655,9.837663589898437
3495000000.0,22.35,-0.015406193288033467,-0.03927103412297385,-0.0021079939355779153,-0.2318077882112779,-1.164059080487991,9.750943664227636
3500000000.0,22.35,-0.06497844561412823,-0.025568756044506175,2.9512121682943288e-08,0.12752816445088164,-1.8050355810854557,9.73152101974951
3505000000.0,22.35,-0.04177307124633352,0.019787988345263862,0.004216046895399296,-0.13469313817133136,-1.1737620747727207,9.877199521206295
3510000000.0,22.35,0.0012562424145627499,0.019202454097181427,-0.0009582227548973858,-0.36807283626092835,-0.9654987682716877,9.782531318224613
3515000000.0,22.35,-0.02370559632917076,0.005738895199480901,-3.1932115660943854e-05,-0.18246463450684633,-1.4466841820075418,9.609286171056162
3520000000.0,22.35,-0.06438199495664246,0.022715237413738334,0.0030662166904753996,-0.5438690664992908,-1.6782963725508637,9.980696734871067
3525000000.0,22.35,-0.012404533586195303,-0.01705041893558857,0.0031939525311496,-0.7269222324401223,-0.979032796363928,10.080266116220061
3530000000.0,22.35,-0.011583416062177276,-0.042199090869794946,0.00019161482805693172,-0.08102573181295736,-1.1077464341882641,9.761928600189485
3535000000.0,22.35,-0.05035879937150789,-0.004046596742009384,0.00099013273646707,0.1614741105889411,-1.8573328617138287,9.732206631336865
3540000000.0,22.35,-0.03953858427943514,0.03323342465768491,0.002044137082286448,-0.38298666313566676,-1.398509680665597,9.984227525287077
3545000000.0,22.35,0.010112985986027272,-0.0035227300074045717,-0.0007772175345854807,-0.3959313245705133,-1.0056204145625043,9.943709817998398
3550000000.0,22.35,-0.01000791250013765,0.005962149492844535,-0.00010645760094079464,0.004908102952080995,-1.085967896408379,9.734461414046715
3555000000.0,22.35,-0.04976120028125407,0.01599601016311809,0.00284264023463584,-0.43988426689014276,-1.8583143074900432,9.903981319135413
3560000000.0,22.35,-0.041200137136400125,-0.01764416038721547,0.00038325179020512554,-0.5607400840411009,-1.1234345617220456,9.755062617025427
3565000000.0,22.35,0.012491044414072922,-0.020522613512398532,-0.0009262537490843407,-0.12517199921592004,-0.9677561537707615,9.757124307737543
3570000000.0,22.35,-0.028311384899665223,0.004490586413859122,-0.0001490435925292808,-0.09260667737186679,-1.7122435715240356,9.642836629198465
3575000000.0,22.35,-0.04980482870041932,0.021201492717979227,0.0,-0.4483199164835992,-1.4842500835164008,9.840412805442227
3580000000.0,22.35,0.005971611341693314,-0.0007213739307601157,0.0,-0.5430818781488188,-0.9939455840653558,9.944593756297637
3585000000.0,22.35,0.0011313608003784142,-0.01859275693770124,0.0,-0.1503838879181389,-1.2705942639102428,9.818729716216497
3590000000.0,22.35,-0.043189924536430724,0.0031484369258425356,0.001746042519197466,-0.16520123677731235,-1.7059621379149212,9.830601348657213
3595000000.0,22.35,-0.02459266826152228,0.011966705796538826,0.00040455216402977704,-0.5042367931424679,-1.31659598011486,9.895053188799931
3600000000.0,22.35,0.010870168850498657,-0.019603826658396405,-0.0025551847914135496,-0.26486720297277205,-1.1046050909661511,9.923796139851362
3605000000.0,22.35,-0.010507838856491689,7.111127146476257e-05,-0.001511788999334784,-0.04689053958960537,-1.4820984411855846,9.811470449658005
3610000000.0,22.35,-0.027251305583814125,0.031548792371232044,0.0039179607643451365,-0.40005537611585373,-1.5815681298800814,9.933607402398374
3615000000.0,22.35,-0.0011216308024568564,-0.012508898401031879,0.0020440991381300445,-0.5327813106511132,-1.1563988678458887,10.00698508086815
3620000000.0,22.35,0.012307409539311951,-0.034171513406878254,0.0002555085715004962,-0.11457679209306793,-1.231353098482231,9.85944092340271
3625000000.0,22.35,-0.014918477001826747,0.009324857346617574,0.0015969915486377644,-0.009810281645102819,-1.5745076756284768,9.787927288766173
3630000000.0,22.35,-0.013461617266186684,0.029231518356531087,-0.00023424614183228205,-0.4261503484701036,-1.29746700407187,9.80960788203358
3635000000.0,22.35,0.011415358455873298,0.001345881147206112,-0.0010646508437165,-0.5045276645503767,-1.0313239584952396,9.669421217284212
3640000000.0,22.35,0.006903701492973117,-0.004982519909683551,-0.0002980945630889824,-0.28291842032628417,-1.3341635351316354,9.578483646486836
3645000000.0,22.35,-0.031911422462738676,-0.0009262231829583411,0.000755909782730396,-0.3104875619962756,-1.589907903595779,9.801565807191558
3650000000.0,22.35,-0.0092725570462215,-0.008197896133166299,-0.002661665580449942,-0.34629292910312925,-1.2674481715689816,9.836486361928165
3655000000.0,22.35,0.01226483935778863,-0.0036303746245839423,-0.0013201362271214193,-0.2079705801202058,-1.250678390873784,9.715234406084145
3660000000.0,22.35,-0.006825865224534312,0.008687643468468648,-0.002171910867117162,-0.18050435545554355,-1.5546913592799136,9.852773519459936
3665000000.0,22.35,-0.00562699230107193,0.014202457706882287,0.0003726664245600163,-0.45911084752910847,-1.3850708389062085,9.996684940694049
3670000000.0,22.35,0.014065065164785527,-0.006889403578446959,0.0014266243941882116,-0.45263190300771905,-1.1293259168637593,9.90927591686376
3675000000.0,22.35,0.002614293925326229,-0.021576671612439566,-0.0010114415423265004,-0.13390371608383717,-1.4136248546531487,9.817357143087673
3680000000.0,22.35,-0.012222245988169709,0.0011012330883211352,-0.0007665330925319094,-0.10673401515294016,-1.5676376426020764,9.856696243316263
3685000000.0,22.35,0.007240231274864298,0.018940534310984226,0.0013414755991068474,-0.3212792894175929,-1.2347810495881104,9.826676284232963
3690000000.0,22.35,0.0202458193231342,0.008757914266500879,0.0014692103857766978,-0.3451150115879501,-1.1469863467811636,9.747804098283241
3695000000.0,22.35,0.003999052593026901,0.00041520603995731935,0.00041520603995731935,-0.3938725765641258,-1.5178069320889693,9.811472576564126
3700000000.0,22.35,-0.005110308450575022,-0.010231244997168126,0.0,-0.4689182156041822,-1.5048514127498143,9.95715107802091
3705000000.0,22.35,0.012711793010810157,-0.022077081255704276,-0.0006281518079649375,-0.24338314942763148,-1.2825583924874842,10.004434056069641
3710000000.0,22.35,0.02079939083759329,-0.00146612037333127,-0.000447145533648684,-0.05572051175080511,-1.3684968015574681,9.916731791127818
3715000000.0,22.35,0.009003686948022756,0.019628368821292336,0.001213717624341389,-0.2908697471737975,-1.4770917721594177,9.892600632956507
3720000000.0,22.35,0.014659534259543652,0.006267614552815097,0.0003406647446122814,-0.44772796646077967,-1.2066263871731637,9.86846694969117
3725000000.0,22.35,0.028017817596259174,-0.008730168327805116,-0.0010646508437165,-0.29773183586591834,-1.1580727429633275,9.743290842341509
3730000000.0,22.35,0.007311210795785922,-0.004897315252371886,-0.0010646508437165,-0.21738988980309892,-1.543901205186412,9.67266
3735000000.0,22.35,0.001331010389957284,-0.0005642728205822083,6.389479744791661e-05,-0.28223435293104354,-1.4284295294826954,9.776647450957874
3740000000.0,22.35,0.0360036655584303,0.0011498544470238987,0.0005110245210314132,-0.29312236412992365,-1.117554909419949,9.84845490941995
3745000000.0,22.35,0.0374482061258339,0.012976490685936442,0.0,-0.26987317274213174,-1.3638881553329814,9.774585099836552
3750000000.0,22.35,0.006396441858186254,0.01651072763891712,0.0010646666537816873,-0.4414524765345248,-1.5794094172859943,9.873767258016771
3755000000.0,22.35,0.016574867656523693,-0.0070993959917200755,-0.00047913245753565927,-0.5216944871453448,-1.2757864884996648,10.054661837618218
3760000000.0,22.35,0.0358748223738789,-0.027613234866103353,-0.0021718718689563506,-0.21974071349300717,-1.179557175272572,9.948122682028828
3765000000.0,22.35,0.01687309725312021,-0.008294335733817774,0.001437318322280942,0.0005884537387845362,-1.5255555133100551,9.790968453738785
3770000000.0,22.35,0.013806110206419303,0.028720646666129803,0.002299614033656624,-0.26251970075269704,-1.4850343582968437,9.848260098415901
3775000000.0,22.35,0.04410210698192327,0.027370855301030814,0.0009582016748104718,-0.5900720132739202,-1.0815499336303995,9.883574266751543
3780000000.0,22.35,0.04785108792071934,-0.008014116877088827,0.0016608473479248855,-0.45086458969944593,-1.104217197676272,9.799404686046246
3785000000.0,22.35,0.011358823045064359,-0.02128156040001203,0.0006068430021055071,-0.20453813240458132,-1.4999512055725122,9.798915361671753
3790000000.0,22.35,0.006182624981504979,-0.014571786013285367,-0.0004471613437138713,-0.2095421889296219,-1.4740471400384716,9.857480547232406
3795000000.0,22.35,0.04050281034934741,-0.011806532661104409,-0.0006281359978997502,-0.13037261488702614,-1.1503195680134957,9.780372178306921
3800000000.0,22.35,0.044530146164105014,0.009376165206889017,0.0,-0.005887033346170328,-1.2537214690907148,9.692280738104408
3805000000.0,22.35,0.02775156766647039,0.03564078281689833,0.001245665550067559,-0.33697830399138307,-1.4117548088656482,9.789399739075597
3810000000.0,22.35,0.03341171282758086,0.01882670142694554,0.0015756511226480215,-0.7184842519906425,-1.125597401873674,9.826872755971928
3815000000.0,22.35,0.03887737305496447,-0.030924420084621106,-0.002246437406401328,-0.4449762646705626,-1.1682771238024712,9.786750225898203
3820000000.0,22.35,0.01921738261732417,-0.027563995601672636,-0.003108756305872638,-0.05650678718266787,-1.5417400451935006,9.830013438784835
3825000000.0,22.35,0.02289634381846745,0.0029278301358866728,5.325673158556145e-05,-0.21533076303260762,-1.4111648594942487,9.945378594368286
3830000000.0,22.35,0.05091385934744842,0.00349199017800394,-4.263447578842748e-05,-0.25702051213690513,-1.085378102427381,9.93301598653006
3835000000.0,22.35,0.055135248178774986,0.00947077249873974,-0.002853231924306957,-0.21817648572766488,-1.2472477204358772,9.848848493883285
3840000000.0,22.35,0.0320846638524817,0.02552072423708671,-0.00034069636474265587,-0.49324896303438964,-1.493471192742112,9.955973471286535
3845000000.0,22.35,0.03316563113271933,-0.005605846935001171,-0.002054800444253134,-0.5954647594646476,-1.1427653316252533,9.98255707847037
3850000000.0,22.35,0.04879588276392359,-0.03461848397580553,-0.003939200005917687,-0.2570185600449856,-1.1330583651733837,9.840409280022492
3855000000.0,22.35,0.038399666371569816,-0.010153103222977737,-0.001958925046944406,-0.020799296604992974,-1.4449149748787498,9.6995398492725
3860000000.0,22.35,0.030386459065673964,0.01789857835795696,0.0007665404705623302,-0.30646687420366875,-1.3008018763272189,9.755064374879344
3865000000.0,22.35,0.05876111230407297,0.0009260914324150955,0.0,-0.43624777215347776,-0.9706030516057306,9.74270204868622
3870000000.0,22.35,0.059160905137397336,-0.0016559583746849852,0.0,-0.20032147789181476,-1.242930382654804,9.636756076530961
3875000000.0,22.35,0.03834475296977647,0.026362994004121936,0.0,-0.45126391389573917,-1.4960227419832275,9.778119833283998
3880000000.0,22.35,0.03656081087332968,-0.008185362535521217,0.0,-0.6972904288680044,-1.1834754607905547,10.008554475364345
3885000000.0,22.35,0.06597919967333953,-0.04624711506198499,0.0,-0.1655894796955948,-1.0416307804566078,9.973138866232189
3890000000.0,22.35,0.04185033866344338,-0.006290762544421633,0.0,0.08475552877385528,-1.5488031022343312,9.849044480027246
3895000000.0,22.35,0.031205144155006966,0.03493783675254535,0.0,-0.3110789584407896,-1.4331375284451755,9.9199701756557
3900000000.0,22.35,0.07371228509090615,0.010230815619987886,0.0,-0.5905575305835753,-0.8652413182246133,9.878668106179482
3905000000.0,22.35,0.071547381676649,-0.015238397143922304,0.0,-0.11261819320048194,-0.9884634883937349,9.702973734349337
3910000000.0,22.35,0.035488263377217985,0.013715976471866278,0.0,-0.1585343087176431,-1.7230244507529446,9.816868139205882
3915000000.0,22.35,0.02654062782738547,0.019185492713673376,0.0,-0.65727,-1.2079989894376901,9.940865552088356
3920000000.0,22.35,0.08896897430746263,-0.02646637123416519,0.0,-0.5301262325549623,-0.8189428354887284,9.911629391902395
3925000000.0,22.35,0.05720369125786901,-0.03851631016424755,0.0,0.12851054256950542,-1.3204293544902934,9.722693592106136
3930000000.0,22.35,0.02633846340071619,0.019530840485987883,0.0,-0.025904201500642043,-1.6104053252100532,9.996585665651258
3935000000.0,22.35,0.07362604104707939,0.041711075712880505,0.0,-0.6249925777224259,-1.0512344025795441,9.897993330587735
3940000000.0,22.35,0.09305798033118441,-0.00230188985366315,0.0,-0.3150953632854536,-0.5521120805543208,9.648724594887046
3945000000.0,22.35,0.06434605024643694,-0.017656689665170595,0.0,-0.13920612217986122,-1.2330249535244497,9.765266706507566
3950000000.0,22.35,0.006498452269216894,-0.0027661468886848403,0.0,-0.4208512249963123,-1.8148415603588157,9.804114306896043
3955000000.0,22.35,0.07695770940592109,0.01688873549832039,0.0,-0.6512836721872368,-0.8251174867562748,9.842961907284518
3960000000.0,22.35,0.09804111826754736,-0.017648129698466786,0.0,-0.3649293078612931,-0.7090737995606381,9.867681723144516
3965000000.0,22.35,0.057459244581357316,-0.023087056401525557,0.0,-0.047676445969264465,-1.5282996689538968,9.762620087476401
3970000000.0,22.35,0.00632799652656597,-0.0021492711993441136,0.0,-0.05415443872444439,-1.4767942383880426,10.044262645775026
3975000000.0,22.35,0.10539955248397694,0.031318255132462613,0.0,-0.44782750372487506,-1.0771346027773459,10.001291139519711
3980000000.0,22.35,0.10289663946572718,0.0381735979557178,0.0,-0.5697649546134496,-0.681209183042092,9.551804046882442
3985000000.0,22.35,0.06566972934501863,0.006152012773023878,-0.00019168755435679306,-0.5850674711538747,-1.0376082668267828,9.951755661057657
3990000000.0,22.35,0.02031049335809006,-0.0697050730873843,-0.006345302206641179,-0.46047729244897295,-1.5862719624374197,10.089583062475931
3995000000.0,22.35,0.07573184045921567,-0.039408168347612176,-0.004173363935410993,0.04718462563644626,-0.964030795148208,9.846098316861383
4000000000.0,22.35,0.08628916253894726,0.06604340237828651,0.004258611806900866,-0.1373464487016645,-1.2262462706303627,9.535320776952009
4005000000.0,22.35,0.09682920599714145,0.08397875501698412,0.005312616152720344,-0.9434341567625416,-0.7600750659686506,9.632439777923198
4010000000.0,22.35,0.09067538897602266,-0.03798249568479066,-0.0051104085809879265,-0.9804116336683163,-0.5919340758795408,9.883380825125407
4015000000.0,22.35,0.04404143173578279,-0.10040579237821062,-0.0053232542185827,0.008640910602009111,-1.5972724665751248,9.859932666040326
4020000000.0,22.35,0.02625031449457644,-0.021481540826004217,-0.00021288779776860653,0.1899228493388285,-1.5531185753305856,9.877885356167353
4025000000.0,22.35,0.09539068332802596,0.059813087207721424,0.0,-0.42821173811331736,-1.2237947636721478,10.027783250892732
4030000000.0,22.35,0.13410860467033384,0.048902252882503675,0.0,-0.38729817377668174,-0.5150191291563913,9.777428608218386
4035000000.0,22.35,0.12545364947061097,0.04099702631750091,0.0019802675809428316,-0.47382378375033785,-0.6989644593758446,9.870430540500404
4040000000.0,22.35,0.03839090863218164,-0.008516236443698734,0.0011498143948587057,-0.8236505819418058,-1.0771411388861114,9.689139152084792
4045000000.0,22.35,0.018297397429495897,-0.08645535842800135,-0.0028107123349922812,-0.5678002857833029,-1.483471499909415,9.824422035677621
4050000000.0,22.35,0.07936591228914208,-0.05923093133730634,-0.008943118311830086,0.34335786663907863,-0.9378308080182081,9.9365498653303
4055000000.0,22.35,0.10050229520184407,0.04226280710853939,-0.004844118599033974,0.2406374884392749,-1.3532938319930383,9.91241608494596
4060000000.0,22.35,0.11164321292192726,0.11807210615706298,0.00323660703302054,-0.5956706128991061,-0.8687686317803863,9.735442422787424
4065000000.0,22.35,0.1351681023831311,0.060042548740022794,0.00240609376868864,-1.192802400591624,-0.49589273647882737,9.993547705605677
4070000000.0,22.35,0.09268144094173751,-0.05070345722022368,-0.0024487398385249107,-0.8352193682017937,-0.5440634696035347,9.917516493231865
4075000000.0,22.35,0.02092763273858357,-0.11238567098283356,-0.005003876145738572,-0.3148967257927673,-1.6682010272141103,9.914967158303972
4080000000.0,22.35,0.03284871654449149,-0.08816534646503257,-0.004428938909185294,0.242507796448078,-1.188180701573407,9.819024249010743
4085000000.0,22.35,0.10448252161849372,0.012580033482627623,-0.002491265751865616,0.42310617280846174,-1.1164766554235668,9.995607104309371
4090000000.0,22.35,0.11737303450901272,0.08873205267063167,0.0013627875669793153,-0.00902964882719659,-1.1040171616699717,9.729947381152975
4095000000.0,22.35,0.1422044419428272,0.11759346783749919,0.002129301687433,-0.9184203131271031,-0.669626304815063,9.87739684759247
4100000000.0,22.35,0.13955644056111022,0.043890753106052977,0.00042584305181532847,-1.2890358316643584,-0.2079683366712834,9.778606486885964
4105000000.0,22.35,0.09029901090107692,-0.038618153524228725,-0.0008410828199117142,-0.9001611348568115,-0.5517188651431888,9.687080141857102
4110000000.0,22.35,0.012956997221135719,-0.09277999865915508,-0.0018950871657310926,-0.5935030042045302,-1.7919063352773634,9.841001356300014
4115000000.0,22.35,0.016824510210034383,-0.09594538330100676,-0.002949091511550548,0.05719861438608609,-1.164927508882775,10.213292536944325
4120000000.0,22.35,0.11735345627461649,-0.03545678534736374,-0.004812239183590375,0.7051478416415784,-0.8157988797654888,10.205930479635205
4125000000.0,22.35,0.10705806125543994,0.06285017648810012,-0.00133077007696641,0.4561606733485068,-1.0374101440648014,9.61379391063864
4130000000.0,22.35,0.11187510730360387,0.11155575558086835,0.002363550991278393,-0.59822398797744,-0.9949288362549884,9.80490297145533
4135000000.0,22.35,0.13768889368227602,0.048546935766887275,0.0008623410335625724,-1.0868517473005177,-0.5075644203203442,10.009143803174137
4140000000.0,22.35,0.1295360680017289,-0.008312305402073377,-0.0015331146692637268,-0.6604036513972366,-0.3645398412435984,9.830794867978549
4145000000.0,22.35,0.06608291150656564,-0.0300726602006862,-0.002129301687433,-0.5196362635815627,-0.9230292604204927,9.681488194883482
4150000000.0,22.35,0.03589610799164271,-0.05645642790475636,-0.002129301687433,-0.5395500000000001,-1.2713774509578746,9.790381612175416
4155000000.0,22.35,0.08668486058266692,-0.05428937344041694,-0.002129301687433,-0.2146389261172893,-0.8775972734112727,9.910160826353009
4160000000.0,22.35,0.11224144360268683,-0.008442713420224388,4.261234169713156e-05,0.011380569636105689,-0.8103076160601762,9.844137668757877
4165000000.0,22.35,0.11078282806859427,0.03991621478800382,0.0003513259985702443,-0.14156064610370647,-0.8796627809001278,9.721316629198467
4170000000.0,22.35,0.11183688511463097,0.04588844013042547,-0.0007026783472491342,-0.5009019208871193,-0.7016089320770893,9.863761067922912
4175000000.0,22.35,0.1191510892482014,0.013154185589615862,-0.00037261899436448736,-0.5675076079619761,-0.60822,9.938020256716904
4180000000.0,22.35,0.09864500264489665,-0.012361252210919983,0.0006813853514548911,-0.44184126331921264,-0.7023972178722722,9.802150376170303
4185000000.0,22.35,0.07381087114548976,-0.028848339292625792,-0.0009475657169568084,-0.3429569496911695,-0.9284206760809067,9.818045338040454
4190000000.0,22.35,0.07834030097157176,-0.03053028464554104,-0.0034494863987543575,-0.17402752812837527,-0.932733497828435,9.95401193940012
4195000000.0,22.35,0.11056346248106755,-0.0023593401229655593,-0.002959711659338986,-0.14214763334557634,-0.8072640036887401,9.946358185171581
4200000000.0,22.35,0.11973647061381734,0.020877726047499275,-0.0008517029677001901,-0.26487122369941224,-0.6768887763005879,9.796264449980745
4205000000.0,22.35,0.11693656287737407,0.022428309231870367,0.0,-0.3526699083853991,-0.5833021099375212,9.74486192670832
4210000000.0,22.35,0.1126884995459661,0.005415543530253038,-0.0012350127281443237,-0.3955395270967953,-0.7071069261291694,9.840608344838783
4215000000.0,22.35,0.10137193231266985,-0.00046837528918220687,-0.0009155819550829194,-0.41202,-0.7639039631581397,9.84796396315814
4220000000.0,22.35,0.09825578928516022,-0.005153034624741542,-0.0011924267365558375,-0.44498209181062093,-0.6435347704734478,9.815493681968437
4225000000.0,22.35,0.10305737353881869,-0.020504261793485704,-0.0015437348170522028,-0.28203462770554627,-0.6057679103277791,9.787436507606666
4230000000.0,22.35,0.09797882856320925,-0.015040702110369541,-0.0010646508437165,-0.10634007134930071,-0.834441804344318,9.829817268114772
4235000000.0,22.35,0.10121423869654078,0.014935958752464066,-0.0005003769691299459,-0.27026837909278384,-0.8388503854268039,9.893679382259792
4240000000.0,22.35,0.12190865236005148,0.0236525679536743,0.0,-0.4724502588553026,-0.5795730705048308,9.888087435286174
4245000000.0,22.35,0.12989328336189337,0.018702120342229657,-0.000542980878792311,-0.48010090527580906,-0.47068363509193634,9.848650905275809
4250000000.0,22.35,0.11718124471623434,0.014381396422083529,-0.0010646508437165,-0.5542667335741673,-0.5591716510230165,9.878670990613811
4255000000.0,22.35,0.10289580517809059,-0.005076505546315367,-0.001586338726714568,-0.6188141388138414,-0.6524630173517302,9.913495086758651
4260000000.0,22.35,0.09646711334417866,-0.020671724561205928,-0.0011072189172311071,-0.522283407055334,-0.5909534070553341,9.846100055291501
4265000000.0,22.35,0.09730825940435112,-0.027442930951914538,0.0,-0.33196808040978076,-0.5481831313700313,9.814022348527525
4270000000.0,22.35,0.1015987843548348,-0.02607999793233543,-0.0014692451679201557,-0.10516170708671706,-0.6908224393699245,9.834132682939627
4275000000.0,22.35,0.10572685530447966,0.0014359211099298844,-0.0017566468569208099,-0.12458915895539159,-0.7367291731915918,9.81735708481627
4280000000.0,22.35,0.1213201744506188,0.024759902811383516,0.0,-0.32530076387410767,-0.47126957344859577,9.78174703373227
4285000000.0,22.35,0.13101039569955591,0.011838011347551596,-0.0013734266868460588,-0.2967504192254042,-0.37729443108164434,9.787633532923936
4290000000.0,22.35,0.11713871142486312,0.005025296676058683,-0.0018524653379949066,-0.22700481657774815,-0.5291519832967199,9.814120283328103
4295000000.0,22.35,0.10579305097613573,0.003992214316503741,-0.00043651589982109557,-0.4242845856305459,-0.5890909171261093,9.823832183425223
4300000000.0,22.35,0.1056728228775318,-0.012562898084729887,-0.0010646508437165,-0.43948524376275244,-0.52385199546382,9.802151415343614
4305000000.0,22.35,0.11232656183164215,-0.012594792256234404,-0.0006494279396896474,-0.25290196723891967,-0.4782395904864959,9.829817705150276
4310000000.0,22.35,0.11053800288514296,-0.006196167969738208,-0.00040457640612973094,-0.2238632791176328,-0.6166563488502635,9.930074232566842
4315000000.0,22.35,0.11934282001673638,0.00894970687571708,-0.0014585807519491094,-0.26585351441093513,-0.5911504323726043,9.921539783813698
4320000000.0,22.35,0.12672055004623378,0.023141687831238274,-0.0009794514564265364,-0.4689184195540842,-0.5010929539620296,9.888871476981015
4325000000.0,22.35,0.12314359657791336,0.015927664910074323,-0.0004258968060370002,-0.5174779200396793,-0.31489982388889826,9.84384508805555
4330000000.0,22.35,0.12480406870029115,-0.0025339329017887817,-0.003917933360232124,-0.47931483379384837,-0.32903000725670006,9.891815484105054
4335000000.0,22.35,0.1037183864722423,-0.00323642890628609,-0.003566534635362018,-0.404860299841303,-0.5265026157978262,9.852966621169566
4340000000.0,22.35,0.10107209947179074,-0.0031997664536786673,0.0003406974187470017,-0.5768292644893926,-0.45086574541555746,9.773507137197171
4345000000.0,22.35,0.11189021035649899,-0.03022725570063143,-0.0009156546813828428,-0.4761718298368184,-0.28890407801794077,9.797148815603588
4350000000.0,22.35,0.11440787591072325,-0.038564464737255146,-0.004684445372677153,0.002943929428839292,-0.3727833797412338,9.810981591454716
4355000000.0,22.35,0.09553017409903639,-0.008006064180214139,-0.0022676787559826597,0.001665416052454155,-0.6531499691812997,9.8476700616374
4360000000.0,22.35,0.10200859776298371,0.004343876542460282,-0.00029811142715851553,-0.18639,-0.5681921512403216,9.811569345936693
4365000000.0,22.35,0.14025729553267735,0.021984112940611276,-0.0010646508437165,-0.18639,-0.29537850650578507,9.795677569569776
4370000000.0,22.35,0.15216184558710266,0.052415912335853285,-0.0005110139809879551,-0.29606944992629447,-0.28351027323010275,9.804898630235988
4375000000.0,22.35,0.13609192838007428,0.06178007070536748,0.0015969947106508268,-0.7161337390815374,-0.3335379605009796,9.800190339916504
4380000000.0,22.35,0.12493203642192145,0.02624148128156557,0.0019163253532994292,-1.023378604466286,-0.07690750740767507,9.836683455228735
4385000000.0,22.35,0.11197085146873215,-0.043208385871795554,-0.003598575313470516,-0.7997047268243472,0.04796604511826044,9.886126622080367
4390000000.0,22.35,0.06779870816154669,-0.09780842451860758,-0.007814509430404919,-0.1479317302626173,-0.5336699689337997,9.948712291483723
4395000000.0,22.35,0.04471917845689085,-0.07196177677257412,-0.004652496392946664,0.18315500492525005,-0.9415585072086852,9.88426315124923
4400000000.0,22.35,0.09460111554071518,-0.020877053143478888,-0.0023422411314145634,0.39043791453527915,-0.4571458290705583,9.988540803493908
4405000000.0,22.35,0.17123343801229549,0.053817881892353134,-0.0021824878007274725,0.2931186930316869,-0.389258404268484,9.809702534211926
4410000000.0,22.35,0.18954853284862927,0.14758402224004424,0.0028958874801822366,-0.3107915930288159,-0.11202754457227544,9.5757401124046
4415000000.0,22.35,0.17017949215507783,0.12557220612566755,0.005301905360558095,-1.3527023578533235,0.21739371629173715,9.839233285463534
4420000000.0,22.35,0.13665446706976878,-0.01717457221549141,-0.0017035345239306344,-1.3451392156526922,0.5124691629549916,9.771543769761639
4425000000.0,22.35,0.06360339591609845,-0.13799810669530652,-0.009688266710189741,-0.4625347099250471,-0.24624595535495958,9.693262203304423
4430000000.0,22.35,-0.004681646559170021,-0.14042139739155646,-0.004109542918267286,0.29097053727300537,-1.5364321324501213,9.874553844229439
4435000000.0,22.35,0.0542552404427306,-0.04465490914232499,-0.002501882737641125,0.809320692772307,-0.5149245740970458,10.24811304939803
4440000000.0,22.35,0.20538699610956754,0.07397135909992723,0.002257069148237583,0.3319666916080669,-0.17853423824944242,9.976761375832714
4445000000.0,22.35,0.21428500446953366,0.15365235423869544,0.003311073494057049,-0.1719799196713992,0.550925801093158,9.189033043715432
4450000000.0,22.35,0.16480028404234617,0.12144548884589917,0.0038327055148247783,-1.2448889135640893,0.15499696276906963,9.804114345743644
4455000000.0,22.35,0.0923131868731079,-0.040586208495046634,-0.0005749678026792554,-1.1698360100227603,0.03757117507061175,9.84384493266515
4460000000.0,22.35,0.06514733952968374,-0.12578216273735043,-0.006473086531515284,-0.45557146208151467,-0.14205581704205816,9.891619546520594
4465000000.0,22.35,0.04514011983557779,-0.09547249282999463,-0.007005346078101908,0.0547392796363928,-0.8511128247274283,9.923599279636393
4470000000.0,22.35,0.08324692168273766,-0.0034694411373259147,-0.0010007623702946583,-0.009418989190189892,-0.5132524276978243,9.872392120946321
4475000000.0,22.35,0.15393046919907755,0.025675557492766347,-0.00010648395104944016,-0.14322356619783566,0.20699117384301174,9.914964740040848
4480000000.0,22.35,0.1817747859650158,0.02957327453128289,-0.0020015152545502044,0.1059453894412539,0.20011834378938342,9.672267512981376
4485000000.0,22.35,0.12089635294458119,0.07459241462492817,0.001096599823446977,-0.2030748404169484,-0.4025996122961961,9.669620903662109
4490000000.0,22.35,0.10430410432442602,0.07366424049720455,0.002044091760099578,-1.0600688616385885,-0.08534133116391332,9.888283712787137
4495000000.0,22.35,0.15193789102016309,-0.023036141391136324,-0.0021719256231779375,-1.0799749547916495,0.5362116314606163,9.876706253800362
4500000000.0,22.35,0.11292210017061227,-0.08841814259954606,-0.00638786711814275,-0.19619694075146943,0.20600178373251785,9.682470437035505
4505000000.0,22.35,0.034873942300672645,-0.06205075519429302,-0.0021718497348650377,0.14371956264769567,-0.7069168253966682,9.731029937521098
4510000000.0,22.35,0.060187568023008425,-0.017946123111696105,-0.002129301687433,-0.21817772885087727,-0.793041100810711,10.019936628040165
4515000000.0,22.35,0.16197743616049748,0.03048715136651565,-6.386001530450441e-05,-0.24466157539691574,0.3377687361164876,9.911630547618504
4520000000.0,22.35,0.18965468667169466,0.04115564764752062,-0.0010220743381671262,-0.047478556292885554,0.4857922535469225,9.785670058657502
4525000000.0,22.35,0.11984411039294396,0.040527408357195,-0.0010646508437165,-0.23495134574661344,-0.05935568566905686,9.650095769502258
4530000000.0,22.35,0.08007222055824323,0.024461683875781712,-0.0020654321860893833,-0.7708748154194482,-0.2819412477861125,9.873767199745371
4535000000.0,22.35,0.11046255305533059,-0.016198085362271873,-0.00014903199848147674,-0.8409135523477355,0.23485650904216515,9.997960657043208
4540000000.0,22.35,0.12859461614929188,-0.05641778283541684,0.0,-0.32019328532493274,0.31980644092026445,9.81666894813489
4545000000.0,22.35,0.08924997580561533,-0.04026263420627797,-0.0009688418486815185,0.03777158984101592,-0.20297410858914106,9.648427799220077
