#timestamp [ns], temperature [degC], w_RS_S_x [rad s^-1], w_RS_S_y [rad s^-1], w_RS_S_z [rad s^-1], a_RS_S_x [m s^-2], a_RS_S_y [m s^-2], a_RS_S_z [m s^-2]
0.0,21.97,0.0,0.0,0.0,0.34335,0.25506,9.88848
5000000.0,21.97,0.0,0.0,0.0,0.294790499514405,0.216212399611524,9.87876809990288
10000000.0,21.97,0.0,0.0,0.0,0.28468619980576204,0.24466140058271402,9.869056199805762
15000000.0,21.97,0.0,0.0,0.0,0.332068501456785,0.264281400582714,9.830797198834572
20000000.0,21.97,0.0,0.0,0.0,0.324122399611524,0.274287600388476,9.848455200776952
25000000.0,21.97,0.0,0.0,0.0,0.34236900097119,0.27468,9.877198501456785
30000000.0,21.97,0.0,0.0,0.0,0.334128599417286,0.265458599417286,9.869448599417286
35000000.0,21.97,0.0,0.0,0.0,0.33354,0.23750009796050098,9.877983300679833
40000000.0,21.97,0.0,0.0,0.0,0.324514799223048,0.226414799223048,9.860619598446096
45000000.0,21.97,0.0,0.0,0.0,0.332657100874071,0.23455710087407103,9.903685504370355
50000000.0,21.97,0.0,0.0,0.0,0.32471099902881,0.27075600388476,9.86395499514405
55000000.0,21.97,0.0,0.0,0.0,0.332460901068309,0.283410901068309,9.86778090106831
60000000.0,21.97,0.0,0.0,0.0,0.342172801165428,0.275857198834572,9.851594397669144
65000000.0,21.97,0.0,0.0,0.0,0.34335,0.257610597474906,9.840705298737452
70000000.0,21.97,0.0,0.0,0.0,0.3180401959210019,0.238186797280668,9.856303202719332
75000000.0,21.97,0.0,0.0,0.0,0.31392,0.21876299708643,9.884065504370355
80000000.0,21.97,0.0,0.0,0.0,0.322160401553904,0.24054120466171205,9.880239598446096
85000000.0,21.97,0.0,0.0,0.0,0.340014603302046,0.253392301651023,9.862385396697954
90000000.0,21.97,0.0,0.0,0.0,0.351394201748142,0.271148403496284,9.851005798251858
95000000.0,21.97,0.0,0.0,0.0,0.35316,0.25878779630947796,9.857186101845262
100000000.0,21.97,0.0,0.0,0.0,0.32961599417285997,0.23151599417285995,9.87474600388476
105000000.0,21.97,0.0,0.0,0.0,0.31598009796050097,0.21788009796050098,9.8709200979605
110000000.0,21.97,0.0,0.0,0.0,0.32922360427323605,0.22347180213661802,9.86886
115000000.0,21.97,0.0,0.0,0.0,0.3108788932987889,0.2558448089349481,9.86886
120000000.0,21.97,0.0,0.0,0.0,0.3264768069925681,0.24995879533828794,9.86886
125000000.0,21.97,0.0,0.0,0.0,0.33354,0.25996500485595003,9.86886
130000000.0,21.97,0.0,0.0,0.0,0.326280597474906,0.26487,9.861600597474906
135000000.0,21.97,0.0,0.0,0.0,0.32373,0.26487,9.851888697377786
140000000.0,21.97,0.0,0.0,0.0,0.32373,0.24368039184200393,9.870429608157997
145000000.0,21.97,0.0,0.0,0.0,0.33069510281645104,0.24240510281645103,9.871704897183548
150000000.0,21.97,0.0,0.0,0.0,0.33354,0.24525,9.85512599417286
155000000.0,21.97,0.0,0.0,0.0,0.326771096989311,0.252018903010689,9.84924
160000000.0,21.97,0.0,0.0,0.0,0.3437424093234241,0.24838919689219197,9.842569196892192
165000000.0,21.97,0.0,0.0,0.0,0.34658729679507294,0.25182270320492706,9.892011625639416
170000000.0,21.97,0.0,0.0,0.0,0.31745158679181584,0.24211079339590794,9.88553698348977
175000000.0,21.97,0.0,0.0,0.0,0.31686300679833007,0.22906349660083497,9.875236503399165
180000000.0,21.97,0.0,0.0,0.0,0.31117319300743196,0.23818680699256806,9.859834789511147
185000000.0,21.97,0.0,0.0,0.0,0.3288312143736121,0.23906969640659698,9.861600607186807
190000000.0,21.97,0.0,0.0,0.0,0.35551440738104406,0.2536866110715661,9.862777796309478
195000000.0,21.97,0.0,0.0,0.0,0.3510017924247179,0.2469176886370769,9.853065896212359
200000000.0,21.97,0.0,0.0,0.0,0.33746399611524,0.23544,9.88455602330856
205000000.0,21.97,0.0,0.0,0.0,0.3161762880543629,0.23544,9.890736288054363
210000000.0,21.97,0.0,0.0,0.0,0.3154896081579961,0.25250941223699414,9.890049608157996
215000000.0,21.97,0.0,0.0,0.0,0.32373,0.27046170417611703,9.870331479119415
220000000.0,21.97,0.0,0.0,0.0,0.3402108128197081,0.2581991871802919,9.838252791453527
225000000.0,21.97,0.0,0.0,0.0,0.34776449562964495,0.25604100874071006,9.845806513111064
230000000.0,21.97,0.0,0.0,0.0,0.338052595532526,0.2542751910650519,9.874942213402422
235000000.0,21.97,0.0,0.0,0.0,0.33354,0.23485139087081391,9.893679304564593
240000000.0,21.97,0.0,0.0,0.0,0.3131351813531518,0.24603481864684817,9.893188795338288
245000000.0,21.97,0.0,0.0,0.0,0.30930931427649316,0.26987310475883103,9.883476895241168
250000000.0,21.97,0.0,0.0,0.0,0.32373,0.25996498543214985,9.87376499514405
255000000.0,21.97,0.0,0.0,0.0,0.34776452476534525,0.2548638099061381,9.86886
260000000.0,21.97,0.0,0.0,0.0,0.36807119494981194,0.26016119494981194,9.86886
265000000.0,21.97,0.0,0.0,0.0,0.3399164742634647,0.23661717941077182,9.859638589705385
270000000.0,21.97,0.0,0.0,0.0,0.31392,0.22935781573327815,9.853752605244425
275000000.0,21.97,0.0,0.0,0.0,0.3227490106830901,0.24525,9.872293516024635
280000000.0,21.97,0.0,0.0,0.0,0.3421728108773281,0.25819921631599213,9.88848
285000000.0,21.97,0.0,0.0,0.0,0.3489416944642169,0.2704616944642169,9.880043388928433
290000000.0,21.97,0.0,0.0,0.0,0.33098938310129383,0.26487,9.86886
295000000.0,21.97,0.0,0.0,0.0,0.32598631719006316,0.27291421146004213,9.864837894269979
300000000.0,21.97,0.0,0.0,0.0,0.33550198834571987,0.2727179825185798,9.85512599417286
305000000.0,21.97,0.0,0.0,0.0,0.31607818815148186,0.25123409407574093,9.860717717772777
310000000.0,21.97,0.0,0.0,0.0,0.31902122408551226,0.24152219397862193,9.871214387957243
315000000.0,21.97,0.0,0.0,0.0,0.34335,0.23906970611849707,9.866309412236994
320000000.0,21.97,0.0,0.0,0.0,0.33981839378438394,0.24878160621561607,9.868075181353152
325000000.0,21.97,0.0,0.0,0.0,0.33354,0.25506,9.852673506312735
330000000.0,21.97,0.0,0.0,0.0,0.33354,0.25506,9.855714593590147
335000000.0,21.97,0.0,0.0,0.0,0.3367773065069731,0.25182269349302694,9.862189226027892
340000000.0,21.97,0.0,0.0,0.0,0.33079317358363175,0.24211079339590794,9.882201586791815
345000000.0,21.97,0.0,0.0,0.0,0.30715110670121104,0.23544,9.859736679896367
350000000.0,21.97,0.0,0.0,0.0,0.3198060135966601,0.23838300679833008,9.84531601359666
355000000.0,21.97,0.0,0.0,0.0,0.3363849068954491,0.24809490689544908,9.861894906895449
360000000.0,21.97,0.0,0.0,0.0,0.34609680699256806,0.24956638601486386,9.860619579022295
365000000.0,21.97,0.0,0.0,0.0,0.35580870708968704,0.24073741417937417,9.850024828358748
370000000.0,21.97,0.0,0.0,0.0,0.35021696406596964,0.25250939281319396,9.876119392813193
375000000.0,21.97,0.0,0.0,0.0,0.30901498543214984,0.24770250728392507,9.86395498543215
380000000.0,21.97,0.0,0.0,0.0,0.2990088147620881,0.25506,9.856303222143133
385000000.0,21.97,0.0,0.0,0.0,0.31392,0.24829107756551078,9.87190107756551
390000000.0,21.97,0.0,0.0,0.0,0.3203946227258462,0.2342628303011283,9.84924
395000000.0,21.97,0.0,0.0,0.0,0.3392297846551978,0.26280989232759894,9.857480430689604
400000000.0,21.97,0.0,0.0,0.0,0.3217679922304799,0.25113598446095986,9.882593976691439
405000000.0,21.97,0.0,0.0,0.0,0.31764781573327816,0.23730390786663907,9.862777815733278
410000000.0,21.97,0.0,0.0,0.0,0.33354,0.24348419203624191,9.882201615927515
415000000.0,21.97,0.0,0.0,0.0,0.33187229193912293,0.23377229193912294,9.896622291939122
420000000.0,21.97,0.0,0.0,0.0,0.32216039184200396,0.23190843263198432,9.883771175526011
425000000.0,21.97,0.0,0.0,0.0,0.31686301651023013,0.2633984917448849,9.860521508255115
430000000.0,21.97,0.0,0.0,0.0,0.3349134083522341,0.25780681670446814,9.867486591647765
435000000.0,21.97,0.0,0.0,0.0,0.34335,0.2708540746519407,9.860325308449353
440000000.0,21.97,0.0,0.0,0.0,0.33864116581411163,0.24054116581411167,9.86886
445000000.0,21.97,0.0,0.0,0.0,0.30518910864359106,0.20601,9.86993910864359
450000000.0,21.97,0.0,0.0,0.0,0.31686302622213025,0.20699100874071008,9.87572697377787
455000000.0,21.97,0.0,0.0,0.0,0.34335,0.22023454418914545,9.851888726513486
460000000.0,21.97,0.0,0.0,0.0,0.3425651910650519,0.26722442680484426,9.876315573195155
465000000.0,21.97,0.0,0.0,0.0,0.33354,0.2922398729037987,9.8513001270962
470000000.0,21.97,0.0,0.0,0.0,0.33412860912918607,0.2625155634832556,9.876315563483255
475000000.0,21.97,0.0,0.0,0.0,0.34138796309477965,0.2241584723210847,9.839920509226305
480000000.0,21.97,0.0,0.0,0.0,0.3048948186468482,0.1977696372936964,9.850417227970272
485000000.0,21.97,0.0,0.0,0.0,0.3246129282616293,0.2360286188410862,9.878375690579457
490000000.0,21.97,0.0,0.0,0.0,0.3527675809646758,0.25506,9.86886
495000000.0,21.97,0.0,0.0,0.0,0.33344189038521893,0.2553543288443433,9.868663780770438
500000000.0,21.97,0.0,0.0,0.0,0.32373000971190014,0.28448998057619984,9.84924
505000000.0,21.97,0.0,0.0,0.0,0.3334419098090191,0.2650661803819618,9.84924
510000000.0,21.97,0.0,0.0,0.0,0.3239261900938619,0.2552561900938619,9.84924
515000000.0,21.97,0.0,0.0,0.0,0.3427614200065142,0.2169971599869716,9.839724289996743
520000000.0,21.97,0.0,0.0,0.0,0.3339323898996239,0.23465522020075222,9.830012389899624
525000000.0,21.97,0.0,0.0,0.0,0.3149009796050098,0.2261204898025049,9.86689804078998
530000000.0,21.97,0.0,0.0,0.0,0.3046985897053859,0.2717370514730705,9.859638589705385
535000000.0,21.97,0.0,0.0,0.0,0.3314799311751993,0.2929266207834662,9.85905
540000000.0,21.97,0.0,0.0,0.0,0.3245147895111479,0.21307310560033105,9.886125631466555
545000000.0,21.97,0.0,0.0,0.0,0.3058757788280578,0.2238642211719422,9.852771557656116
550000000.0,21.97,0.0,0.0,0.0,0.33942604273236043,0.2344590106830901,9.85806901068309
555000000.0,21.97,0.0,0.0,0.0,0.3346190892197909,0.23544,9.850319089219791
560000000.0,21.97,0.0,0.0,0.0,0.3421728108773281,0.2613384326319843,9.875138432631983
565000000.0,21.97,0.0,0.0,0.0,0.34335,0.29047413292334134,9.853065867076658
570000000.0,21.97,0.0,0.0,0.0,0.3517866110715661,0.25211694464216944,9.882986444286264
575000000.0,21.97,0.0,0.0,0.0,0.31146744415657446,0.2619270223373702,9.880141488831315
580000000.0,21.97,0.0,0.0,0.0,0.2958695887341959,0.24014876620258768,9.886910411265804
585000000.0,21.97,0.0,0.0,0.0,0.2943,0.23544,9.88848
590000000.0,21.97,0.0,0.0,0.0,0.31843263438012637,0.25152842292008426,9.872391577079915
595000000.0,21.97,0.0,0.0,0.0,0.3396222231143222,0.2709522231143222,9.845021665328517
600000000.0,21.97,0.0,0.0,0.0,0.34335,0.2589839766914398,9.84727801165428
605000000.0,21.97,0.0,0.0,0.0,0.34335,0.23956017649720177,9.856989911751398
610000000.0,21.97,0.0,0.0,0.0,0.3356981881514819,0.21248456445444563,9.874353623697036
615000000.0,21.97,0.0,0.0,0.0,0.30332515221745154,0.2135637119456371,9.863562576108725
620000000.0,21.97,0.0,0.0,0.0,0.30175561204275614,0.23818683612826835,9.873961224085512
625000000.0,21.97,0.0,0.0,0.0,0.32618253641962536,0.28203756069937563,9.900742536419624
630000000.0,21.97,0.0,0.0,0.0,0.3407994122369941,0.2870405877630059,9.87180293881503
635000000.0,21.97,0.0,0.0,0.0,0.35767262466822625,0.26300606299766066,9.880533937002339
640000000.0,21.97,0.0,0.0,0.0,0.34178036270630363,0.2268071502750715,9.867290362706303
645000000.0,21.97,0.0,0.0,0.0,0.3056795498865955,0.22278511252835112,9.86601511252835
650000000.0,21.97,0.0,0.0,0.0,0.3217680505018805,0.23249701262547012,9.86886
655000000.0,21.97,0.0,0.0,0.0,0.33354,0.24220891272258913,9.862091087277411
660000000.0,21.97,0.0,0.0,0.0,0.3468816256394162,0.25859162563941623,9.85905
665000000.0,21.97,0.0,0.0,0.0,0.3465872870831729,0.2714427129168271,9.852477287083174
670000000.0,21.97,0.0,0.0,0.0,0.33040077397210776,0.26820538698605384,9.842765386986054
675000000.0,21.97,0.0,0.0,0.0,0.33010651311106515,0.23936394755573948,9.858559539333195
680000000.0,21.97,0.0,0.0,0.0,0.3272615867918159,0.21307317358363173,9.881416826416368
685000000.0,21.97,0.0,0.0,0.0,0.3299103133053031,0.21837062661060627,9.869939060084091
690000000.0,21.97,0.0,0.0,0.0,0.3396222134024221,0.2438766402072664,9.85905
695000000.0,21.97,0.0,0.0,0.0,0.34335,0.27899645399816453,9.85905
700000000.0,21.97,0.0,0.0,0.0,0.34335,0.28252797280667974,9.86493601359666
705000000.0,21.97,0.0,0.0,0.0,0.32598625891866256,0.26889208630622086,9.880435827387558
710000000.0,21.97,0.0,0.0,0.0,0.33098944137269437,0.23642093104550932,9.88848
715000000.0,21.97,0.0,0.0,0.0,0.3153914305599143,0.2270034277760343,9.871704858335947
720000000.0,21.97,0.0,0.0,0.0,0.3217680699256807,0.2519208419554084,9.85905
725000000.0,21.97,0.0,0.0,0.0,0.3487455140822551,0.25947448591774486,9.85905
730000000.0,21.97,0.0,0.0,0.0,0.3372677574618776,0.24976258582062585,9.864347414179374
735000000.0,21.97,0.0,0.0,0.0,0.32373,0.24525,9.863660685723506
740000000.0,21.97,0.0,0.0,0.0,0.31862878562638786,0.22994635687916357,9.864151214373612
745000000.0,21.97,0.0,0.0,0.0,0.31392,0.23082934341219344,9.86886
750000000.0,21.97,0.0,0.0,0.0,0.32373002913570026,0.25015501456785016,9.86886
755000000.0,21.97,0.0,0.0,0.0,0.3287330853350309,0.26948074399490746,9.854439256005092
760000000.0,21.97,0.0,0.0,0.0,0.3331476295241763,0.2750723704758237,9.844138814762088
765000000.0,21.97,0.0,0.0,0.0,0.32951785542237855,0.25103785542237855,9.84924
770000000.0,21.97,0.0,0.0,0.0,0.31843261495632613,0.23544,9.84924
775000000.0,21.97,0.0,0.0,0.0,0.3413880602137806,0.23102548494655487,9.86689806021378
780000000.0,21.97,0.0,0.0,0.0,0.3457043393977434,0.22131358484943586,9.892796415150563
785000000.0,21.97,0.0,0.0,0.0,0.32373,0.24112989148609892,9.881416739009268
790000000.0,21.97,0.0,0.0,0.0,0.32373,0.27468,9.85905
795000000.0,21.97,0.0,0.0,0.0,0.33177423088384234,0.2626136536742365,9.85905
800000000.0,21.97,0.0,0.0,0.0,0.33942598446095984,0.24132598446095985,9.84727795338288
805000000.0,21.97,0.0,0.0,0.0,0.33354,0.22013633745536337,9.841097746908478
810000000.0,21.97,0.0,0.0,0.0,0.3223565528001655,0.20365563146655632,9.862777815733278
815000000.0,21.97,0.0,0.0,0.0,0.30773971583039716,0.22307943166079433,9.872489715830397
820000000.0,21.97,0.0,0.0,0.0,0.32804646371006463,0.24956646371006463,9.875138384072484
825000000.0,21.97,0.0,0.0,0.0,0.3428594519260945,0.2678129679507297,9.865426483975364
830000000.0,21.97,0.0,0.0,0.0,0.32706541612175416,0.25506,9.865720832243507
835000000.0,21.97,0.0,0.0,0.0,0.33030268378112687,0.2485853675622537,9.86895805134338
840000000.0,21.97,0.0,0.0,0.0,0.3331476489479765,0.23230078368400783,9.855518432631984
845000000.0,21.97,0.0,0.0,0.0,0.3409955343475553,0.22867111641311116,9.86886
850000000.0,21.97,0.0,0.0,0.0,0.3109769834897698,0.23544,9.86591698348977
855000000.0,21.97,0.0,0.0,0.0,0.30979983321469834,0.23544,9.867584749822047
860000000.0,21.97,0.0,0.0,0.0,0.3319704501134045,0.24093363340893634,9.877492733182127
865000000.0,21.97,0.0,0.0,0.0,0.35580871680158715,0.25506,9.851888716801588
870000000.0,21.97,0.0,0.0,0.0,0.347666298607763,0.24995876620258767,9.866701850696119
875000000.0,21.97,0.0,0.0,0.0,0.30656251699582515,0.23298748300417485,9.88357496600835
880000000.0,21.97,0.0,0.0,0.0,0.31862883418588833,0.22798441709294417,9.866505582907056
885000000.0,21.97,0.0,0.0,0.0,0.3357963171900632,0.23769631719006318,9.856793682809936
890000000.0,21.97,0.0,0.0,0.0,0.34766643457436436,0.24740821728718218,9.853556434574365
895000000.0,21.97,0.0,0.0,0.0,0.36090988261569884,0.25506,9.870920117384301
900000000.0,21.97,0.0,0.0,0.0,0.3511979825185798,0.2570220174814202,9.87670798251858
905000000.0,21.97,0.0,0.0,0.0,0.33775824726438247,0.26300608242146084,9.86699608242146
910000000.0,21.97,0.0,0.0,0.0,0.3174516353513163,0.25506,9.864347453026975
915000000.0,21.97,0.0,0.0,0.0,0.3352077177727772,0.25172456445444563,9.885144564454444
920000000.0,21.97,0.0,0.0,0.0,0.33864114639031145,0.23857923573979237,9.867290382130104
925000000.0,21.97,0.0,0.0,0.0,0.31392,0.2521169640659697,9.857578482032984
930000000.0,21.97,0.0,0.0,0.0,0.3180402541924025,0.23544,9.851986836128269
935000000.0,21.97,0.0,0.0,0.0,0.3420746818387468,0.23799063632250636,9.872685954483758
940000000.0,21.97,0.0,0.0,0.0,0.3323627817416278,0.25506,9.893581126966511
945000000.0,21.97,0.0,0.0,0.0,0.3248091183554912,0.2561391183554912,9.861208236710983
950000000.0,21.97,0.0,0.0,0.0,0.33354,0.26290796309477965,9.87768898154739
955000000.0,21.97,0.0,0.0,0.0,0.3317741629005416,0.24260124435081243,9.86709416290054
960000000.0,21.97,0.0,0.0,0.0,0.31392,0.22131373052793732,9.850024818646848
965000000.0,21.97,0.0,0.0,0.0,0.3146067187439672,0.28311656251206563,9.860423437487935
970000000.0,21.97,0.0,0.0,0.0,0.3243186188410862,0.2636927623178276,9.878081381158914
975000000.0,21.97,0.0,0.0,0.0,0.3340305189382052,0.24475948106179482,9.867878962123589
980000000.0,21.97,0.0,0.0,0.0,0.3429575809646758,0.23465516192935162,9.851202095176621
985000000.0,21.97,0.0,0.0,0.0,0.3338343191324432,0.21729159566221598,9.897701361735113
990000000.0,21.97,0.0,0.0,0.0,0.34335,0.2646737807704378,9.878081342311313
995000000.0,21.97,0.0,0.0,0.0,0.34295752269327523,0.25486376134663763,9.84924
1000000000.0,21.97,0.0,0.0,0.0,0.3041100388476004,0.2354400582714006,9.84924
1005000000.0,21.97,0.0,0.0,0.0,0.3235338390418384,0.26457575856275756,9.84924
1010000000.0,21.97,0.0,0.0,0.0,0.31411618038196176,0.2456423607639236,9.858853819618037
1015000000.0,21.97,0.0,0.0,0.0,0.3329514394303144,0.2357342802848428,9.840018560569685
1020000000.0,21.97,0.0,0.0,0.0,0.3241223801877238,0.2448576198122762,9.867682859436828
1025000000.0,21.97,0.0,0.0,0.0,0.32373,0.2266109601812096,9.878179519909395
1030000000.0,21.97,0.0,0.0,0.0,0.3606156800260568,0.2440728400130284,9.87867
1035000000.0,21.97,0.0,0.0,0.0,0.36297,0.2726199603108996,9.887793320103633
1040000000.0,21.97,0.0,0.0,0.0,0.3268691191969912,0.27468,9.84335389899624
1045000000.0,21.97,0.0,0.0,0.0,0.279094398510644,0.2657528797021288,9.857284240595742
1050000000.0,21.97,0.0,0.0,0.0,0.3011670611849706,0.2383829388150294,9.85905
1055000000.0,21.97,0.0,0.0,0.0,0.3128409204921092,0.20924723852367239,9.85905
1060000000.0,21.97,0.0,0.0,0.0,0.32255282058922824,0.2146428205892282,9.876315641178456
1065000000.0,21.97,0.0,0.0,0.0,0.3493341620590416,0.25849360343173605,9.87867
1070000000.0,21.97,0.0,0.0,0.0,0.3700332415669324,0.2733066207834662,9.870233379216533
1075000000.0,21.97,0.0,0.0,0.0,0.35610295823882954,0.27468,9.86886
1080000000.0,21.97,0.0,0.0,0.0,0.34491957902229575,0.24995873706688737,9.852379158044592
1085000000.0,21.97,0.0,0.0,0.0,0.32706535785035357,0.25339232107482323,9.84924
1090000000.0,21.97,0.0,0.0,0.0,0.3317742211719422,0.24701577882805778,9.857284221171943
1095000000.0,21.97,0.0,0.0,0.0,0.3255938787309388,0.2373038787309388,9.851103878730939
1100000000.0,21.97,0.0,0.0,0.0,0.33942604273236043,0.24328802136618022,9.86493604273236
1105000000.0,21.97,0.0,0.0,0.0,0.34335,0.2607498429265984,9.86886
1110000000.0,21.97,0.0,0.0,0.0,0.3586536431208364,0.2801736431208364,9.884163643120836
1115000000.0,21.97,0.0,0.0,0.0,0.34030883502738835,0.27693627834246276,9.865818835027389
1120000000.0,21.97,0.0,0.0,0.0,0.3409956217546562,0.2299462694720627,9.85905
1125000000.0,21.97,0.0,0.0,0.0,0.3212774344446743,0.20846247814822477,9.866407521851775
1130000000.0,21.97,0.0,0.0,0.0,0.3211794219488942,0.24956653169336532,9.86886
1135000000.0,21.97,0.0,0.0,0.0,0.3523752881840529,0.2577086779539868,9.861698677953987
1140000000.0,21.97,0.0,0.0,0.0,0.32765388928433886,0.25506,9.844923555713736
1145000000.0,21.97,0.0,0.0,0.0,0.31392,0.2759553667207537,9.867290488961004
1150000000.0,21.97,0.0,0.0,0.0,0.32765404467474046,0.2501548883131489,9.871802977662629
1155000000.0,21.97,0.0,0.0,0.0,0.33354,0.22190215513102157,9.855322155131022
1160000000.0,21.97,0.0,0.0,0.0,0.3268691774683918,0.2091491774683918,9.869252467594825
1165000000.0,21.97,0.0,0.0,0.0,0.33030272262872723,0.25201905840109057,9.872097277371273
1170000000.0,21.97,0.0,0.0,0.0,0.35296386817753866,0.2487815090966151,9.86886
1175000000.0,21.97,0.0,0.0,0.0,0.36297,0.24181652282296523,9.85610695435407
1180000000.0,21.97,0.0,0.0,0.0,0.36924842292008425,0.25152842292008426,9.855518422920085
1185000000.0,21.97,0.0,0.0,0.0,0.34187838491398387,0.2303387079311871,9.871410646034406
1190000000.0,21.97,0.0,0.0,0.0,0.34197666934296667,0.22798444622864447,9.890834446228643
1195000000.0,21.97,0.0,0.0,0.0,0.32323938394279383,0.24142412321144124,9.880337630365675
1200000000.0,21.97,0.0,0.0,0.0,0.33354011654280113,0.26290806992568067,9.862973976691439
1205000000.0,21.97,0.0,0.0,0.0,0.3357962297829623,0.2804679234056792,9.85905
1210000000.0,21.97,0.0,0.0,0.0,0.31804017649720173,0.27311035299440356,9.853360176497201
1215000000.0,21.97,0.0,0.0,0.0,0.3306951707997517,0.2480948292002483,9.860423447199834
1220000000.0,21.97,0.0,0.0,0.0,0.34335,0.2189591289088913,9.86886
1225000000.0,21.97,0.0,0.0,0.0,0.33795447620584473,0.21680104758831048,9.863464476205845
1230000000.0,21.97,0.0,0.0,0.0,0.33883742389127425,0.24681969556509695,9.874942271673822
1235000000.0,21.97,0.0,0.0,0.0,0.3329513520232135,0.26487,9.878081352023214
1240000000.0,21.97,0.0,0.0,0.0,0.32883122408551224,0.2750724481710245,9.863758775914487
1245000000.0,21.97,0.0,0.0,0.0,0.3385431241826312,0.2594743790868438,9.85905
1250000000.0,21.97,0.0,0.0,0.0,0.32863492716074927,0.23053497572024975,9.85414497572025
1255000000.0,21.97,0.0,0.0,0.0,0.31392,0.23043692437686925,9.85885384875374
1260000000.0,21.97,0.0,0.0,0.0,0.32333764894797645,0.23544,9.878277648947977
1265000000.0,21.97,0.0,0.0,0.0,0.33815072457110723,0.24927217371332175,9.879258550857784
1270000000.0,21.97,0.0,0.0,0.0,0.34335,0.2693826246682262,9.873372624668226
1275000000.0,21.97,0.0,0.0,0.0,0.34335,0.2702654752346547,9.869840950469309
1280000000.0,21.97,0.0,0.0,0.0,0.3347171502750715,0.24760430055014299,9.871999274587392
1285000000.0,21.97,0.0,0.0,0.0,0.31529335008083353,0.22141167504041676,9.880043350080832
1290000000.0,21.97,0.0,0.0,0.0,0.3123504501134045,0.22818067517010676,9.86886
1295000000.0,21.97,0.0,0.0,0.0,0.32775212515382124,0.24525,9.86483787484618
1300000000.0,21.97,0.0,0.0,0.0,0.34531207575282075,0.24525,9.85512597474906
1305000000.0,21.97,0.0,0.0,0.0,0.3553181493038815,0.24525,9.856891850696119
1310000000.0,21.97,0.0,0.0,0.0,0.3358943491096435,0.24897782544517827,9.872587825445178
1315000000.0,21.97,0.0,0.0,0.0,0.33098945108459454,0.2514302744577028,9.87867
1320000000.0,21.97,0.0,0.0,0.0,0.3327551230817512,0.24171837436058374,9.87867
1325000000.0,21.97,0.0,0.0,0.0,0.33108762868267627,0.24230705147307052,9.86493589705386
1330000000.0,21.97,0.0,0.0,0.0,0.35296372249903724,0.25839542583365427,9.852771703334618
1335000000.0,21.97,0.0,0.0,0.0,0.33354,0.25515802220768025,9.865720696276906
1340000000.0,21.97,0.0,0.0,0.0,0.32726154794421547,0.24171845205578454,9.848847678083677
1345000000.0,21.97,0.0,0.0,0.0,0.3108788738749887,0.24289549549995496,9.86886
1350000000.0,21.97,0.0,0.0,0.0,0.30999605244426054,0.22759210488852105,9.862973947555739
1355000000.0,21.97,0.0,0.0,0.0,0.3265749263192493,0.25221507368075075,9.857774778957747
1360000000.0,21.97,0.0,0.0,0.0,0.33354,0.25623730566547304,9.881416826416368
1365000000.0,21.97,0.0,0.0,0.0,0.33354,0.27389509394605094,9.883182546973025
1370000000.0,21.97,0.0,0.0,0.0,0.33354,0.25545250644242506,9.86120812016818
1375000000.0,21.97,0.0,0.0,0.0,0.33354,0.27713241987682424,9.846787580123175
1380000000.0,21.97,0.0,0.0,0.0,0.33118557319515574,0.24564229278062294,9.86886
1385000000.0,21.97,0.0,0.0,0.0,0.31921734619607345,0.21807632690196327,9.866603673098037
1390000000.0,21.97,0.0,0.0,0.0,0.3105846809972468,0.22563,9.861208226999082
1395000000.0,21.97,0.0,0.0,0.0,0.3397203812886038,0.23181038128860382,9.8667998729038
1400000000.0,21.97,0.0,0.0,0.0,0.36100797280667973,0.26094608157996085,9.86101202719332
1405000000.0,21.97,0.0,0.0,0.0,0.34943214541912143,0.27703429083824294,9.866996072709561
1410000000.0,21.97,0.0,0.0,0.0,0.33530582738755826,0.24171834522488345,9.862581654775116
1415000000.0,21.97,0.0,0.0,0.0,0.34168227251532274,0.22396227251532272,9.873666817545967
1420000000.0,21.97,0.0,0.0,0.0,0.33354,0.21895925516359258,9.84924
1425000000.0,21.97,0.0,0.0,0.0,0.33059694464216943,0.23985458303674584,9.858069166073491
1430000000.0,21.97,0.0,0.0,0.0,0.3180402833281028,0.26624342777603427,9.899859433343794
1435000000.0,21.97,0.0,0.0,0.0,0.3382486885073869,0.2734046721268467,9.85306598361946
1440000000.0,21.97,0.0,0.0,0.0,0.3099961398513614,0.26369277202972774,9.876315544059455
1445000000.0,21.97,0.0,0.0,0.0,0.34992261579782613,0.25074348773043487,9.857970871932608
1450000000.0,21.97,0.0,0.0,0.0,0.32373,0.21778205632902056,9.85120205632902
1455000000.0,21.97,0.0,0.0,0.0,0.3246129282616293,0.23455707173837073,9.86886
1460000000.0,21.97,0.0,0.0,0.0,0.33432482835874827,0.22876931343499313,9.86886
1465000000.0,21.97,0.0,0.0,0.0,0.34403672845586725,0.26555672845586725,9.867486543088265
1470000000.0,21.97,0.0,0.0,0.0,0.35257137144701367,0.2740913714470137,9.851594514211945
1475000000.0,21.97,0.0,0.0,0.0,0.3418784140496841,0.2633984140496841,9.886517885399579
1480000000.0,21.97,0.0,0.0,0.0,0.3135275712527757,0.2358324287472243,9.850417286241672
1485000000.0,21.97,0.0,0.0,0.0,0.30499298653302986,0.2455443288443433,9.878375671155656
1490000000.0,21.97,0.0,0.0,0.0,0.33334377105853774,0.25486377105853775,9.868663771058538
1495000000.0,21.97,0.0,0.0,0.0,0.3239262580771626,0.24544625807716258,9.859148129038582
1500000000.0,21.97,0.0,0.0,0.0,0.3433499125928991,0.2648699708642997,9.8688599708643
1505000000.0,21.97,0.0,0.0,0.0,0.3142142123015421,0.2551580707671807,9.85914807076718
1510000000.0,21.97,0.0,0.0,0.0,0.31392,0.26467382932993827,9.85905
1515000000.0,21.97,0.0,0.0,0.0,0.32343572942705734,0.26487,9.849534270572942
1520000000.0,21.97,0.0,0.0,0.0,0.32373,0.2460347409516474,9.868075259048352
1525000000.0,21.97,0.0,0.0,0.0,0.32373,0.24525,9.85022094075741
1530000000.0,21.97,0.0,0.0,0.0,0.32373,0.2544714297184143,9.876904289155242
1535000000.0,21.97,0.0,0.0,0.0,0.32373,0.2733066596310666,9.860423340368934
1540000000.0,21.97,0.0,0.0,0.0,0.3598309196506092,0.23857908034939082,9.850024770087348
1545000000.0,21.97,0.0,0.0,0.0,0.35404286999022866,0.24436713000977128,9.858167130009772
1550000000.0,21.97,0.0,0.0,0.0,0.3266729096793291,0.24525,9.85905
1555000000.0,21.97,0.0,0.0,0.0,0.3324609302040093,0.22778813959198138,9.893973720816037
1560000000.0,21.97,0.0,0.0,0.0,0.31627433939774335,0.2428956606022566,9.84649301819323
1565000000.0,21.97,0.0,0.0,0.0,0.3224547303982473,0.2708541911947419,9.847964730398248
1570000000.0,21.97,0.0,0.0,0.0,0.3490398914860989,0.25780673900926737,9.866113260990732
1575000000.0,21.97,0.0,0.0,0.0,0.35316,0.2467214694075147,9.86886
1580000000.0,21.97,0.0,0.0,0.0,0.32843870793118707,0.24525,9.877100430689604
1585000000.0,21.97,0.0,0.0,0.0,0.3155876692132767,0.2533923307867233,9.87867
1590000000.0,21.97,0.0,0.0,0.0,0.3219642308838423,0.2470157691161577,9.87867
1595000000.0,21.97,0.0,0.0,0.0,0.32373,0.25319613098096133,9.854831607057116
1600000000.0,21.97,0.0,0.0,0.0,0.32373,0.23936393784383939,9.85708803107808
1605000000.0,21.97,0.0,0.0,0.0,0.3392298623503986,0.2276900688248007,9.8435501376496
1610000000.0,21.97,0.0,0.0,0.0,0.35100183127231827,0.25623732508927327,9.847081831272318
1615000000.0,21.97,0.0,0.0,0.0,0.3380525372611254,0.2573162686305627,9.864347462738875
1620000000.0,21.97,0.0,0.0,0.0,0.31117310560033107,0.24014873706688739,9.86886
1625000000.0,21.97,0.0,0.0,0.0,0.30411,0.25015506312735064,9.854144936872649
1630000000.0,21.97,0.0,0.0,0.0,0.31862886332158863,0.2478005683392057,9.86375886332159
1635000000.0,21.97,0.0,0.0,0.0,0.3308913317579133,0.2380886682420867,9.854537336484173
1640000000.0,21.97,0.0,0.0,0.0,0.3264767681449677,0.25662969556509696,9.884556159275162
1645000000.0,21.97,0.0,0.0,0.0,0.34462539585645396,0.26487,9.877394604143547
1650000000.0,21.97,0.0,0.0,0.0,0.3119578077043781,0.25113593590145933,9.88259406409854
1655000000.0,21.97,0.0,0.0,0.0,0.3213757285855573,0.26555679643916796,9.861404271414443
1660000000.0,21.97,0.0,0.0,0.0,0.32686916775649166,0.2813508322435083,9.84924
1665000000.0,21.97,0.0,0.0,0.0,0.3171572676593727,0.25162633829686337,9.84924
1670000000.0,21.97,0.0,0.0,0.0,0.3268692648754926,0.23544,9.855714632437746
1675000000.0,21.97,0.0,0.0,0.0,0.3399165325348653,0.24819306506973066,9.85905
1680000000.0,21.97,0.0,0.0,0.0,0.34335,0.24878156736801568,9.865328432631983
1685000000.0,21.97,0.0,0.0,0.0,0.34335,0.26379099818730994,9.881220665458207
1690000000.0,21.97,0.0,0.0,0.0,0.35551446565244466,0.25643330152133303,9.88848
1695000000.0,21.97,0.0,0.0,0.0,0.34501760122997605,0.24525,9.876511734153317
1700000000.0,21.97,0.0,0.0,0.0,0.33354,0.23936396697953968,9.857087933959079
1705000000.0,21.97,0.0,0.0,0.0,0.3393279331175793,0.22386413376484135,9.860815866235159
1710000000.0,21.97,0.0,0.0,0.0,0.33766016678530164,0.23857933285879335,9.863170166785302
1715000000.0,21.97,0.0,0.0,0.0,0.33354,0.271835199935452,9.875825199935452
1720000000.0,21.97,0.0,0.0,0.0,0.3225527331821273,0.268009099773191,9.866505466364254
1725000000.0,21.97,0.0,0.0,0.0,0.32471106701211067,0.2604555335060553,9.86003106701211
1730000000.0,21.97,0.0,0.0,0.0,0.3282425663968257,0.2595725663968257,9.874157433603173
1735000000.0,21.97,0.0,0.0,0.0,0.32373,0.23946199889911998,9.873470666299706
1740000000.0,21.97,0.0,0.0,0.0,0.32883123379741236,0.23073123379741234,9.86886
1745000000.0,21.97,0.0,0.0,0.0,0.3235337322109373,0.25044940168359403,9.878866267789062
1750000000.0,21.97,0.0,0.0,0.0,0.31882503399165035,0.26487,9.88357496600835
1755000000.0,21.97,0.0,0.0,0.0,0.32373,0.2600630659112307,9.869056131822461
1760000000.0,21.97,0.0,0.0,0.0,0.31902116581411166,0.24564233162822333,9.854341165814112
1765000000.0,21.97,0.0,0.0,0.0,0.3185307342830073,0.24005073428300736,9.858461468566015
1770000000.0,21.97,0.0,0.0,0.0,0.3192173656198736,0.2542752687602527,9.873372634380127
1775000000.0,21.97,0.0,0.0,0.0,0.3227490689544907,0.2560409310455093,9.87867
1780000000.0,21.97,0.0,0.0,0.0,0.3378564345743643,0.2625157382974574,9.870037130851271
1785000000.0,21.97,0.0,0.0,0.0,0.33913166532851663,0.2760533306570333,9.863268334671483
1790000000.0,21.97,0.0,0.0,0.0,0.33766023476860235,0.26074976523139765,9.860619530462795
1795000000.0,21.97,0.0,0.0,0.0,0.3353057302685573,0.2470157302685573,9.857284269731442
1800000000.0,21.97,0.0,0.0,0.0,0.311957895111479,0.24328806992568072,9.87278403496284
1805000000.0,21.97,0.0,0.0,0.0,0.3019518701199187,0.24740812988008132,9.871018129880081
1810000000.0,21.97,0.0,0.0,0.0,0.325103505471235,0.24662350547123507,9.862777835157079
1815000000.0,21.97,0.0,0.0,0.0,0.34697973525419734,0.26487,9.872489735254197
1820000000.0,21.97,0.0,0.0,0.0,0.3460967292973673,0.26487,9.875138364648683
1825000000.0,21.97,0.0,0.0,0.0,0.33354,0.26143646455156466,9.86199292910313
1830000000.0,21.97,0.0,0.0,0.0,0.33354,0.2483891289088913,9.859246306636663
1835000000.0,21.97,0.0,0.0,0.0,0.32706532871465327,0.23544,9.86895799307198
1840000000.0,21.97,0.0,0.0,0.0,0.3201984714795847,0.24485770721937708,9.858657707219377
1845000000.0,21.97,0.0,0.0,0.0,0.33049886416308866,0.2557465924892659,9.87867
1850000000.0,21.97,0.0,0.0,0.0,0.32667303593403035,0.24426910780209107,9.88455607186806
1855000000.0,21.97,0.0,0.0,0.0,0.3306950639688506,0.2563351919065519,9.892600127937701
1860000000.0,21.97,0.0,0.0,0.0,0.3182363277434633,0.23269316387173164,9.87592316387173
1865000000.0,21.97,0.0,0.0,0.0,0.3094074724507747,0.23622494490154944,9.866211263774613
1870000000.0,21.97,0.0,0.0,0.0,0.32628063632250637,0.26487,9.866701908967519
1875000000.0,21.97,0.0,0.0,0.0,0.33599253641962534,0.2575123907411239,9.886027463580374
1880000000.0,21.97,0.0,0.0,0.0,0.34335,0.24014887303348875,9.876315563483255
1885000000.0,21.97,0.0,0.0,0.0,0.33883732677227324,0.25280366338613663,9.866603663386137
1890000000.0,21.97,0.0,0.0,0.0,0.32373,0.24525,9.85905
1895000000.0,21.97,0.0,0.0,0.0,0.32373,0.24937027361620273,9.861110136808101
1900000000.0,21.97,0.0,0.0,0.0,0.32765407381044076,0.2570218523791185,9.87278407381044
1905000000.0,21.97,0.0,0.0,0.0,0.3414860629976606,0.22749393700233936,9.88288818899298
1910000000.0,21.97,0.0,0.0,0.0,0.33000832580108325,0.23897167419891674,9.864347511298375
1915000000.0,21.97,0.0,0.0,0.0,0.31558773719657734,0.2517245256068453,9.885144525606846
1920000000.0,21.97,0.0,0.0,0.0,0.32373,0.23700963729369637,9.86886
1925000000.0,21.97,0.0,0.0,0.0,0.3281446121724461,0.2393638504367385,9.86886
1930000000.0,21.97,0.0,0.0,0.0,0.35041312502413124,0.21150374995173749,9.86886
1935000000.0,21.97,0.0,0.0,0.0,0.3322646624149466,0.24652533758505338,9.871410675170106
1940000000.0,21.97,0.0,0.0,0.0,0.32373,0.25506,9.884948286953483
1945000000.0,21.97,0.0,0.0,0.0,0.3291256888964569,0.25506,9.857970862220709
1950000000.0,21.97,0.0,0.0,0.0,0.3668937727415377,0.2540789621235896,9.85022103787641
1955000000.0,21.97,0.0,0.0,0.0,0.3130370620264706,0.24436706202647063,9.85905
1960000000.0,21.97,0.0,0.0,0.0,0.30567967614129676,0.23700967614129678,9.859834838070649
1965000000.0,21.97,0.0,0.0,0.0,0.32510347633553477,0.25368652366446526,9.869546738167767
1970000000.0,21.97,0.0,0.0,0.0,0.3421727234702272,0.23720591479465916,9.879847276529773
1975000000.0,21.97,0.0,0.0,0.0,0.32422053836200543,0.26634161508601617,9.896818384913983
1980000000.0,21.97,0.0,0.0,0.0,0.33354,0.29351512308175126,9.869252438459124
1985000000.0,21.97,0.0,0.0,0.0,0.3329513228875132,0.27320830721878303,9.87778698433127
1990000000.0,21.97,0.0,0.0,0.0,0.31392,0.2252375226932752,9.84924
1995000000.0,21.97,0.0,0.0,0.0,0.31401813875048135,0.20650069375240693,9.849436277500963
2000000000.0,21.97,0.0,0.0,0.0,0.32373,0.2550599611523996,9.8688600388476
2005000000.0,21.97,0.0,0.0,0.0,0.32373,0.24534806105528062,9.878571938944718
2010000000.0,21.97,0.0,0.0,0.0,0.3333438390418384,0.2837053561673536,9.888283839041838
2015000000.0,21.97,0.0,0.0,0.0,0.33354,0.26545852172208523,9.850417043444171
2020000000.0,21.97,0.0,0.0,0.0,0.3147047215278472,0.24603472152784722,9.830404721527847
2025000000.0,21.97,0.0,0.0,0.0,0.3325590786663908,0.22661092133360922,9.838939539333195
2030000000.0,21.97,0.0,0.0,0.0,0.33354,0.2348514394303144,9.894758636581885
2035000000.0,21.97,0.0,0.0,0.0,0.33354,0.23544,9.852673302362833
2040000000.0,21.97,0.0,0.0,0.0,0.32451476037544763,0.2715409584982096,9.84924
2045000000.0,21.97,0.0,0.0,0.0,0.3415842794433428,0.2568257205566572,9.85816713972167
2050000000.0,21.97,0.0,0.0,0.0,0.3521790398187904,0.2638890398187904,9.87670807963758
2055000000.0,21.97,0.0,0.0,0.0,0.32696718025227184,0.2386771802522718,9.869939060084091
2060000000.0,21.97,0.0,0.0,0.0,0.3150971599869716,0.2440728400130284,9.86886
2065000000.0,21.97,0.0,0.0,0.0,0.3224547401101474,0.2281805197797052,9.860325259889853
2070000000.0,21.97,0.0,0.0,0.0,0.3406032804145328,0.2762498412435984,9.875923280414533
2075000000.0,21.97,0.0,0.0,0.0,0.3516885403043854,0.2678129193912292,9.853654379086844
2080000000.0,21.97,0.0,0.0,0.0,0.3449195595984956,0.26487,9.873961321204513
2085000000.0,21.97,0.0,0.0,0.0,0.3352076595013766,0.23230063800550638,9.870527659501377
2090000000.0,21.97,0.0,0.0,0.0,0.3174515188085152,0.22563,9.86886
2095000000.0,21.97,0.0,0.0,0.0,0.3377584220785842,0.23357614069286142,9.87680614069286
2100000000.0,21.97,0.0,0.0,0.0,0.3276539184200392,0.2432880407899804,9.87082195921002
2105000000.0,21.97,0.0,0.0,0.0,0.3314799408870994,0.26074988177419883,9.876609940887098
2110000000.0,21.97,0.0,0.0,0.0,0.3411918409842184,0.26487,9.886321840984218
2115000000.0,21.97,0.0,0.0,0.0,0.32824251783732517,0.2422087767559878,9.865818776755988
2120000000.0,21.97,0.0,0.0,0.0,0.3311856411784564,0.2428956411784564,9.881416923535369
2125000000.0,21.97,0.0,0.0,0.0,0.3261824587244246,0.2378924587244246,9.866407376173273
2130000000.0,21.97,0.0,0.0,0.0,0.34550832411808324,0.24269944137269442,9.866309441372694
2135000000.0,21.97,0.0,0.0,0.0,0.35316,0.2524113414698134,9.876021341469814
2140000000.0,21.97,0.0,0.0,0.0,0.3460967584330676,0.2621232415669324,9.857480275299203
2145000000.0,21.97,0.0,0.0,0.0,0.3294197166718972,0.26487,9.856205141664052
2150000000.0,21.97,0.0,0.0,0.0,0.33059704176117044,0.24426887471648875,9.85905
2155000000.0,21.97,0.0,0.0,0.0,0.3403089418582894,0.24897788371657883,9.86581894185829
2160000000.0,21.97,0.0,0.0,0.0,0.3300083160891832,0.24171831608918318,9.862189158044592
2165000000.0,21.97,0.0,0.0,0.0,0.33687548410505486,0.2288672579474726,9.85905
2170000000.0,21.97,0.0,0.0,0.0,0.34335,0.23210464214964643,9.878473926448939
2175000000.0,21.97,0.0,0.0,0.0,0.3497265422467654,0.2418165422467654,9.875726915506469
2180000000.0,21.97,0.0,0.0,0.0,0.3343246729683467,0.26408532703165327,9.875138442343884
2185000000.0,21.97,0.0,0.0,0.0,0.31754965755899656,0.2684996575589966,9.87867
2190000000.0,21.97,0.0,0.0,0.0,0.3321667276143673,0.2405410298475103,9.872587757461877
2195000000.0,21.97,0.0,0.0,0.0,0.3134292868237929,0.23161414263524144,9.86886
2200000000.0,21.97,0.0,0.0,0.0,0.30607208546472087,0.24721208546472087,9.85120187180292
2205000000.0,21.97,0.0,0.0,0.0,0.3254958856589589,0.25506,9.83364205717052
2210000000.0,21.97,0.0,0.0,0.0,0.3449196858531968,0.25506,9.846689528779795
2215000000.0,21.97,0.0,0.0,0.0,0.3475682569762826,0.24387651395256515,9.875825229071152
2220000000.0,21.97,0.0,0.0,0.0,0.3268690706374907,0.23544,9.871999070637491
2225000000.0,21.97,0.0,0.0,0.0,0.3193155432179554,0.2570221728718217,9.886027716089776
2230000000.0,21.97,0.0,0.0,0.0,0.31843255668492554,0.27468,9.892207670054777
2235000000.0,21.97,0.0,0.0,0.0,0.3295180302365803,0.27468,9.86307196976342
2240000000.0,21.97,0.0,0.0,0.0,0.32804626947206267,0.2440725389441254,9.859442487018624
2245000000.0,21.97,0.0,0.0,0.0,0.3189231436064314,0.21582,9.873863143606432
2250000000.0,21.97,0.0,0.0,0.0,0.3188249562964496,0.2256300874071009,9.863954868889348
2255000000.0,21.97,0.0,0.0,0.0,0.31872694380066946,0.23063305619933056,9.858853887601338
2260000000.0,21.97,0.0,0.0,0.0,0.3425653755911538,0.2491742194889422,9.864151156102212
2265000000.0,21.97,0.0,0.0,0.0,0.35374851201018515,0.2700692560050926,9.863660743994908
2270000000.0,21.97,0.0,0.0,0.0,0.34335,0.26487,9.86886
2275000000.0,21.97,0.0,0.0,0.0,0.33893545581085455,0.24279727905427279,9.86886
2280000000.0,21.97,0.0,0.0,0.0,0.33354,0.21150355571373555,9.873176444286264
2285000000.0,21.97,0.0,0.0,0.0,0.3377583443833834,0.21866503315015035,9.882888344383383
2290000000.0,21.97,0.0,0.0,0.0,0.3351095110389951,0.2436804889610049,9.880239511038996
2295000000.0,21.97,0.0,0.0,0.0,0.32373,0.25908214457762146,9.864837855422378
2300000000.0,21.97,0.0,0.0,0.0,0.32373,0.26879404467474044,9.870822134024221
2305000000.0,21.97,0.0,0.0,0.0,0.3313818895437189,0.2632021656844216,9.877002165684422
2310000000.0,21.97,0.0,0.0,0.0,0.3358943102620431,0.2303386205240862,9.855322155131022
2315000000.0,21.97,0.0,0.0,0.0,0.3273597449660975,0.22415872483048727,9.845610255033902
2320000000.0,21.97,0.0,0.0,0.0,0.33000835493678354,0.25506,9.846493290126434
2325000000.0,21.97,0.0,0.0,0.0,0.32716354516033547,0.2481929096793291,9.862483545160336
2330000000.0,21.97,0.0,0.0,0.0,0.33354,0.24544633577236336,9.87553089051491
2335000000.0,21.97,0.0,0.0,0.0,0.3303026546454266,0.2583953092908531,9.882005309290852
2340000000.0,21.97,0.0,0.0,0.0,0.32373,0.24525,9.871999245451692
2345000000.0,21.97,0.0,0.0,0.0,0.32981229109762294,0.23612656335356563,9.872587708902376
2350000000.0,21.97,0.0,0.0,0.0,0.34040695435406954,0.22759218258372182,9.86199304564593
2355000000.0,21.97,0.0,0.0,0.0,0.32785010851390106,0.25221505425695057,9.87170494574305
2360000000.0,21.97,0.0,0.0,0.0,0.3194136916803369,0.2507436916803369,9.87867
2365000000.0,21.97,0.0,0.0,0.0,0.33354,0.26487,9.86807501625085
2370000000.0,21.97,0.0,0.0,0.0,0.33609064603440647,0.2546674158623742,9.841980646034406
2375000000.0,21.97,0.0,0.0,0.0,0.34335,0.2305350922630509,9.84924
2380000000.0,21.97,0.0,0.0,0.0,0.34099555377135554,0.24289555377135555,9.861012231143222
2385000000.0,21.97,0.0,0.0,0.0,0.33579634632576344,0.23995269265152694,9.893777307348472
2390000000.0,21.97,0.0,0.0,0.0,0.3411917535771175,0.2572182464228825,9.87867
2395000000.0,21.97,0.0,0.0,0.0,0.32941970695999706,0.26487,9.87867
2400000000.0,21.97,0.0,0.0,0.0,0.31588204661712044,0.26683204661712046,9.87670795338288
2405000000.0,21.97,0.0,0.0,0.0,0.327457893428479,0.27281605328576053,9.863268159857281
2410000000.0,21.97,0.0,0.0,0.0,0.34335,0.2595724595659246,9.841195846811358
2415000000.0,21.97,0.0,0.0,0.0,0.3416822530915225,0.23544,9.854243240725433
2420000000.0,21.97,0.0,0.0,0.0,0.3351096470055965,0.23544,9.881809294011193
2425000000.0,21.97,0.0,0.0,0.0,0.34040690579456906,0.23985464130814643,9.896818452897284
2430000000.0,21.97,0.0,0.0,0.0,0.32510344719983447,0.26624344719983445,9.88573310560033
2435000000.0,21.97,0.0,0.0,0.0,0.32971395810913956,0.27468,9.866309305406093
2440000000.0,21.97,0.0,0.0,0.0,0.3052872473940725,0.27232550521185506,9.852771742182217
2445000000.0,21.97,0.0,0.0,0.0,0.31607829498238293,0.25290170501761705,9.877590852508808
2450000000.0,21.97,0.0,0.0,0.0,0.33157790482337907,0.23642104758831048,9.86787895241169
2455000000.0,21.97,0.0,0.0,0.0,0.31392,0.24701589537085894,9.861698843056288
2460000000.0,21.97,0.0,0.0,0.0,0.3170593911301939,0.26330030443490304,9.88848
2465000000.0,21.97,0.0,0.0,0.0,0.3524732521203325,0.2479969915186699,9.887106504240665
2470000000.0,21.97,0.0,0.0,0.0,0.3427613520232135,0.2821354080928541,9.86886
2475000000.0,21.97,0.0,0.0,0.0,0.33304945192609453,0.24672164422171644,9.867388355778283
2480000000.0,21.97,0.0,0.0,0.0,0.32333755182897556,0.2731102073159021,9.840607344513074
2485000000.0,21.97,0.0,0.0,0.0,0.31392,0.2357343482681435,9.868565651731856
2490000000.0,21.97,0.0,0.0,0.0,0.3147049934610499,0.24485750326947503,9.858461254904212
2495000000.0,21.97,0.0,0.0,0.0,0.3528655546128555,0.22582629692476297,9.830012593849526
2500000000.0,21.97,0.0,0.0,0.0,0.3237301456785015,0.24525004855950047,9.86886
2505000000.0,21.97,0.0,0.0,0.0,0.3528658459698584,0.2549619486566195,9.86886
2510000000.0,21.97,0.0,0.0,0.0,0.35316,0.22621845373878452,9.849632302492523
2515000000.0,21.97,0.0,0.0,0.0,0.32461275344742757,0.25417724655257246,9.877787246552572
2520000000.0,21.97,0.0,0.0,0.0,0.28605940420809406,0.2456423510520235,9.869252351052022
2525000000.0,21.97,0.0,0.0,0.0,0.28449,0.24525,9.840901352864714
2530000000.0,21.97,0.0,0.0,0.0,0.321375796568858,0.2360285508577855,9.848651449142215
2535000000.0,21.97,0.0,0.0,0.0,0.32373,0.2263166507606665,9.858363349239333
2540000000.0,21.97,0.0,0.0,0.0,0.35080574800935743,0.23465524933645251,9.85905
2545000000.0,21.97,0.0,0.0,0.0,0.35316,0.23544,9.876904298867142
2550000000.0,21.97,0.0,0.0,0.0,0.35316,0.2619271485920715,9.87867
2555000000.0,21.97,0.0,0.0,0.0,0.3444290503721905,0.247408100744381,9.861208100744381
2560000000.0,21.97,0.0,0.0,0.0,0.3347171502750715,0.262515699449857,9.841784300550144
2565000000.0,21.97,0.0,0.0,0.0,0.31647050035590496,0.247800500355905,9.865034249466142
2570000000.0,21.97,0.0,0.0,0.0,0.3054833500808335,0.21994005024250052,9.860423350080833
2575000000.0,21.97,0.0,0.0,0.0,0.31244855001628546,0.232497100032571,9.87572710003257
2580000000.0,21.97,0.0,0.0,0.0,0.31392,0.2601613503402135,9.886910450113405
2585000000.0,21.97,0.0,0.0,0.0,0.3383470506315705,0.2404429493684295,9.847768248947382
2590000000.0,21.97,0.0,0.0,0.0,0.34335,0.2434842503076425,9.847474250307643
2595000000.0,21.97,0.0,0.0,0.0,0.34335,0.2531961504047615,9.881024601619046
2600000000.0,21.97,0.0,0.0,0.0,0.34335,0.2472119494981195,9.857087797992477
2605000000.0,21.97,0.0,0.0,0.0,0.3046002470050025,0.2529999505989995,9.872489851796999
2610000000.0,21.97,0.0,0.0,0.0,0.309603701392237,0.2627118506961185,9.886321850696119
2615000000.0,21.97,0.0,0.0,0.0,0.298812498413525,0.249762498413525,9.880926249206762
2620000000.0,21.97,0.0,0.0,0.0,0.324122603561426,0.24525,9.886125650890357
2625000000.0,21.97,0.0,0.0,0.0,0.33354,0.24525,9.87376489802505
2630000000.0,21.97,0.0,0.0,0.0,0.34079945108459453,0.21621219566162195,9.883378902169188
2635000000.0,21.97,0.0,0.0,0.0,0.32186594645485944,0.24181675590856758,9.866995946454859
2640000000.0,21.97,0.0,0.0,0.0,0.30685674872116747,0.25506,9.873176502557664
2645000000.0,21.97,0.0,0.0,0.0,0.331970605503806,0.2620251513759515,9.857774545872145
2650000000.0,21.97,0.0,0.0,0.0,0.3364829485269295,0.26487,9.84237294852693
2655000000.0,21.97,0.0,0.0,0.0,0.3267710484298105,0.251332096859621,9.85296790314038
2660000000.0,21.97,0.0,0.0,0.0,0.32373,0.24525,9.85905
2665000000.0,21.97,0.0,0.0,0.0,0.31715724823557245,0.22553174470671744,9.85905
2670000000.0,21.97,0.0,0.0,0.0,0.31392,0.21582,9.871999303723094
2675000000.0,21.97,0.0,0.0,0.0,0.33942620783466204,0.26683241566932414,9.859540344124003
2680000000.0,21.97,0.0,0.0,0.0,0.34688154794421544,0.2880215479442155,9.868075356167353
2685000000.0,21.97,0.0,0.0,0.0,0.34335,0.2783096478470965,9.866309295694192
2690000000.0,21.97,0.0,0.0,0.0,0.3251032432499324,0.2442687387498874,9.846885495499954
2695000000.0,21.97,0.0,0.0,0.0,0.31392,0.22563,9.863366609388565
2700000000.0,21.97,0.0,0.0,0.0,0.3198060524442605,0.24328815733278158,9.861011842667219
2705000000.0,21.97,0.0,0.0,0.0,0.3410938576241386,0.23769614237586142,9.866603857624138
2710000000.0,21.97,0.0,0.0,0.0,0.35316,0.25407926319249263,9.861600442084503
2715000000.0,21.97,0.0,0.0,0.0,0.34197649452876494,0.26349649452876495,9.866015258206852
2720000000.0,21.97,0.0,0.0,0.0,0.32255269433452693,0.2715409584982096,9.873176347167263
2725000000.0,21.97,0.0,0.0,0.0,0.324711105859711,0.2575122353507224,9.874255552929855
2730000000.0,21.97,0.0,0.0,0.0,0.3229450939460509,0.24603490605394907,9.857480187892103
2735000000.0,21.97,0.0,0.0,0.0,0.32431870624818704,0.23946194062771942,9.83943
2740000000.0,21.97,0.0,0.0,0.0,0.33354,0.24603501288485013,9.83943
2745000000.0,21.97,0.0,0.0,0.0,0.3385431533183315,0.2698731533183315,9.849436306636663
2750000000.0,21.97,0.0,0.0,0.0,0.3482550534154505,0.2648698931690989,9.873765160246352
2755000000.0,21.97,0.0,0.0,0.0,0.33393218594972185,0.25986695351256955,9.874059139462291
2760000000.0,21.97,0.0,0.0,0.0,0.3045022927806229,0.2554522927806229,9.863758853609689
2765000000.0,21.97,0.0,0.0,0.0,0.30813226112042263,0.24986075370680755,9.864249246293193
2770000000.0,21.97,0.0,0.0,0.0,0.32373,0.2595726538039265,9.854537346196073
2775000000.0,21.97,0.0,0.0,0.0,0.32373,0.26045544609895444,9.84924
2780000000.0,21.97,0.0,0.0,0.0,0.33236290799632906,0.2421106380055064,9.84924
2785000000.0,21.97,0.0,0.0,0.0,0.3475683540952835,0.22984835409528354,9.86189506228585
2790000000.0,21.97,0.0,0.0,0.0,0.35316,0.2436805083848051,9.87867
2795000000.0,21.97,0.0,0.0,0.0,0.34913784571047846,0.2590821542895215,9.890736462868563
2800000000.0,21.97,0.0,0.0,0.0,0.34727405438664055,0.2570218912267189,9.904175945613359
2805000000.0,21.97,0.0,0.0,0.0,0.33403022758120227,0.24907595448375955,9.875334273097442
2810000000.0,21.97,0.0,0.0,0.0,0.30411,0.2625157091617571,9.846885709161757
2815000000.0,21.97,0.0,0.0,0.0,0.3113695093559951,0.2674204906440049,9.862679754677997
2820000000.0,21.97,0.0,0.0,0.0,0.32373,0.25152834522488343,9.865328345224883
2825000000.0,21.97,0.0,0.0,0.0,0.3271635548722356,0.24181644512776446,9.855616445127765
2830000000.0,21.97,0.0,0.0,0.0,0.33687545496935456,0.23877545496935457,9.869252729816127
2835000000.0,21.97,0.0,0.0,0.0,0.3368752898670529,0.2517247101329471,9.895150579734105
2840000000.0,21.97,0.0,0.0,0.0,0.3205907448364074,0.26487,9.86886
2845000000.0,21.97,0.0,0.0,0.0,0.31087884473928845,0.26487,9.862777689478577
2850000000.0,21.97,0.0,0.0,0.0,0.30411,0.26487,9.855126110715661
2855000000.0,21.97,0.0,0.0,0.0,0.3126448663648487,0.2563351336351513,9.8631700890901
2860000000.0,21.97,0.0,0.0,0.0,0.33628685555206855,0.2299462888958629,9.851986855552068
2865000000.0,21.97,0.0,0.0,0.0,0.35129626694756266,0.21582,9.85905
2870000000.0,21.97,0.0,0.0,0.0,0.37022934425369347,0.2336745902241459,9.864151311492613
2875000000.0,21.97,0.0,0.0,0.0,0.36297,0.28449,9.868859776626298
2880000000.0,21.97,0.0,0.0,0.0,0.3582610881189109,0.2797810881189109,9.848847823762178
2885000000.0,21.97,0.0,0.0,0.0,0.3343245758493458,0.25810093188700933,9.871900931887009
2890000000.0,21.97,0.0,0.0,0.0,0.30411,0.23328174386521744,9.853556512269565
2895000000.0,21.97,0.0,0.0,0.0,0.3061701562319015,0.22563,9.866799843768097
2900000000.0,21.97,0.0,0.0,0.0,0.3119579436709794,0.22759205632902058,9.85905
2905000000.0,21.97,0.0,0.0,0.0,0.31342978213069783,0.2410318692784187,9.855322087147721
2910000000.0,21.97,0.0,0.0,0.0,0.35492585652325853,0.26663585652325855,9.85179099566281
2915000000.0,21.97,0.0,0.0,0.0,0.35963448675924486,0.26800897351848973,9.90142897351849
2920000000.0,21.97,0.0,0.0,0.0,0.34335,0.23700965671749658,9.86886
2925000000.0,21.97,0.0,0.0,0.0,0.34482155681461557,0.24377844318538444,9.867388443185384
2930000000.0,21.97,0.0,0.0,0.0,0.34354580161785797,0.23818691382346915,9.857676543088266
2935000000.0,21.97,0.0,0.0,0.0,0.29469285607082857,0.2588860710265607,9.851790714017707
2940000000.0,21.97,0.0,0.0,0.0,0.35708371447013715,0.28449,9.862973714470137
2945000000.0,21.97,0.0,0.0,0.0,0.3160783144061831,0.2812525283907253,9.823047471609275
2950000000.0,21.97,0.0,0.0,0.0,0.33354,0.25015471349894713,9.852183171900633
2955000000.0,21.97,0.0,0.0,0.0,0.33530591479465915,0.21042478698664788,9.87867
2960000000.0,21.97,0.0,0.0,0.0,0.35159028501110284,0.25506,9.87867
2965000000.0,21.97,0.0,0.0,0.0,0.33766054554940544,0.2564335151831352,9.875236212042163
2970000000.0,21.97,0.0,0.0,0.0,0.3924,0.2740913423113134,9.830797315377373
2975000000.0,21.97,0.0,0.0,0.0,0.38945665328516654,0.26487,9.849730557785806
2980000000.0,21.97,0.0,0.0,0.0,0.3331475421170754,0.2633001684683017,9.85905
2985000000.0,21.97,0.0,0.0,0.0,0.3231412840399129,0.22504128403991283,9.859638715960086
2990000000.0,21.97,0.0,0.0,0.0,0.3050912903858129,0.20601,9.878277483845675
2995000000.0,21.97,0.0,0.0,0.0,0.35306184182571837,0.20669710721997106,9.859442632697126
3000000000.0,21.97,0.0,0.0,0.0,0.3433498834571988,0.2746799417285994,9.8982899417286
3005000000.0,21.97,0.0,0.0,0.0,0.32392608326296085,0.2649680416314804,9.88857804163148
3010000000.0,21.97,0.0,0.0,0.0,0.34295771693127713,0.28409771693127717,9.830796849206168
3015000000.0,21.97,0.0,0.0,0.0,0.34335,0.2654584828744848,9.86768303425103
3020000000.0,21.97,0.0,0.0,0.0,0.32451468268024686,0.22719936536049365,9.850024682680246
3025000000.0,21.97,0.0,0.0,0.0,0.3330495587569956,0.21631044124300441,9.867879117513992
3030000000.0,21.97,0.0,0.0,0.0,0.3612043765623438,0.24348437656234376,9.859638541145886
3035000000.0,21.97,0.0,0.0,0.0,0.34472328209753283,0.2634967179024672,9.8864200768537
3040000000.0,21.97,0.0,0.0,0.0,0.33432474095164744,0.2829205180967052,9.88848
3045000000.0,21.97,0.0,0.0,0.0,0.33354,0.25770852256358523,9.870625681709056
3050000000.0,21.97,0.0,0.0,0.0,0.33354,0.25506,9.87768905924259
3055000000.0,21.97,0.0,0.0,0.0,0.33354,0.23759808132058083,9.87867
3060000000.0,21.97,0.0,0.0,0.0,0.32490714056317144,0.2613385783104858,9.852771421689514
3065000000.0,21.97,0.0,0.0,0.0,0.32373,0.22219620233026205,9.84924
3070000000.0,21.97,0.0,0.0,0.0,0.32373,0.2411299788931998,9.857676659631066
3075000000.0,21.97,0.0,0.0,0.0,0.3320685597281856,0.2285728805436288,9.875727119456371
3080000000.0,21.97,0.0,0.0,0.0,0.3417804598253046,0.2585918393012184,9.886910459825303
3085000000.0,21.97,0.0,0.0,0.0,0.3352076400775764,0.2567276400775764,9.880337640077576
3090000000.0,21.97,0.0,0.0,0.0,0.33354,0.25506,9.862581479960914
3095000000.0,21.97,0.0,0.0,0.0,0.3176476797666768,0.2788984803499848,9.85905
3100000000.0,21.97,0.0,0.0,0.0,0.3060719397862194,0.2530977591448776,9.86689806021378
3105000000.0,21.97,0.0,0.0,0.0,0.3273598809326988,0.2607499206217992,9.8611100396891
3110000000.0,21.97,0.0,0.0,0.0,0.3488437208160372,0.2419144187759442,9.866701860408018
3115000000.0,21.97,0.0,0.0,0.0,0.3607137605051376,0.2278862394948624,9.883967521010275
3120000000.0,21.97,0.0,0.0,0.0,0.3406030181932302,0.2330856606022566,9.881024339397744
3125000000.0,21.97,0.0,0.0,0.0,0.33354,0.2427975606993756,9.871312439300624
3130000000.0,21.97,0.0,0.0,0.0,0.3045021568140216,0.2525094607964946,9.847081617610517
3135000000.0,21.97,0.0,0.0,0.0,0.3014613608936136,0.2478986391063864,9.853752721787227
3140000000.0,21.97,0.0,0.0,0.0,0.3111732609907326,0.22406021702780218,9.85905
3145000000.0,21.97,0.0,0.0,0.0,0.32088516108785164,0.22975032217570324,9.866015161087851
3150000000.0,21.97,0.0,0.0,0.0,0.3305970611849706,0.22170587763005878,9.848258816445089
3155000000.0,21.97,0.0,0.0,0.0,0.35384688384626883,0.2225889612820896,9.83943
3160000000.0,21.97,0.0,0.0,0.0,0.34295741586237416,0.23897172275841722,9.846100861379208
3165000000.0,21.97,0.0,0.0,0.0,0.3466855229526552,0.26496828442898285,9.862385522952655
3170000000.0,21.97,0.0,0.0,0.0,0.3337360152796602,0.27468,9.862385338426554
3175000000.0,21.97,0.0,0.0,0.0,0.3301065616705656,0.24917375331773753,9.852673438329434
3180000000.0,21.97,0.0,0.0,0.0,0.29586922939389226,0.22288307646463076,9.868075385303053
3185000000.0,21.97,0.0,0.0,0.0,0.2870407237296072,0.23436108559441085,9.866309276270393
3190000000.0,21.97,0.0,0.0,0.0,0.31862904784769047,0.2513322619619226,9.85905
3195000000.0,21.97,0.0,0.0,0.0,0.3395241620590416,0.25506,9.877002486177124
3200000000.0,21.97,0.0,0.0,0.0,0.3374639378438394,0.24917393784383937,9.864935751375357
3205000000.0,21.97,0.0,0.0,0.0,0.3277520377467204,0.2510379622532796,9.860815924506559
3210000000.0,21.97,0.0,0.0,0.0,0.32373,0.23799041294880413,9.8631701376496
3215000000.0,21.97,0.0,0.0,0.0,0.32932176244751765,0.23681352489503524,9.864641762447517
3220000000.0,21.97,0.0,0.0,0.0,0.3280463374553634,0.23975633745536337,9.863366337455362
3225000000.0,21.97,0.0,0.0,0.0,0.31833443735824435,0.26241781320877816,9.864445562641755
3230000000.0,21.97,0.0,0.0,0.0,0.31392,0.2633001490445015,9.879454925477749
3235000000.0,21.97,0.0,0.0,0.0,0.31392,0.24525,9.878081274328013
3240000000.0,21.97,0.0,0.0,0.0,0.2986162112006621,0.2299462112006621,9.86886
3245000000.0,21.97,0.0,0.0,0.0,0.30950581515115816,0.22582632606046327,9.86886
3250000000.0,21.97,0.0,0.0,0.0,0.34335012625470124,0.2550602525094025,9.873765063127351
3255000000.0,21.97,0.0,0.0,0.0,0.3435460735510607,0.2650660735510607,9.87386303677553
3260000000.0,21.97,0.0,0.0,0.0,0.33354,0.2691865899647659,9.86886
3265000000.0,21.97,0.0,0.0,0.0,0.32892923658129236,0.2706577097438771,9.864249236581292
3270000000.0,21.97,0.0,0.0,0.0,0.3192173364841734,0.24603467296834675,9.84551200945252
3275000000.0,21.97,0.0,0.0,0.0,0.31833456361294565,0.23544,9.842863690838836
3280000000.0,21.97,0.0,0.0,0.0,0.32804646371006463,0.23544,9.871999391130194
3285000000.0,21.97,0.0,0.0,0.0,0.33354,0.23544,9.87582490857845
3290000000.0,21.97,0.0,0.0,0.0,0.3417805278086053,0.24368052780860527,9.85905
3295000000.0,21.97,0.0,0.0,0.0,0.35316,0.25506,9.85905
3300000000.0,21.97,0.0,0.0,0.0,0.3374637436058374,0.2511359359014594,9.85905
3305000000.0,21.97,0.0,0.0,0.0,0.32157192839131926,0.24907596419565964,9.851398071608681
3310000000.0,21.97,0.0,0.0,0.0,0.33354,0.2364206785361068,9.846885728585557
3315000000.0,21.97,0.0,0.0,0.0,0.33716976438989765,0.22052905755959057,9.85905
3320000000.0,21.97,0.0,0.0,0.0,0.34335,0.24525,9.85905
3325000000.0,21.97,0.0,0.0,0.0,0.34335,0.2521171291682713,9.85905
3330000000.0,21.97,0.0,0.0,0.0,0.34335,0.26487,9.85905
3335000000.0,21.97,0.0,0.0,0.0,0.34335,0.2583952704432527,9.862287364778373
3340000000.0,21.97,0.0,0.0,0.0,0.34021073512450734,0.2515285297509853,9.86886
3345000000.0,21.97,0.0,0.0,0.0,0.3396223299452233,0.25574650508216507,9.865818835027389
3350000000.0,21.97,0.0,0.0,0.0,0.34727386986053865,0.23544,9.86493613013946
3355000000.0,21.97,0.0,0.0,0.0,0.33354,0.23544,9.872980069666301
3360000000.0,21.97,0.0,0.0,0.0,0.34178059579190595,0.23818686526396865,9.864543730527938
3365000000.0,21.97,0.0,0.0,0.0,0.35502370391673704,0.24525,9.876021234638912
3370000000.0,21.97,0.0,0.0,0.0,0.33098933454179336,0.24525,9.86886
3375000000.0,21.97,0.0,0.0,0.0,0.32373,0.24770256555532566,9.86886
3380000000.0,21.97,0.0,0.0,0.0,0.32373,0.2527055343475553,9.86886
3385000000.0,21.97,0.0,0.0,0.0,0.3259863657495637,0.2497627314991273,9.864347268500872
3390000000.0,21.97,0.0,0.0,0.0,0.33138173415331734,0.258395202459952,9.844923468306634
3395000000.0,21.97,0.0,0.0,0.0,0.32373,0.23750016594380166,9.831680165943801
3400000000.0,21.97,0.0,0.0,0.0,0.32569206604092066,0.24525,9.845316198122761
3405000000.0,21.97,0.0,0.0,0.0,0.33354,0.24338603386196034,9.86886
3410000000.0,21.97,0.0,0.0,0.0,0.33177413376484133,0.240737598705476,9.86886
3415000000.0,21.97,0.0,0.0,0.0,0.32373,0.26487,9.867192233667723
3420000000.0,21.97,0.0,0.0,0.0,0.31902100071181,0.26330033357060334,9.85905
3425000000.0,21.97,0.0,0.0,0.0,0.298714699579547,0.25653156652651565,9.854635300420453
3430000000.0,21.97,0.0,0.0,0.0,0.32647693324726934,0.25800266688182666,9.830993466623635
3435000000.0,21.97,0.0,0.0,0.0,0.34590073344150735,0.22219683360376835,9.840705366720753
3440000000.0,21.97,0.0,0.0,0.0,0.36297,0.2601609327285093,9.850417266817873
3445000000.0,21.97,0.0,0.0,0.0,0.3608116661700167,0.228867500744975,9.861208333829984
3450000000.0,21.97,0.0,0.0,0.0,0.340406798963668,0.25702213402422136,9.876707865975778
3455000000.0,21.97,0.0,0.0,0.0,0.316568901327689,0.27203109867231096,9.85905
3460000000.0,21.97,0.0,0.0,0.0,0.3417802655873026,0.2444651327936513,9.858265132793651
3465000000.0,21.97,0.0,0.0,0.0,0.32579030191040304,0.23475323269653234,9.849926767303467
3470000000.0,21.97,0.0,0.0,0.0,0.3525713325994133,0.22563,9.859638667400587
3475000000.0,21.97,0.0,0.0,0.0,0.34384056749770564,0.22661113499541136,9.869841134995411
3480000000.0,21.97,0.0,0.0,0.0,0.35316,0.24603493518964933,9.888087532405175
3485000000.0,21.97,0.0,0.0,0.0,0.3516881615402816,0.26487,9.878964367691943
3490000000.0,21.97,0.0,0.0,0.0,0.30450253557812534,0.26447746442187464,9.887694928843748
3495000000.0,21.97,0.0,0.0,0.0,0.32373,0.24534816788618166,9.849436335772364
3500000000.0,21.97,0.0,0.0,0.0,0.32373,0.25506006798330066,9.868859796050097
3505000000.0,21.97,0.0,0.0,0.0,0.32373,0.2647719680804197,9.839724095758742
3510000000.0,21.97,0.0,0.0,0.0,0.32373,0.23602839546738397,9.868271604532616
3515000000.0,21.97,0.0,0.0,0.0,0.34276153654931535,0.22592423172534232,9.897407304823972
3520000000.0,21.97,0.0,0.0,0.0,0.3245146632564466,0.2538830051153301,9.860619326512893
3525000000.0,21.97,0.0,0.0,0.0,0.32373,0.26437956846889565,9.840410863062209
3530000000.0,21.97,0.0,0.0,0.0,0.3698373428300734,0.23720559430195595,9.867094405698044
3535000000.0,21.97,0.0,0.0,0.0,0.3362865253474653,0.23544,9.86886
3540000000.0,21.97,0.0,0.0,0.0,0.3154894624794946,0.2715410750410107,9.850809462479495
3545000000.0,21.97,0.0,0.0,0.0,0.3228471688573717,0.2568256622852566,9.867094337714743
3550000000.0,21.97,0.0,0.0,0.0,0.3060718620910186,0.23740186209101863,9.86003093104551
3555000000.0,21.97,0.0,0.0,0.0,0.3128409690516097,0.27909484525804845,9.85031903094839
3560000000.0,21.97,0.0,0.0,0.0,0.36571721489237213,0.24132565425635655,9.84924
3565000000.0,21.97,0.0,0.0,0.0,0.3471756922624569,0.2098356922624569,9.857774769245848
3570000000.0,21.97,0.0,0.0,0.0,0.3264766613140666,0.2313200080289001,9.875923338685933
3575000000.0,21.97,0.0,0.0,0.0,0.3153914305599143,0.2521171388801714,9.870331430559913
3580000000.0,21.97,0.0,0.0,0.0,0.33040093907440937,0.27154093907440935,9.844138591388386
3585000000.0,21.97,0.0,0.0,0.0,0.3416823696343237,0.2502528910970289,9.83943
3590000000.0,21.97,0.0,0.0,0.0,0.32726146053711463,0.24525,9.855518539462885
3595000000.0,21.97,0.0,0.0,0.0,0.2998914905143149,0.2293576603428766,9.874942339657123
3600000000.0,21.97,0.0,0.0,0.0,0.3021480699256807,0.22563,9.862973860148639
3605000000.0,21.97,0.0,0.0,0.0,0.3118599700227997,0.2333799700227997,9.85905
3610000000.0,21.97,0.0,0.0,0.0,0.3368756103597561,0.2583956103597561,9.866701870119918
3615000000.0,21.97,0.0,0.0,0.0,0.35090377021703767,0.26487,9.876413770217038
3620000000.0,21.97,0.0,0.0,0.0,0.3457043296858433,0.27978134062831345,9.863758659371687
3625000000.0,21.97,0.0,0.0,0.0,0.3286348591774486,0.2624172887661729,9.85905
3630000000.0,21.97,0.0,0.0,0.0,0.3092110589832106,0.2623194705083947,9.837271588474817
3635000000.0,21.97,0.0,0.0,0.0,0.32559411181654113,0.2577086293944863,9.851104111816541
3640000000.0,21.97,0.0,0.0,0.0,0.3406032707026327,0.2479967292973673,9.866113270702632
3645000000.0,21.97,0.0,0.0,0.0,0.34335,0.2522151707997517,9.86886
3650000000.0,21.97,0.0,0.0,0.0,0.3296158582062586,0.2481929291031293,9.87572707089687
3655000000.0,21.97,0.0,0.0,0.0,0.32373,0.25201897099398973,9.87867
3660000000.0,21.97,0.0,0.0,0.0,0.31038825781778256,0.24838912890889128,9.865328257817783
3665000000.0,21.97,0.0,0.0,0.0,0.33040108475291086,0.2583955423764554,9.878768313564683
3670000000.0,21.97,0.0,0.0,0.0,0.3304006574293066,0.2583953287146533,9.894954671285346
3675000000.0,21.97,0.0,0.0,0.0,0.3364831427649314,0.24868342861753429,9.85365400032274
3680000000.0,21.97,0.0,0.0,0.0,0.31823611408166114,0.24525,9.861012357397923
3685000000.0,21.97,0.0,0.0,0.0,0.32265111473011115,0.2390696284232963,9.872489628423295
3690000000.0,21.97,0.0,0.0,0.0,0.33354,0.24152227167382273,9.874942271673822
3695000000.0,21.97,0.0,0.0,0.0,0.3275558282290583,0.2512341717709417,9.87867
3700000000.0,21.97,0.0,0.0,0.0,0.34138821560418214,0.2727182156041822,9.87278392813194
3705000000.0,21.97,0.0,0.0,0.0,0.3242201401741014,0.27870202803482025,9.857284056069641
3710000000.0,21.97,0.0,0.0,0.0,0.3268694882491949,0.28036987206229874,9.84924
3715000000.0,21.97,0.0,0.0,0.0,0.3265746835217468,0.2677146835217469,9.843648227840582
3720000000.0,21.97,0.0,0.0,0.0,0.31392,0.23308531097385313,9.83943
3725000000.0,21.97,0.0,0.0,0.0,0.33010671706096717,0.23200671706096718,9.871803434121935
3730000000.0,21.97,0.0,0.0,0.0,0.34335,0.23465505509845055,9.871802637746127
3735000000.0,21.97,0.0,0.0,0.0,0.3485493725478937,0.2464274901915749,9.86483811764368
3740000000.0,21.97,0.0,0.0,0.0,0.3429574547099745,0.27507254529002545,9.873568727354987
3745000000.0,21.97,0.0,0.0,0.0,0.3235336545157365,0.25947413628934135,9.858853654515736
3750000000.0,21.97,0.0,0.0,0.0,0.30901492716074924,0.2501552185177522,9.839429854321498
3755000000.0,21.97,0.0,0.0,0.0,0.3329518376182184,0.24564210825452107,9.844040918809108
3760000000.0,21.97,0.0,0.0,0.0,0.3441345078660451,0.23033887303348874,9.854341126966512
3765000000.0,21.97,0.0,0.0,0.0,0.3329515462612155,0.24005077313060774,9.863072319391822
3770000000.0,21.97,0.0,0.0,0.0,0.3523753464554535,0.26330069291090696,9.887695346455454
3775000000.0,21.97,0.0,0.0,0.0,0.3408971333757713,0.2712462800254628,9.880631706700617
3780000000.0,21.97,0.0,0.0,0.0,0.32255294684392943,0.25937647342196474,9.86768294684393
3785000000.0,21.97,0.0,0.0,0.0,0.3293216264809163,0.26487,9.87867
3790000000.0,21.97,0.0,0.0,0.0,0.3360908208486082,0.2566294527675945,9.870429452767594
3795000000.0,21.97,0.0,0.0,0.0,0.34109347886003477,0.2331834788600348,9.851005652573356
3800000000.0,21.97,0.0,0.0,0.0,0.32765407381044076,0.23151629524176295,9.851202221431322
3805000000.0,21.97,0.0,0.0,0.0,0.33354,0.2627119478151195,9.87651194781512
3810000000.0,21.97,0.0,0.0,0.0,0.3372678740046787,0.27095212599532126,9.884752125995321
3815000000.0,21.97,0.0,0.0,0.0,0.3360904517964045,0.25035090359280904,9.882299774101797
3820000000.0,21.97,0.0,0.0,0.0,0.3166666516021665,0.22916167419891675,9.884948325801084
3825000000.0,21.97,0.0,0.0,0.0,0.30067642570396425,0.23544,9.882103574296035
3830000000.0,21.97,0.0,0.0,0.0,0.3009709487863095,0.2421109487863095,9.87513810242738
3835000000.0,21.97,0.0,0.0,0.0,0.3236321234708212,0.24858525101945253,9.852477374490274
3840000000.0,21.97,0.0,0.0,0.0,0.3402107254126073,0.24799709834957098,9.852771450825214
3845000000.0,21.97,0.0,0.0,0.0,0.33658117468451176,0.262515301261953,9.848553524053536
3850000000.0,21.97,0.0,0.0,0.0,0.3374638504367385,0.23544,9.86591692521837
3855000000.0,21.97,0.0,0.0,0.0,0.3208850251212503,0.22690507536375076,9.86758492463625
3860000000.0,21.97,0.0,0.0,0.0,0.3221606249276062,0.216997499903475,9.885733125024132
3865000000.0,21.97,0.0,0.0,0.0,0.34070122492701227,0.24789877507298774,9.876021224927012
3870000000.0,21.97,0.0,0.0,0.0,0.3386413503402135,0.265262700680427,9.871410675170106
3875000000.0,21.97,0.0,0.0,0.0,0.34334969893109696,0.28694227419832274,9.871312274198322
3880000000.0,21.97,0.0,0.0,0.0,0.31156552463565523,0.25780657390696576,9.84924
3885000000.0,21.97,0.0,0.0,0.0,0.3063663754614637,0.226414498154145,9.84924
3890000000.0,21.97,0.0,0.0,0.0,0.322553102234331,0.19835827555858276,9.855714826675749
3895000000.0,21.97,0.0,0.0,0.0,0.3510998243442982,0.21219052696710528,9.874549648688596
3900000000.0,21.97,0.0,0.0,0.0,0.3394258484943585,0.24721245451692456,9.861012075752821
3905000000.0,21.97,0.0,0.0,0.0,0.3274579516998795,0.2905720483001205,9.86699602415006
3910000000.0,21.97,0.0,0.0,0.0,0.34335,0.27114824810588245,9.85905
3915000000.0,21.97,0.0,0.0,0.0,0.3400144479116445,0.2500566718674667,9.862385552088355
3920000000.0,21.97,0.0,0.0,0.0,0.3205906477174065,0.22406032385870323,9.880239676141297
3925000000.0,21.97,0.0,0.0,0.0,0.30558157623841575,0.21729157623841577,9.884065271284753
3930000000.0,21.97,0.0,0.0,0.0,0.3180404290066043,0.23112390534213906,9.857676523664464
3935000000.0,21.97,0.0,0.0,0.0,0.34335,0.26487,9.850515376432654
3940000000.0,21.97,0.0,0.0,0.0,0.3445272765297728,0.2672245530595455,9.860227276529773
3945000000.0,21.97,0.0,0.0,0.0,0.3520808233731082,0.28341082337310824,9.867780823373108
3950000000.0,21.97,0.0,0.0,0.0,0.3423689232759892,0.2707556931039569,9.85905
3955000000.0,21.97,0.0,0.0,0.0,0.33265702317887025,0.2380889304633893,9.85905
3960000000.0,21.97,0.0,0.0,0.0,0.3229451230817513,0.2625153692452537,9.85905
3965000000.0,21.97,0.0,0.0,0.0,0.31392,0.23544,9.85905
3970000000.0,21.97,0.0,0.0,0.0,0.31450867711248676,0.2377947084499471,9.857872645775027
3975000000.0,21.97,0.0,0.0,0.0,0.3252017316288173,0.27320826837118267,9.841392308838422
3980000000.0,21.97,0.0,0.0,0.0,0.35237504538655046,0.24446504538655045,9.879062477306725
3985000000.0,21.97,0.0,0.0,0.0,0.33383437740384375,0.22563,9.88848
3990000000.0,21.97,0.0,0.0,0.0,0.34295744499807446,0.22621883250288832,9.887694889996148
3995000000.0,21.97,0.0,0.0,0.0,0.32343546720575467,0.2552563551961636,9.849436355196163
4000000000.0,21.97,0.0,0.0,0.0,0.2943002330856023,0.27467976691439766,9.868860077695201
4005000000.0,21.97,0.0,0.0,0.0,0.32343593337695936,0.24554406662304065,9.878571977792319
4010000000.0,21.97,0.0,0.0,0.0,0.3525716336683163,0.26447775577887755,9.859442244221123
4015000000.0,21.97,0.0,0.0,0.0,0.3626757779865578,0.2553542220134422,9.868565777986557
4020000000.0,21.97,0.0,0.0,0.0,0.33471696574896964,0.25506,9.878277678083677
4025000000.0,21.97,0.0,0.0,0.0,0.32422042181920424,0.25506,9.887989578180795
4030000000.0,21.97,0.0,0.0,0.0,0.29606556516625565,0.2458385217220852,9.85159408688834
4035000000.0,21.97,0.0,0.0,0.0,0.32167013512510134,0.25437337837503377,9.867486756750067
4040000000.0,21.97,0.0,0.0,0.0,0.3327552784721528,0.2640852784721528,9.850809443055695
4045000000.0,21.97,0.0,0.0,0.0,0.3424671785692718,0.2470156428614564,9.84924
4050000000.0,21.97,0.0,0.0,0.0,0.32569184266721846,0.24525,9.86689815733278
4055000000.0,21.97,0.0,0.0,0.0,0.3149990212364902,0.22778804247298043,9.86886
4060000000.0,21.97,0.0,0.0,0.0,0.31392,0.2515286365818864,9.86022712113937
4065000000.0,21.97,0.0,0.0,0.0,0.33098955791549556,0.25506,9.867584778957747
4070000000.0,21.97,0.0,0.0,0.0,0.3419766790548668,0.2634966790548668,9.851986641890266
4075000000.0,21.97,0.0,0.0,0.0,0.35168857915198576,0.26487,9.857578579151985
4080000000.0,21.97,0.0,0.0,0.0,0.3366790415017904,0.24838904150179042,9.84256904150179
4085000000.0,21.97,0.0,0.0,0.0,0.3416823793462238,0.25339237934622383,9.855714758692448
4090000000.0,21.97,0.0,0.0,0.0,0.3192171616699716,0.23897144111331442,9.89122711777337
4095000000.0,21.97,0.0,0.0,0.0,0.3298123590809236,0.2433861795404618,9.882397640919075
4100000000.0,21.97,0.0,0.0,0.0,0.34923615927516155,0.24525,9.862973840724838
4105000000.0,21.97,0.0,0.0,0.0,0.3454100202653002,0.24525,9.866799979734699
4110000000.0,21.97,0.0,0.0,0.0,0.34335,0.2605537596636376,9.86120812016818
4115000000.0,21.97,0.0,0.0,0.0,0.3206886602131866,0.2497624401421244,9.866603779928937
4120000000.0,21.97,0.0,0.0,0.0,0.3213756800260568,0.2527056800260568,9.883771360052114
4125000000.0,21.97,0.0,0.0,0.0,0.32373,0.2403448397536484,9.881122419876824
4130000000.0,21.97,0.0,0.0,0.0,0.3455084406608844,0.24995896044058963,9.86415103955941
4135000000.0,21.97,0.0,0.0,0.0,0.35316,0.2478986196825862,9.866211380317413
4140000000.0,21.97,0.0,0.0,0.0,0.33197015875640157,0.24525,9.8476701587564
4145000000.0,21.97,0.0,0.0,0.0,0.3306951805116518,0.2591803610233036,9.867290722046606
4150000000.0,21.97,0.0,0.0,0.0,0.33354,0.2717370806087708,9.87867
4155000000.0,21.97,0.0,0.0,0.0,0.36061592282355925,0.2679110192941102,9.87190101929411
4160000000.0,21.97,0.0,0.0,0.0,0.33275471518194716,0.2581991191969912,9.86886
4165000000.0,21.97,0.0,0.0,0.0,0.32049278090012784,0.23534165729961656,9.86886
4170000000.0,21.97,0.0,0.0,0.0,0.31725531900275317,0.24505404299174044,9.842961276011012
4175000000.0,21.97,0.0,0.0,0.0,0.33304974328309744,0.2486834189056342,9.848749743283097
4180000000.0,21.97,0.0,0.0,0.0,0.34335,0.2515284811914848,9.88416392476594
4185000000.0,21.97,0.0,0.0,0.0,0.3495303812886038,0.24269923742279237,9.879748856134189
4190000000.0,21.97,0.0,0.0,0.0,0.34099543722855435,0.24760456277144563,9.862777718614277
4195000000.0,21.97,0.0,0.0,0.0,0.3275558185171582,0.25506,9.86503418148284
4200000000.0,21.97,0.0,0.0,0.0,0.3178439184200392,0.25506,9.845315673680156
4205000000.0,21.97,0.0,0.0,0.0,0.32549596335415965,0.23769605496876056,9.846983945031239
4210000000.0,21.97,0.0,0.0,0.0,0.3278501182258012,0.23700976354839765,9.853360118225801
4215000000.0,21.97,0.0,0.0,0.0,0.33491356374263564,0.24525,9.84924
4220000000.0,21.97,0.0,0.0,0.0,0.34335,0.2397563180315632,9.871214727873747
4225000000.0,21.97,0.0,0.0,0.0,0.33255883586888835,0.24623116413111165,9.877688835868888
4230000000.0,21.97,0.0,0.0,0.0,0.32902748216267486,0.24976251783732517,9.86886
4235000000.0,21.97,0.0,0.0,0.0,0.32314123548041235,0.24525,9.874059382259793
4240000000.0,21.97,0.0,0.0,0.0,0.31902128235691285,0.25035128235691284,9.87867
4245000000.0,21.97,0.0,0.0,0.0,0.3287331824540318,0.2700695473620955,9.873666817545967
4250000000.0,21.97,0.0,0.0,0.0,0.32372983489769835,0.25996458724424587,9.87376508255115
4255000000.0,21.97,0.0,0.0,0.0,0.32353396529653966,0.24505396529653967,9.88347698264827
4260000000.0,21.97,0.0,0.0,0.0,0.33824888274538883,0.24093335176383351,9.879062234509222
4265000000.0,21.97,0.0,0.0,0.0,0.3202960857874608,0.22563,9.86886
4270000000.0,21.97,0.0,0.0,0.0,0.3123507317585073,0.23014268293962684,9.873372682939626
4275000000.0,21.97,0.0,0.0,0.0,0.34236916607349166,0.25751291518372915,9.869840833926508
4280000000.0,21.97,0.0,0.0,0.0,0.35316,0.27585703373227033,9.85041703373227
4285000000.0,21.97,0.0,0.0,0.0,0.3447232335380323,0.26487,9.835211616769016
4290000000.0,21.97,0.0,0.0,0.0,0.3294197166718972,0.26074971667189717,9.841980849984308
4295000000.0,21.97,0.0,0.0,0.0,0.32373,0.2429934497243345,9.85905
4300000000.0,21.97,0.0,0.0,0.0,0.3355022505670225,0.22955408352234083,9.85905
4305000000.0,21.97,0.0,0.0,0.0,0.35316,0.23926598361945983,9.86287598361946
4310000000.0,21.97,0.0,0.0,0.0,0.3457042325668423,0.25270576743315765,9.865132116283421
4315000000.0,21.97,0.0,0.0,0.0,0.33354,0.2684997838136978,9.866309567627395
4320000000.0,21.97,0.0,0.0,0.0,0.3158815804459158,0.2676166321783663,9.871606632178366
4325000000.0,21.97,0.0,0.0,0.0,0.30165792003967923,0.24819283198412834,9.862483584007936
4330000000.0,21.97,0.0,0.0,0.0,0.33354,0.22543354768483548,9.865524515894945
4335000000.0,21.97,0.0,0.0,0.0,0.33354,0.21572215260652153,9.855812615797825
4340000000.0,21.97,0.0,0.0,0.0,0.33354,0.2417185685985857,9.855518568598585
4345000000.0,21.97,0.0,0.0,0.0,0.3304988156035882,0.25506,9.859736446810764
4350000000.0,21.97,0.0,0.0,0.0,0.31784383101293834,0.2580030844935309,9.845316168987061
4355000000.0,21.97,0.0,0.0,0.0,0.3126449537719495,0.2705599691812997,9.85620501540935
4360000000.0,21.97,0.0,0.0,0.0,0.32529934593669346,0.26800869187338694,9.851986884687769
4365000000.0,21.97,0.0,0.0,0.0,0.31735392392443923,0.2203324304302243,9.861698784784888
4370000000.0,21.97,0.0,0.0,0.0,0.34805863023598627,0.21876342441003424,9.86886
4375000000.0,21.97,0.0,0.0,0.0,0.3359925849791259,0.26241775493737757,9.866407415020873
4380000000.0,21.97,0.0,0.0,0.0,0.3409955149237551,0.28919897015248974,9.85905
4385000000.0,21.97,0.0,0.0,0.0,0.33354,0.2995972296532723,9.861306385173364
4390000000.0,21.97,0.0,0.0,0.0,0.33138171472951716,0.26938200310662,9.86238514418855
4395000000.0,21.97,0.0,0.0,0.0,0.32373,0.21582,9.843550370735203
4400000000.0,21.97,0.0,0.0,0.0,0.3198058290705583,0.21974417092944173,9.864936256394163
4405000000.0,21.97,0.0,0.0,0.0,0.3097019566855196,0.24103195668551958,9.88102405775264
4410000000.0,21.97,0.0,0.0,0.0,0.33883765697687657,0.2684017713179177,9.856303542635835
4415000000.0,21.97,0.0,0.0,0.0,0.36463778575607786,0.28615778575607786,9.883476642731766
4420000000.0,21.97,0.0,0.0,0.0,0.36807094244040944,0.28802125658721256,9.857480314146803
4425000000.0,21.97,0.0,0.0,0.0,0.33746365619873653,0.2521168280993683,9.853654757850947
4430000000.0,21.97,0.0,0.0,0.0,0.30548348604743486,0.23131954185769543,9.880043486047434
4435000000.0,21.97,0.0,0.0,0.0,0.3126446138554461,0.20983615843366157,9.884653841566339
4440000000.0,21.97,0.0,0.0,0.0,0.30411,0.23897185872501858,9.85905
4445000000.0,21.97,0.0,0.0,0.0,0.3062683726775837,0.26594918633879183,9.861208372677584
4450000000.0,21.97,0.0,0.0,0.0,0.32569217287182173,0.2766421728718217,9.876707827128177
4455000000.0,21.97,0.0,0.0,0.0,0.34511597306605973,0.2916510404009104,9.85905
4460000000.0,21.97,0.0,0.0,0.0,0.3614002267397023,0.2601606802191068,9.861404659890447
4465000000.0,21.97,0.0,0.0,0.0,0.34266321327273214,0.20669678672726788,9.887793213272731
4470000000.0,21.97,0.0,0.0,0.0,0.33295131317561316,0.21699737364877375,9.877492626351225
4475000000.0,21.97,0.0,0.0,0.0,0.32373,0.23740234768602347,9.860031173843012
4480000000.0,21.97,0.0,0.0,0.0,0.32451497403724977,0.27546497403724973,9.878277512981375
4485000000.0,21.97,0.0,0.0,0.0,0.34364438711574385,0.29312245153702454,9.86886
4490000000.0,21.97,0.0,0.0,0.0,0.35257113836141135,0.25427485114854853,9.868663712787137
4495000000.0,21.97,0.0,0.0,0.0,0.32353362538003627,0.21572181269001814,9.859246374619964
4500000000.0,21.97,0.0,0.0,0.0,0.3041099125928991,0.20601017481420175,9.8786700874071
4505000000.0,21.97,0.0,0.0,0.0,0.2943980124957801,0.22543397500843976,9.88838198750422
4510000000.0,21.97,0.0,0.0,0.0,0.33275555040535554,0.24485777520267776,9.859638337195983
4515000000.0,21.97,0.0,0.0,0.0,0.35257157539691575,0.2737973630953736,9.85905
4520000000.0,21.97,0.0,0.0,0.0,0.33432462440884625,0.30293306338673065,9.849632312204424
4525000000.0,21.97,0.0,0.0,0.0,0.3242204121073041,0.27615123632191235,9.858559587892696
4530000000.0,21.97,0.0,0.0,0.0,0.3145085120101851,0.21935107206111074,9.87749297597963
4535000000.0,21.97,0.0,0.0,0.0,0.29567322382613226,0.21582,9.869546611913066
4540000000.0,21.97,0.0,0.0,0.0,0.31235057636810576,0.27899701728837023,9.877885288184052
4545000000.0,21.97,0.0,0.0,0.0,0.34070156484351566,0.2755628117188281,9.860815623437656
4550000000.0,21.97,0.0,0.0,0.0,0.36100817675658176,0.2835090883782909,9.86787908837829
4555000000.0,21.97,0.0,0.0,0.0,0.3455080230491802,0.25829703457377035,9.87759098847541
4560000000.0,21.97,0.0,0.0,0.0,0.3347171114274711,0.22916133428241334,9.87867
4565000000.0,21.97,0.0,0.0,0.0,0.30793563399105633,0.22563,9.870135211330352
4570000000.0,21.97,0.0,0.0,0.0,0.3125466887667669,0.2340666887667669,9.860423311233234
4575000000.0,21.97,0.0,0.0,0.0,0.3222585888638859,0.2521171777277718,9.850711411136114
4580000000.0,21.97,0.0,0.0,0.0,0.3319704889610049,0.2468195110389951,9.857480488961004
4585000000.0,21.97,0.0,0.0,0.0,0.33354,0.28596194529061947,9.85905
4590000000.0,21.97,0.0,0.0,0.0,0.34962857831048577,0.24603426506854267,9.883182867465727
4595000000.0,21.97,0.0,0.0,0.0,0.3372676214952762,0.24338618925236188,9.880533810747638
4600000000.0,21.97,0.0,0.0,0.0,0.3256919106505191,0.22170573195155732,9.855125731951556
4605000000.0,21.97,0.0,0.0,0.0,0.34697996833979966,0.23906996833979968,9.8647399788932
4610000000.0,21.97,0.0,0.0,0.0,0.3455081104562811,0.26055377908743776,9.86886
4615000000.0,21.97,0.0,0.0,0.0,0.34335,0.2799775792816758,9.846198631077486
4620000000.0,21.97,0.0,0.0,0.0,0.3358943102620431,0.2695786205240862,9.861797069213871
4625000000.0,21.97,0.0,0.0,0.0,0.3261824101649241,0.2427972304947723,9.861502410164924
4630000000.0,21.97,0.0,0.0,0.0,0.3309894899321949,0.2281805100678051,9.851790510067804
4635000000.0,21.97,0.0,0.0,0.0,0.3192172199413722,0.2327913900293139,9.870724170087941
4640000000.0,21.97,0.0,0.0,0.0,0.3209832901264329,0.2566298703792987,9.892796580252865
4645000000.0,21.97,0.0,0.0,0.0,0.3376603804471038,0.23700923910579239,9.85649885865869
4650000000.0,21.97,0.0,0.0,0.0,0.34335,0.2393641806413418,9.846297090320672
4655000000.0,21.97,0.0,0.0,0.0,0.3501189904177899,0.2520189904177899,9.84924
4660000000.0,21.97,0.0,0.0,0.0,0.33981821897018216,0.2417182189701822,9.862581781029817
4665000000.0,21.97,0.0,0.0,0.0,0.3269672093879721,0.2420127906120279,9.855714418775944
4670000000.0,21.97,0.0,0.0,0.0,0.3107806185817062,0.25172469070914694,9.86866407212744
4675000000.0,21.97,0.0,0.0,0.0,0.3232397724187977,0.2423068183874682,9.840410455162404
4680000000.0,21.97,0.0,0.0,0.0,0.3398184909033849,0.2417184909033849,9.85748094542031
4685000000.0,21.97,0.0,0.0,0.0,0.34335,0.24525,9.860128826998489
4690000000.0,21.97,0.0,0.0,0.0,0.33726770890237706,0.2574145821952458,9.867486873292869
4695000000.0,21.97,0.0,0.0,0.0,0.3275558088052581,0.24691742641577427,9.866701617610516
4700000000.0,21.97,0.0,0.0,0.0,0.31195781741627815,0.22955390870813908,9.864936091291861
4705000000.0,21.97,0.0,0.0,0.0,0.31568598277795984,0.25456995694489953,9.86886
4710000000.0,21.97,0.0,0.0,0.0,0.32373,0.2689901085139011,9.857480217027803
4715000000.0,21.97,0.0,0.0,0.0,0.32932179158321795,0.2536864168335642,9.84924
4720000000.0,21.97,0.0,0.0,0.0,0.34452738336067384,0.25074369168033694,9.860227383360673
4725000000.0,21.97,0.0,0.0,0.0,0.35316,0.23887322466763225,9.858068816445089
4730000000.0,21.97,0.0,0.0,0.0,0.3425650162508502,0.23622498374914982,9.865132475623724
4735000000.0,21.97,0.0,0.0,0.0,0.3283406080283061,0.24005060802830608,9.87867
4740000000.0,21.97,0.0,0.0,0.0,0.32373,0.25584516827525167,9.853163539655934
4745000000.0,21.97,0.0,0.0,0.0,0.33873957649779574,0.26967680783406806,9.82962
4750000000.0,21.97,0.0,0.0,0.0,0.34334981547389815,0.25015472321084725,9.834525092263052
4755000000.0,21.97,0.0,0.0,0.0,0.33354,0.23544,9.84423699236017
4760000000.0,21.97,0.0,0.0,0.0,0.3194133226281332,0.24014889245728893,9.858657784914577
4765000000.0,21.97,0.0,0.0,0.0,0.31333158510881587,0.23602841489118415,9.86886
4770000000.0,21.97,0.0,0.0,0.0,0.3327553853030539,0.23916807795458078,9.864347307348472
4775000000.0,21.97,0.0,0.0,0.0,0.33893540725135407,0.24623081450270815,9.867879185497292
4780000000.0,21.97,0.0,0.0,0.0,0.3292235071542351,0.24407298569152985,9.87867
4785000000.0,21.97,0.0,0.0,0.0,0.31951160705711606,0.2592783929428839,9.870233214114231
4790000000.0,21.97,0.0,0.0,0.0,0.32216058608000586,0.2731105860800059,9.863170293040003
4795000000.0,21.97,0.0,0.0,0.0,0.33756219313712194,0.2684012274515123,9.86886
4800000000.0,21.97,0.0,0.0,0.0,0.33550181353151814,0.23740181353151812,9.876708186468482
4805000000.0,21.97,0.0,0.0,0.0,0.32755599333135993,0.22945599333135994,9.892305993331359
4810000000.0,21.97,0.0,0.0,0.0,0.32608421314304215,0.2466236802854368,9.887106319714563
4815000000.0,21.97,0.0,0.0,0.0,0.32480938057679376,0.26487,9.872489793525597
4820000000.0,21.97,0.0,0.0,0.0,0.3362866127545661,0.26840169362271693,9.875138306377282
4825000000.0,21.97,0.0,0.0,0.0,0.32373,0.26781281256032813,9.865426406280164
4830000000.0,21.97,0.0,0.0,0.0,0.31705901236609013,0.24171802473218026,9.849043518549136
4835000000.0,21.97,0.0,0.0,0.0,0.3138221817422218,0.22553218174222184,9.84580696957037
4840000000.0,21.97,0.0,0.0,0.0,0.33981858802238585,0.23897141197761412,9.875530705988806
4845000000.0,21.97,0.0,0.0,0.0,0.3470776117833761,0.23171238821662388,9.86886
4850000000.0,21.97,0.0,0.0,0.0,0.34236928261629285,0.2393638115891381,9.874746188410862
4855000000.0,21.97,0.0,0.0,0.0,0.3515900227898002,0.2398549715127497,9.8827900113949
4860000000.0,21.97,0.0,0.0,0.0,0.32373,0.26643931680099314,9.874353788799338
4865000000.0,21.97,0.0,0.0,0.0,0.32373,0.24789879449678795,9.883182411006423
4870000000.0,21.97,0.0,0.0,0.0,0.3288313891878139,0.24995861081218612,9.863758610812186
4875000000.0,21.97,0.0,0.0,0.0,0.33599221592692213,0.23789259469102594,9.851692594691025
4880000000.0,21.97,0.0,0.0,0.0,0.3233379791525798,0.24760449478814495,9.870822473940725
4885000000.0,21.97,0.0,0.0,0.0,0.35316,0.25506,9.89681802557368
4890000000.0,21.97,0.0,0.0,0.0,0.35316,0.25721829498238297,9.863366589964766
4895000000.0,21.97,0.0,0.0,0.0,0.34697941476149413,0.2607496098409961,9.872489414761494
4900000000.0,21.97,0.0,0.0,0.0,0.31784371447013715,0.24328790482337906,9.851202095176621
4905000000.0,21.97,0.0,0.0,0.0,0.29616399527373993,0.23730399527373996,9.85905
4910000000.0,21.97,0.0,0.0,0.0,0.31293947685429474,0.24525,9.853752313887423
4915000000.0,21.97,0.0,0.0,0.0,0.351492204532022,0.24358220453202203,9.836291181871912
4920000000.0,21.97,0.0,0.0,0.0,0.34491969556509694,0.2385793911301939,9.86886
4925000000.0,21.97,0.0,0.0,0.0,0.3502168086755681,0.25211680867556807,9.86886
4930000000.0,21.97,0.0,0.0,0.0,0.3321665042406651,0.23956048727800489,9.870233495759335
4935000000.0,21.97,0.0,0.0,0.0,0.32373,0.2584930207177302,9.877394604143547
4940000000.0,21.97,0.0,0.0,0.0,0.32255270404642705,0.2217064797678648,9.870037295953573
4945000000.0,21.97,0.0,0.0,0.0,0.31715758815207584,0.26487,9.876511607898616
4950000000.0,21.97,0.0,0.0,0.0,0.34433109614781093,0.26388890385218905,9.857087807704378
4955000000.0,21.97,0.0,0.0,0.0,0.3496280150202801,0.2532940075101401,9.83943
4960000000.0,21.97,0.0,0.0,0.0,0.31627468902614686,0.23857958536819587,9.840999792684098
4965000000.0,21.97,0.0,0.0,0.0,0.34197640712166405,0.2719328142433281,9.860423592878336
4970000000.0,21.97,0.0,0.0,0.0,0.32490739307257394,0.23485130346371305,9.878081303463713
4975000000.0,21.97,0.0,0.0,0.0,0.34236880673318804,0.22464880673318807,9.86886
4980000000.0,21.97,0.0,0.0,0.0,0.32373,0.20797248365262483,9.868467503269475
4985000000.0,21.97,0.0,0.0,0.0,0.3249075873105759,0.254765603172356,9.85905
4990000000.0,21.97,0.0,0.0,0.0,0.36198851537618515,0.24583889077428892,9.858461109225711
4995000000.0,21.97,0.0,0.0,0.0,0.31421459106564587,0.2743854089343541,9.829816394043764
5000000000.0,21.97,0.0,0.0,0.0,0.34334990288099904,0.24524970864299708,9.849240097119
5005000000.0,21.97,0.0,0.0,0.0,0.33363800278388,0.2161140083516401,9.85895199721612
5010000000.0,21.97,0.0,0.0,0.0,0.33354,0.22543389731323898,9.868663897313239
5015000000.0,21.97,0.0,0.0,0.0,0.2954768103585681,0.22563,9.859344202589641
5020000000.0,21.97,0.0,0.0,0.0,0.3225530925224309,0.2821361850448619,9.896720790029907
5025000000.0,21.97,0.0,0.0,0.0,0.3516887928137879,0.30312919520919196,9.870331207186211
5030000000.0,21.97,0.0,0.0,0.0,0.35316,0.24878101378971013,9.859638502298285
5035000000.0,21.97,0.0,0.0,0.0,0.334913204402332,0.22700320440233204,9.85905
5040000000.0,21.97,0.0,0.0,0.0,0.2974388084161881,0.20757940420809404,9.831974106312142
5045000000.0,21.97,0.0,0.0,0.0,0.321081593979216,0.2506459899653599,9.856401593979216
5050000000.0,21.97,0.0,0.0,0.0,0.32373,0.26388909809019095,9.85905
5055000000.0,21.97,0.0,0.0,0.0,0.3586539927492399,0.25613900181269,9.85031900181269
5060000000.0,21.97,0.0,0.0,0.0,0.354337101715571,0.263692898284429,9.857872898284429
5065000000.0,21.97,0.0,0.0,0.0,0.31902080647380804,0.256335201618452,9.876119596763095
5070000000.0,21.97,0.0,0.0,0.0,0.33079339695733395,0.24662330152133302,9.861796603042666
5075000000.0,21.97,0.0,0.0,0.0,0.33354,0.228572802848428,9.842372802848429
5080000000.0,21.97,0.0,0.0,0.0,0.341780498672905,0.24211099734581,9.831189501327096
5085000000.0,21.97,0.0,0.0,0.0,0.36777719631007194,0.261534797540048,9.845904797540047
5090000000.0,21.97,0.0,0.0,0.0,0.37278,0.280958597734286,9.881417195468572
5095000000.0,21.97,0.0,0.0,0.0,0.33304900517869007,0.28449,9.864641403107214
5100000000.0,21.97,0.0,0.0,0.0,0.315881900938619,0.25309760375447604,9.882594297184143
5105000000.0,21.97,0.0,0.0,0.0,0.29842000168300004,0.24525,9.872980001683
5110000000.0,21.97,0.0,0.0,0.0,0.32490759702247596,0.237598100744381,9.86886
5115000000.0,21.97,0.0,0.0,0.0,0.33354,0.23544,9.876413799352738
5120000000.0,21.97,0.0,0.0,0.0,0.33354,0.250351398899714,9.856302901650428
5125000000.0,21.97,0.0,0.0,0.0,0.34089759954697596,0.25506,9.863955199093951
5130000000.0,21.97,0.0,0.0,0.0,0.34335,0.233281501067715,9.876119499644094
5135000000.0,21.97,0.0,0.0,0.0,0.34335,0.23279139974121402,9.871508600258785
5140000000.0,21.97,0.0,0.0,0.0,0.35041329983833297,0.242503299838333,9.861796700161667
5145000000.0,21.97,0.0,0.0,0.0,0.339229600129096,0.231319600129096,9.85905
5150000000.0,21.97,0.0,0.0,0.0,0.312938699902287,0.232497100032571,9.86591710003257
5155000000.0,21.97,0.0,0.0,0.0,0.32441700038907,0.26251600051876,9.87562900012969
5160000000.0,21.97,0.0,0.0,0.0,0.340210900226809,0.268009099773191,9.865328199546381
5165000000.0,21.97,0.0,0.0,0.0,0.336777199676072,0.23857879870428797,9.85905
5170000000.0,21.97,0.0,0.0,0.0,0.346489400842094,0.206205898736859,9.871999400842094
5175000000.0,21.97,0.0,0.0,0.0,0.365913201036332,0.22170640207266404,9.87867
5180000000.0,21.97,0.0,0.0,0.0,0.36022299876943,0.254275501845855,9.87867
5185000000.0,21.97,0.0,0.0,0.0,0.334618797862788,0.27723080142480805,9.866309198575191
5190000000.0,21.97,0.0,0.0,0.0,0.335894601619046,0.272325398380954,9.85905
5195000000.0,21.97,0.0,0.0,0.0,0.337365799093358,0.270854200906642,9.853065799093358
5200000000.0,21.97,0.0,0.0,0.0,0.32176779799247796,0.24524949498119494,9.861012202007522
5205000000.0,21.97,0.0,0.0,0.0,0.31392,0.21405399779823997,9.87464800110088
5210000000.0,21.97,0.0,0.0,0.0,0.31960990119799904,0.22307970359399704,9.872980098802001
5215000000.0,21.97,0.0,0.0,0.0,0.329321801295118,0.252215403885354,9.880043602590236
5220000000.0,21.97,0.0,0.0,0.0,0.35002110417671106,0.26487,9.871998895823289
5225000000.0,21.97,0.0,0.0,0.0,0.35217879702128796,0.25407879702128794,9.85905
5230000000.0,21.97,0.0,0.0,0.0,0.33805249841352497,0.25584500317295,9.86964500317295
5235000000.0,21.97,0.0,0.0,0.0,0.33354,0.24407239326562394,9.873470598316405
5240000000.0,21.97,0.0,0.0,0.0,0.31313479287714796,0.24603520712285207,9.879062603561426
5245000000.0,21.97,0.0,0.0,0.0,0.31431280751132806,0.26487,9.883476798122167
5250000000.0,21.97,0.0,0.0,0.0,0.32372979605009794,0.27468020394990206,9.87867
5255000000.0,21.97,0.0,0.0,0.0,0.31872700207207,0.27006899378378996,9.87386299792793
5260000000.0,21.97,0.0,0.0,0.0,0.33785670650756705,0.259768902169189,9.864151097830812
5265000000.0,21.97,0.0,0.0,0.0,0.33010598866845986,0.24181598866845988,9.863660802266308
5270000000.0,21.97,0.0,0.0,0.0,0.308622702363427,0.22484540472685405,9.859834595273146
5275000000.0,21.97,0.0,0.0,0.0,0.3271638073816381,0.25309840984218407,9.840410795078908
5280000000.0,21.97,0.0,0.0,0.0,0.33471699488466994,0.27468,9.842569507672994
5285000000.0,21.97,0.0,0.0,0.0,0.32794840265478403,0.27046159734521596,9.854831597345216
5290000000.0,21.97,0.0,0.0,0.0,0.329419697248097,0.26487,9.857480605503806
5295000000.0,21.97,0.0,0.0,0.0,0.32373,0.24475898575488986,9.864837797150978
5300000000.0,21.97,0.0,0.0,0.0,0.319805897053859,0.2275923088384231,9.870822308838422
5305000000.0,21.97,0.0,0.0,0.0,0.31774600304326,0.2529020060865201,9.88465399695674
5310000000.0,21.97,0.0,0.0,0.0,0.32000209685962094,0.268597903140379,9.87867
5315000000.0,21.97,0.0,0.0,0.0,0.31029019676250197,0.27830980323749804,9.867780590287506
5320000000.0,21.97,0.0,0.0,0.0,0.31117340666923404,0.2738948899961489,9.845708296665382
5325000000.0,21.97,0.0,0.0,0.0,0.32373,0.24819279313652795,9.832562793136528
5330000000.0,21.97,0.0,0.0,0.0,0.3337365105865651,0.2254334894134349,9.83315201411542
5335000000.0,21.97,0.0,0.0,0.0,0.3434477891220779,0.21248480725194807,9.862287403625974
5340000000.0,21.97,0.0,0.0,0.0,0.31745139255381394,0.23190860744618608,9.86886
5345000000.0,21.97,0.0,0.0,0.0,0.3132336114606361,0.2543736114606361,9.874942407640424
5350000000.0,21.97,0.0,0.0,0.0,0.3276537921653379,0.27468,9.88848
5355000000.0,21.97,0.0,0.0,0.0,0.31961000802890005,0.27183499598554994,9.88563499598555
5360000000.0,21.97,0.0,0.0,0.0,0.32529928766529287,0.25662928766529286,9.87592309588843
5365000000.0,21.97,0.0,0.0,0.0,0.30411,0.23544,9.871508804208688
5370000000.0,21.97,0.0,0.0,0.0,0.3168635215290352,0.23288929569419298,9.871017887082578
5375000000.0,21.97,0.0,0.0,0.0,0.3580652088058521,0.22808260440292605,9.856597813208777
5380000000.0,21.97,0.0,0.0,0.0,0.3680709909999099,0.24250351350013513,9.87867
5385000000.0,21.97,0.0,0.0,0.0,0.35316,0.26487,9.880926404597163
5390000000.0,21.97,0.0,0.0,0.0,0.34668508591715086,0.26487,9.88848
5395000000.0,21.97,0.0,0.0,0.0,0.31960959041719594,0.2607495904171959,9.88848
5400000000.0,21.97,0.0,0.0,0.0,0.3080342097770421,0.23936368533443686,9.884555790222958
5405000000.0,21.97,0.0,0.0,0.0,0.32932201495692015,0.21768400498564006,9.86513199002872
5410000000.0,21.97,0.0,0.0,0.0,0.354925905082759,0.23092771524827715,9.852771810165518
5415000000.0,21.97,0.0,0.0,0.0,0.3596343896402439,0.25672780517987803,9.86886
5420000000.0,21.97,0.0,0.0,0.0,0.3402105894460059,0.26643970527699706,9.86886
5425000000.0,21.97,0.0,0.0,0.0,0.3252016053741161,0.27468,9.870331605374115
5430000000.0,21.97,0.0,0.0,0.0,0.33354,0.2678124726438247,9.877296494528764
5435000000.0,21.97,0.0,0.0,0.0,0.33098918886329187,0.22563,9.865033783294937
5440000000.0,21.97,0.0,0.0,0.0,0.3186292226618922,0.2279846113309461,9.83943
5445000000.0,21.97,0.0,0.0,0.0,0.3499223827122238,0.2474084115251841,9.841588411525183
5450000000.0,21.97,0.0,0.0,0.0,0.3247111058597111,0.26290778828057787,9.855125576561155
5455000000.0,21.97,0.0,0.0,0.0,0.33442300595683006,0.24613300595683005,9.82422502978415
5460000000.0,21.97,0.0,0.0,0.0,0.34335,0.25349018789210187,9.86886
5465000000.0,21.97,0.0,0.0,0.0,0.3426631938489319,0.2375004184532042,9.86886
5470000000.0,21.97,0.0,0.0,0.0,0.3341287062481871,0.2642812937518129,9.869448706248187
5475000000.0,21.97,0.0,0.0,0.0,0.3418781809640818,0.2555506063453061,9.87867
5480000000.0,21.97,0.0,0.0,0.0,0.31431250644242503,0.26487,9.87867
5485000000.0,21.97,0.0,0.0,0.0,0.32402440653954406,0.26457559346045595,9.877786780381367
5490000000.0,21.97,0.0,0.0,0.0,0.3331473867266739,0.2546673867266739,9.849632613273327
5495000000.0,21.97,0.0,0.0,0.0,0.31411641346756414,0.2355382067337821,9.869154620201346
5500000000.0,21.97,0.0,0.0,0.0,0.3335401068309011,0.24524978633819786,9.898289572676395
5505000000.0,21.97,0.0,0.0,0.0,0.34325200692802005,0.22582598614395985,9.85944197228792
5510000000.0,21.97,0.0,0.0,0.0,0.34335,0.2640856281005563,9.878277814050278
5515000000.0,21.97,0.0,0.0,0.0,0.34335,0.2743858071222581,9.87867
5520000000.0,21.97,0.0,0.0,0.0,0.3150968783418688,0.2840977072193771,9.85041687834187
5525000000.0,21.97,0.0,0.0,0.0,0.35119842926598427,0.2472115707340157,9.858559607316495
5530000000.0,21.97,0.0,0.0,0.0,0.32549547775915477,0.2544715074136151,9.849828492586385
5535000000.0,21.97,0.0,0.0,0.0,0.3511002225322022,0.23681318497853185,9.867486815021469
5540000000.0,21.97,0.0,0.0,0.0,0.35316,0.24446530760785307,9.886910615215706
5545000000.0,21.97,0.0,0.0,0.0,0.35316,0.23632279229502792,9.879552792295028
5550000000.0,21.97,0.0,0.0,0.0,0.33550178439581785,0.2795855390104554,9.869840892197908
5555000000.0,21.97,0.0,0.0,0.0,0.34227100789921006,0.25829697630236975,9.86012899210079
5560000000.0,21.97,0.0,0.0,0.0,0.33471709200367095,0.22916127601101277,9.85905
5565000000.0,21.97,0.0,0.0,0.0,0.31647038381310383,0.24269961618689617,9.876119616186896
5570000000.0,21.97,0.0,0.0,0.0,0.3392301245717012,0.23681329180943292,9.870233291809432
5575000000.0,21.97,0.0,0.0,0.0,0.34335,0.24377860828768608,9.86886
5580000000.0,21.97,0.0,0.0,0.0,0.34335,0.22052847484558474,9.86886
5585000000.0,21.97,0.0,0.0,0.0,0.32706518303615184,0.2321048169638482,9.86886
5590000000.0,21.97,0.0,0.0,0.0,0.33981861715808614,0.25152861715808617,9.84472707426287
5595000000.0,21.97,0.0,0.0,0.0,0.3274575826476758,0.27095241735232417,9.863268626028486
5600000000.0,21.97,0.0,0.0,0.0,0.3315781087732811,0.25898378245343784,9.86886
5605000000.0,21.97,0.0,0.0,0.0,0.34129000887040006,0.26281000887040007,9.8456099733888
5610000000.0,21.97,0.0,0.0,0.0,0.34335,0.24191427309744273,9.831778091032481
5615000000.0,21.97,0.0,0.0,0.0,0.32824238187072385,0.23544,9.86738904532319
5620000000.0,21.97,0.0,0.0,0.0,0.3088185816764858,0.2205285816764858,9.863758581676485
5625000000.0,21.97,0.0,0.0,0.0,0.3188252185177522,0.2378928277766283,9.866407609258875
5630000000.0,21.97,0.0,0.0,0.0,0.3382490187119902,0.2525095093559951,9.86886
5635000000.0,21.97,0.0,0.0,0.0,0.3290271810937718,0.25506,9.876021409453113
5640000000.0,21.97,0.0,0.0,0.0,0.3307933095502331,0.25506,9.864543380899534
5645000000.0,21.97,0.0,0.0,0.0,0.3544356289420563,0.2411295807052958,9.85905
5650000000.0,21.97,0.0,0.0,0.0,0.3423686707665867,0.2285728902555289,9.852182890255529
5655000000.0,21.97,0.0,0.0,0.0,0.3200019803168198,0.2323990098415901,9.85600900984159
5660000000.0,21.97,0.0,0.0,0.0,0.31392,0.2287690900612909,9.85237909006129
5665000000.0,21.97,0.0,0.0,0.0,0.3073471899641719,0.2584940501791405,9.862385620071656
5670000000.0,21.97,0.0,0.0,0.0,0.31705942026589423,0.2552558696011587,9.862385289867053
5675000000.0,21.97,0.0,0.0,0.0,0.3364832204601322,0.24525,9.865426610230067
5680000000.0,21.97,0.0,0.0,0.0,0.3370714896728149,0.24525,9.85630297934563
5685000000.0,21.97,0.0,0.0,0.0,0.3397204104243041,0.2514304104243041,9.861600820848608
5690000000.0,21.97,0.0,0.0,0.0,0.34335,0.23073075791430758,9.844530757914308
5695000000.0,21.97,0.0,0.0,0.0,0.3373657893814579,0.22778842123708423,9.853556842474168
5700000000.0,21.97,0.0,0.0,0.0,0.3453122214313222,0.2413261107156611,9.86886
5705000000.0,21.97,0.0,0.0,0.0,0.3357959675616597,0.2510380108127801,9.87464801081278
5710000000.0,21.97,0.0,0.0,0.0,0.32941991090989914,0.2493700890901009,9.87867
5715000000.0,21.97,0.0,0.0,0.0,0.33354,0.2620254330210543,9.867486377985964
5720000000.0,21.97,0.0,0.0,0.0,0.33354,0.2581988666875887,9.864543711104137
5725000000.0,21.97,0.0,0.0,0.0,0.34972683360376833,0.2506456112012561,9.874255611201256
5730000000.0,21.97,0.0,0.0,0.0,0.3417799548064996,0.2497624887016249,9.862777466104875
5735000000.0,21.97,0.0,0.0,0.0,0.33932823418648234,0.2504494113954941,9.84924
5740000000.0,21.97,0.0,0.0,0.0,0.34295737701477375,0.2499586885073869,9.879847868955679
5745000000.0,21.97,0.0,0.0,0.0,0.3385432115897321,0.24525,9.873077518871876
5750000000.0,21.97,0.0,0.0,0.0,0.3384448883131489,0.24034488831314887,9.849240223373702
5755000000.0,21.97,0.0,0.0,0.0,0.3287329882160299,0.24986103535191034,9.87347103535191
5760000000.0,21.97,0.0,0.0,0.0,0.32373,0.2695789118810891,9.88377108811891
5765000000.0,21.97,0.0,0.0,0.0,0.33295162395641625,0.27006918802179186,9.869448376043584
5770000000.0,21.97,0.0,0.0,0.0,0.3343245758493458,0.2603572879246729,9.863562712075327
5775000000.0,21.97,0.0,0.0,0.0,0.33255922434489227,0.24623077565510776,9.855616163482662
5780000000.0,21.97,0.0,0.0,0.0,0.3519830245391302,0.22680697546086975,9.843746512269565
5785000000.0,21.97,0.0,0.0,0.0,0.35453317526663175,0.23691206183342062,9.857676824733367
5790000000.0,21.97,0.0,0.0,0.0,0.33922968753619687,0.26487,9.86886
5795000000.0,21.97,0.0,0.0,0.0,0.33354,0.2688922125609221,9.86886
5800000000.0,21.97,0.0,0.0,0.0,0.30999532405175323,0.2668317746839177,9.864935887341959
5805000000.0,21.97,0.0,0.0,0.0,0.2823320255103202,0.25123398724483986,9.85905
5810000000.0,21.97,0.0,0.0,0.0,0.29802791285227914,0.24525,9.85905
5815000000.0,21.97,0.0,0.0,0.0,0.31499943884819437,0.24525,9.85905
5820000000.0,21.97,0.0,0.0,0.0,0.33354,0.24171828695348288,9.873176852186068
5825000000.0,21.97,0.0,0.0,0.0,0.3438408394309084,0.23887361314363614,9.884555547425455
5830000000.0,21.97,0.0,0.0,0.0,0.35963448675924486,0.2585920529630205,9.86572102648151
5835000000.0,21.97,0.0,0.0,0.0,0.34992258666212583,0.27154034664850346,9.868957759986378
5840000000.0,21.97,0.0,0.0,0.0,0.33707137313001373,0.2358320596950206,9.85865794030498
5845000000.0,21.97,0.0,0.0,0.0,0.32373,0.21886121353211213,9.884752427064225
5850000000.0,21.97,0.0,0.0,0.0,0.32078688637076885,0.23740245451692454,9.889460659112306
5855000000.0,21.97,0.0,0.0,0.0,0.31676501372635013,0.2705600274527003,9.863169972547299
5860000000.0,21.97,0.0,0.0,0.0,0.3292238276469383,0.27350234470612345,9.854733827646939
5865000000.0,21.97,0.0,0.0,0.0,0.34335,0.24525,9.866211186079411
5870000000.0,21.97,0.0,0.0,0.0,0.34335,0.24780071401770715,9.864151428035415
5875000000.0,21.97,0.0,0.0,0.0,0.34825522822965227,0.25260738588517384,9.881122614114826
5880000000.0,21.97,0.0,0.0,0.0,0.3511974289402743,0.24995902842389028,9.883770971576109
5885000000.0,21.97,0.0,0.0,0.0,0.3161764143090641,0.2693828286181283,9.86886
5890000000.0,21.97,0.0,0.0,0.0,0.33020494321854943,0.28449,9.864543371187633
5895000000.0,21.97,0.0,0.0,0.0,0.35109978549669785,0.27624914198679146,9.853360429006605
5900000000.0,21.97,0.0,0.0,0.0,0.3315773123974731,0.2413257707991577,9.87082211460042
5905000000.0,21.97,0.0,0.0,0.0,0.2938100734877008,0.22749401469754016,9.873077955907378
5910000000.0,21.97,0.0,0.0,0.0,0.33354,0.23367408520534086,9.858069573973296
5915000000.0,21.97,0.0,0.0,0.0,0.3368756297835563,0.2356368893506689,9.893286555324664
5920000000.0,21.97,0.0,0.0,0.0,0.35159028501110284,0.2813505700222057,9.867290285011103
5925000000.0,21.97,0.0,0.0,0.0,0.34482161508601616,0.26634161508601617,9.860521615086016
5930000000.0,21.97,0.0,0.0,0.0,0.3462924240843242,0.27468,9.867486484816865
5935000000.0,21.97,0.0,0.0,0.0,0.30538541528025415,0.2657520930382209,9.85905
5940000000.0,21.97,0.0,0.0,0.0,0.31627463075474627,0.20483268462262685,9.857872684622627
5945000000.0,21.97,0.0,0.0,0.0,0.33354,0.2015960773724608,9.855715292846952
5950000000.0,21.97,0.0,0.0,0.0,0.3325588844283888,0.2472122311432223,9.906137768856777
5955000000.0,21.97,0.0,0.0,0.0,0.3246130156687302,0.2692850783436508,9.88759698433127
5960000000.0,21.97,0.0,0.0,0.0,0.33432491576584916,0.3099954211707542,9.876315252702453
5965000000.0,21.97,0.0,0.0,0.0,0.3412895524110955,0.26212273654812734,9.850613631725937
5970000000.0,21.97,0.0,0.0,0.0,0.31392,0.22621871596008716,9.86886
5975000000.0,21.97,0.0,0.0,0.0,0.31392,0.23396815182838152,9.869350616057206
5980000000.0,21.97,0.0,0.0,0.0,0.31431251615432515,0.2071875484629755,9.87788496769135
5985000000.0,21.97,0.0,0.0,0.0,0.3240244162514442,0.23602883250288834,9.858755583748556
5990000000.0,21.97,0.0,0.0,0.0,0.33373631634856316,0.2554526326971263,9.850025265394253
5995000000.0,21.97,0.0,0.0,0.0,0.34335,0.27458178355431784,9.888283567108635
6000000000.0,21.97,0.0,0.0,0.0,0.34335,0.2648698834571988,9.86886
6005000000.0,21.97,0.0,0.0,0.0,0.34335,0.25515798336007983,9.86886
6010000000.0,21.97,0.0,0.0,0.0,0.3145082497888825,0.23583216652592168,9.85924608326296
6015000000.0,21.97,0.0,0.0,0.0,0.2853725494975255,0.22592418316584184,9.85905
6020000000.0,21.97,0.0,0.0,0.0,0.31274315079383147,0.24446543386255434,9.85905
6025000000.0,21.97,0.0,0.0,0.0,0.3418788510851885,0.2545696170283962,9.868369617028396
6030000000.0,21.97,0.0,0.0,0.0,0.34335,0.2827245513765455,9.878081517125516
6035000000.0,21.97,0.0,0.0,0.0,0.36159683444526836,0.2571197483320975,9.87867
6040000000.0,21.97,0.0,0.0,0.0,0.33589404804074047,0.21895873072098732,9.869644682680246
6045000000.0,21.97,0.0,0.0,0.0,0.32461278258312787,0.24260165225061653,9.842078347749384
6050000000.0,21.97,0.0,0.0,0.0,0.32373,0.24525,9.865917352541974
6055000000.0,21.97,0.0,0.0,0.0,0.32373,0.26271203522222036,9.87759101761111
6060000000.0,21.97,0.0,0.0,0.0,0.34099583541645834,0.24760416458354165,9.861404164583542
6065000000.0,21.97,0.0,0.0,0.0,0.36041963561069634,0.23671518219465182,9.841980364389304
6070000000.0,21.97,0.0,0.0,0.0,0.3376598462925985,0.22700328209753282,9.873176871609868
6075000000.0,21.97,0.0,0.0,0.0,0.3252013820004138,0.23396861799958618,9.870331382000414
6080000000.0,21.97,0.0,0.0,0.0,0.32373,0.24368051809670518,9.860619481903294
6085000000.0,21.97,0.0,0.0,0.0,0.30744516361235164,0.26153483638764835,9.875334836387648
6090000000.0,21.97,0.0,0.0,0.0,0.32019863658188635,0.28095863658188636,9.862581363418114
6095000000.0,21.97,0.0,0.0,0.0,0.3316762183880622,0.2527051264477513,9.874942436776124
6100000000.0,21.97,0.0,0.0,0.0,0.3492362369703623,0.2530981184851812,9.886518118485181
6105000000.0,21.97,0.0,0.0,0.0,0.3454099814176998,0.23180994425309945,9.88848
6110000000.0,21.97,0.0,0.0,0.0,0.31274232528232326,0.2332819186794192,9.857872325282322
6115000000.0,21.97,0.0,0.0,0.0,0.3267714563296146,0.2505476375530764,9.856793818776538
6120000000.0,21.97,0.0,0.0,0.0,0.3260842811263428,0.2625157188736572,9.866505718873658
6125000000.0,21.97,0.0,0.0,0.0,0.34580285691232854,0.2722276189707762,9.876217618970776
6130000000.0,21.97,0.0,0.0,0.0,0.3459004809321048,0.25290144279631444,9.849631923728419
6135000000.0,21.97,0.0,0.0,0.0,0.32902716166997165,0.24525,9.860914257495043
6140000000.0,21.97,0.0,0.0,0.0,0.3166666807378668,0.2523133192621332,9.86886
6145000000.0,21.97,0.0,0.0,0.0,0.3348156580777566,0.2620252193592522,9.875825219359252
6150000000.0,21.97,0.0,0.0,0.0,0.3364828805436288,0.2442686416308864,9.871802880543628
6155000000.0,21.97,0.0,0.0,0.0,0.3403090195534902,0.2625160782139608,9.85532196089302
6160000000.0,21.97,0.0,0.0,0.0,0.3566918393012184,0.2546672410481724,9.862581839301217
6165000000.0,21.97,0.0,0.0,0.0,0.330105901261359,0.2583956394954564,9.855714360504544
6170000000.0,21.97,0.0,0.0,0.0,0.31392,0.26487,9.868664159534541
6175000000.0,21.97,0.0,0.0,0.0,0.3394264797678648,0.2584933800580338,9.87867
6180000000.0,21.97,0.0,0.0,0.0,0.32804591984365916,0.2487814799609148,9.859834439882745
6185000000.0,21.97,0.0,0.0,0.0,0.3201004201362042,0.23906957986379582,9.855420420136204
6190000000.0,21.97,0.0,0.0,0.0,0.3298123202333232,0.2415223202333232,9.865132320233323
6195000000.0,21.97,0.0,0.0,0.0,0.3395242203304422,0.24525,9.874844220330441
6200000000.0,21.97,0.0,0.0,0.0,0.34335,0.24525,9.884556120427561
6205000000.0,21.97,0.0,0.0,0.0,0.3375619794753198,0.24525,9.86532791790128
6210000000.0,21.97,0.0,0.0,0.0,0.3164702381346024,0.2566298412435984,9.8435500793782
6215000000.0,21.97,0.0,0.0,0.0,0.30411,0.2480945378432454,9.856205462156755
6220000000.0,21.97,0.0,0.0,0.0,0.3260848832641488,0.2409337208160372,9.857872558367925
6225000000.0,21.97,0.0,0.0,0.0,0.32716313726053137,0.25604124182631244,9.84924
6230000000.0,21.97,0.0,0.0,0.0,0.3298125630308256,0.2542749579794496,9.859835042020551
6235000000.0,21.97,0.0,0.0,0.0,0.3485494211073942,0.2556488422147884,9.86886
6240000000.0,21.97,0.0,0.0,0.0,0.3327547151819471,0.24446471518194715,9.879062642409027
6245000000.0,21.97,0.0,0.0,0.0,0.31392,0.24063966390489663,9.868467114793471
6250000000.0,21.97,0.0,0.0,0.0,0.3237302427975024,0.2501548786012488,9.859050242797503
6255000000.0,21.97,0.0,0.0,0.0,0.3383470214958702,0.2404429785041298,9.859245957008259
6260000000.0,21.97,0.0,0.0,0.0,0.3480589215929892,0.24014892159298923,9.84924
6265000000.0,21.97,0.0,0.0,0.0,0.34393835661978356,0.23602835661978355,9.853850821690108
6270000000.0,21.97,0.0,0.0,0.0,0.33354,0.23014272178722722,9.85905
6275000000.0,21.97,0.0,0.0,0.0,0.3291253781156538,0.24868386565303865,9.867879243768693
6280000000.0,21.97,0.0,0.0,0.0,0.31509695603706955,0.2519204340556043,9.88730304396293
6285000000.0,21.97,0.0,0.0,0.0,0.31254684415716844,0.25231368831433687,9.89829
6290000000.0,21.97,0.0,0.0,0.0,0.32785032217570326,0.2623190334728903,9.877688389121484
6295000000.0,21.97,0.0,0.0,0.0,0.3295177777271778,0.2291611109087111,9.837173333181534
6300000000.0,21.97,0.0,0.0,0.0,0.33157824473988246,0.2217064894797649,9.839430611849707
6305000000.0,21.97,0.0,0.0,0.0,0.34335,0.24525,9.853555910131758
6310000000.0,21.97,0.0,0.0,0.0,0.3321662323074623,0.24525,9.859443380513433
6315000000.0,21.97,0.0,0.0,0.0,0.3175498226612982,0.24525,9.88632106403221
6320000000.0,21.97,0.0,0.0,0.0,0.3096031089663311,0.24525,9.852771722758417
6325000000.0,21.97,0.0,0.0,0.0,0.30165811427768113,0.25211724571107247,9.862483622855535
6330000000.0,21.97,0.0,0.0,0.0,0.3368755229526552,0.2581989540946895,9.86886
6335000000.0,21.97,0.0,0.0,0.0,0.33687515390045153,0.24201257695022577,9.859147730850678
6340000000.0,21.97,0.0,0.0,0.0,0.32686932314689326,0.23544,9.845708646293787
6345000000.0,21.97,0.0,0.0,0.0,0.33049877675598777,0.23239877675598777,9.85905
6350000000.0,21.97,0.0,0.0,0.0,0.3207868766588688,0.21974375331773754,9.861993123341131
6355000000.0,21.97,0.0,0.0,0.0,0.31961004687650046,0.2145450703147507,9.86601497656175
6360000000.0,21.97,0.0,0.0,0.0,0.33354,0.23544,9.850809229393892
6365000000.0,21.97,0.0,0.0,0.0,0.33354,0.24073764726497648,9.840215294529953
6370000000.0,21.97,0.0,0.0,0.0,0.33354,0.25761072372960725,9.871410723729607
6375000000.0,21.97,0.0,0.0,0.0,0.33354,0.26241737617327376,9.873764752346547
6380000000.0,21.97,0.0,0.0,0.0,0.3311854760761548,0.2503509521523095,9.856695476076155
6385000000.0,21.97,0.0,0.0,0.0,0.3304992720628927,0.23769642402096425,9.851496424020965
6390000000.0,21.97,0.0,0.0,0.0,0.35316,0.24309167588191677,9.861208324118083
6395000000.0,21.97,0.0,0.0,0.0,0.3593406726456067,0.2395604484304045,9.870920224215203
6400000000.0,21.97,0.0,0.0,0.0,0.374741502750715,0.25702212431232124,9.87867
6405000000.0,21.97,0.0,0.0,0.0,0.3396219511811195,0.26300597559055977,9.88053402440944
6410000000.0,21.97,0.0,0.0,0.0,0.31843222648032227,0.2585918490131185,9.884948150986881
6415000000.0,21.97,0.0,0.0,0.0,0.29763564920735647,0.261337403170574,9.86719217539632
6420000000.0,21.97,0.0,0.0,0.0,0.31392,0.20404862350398625,9.860619724700797
6425000000.0,21.97,0.0,0.0,0.0,0.32274974878749746,0.24672162479791623,9.870331624797917
6430000000.0,21.97,0.0,0.0,0.0,0.367285900419859,0.25506,9.874549425314894
6435000000.0,21.97,0.0,0.0,0.0,0.33226457500784573,0.2563354249921543,9.846689150015692
6440000000.0,21.97,0.0,0.0,0.0,0.3249073250892733,0.260160699642907,9.831974650178546
6445000000.0,21.97,0.0,0.0,0.0,0.3313815496272155,0.23102612593196126,9.851398450372784
6450000000.0,21.97,0.0,0.0,0.0,0.3149011252835112,0.27075549886595496,9.86886
6455000000.0,21.97,0.0,0.0,0.0,0.32373,0.23632302538063027,9.86974302538063
6460000000.0,21.97,0.0,0.0,0.0,0.3252998509554985,0.24525,9.87788507452225
6465000000.0,21.97,0.0,0.0,0.0,0.34197634885026346,0.24593682557486826,9.86817317442513
6470000000.0,21.97,0.0,0.0,0.0,0.32196382298403825,0.25447127432801275,9.859638725671987
6475000000.0,21.97,0.0,0.0,0.0,0.2967531288455313,0.24475937423089375,9.867878748461788
6480000000.0,21.97,0.0,0.0,0.0,0.3437425258662252,0.23544,9.849632525866225
6485000000.0,21.97,0.0,0.0,0.0,0.35316,0.23514557403665576,9.85905
6490000000.0,21.97,0.0,0.0,0.0,0.35316,0.2266116303023163,9.85905
6495000000.0,21.97,0.0,0.0,0.0,0.35276709536967094,0.27497467847274676,9.859246452315164
6500000000.0,21.97,0.0,0.0,0.0,0.3139201262547012,0.30410987374529874,9.878669621235895
6505000000.0,21.97,0.0,0.0,0.0,0.32363202635182026,0.29439797364817977,9.84953392094454
6510000000.0,21.97,0.0,0.0,0.0,0.32373,0.24623036775530366,9.868467852897878
6515000000.0,21.97,0.0,0.0,0.0,0.34276165309211654,0.22621834690788345,9.859344173453941
6520000000.0,21.97,0.0,0.0,0.0,0.3245145467136455,0.20679454671364547,9.868467726643177
6525000000.0,21.97,0.0,0.0,0.0,0.32373,0.25260813370148133,9.878179626740296
6530000000.0,21.97,0.0,0.0,0.0,0.34217305367483053,0.26428152683741524,9.887891526837414
6535000000.0,21.97,0.0,0.0,0.0,0.3251031461309315,0.2557465730654657,9.870233146130932
6540000000.0,21.97,0.0,0.0,0.0,0.34178065406330654,0.25506,9.859834672968347
6545000000.0,21.97,0.0,0.0,0.0,0.3254955457424555,0.23720554574245548,9.85905
6550000000.0,21.97,0.0,0.0,0.0,0.32373,0.24426912722589128,9.876708254451783
6555000000.0,21.97,0.0,0.0,0.0,0.31499897267698973,0.2103258907079589,9.87867
6560000000.0,21.97,0.0,0.0,0.0,0.3398187822603878,0.24917463710064638,9.87867
6565000000.0,21.97,0.0,0.0,0.0,0.31774551744825513,0.27212965503449654,9.870135172482751
6570000000.0,21.97,0.0,0.0,0.0,0.34766691045746906,0.2662432723856327,9.885733455228735
6575000000.0,21.97,0.0,0.0,0.0,0.3364827445770274,0.2315154891540549,9.871802744577026
6580000000.0,21.97,0.0,0.0,0.0,0.3252994721913947,0.22563,9.86886
6585000000.0,21.97,0.0,0.0,0.0,0.2993027162828272,0.22563,9.877002427905724
6590000000.0,21.97,0.0,0.0,0.0,0.3184329840085299,0.24171865600568657,9.846492687988627
6595000000.0,21.97,0.0,0.0,0.0,0.3157837719000377,0.22935754380007545,9.863268684299886
6600000000.0,21.97,0.0,0.0,0.0,0.3296162563941626,0.24917438459124386,9.86101187180292
6605000000.0,21.97,0.0,0.0,0.0,0.3412900282942003,0.2628100282942003,9.843549943411599
6610000000.0,21.97,0.0,0.0,0.0,0.35865385678263856,0.2725219283913193,9.862385785173958
6615000000.0,21.97,0.0,0.0,0.0,0.34030851453468514,0.24446468604624685,9.86886
6620000000.0,21.97,0.0,0.0,0.0,0.33354,0.21307281424332813,9.86886
6625000000.0,21.97,0.0,0.0,0.0,0.31146711395197113,0.22808288604802887,9.854144742634647
6630000000.0,21.97,0.0,0.0,0.0,0.3258885863393859,0.24269952877979528,9.856499528779795
6635000000.0,21.97,0.0,0.0,0.0,0.3263785711230857,0.2524114288769143,9.851888571123085
6640000000.0,21.97,0.0,0.0,0.0,0.34491998692209985,0.2621233289740333,9.863366657948067
6645000000.0,21.97,0.0,0.0,0.0,0.3461947709288477,0.2509395418576954,9.875825229071152
6650000000.0,21.97,0.0,0.0,0.0,0.34335,0.24525,9.87867
6655000000.0,21.97,0.0,0.0,0.0,0.32981194146921944,0.22494291220382912,9.865131941469219
6660000000.0,21.97,0.0,0.0,0.0,0.3304009293625093,0.24917464681254647,9.865720929362508
6665000000.0,21.97,0.0,0.0,0.0,0.33354,0.2714428294596283,9.86886
6670000000.0,21.97,0.0,0.0,0.0,0.32706527044325273,0.2552558113297581,9.86886
6675000000.0,21.97,0.0,0.0,0.0,0.3364832593077326,0.2580032593077326,9.875236629653866
6680000000.0,21.97,0.0,0.0,0.0,0.3370714702490147,0.2397558809960588,9.859834410747045
6685000000.0,21.97,0.0,0.0,0.0,0.3211791403037914,0.2194495701518957,9.867781289544313
6690000000.0,21.97,0.0,0.0,0.0,0.3260846598904466,0.2401493197808932,9.872587670054777
6695000000.0,21.97,0.0,0.0,0.0,0.33354,0.2610442300423423,9.862875769957657
6700000000.0,21.97,0.0,0.0,0.0,0.33354,0.27664226027892264,9.841391609581617
6705000000.0,21.97,0.0,0.0,0.0,0.35090409070974093,0.2671259092902591,9.846984090709741
6710000000.0,21.97,0.0,0.0,0.0,0.3515901393326014,0.2664398606673986,9.847670139332601
6715000000.0,21.97,0.0,0.0,0.0,0.32657450870754506,0.24672084784590848,9.850613660861637
6720000000.0,21.97,0.0,0.0,0.0,0.31392,0.24211119158381192,9.864543730527938
6725000000.0,21.97,0.0,0.0,0.0,0.30852436937494365,0.2388731081248311,9.863464369374944
6730000000.0,21.97,0.0,0.0,0.0,0.32530012288870125,0.2574151843330519,9.864347530722176
6735000000.0,21.97,0.0,0.0,0.0,0.3381505691807057,0.2688917075421171,9.86886
6740000000.0,21.97,0.0,0.0,0.0,0.33354,0.2499586690835867,9.873961330916414
6745000000.0,21.97,0.0,0.0,0.0,0.33354,0.2552564620270646,9.868663537972935
6750000000.0,21.97,0.0,0.0,0.0,0.33354,0.25015460666804606,9.873765393331954
6755000000.0,21.97,0.0,0.0,0.0,0.33354,0.21621187516891877,9.87886593758446
6760000000.0,21.97,0.0,0.0,0.0,0.3476667939146679,0.2244535878293359,9.86415106869511
6765000000.0,21.97,0.0,0.0,0.0,0.34913750579397507,0.25506,9.85905
6770000000.0,21.97,0.0,0.0,0.0,0.33354,0.2595727314991273,9.85905
6775000000.0,21.97,0.0,0.0,0.0,0.33354,0.26045536840375366,9.872293894788738
6780000000.0,21.97,0.0,0.0,0.0,0.32490693661326936,0.24642693661326937,9.88848
6785000000.0,21.97,0.0,0.0,0.0,0.31392,0.24387686358096863,9.880043136419031
6790000000.0,21.97,0.0,0.0,0.0,0.32628099566280994,0.2633006637752066,9.86886
6795000000.0,21.97,0.0,0.0,0.0,0.33530553603055535,0.27468,9.860815536030556
6800000000.0,21.97,0.0,0.0,0.0,0.3198058679181587,0.2589834716726347,9.845315867918158
6805000000.0,21.97,0.0,0.0,0.0,0.32539809653688095,0.24309206435792066,9.84325603217896
6810000000.0,21.97,0.0,0.0,0.0,0.34335,0.24760413544784135,9.867879661380396
6815000000.0,21.97,0.0,0.0,0.0,0.3397201676268017,0.23544,9.901919832373197
6820000000.0,21.97,0.0,0.0,0.0,0.3300082675296827,0.23897173247031733,9.897504802589047
6825000000.0,21.97,0.0,0.0,0.0,0.32373,0.25211726513487265,9.868369102297692
6830000000.0,21.97,0.0,0.0,0.0,0.3203944673354447,0.2682055326645553,9.862582130658222
6835000000.0,21.97,0.0,0.0,0.0,0.3203948655233486,0.2617302689533027,9.878767701714976
6840000000.0,21.97,0.0,0.0,0.0,0.33354,0.22602200142362003,9.85905
6845000000.0,21.97,0.0,0.0,0.0,0.33354,0.2181749318236493,9.865132465911824
6850000000.0,21.97,0.0,0.0,0.0,0.33354,0.25113626610606266,9.869840600840906
6855000000.0,21.97,0.0,0.0,0.0,0.33638503315015034,0.27056006630030066,9.857775099450452
6860000000.0,21.97,0.0,0.0,0.0,0.3460969332472693,0.2789961335054614,9.873176133505462
6865000000.0,21.97,0.0,0.0,0.0,0.34256466662244667,0.2595723333112233,9.85905
6870000000.0,21.97,0.0,0.0,0.0,0.3113692665584926,0.24269926655849267,9.856499266558492
6875000000.0,21.97,0.0,0.0,0.0,0.3090152670772527,0.23789263353862633,9.854145267077252
6880000000.0,21.97,0.0,0.0,0.0,0.3213754663642547,0.24525,9.86886
6885000000.0,21.97,0.0,0.0,0.0,0.31392,0.24750643373286432,9.866603566267136
6890000000.0,21.97,0.0,0.0,0.0,0.32255333531993335,0.2572183338299833,9.856891666170016
6895000000.0,21.97,0.0,0.0,0.0,0.34697929821869294,0.26280976607289763,9.851300233927102
6900000000.0,21.97,0.0,0.0,0.0,0.32569213402422137,0.25898426804844266,9.857087865975778
6905000000.0,21.97,0.0,0.0,0.0,0.33540403412134034,0.27281596587865964,9.84737596587866
6910000000.0,21.97,0.0,0.0,0.0,0.3398181315630813,0.26310406578154066,9.844727802655378
6915000000.0,21.97,0.0,0.0,0.0,0.32373,0.250056497053265,9.86886
6920000000.0,21.97,0.0,0.0,0.0,0.3252997344126974,0.23033920323809204,9.867290265587302
6925000000.0,21.97,0.0,0.0,0.0,0.3364832690196327,0.2580032690196327,9.860521634509816
6930000000.0,21.97,0.0,0.0,0.0,0.3504129307861293,0.27330646539306463,9.872980603820805
6935000000.0,21.97,0.0,0.0,0.0,0.33481543470405434,0.26104369588783694,9.893188261183782
6940000000.0,21.97,0.0,0.0,0.0,0.34217266519882666,0.23897200440352007,9.861404669602347
6945000000.0,21.97,0.0,0.0,0.0,0.33246076510170763,0.26055306040683057,9.875432295305123
6950000000.0,21.97,0.0,0.0,0.0,0.32373,0.22661113499541136,9.84924
6955000000.0,21.97,0.0,0.0,0.0,0.32461303509253037,0.2372060701850607,9.84924
6960000000.0,21.97,0.0,0.0,0.0,0.33197012962070127,0.25584493518964935,9.84845506481035
6965000000.0,21.97,0.0,0.0,0.0,0.3152936705735367,0.2634963294264633,9.842177341147073
6970000000.0,21.97,0.0,0.0,0.0,0.3347174707677747,0.24525,9.87867
6975000000.0,21.97,0.0,0.0,0.0,0.3511974580759746,0.24525,9.877688729037986
6980000000.0,21.97,0.0,0.0,0.0,0.31431253557812533,0.24525,9.859442535578125
6985000000.0,21.97,0.0,0.0,0.0,0.32373,0.24525,9.867387821623778
6990000000.0,21.97,0.0,0.0,0.0,0.3235336642276367,0.24525,9.820595343089455
6995000000.0,21.97,0.0,0.0,0.0,0.3141164717389647,0.24544647173896472,9.858853528261035
7000000000.0,21.97,0.0,0.0,0.0,0.33353986403339864,0.2648698640333986,9.839430271933203
7005000000.0,21.97,0.0,0.0,0.0,0.32382796393627966,0.25515796393627965,9.858854072127441
7010000000.0,21.97,0.0,0.0,0.0,0.31411606383916063,0.2742878723216787,9.85905
7015000000.0,21.97,0.0,0.0,0.0,0.34246750877387505,0.2461324912261249,9.849534163742042
7020000000.0,21.97,0.0,0.0,0.0,0.3339322636449226,0.22641452728984526,9.84924
7025000000.0,21.97,0.0,0.0,0.0,0.31490072709560724,0.23494963645219638,9.867879272904393
7030000000.0,21.97,0.0,0.0,0.0,0.3508061461972614,0.23544,9.878081536549315
7035000000.0,21.97,0.0,0.0,0.0,0.34403656335356564,0.25368687329286876,9.860423126707131
7040000000.0,21.97,0.0,0.0,0.0,0.34335,0.2640853367435534,9.88612601023066
7045000000.0,21.97,0.0,0.0,0.0,0.3165682894779829,0.28272447368134473,9.88848
7050000000.0,21.97,0.0,0.0,0.0,0.33157827387558275,0.24917345224883453,9.861992589186626
7055000000.0,21.97,0.0,0.0,0.0,0.31607792593017925,0.21032585186035851,9.86778103703491
7060000000.0,21.97,0.0,0.0,0.0,0.34845174852811744,0.22327587426405873,9.86022706286797
7065000000.0,21.97,0.0,0.0,0.0,0.3275554883125549,0.23416483722914838,9.850515162770852
7070000000.0,21.97,0.0,0.0,0.0,0.32373,0.2607502119788021,9.84924
7075000000.0,21.97,0.0,0.0,0.0,0.34040727484677274,0.27320863742338636,9.84924
7080000000.0,21.97,0.0,0.0,0.0,0.34335,0.2829205375205054,9.857480537520505
7085000000.0,21.97,0.0,0.0,0.0,0.3596348752352488,0.2600626871471269,9.875334875235248
7090000000.0,21.97,0.0,0.0,0.0,0.3307926491410265,0.24701566228525662,9.87867
7095000000.0,21.97,0.0,0.0,0.0,0.3316762378118624,0.24525,9.87867
7100000000.0,21.97,0.0,0.0,0.0,0.33354,0.23740186209101863,9.870821862091018
7105000000.0,21.97,0.0,0.0,0.0,0.34129003800610036,0.24319003800610037,9.86886
7110000000.0,21.97,0.0,0.0,0.0,0.32804612379356124,0.2605538762064388,9.86886
7115000000.0,21.97,0.0,0.0,0.0,0.3312838382003384,0.24976232359932324,9.86886
7120000000.0,21.97,0.0,0.0,0.0,0.3260842617025426,0.23779426170254261,9.86886
7125000000.0,21.97,0.0,0.0,0.0,0.3090147232108472,0.23544,9.854144723210847
7130000000.0,21.97,0.0,0.0,0.0,0.31862907698339077,0.24269953849169537,9.83472092301661
7135000000.0,21.97,0.0,0.0,0.0,0.30224568423355685,0.2595728771776288,9.815297122822372
7140000000.0,21.97,0.0,0.0,0.0,0.2660466452562665,0.2789966773718668,9.81
7145000000.0,21.97,-0.0037795858038042257,0.009826923089890973,0.0,0.3177471490474715,-0.16825052089840525,9.775173806084737
7150000000.0,21.97,-0.02098615569057112,0.035465527743213196,0.0,0.3364828611198286,-0.5866427219258272,9.925761333124113
7155000000.0,21.97,0.0031799257376429017,0.11603950480676628,0.0,-0.01845002681910024,-0.11810072590760723,9.98285192204542
7160000000.0,21.97,0.07354586179609478,0.1567614657440326,-0.004343866002416848,-1.303968703575187,0.7377245166968451,10.143543476860236
7165000000.0,21.97,0.07943124132732325,0.17940784821587166,-0.004961242723954471,-1.8936255525437555,1.1516967834305678,10.136573090770131
7170000000.0,21.97,0.04955052121006781,0.07253583180748994,0.0006601893240604957,-2.6673550158944503,1.099894693164347,10.308156395865366
7175000000.0,21.97,-0.009747865575990472,-0.057846118224233675,0.005270067051283927,-2.1900636856215367,1.1482628692180288,10.035621638054018
7180000000.0,21.97,-0.05258015254576185,-0.23563442177300212,0.007750688413261196,-2.1032723677731235,0.5097121196197212,9.999140565497907
7185000000.0,21.97,-0.10003912228804647,-0.4088765809738214,0.006504971216980704,-0.13964527487845269,-0.6362936263205364,9.909076813199869
7190000000.0,21.97,-0.08749778759442242,-0.3680210535647911,0.0020227608201489615,1.4177476242276763,-1.018276603428766,9.392673242972732
7195000000.0,21.97,-0.006911170081373881,-0.23614204621424406,0.0006494521817896013,2.690320114780601,-0.41249722334697225,9.507958625008786
7200000000.0,21.97,0.06860280755860958,-0.045797513266241596,-0.0027681832596384987,3.276537202972772,0.8691878168123781,9.135057595309776
7205000000.0,21.97,0.09248531575262463,0.05698324728566648,-0.0034387766605965073,2.729228764173088,1.7707119974240202,9.083970436857305
7210000000.0,21.97,0.027350520239678155,0.1779479029948212,-0.0008942763112365266,2.431899700227997,1.7840419784952202,8.606687614208875
7215000000.0,21.97,-0.06168169904563507,0.2632749195673509,0.0006068661902011151,1.585764777878648,0.3228138861757388,8.625848493843685
7220000000.0,21.97,-0.1289381441571853,0.2797019749676025,-0.0013202279254995303,-0.10087316508943156,-1.3141638678211387,9.073466181678862
7225000000.0,21.97,-0.09389621044513727,0.2590775660956174,-0.0014372329479289288,-1.2900248235869483,-1.453342097423921,9.864465287510853
7230000000.0,21.97,0.03044990352680607,0.10797394360176142,-0.0005749266965097505,-1.8268242386652425,-0.05039404927824043,10.635221132154111
7235000000.0,21.97,0.09493410407534943,-0.028924610226381164,-0.003321771638167122,-1.5373120305989203,1.7194210444599105,10.304019233254893
7240000000.0,21.97,0.03988408759514518,-0.07418675568722025,-0.002555085715005059,-0.6085986184252863,1.886251190257212,9.92889804376988
7245000000.0,21.97,-0.04211492193590117,-0.07642111289063282,0.0021719488112735947,-0.14715,0.5330520395782206,9.74701388953184
7250000000.0,21.97,-0.08202208467540179,-0.04474099550019009,0.005855625489629943,-0.48069957593349577,-0.554273308530533,9.667758520563785
