#timestamp [ns], temperature [degC], w_RS_S_x [rad s^-1], w_RS_S_y [rad s^-1], w_RS_S_z [rad s^-1], a_RS_S_x [m s^-2], a_RS_S_y [m s^-2], a_RS_S_z [m s^-2]
0.0,22.09,0.0,0.0,0.0,0.04905,0.31392,9.9081
5000000.0,22.09,0.0,0.0,0.0,0.068473800194238,0.352767600388476,9.9081
10000000.0,22.09,0.0,0.0,0.0,0.078283800194238,0.333932399611524,9.9081
15000000.0,22.09,0.0,0.0,0.0,0.07848,0.36208710087407103,9.9081
20000000.0,22.09,0.0,0.0,0.0,0.087897600388476,0.35355239961152396,9.86101199805762
25000000.0,22.09,0.0,0.0,0.0,0.060331498543214984,0.33452099902881,9.887008501456785
30000000.0,22.09,0.0,0.0,0.0,0.08652420174814202,0.324318599417286,9.897701400582713
35000000.0,22.09,0.0,0.0,0.0,0.08829,0.332853300679833,9.916536601359665
40000000.0,22.09,0.0,0.0,0.0,0.06121439766914398,0.33354,9.881809196892192
45000000.0,22.09,0.0,0.0,0.0,0.07671420174814202,0.324612899125929,9.87867
50000000.0,22.09,0.0,0.0,0.0,0.07848,0.32373,9.86984099902881
55000000.0,22.09,0.0,0.0,0.0,0.087210901068309,0.34119180213661804,9.895052703204927
60000000.0,22.09,0.0,0.0,0.0,0.07102439766914397,0.34335,9.881024397669144
65000000.0,22.09,0.0,0.0,0.0,0.09427410378764105,0.351884701262547,9.895739402525093
70000000.0,22.09,0.0,0.0,0.0,0.055916993201669936,0.34472339864033397,9.906726601359665
75000000.0,22.09,0.0,0.0,0.0,0.07406550437035504,0.335011498543215,9.89142299708643
80000000.0,22.09,0.0,0.0,0.0,0.07848,0.325299598446096,9.91320120466171
85000000.0,22.09,0.0,0.0,0.0,0.054053095046930955,0.331872301651023,9.901625396697954
90000000.0,22.09,0.0,0.0,0.0,0.05709420174814202,0.349628403496284,9.890245798251858
95000000.0,22.09,0.0,0.0,0.0,0.066806101845261,0.34521389815473896,9.896426101845261
100000000.0,22.09,0.0,0.0,0.0,0.06867,0.32765399611524,9.89044199805762
105000000.0,22.09,0.0,0.0,0.0,0.06867,0.34697970611849704,9.872980195921002
110000000.0,22.09,0.0,0.0,0.0,0.06867,0.3225527914535279,9.876511802136617
115000000.0,22.09,0.0,0.0,0.0,0.06867,0.32147370223373706,9.871116297766262
120000000.0,22.09,0.0,0.0,0.0,0.08358120466171204,0.31627439766914395,9.876315602330855
125000000.0,22.09,0.0,0.0,0.0,0.07357499514404994,0.33599250728392505,9.886027502427975
130000000.0,22.09,0.0,0.0,0.0,0.07592940252509402,0.336090597474906,9.88848
135000000.0,22.09,0.0,0.0,0.0,0.04983478951114789,0.347862605244426,9.895641302622213
140000000.0,22.09,0.0,0.0,0.0,0.053366405438664055,0.31784398640333983,9.912416405438663
145000000.0,22.09,0.0,0.0,0.0,0.07975530844935308,0.34590061689870616,9.883084485917744
150000000.0,22.09,0.0,0.0,0.0,0.06768899125928991,0.36297,9.86199299708643
155000000.0,22.09,0.0,0.0,0.0,0.05886,0.3358943879572439,9.886125612042756
160000000.0,22.09,0.0,0.0,0.0,0.06553080310780802,0.3437424093234241,9.891619196892192
165000000.0,22.09,0.0,0.0,0.0,0.042379187180291863,0.31372378077043783,9.88848
170000000.0,22.09,0.0,0.0,0.0,0.05532841320818413,0.31372380990613813,9.907903809906138
175000000.0,22.09,0.0,0.0,0.0,0.06867,0.3046004898025049,9.886027483004174
180000000.0,22.09,0.0,0.0,0.0,0.06867,0.33824882447398824,9.881416806992569
185000000.0,22.09,0.0,0.0,0.0,0.06248969640659696,0.35678969640659697,9.882299696406596
190000000.0,22.09,0.0,0.0,0.0,0.07102440738104407,0.36532440738104405,9.884752203690521
195000000.0,22.09,0.0,0.0,0.0,0.07848,0.35482768863707687,9.876511792424717
200000000.0,22.09,0.0,0.0,0.0,0.07848,0.3315779922304799,9.89240401553904
205000000.0,22.09,0.0,0.0,0.0,0.07269209601812096,0.31794209601812096,9.90231209601812
210000000.0,22.09,0.0,0.0,0.0,0.06867,0.3252996081579961,9.892600195921002
215000000.0,22.09,0.0,0.0,0.0,0.07426170417611704,0.3223565916477659,9.88848
220000000.0,22.09,0.0,0.0,0.0,0.08397360427323604,0.3249072085464721,9.88848
225000000.0,22.09,0.0,0.0,0.0,0.07749899125928991,0.33354,9.877688991259289
230000000.0,22.09,0.0,0.0,0.0,0.07396740446747405,0.328242595532526,9.874157404467473
235000000.0,22.09,0.0,0.0,0.0,0.07848,0.33412860912918607,9.868271390870813
240000000.0,22.09,0.0,0.0,0.0,0.07848,0.3331475906765759,9.874353613985136
245000000.0,22.09,0.0,0.0,0.0,0.08848620951766209,0.32373,9.903489314276493
250000000.0,22.09,0.0,0.0,0.0,0.08338498543214985,0.31882499514404994,9.908099990288099
255000000.0,22.09,0.0,0.0,0.0,0.07347690495306905,0.32834071485920713,9.903096904953069
260000000.0,22.09,0.0,0.0,0.0,0.07848,0.33864119494981193,9.912808805050187
265000000.0,22.09,0.0,0.0,0.0,0.07386929485269295,0.33815070514730705,9.881024358821543
270000000.0,22.09,0.0,0.0,0.0,0.06415739475557394,0.34335,9.843942605244425
275000000.0,22.09,0.0,0.0,0.0,0.05886,0.33893549465845496,9.871312526707724
280000000.0,22.09,0.0,0.0,0.0,0.05886,0.31627437824534377,9.902606405438663
285000000.0,22.09,0.0,0.0,0.0,0.07151491660734917,0.30273661107156613,9.899663388928433
290000000.0,22.09,0.0,0.0,0.0,0.08004958873419588,0.31804020563290203,9.896720411265804
295000000.0,22.09,0.0,0.0,0.0,0.06867,0.32373,9.900055788539957
300000000.0,22.09,0.0,0.0,0.0,0.07259400582714005,0.33550201748142017,9.88848
305000000.0,22.09,0.0,0.0,0.0,0.07082818815148188,0.35316,9.892305905924259
310000000.0,22.09,0.0,0.0,0.0,0.06258780602137806,0.3494321939786219,9.887106581935866
315000000.0,22.09,0.0,0.0,0.0,0.07229970611849705,0.3506094122369941,9.872489706118497
320000000.0,22.09,0.0,0.0,0.0,0.07848,0.3488435751375358,9.885733212431232
325000000.0,22.09,0.0,0.0,0.0,0.08191350631273506,0.33059701262547014,9.89142298737453
330000000.0,22.09,0.0,0.0,0.0,0.07494837436058374,0.3400145935901459,9.882005406409853
335000000.0,22.09,0.0,0.0,0.0,0.05552461301394613,0.33030269349302693,9.898191919520919
340000000.0,22.09,0.0,0.0,0.0,0.06553079339590794,0.3268692066040921,9.908492380187724
345000000.0,22.09,0.0,0.0,0.0,0.05886,0.33354,9.882397786597577
350000000.0,22.09,0.0,0.0,0.0,0.05886,0.33354,9.871803006798329
355000000.0,22.09,0.0,0.0,0.0,0.061704906895449066,0.3306950931045509,9.870135279313653
360000000.0,22.09,0.0,0.0,0.0,0.07141680699256807,0.32373,9.865720841955408
365000000.0,22.09,0.0,0.0,0.0,0.07583129291031292,0.32373,9.9081
370000000.0,22.09,0.0,0.0,0.0,0.06867,0.32628060718680607,9.905549392813192
375000000.0,22.09,0.0,0.0,0.0,0.07112250728392507,0.32863498543214986,9.905647521851774
380000000.0,22.09,0.0,0.0,0.0,0.07848,0.31862881476208815,9.91594796309478
385000000.0,22.09,0.0,0.0,0.0,0.07848,0.33354,9.874157385043674
390000000.0,22.09,0.0,0.0,0.0,0.07632179242471791,0.33569820757528207,9.861208207575283
395000000.0,22.09,0.0,0.0,0.0,0.06660989232759892,0.34335,9.86886
400000000.0,22.09,0.0,0.0,0.0,0.05886,0.3453120077695201,9.866897992230479
405000000.0,22.09,0.0,0.0,0.0,0.056996092133360925,0.34570436853344366,9.860913907866639
410000000.0,22.09,0.0,0.0,0.0,0.05258161592751616,0.31392,9.872391615927516
415000000.0,22.09,0.0,0.0,0.0,0.06700229193912291,0.31392,9.890147708060876
420000000.0,22.09,0.0,0.0,0.0,0.05886,0.31548960815799604,9.895150783684008
425000000.0,22.09,0.0,0.0,0.0,0.06327452476534524,0.3252015082551151,9.880141508255115
430000000.0,22.09,0.0,0.0,0.0,0.08554318329553183,0.33628681670446814,9.884359774943297
435000000.0,22.09,0.0,0.0,0.0,0.06867,0.3493340746519407,9.860325308449353
440000000.0,22.09,0.0,0.0,0.0,0.06984720854647208,0.3249072085464721,9.872391625639416
445000000.0,22.09,0.0,0.0,0.0,0.07955910864359109,0.33354,9.89829
450000000.0,22.09,0.0,0.0,0.0,0.08829,0.3345210087407101,9.900252017481419
455000000.0,22.09,0.0,0.0,0.0,0.08475836464868364,0.3415841823243418,9.914378364648682
460000000.0,22.09,0.0,0.0,0.0,0.05140442680484427,0.3260844268048443,9.87867
465000000.0,22.09,0.0,0.0,0.0,0.0777932909679329,0.3524732909679329,9.87867
470000000.0,22.09,0.0,0.0,0.0,0.06867,0.34393860912918606,9.876315563483255
475000000.0,22.09,0.0,0.0,0.0,0.06817949077369491,0.35266949077369486,9.84041101845261
480000000.0,22.09,0.0,0.0,0.0,0.0592524093234241,0.3425651813531518,9.860227227970272
485000000.0,22.09,0.0,0.0,0.0,0.06925861884108618,0.32373,9.888185690579457
490000000.0,22.09,0.0,0.0,0.0,0.0878975809646758,0.32353379048233794,9.879062419035323
495000000.0,22.09,0.0,0.0,0.0,0.0685718903852189,0.3141162192295622,9.89838810961478
500000000.0,22.09,0.0,0.0,0.0,0.058860019423800196,0.3335400291357003,9.9080999805762
505000000.0,22.09,0.0,0.0,0.0,0.0782838196180382,0.3626757294270573,9.888676180381962
510000000.0,22.09,0.0,0.0,0.0,0.0688661900938619,0.36297,9.869252380187724
515000000.0,22.09,0.0,0.0,0.0,0.0781857100032571,0.3344228699902287,9.859344289996743
520000000.0,22.09,0.0,0.0,0.0,0.0502271696988717,0.34295761010037606,9.868467610100376
525000000.0,22.09,0.0,0.0,0.0,0.08632804078998041,0.3526695101974951,9.878179510197494
530000000.0,22.09,0.0,0.0,0.0,0.07906858970538588,0.3254957691161577,9.869448589705385
535000000.0,22.09,0.0,0.0,0.0,0.051110068824800695,0.3054833792165338,9.887106620783467
540000000.0,22.09,0.0,0.0,0.0,0.05807521048885211,0.32216042097770425,9.906530420977704
545000000.0,22.09,0.0,0.0,0.0,0.07671422117194221,0.32373,9.890245778828056
550000000.0,22.09,0.0,0.0,0.0,0.0873090106830901,0.33255901068309013,9.870821978633819
555000000.0,22.09,0.0,0.0,0.0,0.07082817843958178,0.3248090892197909,9.903783643120835
560000000.0,22.09,0.0,0.0,0.0,0.08593562175465622,0.3064643782453438,9.873568756490688
565000000.0,22.09,0.0,0.0,0.0,0.07975528902555289,0.31264471097444707,9.851790578051105
570000000.0,22.09,0.0,0.0,0.0,0.07004338892843388,0.31392,9.882986444286264
575000000.0,22.09,0.0,0.0,0.0,0.06867,0.32225851116868515,9.90515702233737
580000000.0,22.09,0.0,0.0,0.0,0.08515082253160822,0.32373,9.9081
585000000.0,22.09,0.0,0.0,0.0,0.07200537727415376,0.3318723113629231,9.899957688637077
590000000.0,22.09,0.0,0.0,0.0,0.060625788539957884,0.3415842114600421,9.890245788539957
595000000.0,22.09,0.0,0.0,0.0,0.08269833467148334,0.3512961115571611,9.880533888442839
600000000.0,22.09,0.0,0.0,0.0,0.07259397669143976,0.34531198834571986,9.87082198834572
605000000.0,22.09,0.0,0.0,0.0,0.07641991175139912,0.34335,9.86886
610000000.0,22.09,0.0,0.0,0.0,0.06317637630296376,0.3280463763029638,9.891815435545555
615000000.0,22.09,0.0,0.0,0.0,0.04375257610872576,0.3312837119456371,9.890736288054363
620000000.0,22.09,0.0,0.0,0.0,0.06160683612826835,0.34099561204275614,9.895935612042756
625000000.0,22.09,0.0,0.0,0.0,0.06867,0.34335,9.89829
630000000.0,22.09,0.0,0.0,0.0,0.07592941223699412,0.34335,9.891030587763005
635000000.0,22.09,0.0,0.0,0.0,0.07131868766588687,0.3361886876658869,9.881318687665887
640000000.0,22.09,0.0,0.0,0.0,0.061606787568767876,0.33354,9.87867
645000000.0,22.09,0.0,0.0,0.0,0.08672045011340451,0.33354,9.899565337585052
650000000.0,22.09,0.0,0.0,0.0,0.09123298737452987,0.3266729873745299,9.91496701262547
655000000.0,22.09,0.0,0.0,0.0,0.06798326183223262,0.31696108727741085,9.897603261832232
660000000.0,22.09,0.0,0.0,0.0,0.07220162563941625,0.32059081281970814,9.881809187180291
665000000.0,22.09,0.0,0.0,0.0,0.07190728708317287,0.32373,9.891815425833654
670000000.0,22.09,0.0,0.0,0.0,0.06867,0.32373,9.885340773972107
675000000.0,22.09,0.0,0.0,0.0,0.07504651311106512,0.34923605244426054,9.872293486888935
680000000.0,22.09,0.0,0.0,0.0,0.09103682641636826,0.3504131735836317,9.86886
685000000.0,22.09,0.0,0.0,0.0,0.08573937338939373,0.34335,9.86886
690000000.0,22.09,0.0,0.0,0.0,0.07239778659757785,0.34335,9.874942213402422
695000000.0,22.09,0.0,0.0,0.0,0.07465411349954112,0.34335,9.890638226999082
700000000.0,22.09,0.0,0.0,0.0,0.060821959210019594,0.35512202719332026,9.90417601359666
705000000.0,22.09,0.0,0.0,0.0,0.06062582738755827,0.3456062589186626,9.9081
710000000.0,22.09,0.0,0.0,0.0,0.07435981379089814,0.3221603724182037,9.891030558627305
715000000.0,22.09,0.0,0.0,0.0,0.06729657222396572,0.31951171388801713,9.873078286111982
720000000.0,22.09,0.0,0.0,0.0,0.06435361398513614,0.31823638601486387,9.863366386014864
725000000.0,22.09,0.0,0.0,0.0,0.06327448591774486,0.31392,9.864445514082256
730000000.0,22.09,0.0,0.0,0.0,0.06945482835874828,0.31921741417937416,9.86886
735000000.0,22.09,0.0,0.0,0.0,0.07328068572350685,0.32373,9.88445794282948
740000000.0,22.09,0.0,0.0,0.0,0.06867,0.3288312143736122,9.903391214373611
745000000.0,22.09,0.0,0.0,0.0,0.07367311447073113,0.33854311447073115,9.903096885529267
750000000.0,22.09,0.0,0.0,0.0,0.07848,0.33844498543214985,9.90319501456785
755000000.0,22.09,0.0,0.0,0.0,0.07848,0.33834691466496913,9.9081
760000000.0,22.09,0.0,0.0,0.0,0.07377118523791185,0.34335,9.88455592618956
765000000.0,22.09,0.0,0.0,0.0,0.06867,0.35718214457762143,9.872882144577622
770000000.0,22.09,0.0,0.0,0.0,0.06867,0.3547295401746954,9.892992614956325
775000000.0,22.09,0.0,0.0,0.0,0.06867,0.33354,9.893875484946554
780000000.0,22.09,0.0,0.0,0.0,0.06435358484943585,0.3249071696988717,9.88848
785000000.0,22.09,0.0,0.0,0.0,0.0672966304953663,0.31813831524768316,9.884261684752316
790000000.0,22.09,0.0,0.0,0.0,0.0867204306896043,0.33609064603440647,9.891030646034405
795000000.0,22.09,0.0,0.0,0.0,0.09005576911615769,0.34109365367423655,9.896033653674236
800000000.0,22.09,0.0,0.0,0.0,0.07848,0.34335007769520076,9.88651803107808
805000000.0,22.09,0.0,0.0,0.0,0.08613183127231831,0.36512816872768167,9.886812253091522
810000000.0,22.09,0.0,0.0,0.0,0.09064436853344368,0.34570436853344366,9.876315631466555
815000000.0,22.09,0.0,0.0,0.0,0.07122056833920568,0.33354,9.88848
820000000.0,22.09,0.0,0.0,0.0,0.051796768144967684,0.33000838407248384,9.899074847782547
825000000.0,22.09,0.0,0.0,0.0,0.03924,0.32029648397536487,9.900742419876824
830000000.0,22.09,0.0,0.0,0.0,0.04924624836526248,0.32392624836526246,9.86886
835000000.0,22.09,0.0,0.0,0.0,0.05895805134338051,0.3336380513433805,9.875334632437745
840000000.0,22.09,0.0,0.0,0.0,0.04865764894797649,0.31705921631599215,9.882201567368016
845000000.0,22.09,0.0,0.0,0.0,0.06867,0.3358944656524447,9.881024465652445
850000000.0,22.09,0.0,0.0,0.0,0.06572698348976984,0.35119793395907933,9.90515698348977
855000000.0,22.09,0.0,0.0,0.0,0.06454983321469833,0.32373,9.89829
860000000.0,22.09,0.0,0.0,0.0,0.08122681670446816,0.3209831832955318,9.892796366591064
865000000.0,22.09,0.0,0.0,0.0,0.08299256639682566,0.31656871680158716,9.88661615040476
870000000.0,22.09,0.0,0.0,0.0,0.0763218506961185,0.33138185069611853,9.897897532405175
875000000.0,22.09,0.0,0.0,0.0,0.09319496600834966,0.34825496600834965,9.86886
880000000.0,22.09,0.0,0.0,0.0,0.07377116581411165,0.33354,9.873568834185887
885000000.0,22.09,0.0,0.0,0.0,0.06562895157018951,0.32902736561987367,9.88848
890000000.0,22.09,0.0,0.0,0.0,0.08397356542563565,0.3117617827128178,9.882005348138453
895000000.0,22.09,0.0,0.0,0.0,0.07485035215290352,0.30617011738430117,9.863170234768603
900000000.0,22.09,0.0,0.0,0.0,0.09221394755573947,0.3119579825185798,9.88063201748142
905000000.0,22.09,0.0,0.0,0.0,0.06494216484292165,0.3115656703141567,9.892207835157079
910000000.0,22.09,0.0,0.0,0.0,0.05081581767565818,0.3451158176756582,9.906334182324342
915000000.0,22.09,0.0,0.0,0.0,0.05719228222722283,0.3514922822272228,9.893286846681669
920000000.0,22.09,0.0,0.0,0.0,0.05061961786989618,0.34335,9.86886
925000000.0,22.09,0.0,0.0,0.0,0.06180303593403036,0.34482151796701516,9.86886
930000000.0,22.09,0.0,0.0,0.0,0.07985341806413418,0.34766632774346323,9.872980254192402
935000000.0,22.09,0.0,0.0,0.0,0.08573936367749363,0.31774595448375953,9.90211595448376
940000000.0,22.09,0.0,0.0,0.0,0.06867,0.3421727817416278,9.925365563483256
945000000.0,22.09,0.0,0.0,0.0,0.06867,0.33569823671098237,9.905941763289016
950000000.0,22.09,0.0,0.0,0.0,0.06867,0.35316,9.89142305535783
955000000.0,22.09,0.0,0.0,0.0,0.06955291854972918,0.3522770814502708,9.913495407251354
960000000.0,22.09,0.0,0.0,0.0,0.07691036270630362,0.3425651813531518,9.869644818646847
965000000.0,22.09,0.0,0.0,0.0,0.05954671874396719,0.3356001562319016,9.877983281256032
970000000.0,22.09,0.0,0.0,0.0,0.06749276231782762,0.36120414347674146,9.871214475364344
975000000.0,22.09,0.0,0.0,0.0,0.05052155681461557,0.3325589621235896,9.907609481061794
980000000.0,22.09,0.0,0.0,0.0,0.07769516192935161,0.31392,9.89750516192935
985000000.0,22.09,0.0,0.0,0.0,0.05856568086755681,0.31480295739732955,9.87955295739733
990000000.0,22.09,0.0,0.0,0.0,0.049246219229562196,0.3435462192295622,9.907903780770438
995000000.0,22.09,0.0,0.0,0.0,0.059154357980043586,0.3530618806733188,9.898093761346637
1000000000.0,22.09,0.0,0.0,0.0,0.0882899805761998,0.3433499805761998,9.878669961152399
1005000000.0,22.09,0.0,0.0,0.0,0.0785780804790808,0.33363808047908083,9.859246160958161
1010000000.0,22.09,0.0,0.0,0.0,0.07848,0.3623814588541146,9.868663819618037
1015000000.0,22.09,0.0,0.0,0.0,0.04993284085452841,0.35345428028484277,9.897407159145471
1020000000.0,22.09,0.0,0.0,0.0,0.0584676198122762,0.32490714056317144,9.907707619812275
1025000000.0,22.09,0.0,0.0,0.0,0.07749903981879039,0.32373,9.889460960181209
1030000000.0,22.09,0.0,0.0,0.0,0.07848,0.3145085799934858,9.916144260019541
1035000000.0,22.09,0.0,0.0,0.0,0.06935667989636679,0.3412899603108996,9.881416719585467
1040000000.0,22.09,0.0,0.0,0.0,0.0596447797992478,0.3343247797992478,9.88769522020075
1045000000.0,22.09,0.0,0.0,0.0,0.05886,0.3603213608936136,9.88848
1050000000.0,22.09,0.0,0.0,0.0,0.0676890203949902,0.34531195921001956,9.87965097960501
1055000000.0,22.09,0.0,0.0,0.0,0.0774009204921092,0.34335,9.861208159015781
1060000000.0,22.09,0.0,0.0,0.0,0.07848,0.34335,9.876315641178456
1065000000.0,22.09,0.0,0.0,0.0,0.061410558627305586,0.30921111725461115,9.861600558627305
1070000000.0,22.09,0.0,0.0,0.0,0.05886,0.3294198623503986,9.901233103917331
1075000000.0,22.09,0.0,0.0,0.0,0.0671985208805852,0.3418785208805852,9.891422958238829
1080000000.0,22.09,0.0,0.0,0.0,0.0769104209777042,0.33510957902229577,9.88848
1085000000.0,22.09,0.0,0.0,0.0,0.0866223210748232,0.33354,9.896622321074823
1090000000.0,22.09,0.0,0.0,0.0,0.07220155765611558,0.3496284423438844,9.874157336484172
1095000000.0,22.09,0.0,0.0,0.0,0.07661612126906121,0.3372677574618776,9.900644485076244
1100000000.0,22.09,0.0,0.0,0.0,0.09417604273236044,0.31784395726763953,9.89240395726764
1105000000.0,22.09,0.0,0.0,0.0,0.06710031414680315,0.31392,9.8807300785367
1110000000.0,22.09,0.0,0.0,0.0,0.05886,0.3292236431208364,9.909277286241672
1115000000.0,22.09,0.0,0.0,0.0,0.051306278342462784,0.3410937216575372,9.895248835027388
1120000000.0,22.09,0.0,0.0,0.0,0.04905,0.34335,9.895935621754656
1125000000.0,22.09,0.0,0.0,0.0,0.04905,0.35806504370355047,9.8688599125929
1130000000.0,22.09,0.0,0.0,0.0,0.07082826584668266,0.33393231220442315,9.866309421948895
1135000000.0,22.09,0.0,0.0,0.0,0.07131867795398678,0.33089132204601324,9.86886
1140000000.0,22.09,0.0,0.0,0.0,0.06867,0.3264767778568678,9.882986444286264
1145000000.0,22.09,0.0,0.0,0.0,0.06867,0.31676487775974876,9.88848
1150000000.0,22.09,0.0,0.0,0.0,0.05493595532525955,0.32765404467474046,9.90908106701211
1155000000.0,22.09,0.0,0.0,0.0,0.06258784486897845,0.33354,9.91114107756551
1160000000.0,22.09,0.0,0.0,0.0,0.06867,0.3268691774683918,9.888087532405175
1165000000.0,22.09,0.0,0.0,0.0,0.06867,0.32373,9.89838816788618
1170000000.0,22.09,0.0,0.0,0.0,0.08809386817753868,0.34962849090338494,9.875726886370769
1175000000.0,22.09,0.0,0.0,0.0,0.06621738588517387,0.34384043153110433,9.884556091291861
1180000000.0,22.09,0.0,0.0,0.0,0.05532842292008423,0.3523752687602527,9.89829
1185000000.0,22.09,0.0,0.0,0.0,0.05886,0.34442903094839034,9.885929353965594
1190000000.0,22.09,0.0,0.0,0.0,0.05886,0.33354,9.890834446228643
1195000000.0,22.09,0.0,0.0,0.0,0.07082824642288246,0.32157175357711754,9.89829
1200000000.0,22.09,0.0,0.0,0.0,0.06670795338287953,0.3256920466171205,9.892403976691439
1205000000.0,22.09,0.0,0.0,0.0,0.06464792340567924,0.33932792340567924,9.871116229782961
1210000000.0,22.09,0.0,0.0,0.0,0.06867,0.3490398235027982,9.876119470508394
1215000000.0,22.09,0.0,0.0,0.0,0.06867,0.34756827640008275,9.871704829200247
1220000000.0,22.09,0.0,0.0,0.0,0.07416362369703623,0.3378563763029638,9.875530871091108
1225000000.0,22.09,0.0,0.0,0.0,0.06768895241168953,0.33893552379415526,9.87768895241169
1230000000.0,22.09,0.0,0.0,0.0,0.06415742389127424,0.34864742389127423,9.879454847782547
1235000000.0,22.09,0.0,0.0,0.0,0.06867,0.33756202803482027,9.883280676011607
1240000000.0,22.09,0.0,0.0,0.0,0.06867,0.33393244817102447,9.888872448171025
1245000000.0,22.09,0.0,0.0,0.0,0.06366687581736875,0.3383468758173688,9.893286875817369
1250000000.0,22.09,0.0,0.0,0.0,0.05395497572024976,0.3482550728392507,9.883574975720249
1255000000.0,22.09,0.0,0.0,0.0,0.053856924376869245,0.35816307562313077,9.873863075623131
1260000000.0,22.09,0.0,0.0,0.0,0.05415117552601176,0.33903352657803526,9.878277648947977
1265000000.0,22.09,0.0,0.0,0.0,0.05366072457110725,0.32834072457110725,9.88848
1270000000.0,22.09,0.0,0.0,0.0,0.07239787400467874,0.32000212599532124,9.883967375331773
1275000000.0,22.09,0.0,0.0,0.0,0.08387547523465474,0.3129390495306905,9.874255475234655
1280000000.0,22.09,0.0,0.0,0.0,0.07848,0.32373,9.877492849724929
1285000000.0,22.09,0.0,0.0,0.0,0.061606700161667,0.3195116750404168,9.884261675040417
1290000000.0,22.09,0.0,0.0,0.0,0.0474804501134045,0.3221604501134045,9.882790225056702
1295000000.0,22.09,0.0,0.0,0.0,0.05886,0.3295178748461788,9.884457874846179
1300000000.0,22.09,0.0,0.0,0.0,0.05886,0.339426101003761,9.870821949498119
1305000000.0,22.09,0.0,0.0,0.0,0.06268592534805925,0.3553181493038815,9.870527776044177
1310000000.0,22.09,0.0,0.0,0.0,0.05748652366446523,0.33962217455482174,9.895935650890356
1315000000.0,22.09,0.0,0.0,0.0,0.03924,0.32991027445770277,9.900840548915404
1320000000.0,22.09,0.0,0.0,0.0,0.04630325127883251,0.32726162563941624,9.892011625639416
1325000000.0,22.09,0.0,0.0,0.0,0.05886,0.32667294852692946,9.89829
1330000000.0,22.09,0.0,0.0,0.0,0.062195425833654255,0.31392,9.894954574166345
1335000000.0,22.09,0.0,0.0,0.0,0.07514465186154651,0.31392,9.882005348138453
1340000000.0,22.09,0.0,0.0,0.0,0.08201154794421547,0.31705922602789227,9.86886
1345000000.0,22.09,0.0,0.0,0.0,0.06258774774997747,0.32981225225002253,9.877983378375033
1350000000.0,22.09,0.0,0.0,0.0,0.05493605244426052,0.34335,9.89829
1355000000.0,22.09,0.0,0.0,0.0,0.07435985263849852,0.3348152210422522,9.89829
1360000000.0,22.09,0.0,0.0,0.0,0.09103682641636826,0.31392,9.895543173583631
1365000000.0,22.09,0.0,0.0,0.0,0.09280254697302548,0.3192174530269745,9.891128726513486
1370000000.0,22.09,0.0,0.0,0.0,0.07337874677878746,0.3386412532212125,9.89829
1375000000.0,22.09,0.0,0.0,0.0,0.061312526707725266,0.35561252670772525,9.893384946584549
1380000000.0,22.09,0.0,0.0,0.0,0.06867,0.3559067195854672,9.881024426804844
1385000000.0,22.09,0.0,0.0,0.0,0.06415734619607345,0.33579632690196326,9.886223673098037
1390000000.0,22.09,0.0,0.0,0.0,0.04905,0.3368753190027532,9.880828226999082
1395000000.0,22.09,0.0,0.0,0.0,0.051110127096201274,0.31392,9.894660381288602
1400000000.0,22.09,0.0,0.0,0.0,0.06474608157996081,0.3198060815799608,9.906137836840077
1405000000.0,22.09,0.0,0.0,0.0,0.08083429083824291,0.3377582181286822,9.864641781871317
1410000000.0,22.09,0.0,0.0,0.0,0.05081582738755828,0.3209833095502331,9.88848
1415000000.0,22.09,0.0,0.0,0.0,0.05886,0.3498245450306454,9.885144545030645
1420000000.0,22.09,0.0,0.0,0.0,0.05886,0.3319703724182037,9.870429627581796
1425000000.0,22.09,0.0,0.0,0.0,0.06180305535783055,0.3252015276789153,9.88161305535783
1430000000.0,22.09,0.0,0.0,0.0,0.07985342777603427,0.33079314444793145,9.899663427776034
1435000000.0,22.09,0.0,0.0,0.0,0.08446401638054016,0.31519532787315324,9.904274016380539
1440000000.0,22.09,0.0,0.0,0.0,0.06003722797027228,0.32490722797027227,9.882201683910816
1445000000.0,22.09,0.0,0.0,0.0,0.06974912806739128,0.3346191280673913,9.907020871932607
1450000000.0,22.09,0.0,0.0,0.0,0.07651794367097943,0.3443310281645103,9.895346915506469
1455000000.0,22.09,0.0,0.0,0.0,0.061508784784887846,0.35316,9.86974292826163
1460000000.0,22.09,0.0,0.0,0.0,0.08750517164125171,0.3508055149237551,9.87867
1465000000.0,22.09,0.0,0.0,0.0,0.07848,0.3230432715441327,9.881416913823468
1470000000.0,22.09,0.0,0.0,0.0,0.07730274289402743,0.31509725710597253,9.917321371447013
1475000000.0,22.09,0.0,0.0,0.0,0.05935052865010529,0.3330494713498947,9.907609471349893
1480000000.0,22.09,0.0,0.0,0.0,0.06867,0.32333757125277574,9.898682428747223
1485000000.0,22.09,0.0,0.0,0.0,0.06808134231131342,0.31480298653302985,9.906628355778283
1490000000.0,22.09,0.0,0.0,0.0,0.04983491576584916,0.3429575421170754,9.858657542117076
1495000000.0,22.09,0.0,0.0,0.0,0.0880937419228374,0.32373,9.839724387115744
1500000000.0,22.09,0.0,0.0,0.0,0.06867002913570029,0.32373,9.8688601165428
1505000000.0,22.09,0.0,0.0,0.0,0.07838192923281928,0.32373,9.907707716931277
1510000000.0,22.09,0.0,0.0,0.0,0.07848,0.3141161706700617,9.888872341340123
1515000000.0,22.09,0.0,0.0,0.0,0.07848,0.3329514588541146,9.897995729427057
1520000000.0,22.09,0.0,0.0,0.0,0.040809481903294816,0.3429576295241763,9.89829
1525000000.0,22.09,0.0,0.0,0.0,0.06719858886388588,0.3340304703787047,9.907609529621295
1530000000.0,22.09,0.0,0.0,0.0,0.08711285943682859,0.35198285943682855,9.9081
1535000000.0,22.09,0.0,0.0,0.0,0.0700433403689334,0.3349133403689334,9.8807300105534
1540000000.0,22.09,0.0,0.0,0.0,0.08672045982530459,0.3154895401746954,9.860619540174696
1545000000.0,22.09,0.0,0.0,0.0,0.0793628699902287,0.3049928699902287,9.885831390029313
1550000000.0,22.09,0.0,0.0,0.0,0.07848,0.3217680602137806,9.89730903010689
1555000000.0,22.09,0.0,0.0,0.0,0.07848,0.3324609302040093,9.88955906979599
1560000000.0,22.09,0.0,0.0,0.0,0.0612143393977434,0.32490716969887173,9.897112830301127
1565000000.0,22.09,0.0,0.0,0.0,0.0759294607964946,0.33226473039824733,9.881220539203506
1570000000.0,22.09,0.0,0.0,0.0,0.05317010851390108,0.3251033695046337,9.895543260990731
1575000000.0,22.09,0.0,0.0,0.0,0.05738853059248531,0.3404070611849706,9.873274408222544
1580000000.0,22.09,0.0,0.0,0.0,0.07534086137920862,0.3268691386207914,9.86886
1585000000.0,22.09,0.0,0.0,0.0,0.07848,0.3400146615734466,9.877002330786723
1590000000.0,22.09,0.0,0.0,0.0,0.07848,0.33530576911615767,9.87867
1595000000.0,22.09,0.0,0.0,0.0,0.0864261309809613,0.3176477380380774,9.894562261961923
1600000000.0,22.09,0.0,0.0,0.0,0.08044196892191968,0.32176803107808033,9.906138031078079
1605000000.0,22.09,0.0,0.0,0.0,0.05523020647440206,0.32373,9.884850206474402
1610000000.0,22.09,0.0,0.0,0.0,0.04905,0.3390336625446366,9.871018168727682
1615000000.0,22.09,0.0,0.0,0.0,0.06415746273887463,0.3282425372611254,9.883967462738875
1620000000.0,22.09,0.0,0.0,0.0,0.08358126293311262,0.33118563146655633,9.873568737066886
1625000000.0,22.09,0.0,0.0,0.0,0.08093246843632468,0.3261824684363247,9.86886
1630000000.0,22.09,0.0,0.0,0.0,0.06396113667841137,0.32373,9.890638294982383
1635000000.0,22.09,0.0,0.0,0.0,0.05169866824208669,0.30940733648417335,9.89829
1640000000.0,22.09,0.0,0.0,0.0,0.07023969556509696,0.30411,9.884163536289934
1645000000.0,22.09,0.0,0.0,0.0,0.07151486804784868,0.33197052780860525,9.871704868047848
1650000000.0,22.09,0.0,0.0,0.0,0.06180296795072968,0.35708406409854065,9.87572703204927
1655000000.0,22.09,0.0,0.0,0.0,0.06562893214638932,0.3291253392680534,9.898976796439168
1660000000.0,22.09,0.0,0.0,0.0,0.07534083224350832,0.33393249673052494,9.874745838782458
1665000000.0,22.09,0.0,0.0,0.0,0.07848,0.34335,9.872195464681255
1670000000.0,22.09,0.0,0.0,0.0,0.07848,0.3498246324377463,9.885144632437745
1675000000.0,22.09,0.0,0.0,0.0,0.06572693493026935,0.33403040239540405,9.88848
1680000000.0,22.09,0.0,0.0,0.0,0.06513843263198432,0.34256529789595297,9.901036865263968
1685000000.0,22.09,0.0,0.0,0.0,0.06248966727089667,0.32843866908358665,9.895739334541792
1690000000.0,22.09,0.0,0.0,0.0,0.07102446565244465,0.3382489313048893,9.900644465652444
1695000000.0,22.09,0.0,0.0,0.0,0.07249586707665867,0.3411917341533173,9.890147601229975
1700000000.0,22.09,0.0,0.0,0.0,0.07455603302046032,0.3394260330204603,9.87867
1705000000.0,22.09,0.0,0.0,0.0,0.06690413376484133,0.3375620668824207,9.87288206688242
1710000000.0,22.09,0.0,0.0,0.0,0.06454983321469833,0.33354,9.86886
1715000000.0,22.09,0.0,0.0,0.0,0.06307826668818267,0.33354,9.885635199935452
1720000000.0,22.09,0.0,0.0,0.0,0.06435363340893634,0.3225527331821273,9.909277266817872
1725000000.0,22.09,0.0,0.0,0.0,0.06867,0.31392,9.901723399481833
1730000000.0,22.09,0.0,0.0,0.0,0.06337256639682566,0.32451486720634865,9.872587699190477
1735000000.0,22.09,0.0,0.0,0.0,0.06405933370029333,0.33873933370029335,9.864249333700293
1740000000.0,22.09,0.0,0.0,0.0,0.06356876620258767,0.34845123379741233,9.873961233797411
1745000000.0,22.09,0.0,0.0,0.0,0.07386940168359402,0.35316,9.868663732210937
1750000000.0,22.09,0.0,0.0,0.0,0.08338496600834966,0.33844489802504896,9.8688600679833
1755000000.0,22.09,0.0,0.0,0.0,0.08328693408876933,0.32853693408876933,9.888283868177538
1760000000.0,22.09,0.0,0.0,0.0,0.08358116581411165,0.34295766837177666,9.89829
1765000000.0,22.09,0.0,0.0,0.0,0.07386926571699265,0.33010632858496325,9.907511468566014
1770000000.0,22.09,0.0,0.0,0.0,0.06415736561987366,0.3131352687602527,9.895346828099367
1775000000.0,22.09,0.0,0.0,0.0,0.05886,0.33697360343173605,9.873274534477245
1780000000.0,22.09,0.0,0.0,0.0,0.05886,0.35316,9.870037130851271
1785000000.0,22.09,0.0,0.0,0.0,0.05886,0.3447233306570333,9.863268334671483
1790000000.0,22.09,0.0,0.0,0.0,0.06298023476860234,0.33354,9.86886
1795000000.0,22.09,0.0,0.0,0.0,0.06867,0.32951786513427866,9.880926404597163
1800000000.0,22.09,0.0,0.0,0.0,0.0608219300743193,0.33550210488852106,9.894365965037158
1805000000.0,22.09,0.0,0.0,0.0,0.060527805179878054,0.35316,9.892305935059959
1810000000.0,22.09,0.0,0.0,0.0,0.07475216484292165,0.3382486593716866,9.902017835157078
1815000000.0,22.09,0.0,0.0,0.0,0.06504026474580264,0.3284389410167894,9.897210794237408
1820000000.0,22.09,0.0,0.0,0.0,0.06945490605394906,0.3566916353513163,9.87867
1825000000.0,22.09,0.0,0.0,0.0,0.07798939365469393,0.3561029291031293,9.87180292910313
1830000000.0,22.09,0.0,0.0,0.0,0.06219543554555435,0.3400145644544456,9.85905
1835000000.0,22.09,0.0,0.0,0.0,0.06543266435732664,0.33030266435732664,9.86876200692802
1840000000.0,22.09,0.0,0.0,0.0,0.05886,0.32059076426020766,9.897897707219377
1845000000.0,22.09,0.0,0.0,0.0,0.061901135836911356,0.3169611358369113,9.908786592489266
1850000000.0,22.09,0.0,0.0,0.0,0.06572696406596963,0.32961607186806074,9.89142303593403
1855000000.0,22.09,0.0,0.0,0.0,0.05886,0.3376601279377013,9.889755191906552
1860000000.0,22.09,0.0,0.0,0.0,0.05611316387173164,0.32922367225653676,9.871606836128269
1865000000.0,22.09,0.0,0.0,0.0,0.054347472450774724,0.34599873622538735,9.873372527549225
1870000000.0,22.09,0.0,0.0,0.0,0.06356872735498727,0.3480587273549873,9.864151272645012
1875000000.0,22.09,0.0,0.0,0.0,0.04905,0.33108746358037466,9.881122536419625
1880000000.0,22.09,0.0,0.0,0.0,0.04905,0.32373,9.895543309550233
1885000000.0,22.09,0.0,0.0,0.0,0.05356267322772673,0.3304990098415901,9.908884653544545
1890000000.0,22.09,0.0,0.0,0.0,0.06651176328901763,0.3510017632890176,9.87867
1895000000.0,22.09,0.0,0.0,0.0,0.05886,0.33716958957569587,9.882790273616202
1900000000.0,22.09,0.0,0.0,0.0,0.06278407381044074,0.32176814762088146,9.896327963094778
1905000000.0,22.09,0.0,0.0,0.0,0.07475212599532126,0.3512960629976606,9.88848
1910000000.0,22.09,0.0,0.0,0.0,0.05886,0.34335,9.88848
1915000000.0,22.09,0.0,0.0,0.0,0.05886,0.34001452560684525,9.88848
1920000000.0,22.09,0.0,0.0,0.0,0.061999274587392746,0.32373,9.88848
1925000000.0,22.09,0.0,0.0,0.0,0.07553692521836924,0.32667307478163077,9.89142307478163
1930000000.0,22.09,0.0,0.0,0.0,0.060233437487934374,0.33922968753619687,9.909473437487934
1935000000.0,22.09,0.0,0.0,0.0,0.06739466241494663,0.3190213503402135,9.911533312074733
1940000000.0,22.09,0.0,0.0,0.0,0.06121447536434475,0.3484510492713105,9.87356895072869
1945000000.0,22.09,0.0,0.0,0.0,0.07740086222070862,0.31392,9.904862586662125
1950000000.0,22.09,0.0,0.0,0.0,0.07063207575282075,0.31588207575282073,9.877688962123589
1955000000.0,22.09,0.0,0.0,0.0,0.08829,0.33530587594705874,9.86886
1960000000.0,22.09,0.0,0.0,0.0,0.08829,0.3508054857880548,9.870429676141297
1965000000.0,22.09,0.0,0.0,0.0,0.08691652366446523,0.32510347633553477,9.88848
1970000000.0,22.09,0.0,0.0,0.0,0.06808136173511362,0.3427613617351136,9.88848
1975000000.0,22.09,0.0,0.0,0.0,0.05886,0.3340305383620054,9.888970538362004
1980000000.0,22.09,0.0,0.0,0.0,0.05886,0.34335,9.89750512308175
1985000000.0,22.09,0.0,0.0,0.0,0.05886,0.34335,9.87867
1990000000.0,22.09,0.0,0.0,0.0,0.05905623865336239,0.34335,9.87867
1995000000.0,22.09,0.0,0.0,0.0,0.06867,0.3432518612495186,9.87876813875048
2000000000.0,22.09,0.0,0.0,0.0,0.06867003884760038,0.33353992230479923,9.88848
2005000000.0,22.09,0.0,0.0,0.0,0.07838193894471938,0.3141161221105612,9.88848
2010000000.0,22.09,0.0,0.0,0.0,0.0688661609581616,0.34276151712551517,9.917321517125515
2015000000.0,22.09,0.0,0.0,0.0,0.03060704344417043,0.32431852172208525,9.898878521722084
2020000000.0,22.09,0.0,0.0,0.0,0.09535347465253476,0.3143123607639236,9.888872360763923
2025000000.0,22.09,0.0,0.0,0.0,0.05150230333402304,0.35119815733278154,9.88848
2030000000.0,22.09,0.0,0.0,0.0,0.058271439430314396,0.3347171211393712,9.88848
2035000000.0,22.09,0.0,0.0,0.0,0.06798333952743339,0.3609100185823002,9.879356660472567
2040000000.0,22.09,0.0,0.0,0.0,0.05964476037544761,0.3268690415017904,9.869644760375447
2045000000.0,22.09,0.0,0.0,0.0,0.06778713972167139,0.3148028602783286,9.886714279443343
2050000000.0,22.09,0.0,0.0,0.0,0.0598409601812096,0.3404071194563712,9.923796159275161
2055000000.0,22.09,0.0,0.0,0.0,0.050129060084090606,0.3346190600840906,9.91898906008409
2060000000.0,22.09,0.0,0.0,0.0,0.0749485200390852,0.3162743199739432,9.874745799934857
2065000000.0,22.09,0.0,0.0,0.0,0.052875779669557796,0.3309894802202948,9.894464220330441
2070000000.0,22.09,0.0,0.0,0.0,0.057486640207266404,0.32510335979273364,9.881416719585467
2075000000.0,22.09,0.0,0.0,0.0,0.05886,0.3404070806087708,9.861992919391229
2080000000.0,22.09,0.0,0.0,0.0,0.0753408808030088,0.34335,9.900252202007522
2085000000.0,22.09,0.0,0.0,0.0,0.07033765950137659,0.31892297850412976,9.891815319002752
2090000000.0,22.09,0.0,0.0,0.0,0.060625759404257594,0.33805272178722723,9.880435759404257
2095000000.0,22.09,0.0,0.0,0.0,0.0509138593071386,0.3354038593071386,9.910454562771445
2100000000.0,22.09,0.0,0.0,0.0,0.06474608157996081,0.3413880407899804,9.910061959210019
2105000000.0,22.09,0.0,0.0,0.0,0.0764199408870994,0.3665998226612982,9.8926001182258
2110000000.0,22.09,0.0,0.0,0.0,0.07848,0.34217263606312637,9.880828159015781
2115000000.0,22.09,0.0,0.0,0.0,0.07092625891866258,0.3486474821626748,9.871116258918663
2120000000.0,22.09,0.0,0.0,0.0,0.06121435882154359,0.3307930764646308,9.883771282356912
2125000000.0,22.09,0.0,0.0,0.0,0.05150245872442459,0.3384450825511508,9.910552623826726
2130000000.0,22.09,0.0,0.0,0.0,0.07808776549077764,0.3360905586273056,9.888872234509222
2135000000.0,22.09,0.0,0.0,0.0,0.07396731706037317,0.3263786585301866,9.885831341469814
2140000000.0,22.09,0.0,0.0,0.0,0.06867,0.32373,9.867290275299203
2145000000.0,22.09,0.0,0.0,0.0,0.06867,0.34462542499215426,9.886910566656205
2150000000.0,22.09,0.0,0.0,0.0,0.07553704176117042,0.34629295823882955,9.884555916477659
2155000000.0,22.09,0.0,0.0,0.0,0.0852489418582894,0.34335,9.892207883716578
2160000000.0,22.09,0.0,0.0,0.0,0.08161915804459158,0.3366791580445916,9.884948316089183
2165000000.0,22.09,0.0,0.0,0.0,0.07848,0.3269672579474726,9.885242742052528
2170000000.0,22.09,0.0,0.0,0.0,0.07200535785035357,0.3431539264489393,9.88848
2175000000.0,22.09,0.0,0.0,0.0,0.055916915506469156,0.32765383101293827,9.88848
2180000000.0,22.09,0.0,0.0,0.0,0.06160688468776884,0.32647688468776886,9.894758442343884
2185000000.0,22.09,0.0,0.0,0.0,0.07485034244100341,0.3273596575589966,9.879748972676989
2190000000.0,22.09,0.0,0.0,0.0,0.08456224253812242,0.31156551492375517,9.86886
2195000000.0,22.09,0.0,0.0,0.0,0.07632171472951714,0.33403071317620714,9.880828285270482
2200000000.0,22.09,0.0,0.0,0.0,0.05101187180291872,0.33550187180291874,9.88848
2205000000.0,22.09,0.0,0.0,0.0,0.06239177131791771,0.32951794282947944,9.89426794282948
2210000000.0,22.09,0.0,0.0,0.0,0.07848,0.3392298429265984,9.909669685853196
2215000000.0,22.09,0.0,0.0,0.0,0.06729651395256514,0.3265747709288477,9.901134770928847
2220000000.0,22.09,0.0,0.0,0.0,0.05336635687916357,0.32490728624167287,9.893973643120836
2225000000.0,22.09,0.0,0.0,0.0,0.059841086435910865,0.33893554321795544,9.88749891356409
2230000000.0,22.09,0.0,0.0,0.0,0.06337255668492557,0.33275511336985114,9.87867
2235000000.0,22.09,0.0,0.0,0.0,0.07965737364877373,0.3393280302365803,9.87867
2240000000.0,22.09,0.0,0.0,0.0,0.07769502596275027,0.3429575129813751,9.893973730527938
2245000000.0,22.09,0.0,0.0,0.0,0.05385685639356857,0.33854314360643145,9.903096856393567
2250000000.0,22.09,0.0,0.0,0.0,0.06867017481420175,0.33844495629644955,9.89829
2255000000.0,22.09,0.0,0.0,0.0,0.07386916859799168,0.33354,9.89348305619933
2260000000.0,22.09,0.0,0.0,0.0,0.06356884389778844,0.3241223122044231,9.883771156102211
2265000000.0,22.09,0.0,0.0,0.0,0.07328074399490743,0.3277522319847223,9.874059256005092
2270000000.0,22.09,0.0,0.0,0.0,0.07396735590797356,0.33883735590797354,9.877885288184052
2275000000.0,22.09,0.0,0.0,0.0,0.06867,0.3247109116217091,9.87965091162171
2280000000.0,22.09,0.0,0.0,0.0,0.06435355571373555,0.3268693328587933,9.86886
2285000000.0,22.09,0.0,0.0,0.0,0.06307834438338344,0.3475683443833834,9.86886
2290000000.0,22.09,0.0,0.0,0.0,0.06454975551949756,0.3449195110389951,9.877100488961004
2295000000.0,22.09,0.0,0.0,0.0,0.07092643373286434,0.33354,9.892502144577621
2300000000.0,22.09,0.0,0.0,0.0,0.07651786597577866,0.33354,9.890441910650518
2305000000.0,22.09,0.0,0.0,0.0,0.06268594477185944,0.33736594477185944,9.88632188954372
2310000000.0,22.09,0.0,0.0,0.0,0.07239784486897845,0.33962215513102156,9.89829
2315000000.0,22.09,0.0,0.0,0.0,0.0712205100678051,0.3371697449660975,9.901919744966097
2320000000.0,22.09,0.0,0.0,0.0,0.05886,0.34335,9.904568354936783
2325000000.0,22.09,0.0,0.0,0.0,0.06229354516033545,0.34678354516033544,9.894856454839664
2330000000.0,22.09,0.0,0.0,0.0,0.06867,0.33981821897018216,9.88180910948509
2335000000.0,22.09,0.0,0.0,0.0,0.06543265464542654,0.31715734535457346,9.885046726772867
2340000000.0,22.09,0.0,0.0,0.0,0.061999245451692456,0.32373,9.91791
2345000000.0,22.09,0.0,0.0,0.0,0.06562885445118855,0.32068885445118855,9.905745417804754
2350000000.0,22.09,0.0,0.0,0.0,0.05591695435406955,0.3198060912918609,9.887499136937791
2355000000.0,22.09,0.0,0.0,0.0,0.06042978297219783,0.3392298914860989,9.896720217027802
2360000000.0,22.09,0.0,0.0,0.0,0.08279630831966307,0.34766630831966305,9.874353691680337
2365000000.0,22.09,0.0,0.0,0.0,0.06867,0.3361887459372875,9.88848
2370000000.0,22.09,0.0,0.0,0.0,0.06867,0.34590064603440646,9.883378707931186
2375000000.0,22.09,0.0,0.0,0.0,0.06376490773694908,0.3507074538684745,9.876217638394577
2380000000.0,22.09,0.0,0.0,0.0,0.056113338685933385,0.34335,9.895935553771356
2385000000.0,22.09,0.0,0.0,0.0,0.08073634632576346,0.34109365367423655,9.883967307348472
2390000000.0,22.09,0.0,0.0,0.0,0.08397350715423507,0.33354,9.86886
2395000000.0,22.09,0.0,0.0,0.0,0.07073014652000147,0.3356001465200015,9.86886
2400000000.0,22.09,0.0,0.0,0.0,0.07848,0.3374638601486386,9.86689795338288
2405000000.0,22.09,0.0,0.0,0.0,0.07475210657152107,0.31764789342847893,9.862777893428479
2410000000.0,22.09,0.0,0.0,0.0,0.05886,0.33354,9.87867
2415000000.0,22.09,0.0,0.0,0.0,0.06052774690847747,0.3302045061830451,9.883673240725432
2420000000.0,22.09,0.0,0.0,0.0,0.07023964700559647,0.3186289410167894,9.90339105898321
2425000000.0,22.09,0.0,0.0,0.0,0.07406535869185359,0.34040690579456906,9.880141547102715
2430000000.0,22.09,0.0,0.0,0.0,0.05454378879933789,0.32235655280016556,9.88848
2435000000.0,22.09,0.0,0.0,0.0,0.08829,0.3215720837817208,9.885929305406092
2440000000.0,22.09,0.0,0.0,0.0,0.08475825781778257,0.3668937630296376,9.867682752605928
2445000000.0,22.09,0.0,0.0,0.0,0.059939147491191475,0.3248091474911915,9.865524884947149
2450000000.0,22.09,0.0,0.0,0.0,0.06965104758831048,0.33550209517662094,9.914966857235068
2455000000.0,22.09,0.0,0.0,0.0,0.07848,0.35316,9.88848
2460000000.0,22.09,0.0,0.0,0.0,0.07769515221745152,0.351590304434903,9.887695152217452
2465000000.0,22.09,0.0,0.0,0.0,0.06798325212033252,0.3342267478796675,9.877983252120332
2470000000.0,22.09,0.0,0.0,0.0,0.06003729595357296,0.3427613520232135,9.86886
2475000000.0,22.09,0.0,0.0,0.0,0.07848,0.3350116442217164,9.870331644221716
2480000000.0,22.09,0.0,0.0,0.0,0.07887244817102447,0.3617926554869266,9.897897551828974
2485000000.0,22.09,0.0,0.0,0.0,0.08799565173185651,0.33354,9.887891303463713
2490000000.0,22.09,0.0,0.0,0.0,0.07808750326947503,0.333147503269475,9.86886
2495000000.0,22.09,0.0,0.0,0.0,0.05905629692476297,0.31401814846238146,9.868958148462381
2500000000.0,22.09,0.0,0.0,0.0,0.07847990288099903,0.32373009711900097,9.878670145678502
2505000000.0,22.09,0.0,0.0,0.0,0.05905610268676103,0.343153897313239,9.907805845969857
2510000000.0,22.09,0.0,0.0,0.0,0.04924615124626151,0.34335,9.9081
2515000000.0,22.09,0.0,0.0,0.0,0.04905,0.362381497701715,9.889068502298285
2520000000.0,22.09,0.0,0.0,0.0,0.06788529789595298,0.3535523510520235,9.869644702104047
2525000000.0,22.09,0.0,0.0,0.0,0.06867,0.3624795490450955,9.86886
2530000000.0,22.09,0.0,0.0,0.0,0.05944855085778551,0.30764130514671306,9.878081449142215
2535000000.0,22.09,0.0,0.0,0.0,0.06798334923933348,0.3314800477180005,9.906040047718
2540000000.0,22.09,0.0,0.0,0.0,0.059644750663547505,0.33354,9.881024251990642
2545000000.0,22.09,0.0,0.0,0.0,0.06778714943357149,0.3424671494335715,9.87867
2550000000.0,22.09,0.0,0.0,0.0,0.07749904953069049,0.31686285140792847,9.869840950469309
2555000000.0,22.09,0.0,0.0,0.0,0.06101810074438101,0.3226509496278095,9.877590949627809
2560000000.0,22.09,0.0,0.0,0.0,0.050227150275071505,0.306464300550143,9.87867
2565000000.0,22.09,0.0,0.0,0.0,0.057584749822047504,0.32117949964409503,9.861600500355905
2570000000.0,22.09,0.0,0.0,0.0,0.06729664991916649,0.3321666499191665,9.875923299838332
2575000000.0,22.09,0.0,0.0,0.0,0.0603314499837145,0.32520144998371453,9.86199289996743
2580000000.0,22.09,0.0,0.0,0.0,0.0671004501134045,0.3319704501134045,9.867290450113405
2585000000.0,22.09,0.0,0.0,0.0,0.05238529957895299,0.3416823502105235,9.885144700421046
2590000000.0,22.09,0.0,0.0,0.0,0.0731827509229275,0.31117299876943,9.896524250307642
2595000000.0,22.09,0.0,0.0,0.0,0.09437230080952301,0.335894601619046,9.914182300809522
2600000000.0,22.09,0.0,0.0,0.0,0.07455584849435848,0.3355019494981195,9.878669747490598
2605000000.0,22.09,0.0,0.0,0.0,0.06867,0.33354,9.86886
2610000000.0,22.09,0.0,0.0,0.0,0.06867,0.3258881493038815,9.876511850696119
2615000000.0,22.09,0.0,0.0,0.0,0.07622375079323751,0.32373,9.87867
2620000000.0,22.09,0.0,0.0,0.0,0.09339130178071302,0.32373,9.87867
2625000000.0,22.09,0.0,0.0,0.0,0.07602734703757347,0.32373,9.886027550987475
2630000000.0,22.09,0.0,0.0,0.0,0.06141054891540549,0.29469219566162197,9.88848
2635000000.0,22.09,0.0,0.0,0.0,0.05886,0.3346194582719946,9.902802702363426
2640000000.0,22.09,0.0,0.0,0.0,0.07298650255766502,0.35316,9.893973497442335
2645000000.0,22.09,0.0,0.0,0.0,0.06454969724809698,0.3461948486240485,9.874549697248098
2650000000.0,22.09,0.0,0.0,0.0,0.04512589705385897,0.3364829485269295,9.88259410294614
2655000000.0,22.09,0.0,0.0,0.0,0.059546854710568545,0.32000209685962094,9.895248951570188
2660000000.0,22.09,0.0,0.0,0.0,0.05532829666538297,0.327261703334617,9.878277444998075
2665000000.0,22.09,0.0,0.0,0.0,0.062195503528855035,0.3269672482355725,9.875432751764427
2670000000.0,22.09,0.0,0.0,0.0,0.06219534813845348,0.32373,9.891619303723093
2675000000.0,22.09,0.0,0.0,0.0,0.06523655195866551,0.3301065519586655,9.872783792165338
2680000000.0,22.09,0.0,0.0,0.0,0.06867,0.33354,9.896720712334707
2685000000.0,22.09,0.0,0.0,0.0,0.06248964784709648,0.3273596478470965,9.887008239235483
2690000000.0,22.09,0.0,0.0,0.0,0.07102450450004505,0.33589450450004504,9.86886
2695000000.0,22.09,0.0,0.0,0.0,0.07249584765285846,0.3373658476528585,9.880828304694283
2700000000.0,22.09,0.0,0.0,0.0,0.056897895111478955,0.32176789511147896,9.882593947555739
2705000000.0,22.09,0.0,0.0,0.0,0.05483795254137953,0.30813204745862044,9.89024590508276
2710000000.0,22.09,0.0,0.0,0.0,0.07023970527699705,0.3097998526384985,9.89829
2715000000.0,22.09,0.0,0.0,0.0,0.08407175273561752,0.32510350547123507,9.892698247264383
2720000000.0,22.09,0.0,0.0,0.0,0.0718090415017904,0.3390336528327365,9.88848
2725000000.0,22.09,0.0,0.0,0.0,0.06965110585971106,0.3487455529298555,9.866897788280578
2730000000.0,22.09,0.0,0.0,0.0,0.07318254697302547,0.34786254697302543,9.870429812107897
2735000000.0,22.09,0.0,0.0,0.0,0.06347064687590646,0.35374870624818705,9.898878706248187
2740000000.0,22.09,0.0,0.0,0.0,0.06396125322121253,0.33746373389393736,9.892796240336361
2745000000.0,22.09,0.0,0.0,0.0,0.07367315331833153,0.31392,9.898682613273326
2750000000.0,22.09,0.0,0.0,0.0,0.07848,0.31392,9.908099893169098
2755000000.0,22.09,0.0,0.0,0.0,0.07367304648743046,0.32353390702513907,9.89829
2760000000.0,22.09,0.0,0.0,0.0,0.06867,0.32883114639031147,9.888872292780622
2765000000.0,22.09,0.0,0.0,0.0,0.07328075370680753,0.31911924629319244,9.87867
2770000000.0,22.09,0.0,0.0,0.0,0.07396734619607345,0.33648326901963266,9.874157346196073
2775000000.0,22.09,0.0,0.0,0.0,0.05984089219790892,0.35855544609895446,9.877689107802091
2780000000.0,22.09,0.0,0.0,0.0,0.053366453998164545,0.35316,9.88848
2785000000.0,22.09,0.0,0.0,0.0,0.05886,0.3320682295235823,9.884261645904717
2790000000.0,22.09,0.0,0.0,0.0,0.05886,0.31647076257720763,9.89515101676961
2795000000.0,22.09,0.0,0.0,0.0,0.05483784571047846,0.3415843085790431,9.89377707426287
2800000000.0,22.09,0.0,0.0,0.0,0.05689810877328109,0.3453118912267189,9.874746217546562
2805000000.0,22.09,0.0,0.0,0.0,0.06484404551624046,0.32971404551624045,9.882986182064961
2810000000.0,22.09,0.0,0.0,0.0,0.0663157091617571,0.32373,9.870233563742635
2815000000.0,22.09,0.0,0.0,0.0,0.07485024532200245,0.32373,9.881220490644004
2820000000.0,22.09,0.0,0.0,0.0,0.0616066904497669,0.3307933095502331,9.875923309550233
2825000000.0,22.09,0.0,0.0,0.0,0.05248355487223555,0.3364828902555289,9.89534710974447
2830000000.0,22.09,0.0,0.0,0.0,0.0521890900612909,0.3270654549693546,9.898093635091936
2835000000.0,22.09,0.0,0.0,0.0,0.05542677533236775,0.33677735506647355,9.881907355066474
2840000000.0,22.09,0.0,0.0,0.0,0.08829,0.34335,9.885340744836407
2845000000.0,22.09,0.0,0.0,0.0,0.07916653421786533,0.34335,9.872587689478577
2850000000.0,22.09,0.0,0.0,0.0,0.06768916607349167,0.3404069446421694,9.870822221431322
2855000000.0,22.09,0.0,0.0,0.0,0.08544504454505043,0.33638495545494956,9.88975513363515
2860000000.0,22.09,0.0,0.0,0.0,0.07573314444793144,0.34060314444793144,9.863366288895863
2865000000.0,22.09,0.0,0.0,0.0,0.06867,0.33089124435081246,9.85983502259675
2870000000.0,22.09,0.0,0.0,0.0,0.06611934425369344,0.32628065574630655,9.893581311492612
2875000000.0,22.09,0.0,0.0,0.0,0.06376511168685112,0.32618233246972334,9.905647444156573
2880000000.0,22.09,0.0,0.0,0.0,0.07141663217836632,0.31352782376217825,9.900644455940544
2885000000.0,22.09,0.0,0.0,0.0,0.051306356037663564,0.34335,9.894561863774019
2890000000.0,22.09,0.0,0.0,0.0,0.06533476840434768,0.34119174386521745,9.844923487730435
2895000000.0,22.09,0.0,0.0,0.0,0.08829,0.33560015623190154,9.831680156231903
2900000000.0,22.09,0.0,0.0,0.0,0.08436588734195886,0.3374638310129383,9.84335411265804
2905000000.0,22.09,0.0,0.0,0.0,0.07053395642613956,0.31392,9.864641869278419
2910000000.0,22.09,0.0,0.0,0.0,0.0731824304302243,0.31568585652325853,9.893777569569774
2915000000.0,22.09,0.0,0.0,0.0,0.0540532698611327,0.32539775662037757,9.912906730138866
2920000000.0,22.09,0.0,0.0,0.0,0.07534068656500686,0.3304006865650069,9.893188970152488
2925000000.0,22.09,0.0,0.0,0.0,0.0632746704438467,0.31539155681461556,9.910552215926922
2930000000.0,22.09,0.0,0.0,0.0,0.08554308617653085,0.3251034569117346,9.871606913823468
2935000000.0,22.09,0.0,0.0,0.0,0.06994535700885357,0.3360907140177071,9.884653928973439
2940000000.0,22.09,0.0,0.0,0.0,0.07848,0.3519827428940274,9.85905
2945000000.0,22.09,0.0,0.0,0.0,0.07740084279690843,0.34335,9.861208314406182
2950000000.0,22.09,0.0,0.0,0.0,0.06670788539957885,0.3404068280993683,9.87965105730021
2955000000.0,22.09,0.0,0.0,0.0,0.05169887219198872,0.31480295739732955,9.88848
2960000000.0,22.09,0.0,0.0,0.0,0.07769514250555141,0.3245148574944486,9.88848
2965000000.0,22.09,0.0,0.0,0.0,0.06729648481686484,0.33354,9.885046212042162
2970000000.0,22.09,0.0,0.0,0.0,0.051404630754746314,0.3341286576886866,9.83943
2975000000.0,22.09,0.0,0.0,0.0,0.08779944221419442,0.34335,9.840901673357417
2980000000.0,22.09,0.0,0.0,0.0,0.07848,0.3429575421170754,9.870037373648774
2985000000.0,22.09,0.0,0.0,0.0,0.07789128403991283,0.3338343579800436,9.897995642019955
2990000000.0,22.09,0.0,0.0,0.0,0.05925251615432516,0.34315374192283743,9.889068774231488
2995000000.0,22.09,0.0,0.0,0.0,0.07808736730287366,0.33334368365143685,9.917517367302873
3000000000.0,22.09,0.0,0.0,0.0,0.03924017481420174,0.3139201748142017,9.87867
3005000000.0,22.09,0.0,0.0,0.0,0.06837587510555874,0.34305587510555874,9.87867
3010000000.0,22.09,0.0,0.0,0.0,0.06867,0.34335,9.888283858465638
3015000000.0,22.09,0.0,0.0,0.0,0.06867,0.32431848287448484,9.897995758562757
3020000000.0,22.09,0.0,0.0,0.0,0.07808765865987657,0.3331476586598766,9.87003702402037
3025000000.0,22.09,0.0,0.0,0.0,0.05052132372901324,0.33354,9.896818676270986
3030000000.0,22.09,0.0,0.0,0.0,0.06749291770822917,0.3150970822917708,9.861404164583542
3035000000.0,22.09,0.0,0.0,0.0,0.06867,0.31392,9.868173358951234
3040000000.0,22.09,0.0,0.0,0.0,0.059644740951647415,0.31392,9.859834740951648
3045000000.0,22.09,0.0,0.0,0.0,0.05886,0.32284715914547163,9.903685795727357
3050000000.0,22.09,0.0,0.0,0.0,0.05886,0.3502171777277718,9.881612822272228
3055000000.0,22.09,0.0,0.0,0.0,0.06759095933970959,0.3356980813205808,9.86993904066029
3060000000.0,22.09,0.0,0.0,0.0,0.051404281126342814,0.33354,9.86886
3065000000.0,22.09,0.0,0.0,0.0,0.08318903813579037,0.3250052404660524,9.860325240466052
3070000000.0,22.09,0.0,0.0,0.0,0.07985334036893339,0.3068566807378668,9.85905
3075000000.0,22.09,0.0,0.0,0.0,0.0951571194563712,0.3291256791845568,9.892404238912741
3080000000.0,22.09,0.0,0.0,0.0,0.05689770087347701,0.3417804598253046,9.89829
3085000000.0,22.09,0.0,0.0,0.0,0.0571923599224236,0.3352076400775764,9.914574719844847
3090000000.0,22.09,0.0,0.0,0.0,0.0829927800586278,0.33354,9.869644439882745
3095000000.0,22.09,0.0,0.0,0.0,0.08034383988333839,0.3414861601166616,9.874942320233323
3100000000.0,22.09,0.0,0.0,0.0,0.06278387957243879,0.35904612042756123,9.87867
3105000000.0,22.09,0.0,0.0,0.0,0.05886,0.3397201190673012,9.8631700793782
3110000000.0,22.09,0.0,0.0,0.0,0.05886,0.3411918604080186,9.897309302040092
3115000000.0,22.09,0.0,0.0,0.0,0.0664137605051376,0.34335,9.900546239494862
3120000000.0,22.09,0.0,0.0,0.0,0.06121433939774339,0.3358943393977434,9.905745660602255
3125000000.0,22.09,0.0,0.0,0.0,0.05886,0.33354,9.893384878601248
3130000000.0,22.09,0.0,0.0,0.0,0.05886,0.3117616176105162,9.88848
3135000000.0,22.09,0.0,0.0,0.0,0.0660213608936136,0.31127136089361357,9.874157278212772
3140000000.0,22.09,0.0,0.0,0.0,0.06867,0.33510978297219784,9.875923260990731
3145000000.0,22.09,0.0,0.0,0.0,0.06170483891214839,0.3363848389121484,9.892600322175703
3150000000.0,22.09,0.0,0.0,0.0,0.051992938815029394,0.3404070611849706,9.89829
3155000000.0,22.09,0.0,0.0,0.0,0.04905,0.3298120774358208,9.88475207743582
3160000000.0,22.09,0.0,0.0,0.0,0.07573344551683445,0.3304008613792086,9.885340861379207
3165000000.0,22.09,0.0,0.0,0.0,0.06199895409468954,0.3269672385236724,9.895052761476327
3170000000.0,22.09,0.0,0.0,0.0,0.05552466157344662,0.3107806768531068,9.885340676853106
3175000000.0,22.09,0.0,0.0,0.0,0.04610687665886877,0.3359928083528281,9.89142312334113
3180000000.0,22.09,0.0,0.0,0.0,0.07063230883842309,0.3406030764646308,9.88573307646463
3185000000.0,22.09,0.0,0.0,0.0,0.08829,0.33354,9.87867
3190000000.0,22.09,0.0,0.0,0.0,0.07612547607615475,0.32137547607615474,9.872587738038076
3195000000.0,22.09,0.0,0.0,0.0,0.056701675881916755,0.3258883241180832,9.892796648236166
3200000000.0,22.09,0.0,0.0,0.0,0.060822124312321244,0.33354,9.9081
3205000000.0,22.09,0.0,0.0,0.0,0.06867,0.3393279622532796,9.92546388675984
3210000000.0,22.09,0.0,0.0,0.0,0.06298013764960138,0.3376601376496014,9.914770550598405
3215000000.0,22.09,0.0,0.0,0.0,0.05886,0.32794823755248237,9.887106475104964
3220000000.0,22.09,0.0,0.0,0.0,0.04787267491072675,0.3402109876339099,9.873176337455362
3225000000.0,22.09,0.0,0.0,0.0,0.05542668792526688,0.34776443735824436,9.885046687925266
3230000000.0,22.09,0.0,0.0,0.0,0.06867,0.3327550745222507,9.88769507452225
3235000000.0,22.09,0.0,0.0,0.0,0.06867,0.3133312743280127,9.889068725671986
3240000000.0,22.09,0.0,0.0,0.0,0.07377126293311262,0.31431252586622527,9.888087474133775
3245000000.0,22.09,0.0,0.0,0.0,0.06347051090930511,0.32873316303023165,9.893679489090694
3250000000.0,22.09,0.0,0.0,0.0,0.04905,0.3237298737452987,9.91300506312735
3255000000.0,22.09,0.0,0.0,0.0,0.058663926448939266,0.32834088967340885,9.903489110326591
3260000000.0,22.09,0.0,0.0,0.0,0.07337886332158863,0.33864113667841134,9.879062273356823
3265000000.0,22.09,0.0,0.0,0.0,0.08770152683741526,0.34276152683741523,9.882692290256122
3270000000.0,22.09,0.0,0.0,0.0,0.0845620094525201,0.3441346729683467,9.889264672968347
3275000000.0,22.09,0.0,0.0,0.0,0.07749912722589127,0.33354,9.874255436387054
3280000000.0,22.09,0.0,0.0,0.0,0.08397353628993535,0.32059060886980606,9.890442318550322
3285000000.0,22.09,0.0,0.0,0.0,0.07426163619281635,0.3125467276143673,9.90525490857845
3290000000.0,22.09,0.0,0.0,0.0,0.06867,0.3319705278086053,9.88848
3295000000.0,22.09,0.0,0.0,0.0,0.06867,0.33932783599857835,9.880435671997157
3300000000.0,22.09,0.0,0.0,0.0,0.06474593590145936,0.3296159359014594,9.86886
3305000000.0,22.09,0.0,0.0,0.0,0.05886,0.3313819283913193,9.88033789258698
3310000000.0,22.09,0.0,0.0,0.0,0.05886,0.33962213570722133,9.887106407121664
3315000000.0,22.09,0.0,0.0,0.0,0.06974929316969293,0.33354,9.879749293169693
3320000000.0,22.09,0.0,0.0,0.0,0.07769500653895006,0.33707166448701664,9.901821664487017
3325000000.0,22.09,0.0,0.0,0.0,0.05542643541586436,0.33304930624759305,9.901232870831729
3330000000.0,22.09,0.0,0.0,0.0,0.05238546468125465,0.32059092936250927,9.898486394043763
3335000000.0,22.09,0.0,0.0,0.0,0.05562263522162635,0.33354,9.908197905664878
3340000000.0,22.09,0.0,0.0,0.0,0.05218926487549265,0.32412220537352204,9.882201470249015
3345000000.0,22.09,0.0,0.0,0.0,0.05886,0.3132334949178349,9.874942329945222
3350000000.0,22.09,0.0,0.0,0.0,0.05886,0.33059693493026937,9.89142306506973
3355000000.0,22.09,0.0,0.0,0.0,0.06739489550054896,0.32088503483315034,9.903979930333698
3360000000.0,22.09,0.0,0.0,0.0,0.07730253894412539,0.3194137305279373,9.912416269472061
3365000000.0,22.09,0.0,0.0,0.0,0.051698765361087654,0.33354,9.900938765361087
3370000000.0,22.09,0.0,0.0,0.0,0.061410665458206656,0.3386413309164133,9.9081
3375000000.0,22.09,0.0,0.0,0.0,0.07112256555532565,0.345802303334023,9.913005131110651
3380000000.0,22.09,0.0,0.0,0.0,0.07612553434755534,0.32373,9.915947671737777
3385000000.0,22.09,0.0,0.0,0.0,0.06867,0.330499097248691,9.88543909724869
3390000000.0,22.09,0.0,0.0,0.0,0.06651173415331733,0.35316,9.901625202459952
3395000000.0,22.09,0.0,0.0,0.0,0.06092016594380166,0.3490396681123967,9.8807301659438
3400000000.0,22.09,0.0,0.0,0.0,0.06867,0.33157793395907936,9.88848
3405000000.0,22.09,0.0,0.0,0.0,0.06867,0.3255939661380397,9.890343966138039
3410000000.0,22.09,0.0,0.0,0.0,0.06690413376484133,0.33177413376484133,9.892992401294524
3415000000.0,22.09,0.0,0.0,0.0,0.06052776633227767,0.3253977663322777,9.872195532664556
3420000000.0,22.09,0.0,0.0,0.0,0.06867,0.33510966642939666,9.886910333570603
3425000000.0,22.09,0.0,0.0,0.0,0.06719843347348434,0.34629313305303133,9.877198433473485
3430000000.0,22.09,0.0,0.0,0.0,0.06023346662363467,0.35747613350546137,9.87160693324727
3435000000.0,22.09,0.0,0.0,0.0,0.06867,0.3262807334415074,9.88848
3440000000.0,22.09,0.0,0.0,0.0,0.06867,0.34099546636425465,9.889657266817872
3445000000.0,22.09,0.0,0.0,0.0,0.06867,0.32588833382998333,9.89829
3450000000.0,22.09,0.0,0.0,0.0,0.06965106701211067,0.34433106701211064,9.89927106701211
3455000000.0,22.09,0.0,0.0,0.0,0.07759703289077033,0.35316,9.908982967109228
3460000000.0,22.09,0.0,0.0,0.0,0.06788513279365133,0.3523751327936513,9.916340265587301
3465000000.0,22.09,0.0,0.0,0.0,0.06092030191040302,0.3426632326965323,9.896229698089597
3470000000.0,22.09,0.0,0.0,0.0,0.08652399779823997,0.3347173348011733,9.86886
3475000000.0,22.09,0.0,0.0,0.0,0.059841134995411355,0.35021659501376595,9.870822269990823
3480000000.0,22.09,0.0,0.0,0.0,0.07808753240517533,0.29508493518964934,9.906922597215525
3485000000.0,22.09,0.0,0.0,0.0,0.06867,0.31421436769194366,9.878964367691943
3490000000.0,22.09,0.0,0.0,0.0,0.06847373221093732,0.32412253557812537,9.88848
3495000000.0,22.09,0.0,0.0,0.0,0.05895816788618168,0.3432518321138183,9.888381832113819
3500000000.0,22.09,0.0,0.0,0.0,0.06867013596660135,0.33354006798330066,9.87867
3505000000.0,22.09,0.0,0.0,0.0,0.08809393616083935,0.3432519680804197,9.87867
3510000000.0,22.09,0.0,0.0,0.0,0.08829,0.35296386817753866,9.849828395467384
3515000000.0,22.09,0.0,0.0,0.0,0.08829,0.31509692690136926,9.88730307309863
3520000000.0,22.09,0.0,0.0,0.0,0.08829,0.33275533674355334,9.869644663256446
3525000000.0,22.09,0.0,0.0,0.0,0.06965086306220862,0.33354,9.915457842344477
3530000000.0,22.09,0.0,0.0,0.0,0.05022706286797063,0.3519829371320293,9.89946706286797
3535000000.0,22.09,0.0,0.0,0.0,0.05817336866313369,0.3166665253474652,9.870919894010598
3540000000.0,22.09,0.0,0.0,0.0,0.06788526876025268,0.3229452687602527,9.895935806280757
3545000000.0,22.09,0.0,0.0,0.0,0.07759716885737168,0.32373,9.880435662285256
3550000000.0,22.09,0.0,0.0,0.0,0.08730906895449068,0.350217206863472,9.869840931045509
3555000000.0,22.09,0.0,0.0,0.0,0.07082806189678062,0.32696709284517095,9.86886
3560000000.0,22.09,0.0,0.0,0.0,0.051404261702542614,0.32373,9.860227130851271
3565000000.0,22.09,0.0,0.0,0.0,0.07465430773754307,0.32373,9.884654307737543
3570000000.0,22.09,0.0,0.0,0.0,0.0700433306570333,0.3321666693429667,9.930663346714834
3575000000.0,22.09,0.0,0.0,0.0,0.06033143055991431,0.3252014305599143,9.89583715279957
3580000000.0,22.09,0.0,0.0,0.0,0.050619530462795305,0.34845140861161406,9.92144187814882
3585000000.0,22.09,0.0,0.0,0.0,0.07347710890297109,0.3450176303656763,9.895150521462705
3590000000.0,22.09,0.0,0.0,0.0,0.062391460537114606,0.34335,9.880435730268557
3595000000.0,22.09,0.0,0.0,0.0,0.07475233965712338,0.34335,9.886616169828562
3600000000.0,22.09,0.0,0.0,0.0,0.08632806992568069,0.3355019300743193,9.880631930074319
3605000000.0,22.09,0.0,0.0,0.0,0.04954014988600149,0.33354,9.8709200299772
3610000000.0,22.09,0.0,0.0,0.0,0.0621956103597561,0.33354,9.891815610359755
3615000000.0,22.09,0.0,0.0,0.0,0.06867,0.3410937702170377,9.890736229782961
3620000000.0,22.09,0.0,0.0,0.0,0.0835813406283134,0.3358943296858433,9.881024329685843
3625000000.0,22.09,0.0,0.0,0.0,0.07357485917744859,0.3408975704112757,9.886027570411276
3630000000.0,22.09,0.0,0.0,0.0,0.05415105898321059,0.34335,9.866701588474816
3635000000.0,22.09,0.0,0.0,0.0,0.05621137060551371,0.3290272587889726,9.851888629394486
3640000000.0,22.09,0.0,0.0,0.0,0.05886,0.32373,9.891619624215796
3645000000.0,22.09,0.0,0.0,0.0,0.07975551239925512,0.3306951707997517,9.880239316800992
3650000000.0,22.09,0.0,0.0,0.0,0.07455585820625857,0.3472741417937414,9.86886
3655000000.0,22.09,0.0,0.0,0.0,0.0754389709939897,0.33285308701803085,9.86886
3660000000.0,22.09,0.0,0.0,0.0,0.07848,0.3370717421822174,9.895543484364435
3665000000.0,22.09,0.0,0.0,0.0,0.07190722881177228,0.34335,9.894954457623545
3670000000.0,22.09,0.0,0.0,0.0,0.08161934257069342,0.34335,9.88848
3675000000.0,22.09,0.0,0.0,0.0,0.07553685723506856,0.3305968572350686,9.869350285852603
3680000000.0,22.09,0.0,0.0,0.0,0.043556114081661136,0.34256541443875416,9.884163885918339
3685000000.0,22.09,0.0,0.0,0.0,0.04797111473011115,0.34079925684659257,9.904470371576704
3690000000.0,22.09,0.0,0.0,0.0,0.06494227167382272,0.33354,9.9081
3695000000.0,22.09,0.0,0.0,0.0,0.08662251531282515,0.3275558282290583,9.902115828229057
3700000000.0,22.09,0.0,0.0,0.0,0.08632785626387857,0.3355021437361214,9.886517856263879
3705000000.0,22.09,0.0,0.0,0.0,0.07269202803482028,0.3201981121392811,9.890245943930358
3710000000.0,22.09,0.0,0.0,0.0,0.06867,0.3268694882491949,9.886910255875403
3715000000.0,22.09,0.0,0.0,0.0,0.07985354431883544,0.34335,9.873078227840582
3720000000.0,22.09,0.0,0.0,0.0,0.060821638717316384,0.33236265548692656,9.86886
3725000000.0,22.09,0.0,0.0,0.0,0.05542671706096716,0.3345211447073114,9.885046717060966
3730000000.0,22.09,0.0,0.0,0.0,0.06867,0.34335,9.89829
3735000000.0,22.09,0.0,0.0,0.0,0.07906874509578744,0.3225525098084251,9.893090627452105
3740000000.0,22.09,0.0,0.0,0.0,0.08829,0.3092112726450127,9.88848
3745000000.0,22.09,0.0,0.0,0.0,0.07828365451573654,0.32392634548426347,9.88848
3750000000.0,22.09,0.0,0.0,0.0,0.05885985432149854,0.33354,9.903195218517752
3755000000.0,22.09,0.0,0.0,0.0,0.053856972936369735,0.34315394587273945,9.89387513531815
3760000000.0,22.09,0.0,0.0,0.0,0.054151126966511275,0.35786887303348874,9.873568873033488
3765000000.0,22.09,0.0,0.0,0.0,0.05827154626121546,0.3491376806081768,9.883280773130608
3770000000.0,22.09,0.0,0.0,0.0,0.06867,0.32902732677227325,9.88848
3775000000.0,22.09,0.0,0.0,0.0,0.06867,0.32814457332484576,9.901723719974537
3780000000.0,22.09,0.0,0.0,0.0,0.06867,0.33354,9.896327632890175
3785000000.0,22.09,0.0,0.0,0.0,0.06445162648091626,0.3251032529618325,9.881515120557252
3790000000.0,22.09,0.0,0.0,0.0,0.06710054723240547,0.31392,9.894169726383797
3795000000.0,22.09,0.0,0.0,0.0,0.08250217371332173,0.3259865211399652,9.884457826286678
3800000000.0,22.09,0.0,0.0,0.0,0.08436592618955925,0.3355018523791185,9.87867
3805000000.0,22.09,0.0,0.0,0.0,0.07465402609244026,0.32373,9.87484402609244
3810000000.0,22.09,0.0,0.0,0.0,0.06494212599532126,0.32373,9.876315748009358
3815000000.0,22.09,0.0,0.0,0.0,0.06611954820359549,0.32373,9.88848
3820000000.0,22.09,0.0,0.0,0.0,0.07141665160216651,0.3272616741989168,9.892011674198915
3825000000.0,22.09,0.0,0.0,0.0,0.05886,0.3266728514079285,9.894856425703964
3830000000.0,22.09,0.0,0.0,0.0,0.06553094878630948,0.32059094878630945,9.891815474393153
3835000000.0,22.09,0.0,0.0,0.0,0.0720052510194525,0.3400147489805475,9.895052625509726
3840000000.0,22.09,0.0,0.0,0.0,0.05572072541260726,0.3468814508252145,9.88848
3845000000.0,22.09,0.0,0.0,0.0,0.05817352405353524,0.33354,9.885438825315488
3850000000.0,22.09,0.0,0.0,0.0,0.07848,0.3394261495632615,9.884556149563261
3855000000.0,22.09,0.0,0.0,0.0,0.0727900502425005,0.3474700502425005,9.903979949757499
3860000000.0,22.09,0.0,0.0,0.0,0.0643537499517375,0.3280462500482625,9.91791
3865000000.0,22.09,0.0,0.0,0.0,0.07053367478103674,0.31921755014597547,9.907314899708048
3870000000.0,22.09,0.0,0.0,0.0,0.056702025510320254,0.33609067517010677,9.883771350340213
3875000000.0,22.09,0.0,0.0,0.0,0.07357484946554849,0.35070772580167725,9.893384849465548
3880000000.0,22.09,0.0,0.0,0.0,0.054151049271310495,0.3657165739069657,9.881024475364343
3885000000.0,22.09,0.0,0.0,0.0,0.04826550184585501,0.34109362453853626,9.88848
3890000000.0,22.09,0.0,0.0,0.0,0.07200517332425173,0.33354,9.890638275558583
3895000000.0,22.09,0.0,0.0,0.0,0.05111017565570176,0.33560017565570177,9.89829
3900000000.0,22.09,0.0,0.0,0.0,0.05886,0.34138792424717923,9.894365848494358
3905000000.0,22.09,0.0,0.0,0.0,0.06072397584993976,0.33540397584993975,9.882397951699879
3910000000.0,22.09,0.0,0.0,0.0,0.06867,0.34335,9.89652412405294
3915000000.0,22.09,0.0,0.0,0.0,0.07200555208835552,0.34335,9.886812223955822
3920000000.0,22.09,0.0,0.0,0.0,0.08829,0.34491967614129676,9.87867
3925000000.0,22.09,0.0,0.0,0.0,0.08534684752316847,0.35021684752316845,9.880141576238415
3930000000.0,22.09,0.0,0.0,0.0,0.06867,0.33354,9.88848
3935000000.0,22.09,0.0,0.0,0.0,0.06867,0.3373661292979613,9.891030752865307
3940000000.0,22.09,0.0,0.0,0.0,0.0651381704106817,0.358260893880909,9.90456817041068
3945000000.0,22.09,0.0,0.0,0.0,0.04139835325378353,0.3248091766268918,9.880828353253783
3950000000.0,22.09,0.0,0.0,0.0,0.05984107672401077,0.33452107672401077,9.89829
3955000000.0,22.09,0.0,0.0,0.0,0.06778702317887023,0.3415840463577405,9.89564106953661
3960000000.0,22.09,0.0,0.0,0.0,0.06042975383649754,0.32373,9.86964487691825
3965000000.0,22.09,0.0,0.0,0.0,0.07641966895389668,0.32510355403073554,9.87867
3970000000.0,22.09,0.0,0.0,0.0,0.050816031337460314,0.34217264577502643,9.881024708449946
3975000000.0,22.09,0.0,0.0,0.0,0.07798942279039422,0.32471115441921156,9.917419422790394
3980000000.0,22.09,0.0,0.0,0.0,0.06827752269327522,0.34335,9.907707522693274
3985000000.0,22.09,0.0,0.0,0.0,0.05886,0.34276124519231244,9.897995622596156
3990000000.0,22.09,0.0,0.0,0.0,0.05866372249903723,0.3239262775009628,9.888283722499036
3995000000.0,22.09,0.0,0.0,0.0,0.04914817759808178,0.33354,9.87867
4000000000.0,22.09,0.0,0.0,0.0,0.058860233085602336,0.3335402330856023,9.878669922304798
4005000000.0,22.09,0.0,0.0,0.0,0.08799593337695932,0.36267593337695936,9.86895802220768
4010000000.0,22.09,0.0,0.0,0.0,0.07867612211056121,0.3149006105528061,9.878473877889439
4015000000.0,22.09,0.0,0.0,0.0,0.05944844402688444,0.3424673339596733,9.907217333959673
4020000000.0,22.09,0.0,0.0,0.0,0.05886,0.34335,9.898682321916322
4025000000.0,22.09,0.0,0.0,0.0,0.06817957818079577,0.32471084363840846,9.89829
4030000000.0,22.09,0.0,0.0,0.0,0.06867,0.3145085217220852,9.907511478277915
4035000000.0,22.09,0.0,0.0,0.0,0.05954662162496622,0.3230433783750338,9.889853243249933
4040000000.0,22.09,0.0,0.0,0.0,0.06788527847215278,0.3147047215278472,9.88848
4045000000.0,22.09,0.0,0.0,0.0,0.06867,0.3317743571385436,9.870625642861457
4050000000.0,22.09,0.0,0.0,0.0,0.07749907866639077,0.34236907866639077,9.842372764000828
4055000000.0,22.09,0.0,0.0,0.0,0.06101804247298043,0.3171570637094706,9.874353915054039
4060000000.0,22.09,0.0,0.0,0.0,0.050227121139371216,0.31392,9.887302878860629
4065000000.0,22.09,0.0,0.0,0.0,0.057584778957747794,0.34805911583099114,9.897014778957747
4070000000.0,22.09,0.0,0.0,0.0,0.07573335810973358,0.35316,9.915163358109734
4075000000.0,22.09,0.0,0.0,0.0,0.0701414208480142,0.35316,9.901232841696027
4080000000.0,22.09,0.0,0.0,0.0,0.06042952075089521,0.3614004792491048,9.873568562252686
4085000000.0,22.09,0.0,0.0,0.0,0.08328713803867138,0.3548276206537762,9.901429517384894
4090000000.0,22.09,0.0,0.0,0.0,0.0802457205566572,0.3370714411133144,9.900055720556656
4095000000.0,22.09,0.0,0.0,0.0,0.07848,0.3176476409190764,9.882397640919075
4100000000.0,22.09,0.0,0.0,0.0,0.0627838407248384,0.31392,9.902214238912741
4105000000.0,22.09,0.0,0.0,0.0,0.06660997973469979,0.3294199594693996,9.8926000405306
4110000000.0,22.09,0.0,0.0,0.0,0.07632187983181879,0.3258881201681812,9.88848
4115000000.0,22.09,0.0,0.0,0.0,0.07848,0.34639133978681336,9.896033779928937
4120000000.0,22.09,0.0,0.0,0.0,0.07848,0.3457043199739432,9.883378639947885
4125000000.0,22.09,0.0,0.0,0.0,0.07112241987682419,0.34335,9.87867
4130000000.0,22.09,0.0,0.0,0.0,0.0541510395594104,0.3360905197797052,9.87867
4135000000.0,22.09,0.0,0.0,0.0,0.0776955212696552,0.3263786196825862,9.907315521269654
4140000000.0,22.09,0.0,0.0,0.0,0.08122671958546719,0.3307932804145328,9.903783439170933
4145000000.0,22.09,0.0,0.0,0.0,0.07848,0.3405051805116518,9.912220361023303
4150000000.0,22.09,0.0,0.0,0.0,0.09221416121754161,0.35021708060877077,9.911042919391228
4155000000.0,22.09,0.0,0.0,0.0,0.0981,0.31931509647055095,9.9081
4160000000.0,22.09,0.0,0.0,0.0,0.07808735759097357,0.3307935232120352,9.881416476787964
4165000000.0,22.09,0.0,0.0,0.0,0.06209721909987219,0.3499227809001278,9.862287219099873
4170000000.0,22.09,0.0,0.0,0.0,0.05886,0.3402106380055064,9.884948723988987
4175000000.0,22.09,0.0,0.0,0.0,0.05886,0.33354,9.885536837811268
4180000000.0,22.09,0.0,0.0,0.0,0.07141696238296963,0.3272615188085152,9.90378392476594
4185000000.0,22.09,0.0,0.0,0.0,0.047578093556980935,0.30518885613418856,9.905549237422791
4190000000.0,22.09,0.0,0.0,0.0,0.04767684415716844,0.3003822813857228,9.910454562771445
4195000000.0,22.09,0.0,0.0,0.0,0.05287581851715819,0.3400150888970509,9.899957455551474
4200000000.0,22.09,0.0,0.0,0.0,0.06670824473988245,0.3511978368400784,9.882593918420039
4205000000.0,22.09,0.0,0.0,0.0,0.06690403664584037,0.34335,9.87288201832292
4210000000.0,22.09,0.0,0.0,0.0,0.06454988177419882,0.33766011822580116,9.880239763548397
4215000000.0,22.09,0.0,0.0,0.0,0.06307821812868218,0.33354,9.871704654386047
4220000000.0,22.09,0.0,0.0,0.0,0.05886,0.32255263606312634,9.881024727873747
4225000000.0,22.09,0.0,0.0,0.0,0.05886,0.3247111641311116,9.903685582065554
4230000000.0,22.09,0.0,0.0,0.0,0.06945496432534964,0.33354,9.9081
4235000000.0,22.09,0.0,0.0,0.0,0.06288185322061852,0.32314123548041235,9.902900617740206
4240000000.0,22.09,0.0,0.0,0.0,0.05415128235691283,0.32922384707073843,9.903391282356912
4245000000.0,22.09,0.0,0.0,0.0,0.05886,0.3383468175459682,9.88308408772984
4250000000.0,22.09,0.0,0.0,0.0,0.06867016510230164,0.32372983489769835,9.868860165102301
4255000000.0,22.09,0.0,0.0,0.0,0.07848,0.32353396529653966,9.88347698264827
4260000000.0,22.09,0.0,0.0,0.0,0.07848,0.32412223450922234,9.88377111725461
4265000000.0,22.09,0.0,0.0,0.0,0.06925843431498434,0.31392,9.883280782842508
4270000000.0,22.09,0.0,0.0,0.0,0.05886,0.32745804881888047,9.88848
4275000000.0,22.09,0.0,0.0,0.0,0.06768916607349165,0.34335,9.879650833926508
4280000000.0,22.09,0.0,0.0,0.0,0.06984703373227033,0.34335,9.877492966267729
4285000000.0,22.09,0.0,0.0,0.0,0.05886,0.34335,9.875824850307048
4290000000.0,22.09,0.0,0.0,0.0,0.06298028332810283,0.3515905666562057,9.863170283328103
4295000000.0,22.09,0.0,0.0,0.0,0.06867,0.35894781657477814,9.872882183425222
4300000000.0,22.09,0.0,0.0,0.0,0.06474591647765916,0.33746366591063665,9.874745916477659
4305000000.0,22.09,0.0,0.0,0.0,0.06268598361945983,0.3292239344778393,9.87268598361946
4310000000.0,22.09,0.0,0.0,0.0,0.06494211628342116,0.34197634885026346,9.882397883716578
4315000000.0,22.09,0.0,0.0,0.0,0.05886,0.3346193514410935,9.884850216186301
4320000000.0,22.09,0.0,0.0,0.0,0.05532831608918316,0.3460966321783663,9.882201683910816
4325000000.0,22.09,0.0,0.0,0.0,0.052483584007935846,0.3369735840079358,9.881612831984128
4330000000.0,22.09,0.0,0.0,0.0,0.04885354768483548,0.34001451589494514,9.875530968210109
4335000000.0,22.09,0.0,0.0,0.0,0.04237953680869537,0.33354,9.885242615797825
4340000000.0,22.09,0.0,0.0,0.0,0.06553071570070715,0.33040071570070717,9.875530715700707
4345000000.0,22.09,0.0,0.0,0.0,0.06798355318923553,0.32677118439641184,9.86886
4350000000.0,22.09,0.0,0.0,0.0,0.08829,0.32471074651940746,9.87474616898706
4355000000.0,22.09,0.0,0.0,0.0,0.07406507704675076,0.3097999691812997,9.89132498459065
4360000000.0,22.09,0.0,0.0,0.0,0.04748065406330654,0.32647688468776886,9.89554311531223
4365000000.0,22.09,0.0,0.0,0.0,0.06602121521511214,0.33089121521511217,9.88848
4370000000.0,22.09,0.0,0.0,0.0,0.0639613697640137,0.33138205464602055,9.893581369764012
4375000000.0,22.09,0.0,0.0,0.0,0.08093258497912584,0.3507074150208741,9.905647415020873
4380000000.0,22.09,0.0,0.0,0.0,0.08122654477126544,0.3362865447712654,9.900644485076244
4385000000.0,22.09,0.0,0.0,0.0,0.05886,0.3184327703467277,9.901330844479908
4390000000.0,22.09,0.0,0.0,0.0,0.06101828527048285,0.3378565705409657,9.874353429459035
4395000000.0,22.09,0.0,0.0,0.0,0.0727903707352037,0.34697944389719443,9.861110185367602
4400000000.0,22.09,0.0,0.0,0.0,0.07847957267639571,0.32373,9.87278417092944
4405000000.0,22.09,0.0,0.0,0.0,0.042967971123679706,0.32186601443816015,9.89034398556184
4410000000.0,22.09,0.0,0.0,0.0,0.06062588565895886,0.31392,9.896524114341041
4415000000.0,22.09,0.0,0.0,0.0,0.06700221424392214,0.3155877857560778,9.886812214243921
4420000000.0,22.09,0.0,0.0,0.0,0.06199937170639372,0.32686937170639374,9.87867
4425000000.0,22.09,0.0,0.0,0.0,0.07700841404968413,0.3404068280993683,9.881613171900632
4430000000.0,22.09,0.0,0.0,0.0,0.06592302790513027,0.3251034860474349,9.895543027905129
4435000000.0,22.09,0.0,0.0,0.0,0.05160077228910773,0.3373661584336616,9.881220772289108
4440000000.0,22.09,0.0,0.0,0.0,0.07102457248334572,0.36061542751665426,9.897112713758327
4445000000.0,22.09,0.0,0.0,0.0,0.08721081366120813,0.3444291863387918,9.887400813661207
4450000000.0,22.09,0.0,0.0,0.0,0.0755367406922674,0.3521789135640891,9.87867
4455000000.0,22.09,0.0,0.0,0.0,0.04993298653302987,0.3424670134669701,9.87955298653303
4460000000.0,22.09,0.0,0.0,0.0,0.05964488663014887,0.33275511336985114,9.88848
4465000000.0,22.09,0.0,0.0,0.0,0.06798321327273213,0.32441678672726787,9.887793213272731
4470000000.0,22.09,0.0,0.0,0.0,0.05944868682438687,0.33295131317561316,9.88043606047316
4475000000.0,22.09,0.0,0.0,0.0,0.06867,0.3252017607645176,9.907118826156987
4480000000.0,22.09,0.0,0.0,0.0,0.06906248701862487,0.35198253894412534,9.888872487018624
4485000000.0,22.09,0.0,0.0,0.0,0.07848,0.32431877423148775,9.897701225768511
4490000000.0,22.09,0.0,0.0,0.0,0.07789113836141137,0.3429574255742742,9.878081138361411
4495000000.0,22.09,0.0,0.0,0.0,0.04924637461996375,0.32392637461996376,9.849829123859891
4500000000.0,22.09,0.0,0.0,0.0,0.06866982518579824,0.34335,9.908099650371597
4505000000.0,22.09,0.0,0.0,0.0,0.04924602499156025,0.34335,9.869252049983121
4510000000.0,22.09,0.0,0.0,0.0,0.05866388760133888,0.33373611239866113,9.888087775202678
4515000000.0,22.09,0.0,0.0,0.0,0.05886,0.32402421230154216,9.897995787698457
4520000000.0,22.09,0.0,0.0,0.0,0.07769537559115375,0.3143123122044231,9.860619248817692
4525000000.0,22.09,0.0,0.0,0.0,0.06916041210730411,0.36983752735617526,9.887008763678088
4530000000.0,22.09,0.0,0.0,0.0,0.05022702402037024,0.34511553603055534,9.88848
4535000000.0,22.09,0.0,0.0,0.0,0.05817338808693388,0.32510322382613227,9.870233223826132
4540000000.0,22.09,0.0,0.0,0.0,0.04983471181594712,0.33275528818405287,9.86886
4545000000.0,22.09,0.0,0.0,0.0,0.06690437656234376,0.3156856234376562,9.86886
4550000000.0,22.09,0.0,0.0,0.0,0.07749908837829088,0.3404072651348726,9.895347265134872
4555000000.0,22.09,0.0,0.0,0.0,0.05228703457377035,0.3171570345737703,9.87209703457377
4560000000.0,22.09,0.0,0.0,0.0,0.05768288857252889,0.3398186657175866,9.886125777145057
4565000000.0,22.09,0.0,0.0,0.0,0.050325211330352115,0.33481521133035214,9.871410422660704
4570000000.0,22.09,0.0,0.0,0.0,0.04905,0.35041337753353374,9.851986622466466
4575000000.0,22.09,0.0,0.0,0.0,0.04905,0.35316,9.874255766591657
4580000000.0,22.09,0.0,0.0,0.0,0.06553097792200978,0.32843853311698534,9.87867
4585000000.0,22.09,0.0,0.0,0.0,0.08495477811624777,0.34001477811624775,9.911239556232495
4590000000.0,22.09,0.0,0.0,0.0,0.10437857831048579,0.34335,9.893777132534272
4595000000.0,22.09,0.0,0.0,0.0,0.07612524299055243,0.3195114322429143,9.896426189252361
4600000000.0,22.09,0.0,0.0,0.0,0.07651808934948089,0.33746426804844265,9.906138089349481
4605000000.0,22.09,0.0,0.0,0.0,0.0629800211068002,0.3278500211068002,9.8848500316602
4610000000.0,22.09,0.0,0.0,0.0,0.08181566863115669,0.3466856686311567,9.855714331368842
4615000000.0,22.09,0.0,0.0,0.0,0.06562863107748632,0.3380524207183242,9.864347579281675
4620000000.0,22.09,0.0,0.0,0.0,0.08122706921387068,0.3409956897379569,9.876315689737957
4625000000.0,22.09,0.0,0.0,0.0,0.07357482032984819,0.3359924101649241,9.900742769505227
4630000000.0,22.09,0.0,0.0,0.0,0.06867,0.3407994899321949,9.89358102013561
4635000000.0,22.09,0.0,0.0,0.0,0.0615086099706861,0.35051139002931386,9.895641390029313
4640000000.0,22.09,0.0,0.0,0.0,0.07298658025286581,0.32490683949426835,9.905353290126433
4645000000.0,22.09,0.0,0.0,0.0,0.07151480977644809,0.3208851902235519,9.901134809776448
4650000000.0,22.09,0.0,0.0,0.0,0.06867,0.3374641806413418,9.89829
4655000000.0,22.09,0.0,0.0,0.0,0.06867,0.3298120191644202,9.89152100958221
4660000000.0,22.09,0.0,0.0,0.0,0.08868267154472673,0.33707178102981783,9.88180910948509
4665000000.0,22.09,0.0,0.0,0.0,0.08495441877594419,0.33677720938797207,9.885242790612027
4670000000.0,22.09,0.0,0.0,0.0,0.07848,0.3205906185817062,9.882005309290852
4675000000.0,22.09,0.0,0.0,0.0,0.06572681838746819,0.3075434091937341,9.897799772418796
4680000000.0,22.09,0.0,0.0,0.0,0.07141698180676981,0.3103884909033849,9.88298603638646
4685000000.0,22.09,0.0,0.0,0.0,0.07848,0.3201003910005039,9.88740117300151
4690000000.0,22.09,0.0,0.0,0.0,0.07848,0.32981229109762294,9.89829
4695000000.0,22.09,0.0,0.0,0.0,0.06651161761051617,0.35149257358422575,9.892305808805258
4700000000.0,22.09,0.0,0.0,0.0,0.05886,0.3511978174162782,9.876707817416278
4705000000.0,22.09,0.0,0.0,0.0,0.07043598277795983,0.35492598277795984,9.880435982777959
4710000000.0,22.09,0.0,0.0,0.0,0.07848,0.3515902170278022,9.877100217027802
4715000000.0,22.09,0.0,0.0,0.0,0.06729641683356416,0.3489417915832179,9.885635374749654
4720000000.0,22.09,0.0,0.0,0.0,0.05886,0.33667892495898927,9.903783691680337
4725000000.0,22.09,0.0,0.0,0.0,0.06965118355491183,0.31833440822254405,9.913495591777455
4730000000.0,22.09,0.0,0.0,0.0,0.07318250812542508,0.31921749187457493,9.891422540627126
4735000000.0,22.09,0.0,0.0,0.0,0.06867,0.33412878394338785,9.874059391971693
4740000000.0,22.09,0.0,0.0,0.0,0.05846741586237416,0.34335,9.873568707931186
4745000000.0,22.09,0.0,0.0,0.0,0.04905,0.3283404235022042,9.86886
4750000000.0,22.09,0.0,0.0,0.0,0.06376527678915277,0.3335403690522037,9.873765092263051
4755000000.0,22.09,0.0,0.0,0.0,0.07367300763983008,0.34835300763983007,9.89309097708051
4760000000.0,22.09,0.0,0.0,0.0,0.06867,0.3292233226281332,9.912808892457289
4765000000.0,22.09,0.0,0.0,0.0,0.07328079255440792,0.3185307925544079,9.91791
4770000000.0,22.09,0.0,0.0,0.0,0.07396730734847307,0.3327553853030539,9.913397307348472
4775000000.0,22.09,0.0,0.0,0.0,0.06425540725135408,0.33452081450270815,9.9081
4780000000.0,22.09,0.0,0.0,0.0,0.07180947853729479,0.34531246422882467,9.886517535771175
4785000000.0,22.09,0.0,0.0,0.0,0.08829,0.3601248211713482,9.867486785885768
4790000000.0,22.09,0.0,0.0,0.0,0.08416970695999706,0.33922970695999705,9.882790293040003
4795000000.0,22.09,0.0,0.0,0.0,0.07848,0.33354,9.884457806862878
4800000000.0,22.09,0.0,0.0,0.0,0.07848,0.34138818646848185,9.870821813531517
4805000000.0,22.09,0.0,0.0,0.0,0.07465400666864005,0.35316,9.86287599333136
4810000000.0,22.09,0.0,0.0,0.0,0.07239789342847892,0.35688789342847893,9.883771573713915
4815000000.0,22.09,0.0,0.0,0.0,0.07485020647440206,0.35208061942320623,9.893580825897608
4820000000.0,22.09,0.0,0.0,0.0,0.06160661275456612,0.3406033872454339,9.87945508086815
4825000000.0,22.09,0.0,0.0,0.0,0.06278437487934375,0.3462928125603281,9.894856406280164
4830000000.0,22.09,0.0,0.0,0.0,0.07828351854913518,0.3268690123660901,9.891815493816955
4835000000.0,22.09,0.0,0.0,0.0,0.06533478782814787,0.3268695756562957,9.895052606085926
4840000000.0,22.09,0.0,0.0,0.0,0.07220141197761412,0.34688141197761413,9.897897882033579
4845000000.0,22.09,0.0,0.0,0.0,0.05581880589168806,0.33354,9.905745223566752
4850000000.0,22.09,0.0,0.0,0.0,0.05199309420543095,0.33648309420543093,9.884556188410862
4855000000.0,22.09,0.0,0.0,0.0,0.06170499430254994,0.34050500569745007,9.88975501709235
4860000000.0,22.09,0.0,0.0,0.0,0.06592310560033106,0.33628689439966897,9.86886
4865000000.0,22.09,0.0,0.0,0.0,0.05356241100642411,0.34070120550321203,9.86886
4870000000.0,22.09,0.0,0.0,0.0,0.04179069459390695,0.33354,9.871410694593907
4875000000.0,22.09,0.0,0.0,0.0,0.05150259469102595,0.33354,9.881122594691025
4880000000.0,22.09,0.0,0.0,0.0,0.05650550521185505,0.3358944947881449,9.89318898957629
4885000000.0,22.09,0.0,0.0,0.0,0.055819184655791845,0.341093605114736,9.9081
4890000000.0,22.09,0.0,0.0,0.0,0.07416341003523409,0.33138170501761705,9.910258294982382
4895000000.0,22.09,0.0,0.0,0.0,0.06092019507950195,0.3278503901590039,9.90760902460249
4900000000.0,22.09,0.0,0.0,0.0,0.06670790482337904,0.3472741903532419,9.87082209517662
4905000000.0,22.09,0.0,0.0,0.0,0.06072399527373995,0.3573780141787802,9.87680600472626
4910000000.0,22.09,0.0,0.0,0.0,0.06513820925828209,0.3300082092582821,9.874157686112577
4915000000.0,22.09,0.0,0.0,0.0,0.05572118187191182,0.3172555909359559,9.896622204532022
4920000000.0,22.09,0.0,0.0,0.0,0.08672030443490304,0.3304006088698061,9.88848
4925000000.0,22.09,0.0,0.0,0.0,0.07700840433778404,0.3198063826488638,9.889951595662215
4930000000.0,22.09,0.0,0.0,0.0,0.07004349575933495,0.35453349575933496,9.894169512721994
4935000000.0,22.09,0.0,0.0,0.0,0.07848,0.3604192082870921,9.870135395856453
4940000000.0,22.09,0.0,0.0,0.0,0.07612540809285408,0.34452729595357295,9.882201887860719
4945000000.0,22.09,0.0,0.0,0.0,0.059939196050691965,0.352080803949308,9.905941607898615
4950000000.0,22.09,0.0,0.0,0.0,0.06670780770437808,0.34433109614781093,9.88848
4955000000.0,22.09,0.0,0.0,0.0,0.049932996244929966,0.3496280150202801,9.88848
4960000000.0,22.09,0.0,0.0,0.0,0.05807510365795104,0.3154897926840979,9.886910207315902
4965000000.0,22.09,0.0,0.0,0.0,0.0511103893175039,0.334226796439168,9.868173203560831
4970000000.0,22.09,0.0,0.0,0.0,0.07848,0.34276130346371303,9.863759572290295
4975000000.0,22.09,0.0,0.0,0.0,0.07897059663340596,0.33255880673318805,9.934095823566159
4980000000.0,22.09,0.0,0.0,0.0,0.08829,0.31392,9.868467503269475
4985000000.0,22.09,0.0,0.0,0.0,0.08681801586178015,0.31627517462115173,9.85905
4990000000.0,22.09,0.0,0.0,0.0,0.039632593849525936,0.3912222184514222,9.860227781548577
4995000000.0,22.09,0.0,0.0,0.0,0.05876180297811803,0.33373639404376393,9.917517211912472
5000000000.0,22.09,0.0,0.0,0.0,0.04905019423800194,0.353159805761998,9.878670097119
5005000000.0,22.09,0.0,0.0,0.0,0.06847399443223993,0.33373600556776006,9.88838199721612
5010000000.0,22.09,0.0,0.0,0.0,0.05905610268676103,0.33354,9.898093897313238
5015000000.0,22.09,0.0,0.0,0.0,0.05886,0.314508405179284,9.907805797410358
5020000000.0,22.09,0.0,0.0,0.0,0.07769539501495394,0.31392,9.87984690747757
5025000000.0,22.09,0.0,0.0,0.0,0.07848,0.323239597604596,9.869350402395403
5030000000.0,22.09,0.0,0.0,0.0,0.07848,0.314508502298285,9.878081497701714
5035000000.0,22.09,0.0,0.0,0.0,0.09672679559766796,0.33216679559766793,9.87867
5040000000.0,22.09,0.0,0.0,0.0,0.07102410631214107,0.33354,9.87867
5045000000.0,22.09,0.0,0.0,0.0,0.059742802006928025,0.33354,9.896524395986143
5050000000.0,22.09,0.0,0.0,0.0,0.06768909809019097,0.32471090190980906,9.90711909809019
5055000000.0,22.09,0.0,0.0,0.0,0.09486299456192995,0.34992299456192993,9.873176007250759
5060000000.0,22.09,0.0,0.0,0.0,0.06356840686228407,0.35316,9.894758694853286
5065000000.0,22.09,0.0,0.0,0.0,0.07592959676309596,0.361694798381548,9.872685604855356
5070000000.0,22.09,0.0,0.0,0.0,0.08691669847866698,0.354533301521333,9.885733396957333
5075000000.0,22.09,0.0,0.0,0.0,0.079951401424214,0.336482802848428,9.88848
5080000000.0,22.09,0.0,0.0,0.0,0.061999002654190026,0.341780498672905,9.87199900265419
5085000000.0,22.09,0.0,0.0,0.0,0.07514479754004796,0.31078040491990405,9.901429595080096
5090000000.0,22.09,0.0,0.0,0.0,0.070435701132857,0.31215429886714297,9.900055701132857
5095000000.0,22.09,0.0,0.0,0.0,0.06867,0.321866198964262,9.882397602071476
5100000000.0,22.09,0.0,0.0,0.0,0.05297380187723802,0.34727429718414293,9.902214297184143
5105000000.0,22.09,0.0,0.0,0.0,0.056799999158499995,0.32991000252450003,9.8848500025245
5110000000.0,22.09,0.0,0.0,0.0,0.06651189925561898,0.346685697766857,9.87867
5115000000.0,22.09,0.0,0.0,0.0,0.06867,0.35316,9.886223799352738
5120000000.0,22.09,0.0,0.0,0.0,0.06121430055014301,0.330792901650429,9.88848
5125000000.0,22.09,0.0,0.0,0.0,0.05886,0.331087599546976,9.895837599546976
5130000000.0,22.09,0.0,0.0,0.0,0.05160050035590501,0.326280500355905,9.89829
5135000000.0,22.09,0.0,0.0,0.0,0.08485699870607,0.330891399741214,9.891128600258785
5140000000.0,22.09,0.0,0.0,0.0,0.06984680064666801,0.33354,9.881416700161667
5145000000.0,22.09,0.0,0.0,0.0,0.051894800064548004,0.33354,9.892600399870904
5150000000.0,22.09,0.0,0.0,0.0,0.062784200065142,0.347274200065142,9.891422899967429
5155000000.0,22.09,0.0,0.0,0.0,0.06190099987031,0.33962199974062,9.88848
5160000000.0,22.09,0.0,0.0,0.0,0.065530900226809,0.353552700680427,9.895150900226808
5165000000.0,22.09,0.0,0.0,0.0,0.06867,0.336678798704288,9.885144399352143
5170000000.0,22.09,0.0,0.0,0.0,0.06867,0.34962880168418803,9.885144700421046
5175000000.0,22.09,0.0,0.0,0.0,0.075046600518166,0.343840198445502,9.875726798963667
5180000000.0,22.09,0.0,0.0,0.0,0.06592299876942999,0.32098299876943,9.875138500615284
5185000000.0,22.09,0.0,0.0,0.0,0.06504040071240401,0.32628080142480803,9.891030801424808
5190000000.0,22.09,0.0,0.0,0.0,0.05042309757143097,0.33354,9.886125398380953
5195000000.0,22.09,0.0,0.0,0.0,0.06317680362656804,0.339524200906642,9.884654200906642
5200000000.0,22.09,0.0,0.0,0.0,0.07848,0.34335,9.88259389899624
5205000000.0,22.09,0.0,0.0,0.0,0.06111599669735997,0.33756199889912,9.87288199889912
5210000000.0,22.09,0.0,0.0,0.0,0.054739901197999014,0.35060970359399707,9.891619604791995
5215000000.0,22.09,0.0,0.0,0.0,0.05886,0.351786397409764,9.88014099352441
5220000000.0,22.09,0.0,0.0,0.0,0.07534110417671104,0.337856298607763,9.85905
5225000000.0,22.09,0.0,0.0,0.0,0.08829,0.33893560148935603,9.864445601489356
5230000000.0,22.09,0.0,0.0,0.0,0.08299249841352498,0.35394500317295,9.884752504759424
5235000000.0,22.09,0.0,0.0,0.0,0.08367940168359402,0.34217239326562393,9.882691794949217
5240000000.0,22.09,0.0,0.0,0.0,0.06788479287714792,0.32373,9.879062603561426
5245000000.0,22.09,0.0,0.0,0.0,0.06405960563349605,0.33873960563349603,9.88848
5250000000.0,22.09,0.0,0.0,0.0,0.07357489802504898,0.34334979605009797,9.88848
5255000000.0,22.09,0.0,0.0,0.0,0.07347700207207002,0.33354,9.89328700207207
5260000000.0,22.09,0.0,0.0,0.0,0.06435329349243293,0.3241221956616219,9.89829
5265000000.0,22.09,0.0,0.0,0.0,0.058271604532616046,0.32314160453261603,9.893679197733691
5270000000.0,22.09,0.0,0.0,0.0,0.06867,0.33354,9.870429190546291
5275000000.0,22.09,0.0,0.0,0.0,0.07749920492109205,0.32471079507890793,9.866898409842184
5280000000.0,22.09,0.0,0.0,0.0,0.07965699488466994,0.31392,9.884163497442335
5285000000.0,22.09,0.0,0.0,0.0,0.06867,0.3307936106191361,9.891325207964352
5290000000.0,22.09,0.0,0.0,0.0,0.060429394496193944,0.34903969724809697,9.895739091744291
5295000000.0,22.09,0.0,0.0,0.0,0.05307220284902203,0.33932779715097794,9.890736608547066
5300000000.0,22.09,0.0,0.0,0.0,0.06278410294614103,0.33354,9.900251794107717
5305000000.0,22.09,0.0,0.0,0.0,0.06101799391347994,0.33736600304326003,9.89230600304326
5310000000.0,22.09,0.0,0.0,0.0,0.060233709421137094,0.347077903140379,9.89456209685962
5315000000.0,22.09,0.0,0.0,0.0,0.07122039352500394,0.3459003935250039,9.884850196762502
5320000000.0,22.09,0.0,0.0,0.0,0.062391703334617035,0.33354,9.875138296665382
5325000000.0,22.09,0.0,0.0,0.0,0.0789708102952081,0.3266727931365279,9.879160810295208
5330000000.0,22.09,0.0,0.0,0.0,0.08142248235572483,0.32059100705771004,9.89161899294229
5335000000.0,22.09,0.0,0.0,0.0,0.055524807251948076,0.3238277891220779,9.875432596374026
5340000000.0,22.09,0.0,0.0,0.0,0.05925208883072088,0.300970696276907,9.881417214892371
5345000000.0,22.09,0.0,0.0,0.0,0.05140481528084815,0.3064648152808482,9.905058796179787
5350000000.0,22.09,0.0,0.0,0.0,0.07553689608266896,0.3394262078346621,9.889460688248006
5355000000.0,22.09,0.0,0.0,0.0,0.06582499598554996,0.3474699919710999,9.8745500080289
5360000000.0,22.09,0.0,0.0,0.0,0.06160690411156904,0.33628690411156903,9.88573309588843
5365000000.0,22.09,0.0,0.0,0.0,0.07131880420868804,0.340701195791312,9.881318804208687
5370000000.0,22.09,0.0,0.0,0.0,0.08103070430580704,0.33354,9.885929295694192
5375000000.0,22.09,0.0,0.0,0.0,0.08583739559707394,0.33354,9.883575208805851
5380000000.0,22.09,0.0,0.0,0.0,0.07848,0.33354,9.89829
5385000000.0,22.09,0.0,0.0,0.0,0.07171078620850786,0.33354,9.89829
5390000000.0,22.09,0.0,0.0,0.0,0.05552491408284914,0.32706508591715083,9.893973390611434
5395000000.0,22.09,0.0,0.0,0.0,0.07641979520859794,0.31029061437420613,9.87867
5400000000.0,22.09,0.0,0.0,0.0,0.06670789511147895,0.33354,9.882594209777041
5405000000.0,22.09,0.0,0.0,0.0,0.060724004985640054,0.3372680099712801,9.89456199002872
5410000000.0,22.09,0.0,0.0,0.0,0.07043590508275904,0.35316,9.87690409491724
5415000000.0,22.09,0.0,0.0,0.0,0.07681219482012194,0.34815658446036585,9.870527805179877
5420000000.0,22.09,0.0,0.0,0.0,0.07023970527699705,0.32373,9.873960884169009
5425000000.0,22.09,0.0,0.0,0.0,0.07700839462588394,0.3252016053741161,9.859541237618812
5430000000.0,22.09,0.0,0.0,0.0,0.0714170109424701,0.3390340218849402,9.912415978115058
5435000000.0,22.09,0.0,0.0,0.0,0.08573918886329188,0.36895378329493783,9.877394594431646
5440000000.0,22.09,0.0,0.0,0.0,0.06984730566547305,0.3398180830035808,9.86886
5445000000.0,22.09,0.0,0.0,0.0,0.07740079423740794,0.3160784115251841,9.869939205762591
5450000000.0,22.09,0.0,0.0,0.0,0.06572668242086682,0.33354,9.881613317579133
5455000000.0,22.09,0.0,0.0,0.0,0.03924,0.33442300595683006,9.9081
5460000000.0,22.09,0.0,0.0,0.0,0.04394943632369436,0.34178018789210185,9.906530187892102
5465000000.0,22.09,0.0,0.0,0.0,0.09603958154679582,0.3244168061510681,9.887106387697864
5470000000.0,22.09,0.0,0.0,0.0,0.06749258750362587,0.33177388125543883,9.86886
5475000000.0,22.09,0.0,0.0,0.0,0.050521819035918195,0.3050912126906121,9.869350606345305
5480000000.0,22.09,0.0,0.0,0.0,0.07769498711514987,0.32373,9.87945501288485
5485000000.0,22.09,0.0,0.0,0.0,0.0597432196186322,0.3246132196186322,9.898878813079088
5490000000.0,22.09,0.0,0.0,0.0,0.08829,0.35276738672667385,9.91732108009001
5495000000.0,22.09,0.0,0.0,0.0,0.08819179326621793,0.33334358653243584,9.888381793266218
5500000000.0,22.09,0.0,0.0,0.0,0.07847978633819785,0.31392042732360426,9.878669893169098
5505000000.0,22.09,0.0,0.0,0.0,0.05905598614395986,0.35276802771208027,9.86895799307198
5510000000.0,22.09,0.0,0.0,0.0,0.07808781405027813,0.35316,9.897701721075416
5515000000.0,22.09,0.0,0.0,0.0,0.07848,0.33412838575548387,9.888774192877742
5520000000.0,22.09,0.0,0.0,0.0,0.059644585561245855,0.3429577072193771,9.897897707219377
5525000000.0,22.09,0.0,0.0,0.0,0.07749921463299214,0.35266960731649605,9.879650785367007
5530000000.0,22.09,0.0,0.0,0.0,0.05081547775915478,0.31627397034553967,9.915556029654459
5535000000.0,22.09,0.0,0.0,0.0,0.058173407510734076,0.32304340751073407,9.881416369957064
5540000000.0,22.09,0.0,0.0,0.0,0.06788530760785307,0.3327553076078531,9.869644692392146
5545000000.0,22.09,0.0,0.0,0.0,0.07759720770497207,0.3156855845900558,9.877787207704971
5550000000.0,22.09,0.0,0.0,0.0,0.09613821560418216,0.3404073234062732,9.88749910780209
5555000000.0,22.09,0.0,0.0,0.0,0.054444960503949605,0.36081201579842015,9.87974899210079
5560000000.0,22.09,0.0,0.0,0.0,0.06631581599265815,0.3198054600183546,9.87867
5565000000.0,22.09,0.0,0.0,0.0,0.07720480809344807,0.3565940404672404,9.87867
5570000000.0,22.09,0.0,0.0,0.0,0.07848,0.3460965836188658,9.87867
5575000000.0,22.09,0.0,0.0,0.0,0.07848,0.31833417513694173,9.87867
5580000000.0,22.09,0.0,0.0,0.0,0.06199898323038983,0.33040101676961015,9.87867
5585000000.0,22.09,0.0,0.0,0.0,0.06700240848192408,0.34982481696384815,9.886812408481923
5590000000.0,22.09,0.0,0.0,0.0,0.06867,0.3451156914209569,9.896524308579043
5595000000.0,22.09,0.0,0.0,0.0,0.06867,0.34335,9.890343791323838
5600000000.0,22.09,0.0,0.0,0.0,0.07651810877328108,0.34335,9.880631891226718
5605000000.0,22.09,0.0,0.0,0.0,0.09398001774080018,0.3278499822591998,9.8941700177408
5610000000.0,22.09,0.0,0.0,0.0,0.0981,0.32373,9.860030455162404
5615000000.0,22.09,0.0,0.0,0.0,0.07543857280608572,0.33883761812927615,9.879455236258552
5620000000.0,22.09,0.0,0.0,0.0,0.06867,0.3135271633529716,9.88848
5625000000.0,22.09,0.0,0.0,0.0,0.05395478148224782,0.3188252185177522,9.881122390741124
5630000000.0,22.09,0.0,0.0,0.0,0.06356901871199018,0.3309895093559951,9.885929509355995
5635000000.0,22.09,0.0,0.0,0.0,0.05434718109377181,0.3407014094531141,9.881318590546886
5640000000.0,22.09,0.0,0.0,0.0,0.056113309550233095,0.3504133095502331,9.87867
5645000000.0,22.09,0.0,0.0,0.0,0.07279041929470419,0.3601252096473521,9.892600419294704
5650000000.0,22.09,0.0,0.0,0.0,0.08534710974447109,0.3561028902555289,9.870821561022115
5655000000.0,22.09,0.0,0.0,0.0,0.0815209901584099,0.35316,9.86581900984159
5660000000.0,22.09,0.0,0.0,0.0,0.0584672701838727,0.3331472701838727,9.888872729816127
5665000000.0,22.09,0.0,0.0,0.0,0.055622810035828106,0.3105843799283438,9.904862810035828
5670000000.0,22.09,0.0,0.0,0.0,0.0718094202658942,0.2976352898670529,9.9081
5675000000.0,22.09,0.0,0.0,0.0,0.05935016930980169,0.30705322046013217,9.914476610230066
5680000000.0,22.09,0.0,0.0,0.0,0.05532851032718511,0.3390340413087404,9.90535297934563
5685000000.0,22.09,0.0,0.0,0.0,0.0650404104243041,0.3407991791513918,9.89829
5690000000.0,22.09,0.0,0.0,0.0,0.0625876894785769,0.3396223105214231,9.886125378957153
5695000000.0,22.09,0.0,0.0,0.0,0.04689157876291579,0.3313815787629158,9.872685789381457
5700000000.0,22.09,0.0,0.0,0.0,0.06278444286264442,0.3178438892843389,9.886518332146983
5705000000.0,22.09,0.0,0.0,0.0,0.07269198918721989,0.3254960216255602,9.892501989187219
5710000000.0,22.09,0.0,0.0,0.0,0.08004982181979821,0.33354,9.88848
5715000000.0,22.09,0.0,0.0,0.0,0.07151456697894568,0.3279481889929819,9.894071811007018
5720000000.0,22.09,0.0,0.0,0.0,0.06435371110413711,0.3347174222082742,9.887302577791726
5725000000.0,22.09,0.0,0.0,0.0,0.06327438879874389,0.33255877759748775,9.884065611201256
5730000000.0,22.09,0.0,0.0,0.0,0.05886,0.3290275112983751,9.904372533895124
5735000000.0,22.09,0.0,0.0,0.0,0.0640594113954941,0.3387394113954941,9.902311765813517
5740000000.0,22.09,0.0,0.0,0.0,0.07377131149261311,0.3382486885073869,9.893581311492612
5745000000.0,22.09,0.0,0.0,0.0,0.08348321158973211,0.31352715364107153,9.893286788410267
5750000000.0,22.09,0.0,0.0,0.0,0.06866955325259552,0.3188255584342556,9.89338511168685
5755000000.0,22.09,0.0,0.0,0.0,0.05866402356794023,0.34335,9.883868964648089
5760000000.0,22.09,0.0,0.0,0.0,0.07337891188108911,0.35276782376217825,9.892404559405445
5765000000.0,22.09,0.0,0.0,0.0,0.07848,0.3583591880217919,9.899466752087166
5770000000.0,22.09,0.0,0.0,0.0,0.06945457584934575,0.34413457584934576,9.874157287924673
5775000000.0,22.09,0.0,0.0,0.0,0.06327461217244612,0.33354,9.873274612172446
5780000000.0,22.09,0.0,0.0,0.0,0.07730302453913024,0.3162739509217395,9.87003697546087
5785000000.0,22.09,0.0,0.0,0.0,0.08407158763331588,0.3027368247333682,9.871705237100052
5790000000.0,22.09,0.0,0.0,0.0,0.06199875014478749,0.3221606249276062,9.87611906260859
5795000000.0,22.09,0.0,0.0,0.0,0.05130663768276637,0.33354,9.863072212560922
5800000000.0,22.09,0.0,0.0,0.0,0.06474588734195887,0.3296158873419589,9.876708225316081
5805000000.0,22.09,0.0,0.0,0.0,0.06651202551032026,0.31990398724483987,9.88082797448968
5810000000.0,22.09,0.0,0.0,0.0,0.056112522886325227,0.32137582570455825,9.880043738556838
5815000000.0,22.09,0.0,0.0,0.0,0.04865850359518503,0.3299101870506019,9.891030374101204
5820000000.0,22.09,0.0,0.0,0.0,0.08397314781393149,0.32726171304651713,9.871606573906966
5825000000.0,22.09,0.0,0.0,0.0,0.05886,0.3301063868563639,9.872784452574544
5830000000.0,22.09,0.0,0.0,0.0,0.06886653972226539,0.32373,9.908296539722265
5835000000.0,22.09,0.0,0.0,0.0,0.08181517332425173,0.32373,9.91153293331063
5840000000.0,22.09,0.0,0.0,0.0,0.06553068656500687,0.32373,9.875530686565007
5845000000.0,22.09,0.0,0.0,0.0,0.06494242706422428,0.32373,9.86886
5850000000.0,22.09,0.0,0.0,0.0,0.08436622725846227,0.3266731136292311,9.86591688637077
5855000000.0,22.09,0.0,0.0,0.0,0.08956495882094959,0.34492005490540056,9.8647400274527
5860000000.0,22.09,0.0,0.0,0.0,0.07141691382346914,0.3672861723530617,9.884163827646939
5865000000.0,22.09,0.0,0.0,0.0,0.07053355823823558,0.34256474431764744,9.895641186079411
5870000000.0,22.09,0.0,0.0,0.0,0.05160071401770715,0.31392,9.880827857946878
5875000000.0,22.09,0.0,0.0,0.0,0.06621784234447842,0.31392,9.873765684688957
5880000000.0,22.09,0.0,0.0,0.0,0.08593548578805485,0.3209835426358354,9.910846457364164
5885000000.0,22.09,0.0,0.0,0.0,0.07622358569093585,0.34560641430906414,9.88848
5890000000.0,22.09,0.0,0.0,0.0,0.06867,0.35100168559381684,9.88200505678145
5895000000.0,22.09,0.0,0.0,0.0,0.06867,0.3392295709933957,9.865230643509907
5900000000.0,22.09,0.0,0.0,0.0,0.07259422920084228,0.32176788539957885,9.884555770799157
5905000000.0,22.09,0.0,0.0,0.0,0.0808339412098394,0.3176480293950803,9.87072401469754
5910000000.0,22.09,0.0,0.0,0.0,0.054347744383977444,0.33177408520534085,9.882201829589318
5915000000.0,22.09,0.0,0.0,0.0,0.0751443702164437,0.32373,9.89829
5920000000.0,22.09,0.0,0.0,0.0,0.054150855033308555,0.32843914496669147,9.896720285011103
5925000000.0,22.09,0.0,0.0,0.0,0.03973130560211306,0.35463161508601615,9.885536769827967
5930000000.0,22.09,0.0,0.0,0.0,0.0953529696337297,0.3588494544505946,9.86886
5935000000.0,22.09,0.0,0.0,0.0,0.07975541528025415,0.3360908305605083,9.871410830560508
5940000000.0,22.09,0.0,0.0,0.0,0.08475805386788053,0.3508053692452537,9.88494805386788
5945000000.0,22.09,0.0,0.0,0.0,0.06101843094898431,0.3313815690510157,9.85905
5950000000.0,22.09,0.0,0.0,0.0,0.07749888442838884,0.31392,9.862974462286445
5955000000.0,22.09,0.0,0.0,0.0,0.06778698433126984,0.3156860313374603,9.89917301566873
5960000000.0,22.09,0.0,0.0,0.0,0.058075084234150844,0.3319701684683017,9.9065301684683
5965000000.0,22.09,0.0,0.0,0.0,0.04905,0.3152936317259363,9.889166815862968
5970000000.0,22.09,0.0,0.0,0.0,0.04905,0.33412871596008714,9.89829
5975000000.0,22.09,0.0,0.0,0.0,0.050521848171618484,0.3428593839427938,9.897799383942793
5980000000.0,22.09,0.0,0.0,0.0,0.07808748384567483,0.33275496769134966,9.88926503230865
5985000000.0,22.09,0.0,0.0,0.0,0.06808116749711167,0.3145088325028883,9.907216751245667
5990000000.0,22.09,0.0,0.0,0.0,0.04944263269712633,0.33334368365143685,9.878866316348562
5995000000.0,22.09,0.0,0.0,0.0,0.06867,0.32392643289136436,9.88848
6000000000.0,22.09,0.0,0.0,0.0,0.06866976691439766,0.3433496503715965,9.8884798834572
6005000000.0,22.09,0.0,0.0,0.0,0.04924596672015967,0.3142139500802395,9.87876798336008
6010000000.0,22.09,0.0,0.0,0.0,0.08750566694815667,0.35237566694815664,9.87867
6015000000.0,22.09,0.0,0.0,0.0,0.08829,0.3341283663316837,9.869154183165842
6020000000.0,22.09,0.0,0.0,0.0,0.06945456613744566,0.3617931507938315,9.859442283068722
6025000000.0,22.09,0.0,0.0,0.0,0.08730923405679233,0.3350111489148115,9.896328468113584
6030000000.0,22.09,0.0,0.0,0.0,0.06984696574896965,0.32431848287448484,9.852182414372423
6035000000.0,22.09,0.0,0.0,0.0,0.07779341722263416,0.30548316555473165,9.876610251667902
6040000000.0,22.09,0.0,0.0,0.0,0.06945468268024682,0.32216063463950634,9.914771269279012
6045000000.0,22.09,0.0,0.0,0.0,0.05974278258312783,0.33265721741687215,9.91791
6050000000.0,22.09,0.0,0.0,0.0,0.10300558756995588,0.3423691175139912,9.891422647458025
6055000000.0,22.09,0.0,0.0,0.0,0.09044796477777964,0.34335,9.87974898238889
6060000000.0,22.09,0.0,0.0,0.0,0.05375832916708329,0.35198291770822915,9.852771246875312
6065000000.0,22.09,0.0,0.0,0.0,0.06611963561069635,0.35316,9.866309635610696
6070000000.0,22.09,0.0,0.0,0.0,0.08554343580493436,0.35316,9.877296717902468
6075000000.0,22.09,0.0,0.0,0.0,0.07995138200041381,0.31980552800165524,9.903685853998757
6080000000.0,22.09,0.0,0.0,0.0,0.07848,0.3304010361934104,9.89161896380659
6085000000.0,22.09,0.0,0.0,0.0,0.07033758180617582,0.33354,9.88848
6090000000.0,22.09,0.0,0.0,0.0,0.07671431829094318,0.34962863658188637,9.912612954872829
6095000000.0,22.09,0.0,0.0,0.0,0.08642621838806218,0.33726756322387563,9.878178908059688
6100000000.0,22.09,0.0,0.0,0.0,0.049049407574094074,0.3413881184851812,9.900252473940725
6105000000.0,22.09,0.0,0.0,0.0,0.06249005574690055,0.3355999814176998,9.8925999628354
6110000000.0,22.09,0.0,0.0,0.0,0.053366162641161626,0.33354,9.88848
6115000000.0,22.09,0.0,0.0,0.0,0.05660381877653819,0.34109381877653816,9.88848
6120000000.0,22.09,0.0,0.0,0.0,0.08122715662097156,0.3582614377473144,9.91084715662097
6125000000.0,22.09,0.0,0.0,0.0,0.06621714308767143,0.32618190514611906,9.91791
6130000000.0,22.09,0.0,0.0,0.0,0.06611951906789519,0.3284390381357904,9.90339096186421
6135000000.0,22.09,0.0,0.0,0.0,0.05434716166997162,0.33354,9.883967161669972
6140000000.0,22.09,0.0,0.0,0.0,0.08436659631066597,0.33354,9.864543361475734
6145000000.0,22.09,0.0,0.0,0.0,0.0911347806407478,0.33354,9.872980438718503
6150000000.0,22.09,0.0,0.0,0.0,0.08829,0.33354,9.871802880543628
6155000000.0,22.09,0.0,0.0,0.0,0.08829,0.3267709804465098,9.87562901955349
6160000000.0,22.09,0.0,0.0,0.0,0.06827724104817241,0.32373,9.88534091965061
6165000000.0,22.09,0.0,0.0,0.0,0.05886,0.3171571802522718,9.881907180252272
6170000000.0,22.09,0.0,0.0,0.0,0.06533471984484719,0.3333441595345416,9.885144719844847
6175000000.0,22.09,0.0,0.0,0.0,0.06867,0.34335,9.875726760116068
6180000000.0,22.09,0.0,0.0,0.0,0.0812270400781704,0.3370714799609148,9.875138520039085
6185000000.0,22.09,0.0,0.0,0.0,0.08210957986379579,0.33354,9.872489579863796
6190000000.0,22.09,0.0,0.0,0.0,0.07848,0.32745767976667683,9.874942320233323
6195000000.0,22.09,0.0,0.0,0.0,0.0665115593391156,0.3117615593391156,9.884654220330441
6200000000.0,22.09,0.0,0.0,0.0,0.0765183612826836,0.3099961204275612,9.894366120427561
6205000000.0,22.09,0.0,0.0,0.0,0.05934989737659897,0.3254960410493604,9.904078020524679
6210000000.0,22.09,0.0,0.0,0.0,0.061999682487196825,0.3392299206217992,9.8967201587564
6215000000.0,22.09,0.0,0.0,0.0,0.08966364143783642,0.3545336414378364,9.871704537843245
6220000000.0,22.09,0.0,0.0,0.0,0.08161883755188837,0.3574762791839628,9.892012324896223
6225000000.0,22.09,0.0,0.0,0.0,0.06867,0.33697313726053135,9.890931895434218
6230000000.0,22.09,0.0,0.0,0.0,0.06867,0.3290275210102752,9.874157521010275
6235000000.0,22.09,0.0,0.0,0.0,0.053071736677817366,0.3179417366778174,9.889068842214789
6240000000.0,22.09,0.0,0.0,0.0,0.05964528481805284,0.3092113212045132,9.893188678795486
6245000000.0,22.09,0.0,0.0,0.0,0.06847355739673558,0.3189232213016322,9.88848
6250000000.0,22.09,0.0,0.0,0.0,0.049049757202497574,0.32373,9.893385121398751
6255000000.0,22.09,0.0,0.0,0.0,0.05366106448761064,0.3285370214958702,9.903097021495869
6260000000.0,22.09,0.0,0.0,0.0,0.07808784318597843,0.34295784318597844,9.889264313628043
6265000000.0,22.09,0.0,0.0,0.0,0.08367917830989177,0.35316,9.86886
6270000000.0,22.09,0.0,0.0,0.0,0.07848,0.3441345564255456,9.882398165361682
6275000000.0,22.09,0.0,0.0,0.0,0.07406537811565378,0.3379546218843462,9.885046134346961
6280000000.0,22.09,0.0,0.0,0.0,0.06435347801853478,0.3390334780185348,9.890442609907325
6285000000.0,22.09,0.0,0.0,0.0,0.06307842207858422,0.3293215779214158,9.90947315584283
6290000000.0,22.09,0.0,0.0,0.0,0.06867,0.32373,9.89829
6295000000.0,22.09,0.0,0.0,0.0,0.06464777772717778,0.33579666681846665,9.90231222227282
6300000000.0,22.09,0.0,0.0,0.0,0.06278412236994123,0.34923587763005876,9.892403510520234
6305000000.0,22.09,0.0,0.0,0.0,0.07249602246706022,0.3471760224670602,9.87268602246706
6310000000.0,22.09,0.0,0.0,0.0,0.07848,0.3457041548716415,9.871214154871641
6315000000.0,22.09,0.0,0.0,0.0,0.07848,0.32991017733870176,9.866309645322596
6320000000.0,22.09,0.0,0.0,0.0,0.07494827724158276,0.3201982772415828,9.882201722758417
6325000000.0,22.09,0.0,0.0,0.0,0.06523637714446377,0.3207872457110724,9.891913622855535
6330000000.0,22.09,0.0,0.0,0.0,0.05886,0.3368755229526552,9.894954477047344
6335000000.0,22.09,0.0,0.0,0.0,0.06857226914932268,0.34335,9.885242576950226
6340000000.0,22.09,0.0,0.0,0.0,0.08201135370621353,0.34335,9.881809323146893
6345000000.0,22.09,0.0,0.0,0.0,0.07171122324401223,0.34030877675598775,9.882397553511975
6350000000.0,22.09,0.0,0.0,0.0,0.08142312334113122,0.33354,9.871803123341131
6355000000.0,22.09,0.0,0.0,0.0,0.09113502343825024,0.3278499531234995,9.881515023438249
6360000000.0,22.09,0.0,0.0,0.0,0.08985922939389229,0.31117307646463077,9.893973847070738
6365000000.0,22.09,0.0,0.0,0.0,0.07131882363248823,0.30675882363248824,9.90545117636751
6370000000.0,22.09,0.0,0.0,0.0,0.07082782881117829,0.31392,9.89829
6375000000.0,22.09,0.0,0.0,0.0,0.04905,0.32373049530690495,9.895837376173272
6380000000.0,22.09,0.0,0.0,0.0,0.05611357177153572,0.35316,9.88377095215231
6385000000.0,22.09,0.0,0.0,0.0,0.07622357597903576,0.35316,9.866603575979035
6390000000.0,22.09,0.0,0.0,0.0,0.07298664823616648,0.34668502764575027,9.863366648236166
6395000000.0,22.09,0.0,0.0,0.0,0.08004910313919103,0.32579022421520226,9.880730224215203
6400000000.0,22.09,0.0,0.0,0.0,0.051012124312321244,0.33157787568767877,9.894366372936963
6405000000.0,22.09,0.0,0.0,0.0,0.06258804881888048,0.32373,9.912317926771678
6410000000.0,22.09,0.0,0.0,0.0,0.07494815098688151,0.32373,9.88848
6415000000.0,22.09,0.0,0.0,0.0,0.06052782460367825,0.3253978246036783,9.881808701585287
6420000000.0,22.09,0.0,0.0,0.0,0.06867,0.33510972470079725,9.855518898803188
6425000000.0,22.09,0.0,0.0,0.0,0.06719837520208374,0.3448216247979162,9.885536750404167
6430000000.0,22.09,0.0,0.0,0.0,0.0616070497900705,0.35178647510496475,9.86886
6435000000.0,22.09,0.0,0.0,0.0,0.07720457500784575,0.3420745750078457,9.872686274976463
6440000000.0,22.09,0.0,0.0,0.0,0.06749267491072675,0.3311853498214535,9.899467325089272
6445000000.0,22.09,0.0,0.0,0.0,0.059939225186392255,0.3160784503727845,9.907020774813606
6450000000.0,22.09,0.0,0.0,0.0,0.06768887471648874,0.33255887471648876,9.896327749432977
6455000000.0,22.09,0.0,0.0,0.0,0.05886,0.32549605076126054,9.87867
6460000000.0,22.09,0.0,0.0,0.0,0.05807507452225075,0.3449198509554985,9.87867
6465000000.0,22.09,0.0,0.0,0.0,0.04973682557486826,0.360222697700527,9.879356825574868
6470000000.0,22.09,0.0,0.0,0.0,0.05886,0.32373,9.887891274328013
6475000000.0,22.09,0.0,0.0,0.0,0.05836937423089374,0.32422062576910626,9.880141877307318
6480000000.0,22.09,0.0,0.0,0.0,0.04983505173245052,0.3327549482675495,9.90731494826755
6485000000.0,22.09,0.0,0.0,0.0,0.06837557403665574,0.31421442596334426,9.88848
6490000000.0,22.09,0.0,0.0,0.0,0.059056326060463266,0.32353367393953675,9.888676326060462
6495000000.0,22.09,0.0,0.0,0.0,0.06876822615758225,0.314312904630329,9.898191773842417
6500000000.0,22.09,0.0,0.0,0.0,0.07847987374529873,0.35316,9.888479873745299
6505000000.0,22.09,0.0,0.0,0.0,0.06876797364817973,0.35316,9.878767973648179
6510000000.0,22.09,0.0,0.0,0.0,0.07828392644893926,0.3435460735510607,9.849828220653182
6515000000.0,22.09,0.0,0.0,0.0,0.0499325203618252,0.32431834690788347,9.877787479638174
6520000000.0,22.09,0.0,0.0,0.0,0.0773031799295318,0.32373,9.87867
6525000000.0,22.09,0.0,0.0,0.0,0.07848,0.32373,9.915948506961184
6530000000.0,22.09,0.0,0.0,0.0,0.06003694632516947,0.32373,9.881023892650338
6535000000.0,22.09,0.0,0.0,0.0,0.07710685386906853,0.3328534269345343,9.896916853869067
6540000000.0,22.09,0.0,0.0,0.0,0.07848,0.33354,9.907315327031652
6545000000.0,22.09,0.0,0.0,0.0,0.06955277287122773,0.34246722712877226,9.87239109148491
6550000000.0,22.09,0.0,0.0,0.0,0.051011745548217455,0.36100825445178253,9.87768912722589
6555000000.0,22.09,0.0,0.0,0.0,0.07524308196903082,0.36297,9.90486308196903
6560000000.0,22.09,0.0,0.0,0.0,0.08711292742012927,0.36297,9.89083414515974
6565000000.0,22.09,0.0,0.0,0.0,0.08829,0.3459003449655034,9.879945172482751
6570000000.0,22.09,0.0,0.0,0.0,0.046106361928163614,0.31803981715689816,9.87867
6575000000.0,22.09,0.0,0.0,0.0,0.06425588313445882,0.3472745108459451,9.903685883134457
6580000000.0,22.09,0.0,0.0,0.0,0.07691052780860527,0.32019788876557886,9.9081
6585000000.0,22.09,0.0,0.0,0.0,0.062195144188551446,0.33020485581144854,9.867387860471379
6590000000.0,22.09,0.0,0.0,0.0,0.07494865600568655,0.32549567199715673,9.85905
6595000000.0,22.09,0.0,0.0,0.0,0.0705337719000377,0.32373,9.874942456199925
6600000000.0,22.09,0.0,0.0,0.0,0.07651812819708127,0.3158818718029187,9.870821871802919
6605000000.0,22.09,0.0,0.0,0.0,0.04747988682319886,0.32942005658840057,9.8998601131768
6610000000.0,22.09,0.0,0.0,0.0,0.07749964195659642,0.3258880716086807,9.90044807160868
6615000000.0,22.09,0.0,0.0,0.0,0.07318234302312343,0.32373,9.890736171511561
6620000000.0,22.09,0.0,0.0,0.0,0.06867,0.32373,9.88848
6625000000.0,22.09,0.0,0.0,0.0,0.06867,0.32373,9.873764742634647
6630000000.0,22.09,0.0,0.0,0.0,0.07592952877979528,0.34550858633938586,9.897898115119181
6635000000.0,22.09,0.0,0.0,0.0,0.07848,0.3388371422461714,9.89377714224617
6640000000.0,22.09,0.0,0.0,0.0,0.05729001307790013,0.33354,9.895543328974032
6645000000.0,22.09,0.0,0.0,0.0,0.06298045814230457,0.33354,9.884359541857695
6650000000.0,22.09,0.0,0.0,0.0,0.07553712916827128,0.32667287083172875,9.892404258336542
6655000000.0,22.09,0.0,0.0,0.0,0.09201805853078059,0.3304990292653903,9.891520970734609
6660000000.0,22.09,0.0,0.0,0.0,0.07808721191247212,0.3135272119124721,9.901821858725018
6665000000.0,22.09,0.0,0.0,0.0,0.062097170540371706,0.3238284883788849,9.9081
6670000000.0,22.09,0.0,0.0,0.0,0.07828418867024188,0.3400147295567473,9.895150540886505
6675000000.0,22.09,0.0,0.0,0.0,0.08829,0.34972662965386625,9.88848
6680000000.0,22.09,0.0,0.0,0.0,0.0945685297509853,0.34688147024901467,9.894758529750984
6685000000.0,22.09,0.0,0.0,0.0,0.0795587104556871,0.3248087104556871,9.861207420911374
6690000000.0,22.09,0.0,0.0,0.0,0.06867,0.3260846598904466,9.869841649726116
6695000000.0,22.09,0.0,0.0,0.0,0.06867,0.3275557699576577,9.88848
6700000000.0,22.09,0.0,0.0,0.0,0.056897739721077395,0.3355022602789226,9.88848
6705000000.0,22.09,0.0,0.0,0.0,0.0606260604731606,0.3317739395268394,9.88269196976342
6710000000.0,22.09,0.0,0.0,0.0,0.06867,0.3464897213347972,9.895739791001096
6715000000.0,22.09,0.0,0.0,0.0,0.06867,0.35737816956918167,9.880140847845908
6720000000.0,22.09,0.0,0.0,0.0,0.06867,0.3366788084161881,9.886518652639687
6725000000.0,22.09,0.0,0.0,0.0,0.06867,0.32373,9.9081
6730000000.0,22.09,0.0,0.0,0.0,0.06867,0.3184324692778247,9.897504938555649
6735000000.0,22.09,0.0,0.0,0.0,0.0738694308192943,0.3191194308192943,9.883280569180705
6740000000.0,22.09,0.0,0.0,0.0,0.05807467633434676,0.32373,9.883771330916414
6745000000.0,22.09,0.0,0.0,0.0,0.05424969304059692,0.3137235379729354,9.893483231013532
6750000000.0,22.09,0.0,0.0,0.0,0.06867,0.32373052444260525,9.893384868889347
6755000000.0,22.09,0.0,0.0,0.0,0.06867,0.34335,9.87886593758446
6760000000.0,22.09,0.0,0.0,0.0,0.08279679391466795,0.34335,9.878277862609778
6765000000.0,22.09,0.0,0.0,0.0,0.08426750579397506,0.34335,9.893090831402008
6770000000.0,22.09,0.0,0.0,0.0,0.07318273149912731,0.3388372685008727,9.902802731499127
6775000000.0,22.09,0.0,0.0,0.0,0.06523610521126105,0.32912536840375367,9.903685368403753
6780000000.0,22.09,0.0,0.0,0.0,0.05336653169336532,0.3409961267734613,9.89829
6785000000.0,22.09,0.0,0.0,0.0,0.06307843179048432,0.34609627283806277,9.885634704628547
6790000000.0,22.09,0.0,0.0,0.0,0.06454966811239668,0.3278503318876033,9.872980331887604
6795000000.0,22.09,0.0,0.0,0.0,0.05886,0.33354,9.874647768015278
6800000000.0,22.09,0.0,0.0,0.0,0.05493586791815868,0.32961586791815867,9.86886
6805000000.0,22.09,0.0,0.0,0.0,0.05670206435792064,0.33138206435792067,9.88033809653688
6810000000.0,22.09,0.0,0.0,0.0,0.06121413544784135,0.33216620317176204,9.890834135447841
6815000000.0,22.09,0.0,0.0,0.0,0.05267983237319833,0.32480949711959495,9.889559497119594
6820000000.0,22.09,0.0,0.0,0.0,0.06592346494063465,0.3292230701187307,9.901036535059365
6825000000.0,22.09,0.0,0.0,0.0,0.08191363256743632,0.30754363256743633,9.88848
6830000000.0,22.09,0.0,0.0,0.0,0.07828340200633402,0.3172555326645553,9.89515106532911
6835000000.0,22.09,0.0,0.0,0.0,0.05886,0.32373,9.898387701714976
6840000000.0,22.09,0.0,0.0,0.0,0.061999332858793325,0.3300086657175867,9.891227331435173
6845000000.0,22.09,0.0,0.0,0.0,0.07171123295591232,0.3403087670440877,9.908786301132261
6850000000.0,22.09,0.0,0.0,0.0,0.069650600840906,0.33059686694696866,9.88848
6855000000.0,22.09,0.0,0.0,0.0,0.057585099450451,0.3208849668498497,9.89132503315015
6860000000.0,22.09,0.0,0.0,0.0,0.07848,0.322160799741808,9.890049200258192
6865000000.0,22.09,0.0,0.0,0.0,0.08112883334438833,0.3327546666224467,9.871508833344388
6870000000.0,22.09,0.0,0.0,0.0,0.08573926655849266,0.32196513409055133,9.883771466883013
6875000000.0,22.09,0.0,0.0,0.0,0.08583790061587901,0.365422099384121,9.89093209938412
6880000000.0,22.09,0.0,0.0,0.0,0.10320093272850933,0.3386409327285093,9.866505466364254
6885000000.0,22.09,0.0,0.0,0.0,0.08152069880140698,0.32373,9.85905
6890000000.0,22.09,0.0,0.0,0.0,0.05886,0.32157166617001665,9.869841669149917
6895000000.0,22.09,0.0,0.0,0.0,0.060920233927102344,0.31392,9.906039766072897
6900000000.0,22.09,0.0,0.0,0.0,0.06670786597577866,0.3178442680484427,9.89829
6905000000.0,22.09,0.0,0.0,0.0,0.060724034121340344,0.33167596587865966,9.894561931757318
6910000000.0,22.09,0.0,0.0,0.0,0.07220186843691868,0.3272618684369187,9.88043593421846
6915000000.0,22.09,0.0,0.0,0.0,0.08495433136884331,0.3400143313688433,9.885144331368842
6920000000.0,22.09,0.0,0.0,0.0,0.07023973441269733,0.32843920323809206,9.871999468825395
6925000000.0,22.09,0.0,0.0,0.0,0.07553673098036731,0.35316,9.892894903529449
6930000000.0,22.09,0.0,0.0,0.0,0.06298060382080604,0.3476658615722586,9.913789396179194
6935000000.0,22.09,0.0,0.0,0.0,0.08701456529594565,0.3202971735202717,9.891030869408109
6940000000.0,22.09,0.0,0.0,0.0,0.07730266519882664,0.3559059911929599,9.906922665198826
6945000000.0,22.09,0.0,0.0,0.0,0.06974923489829235,0.3084269395931694,9.89829
6950000000.0,22.09,0.0,0.0,0.0,0.07848,0.34236886500458863,9.896327730009176
6955000000.0,22.09,0.0,0.0,0.0,0.0767139298149393,0.3353060701850607,9.87955303509253
6960000000.0,22.09,0.0,0.0,0.0,0.059644935189649355,0.3492353240517532,9.88848
6965000000.0,22.09,0.0,0.0,0.0,0.0714173411470734,0.3054836705735367,9.88848
6970000000.0,22.09,0.0,0.0,0.0,0.10496632308056324,0.32373,9.887891264616112
6975000000.0,22.09,0.0,0.0,0.0,0.05886,0.32323936451899365,9.880141906443018
6980000000.0,22.09,0.0,0.0,0.0,0.05886,0.31392,9.907707464421874
6985000000.0,22.09,0.0,0.0,0.0,0.059448871350488715,0.3150977427009774,9.89829
6990000000.0,22.09,0.0,0.0,0.0,0.07808732845527327,0.3533563357723633,9.89829
6995000000.0,22.09,0.0,0.0,0.0,0.05915470760844708,0.36267529239155294,9.898191764130518
7000000000.0,22.09,0.0,0.0,0.0,0.08828945613359455,0.33354013596660137,9.888480271933203
7005000000.0,22.09,0.0,0.0,0.0,0.04944185574511856,0.34325203606372034,9.90790407212744
7010000000.0,22.09,0.0,0.0,0.0,0.05866393616083936,0.33373606383916066,9.879258191517481
7015000000.0,22.09,0.0,0.0,0.0,0.06837583625795836,0.33354,9.907217508773874
7020000000.0,22.09,0.0,0.0,0.0,0.05925226364492264,0.32412226364492264,9.879846790934767
7025000000.0,22.09,0.0,0.0,0.0,0.07749927290439272,0.32373,9.869350363547804
7030000000.0,22.09,0.0,0.0,0.0,0.060036926901369275,0.32373,9.896524609647946
7035000000.0,22.09,0.0,0.0,0.0,0.04973656335356563,0.36022374658573747,9.88004312670713
7040000000.0,22.09,0.0,0.0,0.0,0.06710067348710673,0.35394466325644663,9.887695336743553
7045000000.0,22.09,0.0,0.0,0.0,0.06867,0.3620872368406724,9.906334473681344
7050000000.0,22.09,0.0,0.0,0.0,0.06867,0.36297,9.890441726124417
7055000000.0,22.09,0.0,0.0,0.0,0.06867,0.3367768888952689,9.87974896296509
7060000000.0,22.09,0.0,0.0,0.0,0.06867,0.35080587426405874,9.913201748528117
7065000000.0,22.09,0.0,0.0,0.0,0.043065488312554884,0.35316,9.892305488312555
7070000000.0,22.09,0.0,0.0,0.0,0.06455021197880212,0.3278497880211979,9.880043262673732
7075000000.0,22.09,0.0,0.0,0.0,0.051992725153227254,0.37376182454031825,9.87867
7080000000.0,22.09,0.0,0.0,0.0,0.07377161256151613,0.35786838743848387,9.886910537520505
7085000000.0,22.09,0.0,0.0,0.0,0.06219512476475125,0.3205902495295025,9.872195124764751
7090000000.0,22.09,0.0,0.0,0.0,0.06690433771474337,0.33000867542948675,9.876904337714743
7095000000.0,22.09,0.0,0.0,0.0,0.06867,0.3414862378118624,9.886616237811863
7100000000.0,22.09,0.0,0.0,0.0,0.06867,0.3355018620910186,9.89632813790898
7105000000.0,22.09,0.0,0.0,0.0,0.05316992398779924,0.3490400760122007,9.9060400380061
7110000000.0,22.09,0.0,0.0,0.0,0.06435387620643876,0.3608119381032194,9.92340387620644
7115000000.0,22.09,0.0,0.0,0.0,0.07622383820033837,0.3327546471986465,9.92772
7120000000.0,22.09,0.0,0.0,0.0,0.08593573829745738,0.32373,9.912808523405085
7125000000.0,22.09,0.0,0.0,0.0,0.07357472321084722,0.34580291518372913,9.9081
7130000000.0,22.09,0.0,0.0,0.0,0.05415092301660923,0.3459004615083046,9.879061846033219
7135000000.0,22.09,0.0,0.0,0.0,0.06337287717762877,0.34335,9.876021438588815
7140000000.0,22.09,0.0,0.0,0.0,0.07573333868593338,0.34335,9.871606661314066
7145000000.0,22.09,0.0,0.0,0.0,0.06454952243389522,0.3294195224338952,9.875825238783053
7150000000.0,22.09,0.0,0.0,0.0,0.07259427776034277,0.3168628611198286,9.892404277760342
7155000000.0,22.09,0.0,0.0,0.0,0.07848,0.3342271169318711,9.891520961022708
7160000000.0,22.09,0.0,0.0,0.0,0.07848,0.34335,9.88180906092559
7165000000.0,22.09,0.0,0.0,0.0,0.07190716082847161,0.34335,9.865524321656943
7170000000.0,22.09,0.0,0.0,0.0,0.07514473926864738,0.3239257821940578,9.871999478537294
7175000000.0,22.09,0.0,0.0,0.0,0.07848,0.3266732787315328,9.897799918097299
7180000000.0,22.09,0.0,0.0,0.0,0.07848,0.33981853946288537,9.89554292107423
7185000000.0,22.09,0.0,0.0,0.0,0.06611912087999121,0.34335,9.882299560439995
7190000000.0,22.09,0.0,0.0,0.0,0.05886,0.3372676603428766,9.890834679314246
7195000000.0,22.09,0.0,0.0,0.0,0.0827969590169696,0.3395242397542424,9.89829
7200000000.0,22.09,0.0,0.0,0.0,0.06866930074319301,0.3374638601486386,9.886517720297277
7205000000.0,22.09,0.0,0.0,0.0,0.0606260798969608,0.3393280399484804,9.89024607989696
7210000000.0,22.09,0.0,0.0,0.0,0.0629800599544006,0.3319701199088012,9.875530239817602
7215000000.0,22.09,0.0,0.0,0.0,0.0644518401427184,0.34609736057087365,9.881417360570873
7220000000.0,22.09,0.0,0.0,0.0,0.0631762597601626,0.335501298800813,9.903783740239836
7225000000.0,22.09,0.0,0.0,0.0,0.0642556403369564,0.31392,9.9081
7230000000.0,22.09,0.0,0.0,0.0,0.06867,0.31392,9.892207378697773
7235000000.0,22.09,0.0,0.0,0.0,0.06347055946880559,0.3191194405311944,9.889068881062387
7240000000.0,22.09,0.0,0.0,0.0,0.0639613406283134,0.32883134062831343,9.908492681256625
7245000000.0,22.09,0.0,0.0,0.0,0.0636667592745676,0.3285367592745676,9.902900277823703
7250000000.0,22.09,0.0,0.0,0.0,0.06867028164510282,0.3286351408225514,9.878669718354896
7255000000.0,22.09,0.0,0.0,0.0,0.06405887724098877,0.3287329590803296,9.878474081839341
7260000000.0,22.09,0.0,0.0,0.0,0.06317682305036823,0.32843894101678944,9.88377105898321
7265000000.0,22.09,0.0,0.0,0.0,0.07386915888609158,0.3381508411139084,9.887891682227817
7270000000.0,22.09,0.0,0.0,0.0,0.06415725878897259,0.3388372587889726,9.893777258788973
7275000000.0,22.09,0.0,0.0,0.0,0.06768928261629283,0.33354,9.884065358691853
7280000000.0,22.09,0.0,0.0,0.0,0.06984691718946917,0.3378565414052654,9.882986541405264
7285000000.0,22.09,0.0,0.0,0.0,0.06729688300476883,0.33913155849761556,9.884261558497615
7290000000.0,22.09,0.0,0.0,0.0,0.06611897520148975,0.3376603415995034,9.882790341599502
7295000000.0,22.09,0.0,0.0,0.0,0.057094483393244834,0.3393277583033776,9.880435516606754
7300000000.0,22.09,0.0,0.0,0.0,0.060821716412517164,0.32569171641251715,9.880632425381224
7305000000.0,22.09,0.0,0.0,0.0,0.052876041890860426,0.32539812567258125,9.90211604189086
7310000000.0,22.09,0.0,0.0,0.0,0.06258794198797941,0.3358941160240412,9.90437205801202
7315000000.0,22.09,0.0,0.0,0.0,0.05415063165960631,0.3201001579149016,9.89829
7320000000.0,22.09,0.0,0.0,0.0,0.04708871091108711,0.31038825781778256,9.894758257817783
7325000000.0,22.09,0.0,0.0,0.0,0.07848,0.3178445691173457,9.885046357720663
7330000000.0,22.09,0.0,0.0,0.0,0.07180891524708916,0.3400144576235446,9.882005542376454
7335000000.0,22.09,0.0,0.0,0.0,0.06533488494714886,0.33677744247357444,9.88848
7340000000.0,22.09,0.0,0.0,0.0,0.07220131485861314,0.33707131485861314,9.882201314858612
7345000000.0,22.09,0.0,0.0,0.0,0.05581875733218757,0.32373,9.874942485335625
7350000000.0,22.09,0.0,0.0,0.0,0.04905,0.32078685723506856,9.897309428294793
