#timestamp [ns], temperature [degC], w_RS_S_x [rad s^-1], w_RS_S_y [rad s^-1], w_RS_S_z [rad s^-1], a_RS_S_x [m s^-2], a_RS_S_y [m s^-2], a_RS_S_z [m s^-2]
0.0,22.35,0.0,0.0,0.0,-0.27468,-0.26487,9.81981
5000000.0,22.35,0.0,0.0,0.0,-0.313527600388476,-0.26487,9.82952190009712
10000000.0,22.35,0.0,0.0,0.0,-0.31392,-0.26487,9.858461400582714
15000000.0,22.35,0.0,0.0,0.0,-0.285372899125929,-0.255354299708643,9.840018599417286
20000000.0,22.35,0.0,0.0,0.0,-0.31274280116542796,-0.236224799223048,9.830012399611524
25000000.0,22.35,0.0,0.0,0.0,-0.31392,-0.263398501456785,9.820300499514405
30000000.0,22.35,0.0,0.0,0.0,-0.295477198834572,-0.255648599417286,9.829031400582714
35000000.0,22.35,0.0,0.0,0.0,-0.28517669932016704,-0.264183300679833,9.838743300679834
40000000.0,22.35,0.0,0.0,0.0,-0.311565602330856,-0.23779439766914398,9.830404799223048
45000000.0,22.35,0.0,0.0,0.0,-0.28713869737778697,-0.244367100874071,9.82962
50000000.0,22.35,0.0,0.0,0.0,-0.30214800194238,-0.25407900097119,9.83844900097119
55000000.0,22.35,0.0,0.0,0.0,-0.295379098931691,-0.25506,9.84816090106831
60000000.0,22.35,0.0,0.0,0.0,-0.2943,-0.25506,9.831974397669144
65000000.0,22.35,0.0,0.0,0.0,-0.311369402525094,-0.25506,9.838154701262548
70000000.0,22.35,0.0,0.0,0.0,-0.29704679728066796,-0.263496601359666,9.83943
75000000.0,22.35,0.0,0.0,0.0,-0.27762299708642996,-0.256531498543215,9.847768501456786
80000000.0,22.35,0.0,0.0,0.0,-0.282920401553904,-0.25506,9.816278393784385
85000000.0,22.35,0.0,0.0,0.0,-0.30077460330204603,-0.263202301651023,9.826284603302046
90000000.0,22.35,0.0,0.0,0.0,-0.32019840349628403,-0.24073739475557396,9.853752605244425
95000000.0,22.35,0.0,0.0,0.0,-0.2919455926189559,-0.24338610184526102,9.843157796309479
100000000.0,22.35,0.0,0.0,0.0,-0.26879399611523996,-0.23740199805762,9.82373399611524
105000000.0,22.35,0.0,0.0,0.0,-0.29586960815799607,-0.2509398040789981,9.850809608157997
110000000.0,22.35,0.0,0.0,0.0,-0.29645819786338196,-0.24740819786338197,9.836094593590147
115000000.0,22.35,0.0,0.0,0.0,-0.2943,-0.24525,9.822066297766263
120000000.0,22.35,0.0,0.0,0.0,-0.2943,-0.25270560233085604,9.81981
125000000.0,22.35,0.0,0.0,0.0,-0.301657502427975,-0.25506,9.81981
130000000.0,22.35,0.0,0.0,0.0,-0.296850597474906,-0.26957880505018805,9.834328805050188
135000000.0,22.35,0.0,0.0,0.0,-0.30146130262221305,-0.2531960921333609,9.825107394755575
140000000.0,22.35,0.0,0.0,0.0,-0.29704679728066796,-0.24525,9.833936405438664
145000000.0,22.35,0.0,0.0,0.0,-0.30823020563290204,-0.25221510281645104,9.832464897183549
150000000.0,22.35,0.0,0.0,0.0,-0.31392,-0.26192700291357,9.82962
155000000.0,22.35,0.0,0.0,0.0,-0.2868443879572439,-0.271638903010689,9.816082193978623
160000000.0,22.35,0.0,0.0,0.0,-0.281350803107808,-0.26133839378438395,9.816670803107808
165000000.0,22.35,0.0,0.0,0.0,-0.30420810961478106,-0.24848729679507298,9.81981
170000000.0,22.35,0.0,0.0,0.0,-0.30097079339590793,-0.24525,9.839233809906139
175000000.0,22.35,0.0,0.0,0.0,-0.300676503399165,-0.23887349660083498,9.855616503399165
180000000.0,22.35,0.0,0.0,0.0,-0.297831596503716,-0.24799680699256807,9.840214789511148
185000000.0,22.35,0.0,0.0,0.0,-0.2819393928131939,-0.24887969640659696,9.823439696406597
190000000.0,22.35,0.0,0.0,0.0,-0.28684440738104405,-0.24525,9.81981
195000000.0,22.35,0.0,0.0,0.0,-0.30626820757528206,-0.23328179242471792,9.825794103787642
200000000.0,22.35,0.0,0.0,0.0,-0.30214799223047994,-0.24917401553904014,9.82962
205000000.0,22.35,0.0,0.0,0.0,-0.3058758079637581,-0.26487,9.83540790398188
210000000.0,22.35,0.0,0.0,0.0,-0.30254039184200393,-0.26487,9.845119804078998
215000000.0,22.35,0.0,0.0,0.0,-0.28870829582388297,-0.2369114791194148,9.838056591647765
220000000.0,22.35,0.0,0.0,0.0,-0.28998360427323605,-0.2377944170929442,9.813139187180292
225000000.0,22.35,0.0,0.0,0.0,-0.299695504370355,-0.2442689912592899,9.816376513111065
230000000.0,22.35,0.0,0.0,0.0,-0.2935151910650519,-0.23544,9.82962
235000000.0,22.35,0.0,0.0,0.0,-0.28449,-0.2458386091291861,9.814022086306222
240000000.0,22.35,0.0,0.0,0.0,-0.28449,-0.25506,9.825696023308561
245000000.0,22.35,0.0,0.0,0.0,-0.28449,-0.250056895241169,9.839233790482337
250000000.0,22.35,0.0,0.0,0.0,-0.28939500485595004,-0.24525,9.82962
255000000.0,22.35,0.0,0.0,0.0,-0.2943,-0.24044309504693095,9.82962
260000000.0,22.35,0.0,0.0,0.0,-0.3084264151505642,-0.24014880505018804,9.824911194949813
265000000.0,22.35,0.0,0.0,0.0,-0.3098978845580789,-0.2544714102946141,9.842863525736535
270000000.0,22.35,0.0,0.0,0.0,-0.29881260524442604,-0.26035739475557396,9.850809579022295
275000000.0,22.35,0.0,0.0,0.0,-0.30411,-0.25947450534154504,9.82962
280000000.0,22.35,0.0,0.0,0.0,-0.29116078368400783,-0.2562371891226719,9.833936405438664
285000000.0,22.35,0.0,0.0,0.0,-0.27468,-0.24103169446421693,9.83943
290000000.0,22.35,0.0,0.0,0.0,-0.2829204112658041,-0.24368041126580411,9.843550205632901
295000000.0,22.35,0.0,0.0,0.0,-0.3023442114600421,-0.25506,9.841195788539958
300000000.0,22.35,0.0,0.0,0.0,-0.30607198834571986,-0.2511359941728599,9.82962
305000000.0,22.35,0.0,0.0,0.0,-0.2943,-0.24907590592425907,9.83344590592426
310000000.0,22.35,0.0,0.0,0.0,-0.2868443879572439,-0.25506,9.831974387957244
315000000.0,22.35,0.0,0.0,0.0,-0.27830970611849704,-0.25868970611849706,9.823439706118497
320000000.0,22.35,0.0,0.0,0.0,-0.2950848186468482,-0.26133839378438395,9.822556787568768
325000000.0,22.35,0.0,0.0,0.0,-0.30705298737452985,-0.2653605189382052,9.81
330000000.0,22.35,0.0,0.0,0.0,-0.2943,-0.27114837436058375,9.813335406409854
335000000.0,22.35,0.0,0.0,0.0,-0.2943,-0.2549619195209192,9.823047306506973
340000000.0,22.35,0.0,0.0,0.0,-0.2880215867918159,-0.2652623801877238,9.832759206604091
345000000.0,22.35,0.0,0.0,0.0,-0.2838033201036332,-0.23916778659757787,9.842471106701211
350000000.0,22.35,0.0,0.0,0.0,-0.3099960135966601,-0.23151601359666013,9.84041097960501
355000000.0,22.35,0.0,0.0,0.0,-0.31804018620910185,-0.24525,9.828344720686347
360000000.0,22.35,0.0,0.0,0.0,-0.30411,-0.2507436139851361,9.846493193007431
365000000.0,22.35,0.0,0.0,0.0,-0.30411,-0.25957258582062587,9.83943
370000000.0,22.35,0.0,0.0,0.0,-0.30411,-0.24525,9.834328785626388
375000000.0,22.35,0.0,0.0,0.0,-0.29920498543214985,-0.24770250728392507,9.81981
380000000.0,22.35,0.0,0.0,0.0,-0.28919881476208814,-0.2527055926189559,9.826873222143133
385000000.0,22.35,0.0,0.0,0.0,-0.30636630747816307,-0.24525,9.844727385043674
390000000.0,22.35,0.0,0.0,0.0,-0.30960358484943584,-0.24956641515056416,9.825303584849436
395000000.0,22.35,0.0,0.0,0.0,-0.2984202153448022,-0.26487,9.812060107672401
400000000.0,22.35,0.0,0.0,0.0,-0.3119579922304799,-0.26094598446095985,9.81981
405000000.0,22.35,0.0,0.0,0.0,-0.30411,-0.24525,9.81981
410000000.0,22.35,0.0,0.0,0.0,-0.29881257610872575,-0.24525,9.81981
415000000.0,22.35,0.0,0.0,0.0,-0.27968312418263125,-0.2535885403043854,9.823145416121754
420000000.0,22.35,0.0,0.0,0.0,-0.30411,-0.2864519592100196,9.83943
425000000.0,22.35,0.0,0.0,0.0,-0.29969547523465473,-0.24377849174488492,9.83648698348977
430000000.0,22.35,0.0,0.0,0.0,-0.27742681670446817,-0.23818681670446817,9.818436591647766
435000000.0,22.35,0.0,0.0,0.0,-0.29812592534805926,-0.2537846915506469,9.811275308449353
440000000.0,22.35,0.0,0.0,0.0,-0.32019837436058374,-0.24525,9.822164417092944
445000000.0,22.35,0.0,0.0,0.0,-0.2921417827128178,-0.24740821728718218,9.83943
450000000.0,22.35,0.0,0.0,0.0,-0.27762302622213025,-0.26487,9.83943
455000000.0,22.35,0.0,0.0,0.0,-0.3032270911621709,-0.2631041823243418,9.83943
460000000.0,22.35,0.0,0.0,0.0,-0.2935151910650519,-0.24525,9.838645191065051
465000000.0,22.35,0.0,0.0,0.0,-0.28449,-0.24525,9.828933290967933
470000000.0,22.35,0.0,0.0,0.0,-0.2850786091291861,-0.2446613908708139,9.81981
475000000.0,22.35,0.0,0.0,0.0,-0.2943,-0.23740203690522038,9.820300509226305
480000000.0,22.35,0.0,0.0,0.0,-0.2939075906765759,-0.2738951813531518,9.830797227970272
485000000.0,22.35,0.0,0.0,0.0,-0.28449,-0.2547656905794569,9.85816707173837
490000000.0,22.35,0.0,0.0,0.0,-0.2846862095176621,-0.24544620951766208,9.82962
495000000.0,22.35,0.0,0.0,0.0,-0.2943,-0.25506,9.829816219229562
500000000.0,22.35,0.0,0.0,0.0,-0.2942999902880999,-0.2550599902880999,9.8492399611524
505000000.0,22.35,0.0,0.0,0.0,-0.2845880901909809,-0.2453480901909809,9.810392360763924
510000000.0,22.35,0.0,0.0,0.0,-0.3037176198122762,-0.24525,9.819613809906139
515000000.0,22.35,0.0,0.0,0.0,-0.2945942899967429,-0.2642814200065142,9.838841420006514
520000000.0,22.35,0.0,0.0,0.0,-0.3131352202007522,-0.2366171696988717,9.848847610100377
525000000.0,22.35,0.0,0.0,0.0,-0.2859614694075147,-0.2261204898025049,9.830600979605011
530000000.0,22.35,0.0,0.0,0.0,-0.28449,-0.23485141029461412,9.801955769116159
535000000.0,22.35,0.0,0.0,0.0,-0.3027366207834662,-0.2536866207834662,9.809313310391733
540000000.0,22.35,0.0,0.0,0.0,-0.30411,-0.2189591580445916,9.819025210488853
545000000.0,22.35,0.0,0.0,0.0,-0.2951828894140289,-0.24260133175791332,9.81981
550000000.0,22.35,0.0,0.0,0.0,-0.2943,-0.2629080213661802,9.81981
555000000.0,22.35,0.0,0.0,0.0,-0.2855690892197909,-0.2474081784395818,9.81981
560000000.0,22.35,0.0,0.0,0.0,-0.28449,-0.2538828108773281,9.828442810877329
565000000.0,22.35,0.0,0.0,0.0,-0.28449,-0.2635947109744471,9.838154710974447
570000000.0,22.35,0.0,0.0,0.0,-0.30979983321469834,-0.24799677785686777,9.822556777856867
575000000.0,22.35,0.0,0.0,0.0,-0.2972429776626298,-0.2369114888313149,9.844825533506055
580000000.0,22.35,0.0,0.0,0.0,-0.2860595887341959,-0.25192082253160825,9.840999588734196
585000000.0,22.35,0.0,0.0,0.0,-0.28449,-0.2632023113629231,9.83943
590000000.0,22.35,0.0,0.0,0.0,-0.3086226343801263,-0.2568257885399579,9.823341577079916
595000000.0,22.35,0.0,0.0,0.0,-0.2980277768856778,-0.26300611155716114,9.843648334671483
600000000.0,22.35,0.0,0.0,0.0,-0.30999602330856024,-0.2570219883457199,9.84924
605000000.0,22.35,0.0,0.0,0.0,-0.29067026474580265,-0.23956017649720177,9.841490088248602
610000000.0,22.35,0.0,0.0,0.0,-0.2921418118485181,-0.25839543554555433,9.847081811848518
615000000.0,22.35,0.0,0.0,0.0,-0.2943,-0.2724237119456371,9.82657886416309
620000000.0,22.35,0.0,0.0,0.0,-0.2943,-0.25976877591448777,9.81981
625000000.0,22.35,0.0,0.0,0.0,-0.2943,-0.26241751213987513,9.83452502427975
630000000.0,22.35,0.0,0.0,0.0,-0.2797811755260117,-0.22857293881502938,9.824911175526012
635000000.0,22.35,0.0,0.0,0.0,-0.28184131233411314,-0.23730393700233937,9.81981
640000000.0,22.35,0.0,0.0,0.0,-0.30567963729369635,-0.2735028497249285,9.826873212431233
645000000.0,22.35,0.0,0.0,0.0,-0.2930246624149466,-0.2566295498865955,9.83658511252835
650000000.0,22.35,0.0,0.0,0.0,-0.28449,-0.2589840252509403,9.83256298737453
655000000.0,22.35,0.0,0.0,0.0,-0.29125891272258914,-0.2716389127225891,9.822851087277412
660000000.0,22.35,0.0,0.0,0.0,-0.3143124384591244,-0.2479967487211675,9.833151625639417
665000000.0,22.35,0.0,0.0,0.0,-0.29743914833269147,-0.22886728708317286,9.83943
670000000.0,22.35,0.0,0.0,0.0,-0.29096461301394616,-0.2450538390418384,9.832955386986054
675000000.0,22.35,0.0,0.0,0.0,-0.30067651311106514,-0.25506,9.835996513111064
680000000.0,22.35,0.0,0.0,0.0,-0.29783158679181587,-0.25506,9.833151586791816
685000000.0,22.35,0.0,0.0,0.0,-0.2943,-0.25506,9.82962
690000000.0,22.35,0.0,0.0,0.0,-0.2943,-0.26722442680484426,9.841784426804844
695000000.0,22.35,0.0,0.0,0.0,-0.2943,-0.2567276595013766,9.837271773000918
700000000.0,22.35,0.0,0.0,0.0,-0.28252797280667974,-0.2570220271933203,9.83550601359666
705000000.0,22.35,0.0,0.0,0.0,-0.28046791369377916,-0.2706579136937791,9.833642086306222
710000000.0,22.35,0.0,0.0,0.0,-0.2958696275817963,-0.2576105586273056,9.818240372418204
715000000.0,22.35,0.0,0.0,0.0,-0.3152934277760343,-0.5080605527368055,9.754082861119828
720000000.0,22.35,-0.000596205990247498,0.07934426604638321,0.0,-0.2797810881189109,-0.5689796503715965,9.717393613985136
725000000.0,22.35,0.05752009639914384,0.19148718353450406,-0.0005855594923503764,-1.4862182389186824,-0.034824387501843856,9.764874112658042
730000000.0,22.35,0.077272631874099,0.14076579533316785,-0.0016395638381697549,-2.708149152995592,0.47284242538122423,9.561806361928163
735000000.0,22.35,0.004712779255731547,-0.06249185803463339,-0.0004365021977645999,-2.3330126866917267,0.7122062855298629,9.426331085594411
740000000.0,22.35,-0.15023965355922067,-0.26226738575477576,0.0005110308450574882,-0.8750492690136927,-1.083029318236493,10.118820582327906
745000000.0,22.35,-0.24592489813402954,-0.29626583705632237,-0.004343788006095275,1.895787926524179,-1.8796913650318134,10.732728686824387
750000000.0,22.35,-0.07563335906208005,-0.061251768530409145,2.5296104299785127e-08,3.0705281353151817,-1.005525101974951,10.511414257039643
755000000.0,22.35,0.06804299823908674,0.212391469057381,0.0085172067497323,1.5101485549959857,-0.5399408748432089,9.670009496208795
760000000.0,22.35,0.11339005788400713,0.3254634924130673,0.0085172067497323,-0.8495503548160036,0.44655266144672656,9.478423328587933
765000000.0,22.35,0.09316957060499294,0.19940005716021716,0.0035133316579981184,-2.6218214618340143,0.6979806827436068,9.808429983942201
770000000.0,22.35,-0.0384926343410875,-0.06794249057907197,-0.002129301687433,-2.232949911682099,0.5519110636461106,9.902018592685286
775000000.0,22.35,-0.14913341014892967,-0.2355306301119059,-0.0030874907141913667,-0.9059517387469174,-0.9658002353626022,10.262241270962013
780000000.0,22.35,-0.23162958686029783,-0.27326329823950496,-0.006600843452276385,1.1756354905895547,-2.05460300627363,10.424106227258463
785000000.0,22.35,-0.07073190516661104,-0.09953756360725732,-0.007292850005524125,2.63339499721315,-0.8577865219814653,10.481200108513901
790000000.0,22.35,0.0859862981569457,0.1668070332578539,0.00021294682201199004,1.31551800776358,-0.4822580348301803,9.73897296069403
795000000.0,22.35,0.06422683592722615,0.29019607093788924,0.009006956193043331,-0.5863467420584674,0.23887404046724042,9.287227122891672
800000000.0,22.35,0.062004386450222486,0.20346664760440136,0.010220637981236999,-1.9855450255766502,0.43752598446095986,10.080756139851362
805000000.0,22.35,-0.029238372615906977,-0.005670195800977038,0.002650965328331197,-1.987602520747925,0.4622473250892733,9.808527170926471
810000000.0,22.35,-0.10788945414687404,-0.15414479807996834,-0.0040030905873482585,-1.0402509525384094,0.10751590080595896,9.202956790934767
815000000.0,22.35,-0.18105279089739962,-0.19668219885860067,-0.0049293316883804745,-0.07779154282591538,-1.0248527737820279,9.139192611590326
820000000.0,22.35,-0.1350282130084116,-0.14959894223547088,-0.004641879407171203,0.9295970494039705,-1.2729430675249307,9.45527110081071
825000000.0,22.35,-0.013100298701661534,0.010814423718325236,-0.0023422179433190303,1.1678789456103895,-0.3193157083202571,9.83109196471442
830000000.0,22.35,0.05236166490929772,0.17218937762099226,0.0042799016406821055,0.14243923314599233,-0.13204129413791293,9.799207952085979
835000000.0,22.35,0.0383023171824467,0.16972977925690907,0.005685231985071762,-0.9032079812909799,0.2564327188073272,9.58231092178901
840000000.0,22.35,-0.03370863887998306,0.052021737311134644,0.002214463130566582,-1.3659441063121411,-0.03217686526396865,9.974415485788056
845000000.0,22.35,-0.0684548622904449,-0.07171815073505075,-0.002129301687433,-0.9995395705379957,-0.12272344467533444,9.936843349239334
850000000.0,22.35,-0.11312881243596737,-0.12847196244111309,-0.0014905075975883242,-0.34825442214194424,-0.3855336769194368,9.871802521203326
855000000.0,22.35,-0.12953304879764094,-0.12444957935821896,0.0,0.03718074697480747,-0.7751868310792684,9.678349833214698
860000000.0,22.35,-0.08552518789509538,-0.05897167792292261,0.0,0.48304495124744956,-0.9684427656838277,9.708760900226808
865000000.0,22.35,-0.014380723673572042,0.06624124918846509,0.002012202858616867,0.5068813726746138,-0.5013873022301731,9.729950265587302
870000000.0,22.35,0.030598803757465515,0.1596441478975051,0.006068500639346389,-0.27566243639002436,0.29547740278447404,9.60634396063364
875000000.0,22.35,0.022907272927759365,0.10066603232338327,0.0023954662428697553,-0.9000675509874755,0.2844893201669932,9.405337415020874
880000000.0,22.35,-0.0698419215386148,-0.002167132598891088,0.0026829164160703583,-0.92214,-0.1534294426695944,9.505106191390762
885000000.0,22.35,-0.12373964025149162,-0.06676064335066151,-0.00015970695449595853,-0.8792699733887998,-0.6375521234708212,9.930761048429812
890000000.0,22.35,-0.10733627387537238,-0.08679624085042922,-0.0023848028809031314,-0.584674789897248,-0.597624093620341,9.847669915958898
895000000.0,22.35,-0.07668282189323956,-0.0696949792160609,0.002469974864080106,0.051895751830757515,-0.25829856905398574,9.70346399106624
900000000.0,22.35,-0.09139939088519203,-0.0436785054517763,-0.00340687511106159,0.43164,-0.8691664020726642,9.97480806992568
905000000.0,22.35,-0.0705008554398269,0.023435773963963853,0.0010114278402700426,0.3011657695022577,-0.8931009234027093,9.976377318743374
910000000.0,22.35,0.0012168877065597125,0.10876751309799812,0.005706532358896459,-0.32392688935066893,-0.1196809394605094,9.82981600556776
915000000.0,22.35,0.01026398907630802,0.08754693206757712,0.0063666004724571195,-0.6643334843644348,0.28959041799780416,9.74633315331833
920000000.0,22.35,-0.05560074076607143,-0.007972117257491767,0.00021292047190330247,-0.7365341388138414,-0.1879609581121096,9.78331694295917
925000000.0,22.35,-0.11872515555201235,-0.07265624897028324,-0.0037795046454695406,-0.4051526765937268,-0.8039293742308938,9.847768482032984
930000000.0,22.35,-0.11323720304632089,-0.03829978356334446,-0.00031938545087451995,-0.2619270903206709,-0.6755156787291567,9.816081892909718
935000000.0,22.35,-0.060217312371222645,-0.00823206137301839,0.0038433836328522716,-0.2735023641299236,-0.24014872735498727,9.647153636774936
940000000.0,22.35,-0.04746255904177232,-0.0265485344841826,0.0008091306781681997,-0.01569517837325178,-0.27193422246884225,9.511776547751165
945000000.0,22.35,-0.08086804767995233,-0.009327239085421482,-0.00036196933445430644,0.31450760880347606,-0.7640029468439294,9.778313828488438
950000000.0,22.35,-0.06050528508867611,0.06444807805717863,0.005429721305562607,-0.22072619941966198,-0.7710648190329483,9.823733704758236
955000000.0,22.35,-0.036916628364550154,0.08103548205867026,0.0060046227059680395,-0.7999075112983751,-0.1503861313670613,9.689533348397834
960000000.0,22.35,-0.018103405009537388,-0.001622648398883958,0.0016182571403190083,-0.7930389641926896,0.3303988607277886,9.780570466171204
965000000.0,22.35,-0.09608643156214382,-0.09098289140911482,-0.004109548188289008,-0.0823054688887547,-0.6521699996139,9.989032031400821
970000000.0,22.35,-0.15188297274575957,-0.05004892453014207,-0.0015543718289102,0.09574458258134583,-1.2066290579456906,9.762715856523258
975000000.0,22.35,-0.09091841395460876,0.016199240533756196,0.007079913723555595,-0.3923996212358962,-0.7161288637076887,9.795285189382053
980000000.0,22.35,-0.01739257158876203,0.0006395196595248563,4.258809959717781e-05,-0.19149049569300494,-0.1644159616711596,9.88573306675273
985000000.0,22.35,-0.0272310840957494,0.016721872787369325,0.0011604756488166718,0.1434213199076132,-0.35100229744352296,9.820104319132444
990000000.0,22.35,-0.08092323379241102,0.039664622309174606,0.004194718063457293,-0.299401699968617,-0.5989986576886865,9.829816219229562
995000000.0,22.35,-0.0786233756271576,-4.259442362325372e-05,0.0010646508437165,-0.5475938521197385,-0.6256813748130138,9.838841284039914
1000000000.0,22.35,-0.05752606690179384,-0.004258594942831333,0.0010646487357078083,-0.37278,-0.4120200388476004,9.7805700194238
1005000000.0,22.35,-0.06490409732252979,-4.257755955372044e-05,1.0644389888429893e-05,-0.37278,-0.4314438390418384,9.79028191952092
1010000000.0,22.35,-0.08168947160821725,-0.026101103159847292,0.0010433599559309485,-0.23818652534746526,-0.4412538196180382,9.68462798420158
1015000000.0,22.35,-0.07996504792766575,-0.018372016721162496,0.0010646508437165,-0.11173564370295645,-0.6222486745879868,9.625375681709055
1020000000.0,22.35,-0.1023866462793088,-0.008901159798402593,4.258388357979452e-05,-0.08907476037544759,-1.0422152717401527,9.859050495306905
1025000000.0,22.35,-0.06285009256516397,0.016784885469573615,0.0030342613867188465,-0.2839999180972992,-0.59350400453024,10.008652798640927
1030000000.0,22.35,-0.02367496186564713,0.03012580520781112,0.004194726495492062,-0.3127428400130284,-0.22778745975897463,9.868467279895773
1035000000.0,22.35,-0.041113019495758255,0.03287258269319038,0.003268475908420759,-0.2865500396891004,-0.20601,9.557980436580104
1040000000.0,22.35,-0.09944549734709678,-0.01009159023344873,0.0022144715626012884,-0.5462213858218139,-0.6843466706398668,9.77900094542031
1045000000.0,22.35,-0.11603003874190024,-0.06909579086004118,-0.001746036195171391,-0.2654579098723791,-0.8777010450638105,9.93409680446807
1050000000.0,22.35,-0.09033643474223349,-0.03334267481722179,-0.00021292574192504753,0.10889179540461794,-0.9191970611849706,9.903194898025049
1055000000.0,22.35,-0.05417424397552405,0.04045410199208925,0.005685248849141305,-0.16716313771593144,-0.6776742262209423,9.810980795078908
1060000000.0,22.35,-0.03881539758215149,0.044309011577153376,0.0026403251544600908,-0.4390961559091616,-0.3798425617339256,9.834721282356913
1065000000.0,22.35,-0.03913272978072411,0.010308008237346705,0.0030555501664956985,-0.3599286310774863,-0.19825974833209745,9.89917304480443
1070000000.0,22.35,-0.07881043943723692,-0.02490662102842325,0.0004471465876530441,-0.23367392981493929,-0.6490307638741077,9.781550688248005
1075000000.0,22.35,-0.12053252655814209,-0.028922721433314633,0.0009049554832683685,-0.1991429582388296,-1.0511423143428231,9.685903312074734
1080000000.0,22.35,-0.0838071106684489,-0.005496331650174317,0.0028532688144590783,-0.2950850517324505,-0.8201152657803528,9.804506735643267
1085000000.0,22.35,-0.04026413071966145,0.007771974031025003,-0.0003406974187469846,-0.22435446817694468,-0.610475899578359,9.935470173972702
1090000000.0,22.35,-0.03564067741646379,0.04103905669329028,0.0024274131145915973,-0.2784079905474799,-0.3857286918733869,9.739956028357561
1095000000.0,22.35,-0.05433947850894216,0.027233189547184608,0.005781061006189327,-0.6359832145696322,-0.3592422425381224,9.644603272385632
1100000000.0,22.35,-0.09437703140035619,-0.04410116052057826,-0.00042587888796304617,-0.42575320945133205,-0.6298027264501272,9.743292299126523
1105000000.0,22.35,-0.11679450379151186,-0.06744861664396805,-0.0029703781833187184,-0.07416282732122825,-1.161505287797953,9.86375905755959
1110000000.0,22.35,-0.09461841496587939,-0.019384184334253242,0.0009581974587930661,0.08417003716460038,-1.0325998885061989,9.903783643120835
1115000000.0,22.35,-0.0438783254099265,0.044710417434538303,0.002949085187524473,-0.05071815480828157,-0.7423220719314207,9.96097605160276
1120000000.0,22.35,-0.013078049171005253,0.07585135841807182,0.0031939525311496,-0.4112361136955612,-0.4532213473603135,9.87984691718947
1125000000.0,22.35,-0.03461432306038717,0.043410590281514935,0.0031939525311496,-0.7308456555532565,-0.35315991259289914,9.83452495629645
1130000000.0,22.35,-0.08387401316233078,-0.022706895625934056,0.0016182645183494626,-0.6592315610221156,-0.4885384389778844,9.873176531693366
1135000000.0,22.35,-0.12132890369733208,-0.07886979849113077,-0.00048974417328932,-0.27879918588339186,-1.1052944416350443,9.816866779539868
1140000000.0,22.35,-0.133023420145921,-0.08347837115362905,-0.003364303875533937,0.4787299928819,-1.2580342228549424,9.91751799857638
1145000000.0,22.35,-0.054808670012178276,-0.0012375363255659605,0.0010327282140947108,0.5030560883119609,-1.0549668217534682,9.987855366720753
1150000000.0,22.35,-0.01864883093650943,0.09204013700836401,0.003939210545961145,0.11673803949308043,-0.67198399481834,9.797246352216263
1155000000.0,22.35,-0.0023475936419429036,0.12999984109324705,0.0042586033748661,-0.6325508639730086,-0.38386478400674784,9.813433836517339
1160000000.0,22.35,-0.029791489076948906,0.06140043354531191,0.002810673336831427,-1.2258586589855867,-0.2872367098735671,9.758987662025877
1165000000.0,22.35,-0.08363246823046999,-0.054018043486141545,0.002129301687433,-0.992182087533821,-0.37984356205963565,9.751336335772363
1170000000.0,22.35,-0.1388208245089391,-0.12538491359664525,-0.0006813864054592369,-0.28645018193230176,-1.4416811452320115,9.848455472710155
1175000000.0,22.35,-0.13965158299342958,-0.10221768437183357,-0.0014372761621070623,0.3948539834927399,-1.3817364231101643,10.009633933636339
1180000000.0,22.35,-0.05427946346693366,-0.01414599872002785,0.0009794862385699482,0.7938258417623585,-1.0002273478790735,10.175324766721348
1185000000.0,22.35,-0.01641728260284215,0.08585088394644845,0.003470766746496452,0.5404315880194159,-0.8686751547419517,9.922813849139839
1190000000.0,22.35,0.0006322335521060582,0.14693866445044787,0.008879205596308297,-0.49972456666214565,-0.6378455296846554,9.862974462286445
1195000000.0,22.35,-0.009965220105946571,0.09434054354961614,0.00781452207845707,-1.3395567766292678,-0.30234331796523317,9.829815782194057
1200000000.0,22.35,-0.04367868579019195,-0.015977009747727332,0.0008517029677002699,-1.2556788345719883,-0.19816216315992163,9.76683602330856
1205000000.0,22.35,-0.11428177524547964,-0.10660559439942441,-0.002129301687433,-0.6369615913854159,-0.9259687320871872,9.805487540434076
1210000000.0,22.35,-0.16249926227357372,-0.13477675295399716,-0.002129301687433,-0.04178935435169351,-1.4581585880223857,9.784101411977614
1215000000.0,22.35,-0.08634458277860081,-0.08412519112371321,-0.0015224481452840346,0.35551515519735155,-0.9487228108080282,9.767915170799752
1220000000.0,22.35,-0.0245044226980003,0.008734570195528472,0.0013201773332909312,0.5729043554555435,-0.7867630663666307,9.582799546906696
1225000000.0,22.35,-0.02391886215164558,0.09369032517578216,0.004950634170213821,0.19521704887927055,-0.8946716192935162,9.627044380383744
1230000000.0,22.35,-0.024014685902741403,0.09627396936316103,0.004663162916926344,-0.5905639113019392,-0.7021992505006925,9.981087260085873
1235000000.0,22.35,-0.023940155147439822,0.027399027852305274,0.002065417430028588,-0.842384196243742,-0.468426900290169,9.992759604336596
1240000000.0,22.35,-0.061657775997980335,-0.03280950205362393,-4.259126161021529e-05,-0.6078269496911695,-0.7051444619003446,9.818240207315903
1245000000.0,22.35,-0.10780397897329944,-0.058154219763763226,-0.0010646508437165,-0.4256556339910563,-1.235178091487881,9.845610614374205
1250000000.0,22.35,-0.08948288837276877,-0.05805835385249357,-0.0005323227868473854,-0.22072424732774246,-1.1232434703757348,9.966960291357003
1255000000.0,22.35,-0.04662605042793386,-0.020906087801193227,0.0,0.07553773130607731,-0.8863338656530387,9.968136907477568
1260000000.0,22.35,-0.03349008378724076,0.03681121324302242,0.0,0.05140349446243492,-0.9425447021040471,9.804505861572258
1265000000.0,22.35,-0.03465054257198795,0.05083177775684967,0.0010007771263554999,-0.34943333027093326,-0.8391469577200695,9.789105215993253
1270000000.0,22.35,-0.029678601703923363,0.021110716109890213,0.002129301687433,-0.5073727559719275,-0.6733580053083801,9.866701627322415
1275000000.0,22.35,-0.040322430447351454,-0.00026617614948457914,0.0016502061200494931,-0.3855328514079285,-0.7210357429603574,9.816376425703965
1280000000.0,22.35,-0.0727796072717278,-0.0191289003866297,0.00012775270474372938,-0.43085564752435646,-1.0339748701862488,9.80882284972493
1285000000.0,22.35,-0.08123507950095214,-0.047657485758828964,-0.0010646508437165,-0.33569705185917054,-1.0997002512125025,9.874648224474583
1290000000.0,22.35,-0.05419691318997619,-0.036218238449966494,0.0002768173773599267,0.041006526644365285,-0.9525511252835113,9.959700675170106
1295000000.0,22.35,-0.03982130686301195,0.011707775132108907,0.0025658112632280616,0.10545687115446872,-0.9769778748461787,9.920460247846503
1300000000.0,22.35,-0.03963286261825735,0.030253498888311473,0.0023422263753537613,-0.20012503528855036,-0.9319497474905974,9.83550597474906
1305000000.0,22.35,-0.024035987330570448,0.014244981477656885,-0.0001809988962858328,-0.3725833437349334,-0.87309,9.852575552088355
1310000000.0,22.35,-0.03392261815972743,0.010887416387547283,-0.0009155914411220318,-0.26487,-0.8693621745548218,9.910846952671069
1315000000.0,22.35,-0.04660274003326421,0.017918383911716594,0.0006707272595099655,-0.3810212173535122,-0.8886880787960808,9.89652384240784
1320000000.0,22.35,-0.04333858628564794,-0.00567032867463961,0.00038327708630941297,-0.5187523641299236,-0.9001653692452536,9.753493989769341
1325000000.0,22.35,-0.042982282189994815,-0.028283913641413458,0.0010646508437165,-0.3261818565866186,-0.9535328235691283,9.738878143413382
1330000000.0,22.35,-0.05825002032676337,-0.019813996783713664,0.0007026667532013301,-0.14342201916442018,-1.130896593330766,9.954992239172123
1335000000.0,22.35,-0.04946080401457645,-0.006803071050091381,0.0,-0.08515069627690697,-1.0596760444153606,10.003550807315309
1340000000.0,22.35,-0.027059570599261805,0.013164734497077748,0.0003406910947209268,-0.12164452055784522,-0.982569287665293,9.847277739721077
1345000000.0,22.35,-0.025420039435226693,0.027517364738816302,0.0017247400373641415,-0.30675914412519145,-0.914684504500045,9.841392522500225
1350000000.0,22.35,-0.031105269312289796,0.01566252489869805,0.0022357582343695186,-0.41005789511147894,-0.9035006591123067,9.950282764000828
1355000000.0,22.35,-0.034395031892478764,-0.0012350064041182776,0.0,-0.38259,-0.8654386737464869,9.84580610521126
1360000000.0,22.35,-0.041117920166718565,-0.007542646478226885,0.0,-0.34962808300358084,-1.0457465283273653,9.766051437747315
1365000000.0,22.35,-0.05070751676115849,-0.012820458854527969,0.0005749172104706382,-0.29135726513487264,-1.1048994780818946,9.842863632567436
1370000000.0,22.35,-0.03182918584710723,-0.00619628812623356,0.0015756774727566049,-0.29920433473484337,-0.9160581459378815,9.883771253221212
1375000000.0,22.35,-0.024770611495537057,-0.006121681482619104,0.000532331218882152,-0.1397927403695274,-1.0153350534154504,9.863954626091846
1380000000.0,22.35,-0.032723535938647984,0.009368912879445579,0.0023848207989769785,-0.22955426804844267,-1.0276955731951556,9.815101816511417
1385000000.0,22.35,-0.03074322408952255,0.001160419786586403,0.002214462076562245,-0.29282836549018365,-0.9818824426666244,9.966273057882331
1390000000.0,22.35,-0.01996905991601325,-0.010199322851351486,-0.0008304247279667886,-0.20973723301927233,-0.8836851779871517,9.883182411006423
1395000000.0,22.35,-0.03475701914500699,-0.00039391199015873044,0.0006707388535577905,-0.09643292321262922,-1.0114112709620127,9.819319364518995
1400000000.0,22.35,-0.0372802328225988,-0.004049249498160308,0.0029810194111941114,-0.22759134736031345,-1.0830239184200392,9.794304190353243
1405000000.0,22.35,-0.03302889758524125,-0.026942446474341304,0.0017247284433163064,0.007358182260981824,-1.0501603635478036,9.851103927290438
1410000000.0,22.35,-0.015866454074217363,-0.00786811787114551,0.001149840744967387,0.17069345224883453,-1.0651706490143065,9.866113309550233
1415000000.0,22.35,-0.01952184481807775,0.04710998389254348,0.005663930557242751,-0.08525046662660468,-1.2561695380362954,9.901625454969354
1420000000.0,22.35,-0.008656704276737773,0.0598228335513497,0.002129301687433,-0.5964488274538884,-0.9099745243099453,9.916340372418203
1425000000.0,22.35,0.023277333024196028,0.029715813534697696,0.0014904991655535576,-0.8054002803482028,-0.6356888857252889,9.900742361605422
1430000000.0,22.35,-0.019807513291964878,-0.018433454306183837,-0.0015330851571420437,-0.5831062888958629,-0.9107605666562056,9.856303144447931
1435000000.0,22.35,-0.056184586032665254,-0.0213190111960339,0.00157567114873053,-0.5417080327610804,-1.0060164755603649,9.848357295112073
1440000000.0,22.35,-0.05151926016059116,-0.07072770743015559,-0.002001540550654504,-0.3833722547052225,-1.2764765287134654,9.88808712450537
1445000000.0,22.35,-0.028196771153915074,-0.05678544268749805,-0.0007133069270723767,0.38926046319130464,-1.0725273842021739,9.760754305213043
1450000000.0,22.35,-0.005962032498362168,0.021418775385573463,0.0020228335464487473,0.2491729860776299,-1.0928338310129382,9.905156633861365
1455000000.0,22.35,-0.0005961553980388537,0.05142561201269521,0.0011604724868036313,-0.09957248915702488,-1.0266160760755607,9.796560497831406
1460000000.0,22.35,0.013627484634181314,0.05186062409021745,0.0019589513970529803,-0.43478002240370023,-0.8942796567174965,9.870822425381224
1465000000.0,22.35,-0.0027800315125561586,0.018965609454504012,0.0,-0.6827754308826542,-0.9157636422793364,10.004826543088267
1470000000.0,22.35,-0.0255690735417169,-0.04079464334907809,-0.00012776429879153342,-0.48382840051638404,-0.9643231427649315,9.98010508591715
1475000000.0,22.35,-0.025675544844714196,-0.04538813493726358,-0.0020228303844357096,-0.20600885399578853,-1.0300511460042114,9.875726828099367
1480000000.0,22.35,-0.02688848312787509,-0.034723487240815434,0.0,0.16088356879163568,-1.3867404213638042,9.819417571252776
1485000000.0,22.35,-0.00668540851901651,0.02692120828677303,0.0,0.010201476981014769,-0.998559698089597,9.81264895959909
1490000000.0,22.35,0.018137813793508383,0.03589613961177308,2.1296157807280543e-05,-0.29410377105853774,-0.9315575421170754,9.896523939526839
1495000000.0,22.35,0.019010599336266358,0.020405564221786594,0.001054001183806341,-0.28645258077162583,-0.9128206451929064,9.81
1500000000.0,22.35,0.002129266905289588,0.03621545544652452,6.324026074916271e-09,-0.48069096147810964,-0.9613800291357003,9.81
1505000000.0,22.35,-0.009464780898723872,-0.005961997146019686,0.002108015015664832,-0.8011836646830367,-0.9710919292328193,9.81
1510000000.0,22.35,-0.01271194062325478,-0.04292264468888733,4.257966756241122e-05,-0.33334236283302365,-0.836596389380864,9.761930853350307
1515000000.0,22.35,-0.021054455967003116,-0.03540642178859233,0.0,-0.18099405859414056,-1.3762465773422656,9.8275601059894
1520000000.0,22.35,-0.027442878251697292,-0.008560407554150776,0.0010220680141410513,-0.07298607523406075,-1.1764145209439452,9.782531852379119
1525000000.0,22.35,0.008729380036227027,-0.0074525559060157,-0.0019696137050152895,-0.08730905924259058,-0.9250822298463223,9.95764106280461
1530000000.0,22.35,0.018669114731781858,0.0025551942774526626,0.0018737983859542329,0.02236715662097155,-0.9307728594368285,9.9024099919711
1535000000.0,22.35,-0.002617890585565552,0.014085366256096524,0.00014904464653362664,-0.052679968339799696,-1.2877598628057987,10.0077699577864
1540000000.0,22.35,-0.006217567419971322,0.020798061029684057,0.0,-0.3657178170301782,-1.0347578727077786,9.97990908034939
1545000000.0,22.35,0.024630714276260648,0.004824383698123047,-0.0019376710493108872,-0.32098295992182957,-0.8765230498534305,9.923207219941371
1550000000.0,22.35,0.020032863015083065,0.01470792886908198,-0.00021292363391635588,-0.2962619397862194,-1.0486896322446964,9.794303578503536
1555000000.0,22.35,0.002109869475835715,0.03493806652549272,0.003790170115444891,-0.5736897665282976,-1.008173488571935,9.745646279183962
1560000000.0,22.35,0.009368960309641142,0.0007259286636711604,-0.0004258767799543827,-0.694548303011283,-0.7847992424717924,9.819025472710155
1565000000.0,22.35,0.006015260771830439,-0.0394712700499867,-0.0010646508437165,-0.4332086272560863,-0.8065783823894839,9.735737965619279
1570000000.0,22.35,-0.03497828921471405,-0.06763787449368386,-0.0001490478085466641,-0.09711793266217927,-1.506033700620037,9.831386196439762
1575000000.0,22.35,-0.009850522039848708,-0.039678198956431814,-0.0027148696118182276,0.30116828488438285,-1.1683693480057935,9.982656489479766
1580000000.0,22.35,0.03242276905985214,0.01870733367234799,-0.0005110224130227378,0.33000827724158277,-1.0312269851727698,10.030921292068813
1585000000.0,22.35,0.03410755326116091,0.06855685801452965,0.0,-0.026390223829102277,-1.1423749618008496,9.970491353706214
1590000000.0,22.35,0.04351214572552208,0.07758023766873214,0.0043650852179069125,-0.7416384707073848,-1.0547707676262075,10.069769232373792
1595000000.0,22.35,0.053576227776009476,0.02945084646642785,0.001011401490161397,-1.0259303576573036,-0.5850666650661667,9.991190297247503
1600000000.0,22.35,0.035793134669887795,-0.021090713941123225,0.0,-0.753406787954868,-0.5905624350931244,9.833543471672636
1605000000.0,22.35,-0.02885175459500271,-0.06202598526278578,-0.0033643101995600192,-0.4598919270944193,-1.4782723604471235,9.769190275299202
1610000000.0,22.35,-0.05222028182035381,-0.09273711429794287,-0.0025977412708802945,0.2558474894193749,-1.4161704116519043,10.036415925803459
1615000000.0,22.35,0.03261881948377151,-0.05313007513173326,-0.000489732579241516,0.8946738821662388,-0.9338122374198226,10.00080402945844
1620000000.0,22.35,0.048881046315065776,0.07150870198067498,0.004045690280993254,0.6199902693394026,-1.1049996271956963,9.519622112006621
1625000000.0,22.35,0.057792266239374036,0.14886804015726085,0.0029277795436780532,-0.4806941664051418,-1.1306022159269222,9.50343803658248
1630000000.0,22.35,0.07202664130585655,0.09833680411968851,0.0013414566270286226,-1.399693396185134,-0.5277754671364547,9.893582719718127
1635000000.0,22.35,0.06707593230133412,-0.015358079164602481,-0.0012669448438052675,-1.186321426283114,-0.16618070132590704,9.99452600472626
1640000000.0,22.35,-0.027356004189731914,-0.11420347016973068,-0.00366240581665334,-0.5214973064376731,-1.4923034435863345,9.951263840724838
1645000000.0,22.35,-0.10369299075589261,-0.14484786595645782,-0.003502697808153087,0.67924900110979,-1.877437097052671,10.292751729559717
1650000000.0,22.35,0.03025249492325395,-0.05827438425925241,-0.0031939525311496,1.0683089038521891,-0.9908061540875616,10.389770775655109
1655000000.0,22.35,0.08083660329184329,0.07457941647054801,0.0004791103234443174,0.5585790211671902,-1.0437859287833593,9.78704183541052
1660000000.0,22.35,0.0912235536209753,0.17947809314760052,0.006473098125563093,-0.4669598692209987,-0.792645904171959,9.56553499346105
1665000000.0,22.35,0.08551181641583155,0.10601725078051268,0.004237289298984939,-1.553515092787751,-0.35198163573741637,9.959015743415758
1670000000.0,22.35,0.04297715691243631,-0.07327305728973954,-0.002789409853158967,-1.1326587399081873,-0.23544,9.981674189056342
1675000000.0,22.35,-0.04266753428912693,-0.15756056275007643,-0.003939201059922068,-0.1236028766529288,-1.6829128854144288,9.745253219163232
1680000000.0,22.35,-0.05564725921331659,-0.1127109852081533,-0.0025125724497163738,0.45086887264738873,-1.6586706231060062,9.757026489479765
1685000000.0,22.35,0.054037127150596886,0.021328470815922596,-0.0007878345203609191,0.5824196672708967,-1.2498923291037234,10.05103297643503
1690000000.0,22.35,0.1107935009166,0.1355299920797816,0.002640348342555737,0.11654030520710307,-0.6853234158564343,9.706011373902214
1695000000.0,22.35,0.10884517915337455,0.14102175524315225,0.0036091627871243023,-0.8310087544908874,-0.38955546215675463,9.8565999692506
1700000000.0,22.35,0.05263184055602689,0.020021836280798608,0.0006387761717708369,-1.3498565283273651,-0.37277966979539673,9.913984712202048
1705000000.0,22.35,-0.01795334901991585,-0.11750782542280876,-0.004205388803454389,-0.8222708220069082,-1.2538213656951136,9.830405197410952
1710000000.0,22.35,-0.05822148870558222,-0.13854547722573896,-0.003917900686097353,0.39593631648716315,-1.79091300213543,10.146092161090822
1715000000.0,22.35,0.026844615294214502,-0.03430132202485299,0.0009049712933336127,0.7070050677209507,-1.247044401807344,10.311781333440914
1720000000.0,22.35,0.0888015853200466,0.05906142153763762,0.0025977444328933543,0.17069199546381997,-0.7004328306872283,9.922616561601265
1725000000.0,22.35,0.090441281962764,0.08085935164301526,0.002129301687433,-0.38504434283304345,-0.5493600000000001,9.79528600518166
1730000000.0,22.35,0.055352490880597925,0.02237196355912246,0.00040455638004716033,-0.7020040704444408,-0.8089342465555425,9.985991769634918
1735000000.0,22.35,0.018680786240265927,-0.041878227013677154,-0.002193188052846203,-0.5520073182879732,-1.0560466685014667,9.957639994495599
1740000000.0,22.35,0.027485500079433463,-0.03378733675377782,-0.0015330862111464377,-0.3119576620258766,-1.0127839606336397,9.832366428228465
1745000000.0,22.35,0.04167553967990101,-0.012211534142003204,0.0,-0.2398543305273433,-0.8715198576874986,9.700519857687498
1750000000.0,22.35,0.05167049832839857,-0.014381538920015383,0.0,-0.12752938815029388,-0.8093251019749511,9.6334200679833
1755000000.0,22.35,0.05122328955448909,-0.0092393610411198,0.0,-0.029626131822461314,-0.963441088574311,9.72494787950908
1760000000.0,22.35,0.047901615938726085,0.016872569438845582,0.0005110361150792173,-0.11850551790365517,-1.13678300511533,9.847670673487107
1765000000.0,22.35,0.06452912663712465,0.04016303041546527,0.0010646508437165,-0.4238915741693158,-0.9045781458685814,9.883869265716992
1770000000.0,22.35,0.08252021796301842,0.022780909107004515,8.516460514655156e-05,-0.5752578499179786,-0.5856568280993683,9.923796343801264
1775000000.0,22.35,0.058645489910721424,-0.018160259438087918,-0.0015437474651043526,-0.3448203622509036,-0.726922310135323,9.998842672386226
1780000000.0,22.35,0.019854794216321116,-0.03561938125865648,-0.002597751810923775,-0.20561791116927913,-1.1305059904207597,10.012870696276906
1785000000.0,22.35,0.03096459435875753,-0.022473968233604723,-0.002278345279962338,-0.22974999197109994,-1.1427649237254491,9.90780497189885
1790000000.0,22.35,0.07324773469710119,0.008269126645352344,0.00027682053937296415,-0.15087741754537418,-0.7086734264791343,9.810981173843013
1795000000.0,22.35,0.08661908592527133,0.02164047787352244,0.001256280427834267,-0.14057775325437755,-0.6096920229858203,9.851496404597164
1800000000.0,22.35,0.0630655677016989,0.007888816062913572,-0.00042586413190224496,-0.2472122797027228,-0.8181550838480508,9.821771580445915
1805000000.0,22.35,0.04203543570141335,-0.006334691544891795,-0.0014798684777216234,-0.32108154541971545,-1.0159237402398373,9.793225285659553
1810000000.0,22.35,0.05599300071673001,-0.0027041482796125406,-0.0013201594152169962,-0.3555143296858433,-0.9578476265442764,9.896328351570784
1815000000.0,22.35,0.06904143528572822,0.009698980664364977,-0.00039392463821088033,-0.34697973525419734,-0.678850589832106,9.91722291220383
1820000000.0,22.35,0.07393280681752769,-0.002476415158929565,-0.0014479289840302588,-0.31078037578420376,-0.541120695890807,9.81039201113552
1825000000.0,22.35,0.05592285175123289,-0.02658048030190002,-0.0017566700450163627,-0.15646868468598685,-0.9039932369733323,9.720728787309389
1830000000.0,22.35,0.03840879743584148,-0.007479252540188365,0.0003832897343615967,-0.10320219527552196,-1.1497312890889129,9.769191324184414
1835000000.0,22.35,0.0602032084798898,0.025217734895094473,0.0021399365912823844,-0.33305003464010036,-0.8583732178663321,9.963428685141388
1840000000.0,22.35,0.09535994607316045,0.014959457416500113,-0.0006813842974505453,-0.39396917112249175,-0.5140438213010382,9.934389870765399
1845000000.0,22.35,0.08383997715032303,-0.010279349565444944,-0.0014692103857766978,-0.26222069077250687,-0.6631581502146815,9.776155679184557
1850000000.0,22.35,0.038238391283231206,-0.014917251056542489,-0.0006387983058620591,-0.17363732340627325,-1.0957773234062733,9.901234113954942
1855000000.0,22.35,0.049086890547366493,0.0071063725847151146,-0.001511796377365184,-0.30940833680988333,-0.9840389020998891,10.07428089556391
1860000000.0,22.35,0.09169754763453745,0.016450669469124227,0.0,-0.4465506219477062,-0.4932459329215594,9.872390227125802
1865000000.0,22.35,0.08833898070465773,-0.008862670376131074,0.0,-0.24083423211144234,-0.4853029097486291,9.646369779606196
1870000000.0,22.35,0.0495365343477749,-0.015216042696636803,-0.0002768131613425434,-0.05395590806265908,-1.026716089222761,9.829817180707671
1875000000.0,22.35,0.042346236874368996,0.007456998344266986,-0.0007984841802710781,-0.316373701847637,-1.1673876691439766,9.99884209938412
1880000000.0,22.35,0.0898706484678574,0.02113590150917609,-0.0005110403310966006,-0.5144357061818571,-0.5575982455120825,9.882593452248834
1885000000.0,22.35,0.11213079566059973,0.007228871941732945,-0.0016395543521306425,-0.31862792126727923,-0.2734072263565723,9.773016336613862
1890000000.0,22.35,0.06854410442371518,-0.012328612944736783,0.0,-0.16108060382080602,-0.8723065215953653,9.787044710132948
1895000000.0,22.35,0.03389847617290766,0.0003833382185614966,0.0,-0.29263314658633144,-1.073605074908351,9.849142599353927
1900000000.0,22.35,0.07541579319561312,0.011072316706837317,0.0,-0.46499388928433893,-0.7180905606964056,9.963035372611253
1905000000.0,22.35,0.09547360644606165,-0.005869658797229169,0.0,-0.3967155119438551,-0.44743480304444805,9.809116692974268
1910000000.0,22.35,0.07083408703477483,-0.02993412186947171,-0.00038328235633114204,-0.1689274209113742,-0.6778726694756267,9.76585592748646
1915000000.0,22.35,0.05099978687895373,-0.016513405276482006,-0.002491291047969916,-0.025016057948660582,-1.034856788410268,9.978634160376041
1920000000.0,22.35,0.06822090988752867,0.031108131469730307,-0.0032365142806381163,-0.2303407765659078,-0.8974161148538611,9.982262332014322
1925000000.0,22.35,0.10871746017676988,0.039259188461870105,0.0018098983184845871,-0.6244054156663542,-0.29675231304592314,9.715333836517338
1930000000.0,22.35,0.10670012678785143,-0.018670209306655628,-0.0007452759328854523,-0.3249056255067562,-0.36218812405888123,9.816475312270754
1935000000.0,22.35,0.054010394576603914,-0.027395506579294696,-0.004492802086502894,-0.025409516157295167,-1.0240660127551602,9.97677
1940000000.0,22.35,0.050486276238130665,0.023096944137245005,0.0009368886529336582,-0.42183094205430943,-0.9543137477440375,9.960288672449586
1945000000.0,22.35,0.09595814261109066,0.007737915401120677,-0.00023423138577144048,-0.5826139732561397,-0.25506,9.825401208869213
1950000000.0,22.35,0.1155806717299444,-0.03142459152290366,-0.0025551784673874148,-0.10594678795486787,-0.3364861437420614,9.716805189382052
1955000000.0,22.35,0.05221182823897386,-0.012161767512545591,-0.0058129688797503186,0.132433101323531,-1.0666411860794118,9.779491697444117
1960000000.0,22.35,0.047249830536890046,0.03642847083065521,0.0,-0.3492377131791771,-0.9707942497829425,9.964605485788056
1965000000.0,22.35,0.11389168872089718,0.02268120661991601,-7.452970129723407e-05,-0.7203463534438636,-0.17451978549669783,9.916927854966978
1970000000.0,22.35,0.1226087608200816,-0.02925272808598197,-0.0011285340471166125,-0.23033719287477195,-0.1942410611909106,9.652648212238184
1975000000.0,22.35,0.05662015541930503,-0.01795489552075131,-0.002022828276427018,0.13096146681371465,-0.9417607672401076,9.810000767240108
1980000000.0,22.35,0.0418811629514218,0.025398712711293417,0.0,-0.3786675383649754,-1.0928305386788055,9.987756353899263
1985000000.0,22.35,0.10196136273101344,0.019840012185503693,-6.38874194174958e-05,-0.7400643950753439,-0.24024624454386245,9.77792095299381
1990000000.0,22.35,0.12535694932354097,-0.027932644559077898,-0.002171896111056255,-0.23700797655877975,-0.09712267206942671,9.698363398254234
1995000000.0,22.35,0.056397497018529474,-0.03873819032968317,-0.0042160005192080794,0.16235375622833756,-1.0100374449980745,9.995997444998075
2000000000.0,22.35,0.050073753555007754,0.027698404741271682,1.2648052149832937e-08,-0.2746815539040155,-0.9711867756491678,9.957149417285995
2005000000.0,22.35,0.1144025761695273,0.03507643516200753,0.003162025685510384,-0.6631575577887757,-0.16509906758829063,9.81147091582921
2010000000.0,22.35,0.1202689146111646,-0.021224828909837262,-0.0009794957246090589,-0.3113679554519796,-0.21464303425103035,9.761930804790808
2015000000.0,22.35,0.06560757398303776,-0.021342405444524686,-0.0020973664097590186,-0.028153564970235634,-0.7391856526426566,9.827560173972701
2020000000.0,22.35,0.06084775000359601,0.011412495244428448,-0.002129301687433,-0.22680806319368063,-0.8401287531246875,10.017972784721527
2025000000.0,22.35,0.10424433659330602,0.03706653250843094,0.0009049660233118265,-0.49638710132947106,-0.3497244153406441,9.774192438003723
2030000000.0,22.35,0.11754343433759697,0.003301314968903124,6.387477136534595e-05,-0.6207772731637728,-0.1300797719633977,9.585742650824026
2035000000.0,22.35,0.0716775035585383,-0.04451377284590688,-0.00792103659563254,-0.10780964693629647,-0.6742437111734372,9.893876883460168
2040000000.0,22.35,0.05935721289388593,-0.006773791137660988,0.00029814093928017503,-0.0776952396245524,-0.9146852717401527,10.125490511364706
2045000000.0,22.35,0.08379633660146836,0.032668883446127214,0.0010646508437165,-0.5426912655269127,-0.38739447697804485,9.81323583029816
2050000000.0,22.35,0.12079962916016782,-0.012683528208237302,0.00010646076295383212,-0.38553208416782087,-0.015694566523545617,9.621647283261773
2055000000.0,22.35,0.08292651073747095,-0.034224758544416006,-0.003790174331462274,0.18707921470229216,-0.6875861331886614,9.979420416384103
2060000000.0,22.35,0.06370305622573431,0.024713446481279697,-0.0014479121199607375,-0.15931632062536322,-0.947646800260568,10.017187159986971
2065000000.0,22.35,0.10812755374587338,0.05804557973451244,0.0026403515045688,-0.7279044066088441,-0.2030633900867339,9.759967796695578
2070000000.0,22.35,0.13795721642392283,-0.0005064423494499301,0.00044714026362696916,-0.6019406350256065,0.2069924072543241,9.687963439170934
2075000000.0,22.35,0.0864537448682992,-0.04053977969000712,-0.003619830365108325,-0.14371444447634446,-0.4954086273946862,9.824225185174551
2080000000.0,22.35,0.040905455214759016,-0.011801749641219376,-0.0006813590013462615,-0.19227660602256608,-0.9821789372646894,9.981087046424072
2085000000.0,22.35,0.07653115348431405,0.015899182377849687,0.0,-0.5252289389476894,-0.48784850559498505,9.88406489252065
2090000000.0,22.35,0.13064999199352414,-0.008578089669286349,0.0008730180975856955,-0.4759806316596063,0.10183019514880198,9.633811263319213
2095000000.0,22.35,0.09574958017069722,-0.03906565384265166,-0.0015224639553492218,0.152646692657467,-0.4217351147360512,9.783023517321535
2100000000.0,22.35,0.057955261410968795,0.014915893809962735,-0.002129301687433,0.07455485788054855,-0.8829016315992163,10.01797297895953
2105000000.0,22.35,0.09068262964030323,0.055914901811142656,0.0012350127281443237,-0.6468749162905493,-0.4576338423385383,9.871311477822514
2110000000.0,22.35,0.13526913365868187,0.013826584828314718,0.00046843747543858123,-0.7551734311420344,0.2501580738163807,9.605558452441885
2115000000.0,22.35,0.10386362258638424,-0.04101615862166496,-0.004098928040500593,-0.08612826700498266,-0.23004799191367992,9.892602089741521
2120000000.0,22.35,0.05355626510648723,-0.00792912944834491,-0.0020866977777706827,-0.026291541212215414,-0.8169789824581899,10.026212564713825
2125000000.0,22.35,0.0719077355507376,0.02955728086199425,0.0021293196055069538,-0.5836978892902789,-0.5223801472922014,9.807546220457162
2130000000.0,22.35,0.11355723493015583,-0.003713596146800849,0.0008304141879233564,-0.5521056415645564,0.11105201334322018,9.687963351763834
2135000000.0,22.35,0.1137531672537522,-0.04299964634139314,-0.0031087984660464795,-0.10113890209988902,-0.11654512230955127,9.823048170866082
2140000000.0,22.35,0.06524363630410701,-0.016916221581748013,-0.002725497137637068,0.1593151066378511,-0.7663601512522016,9.928112690968527
2145000000.0,22.35,0.07441331818920782,0.05429212637881693,0.002406138036871222,-0.28154991648359917,-0.578297208477172,9.877688583359486
2150000000.0,22.35,0.12623816888812295,0.05166333241203276,0.0012775628835850817,-0.8652443386255433,0.14126742441597423,9.705032123015421
2155000000.0,22.35,0.12176467877032815,-0.03228869205257333,-0.003673068124615715,-0.47499676762026766,0.17275280239302798,9.75830201159092
2160000000.0,22.35,0.06259278218187361,-0.047591528689566495,-0.004599287091556638,0.05454536212715361,-0.49521240816512413,9.990112732796028
2165000000.0,22.35,0.055827602760801995,0.016966182752761898,-0.0006920002292216711,-0.25398371751933724,-0.7454617738424177,10.002569837422199
2170000000.0,22.35,0.10117872465942251,0.028571283710283737,0.0031726732374118185,-0.639220695890807,-0.1271336379332364,9.714448956163789
2175000000.0,22.35,0.12314346904338748,-0.021298528107546264,0.0014904928415275178,-0.33697092294730924,0.14813074651940747,9.788419351896493
2180000000.0,22.35,0.08713565907075435,-0.03617294539508519,-0.002725524541750095,0.0608232703165327,-0.330796291103563,9.935960654063306
2185000000.0,22.35,0.06805546280808662,0.01905184079844236,-0.0009049301871641058,-0.031000958112109595,-0.6504034244100343,9.833543151179931
2190000000.0,22.35,0.10292334878250947,0.06618195814376956,0.0010646508437165,-0.560742492592325,-0.1879561118739611,9.675798604466285
2195000000.0,22.35,0.13071316910040637,0.022122182965599924,-0.0021825573650142765,-0.8142300000000001,0.26133942324579423,9.767229423245794
2200000000.0,22.35,0.09820940787575877,-0.04601410170782587,-0.0036198082310170783,-0.40809305146713054,-2.5639416256773018e-06,9.953226683717766
2205000000.0,22.35,0.05401290925818546,-0.0398955739962758,-0.0038221011771014998,0.042086227713862306,-0.5132612558150126,9.969706457364165
2210000000.0,22.35,0.05839187063337143,0.011884538347782827,-0.0017885947826469279,-0.2827275912012759,-0.5014856546424565,9.749765183422252
2215000000.0,22.35,0.11144883138429885,0.016328457526996343,0.001213711300315314,-0.6249952290711523,-0.02324716160067164,9.708859631403197
2220000000.0,22.35,0.12319357103629347,-0.018747792562215308,-0.0014479532261302682,-0.20365219345392194,0.15421263942912639,9.890442862416728
2225000000.0,22.35,0.0904925581683475,-0.008791012301034715,-0.0042586033748661,0.14813108643591086,-0.25261030916710314,9.85806804920498
2230000000.0,22.35,0.07505020033244796,0.03291672531096752,-0.0025338549054671686,-0.2721329085210291,-0.5077653401095534,9.723867896794479
2235000000.0,22.35,0.10335671887676978,0.039907392063200195,0.0017566974491294068,-0.720839494595095,-0.08034055726110556,9.775469494595095
2240000000.0,22.35,0.12557082629574876,0.0004249023442973107,0.0014904875715058014,-0.6517751817392519,0.30018621754656216,9.946163626676936
2245000000.0,22.35,0.09425207121965097,-0.04182466971806546,-0.002150604169266407,-0.23975395803983962,0.09358539410415398,9.820494824923447
2250000000.0,22.35,0.04633830658493229,-0.038353458458195135,-0.0026616223662717436,-0.07357591777455919,-0.3874973162881732,9.643230262221303
2255000000.0,22.35,0.0542787796081796,-0.00617309163314835,-0.0010859343534716306,-0.2486841570100416,-0.5176725173819252,9.749571100810712
2260000000.0,22.35,0.11228357614778271,0.01929994146454643,0.0,-0.3472742194889422,-0.11418589782605898,9.904961502364616
2265000000.0,22.35,0.13623719766943504,0.03734174011013709,0.0005003906711864416,-0.3266725600509256,0.31951306384213063,9.857479168142591
2270000000.0,22.35,0.10978451390849223,0.0281680454404254,0.0005749066704271799,-0.41005932276079327,0.255057795398678,9.657748270895683
2275000000.0,22.35,0.06434133252298505,-0.01651803598409975,0.0,-0.49393274878452753,-0.2128790327006903,9.708958148917782
2280000000.0,22.35,0.04887144329874976,-0.04299650627238061,-0.00046845117749507695,-0.3288304471335045,-0.4135891128510911,9.957151107156612
2285000000.0,22.35,0.08513702394355463,-0.015588681181442337,-0.0006068461641185446,-0.2438766887667669,-0.16755284713112847,10.001686423565564
2290000000.0,22.35,0.116329733577325,0.024930379582285014,0.00044715818170083387,-0.27978146688301464,0.16912537857105378,9.767423399026434
2295000000.0,22.35,0.10721959533510872,0.024614238063047984,0.0006281391599127877,-0.36218573493145734,0.18167995182659952,9.666087879509078
2300000000.0,22.35,0.07755187263207389,-0.0072467622832024774,-0.0008517303718131816,-0.3884755085778551,-0.051012804145328036,9.83158302751903
2305000000.0,22.35,0.06770413364750331,-0.02437662572507409,-0.002129301687433,-0.2586889388783894,-0.15696,9.921048662737686
2310000000.0,22.35,0.07839993840356423,-0.0013667274525027522,-0.0009155851170959569,-0.15696,-0.15696,9.763499568013495
2315000000.0,22.35,0.10186085823301161,0.04109830656270122,0.0006707251515012738,-0.34933648320316485,-0.011770201356102017,9.670796684559265
2320000000.0,22.35,0.11739431169474171,0.041671197406620106,0.0,-0.7333963210114633,0.32373112658041125,9.832367836453978
2325000000.0,22.35,0.09906992812545329,-0.023594571831072206,-0.0003726326964209831,-0.590068293616183,0.4394874580759746,9.849728829067589
2330000000.0,22.35,0.057243117171641135,-0.06557473393766608,-0.0021506094392881184,-0.09397921165309212,0.08612804363128046,9.63714811680218
2335000000.0,22.35,0.028773657814702747,-0.04519150773106442,-0.0035559239736125867,-0.00981,-0.5807538141829381,9.734267525673175
2340000000.0,22.35,0.05799425443997244,-0.0014056719800277818,-0.001447915281973763,-0.078873399937234,-0.526596209379062,9.90221490903385
2345000000.0,22.35,0.14510767878796774,0.06541007672216925,0.0006600934096649938,-0.3016586387202864,0.37523591616085916,9.959601361279713
2350000000.0,22.35,0.17150273622632492,0.08713544393291646,0.0018099014804976246,-0.5562283237319833,0.812266904497669,9.684430356746503
2355000000.0,22.35,0.09896024515026297,0.04112543929549161,0.0004471434256399923,-0.7923542946596429,0.448313797986538,9.459979565944396
2360000000.0,22.35,0.02581961816743881,-0.05394647081995463,-0.0022570796882810853,-0.7950009331146093,-0.08318953344269533,9.655789137848592
2365000000.0,22.35,0.01910465828667581,-0.12201493078025344,-0.006185636358314759,-0.3199978818949789,-0.21474122156101222,10.013361254062712
2370000000.0,22.35,0.04452454637724581,-0.08977982501705072,-0.007133135672997802,0.43478067310100676,-0.2903764603440646,9.939883203105433
2375000000.0,22.35,0.08468368587519291,0.03728081390728981,-0.0013307785090011764,0.47578140174101413,-0.27222579313355794,9.753592546131525
2380000000.0,22.35,0.14342296112716288,0.13200557473237065,0.0042586033748661,-0.29822792943477927,0.17658346714833467,9.8033300321156
2385000000.0,22.35,0.16277513889157938,0.11374347189974399,0.003279104488243979,-0.9748205801895057,0.7741078875379789,9.865326917575569
2390000000.0,22.35,0.11191396326020626,0.008394898858651481,-0.000702684671275231,-1.044959621621996,0.7946076788558768,9.586919810810997
2395000000.0,22.35,0.030940987564242822,-0.08747539319864434,-0.004088279434594747,-0.6529506227199062,0.20806549451985495,9.531005274720053
2400000000.0,22.35,-0.028546498919043137,-0.13933640790978394,-0.007239620678051541,-0.0411992495898925,-0.5768284195540843,9.872785491747855
2405000000.0,22.35,0.010199179385809217,-0.08273329981853801,-0.005578750142031008,0.43674157371391575,-0.5430789840025898,10.097824746000647
2410000000.0,22.35,0.11248926962290443,0.030291785371549463,-0.0015543749909232496,0.447334595659246,0.01314834911558349,9.919477821168378
2415000000.0,22.35,0.1723728699978214,0.13368968288492472,0.0016076380465349029,0.044238549877685496,0.5182622530915225,9.628809722176296
2420000000.0,22.35,0.15628695715172586,0.16119601504923575,0.0037475556657390625,-0.8993854065484541,0.5116896470055965,9.714647176044773
2425000000.0,22.35,0.09703919851408715,0.0509646382876046,0.00042583988980227614,-1.6436634745832346,0.5743772428004724,9.762911434767416
2430000000.0,22.35,0.04764093885821018,-0.09012961291226268,-0.0033430087717310304,-1.1271635720190358,0.76615698801407,9.669717235999173
2435000000.0,22.35,-0.007340254386618964,-0.16772927741889798,-0.0042586033748661,-0.07406242569802424,-0.08486146618011464,9.719552083781721
2440000000.0,22.35,-0.047000637749496046,-0.12275338889466739,-0.0034920239061429622,0.4665630312711303,-0.8962381876267819,9.793127700487377
2445000000.0,22.35,0.03725662765228757,-0.02210281190353333,0.0016608346998727356,0.38455294982382954,-0.19806052812540526,9.96362488494715
2450000000.0,22.35,0.1602126227223964,0.06115343543686852,-0.001490480193475323,0.5218901916442019,0.4492993324726933,9.964995525407854
2455000000.0,22.35,0.17708880304190078,0.1704488547497662,0.004354427125961932,0.04953310875843106,0.6876805231457052,9.515602424539725
2460000000.0,22.35,0.11181257597308913,0.1573231796666871,0.004812190699390475,-1.3624145201717455,0.6062584778254848,9.620863630042935
2465000000.0,22.35,0.07239785192579111,-0.001517242262311291,-0.0012137123543196667,-1.6365006569046066,0.6820882945269829,9.70483699151867
2470000000.0,22.35,0.039513566587791614,-0.10896354660601158,-0.0031939525311496,-0.9219405855553059,0.45282652948566526,9.73779811213928
2475000000.0,22.35,-0.02572878682023892,-0.14546431511961364,-0.0031939525311496,-0.27222437519614373,-0.15156589414325894,9.698167538364975
2480000000.0,22.35,-0.025055491660567294,-0.11232403819966305,-0.0031087700079291654,0.3445285487886855,-0.4100565548692655,9.99639
2485000000.0,22.35,0.06570391134526768,-0.01817778858436326,-0.0009688165525772188,0.6014499898326999,-0.1139899796653998,9.990208686368987
2490000000.0,22.35,0.12395302897778464,0.08418203554786187,0.002171898219064946,0.3702263529884635,0.3335424182631242,9.787240026155802
2495000000.0,22.35,0.14240944832806676,0.13693689473947393,0.004247951606947249,-0.24280113467861136,0.8114818430533185,9.634695930010958
2500000000.0,22.35,0.10866386168859483,0.08841790007487395,0.0031939367210844128,-0.9711901942380019,0.5395499514404996,9.760949562964495
2505000000.0,22.35,0.04115574727684948,-0.007548331673995726,3.192368362617834e-05,-1.0100377946264778,0.5298380513433805,9.673542462090426
2510000000.0,22.35,0.027953827938420175,-0.08473402729987295,-0.006260178707664111,-0.7027868398803683,0.3663045711864457,9.884164672582246
2515000000.0,22.35,0.00599439642750851,-0.09971439427920932,-0.004322471822205374,-0.020891831589118337,-0.03669145173601451,9.755259516087994
2520000000.0,22.35,0.03600211313098019,-0.015247453304770425,-0.003236533252716357,0.14126473421964736,-0.030214702104047024,9.600457616832376
2525000000.0,22.35,0.07370806401084634,0.0469845723560757,-0.00015968165839164118,-0.13243647135286474,0.25015647135286473,9.706014588541146
2530000000.0,22.35,0.11769056816064544,0.06908826164047245,0.0030023313790665932,-0.3223575337020753,0.8273783976750841,9.675014203431143
2535000000.0,22.35,0.09461573052048312,0.054459772214996885,0.0022038219026911283,-0.6437338741373388,0.6078262212986623,9.636166603042666
2540000000.0,22.35,0.02995788469118707,0.006220096270135825,0.002129301687433,-0.7844082413738824,0.3178425199064252,9.651470498672905
2545000000.0,22.35,0.01869139690201531,-0.057970396706029645,-0.0007772112105594057,-0.7856828505664285,0.276445701132857,9.920854483007146
2550000000.0,22.35,0.029614811252905715,-0.08788444362859821,-0.0029810331132506173,-0.19325368144373678,0.2658509504693095,9.92968190093862
2555000000.0,22.35,0.03278741703403947,-0.0346114809808656,-0.0012988632574097265,0.23916988436799888,0.05532720893257212,9.788024805955047
2560000000.0,22.35,0.04896425679615518,0.03135692549790636,0.0017460435732018118,-0.017659740372497457,0.0898599480744995,9.805291398899714
2565000000.0,22.35,0.09561341030819903,0.047760983732845444,0.002129301687433,-0.3234372444834725,0.6016502395008024,9.784395750533859
2570000000.0,22.35,0.09951202544481202,0.05358687111189351,0.0012136965442544724,-0.430463199353332,0.6768900000000001,9.746823400323334
2575000000.0,22.35,0.04745257478690087,0.020818958963914967,0.000159692198435094,-0.5665282502442825,0.5351346497231465,9.682960149886002
2580000000.0,22.35,0.02045864071862904,-0.03161378070682817,-0.0017886242947685689,-0.6792449512474494,0.25466604648446045,9.689140900226809
2585000000.0,22.35,0.025004857637369315,-0.048441662521256,0.0014053609105156516,-0.38710069200010694,0.27929115189471154,9.71670705063157
2590000000.0,22.35,0.03099882014338377,-0.024741629054234743,-0.0013627749189271655,-0.0743582404630824,0.39083100369171003,9.850418004922279
2595000000.0,22.35,0.046631450973414264,0.000667539812138164,-0.00040455638004716033,-0.043458451214284516,0.34845079676190793,9.695908540690485
2600000000.0,22.35,0.0585907577976756,0.024075192369956453,-0.0008517261557957983,-0.26094736355077364,0.349236101003761,9.543167292973674
2605000000.0,22.35,0.053991367413692974,0.03885598196765101,-0.00022357118581782325,-0.4146693577869936,0.5624086661729867,9.68619891317799
2610000000.0,22.35,0.04722019896714082,0.012460061939048746,-0.0033217326400062984,-0.4797092534805925,0.572118895823289,9.800386656265067
2615000000.0,22.35,0.03432444046978033,-0.013790142317040295,-0.001799243388552722,-0.4905,0.3703262301690623,9.668734984135249
2620000000.0,22.35,0.01712368037591886,-0.01999030864362499,-0.0010646508437165,-0.38612088753500884,0.328831301780713,9.750356065136062
2625000000.0,22.35,0.019975343181493903,-0.02743226231992614,-0.0010646508437165,-0.26486938815029387,0.30410979605009797,9.952246121724462
2630000000.0,22.35,0.04365991008507199,-0.012482123684143812,-0.0010646508437165,-0.13380768481567684,0.36689451084594515,9.897308233731083
2635000000.0,22.35,0.04646220206573931,0.018495257388810655,-0.0002874501732005525,-0.12674540472685403,0.42820675590856755,9.787436488182864
2640000000.0,22.35,0.048578126053555125,0.03383080861010082,0.0015331083452376519,-0.3563007896438079,0.4485132512788325,9.782139753836498
2645000000.0,22.35,0.049317588564995525,0.01881731353118862,0.0006174863379895912,-0.5250318165114182,0.5000160596316606,9.734658788992387
2650000000.0,22.35,0.04228927740823782,0.008730114573583428,-0.0014905223536491657,-0.5111006396885064,0.506195897053859,9.746235257365353
2655000000.0,22.35,0.034267231757539464,0.0052487118692332475,0.0008091570282768453,-0.5717274188422742,0.44615838743848385,9.720336290578862
2660000000.0,22.35,0.03702475587122868,0.0020866988317750127,-4.2602855658019356e-05,-0.6282325550019255,0.5218927750096278,9.65539403832884
2665000000.0,22.35,0.030849674312432948,-0.013926798300165742,-0.0010646508437165,-0.571922482355725,0.6544257729375578,9.613701744706717
2670000000.0,22.35,0.011866026230143066,-0.03536397387157316,-0.0010646508437165,-0.27408927367659275,0.48932114043051134,9.636363259307734
2675000000.0,22.35,0.0021825173128491096,-0.03568320016779149,-0.0010646508437165,-0.13734,0.26781206474402064,9.659416551958666
2680000000.0,22.35,0.0071970905486934385,-0.01899954680479348,-0.0003832686542746464,-0.08083393149793933,0.23112380822313808,9.763305232892552
2685000000.0,22.35,0.032121046233672124,0.004386497316192239,0.0,-0.036689295694192964,0.4615623253516233,9.81981
2690000000.0,22.35,0.0500243234121178,0.03035351194382801,0.0006600891936476105,-0.1145815315003153,0.49128396399963964,9.807645495499955
2695000000.0,22.35,0.03831962016703539,0.041773070745249476,0.000415208147966011,-0.32834211337282115,0.5393547422485474,9.746332628875727
2700000000.0,22.35,0.03515098805140041,0.020873944245348924,0.0006387961978533674,-0.5964494684392947,0.5670176328901764,9.788418681775386
2705000000.0,22.35,0.02118289567523523,-0.01309503317240996,-0.0014479479561085422,-0.58477299663103,0.4990343322103434,9.72945890171379
2710000000.0,22.35,0.005429690739436562,-0.02107619556690111,-0.0013414429249721692,-0.4149622104225221,0.49932926319249266,9.709938526384985
2715000000.0,22.35,0.005621379347797668,-0.02736843076273899,-0.0012137134083240056,-0.26928370896573706,0.4472372144369722,9.767915258206854
2720000000.0,22.35,0.01342443190647239,-0.015466220390616296,-0.0015330914811681187,-0.13459251317442514,0.34845077733810775,9.692671554676215
2725000000.0,22.35,0.0181165176357011,0.016990946947720877,-0.00047908713534874025,-0.20257771738667718,0.4326221644568216,9.6721699763687
2730000000.0,22.35,0.029039944634643662,0.022843486813710345,0.0005749172104706382,-0.3464896242157962,0.5986068893506689,9.706602546973025
2735000000.0,22.35,0.034394988678300625,0.015413694896144067,-6.389058143053332e-05,-0.38259,0.5688809968904099,9.67089388125544
2740000000.0,22.35,0.018149895015944044,0.021004053980270058,0.001149846014989132,-0.545830103078801,0.5109050128848501,9.678938772548488
2745000000.0,22.35,0.0009581278945063115,-0.002161897151960253,0.00047906394725318133,-0.6564847734533478,0.4997210800900108,9.776940993138309
2750000000.0,22.35,0.00372636490836643,-0.03302166422987606,-0.001064639249668696,-0.47578345095193453,0.534645694400857,9.785474412430045
2755000000.0,22.35,0.0044075731870912285,-0.025251650629655502,0.0,-0.2133661621857616,0.4782361621857616,9.745940860537708
2760000000.0,22.35,-0.005238105423501284,-0.004641772952732303,0.0,-0.14008738970657392,0.3861219752678197,9.737405731951556
2765000000.0,22.35,0.008067790717935168,0.00782521284453673,0.0010007834503815748,-0.2745828130157282,0.5463203500838035,9.675013970345539
2770000000.0,22.35,0.019684102203909152,0.003300330027760137,0.001639556460139334,-0.2817422315293223,0.5829089625096897,9.674033884235339
2775000000.0,22.35,0.004152032995460332,0.0023423254517622788,0.00010645338492341146,-0.21729187730731878,0.43016812269268123,9.748197323406274
2780000000.0,22.35,-0.0035771916733025756,0.0051528280398897616,-0.0005961986122170772,-0.3327561719669617,0.40103290799632907,9.832367447977974
2785000000.0,22.35,0.005951474536830131,-0.005940786932763493,0.0,-0.3261811476179115,0.4499851868575519,9.856106459047165
2790000000.0,22.35,0.010263187082673438,0.006076046135506913,0.0,-0.2152317793468178,0.4426264413063644,9.796069745807598
2795000000.0,22.35,0.008378843383239189,0.0351262477184087,0.0013095382134242152,-0.4159461715808618,0.4353687772113878,9.78635784571048
2800000000.0,22.35,0.015763855217744132,0.03558712169321921,0.0019163538114167502,-0.7102448701862487,0.6651197403724974,9.753101619293517
2805000000.0,22.35,0.0123498373438548,0.002792976396520097,-0.00083043948402763,-0.7164230468735305,0.7731249558410496,9.696596182064962
2810000000.0,22.35,-0.01335754940411557,-0.03462538614918225,-0.001320155199199613,-0.5005050538015505,0.5169850896692509,9.691299272904393
2815000000.0,22.35,-0.03909665641287339,-0.05783490176916679,0.00039392674621957193,-0.2675171143380711,0.3113695093559951,9.80882411227194
2820000000.0,22.35,-0.033154078104690995,-0.06348800770177802,0.0006813705953940495,0.07063446488024462,0.284881797473718,9.928896761799068
2825000000.0,22.35,-0.0017032984269571907,-0.01858807498128212,0.0,0.3462928902555289,0.26045621333906216,9.782530463577404
2830000000.0,22.35,0.02432271459501981,0.06609211322368605,0.0007239745050564146,0.11006451705324516,0.43340728417257285,9.587312725153227
2835000000.0,22.35,0.04647399502662574,0.10369608963234181,0.0028319831966952046,-0.47912304319073046,0.7571383330577833,9.551702644933526
2840000000.0,22.35,0.04410568676081436,0.08411132396866794,0.003577214861398139,-0.9233194617072946,1.031226703527667,9.498041172546111
2845000000.0,22.35,-8.435844733083869e-05,0.018037221156553034,0.0008091106520856292,-1.1603261368714615,0.9164492053071921,9.413185776303559
2850000000.0,22.35,-0.06477119032918995,-0.08107106673135846,-0.0030875054702522234,-0.8789722356675225,0.6445141767506418,9.55592304823973
2855000000.0,22.35,-0.09844737881711287,-0.1459444320517658,-0.006867028033795756,-0.18726851905898517,0.17196691543716913,9.832759643639596
2860000000.0,22.35,-0.0861988020897873,-0.1208886767173244,-0.008261642316001464,0.4810847887389479,-0.15499855552068556,9.915948555520686
2865000000.0,22.35,-0.03701693298185903,-0.019067809119790363,-0.0012669163856879303,0.7477174209113743,-0.12762604098006042,9.978633733052437
2870000000.0,22.35,0.04125024547061094,0.11249830629331149,0.002448727190472727,0.3974957368619574,0.3413924597045246,9.94184606552216
2875000000.0,22.35,0.0910754860191915,0.1896210782053185,0.006654073833753314,-0.6450150388624504,0.9736436727119367,9.866406774035466
2880000000.0,22.35,0.05036274715342452,0.12224473610803785,0.006174944538230693,-1.6523967356432674,1.1540490153459904,9.697771865843118
2885000000.0,22.35,-0.029194530164744444,-0.03748606546085176,0.0001702954821539912,-1.5053397367985974,1.1074477058531773,9.493726272451962
2890000000.0,22.35,-0.10009504706748529,-0.17376107197676857,-0.00591944650677368,-0.6021310076913101,0.445956593578266,9.590844768404347
2895000000.0,22.35,-0.1496562090216233,-0.1902891654258449,-0.004705768934597375,0.4411589052183891,-0.4119229684061297,9.65500312463803
2900000000.0,22.35,-0.09608656763237704,-0.07393464071597439,-0.00489735108851962,0.8456209297486093,-0.4316363386136634,9.827658506961185
2905000000.0,22.35,0.03408270427932774,0.08886206747604661,0.002076099764073459,0.5772167887270678,0.2630116861878169,9.868466697181766
2910000000.0,22.35,0.11423963165925627,0.19566308791412748,0.0063879050622992,-0.15559377845383782,1.0973481261279814,9.74133
2915000000.0,22.35,0.06872052111386201,0.18758833903963396,0.005663917909190601,-1.3022817465283174,1.2845203808332037,9.691297301388673
2920000000.0,22.35,-0.030855825568189013,0.0043830783852757405,0.0009368496547728308,-1.760693298402833,1.0312233432102336,9.478423134349931
2925000000.0,22.35,-0.11307327734439766,-0.17231214787440569,-0.0053232542185827,-0.787736295875363,0.3281389889822899,9.671189579477696
2930000000.0,22.35,-0.15966934285194506,-0.17868124835877736,-0.004577967745653789,0.22778950896989508,-0.48069,9.836487284558673
2935000000.0,22.35,-0.09143904458485419,-0.061939059969297695,0.00041523239006597786,0.4269314280354143,-0.37228465424744656,9.881220714017706
2940000000.0,22.35,0.019425992090501755,0.06340980325752599,0.003449481128732679,0.40927068733720684,0.43909976873599765,9.88887194315222
2945000000.0,22.35,0.08376159984935823,0.1477714935869514,0.004971900815899442,-0.0666149910751499,1.0336778122979782,9.816572528390726
2950000000.0,22.35,0.013426419637717332,0.09245824470500658,0.0019163590814384192,-0.8593569168033691,0.7416357707991577,9.776645197797052
2955000000.0,22.35,-0.05024398987468834,-0.0025480995841346667,0.00019164961020033759,-0.963535789312158,0.6595232579415325,9.682177594111877
2960000000.0,22.35,-0.07443417254640661,-0.07077026496362675,0.0018737667658238581,-0.56662399015544,0.1769717100666171,9.953224275166543
2965000000.0,22.35,-0.08238977495537893,-0.06093146300285571,-0.0008410554157987229,-0.31117296963372965,0.08927272774702727,9.681096484816866
2970000000.0,22.35,-0.04319954125480324,-0.020606684441166798,0.0020015310646153916,-0.25525429627334295,0.3876936229248362,9.659906711556568
2975000000.0,22.35,-0.019607078987511083,-0.008623558950238482,0.0,0.053955577858055784,0.7470282062090822,9.619686693429667
2980000000.0,22.35,-0.028806473669810834,0.010988102243411575,8.518463122912217e-05,0.1267421900879219,0.21699737364877375,9.725240673873207
2985000000.0,22.35,-0.054437852224846976,0.04466889709317972,0.002065410051998121,-0.37091766546117666,0.25584688728156885,9.58280202344122
2990000000.0,22.35,-0.02331197593536189,0.04200675691703519,0.0,-0.6292138065401381,0.6019426453889265,9.846884903074049
2995000000.0,22.35,-0.017403584551875066,0.012338869789322358,0.0,-0.6949394692114946,0.7714563057258631,9.730734734605747
3000000000.0,22.35,-0.05220310158407446,-0.030892530232806557,-6.324026074916271e-09,-0.5395480770437808,0.4218283684007837,9.653041515056415
3005000000.0,22.35,-0.10281258894317419,-0.06463794805879546,-0.0010540106698454534,-0.21905537383885376,0.14989516568145167,9.90555091758151
3010000000.0,22.35,-0.06574527719723516,-0.03470394273455837,-0.0010646508437165,0.005298744709687414,0.0029421230154212386,10.013852443122024
3015000000.0,22.35,-0.03088199501012228,0.018616180681035016,-3.193316966528968e-05,-0.15195789556687894,0.2093466883806669,9.711505725991758
3020000000.0,22.35,-0.004259142247547008,0.07034406221986927,0.0040882847046164504,-0.33589551453765515,0.8562207888716079,9.75859595195926
3025000000.0,22.35,-0.02445045150697717,0.00867824776271238,0.00021290466183813625,-0.5111020576259206,0.5939936785331368,9.826186911298969
3030000000.0,22.35,-0.054608046971831546,-0.02071338467045231,0.0010007781803598457,-0.22484331666833318,0.2191531046895311,9.571419152084792
3035000000.0,22.35,-0.08024079334804837,0.02023300466918267,0.004035045891104765,-0.3702304611222046,0.1962,9.691790384268504
3040000000.0,22.35,-0.05067089180345975,0.007751951767060349,0.0013201478211692002,-0.6443225124022252,0.4850082895472829,9.747216295241763
3045000000.0,22.35,-0.03339573165083559,-0.03625687975253636,-0.0008730265296204621,-0.40819238478132386,0.6261730688911308,9.483325225635852
3050000000.0,22.35,-0.07510704323606576,-0.03376684003234871,0.0018099257225975783,0.0765210806147108,0.26682951181119513,9.651079303336994
3055000000.0,22.35,-0.09221926713766594,-0.006474816567337036,0.001181755996558762,0.03148944726319447,-0.1759941296266413,9.986974536229544
3060000000.0,22.35,-0.04592905727645349,0.029612878226214234,0.004812247615625142,-0.3774915340941153,0.21464583127825831,9.818631373516114
3065000000.0,22.35,-0.006975505711819666,0.03964379646192943,0.0025444961333425413,-0.5084528358055284,0.7355570148331703,9.722101923728419
3070000000.0,22.35,-0.04610841902753013,0.001088108937224705,0.0012136954902501266,-0.37650678627186784,0.509136912912669,9.7878299366796
3075000000.0,22.35,-0.08314595425220418,-0.018912485112775775,-0.0007452685548550036,-0.30312864163088643,0.1525432900571329,9.7418200819027
3080000000.0,22.35,-0.08931269310742133,-0.006986798072478153,-0.00017033764232786972,-0.40142597772895977,-0.04198781703017816,9.855126897379568
3085000000.0,22.35,-0.06119120989861837,0.0028107302530661358,0.0017673334069830174,-0.4136876400775764,0.3628750758884508,9.837958200387883
3090000000.0,22.35,-0.031810893100601506,-0.013216112543671353,0.0003832612762442256,-0.3878872199413722,0.6443222404690225,9.741133139785031
3095000000.0,22.35,-0.06631705221340588,-0.0317122198228386,0.0008623737076972656,0.05444880641638805,0.29733815428358157,9.713763839883338
3100000000.0,22.35,-0.09267362342606206,0.00831508204693171,0.00021292363391635588,0.07847939786219398,-0.1157604687650047,9.782532541924025
3105000000.0,22.35,-0.05907316641173567,0.045268458756804145,0.004205403559515271,-0.545636904250169,0.16804813461228132,9.707190476269204
3110000000.0,22.35,-0.02074685476852008,0.02644572361732695,0.002831951576564841,-0.668060697959907,0.7469372057051721,9.628906977143869
3115000000.0,22.35,-0.05461186193192184,-0.01363721845070881,-0.00033006146089333823,-0.370227100804771,0.5429807772688078,9.77242897060789
3120000000.0,22.35,-0.10111837012434208,-0.021012348199648753,-0.0010646508437165,-0.28449,-0.13263586637375868,9.752709054579691
3125000000.0,22.35,-0.10545710392041781,-0.00745681372071892,0.002927822757856257,-0.5052168209812682,-0.07847805761998056,9.827168289091883
3130000000.0,22.35,-0.05602676728375796,-0.011860282977741459,0.003470755152448685,-0.4045629408841294,0.5372000989406011,9.880828382389483
3135000000.0,22.35,-0.04641709104259218,-0.02813028214075442,0.0016395490821089402,-0.021088759787387612,0.4180014815746148,9.795382308383022
3140000000.0,22.35,-0.08428295229979298,-0.0008137434504333282,0.0018312060703396717,0.07691021702780217,-0.06317957151809572,9.67619086811121
3145000000.0,22.35,-0.08817342402604253,0.03743683995031373,0.0006174842299808995,-0.31441385983183856,-0.12242806694578066,9.85218483263555
3150000000.0,22.35,-0.04091013231584672,0.038243568137887596,0.0014905244616578574,-0.6425565296242653,0.41987252768782535,9.813922898670528
3155000000.0,22.35,-0.031190509805749264,0.0061588395591717915,0.002129301687433,-0.6145955807686558,0.6511879225641792,9.700029348461193
3160000000.0,22.35,-0.08876025957208049,-0.028118850461455947,-0.0014905444877404959,-0.22876606966036073,0.21032228759302285,9.699343445516835
3165000000.0,22.35,-0.1125608079734744,-0.01622018499968716,-0.0010539843197368412,-0.23956179838451797,-0.20375560576615606,9.744763807381638
3170000000.0,22.35,-0.08794412106091959,0.008027594326986168,0.001405352478480885,-0.49854586248305865,0.04552172496611728,9.676779399545193
3175000000.0,22.35,-0.05763234321398724,-0.006559154919470286,0.002129301687433,-0.3845500265419003,0.5635877685399777,9.690809055035091
3180000000.0,22.35,-0.06566015888188609,-0.02697449980050201,-0.0005962312863517978,-0.01098460575724608,0.23072613504986128,9.784494617676847
3185000000.0,22.35,-0.09711068371519214,0.004955533769891045,0.0005536452947633116,0.02609348643353486,-0.31225483645694835,9.788908190675981
3190000000.0,22.35,-0.0819834173682985,0.051067884700157606,0.004109572430388992,-0.5258209569538097,0.0741690526491906,9.904569763162298
3195000000.0,22.35,-0.03639243644368656,0.01535470655804104,0.0014265917200535698,-0.6744359485239595,0.6894497788339978,9.854928434701083
3200000000.0,22.35,-0.06285326943793476,-0.038142648189385925,-0.0010646508437165,-0.21974020847420211,0.2727116600716166,9.723671502750715
3205000000.0,22.35,-0.12347696533165621,-0.013865006828865607,0.00019165066420468346,-0.032471660279516604,-0.3648364523844645,9.808039245065592
3210000000.0,22.35,-0.11027929682731118,0.0127758101245984,0.0004471465876530298,-0.5807576115358761,-0.1485192225232922,9.97382793525598
3215000000.0,22.35,-0.049399922667389566,-0.012722164206227921,0.0,-0.50422900419859,0.4742192717460928,9.795184214756741
3220000000.0,22.35,-0.053993865715010275,-0.020619190703813982,-0.0005962112602692271,0.08044481450864815,0.3731682720539827,9.641268312723183
3225000000.0,22.35,-0.10812435985352419,0.012892160161081412,-0.0004790860813443944,0.004901867912218694,-0.3109816354899164,9.749179002268091
3230000000.0,22.35,-0.09872240867221732,0.041079910039964335,0.001149836528949968,-0.5654525407657255,-0.19266312993453127,9.777430298089003
3235000000.0,22.35,-0.04828601301696489,0.021969192576043274,0.0026935734540109156,-0.7332959291001593,0.5503453985195541,9.75692808850798
3240000000.0,22.35,-0.060891443304504196,-0.02876406592590806,-0.00012779908093494934,-0.3323592757456928,0.3833687584211876,9.765658737066886
3245000000.0,22.35,-0.11825740148608005,-0.03042323111745458,-0.001565016218798691,-0.07867632606046325,-0.2788028472697285,9.775959489090695
3250000000.0,22.35,-0.11877804631946598,0.009590803584924722,0.002661661364432589,-0.43654948204189487,-0.20600646486836466,9.85905088378291
3255000000.0,22.35,-0.07336605738047167,0.0010540169593140289,0.0027148253436357207,-0.5588727284499273,0.27056245542772456,9.870036441306365
3260000000.0,22.35,-0.06605180839124086,-0.028124269927178272,0.0010220785541845095,-0.14479319377963196,0.23112024395580244,9.791164546713645
3265000000.0,22.35,-0.10292744415959207,-0.01086841343217887,0.00012773057065246706,0.04905,-0.25594588067925883,9.84914297811803
3270000000.0,22.35,-0.10194046253326497,0.03376579919441779,0.0003194297190571042,-0.24427312852873131,-0.2566261701453617,9.901428691873388
3275000000.0,22.35,-0.0549628151066926,0.045753606019729914,0.00367305231455049,-0.685720399484804,0.2810601259379013,9.74868590967636
3280000000.0,22.35,-0.058248245521675145,-0.003107156465505842,0.0023847902328509815,-0.5411157136860572,0.39867559675715597,9.648331709680518
3285000000.0,22.35,-0.10598227511499121,-0.03680103607079814,-0.000457806787606647,-0.1174243600491436,-0.1298887388884874,9.776647276143672
3290000000.0,22.35,-0.12403763257615905,-0.009804633144215712,0.0011711506048311694,-0.22661451473664518,-0.4194741941053419,9.88848
3295000000.0,22.35,-0.09413839762849859,0.006611349767595538,0.003822089583053696,-0.47921753997867544,0.06367259612652598,9.779881571961615
3300000000.0,22.35,-0.0671079097391819,-0.01853212176100475,0.0019163506494037127,-0.17657647458026476,0.3394220899890209,9.717787538364975
3305000000.0,22.35,-0.09120432970482693,-0.019653140947202094,0.0012456623880545215,0.11654228643472286,-0.27595960110919604,9.86287596419566
3310000000.0,22.35,-0.11148923807503289,0.03427415450991908,0.004003101127391716,-0.24447060059340597,-0.37120512799215133,9.872587864292779
3315000000.0,22.35,-0.06653724241246371,0.042639398161478055,0.0037475430176869546,-0.6972937697616377,0.2509419892565199,9.842372356101023
3320000000.0,22.35,-0.05752151538273222,-0.018999787325129445,0.0010646508437165,-0.37944680180496804,0.25976512424005127,9.762911677564917
3325000000.0,22.35,-0.11286473382424603,-0.017418112463972544,0.0006920160392868253,-0.06572842085098421,-0.2697782292067823,9.783023468762034
3330000000.0,22.35,-0.1356690065445003,0.010667822513046493,0.0007239766130651063,-0.3861250927877509,-0.41182037189350373,9.892011858725018
3335000000.0,22.35,-0.08188012198774033,0.00750568299506676,0.002129301687433,-0.6321543270920433,0.10614769803217698,9.814314327092042
3340000000.0,22.35,-0.05845707733793346,-0.014783178265281076,0.0014479110659563798,-0.305677199606772,0.23190366408903665,9.660496767758868
3345000000.0,22.35,-0.11473701262967259,-0.031152903552725774,-0.0003300488128411885,-0.03757184519171845,-0.3919124237675242,9.874846114150962
3350000000.0,22.35,-0.1273021816790775,0.0022413347812969466,-0.00010644389888429904,-0.14911551376545512,-0.5405275513042754,10.055249349302693
3355000000.0,22.35,-0.07516880723413788,0.0323401397498475,0.0027468133215269195,-0.511395104499451,-0.02010691582326915,9.869936428159164
3360000000.0,22.35,-0.05957534503714662,0.006224907247054271,0.003662384736566424,-0.39161285049712846,0.2476016589133166,9.639307305279374
3365000000.0,22.35,-0.09897401635635518,-0.024936096450020446,0.0015543760449275952,-0.11614987711129876,-0.21327345238743456,9.836194072582842
3370000000.0,22.35,-0.11909309744528916,0.0010269295659893,0.0005536326467111616,-0.16343728378647282,-0.5501420507553205,9.920262698086628
3375000000.0,22.35,-0.09240616543450542,0.034352364742555645,0.0034601508147253466,-0.5076687455511875,-0.11035889445708894,9.70944691000207
3380000000.0,22.35,-0.06630314925677033,0.007669873891394986,0.005408369285524951,-0.5532813739022138,0.21660263346932634,9.702091641311117
3385000000.0,22.35,-0.09788744711213462,-0.04753557004375855,-0.0008197740140522838,-0.176087198765272,-0.17158104222251044,9.89524909724869
3390000000.0,22.35,-0.12823233166753822,-0.024091611148571578,0.0007026909953013058,0.008434163672741635,-0.6064529489130295,9.915751734153316
3395000000.0,22.35,-0.10072489777494689,0.040197333194245094,0.003641120198889567,-0.36326713558347135,-0.33952020931570204,9.864836515180164
3400000000.0,22.35,-0.06391399304418009,0.021515960080903587,0.004258567538718402,-0.6239135564859355,0.11772,9.719748594368285
3405000000.0,22.35,-0.07829373497317967,-0.03403308363811139,-0.00020229083807573003,-0.2627092867544929,-0.03512522331925226,9.835115187312953
3410000000.0,22.35,-0.12029014331269369,-0.02377363039175115,-0.0001064291428234396,-0.008438388349283885,-0.6690413376484134,10.009927203883572
3415000000.0,22.35,-0.10599627782190678,0.043511443430331295,0.0046205990594290905,-0.3306992789334928,-0.46351752507917526,9.87415487937345
3420000000.0,22.35,-0.062466060898136694,0.03413735772218036,0.00553614834037734,-0.7745946771065467,0.13773200142362002,9.60242199430552
3425000000.0,22.35,-0.07547108106268814,-0.03962514055045089,0.0005855363042547684,-0.3472710728333107,-0.013248090329580908,9.832564463583346
3430000000.0,22.35,-0.1288925652597812,-0.03897456407432067,-0.0018311849902527553,-0.0051023992254239925,-0.6037081328599814,10.000901867140017
3435000000.0,22.35,-0.12210811552909123,0.011937128101962582,0.0006920592534650299,-0.19011953473959534,-0.6097850629887506,9.862186798052868
3440000000.0,22.35,-0.07529970723041572,0.02373555477849733,0.004939958160195038,-0.39907006500340064,-0.03884813454298135,9.584371670446817
3445000000.0,22.35,-0.06990143991995253,-0.007550432442887028,0.0018950639776354845,-0.27497249329522494,-0.14891834276968344,9.812060836064909
3450000000.0,22.35,-0.11026121185789169,-0.0219472679551857,0.00010647235700163615,-0.04316426804844268,-0.48559533506055336,9.904175731951556
3455000000.0,22.35,-0.11102427637763028,0.014770162210105731,0.0014479542801345766,-0.11291571725995717,-0.5111976907061769,9.855615493361555
3460000000.0,22.35,-0.06987596546429452,0.054500879611275775,0.005238074857375299,-0.49167982104759816,-0.3048931870476319,9.724849468825395
3465000000.0,22.35,-0.06766301298113689,0.025767085398608728,0.003811406195004464,-0.8216834462890344,-0.08348262887572629,9.776058880676288
3470000000.0,22.35,-0.10473003907461945,-0.05805960775481111,-0.0020015289566067,-0.48558994495599944,-0.05494004403520044,9.976181332599413
3475000000.0,22.35,-0.12777569383986606,-0.07915275713712361,5.3239867516028444e-05,0.20257602751606027,-0.6327483748852837,9.95469581255736
3480000000.0,22.35,-0.14483542454099604,-0.0022553184988554713,0.0010646508437165,0.11222207393122073,-1.0739945415260452,9.727204546327545
3485000000.0,22.35,-0.09069522979573091,0.044631811172727895,0.0010646508437165,-0.48255207231752073,-0.4644997769430978,9.866703559990535
3490000000.0,22.35,-0.02712398216985683,0.006856862472897963,0.0010433504698918361,-0.22111584085155842,0.056897322109373226,10.107044359593743
3495000000.0,22.35,-0.051852306077986625,0.029838330792510543,3.196162778262783e-05,-0.005301065853810658,-0.04532640894326409,9.759084810162548
3500000000.0,22.35,-0.12250468970960357,0.03089198075096719,0.0031939451531191793,-0.5297408157996082,-0.647459796050098,9.57456190353242
3505000000.0,22.35,-0.1267207070928813,-0.018680781022080453,0.002139940807299702,-0.6462836169650362,-0.618324095758741,9.846495106251751
3510000000.0,22.35,-0.0777079936046039,-0.03483164686870835,4.2571235527644625e-05,-0.407113295561533,-0.3103862183187622,9.954992549952927
3515000000.0,22.35,-0.09632887645820705,-0.022758306398498636,0.0,-0.11673695176026955,-0.31362576827465766,9.766834634506846
3520000000.0,22.35,-0.11126135316044522,-0.009071426736045501,0.0010220722301584346,-0.07023932651289326,-0.4834380306919803,9.695026321397563
3525000000.0,22.35,-0.10983530029579387,-0.01763661908979366,0.0010646508437165,-0.1339069792822698,-0.7700870540668706,9.887990937846808
3530000000.0,22.35,-0.09570153457482741,-0.008092319075101965,6.387160935230848e-05,-0.02668237720782378,-0.7202497200378972,10.01816909135819
3535000000.0,22.35,-0.06211567298071295,0.04406680975868257,0.0029703982094013027,-0.1473471612838716,-0.4515523087691231,9.92546294470553
3540000000.0,22.35,-0.04790151897032626,0.06655443308511395,0.004173438769719548,-0.5811476317318764,-0.1067303246309032,9.728379356034694
3545000000.0,22.35,-0.0798359775101446,-0.0035533454642925483,0.0023209238935203553,-0.6626658442868586,-0.25702337714743373,9.783317350858974
3550000000.0,22.35,-0.12431314321275407,-0.06529493944727696,-0.000745278040894116,-0.2609428280934283,-0.6013555513161556,9.984619516998796
3555000000.0,22.35,-0.13173520549441706,-0.046714764194009245,-0.00011710409883791619,-0.023738680864586803,-0.9257719787031198,9.953814185690343
3560000000.0,22.35,-0.10302725111406205,0.003192233484619049,0.0,-0.09496156063601562,-0.6851281872406818,9.74878400957924
3565000000.0,22.35,-0.052737016401289374,0.026269609564657497,0.002778761247253109,-0.1932576924584769,-0.40848646111626463,9.789988153966782
3570000000.0,22.35,-0.05405535812553641,0.026931811570491977,0.0031939525311496,-0.1722633226281332,-0.3305966532851665,9.935176709487468
3575000000.0,22.35,-0.07984552621931862,0.017584116852532083,0.0013840310245693194,-0.2584942638409426,-0.3487457083202571,9.882102875039228
3580000000.0,22.35,-0.10474366529463842,-0.014448790513959635,0.0001703365883235239,-0.30764187814881877,-0.6662978424137784,9.761733896016338
3585000000.0,22.35,-0.10954786698666283,-0.017594816050646552,0.0008836677574958545,-0.22435393402243936,-0.8725026534178265,9.871607914149179
3590000000.0,22.35,-0.09400015557617783,-0.004815257333673951,0.0010646508437165,-0.22209853946288538,-0.7496788751025888,10.051131124897411
3595000000.0,22.35,-0.054313804310821265,0.019444204646283415,0.0019270256054181114,-0.2097376603428766,-0.47774490514314905,9.893971924114519
3600000000.0,22.35,-0.0509252624476782,0.0424046789963183,0.0038327582150420596,-0.3943636782163368,-0.264868601486386,9.700126671412066
3605000000.0,22.35,-0.0909063473845614,-0.0019307751654027358,0.002576439843051284,-0.5654495203647952,-0.45812910068399104,9.779099550341996
3610000000.0,22.35,-0.12778173229987835,-0.06975468057946456,-0.0011924393846079874,-0.28468332508333327,-0.8183529346768293,9.940081792038619
3615000000.0,22.35,-0.12298363877038308,-0.05569859249064361,-0.0004897241472067494,0.07573572781335733,-0.9931652426044525,9.969216229782962
3620000000.0,22.35,-0.07639963798405575,0.027614603844961005,0.004854853633296174,-0.021976087539760852,-0.7891142202611422,9.802935253088553
3625000000.0,22.35,-0.03249337684553614,0.07350911885902434,0.005589409287980318,-0.41692823891868236,-0.39239690190386906,9.706994577532345
3630000000.0,22.35,-0.02867791522194161,0.049426021819328175,0.00295970638931727,-0.6168536461007365,-0.19011688339086885,9.822950469151104
3635000000.0,22.35,-0.07599557097304264,-0.008312765103476998,0.0005748961303837217,-0.5901690351558904,-0.37896248877092487,9.89034411181654
3640000000.0,22.35,-0.1356292679888489,-0.07388725221405977,-0.0015331125612550352,-0.40652477383944774,-0.8001069937263698,9.891226729297367
3645000000.0,22.35,-0.152332337114065,-0.10931939046461951,-0.0036411212528938627,0.08849058958460593,-1.2105568319900684,9.902410341599502
3650000000.0,22.35,-0.08298619933187111,-0.04005103035859012,-0.0012775502355329318,0.5326857649779577,-0.9191928170846282,9.894365858206259
3655000000.0,22.35,-0.04444000442948626,0.0741380790364863,0.004407700721617055,0.2954735083125351,-0.8335566229218663,9.786945435090153
3660000000.0,22.35,-0.014399386582948228,0.13469638882028304,0.007111875351338231,-0.48305101147311014,-0.4661668634423686,9.774684355455545
3665000000.0,22.35,-0.011414204804919873,0.09455003759162128,0.006025908323731881,-1.1364924153525242,-0.07092409316494089,9.76408891524709
3670000000.0,22.35,-0.06871105154140769,-0.02426494577450239,0.0018098677523586265,-1.0490784773007849,-0.22308218012852177,9.835310726709507
3675000000.0,22.35,-0.1484993105598837,-0.11675516916142754,-0.0013840615906953336,-0.5042294315221942,-1.0609594234536943,9.859540285852603
3680000000.0,22.35,-0.1720670697299114,-0.13720308611154583,-0.0014479173899824547,0.41242033423390334,-1.3353359848470598,9.943417072193771
3685000000.0,22.35,-0.08682847605281524,-0.06683222766273252,-0.00039391304416307627,0.9156666883806669,-1.0033636506250365,9.99639
3690000000.0,22.35,-0.0390049749679717,0.06253270718256884,0.004620639111594239,0.5795700695277006,-0.8679890866952908,9.75309913304709
3695000000.0,22.35,-0.0062772028821853,0.15032438424287314,0.00680311110225652,-0.3247188948035889,-0.5597547243691472,9.765562637815426
3700000000.0,22.35,-0.002981240752106755,0.11462904006163287,0.0031939135329887847,-1.0516357371391574,-0.30018535318745354,9.95126500615285
3705000000.0,22.35,-0.046333297351524375,0.022655272428296958,0.00043649903575156243,-1.1862243364178433,-0.2301421682089217,9.83834881300979
3710000000.0,22.35,-0.11328081733146068,-0.07546112435015966,-0.0024700212402713217,-0.8932955013211551,-0.6270605326101053,9.772918848560689
3715000000.0,22.35,-0.15809155680029774,-0.13267155003920567,-0.0024380269383539595,-0.32470594884075943,-1.3792917727534177,9.83795886079709
3720000000.0,22.35,-0.12072101978818067,-0.10337114486146341,-0.0010646508437165,0.3661144024706441,-1.2058384801420847,9.815100621947707
3725000000.0,22.35,-0.0513488919348585,-0.01443134981765555,0.0006920466054128539,0.5420006911586069,-0.8691668682438687,9.915459308841394
3730000000.0,22.35,-0.03370313179366995,0.06236136450390024,0.002704221005912384,0.3945576928445769,-0.8320829683368296,9.967547803041477
3735000000.0,22.35,-0.03363901670931377,0.09412500290930287,0.0015011340694029223,-0.2141603528162036,-0.7761674901915749,10.032296196053661
3740000000.0,22.35,-0.03383086658033984,0.05914303962550562,0.001660878968055312,-0.802459089675191,-0.5650527309744273,9.96538800271458
3745000000.0,22.35,-0.04971374368374733,-0.006942283339330682,0.0015650130567856535,-0.7229948177360482,-0.47323614581116147,9.81
3750000000.0,22.35,-0.08788648952014849,-0.04527400693200802,-0.0005323333268908437,-0.48068854321498544,-0.8779992975157929,9.863955801231757
3755000000.0,22.35,-0.11457297183393053,-0.057504774960003995,-0.0005429640147227778,-0.2864505412726054,-1.1625830270636304,9.94194486468185
3760000000.0,22.35,-0.08271209746711747,-0.03659921333160321,0.0,-0.0780859202297592,-0.9786428247274284,9.872782539330226
3765000000.0,22.35,-0.04662639940704489,0.002244208048979901,0.0,0.08995850443668504,-0.7986323193918233,9.738484588085745
3770000000.0,22.35,-0.043008078203372116,0.03486111185393469,0.0004897473353023575,-0.02433158265361582,-0.8413060393663605,9.765267425188174
3775000000.0,22.35,-0.04425368789120936,0.043198477073267946,0.0010646508437165,-0.3624817730702177,-0.7980422534776226,9.852673719974538
3780000000.0,22.35,-0.04601808916177494,0.015425654977195075,0.0005961965042083856,-0.52974,-0.7192694202658941,9.851594106312142
3785000000.0,22.35,-0.05724938654499891,-0.011591033887226055,0.0009156156832219857,-0.47911951777099515,-0.7652786146335862,9.850711867595418
3790000000.0,22.35,-0.0789117633458632,-0.03786277039809597,0.0007878176562913862,-0.31313343321113435,-1.026914775274948,9.944594377859243
3795000000.0,22.35,-0.08151206246066697,-0.04499831424640014,-0.0001916211520830005,-0.07602565716695657,-1.1531621829005219,10.015519131433392
3800000000.0,22.35,-0.05368613540963429,-0.004474687501289126,0.0006387824957968717,0.005884819032948185,-0.9005581476208815,9.994428147620882
3805000000.0,22.35,-0.038760105516337906,0.022790342860589806,0.0,-0.09211597390755974,-0.8702442870168429,9.914376626218568
3810000000.0,22.35,-0.0373866577494049,0.023035196502158416,0.0020228767606270018,-0.19502472412164723,-0.8305151180327512,9.815494488056144
3815000000.0,22.35,-0.03881988439225785,0.01724758805553035,0.003353609947441308,-0.3640493223053932,-0.9130175151197751,9.924777741017976
3820000000.0,22.35,-0.04764610842122992,0.008133924393401121,0.00038328235633114204,-0.3896533483978335,-0.9068348418227484,9.958326606408665
3825000000.0,22.35,-0.046766921460831994,0.001117746312637142,-0.0011711643068876927,-0.41937787148017874,-0.7578221285198213,9.853162811263427
3830000000.0,22.35,-0.04948721914319495,-0.01861620862078955,-0.004961264858045767,-0.36453766577797664,-0.8393461293672613,9.734462628034226
3835000000.0,22.35,-0.06460602067751475,-0.023540234693195793,-0.0010965176111080036,-0.19296262550972626,-1.0627173744902738,9.763600115315201
3840000000.0,22.35,-0.05964956627802451,-0.0038327835111463433,0.0032790760301267007,-0.1926685491747855,-1.0284794303638944,9.910454922111748
3845000000.0,22.35,-0.0365880881947818,-0.0034919575038691647,-0.0007346009768709656,-0.1664747291013473,-0.9235129518929296,9.884161807571719
3850000000.0,22.35,-0.028443703862252707,0.01459118803888945,0.0009582101068452683,-0.1520568695407687,-0.9093876730346767,9.754083822597938
3855000000.0,22.35,-0.03855231830478006,0.0281828417434984,0.0022676819179956974,-0.369249598059996,-0.9398952763337528,9.880829547817497
3860000000.0,22.35,-0.0453841047874991,0.000165229246117643,-0.0008943311194625371,-0.43948687536196873,-0.8742674999034751,10.00894687497587
3865000000.0,22.35,-0.04298086809629548,-0.019293510517506097,-0.0023315609053784284,-0.31764734956207347,-0.9687393768246938,9.970980823759207
3870000000.0,22.35,-0.050201352236886855,-0.013010008836235194,0.0002768173773599266,-0.25682527380925274,-1.1324659489793596,9.884949452381495
3875000000.0,22.35,-0.05166586399224128,-0.007718628763074444,0.0007984799642536948,-0.21582030106890301,-1.0325007688538077,9.993937725801677
3880000000.0,22.35,-0.026676277702887215,0.0013201752252821836,0.0,-0.22170524635655248,-0.8774068521860685,9.978338394170484
3885000000.0,22.35,-0.027357817992980954,0.004578080524118712,0.000244877883668562,-0.18550838284488383,-0.9356782527687825,9.834229869923899
3890000000.0,22.35,-0.0376634087244911,0.010199264881112467,0.002001576386802306,-0.3182365511171655,-0.9486258666212587,9.764089653351496
3895000000.0,22.35,-0.028592714780647295,-0.0011711980350267521,0.004205329779211064,-0.3005771895087719,-0.8441508782785089,9.799699121721492
3900000000.0,22.35,-0.034512239283742564,-0.007878350473631161,0.0004258767799543948,-0.17265584849435847,-0.8868241515056415,9.73544301521333
3905000000.0,22.35,-0.04554527255746084,-0.006529848190404652,0.002129301687433,-0.16441590339975903,-0.9453914445486145,9.648331806799517
3910000000.0,22.35,-0.046897604332214626,-0.028486159157302286,0.0017460108990670913,-0.12379908617059088,-1.1281500000000002,9.736622263258823
3915000000.0,22.35,-0.034746248274597054,-0.01567222745794907,0.0,0.1759900312048003,-1.1281500000000002,9.874256640662667
3920000000.0,22.35,-0.020839156762800157,0.022846640999469665,0.00017035239838871123,-0.020799636521496367,-1.1265803238587033,10.008947409130375
3925000000.0,22.35,-0.009102574413291717,0.0531077428703753,0.0013840626446996944,-0.3448246257750463,-1.0668348316554481,10.082227881192079
3930000000.0,22.35,0.009624327644559276,0.045937415824654715,0.0028958337259606497,-0.6880734763355348,-0.7804839053421391,10.12392
3935000000.0,22.35,-0.006379718403200128,0.0037131384151757856,0.0009262379390191533,-0.6824808592408086,-0.8206068821632689,10.098412471346926
3940000000.0,22.35,-0.031022396337214996,-0.024251192054515012,0.00025553281360045013,-0.5732954051129541,-0.9068392316015924,9.925365446940456
3945000000.0,22.35,-0.05598235000281554,-0.04815729104291326,0.0013094623251112534,-0.396319402386494,-1.20790399734284,9.903783293492433
3950000000.0,22.35,-0.05517989637306303,-0.06178074825737421,-0.00479088716355277,0.14911368792823687,-1.055555693103957,9.85512492586385
3955000000.0,22.35,-0.006185696436562471,-0.008568409814325696,0.00019165382621772086,0.3212755794717558,-1.027303814569038,9.711211533114016
3960000000.0,22.35,-0.01405330765991408,0.045841530526616624,0.0024700233482799717,0.05964103100581032,-1.0845922154715222,9.520017784528479
3965000000.0,22.35,-0.003438730284405288,0.05598079401594093,0.005940701558411482,-0.3942652092612521,-0.907030905661909,9.69208487821515
3970000000.0,22.35,0.006813681711840725,0.019967787024338695,6.38874194174958e-05,-0.5405298433126985,-0.7169161880247619,9.820398677112488
3975000000.0,22.35,-0.006017466975713816,-0.002236823919156914,0.0010114099221961257,-0.4036817316288173,-0.9103723237379233,9.835997503724876
3980000000.0,22.35,-0.05880276709146129,-0.025271122323218882,0.0,-0.4249678857856789,-1.4153834758108348,9.963037159600871
3985000000.0,22.35,-0.03719423460368732,-0.043540346181993574,-6.389585145226236e-05,-0.2477961105770611,-1.0142569062499691,10.106360641826907
3990000000.0,22.35,-0.0002982199896061449,-0.0379816404380184,-0.00202279454828795,0.30096955998459557,-1.1403153300115534,10.16806306247593
3995000000.0,22.35,-0.01483052730250828,0.03221287159336391,0.003183297601217711,0.14125934411509344,-1.2546000464211005,9.928996308775064
4000000000.0,22.35,-0.00745224378249926,0.05752572315814703,0.0021293101194677666,-0.44145062156160625,-1.147765882154359,10.055249766914397
4005000000.0,22.35,0.031563195772586615,0.016402274911422203,0.003183314465287244,-0.5191458223385582,-0.6330351770070518,10.026114066623041
4010000000.0,22.35,0.018393216964574306,0.006579815063409241,6.385369127843163e-05,-0.260355296985153,-0.8778008251254082,9.968136732663368
4015000000.0,22.35,-0.02838973222198172,0.005355185280239298,0.001032719782059902,-0.5119860056370601,-1.1588575616101755,9.757612884295728
4020000000.0,22.35,-0.019606944074954814,-0.012051991612185141,4.257755955371957e-05,-0.6141067808367678,-0.8566066232386662,9.769975356167352
4025000000.0,22.35,-0.006016039490975638,-0.056300323467999375,-0.00404570714506273,-0.18932940368339402,-1.0393711417967115,9.798718734542389
4030000000.0,22.35,-0.02435448593182117,-0.024547766950682504,-0.0002554822213918567,0.12831730489327306,-1.2802069569478696,9.76330408688834
4035000000.0,22.35,-0.009710701192690498,0.003384589243173631,0.0019802675809428316,0.07416297299972974,-1.0212186487489865,9.916047432375574
4040000000.0,22.35,0.02186295648880261,0.016113671605631083,0.0031087889800073864,-0.039633341665833405,-0.9193924937506249,9.82844193680632
4045000000.0,22.35,0.008018246552509451,0.030615637917465473,-0.0006814106475591815,-0.11154024998490251,-1.0640920356776205,9.810882821430729
4050000000.0,22.35,0.0006387392816187137,0.034831561494356345,0.0018099320466236533,-0.5150285399875855,-1.0879290786663909,10.004239730660597
4055000000.0,22.35,0.010423025787712582,-0.0008714187928604081,0.00023420608966714072,-0.5417080424729805,-0.9579453185473532,9.982165106182451
4060000000.0,22.35,0.020158630027475567,-0.0025125503156251,0.0,-0.34099378620553783,-0.8467983325330835,9.821378180508683
4065000000.0,22.35,0.005548954009373792,0.008059501146542813,0.003705019212354833,-0.44194168436621684,-1.0301499160281993,9.766050884169008
4070000000.0,22.35,-0.014217615239707038,-0.01698579322932375,0.001511778459291319,-0.4695066790548668,-0.9160564560672646,9.777823358109734
4075000000.0,22.35,-0.002557642435809103,-0.03578985908356239,0.00015968903642205653,-0.2624155212003552,-0.9677572123678722,9.755554262544042
4080000000.0,22.35,-0.014323705857069133,-0.04281646021330218,-0.0008943153093973219,0.11222964921329648,-1.219973898224039,9.792342396245525
4085000000.0,22.35,-0.0073170234915229965,-0.011841574296930654,-0.0019483196552167003,0.2824309315009093,-1.192208585883986,9.90604093150091
4090000000.0,22.35,0.024373816285129704,0.03485008404836706,0.0013627875669793153,0.07082589614305893,-1.1208900438966005,9.975985676660057
4095000000.0,22.35,0.03865371010165354,0.0635169189545901,0.002991677503139038,-0.19492684759246848,-1.0131758455144584,10.066041795404619
4100000000.0,22.35,0.041325914671557336,0.06050699672261866,0.002342223213340684,-0.7004386189796863,-0.9672657610872576,10.108224238912742
4105000000.0,22.35,0.03481017363817105,0.019032233967698778,0.002129301687433,-0.930479696020497,-0.6668807700814077,9.943610445836605
4110000000.0,22.35,0.013907980331199363,-0.045488381601612185,-0.0011924436006253707,-0.7394754848772549,-0.7645932361318325,9.944201278990914
4115000000.0,22.35,-0.03987727122808937,-0.10091658441352944,-0.0013095118633155288,-0.2387707641216077,-1.5318390932490908,10.002472679573627
4120000000.0,22.35,-0.010611830709298636,-0.07486653698229093,-0.0010646508437165,0.5034557621366575,-1.1944596780717966,9.911630479635205
4125000000.0,22.35,0.04953294879777802,0.01065167217724311,0.001330839641253184,0.6008614583987146,-1.0570279006158791,9.886027580123175
4130000000.0,22.35,0.05552440408663516,0.1021569559589493,0.005280703009137574,0.16244910766349102,-1.1564037626435375,9.743290395594103
4135000000.0,22.35,0.06619246691267261,0.12958463189127667,0.004056293564712172,-0.9185208215812083,-0.9435230692079306,9.856991747300517
4140000000.0,22.35,0.08287743964720895,0.055861548612241296,0.0008942805272539379,-1.4350087299487875,-0.1965849214484492,9.677758465905884
4145000000.0,22.35,0.03591461622156145,-0.05429830306890729,-0.003023643346939038,-0.9576459200911592,-0.28243384507093844,9.598300361023304
4150000000.0,22.35,-0.061148503093941625,-0.12389611656171623,-0.0012775460195155485,-0.26878851860358516,-1.9600560563646607,9.679527886696478
4155000000.0,22.35,-0.06948720245815275,-0.10867849183911386,0.0,0.16824432470614326,-1.5226951256458512,10.03681107388271
4160000000.0,22.35,0.04716845500825169,-0.02309751685901633,-0.0014479426860867545,0.7683251794226518,-1.1367840928481407,10.329539377666194
4165000000.0,22.35,0.07267084807087096,0.11342375538783232,0.0021506473834446006,0.5996803650922036,-1.1278549718988495,9.846486404389264
4170000000.0,22.35,0.09587696067367678,0.19076831222475113,0.007771995111111902,-0.9898464144080643,-0.7749859501376595,9.865920644876105
4175000000.0,22.35,0.08420739435678073,0.06328122428249028,0.003353570949280491,-1.8217184596985847,-0.2128719721493197,9.945867607961976
4180000000.0,22.35,0.02317878688354763,-0.1034559131264184,-0.0040883121087294735,-0.9543047836602478,-0.33903798434017984,9.876707594042575
4185000000.0,22.35,-0.077966775015107,-0.1652044561773336,-0.0057171662087414305,-0.08553864783818643,-2.019211890553519,9.95793610061766
4190000000.0,22.35,-0.03994983099526429,-0.08564739342680333,-0.0033429771516006322,0.805017796586678,-1.355132809412128,9.797047870113978
4195000000.0,22.35,0.08863324463582135,0.04300612252422661,0.0011179276013846928,0.6517685776471859,-0.9625646964214469,9.938122348210724
4200000000.0,22.35,0.11995622258897001,0.14658049374765592,0.00447155125088247,0.031388492061684925,-0.8730838815029388,9.702084289402743
4205000000.0,22.35,0.09565434642013237,0.15934455853162988,0.006579559942521267,-1.0576290866556908,-0.5556380732916808,9.988844222676743
4210000000.0,22.35,0.06573088326464092,0.017325826227921476,0.003130011357510451,-1.6459210640322106,-0.3062648472578485,10.100175793064258
4215000000.0,22.35,0.007563460040273966,-0.1305804363115224,-0.0036411591970503553,-0.8259905380155054,-0.7188853146170532,9.792046144444962
4220000000.0,22.35,-0.06327783961535433,-0.14142773741461914,-0.004003051589187413,0.028256734484967322,-1.76188501652805,9.805292593463426
4225000000.0,22.35,-0.006444173153415875,-0.05400826904724987,-0.0015437348170522028,0.17608859727888598,-1.211519407544394,9.84090092554111
4230000000.0,22.35,0.08396040526784991,0.019237366919853664,-0.0004897304712328243,0.22288467892814678,-0.5634893578562936,9.64577805295708
4235000000.0,22.35,0.09335825269187568,0.07391263854804297,0.0005642738745865541,0.0961347096082471,-0.7623356758185568,9.537086293558763
4240000000.0,22.35,0.05633244425043822,0.07886960346576927,0.0021719055970954174,-0.5065951532668516,-1.0394715531318155,9.886130788485508
4245000000.0,22.35,0.046711607312763415,0.02173544423527988,-6.393274160436781e-05,-0.9427418245403182,-0.8051972142290722,10.052697256195172
4250000000.0,22.35,0.0697696174798057,-0.027698680130144808,-0.0026616181502543603,-0.7357457073401571,-0.4414513208184132,9.814903101323532
4255000000.0,22.35,0.02758289939423878,-0.05416189899282053,-0.001607613804434932,-0.34128750320017504,-1.0294701607166017,9.69247603470346
4260000000.0,22.35,-0.0213104701668507,-0.06898180298552739,-0.0015756922288174464,0.03453525452405257,-1.39968798665678,9.908496371778664
4265000000.0,22.35,0.03326538531785701,-0.049596379159442205,-0.002629696574636872,0.41820270243272706,-1.0787049490397496,10.15335
4270000000.0,22.35,0.08206479818423736,0.03169962459185742,-0.0002554621953092884,0.4020107312338074,-0.9619695123358951,9.936741218897913
4275000000.0,22.35,0.08053061682801808,0.10130867145563897,0.005589461988197599,-0.39878787603417887,-0.8304129294199293,9.779590826808407
4280000000.0,22.35,0.08944030035956538,0.05326282958818198,0.004769563601632486,-1.0688962698581628,-0.4387001240470012,9.89829
4285000000.0,22.35,0.0588269538302689,-0.049709631822727876,-0.002289044478076779,-0.5844719762875198,-0.5476003590928036,9.944692215540822
4290000000.0,22.35,0.005389410028140026,-0.06632243530733882,-0.0026402798322733134,-0.10418311660913117,-1.286882382920124,9.936155183422253
4295000000.0,22.35,0.007734158463105767,-0.022868052130144364,0.0010646508437165,-0.23514711822877118,-1.2979520066508201,9.742897597794675
4300000000.0,22.35,0.07968513333261742,0.000425914724110884,0.0006387814417925259,-0.2001211602404116,-0.5925224130755242,9.74525700680427
4305000000.0,22.35,0.0936493736511951,0.012569868388256385,0.0,0.015303934477839344,-0.6107734430616345,9.903586229327562
4310000000.0,22.35,0.05447409131328261,0.023141615104938403,0.00040457640612973094,-0.1583378369786784,-0.9708011160963113,9.808626348850265
4315000000.0,22.35,0.03959735595916948,0.009720392814486582,0.0002767910272512812,-0.48431978381369784,-1.0556501607562017,9.855716108646561
4320000000.0,22.35,0.07363001104948114,-0.004088204600286201,-0.0006813674333810121,-0.44105642524856425,-0.7122047413377475,9.981086735643268
4325000000.0,22.35,0.07254866355013488,-0.007086210138172478,0.0,-0.3188241599206416,-0.6695337601190376,9.937528319841284
4330000000.0,22.35,0.04393504532333224,-0.02458970429762931,0.0,-0.22504064305450644,-0.8685800072567001,9.79665806357978
4335000000.0,22.35,0.04006488661073794,-0.02352958396200256,0.0,-0.12468400537174006,-1.0725273842021739,9.819320763032607
4340000000.0,22.35,0.05935744372083762,0.011765345713415594,0.0003406974187470017,-0.11458282318302822,-1.0068964611162647,9.927327852897879
4345000000.0,22.35,0.08314720025812851,0.043169074827218344,0.0013947017645663802,-0.3476684255138842,-0.6649165674224656,9.910845787243058
4350000000.0,22.35,0.09650956126119783,0.01842489959222296,-0.00010652927323637033,-0.44831522563585224,-0.37768880220888806,9.820790746519409
4355000000.0,22.35,0.06733834829895434,-0.023716525991382992,-0.004396980443415731,-0.2699701849122018,-0.8488641216670413,9.78596507704675
4360000000.0,22.35,0.030849806062976194,-0.009934827164926927,-0.0009368559787989378,-0.27703719469637195,-1.1689572287424723,9.825305886569758
4365000000.0,22.35,0.05318543788495311,0.007803697453825509,0.001841836758171606,-0.5048224304302243,-0.7937214194125142,10.002766076075561
4370000000.0,22.35,0.09657352246091955,-0.015719023972275203,0.0005110139809879551,-0.36296575589965757,-0.40064328598823284,9.87768602912976
4375000000.0,22.35,0.0740363316600156,-0.02556434116587674,-0.000798478910249349,0.01226292489562925,-0.8264987034761871,9.657946189707761
4380000000.0,22.35,0.03460175093110777,0.012780229893116911,0.0007665763067101121,-0.0757377090409771,-1.2623471417214716,9.850420432897304
4385000000.0,22.35,0.07165192425536598,0.029593324320311854,0.002704194655803761,-0.4663672296532723,-0.7883258082112581,10.102140607572906
4390000000.0,22.35,0.1175819390861283,0.013896493843674905,0.0008304184039407136,-0.39082801242648013,-0.31352913486869133,9.938116297696963
4395000000.0,22.35,0.08558912227818187,-0.003524096204381896,0.0,-0.1992420390436204,-0.591352604996926,9.756242224411222
4400000000.0,22.35,0.03280878275613357,-0.012349931236635314,-0.0006388183319446496,-0.3080350255766503,-1.0987191453527914,9.882595452900254
4405000000.0,22.35,0.051404636997917016,-0.0068029424615612556,-0.0021824878007274725,-0.3835701443816015,-0.9214487652224876,9.9973701443816
4410000000.0,22.35,0.09704200525854505,0.007473746663388445,0.0017460087910583996,-0.2970464573641646,-0.50031,9.90201702906937
4415000000.0,22.35,0.08760601746047378,-0.0061142678061169315,-0.00018099995029017857,-0.23818542790275427,-0.5520113584384136,9.831287785756079
4420000000.0,22.35,0.06301965981670885,-0.020626030742770633,-0.0008942973913234429,-0.09692219902762199,-0.8358137170639373,9.851987486825575
4425000000.0,22.35,0.06758983530823397,0.013154131282473858,0.0007985347724797075,-0.09957502396295023,-0.9343986322357863,9.907608898347789
4430000000.0,22.35,0.0908033472116138,0.04947190026131155,0.004428891478989789,-0.46617274885382753,-0.5220858767192588,9.828637709288477
4435000000.0,22.35,0.10171561652055147,-0.0056772413880597965,-0.001341478761119898,-0.5504345343386454,-0.33256158433661587,9.711017703011876
4440000000.0,22.35,0.07223117039991499,-0.039833019512223046,-0.0031939525311496,-0.08514985134159853,-0.6674781781920818,9.80843315973353
4445000000.0,22.35,0.0418709947468738,-0.0059703120826312996,-0.002842589642427241,-0.05602036666630367,-1.198385801093158,10.066333832240538
4450000000.0,22.35,0.06828308885229536,0.03749115485042625,0.00042589786004132115,-0.5895810864359109,-0.7259322207680223,9.901231530589515
4455000000.0,22.35,0.12446182141135052,0.005949367098337574,0.003491979637960432,-0.5445478214851782,0.0174567810842678,9.75732090573121
4460000000.0,22.35,0.0957397831657453,-0.038130181011293354,-0.003917877498001753,0.0007848866301488663,-0.5678102501928025,9.825304206411042
4465000000.0,22.35,0.034662620701525676,0.004047271581250863,0.0,-0.04101221781782218,-1.3034495830911959,9.891913933636339
4470000000.0,22.35,0.060999577619014055,0.040536555335204436,0.0,-0.7037675766878758,-0.7157303067515032,9.936941313175614
4475000000.0,22.35,0.1308619523538622,-0.010008854883695417,-0.00010648395104944016,-0.4797036108666361,0.02942478470964785,9.919870609255907
4480000000.0,22.35,0.10465836556959053,-0.036214411498416914,-0.002044110732177803,0.09221269472062696,-0.5548591691919916,9.77076
4485000000.0,22.35,0.0350772224168601,0.015225125363102356,3.1948979730477e-05,-0.06818516252335163,-1.1419774828655749,9.776942129430621
4490000000.0,22.35,0.06832284964571053,0.024737578308188686,0.0010433483618831445,-0.6825779685298797,-0.627050490505405,9.973236830168469
4495000000.0,22.35,0.1274760922579077,-0.016179023659120217,-1.0655983936233915e-05,-0.4758788218108882,-0.11262299087912991,9.799993625380036
4500000000.0,22.35,0.09267648969584727,-0.035150617940366155,-0.001064679301833837,2.62221302622213e-07,-0.5787945451692454,9.780572447398825
4505000000.0,22.35,0.037833706193702445,-0.00035119576855788953,-0.004226692339292071,0.029135962512659624,-1.0838133502194336,10.052505650118155
4510000000.0,22.35,0.09365627762156284,0.03966506307305752,-8.513403902052526e-05,-0.49933381807363814,-0.5313045191223452,9.949497236385273
4515000000.0,22.35,0.1299357232442893,0.019819768632462674,0.0010327208360642478,-0.5672147261907473,-0.13929849206168493,9.661866369046264
4520000000.0,22.35,0.08807798942717418,-0.023779464357641528,-0.0009794978326177525,-0.21110786376807866,-0.47598444843634446,9.841393755911538
4525000000.0,22.35,0.061998229267851854,-0.01646622297928648,-0.004098934364526609,-0.17756082421460823,-0.8353247520297475,10.00767299417583
4530000000.0,22.35,0.08275360046060125,0.01406903682594816,-0.0002554780053744734,-0.28723785587777856,-0.632154288244443,9.822358752213887
4535000000.0,22.35,0.10892937936182341,0.035789912837783974,0.0029704045334273776,-0.47676776173867763,-0.1892307599141076,9.609285462087454
4540000000.0,22.35,0.09804409522506768,-0.02054169399756206,0.0002554874914135882,-0.46342413544784133,-0.3194151873129519,9.774685763681058
4545000000.0,22.35,0.06882329039074284,-0.039132859423258705,-0.004844209243407774,0.02099816718328168,-0.7620450374962504,9.906433447655234
4550000000.0,22.35,0.06795964959703428,0.026630905442171143,0.0013841132369082588,-0.1962026513487265,-0.733787292973673,9.988542707026326
4555000000.0,22.35,0.10040475516881933,0.029348536027012647,0.0011817528345457245,-0.6971033776721338,-0.1846187145245871,9.769384299639343
4560000000.0,22.35,0.11096181810171193,-0.03967692300641677,-0.0026829585762442034,-0.30645979422849795,-0.19541599715275998,9.724064222854942
4565000000.0,22.35,0.07477754843209895,-0.02213224101805433,-0.0022676966740564804,0.1900242221520422,-0.8717235162325352,9.994823237428731
4570000000.0,22.35,0.069237211426615,0.04785238619489199,0.0006175263901547325,-0.4114384125745842,-0.7687094695975947,10.001883244932932
4575000000.0,22.35,0.11994480257283438,0.029617055971144588,0.0001596879824177107,-0.7867648436443485,0.06475453093304528,9.71287797862788
4580000000.0,22.35,0.12442098344277269,-0.03186683004428717,-0.0008943163634016677,-0.23229430584664312,-0.016483201947132015,9.753495378571053
4585000000.0,22.35,0.06168344767340229,-0.02934843905861281,-0.0010646508437165,0.01255822492998225,-0.8486717386380173,9.925465392104353
4590000000.0,22.35,0.04375639333187057,0.012680950873872849,-0.00019162747610907533,-0.3871073252278733,-0.7771456144979562,9.87670710844757
4595000000.0,22.35,0.11681030981346932,0.010947810404593738,0.0017247537394206062,-0.5363133247665333,0.060732735983827335,9.716018593457486
4600000000.0,22.35,0.12399505501660532,-0.02471424054396357,-0.00042588942800654474,-0.11771508577855089,-0.13145828877508284,9.737406625446367
4605000000.0,22.35,0.07431173589400794,-0.006934241096105714,-0.00190573471763256,0.03668993667959937,-0.7138793351357934,9.836389883912599
4610000000.0,22.35,0.0709194666568079,0.040718658879880916,0.00202288519266177,-0.394759593535696,-0.6829703195819032,9.958524564068346
4615000000.0,22.35,0.11779140060950763,0.030055005023137123,0.0007345798967840723,-0.6861133720984337,0.04219106767541059,9.820396627901566
4620000000.0,22.35,0.12293042314496704,-0.027562853423815717,-0.0024274331406741617,-0.4524337899576379,-0.023154830566448376,9.688747412882474
