#timestamp [ns], temperature [degC], w_RS_S_x [rad s^-1], w_RS_S_y [rad s^-1], w_RS_S_z [rad s^-1], a_RS_S_x [m s^-2], a_RS_S_y [m s^-2], a_RS_S_z [m s^-2]
0.0,22.22,0.0,0.0,0.0,-0.2943,-0.25506,9.83943
5000000.0,22.22,0.0,0.0,0.0,-0.304011900097119,-0.245348099902881,9.82971809990288
10000000.0,22.22,0.0,0.0,0.0,-0.31372380019423796,-0.24525,9.839233800194238
15000000.0,22.22,0.0,0.0,0.0,-0.294888599417286,-0.24525,9.83943
20000000.0,22.22,0.0,0.0,0.0,-0.303717600388476,-0.226414799223048,9.848847600388476
25000000.0,22.22,0.0,0.0,0.0,-0.294790499514405,-0.24426900097119,9.81196199805762
30000000.0,22.22,0.0,0.0,0.0,-0.31274280116542796,-0.26369280116542804,9.81
35000000.0,22.22,0.0,0.0,0.0,-0.286550097960501,-0.22837679728066795,9.828246601359666
40000000.0,22.22,0.0,0.0,0.0,-0.29351520077695203,-0.24368040155390402,9.838645200776952
45000000.0,22.22,0.0,0.0,0.0,-0.27644579825185794,-0.26310420174814203,9.821575798251859
50000000.0,22.22,0.0,0.0,0.0,-0.30116700291357,-0.25604099902881,9.82863900097119
55000000.0,22.22,0.0,0.0,0.0,-0.312840901068309,-0.246329098931691,9.82962
60000000.0,22.22,0.0,0.0,0.0,-0.288021596503716,-0.24525,9.82962
65000000.0,22.22,0.0,0.0,0.0,-0.310094103787641,-0.27938880505018804,9.821085298737453
70000000.0,22.22,0.0,0.0,0.0,-0.30548339864033397,-0.25918019592100194,9.828246601359666
75000000.0,22.22,0.0,0.0,0.0,-0.295771498543215,-0.25506,9.821281498543215
80000000.0,22.22,0.0,0.0,0.0,-0.286059598446096,-0.27154080310780804,9.828050401553904
85000000.0,22.22,0.0,0.0,0.0,-0.308916904953069,-0.24211079339590794,9.82962
90000000.0,22.22,0.0,0.0,0.0,-0.28978739475557397,-0.23544,9.845708403496284
95000000.0,22.22,0.0,0.0,0.0,-0.29243610184526103,-0.24338610184526102,9.841293898154738
100000000.0,22.22,0.0,0.0,0.0,-0.30214800194238,-0.25309800194238,9.83943
105000000.0,22.22,0.0,0.0,0.0,-0.296360097960501,-0.247310097960501,9.8471799020395
110000000.0,22.22,0.0,0.0,0.0,-0.28664819786338197,-0.237598197863382,9.833936395726765
115000000.0,22.22,0.0,0.0,0.0,-0.26182889329878895,-0.25810110670121106,9.822066297766263
120000000.0,22.22,0.0,0.0,0.0,-0.2923380116542801,-0.24995879533828794,9.834721204661712
125000000.0,22.22,0.0,0.0,0.0,-0.2820374927160749,-0.24525,9.824714995144051
130000000.0,22.22,0.0,0.0,0.0,-0.289198805050188,-0.22347179242471793,9.812550597474907
135000000.0,22.22,0.0,0.0,0.0,-0.28713869737778697,-0.2516265131110651,9.83148390786664
140000000.0,22.22,0.0,0.0,0.0,-0.2986164054386641,-0.24368039184200393,9.83943
145000000.0,22.22,0.0,0.0,0.0,-0.26928448591774484,-0.24937020563290208,9.832464897183549
150000000.0,22.22,0.0,0.0,0.0,-0.2756610087407101,-0.26192700291357,9.83648700291357
155000000.0,22.22,0.0,0.0,0.0,-0.3115656120427561,-0.23779438795724386,9.825892193978623
160000000.0,22.22,0.0,0.0,0.0,-0.29037598446095986,-0.23897160621561606,9.81981
165000000.0,22.22,0.0,0.0,0.0,-0.281252703204927,-0.25182270320492706,9.81981
170000000.0,22.22,0.0,0.0,0.0,-0.3039138099061381,-0.24858539669795396,9.832759206604091
175000000.0,22.22,0.0,0.0,0.0,-0.2947904898025049,-0.24525,9.83943
180000000.0,22.22,0.0,0.0,0.0,-0.28449,-0.23897159650371597,9.83943
185000000.0,22.22,0.0,0.0,0.0,-0.29685060718680606,-0.2539809107802091,9.820889089219792
190000000.0,22.22,0.0,0.0,0.0,-0.29802779630947795,-0.24054118523791185,9.828246611071567
195000000.0,22.22,0.0,0.0,0.0,-0.30028410378764103,-0.22563,9.827461792424717
200000000.0,22.22,0.0,0.0,0.0,-0.29233799223047996,-0.24917401553904014,9.83746801165428
205000000.0,22.22,0.0,0.0,0.0,-0.3018537119456371,-0.259082096018121,9.837664192036241
210000000.0,22.22,0.0,0.0,0.0,-0.2968505877630059,-0.24368039184200393,9.835309804078998
215000000.0,22.22,0.0,0.0,0.0,-0.29008170417611706,-0.2466234083522341,9.845021704176117
220000000.0,22.22,0.0,0.0,0.0,-0.29979360427323604,-0.25506,9.838252791453527
225000000.0,22.22,0.0,0.0,0.0,-0.309505504370355,-0.2442689912592899,9.824224495629645
230000000.0,22.22,0.0,0.0,0.0,-0.2980277865975779,-0.24073740446747405,9.840999617869896
235000000.0,22.22,0.0,0.0,0.0,-0.30008791369377913,-0.2556486091291861,9.838252781741629
240000000.0,22.22,0.0,0.0,0.0,-0.3037175906765759,-0.25976879533828795,9.814708795338289
245000000.0,22.22,0.0,0.0,0.0,-0.28929689524116897,-0.2450537904823379,9.815003104758832
250000000.0,22.22,0.0,0.0,0.0,-0.2943000097119001,-0.24034500485595006,9.8296200097119
255000000.0,22.22,0.0,0.0,0.0,-0.3233376198122762,-0.25005690495306904,9.829816190093862
260000000.0,22.22,0.0,0.0,0.0,-0.31980597474905975,-0.25035119494981195,9.824518805050188
265000000.0,22.22,0.0,0.0,0.0,-0.2943,-0.2544714102946141,9.82962
270000000.0,22.22,0.0,0.0,0.0,-0.3078378157332782,-0.25584478951114786,9.838645210488853
275000000.0,22.22,0.0,0.0,0.0,-0.3149009893169099,-0.24083549465845494,9.84041098931691
280000000.0,22.22,0.0,0.0,0.0,-0.2997935945613359,-0.24407281087732813,9.82962
285000000.0,22.22,0.0,0.0,0.0,-0.29851830553578307,-0.25927830553578307,9.838056611071567
290000000.0,22.22,0.0,0.0,0.0,-0.30411,-0.26074979436709794,9.832759177468391
295000000.0,22.22,0.0,0.0,0.0,-0.2960657885399579,-0.2470157885399579,9.818044211460043
300000000.0,22.22,0.0,0.0,0.0,-0.29233801165428014,-0.2511360233085602,9.83746801165428
305000000.0,22.22,0.0,0.0,0.0,-0.30411,-0.2708540940757409,9.84924
310000000.0,22.22,0.0,0.0,0.0,-0.3115656120427561,-0.2536865819358658,9.845512193978623
315000000.0,22.22,0.0,0.0,0.0,-0.31284088164450885,-0.24269941223699412,9.83943
320000000.0,22.22,0.0,0.0,0.0,-0.29783160621561605,-0.25859160621561605,9.842961606215615
325000000.0,22.22,0.0,0.0,0.0,-0.307543506312735,-0.25113597474905974,9.845806493687265
330000000.0,22.22,0.0,0.0,0.0,-0.30724918718029187,-0.22896540640985408,9.842765406409853
335000000.0,22.22,0.0,0.0,0.0,-0.29106269349302694,-0.23867730650697308,9.842765386986054
340000000.0,22.22,0.0,0.0,0.0,-0.29076841320818414,-0.24838920660409206,9.832759206604091
345000000.0,22.22,0.0,0.0,0.0,-0.2949866798963668,-0.25506,9.83943
350000000.0,22.22,0.0,0.0,0.0,-0.2805660135966601,-0.25506,9.836486993201671
355000000.0,22.22,0.0,0.0,0.0,-0.2971449068954491,-0.2579049068954491,9.82962
360000000.0,22.22,0.0,0.0,0.0,-0.30411,-0.2621231930074319,9.826873193007431
365000000.0,22.22,0.0,0.0,0.0,-0.30146129291031293,-0.25241129291031295,9.827756121269061
370000000.0,22.22,0.0,0.0,0.0,-0.2943,-0.24780060718680608,9.839037571252776
375000000.0,22.22,0.0,0.0,0.0,-0.28939498543214986,-0.25015498543214987,9.81490501456785
380000000.0,22.22,0.0,0.0,0.0,-0.27938881476208816,-0.2448576295241763,9.836683222143133
385000000.0,22.22,0.0,0.0,0.0,-0.29204369252183693,-0.27468,9.850024770087348
390000000.0,22.22,0.0,0.0,0.0,-0.2909646227258462,-0.2638889621235896,9.821968207575283
395000000.0,22.22,0.0,0.0,0.0,-0.3056795693103957,-0.23799064603440645,9.82962
400000000.0,22.22,0.0,0.0,0.0,-0.27860401553904013,-0.28056598446095987,9.82765799223048
405000000.0,22.22,0.0,0.0,0.0,-0.3017556314665563,-0.2611421842667218,9.823537815733278
410000000.0,22.22,0.0,0.0,0.0,-0.3247109601812096,-0.24525,9.837664192036241
415000000.0,22.22,0.0,0.0,0.0,-0.28449,-0.24691770806087707,9.827952291939123
420000000.0,22.22,0.0,0.0,0.0,-0.29233804078998044,-0.25349039184200395,9.81981
425000000.0,22.22,0.0,0.0,0.0,-0.3261824587244246,-0.24672150825511507,9.821281508255115
430000000.0,22.22,0.0,0.0,0.0,-0.2831165916477659,-0.25506,9.826873183295532
435000000.0,22.22,0.0,0.0,0.0,-0.27723061689870615,-0.2563353084493531,9.813825925348059
440000000.0,22.22,0.0,0.0,0.0,-0.29665441709294416,-0.25898395726763956,9.83943
445000000.0,22.22,0.0,0.0,0.0,-0.3106826740692267,-0.2168991086435911,9.841588217287182
450000000.0,22.22,0.0,0.0,0.0,-0.2864520174814202,-0.22955403496284035,9.85708798251858
455000000.0,22.22,0.0,0.0,0.0,-0.3058758176756582,-0.2657529088378291,9.837664182324342
460000000.0,22.22,0.0,0.0,0.0,-0.32294519106505193,-0.2731103821301038,9.820594808934949
465000000.0,22.22,0.0,0.0,0.0,-0.3125465819358658,-0.25643341806413417,9.828246581935867
470000000.0,22.22,0.0,0.0,0.0,-0.2954772182583722,-0.2735027817416278,9.810588609129187
475000000.0,22.22,0.0,0.0,0.0,-0.31490101845261015,-0.2535884723210847,9.820300509226305
480000000.0,22.22,0.0,0.0,0.0,-0.33118554405945544,-0.22680722797027228,9.830404818646848
485000000.0,22.22,0.0,0.0,0.0,-0.27556292826162926,-0.25506,9.848651381158914
490000000.0,22.22,0.0,0.0,0.0,-0.3043062095176621,-0.25506,9.829423790482338
495000000.0,22.22,0.0,0.0,0.0,-0.3137237807704378,-0.25506,9.820104328844344
500000000.0,22.22,0.0,0.0,0.0,-0.2942999902880999,-0.25506,9.8492399902881
505000000.0,22.22,0.0,0.0,0.0,-0.2845880901909809,-0.25506,9.839528090190981
510000000.0,22.22,0.0,0.0,0.0,-0.3037176198122762,-0.2454461900938619,9.829816190093862
515000000.0,22.22,0.0,0.0,0.0,-0.28507857999348585,-0.2642814200065142,9.82962
520000000.0,22.22,0.0,0.0,0.0,-0.2939076101003761,-0.25545238989962393,9.82962
525000000.0,22.22,0.0,0.0,0.0,-0.2849804898025049,-0.2457404898025049,9.82962
530000000.0,22.22,0.0,0.0,0.0,-0.3029328205892282,-0.2544714102946141,9.838841410294615
535000000.0,22.22,0.0,0.0,0.0,-0.2949866896082669,-0.2641833103917331,9.821183379216533
540000000.0,22.22,0.0,0.0,0.0,-0.2943,-0.26487,9.828835210488853
545000000.0,22.22,0.0,0.0,0.0,-0.30322711058597107,-0.24701577882805778,9.82069288941403
550000000.0,22.22,0.0,0.0,0.0,-0.2599649465845495,-0.2364209893169099,9.82863901068309
555000000.0,22.22,0.0,0.0,0.0,-0.28998364312083647,-0.25290182156041824,9.82962
560000000.0,22.22,0.0,0.0,0.0,-0.3115656217546562,-0.2464271891226719,9.838252810877329
565000000.0,22.22,0.0,0.0,0.0,-0.29685057805110576,-0.2537847109744471,9.822360578051105
570000000.0,22.22,0.0,0.0,0.0,-0.2858633889284339,-0.26349661107156613,9.81981
575000000.0,22.22,0.0,0.0,0.0,-0.3011670223373702,-0.2565314888313149,9.828148511168685
580000000.0,22.22,0.0,0.0,0.0,-0.30411,-0.23033876620258767,9.82962
585000000.0,22.22,0.0,0.0,0.0,-0.2878253772741538,-0.24191462272584624,9.845904622725847
590000000.0,22.22,0.0,0.0,0.0,-0.28449,-0.26133842292008425,9.841195788539958
595000000.0,22.22,0.0,0.0,0.0,-0.28449,-0.25692388844283887,9.823537776885678
600000000.0,22.22,0.0,0.0,0.0,-0.30018602330856026,-0.25506,9.835506023308561
605000000.0,22.22,0.0,0.0,0.0,-0.2808602647458026,-0.24731008824860087,9.854929823502799
610000000.0,22.22,0.0,0.0,0.0,-0.2976354355455543,-0.2529018118485181,9.836094564454445
615000000.0,22.22,0.0,0.0,0.0,-0.2965562880543629,-0.23239886416308864,9.837173711945637
620000000.0,22.22,0.0,0.0,0.0,-0.3092112240855122,-0.24054122408551223,9.831974387957244
625000000.0,22.22,0.0,0.0,0.0,-0.3286350242797502,-0.26732253641962533,9.836977512139875
630000000.0,22.22,0.0,0.0,0.0,-0.3117617632890176,-0.23838293881502937,9.817651763289017
635000000.0,22.22,0.0,0.0,0.0,-0.28262606299766063,-0.23995262466822626,9.817161312334113
640000000.0,22.22,0.0,0.0,0.0,-0.30293284972492845,-0.24525,9.826873212431233
645000000.0,22.22,0.0,0.0,0.0,-0.2930246624149466,-0.2382848874716489,9.83658511252835
650000000.0,22.22,0.0,0.0,0.0,-0.29135701262547015,-0.23544,9.83943
655000000.0,22.22,0.0,0.0,0.0,-0.2943,-0.26928456361294567,9.832661087277412
660000000.0,22.22,0.0,0.0,0.0,-0.3076416256394162,-0.27114837436058375,9.836290812819708
665000000.0,22.22,0.0,0.0,0.0,-0.2876291483326915,-0.23857914833269148,9.846002712916826
670000000.0,22.22,0.0,0.0,0.0,-0.2811546130139461,-0.25800306506973064,9.829816160958162
675000000.0,22.22,0.0,0.0,0.0,-0.31637256555532567,-0.26830348688893485,9.83256302622213
680000000.0,22.22,0.0,0.0,0.0,-0.3147047603754476,-0.25231317358363176,9.833151586791816
685000000.0,22.22,0.0,0.0,0.0,-0.2917493733893937,-0.2637909399159094,9.82962
690000000.0,22.22,0.0,0.0,0.0,-0.3088188536096886,-0.27468,9.817455573195156
695000000.0,22.22,0.0,0.0,0.0,-0.2997935460018355,-0.25074354600183546,9.827952340498623
700000000.0,22.22,0.0,0.0,0.0,-0.28449,-0.24132601359666014,9.82765797280668
705000000.0,22.22,0.0,0.0,0.0,-0.27870208630622084,-0.25682582738755827,9.808234172612442
710000000.0,22.22,0.0,0.0,0.0,-0.3031290689544907,-0.2534903724182037,9.811569627581797
715000000.0,22.22,0.0,0.0,0.0,-0.31813828611198286,-0.23965828611198287,9.825401713888018
720000000.0,22.22,0.0,0.0,0.0,-0.2864519300743193,-0.2519208419554084,9.824126386014864
725000000.0,22.22,0.0,0.0,0.0,-0.2918475704112757,-0.2540789718354897,9.83060102816451
730000000.0,22.22,0.0,0.0,0.0,-0.31392,-0.23995258582062587,9.834132585820626
735000000.0,22.22,0.0,0.0,0.0,-0.29832205717052057,-0.2458386285529863,9.840018628552986
740000000.0,22.22,0.0,0.0,0.0,-0.2895912143736122,-0.2652624287472243,9.833936356879164
745000000.0,22.22,0.0,0.0,0.0,-0.3043062289414623,-0.26467377105853773,9.834819343412194
750000000.0,22.22,0.0,0.0,0.0,-0.29920495629644955,-0.25996501456785015,9.8394299708643
755000000.0,22.22,0.0,0.0,0.0,-0.2989107439949074,-0.26487,9.82962
760000000.0,22.22,0.0,0.0,0.0,-0.31862881476208815,-0.2601611852379119,9.839037629524176
765000000.0,22.22,0.0,0.0,0.0,-0.3052871405631714,-0.2458385702815857,9.840018570281586
770000000.0,22.22,0.0,0.0,0.0,-0.27997738504367387,-0.25800307478163076,9.825107385043674
775000000.0,22.22,0.0,0.0,0.0,-0.2790945150534451,-0.2800754849465549,9.815395484946555
780000000.0,22.22,0.0,0.0,0.0,-0.28880641515056416,-0.27036358484943585,9.81
785000000.0,22.22,0.0,0.0,0.0,-0.2943,-0.2564333695046337,9.818436630495366
790000000.0,22.22,0.0,0.0,0.0,-0.3025404306896043,-0.2576106460344064,9.833740215344802
795000000.0,22.22,0.0,0.0,0.0,-0.30185365367423656,-0.2505473073484731,9.835407884558078
800000000.0,22.22,0.0,0.0,0.0,-0.3001860621561606,-0.22759204661712046,9.82569598446096
805000000.0,22.22,0.0,0.0,0.0,-0.3084263374553634,-0.2529018312723183,9.81981
810000000.0,22.22,0.0,0.0,0.0,-0.28821781573327815,-0.26114218426672187,9.823537815733278
815000000.0,22.22,0.0,0.0,0.0,-0.28704056833920566,-0.25506,9.833249715830398
820000000.0,22.22,0.0,0.0,0.0,-0.27468,-0.25859161592751617,9.835898384072484
825000000.0,22.22,0.0,0.0,0.0,-0.28841406409854065,-0.2580029679507297,9.826186483975365
830000000.0,22.22,0.0,0.0,0.0,-0.3072491677564917,-0.24525,9.826480832243508
835000000.0,22.22,0.0,0.0,0.0,-0.2943,-0.24525,9.836192683781126
840000000.0,22.22,0.0,0.0,0.0,-0.29116078368400783,-0.2515284326319843,9.832759216315992
845000000.0,22.22,0.0,0.0,0.0,-0.2936133492393335,-0.25878776717377766,9.836388883586888
850000000.0,22.22,0.0,0.0,0.0,-0.29920491744884914,-0.23936396697953966,9.83256301651023
855000000.0,22.22,0.0,0.0,0.0,-0.27909458303674584,-0.2341647498220475,9.833740166785303
860000000.0,22.22,0.0,0.0,0.0,-0.31666681670446817,-0.2468195498865955,9.822556816704468
865000000.0,22.22,0.0,0.0,0.0,-0.31313513279365135,-0.22827871680158718,9.832268716801588
870000000.0,22.22,0.0,0.0,0.0,-0.28959123379741236,-0.24054123379741235,9.83943
875000000.0,22.22,0.0,0.0,0.0,-0.3090150339916503,-0.25751251699582517,9.8296199320167
880000000.0,22.22,0.0,0.0,0.0,-0.3213755829070558,-0.26722441709294414,9.807253251278834
885000000.0,22.22,0.0,0.0,0.0,-0.30940736561987364,-0.27016736561987365,9.834132634380127
890000000.0,22.22,0.0,0.0,0.0,-0.2986164345743643,-0.2572182172871822,9.844923565425635
895000000.0,22.22,0.0,0.0,0.0,-0.31392,-0.2628098826156988,9.827559882615699
900000000.0,22.22,0.0,0.0,0.0,-0.30607193007431927,-0.2491739475557395,9.825696052444261
905000000.0,22.22,0.0,0.0,0.0,-0.27840783515707834,-0.23494958789269588,9.845512164842921
910000000.0,22.22,0.0,0.0,0.0,-0.2925341823243418,-0.27114836464868364,9.827854182324343
915000000.0,22.22,0.0,0.0,0.0,-0.2861577177727772,-0.2567277177727772,9.823145435545555
920000000.0,22.22,0.0,0.0,0.0,-0.2943,-0.26016114639031146,9.836290764260207
925000000.0,22.22,0.0,0.0,0.0,-0.29724303593403034,-0.24132607186806074,9.822753035934031
930000000.0,22.22,0.0,0.0,0.0,-0.3125465819358658,-0.27055974580759745,9.83943
935000000.0,22.22,0.0,0.0,0.0,-0.30155936367749364,-0.24907595448375955,9.83943
940000000.0,22.22,0.0,0.0,0.0,-0.2856672182583722,-0.2735027817416278,9.838252781741629
945000000.0,22.22,0.0,0.0,0.0,-0.29645823671098237,-0.26271176328901763,9.828540881644509
950000000.0,22.22,0.0,0.0,0.0,-0.3109769446421694,-0.24525,9.821772036905221
955000000.0,22.22,0.0,0.0,0.0,-0.2853729185497292,-0.24789875564918756,9.83854708145027
960000000.0,22.22,0.0,0.0,0.0,-0.2950848186468482,-0.27468,9.82962
965000000.0,22.22,0.0,0.0,0.0,-0.30136312502413126,-0.27193312502413125,9.828933281256033
970000000.0,22.22,0.0,0.0,0.0,-0.26663585652325855,-0.23661723768217238,9.81981
975000000.0,22.22,0.0,0.0,0.0,-0.29380948106179483,-0.2540789621235896,9.820791037876411
980000000.0,22.22,0.0,0.0,0.0,-0.2852748380706484,-0.2358324190353242,9.839037580964677
985000000.0,22.22,0.0,0.0,0.0,-0.30411,-0.2458386382648864,9.829914319132444
990000000.0,22.22,0.0,0.0,0.0,-0.30411,-0.2642813423113134,9.839822438459125
995000000.0,22.22,0.0,0.0,0.0,-0.30430623865336237,-0.2356362386533624,9.858951880673319
1000000000.0,22.22,0.0,0.0,0.0,-0.32372992230479924,-0.2550599611523996,9.8492399805762
1005000000.0,22.22,0.0,0.0,0.0,-0.28488232191632323,-0.23563616095816162,9.83952808047908
1010000000.0,22.22,0.0,0.0,0.0,-0.2941038196180382,-0.2546676392360764,9.820202360763924
1015000000.0,22.22,0.0,0.0,0.0,-0.3038157197151572,-0.25506,9.81981
1020000000.0,22.22,0.0,0.0,0.0,-0.2946923801877238,-0.2456423801877238,9.848062859436828
1025000000.0,22.22,0.0,0.0,0.0,-0.3036195199093952,-0.2638890398187904,9.83060096018121
1030000000.0,22.22,0.0,0.0,0.0,-0.29488857999348583,-0.2740914200065142,9.820398579993487
1035000000.0,22.22,0.0,0.0,0.0,-0.2943,-0.23818671958546722,9.81981
1040000000.0,22.22,0.0,0.0,0.0,-0.2943,-0.2444652202007522,9.828835220200752
1045000000.0,22.22,0.0,0.0,0.0,-0.2943,-0.2631042405957424,9.82069287970213
1050000000.0,22.22,0.0,0.0,0.0,-0.32078706118497063,-0.2383829388150294,9.82863902039499
1055000000.0,22.22,0.0,0.0,0.0,-0.280075397539454,-0.2529018409842184,9.82962
1060000000.0,22.22,0.0,0.0,0.0,-0.28331282058922824,-0.2636928205892282,9.812354358821544
1065000000.0,22.22,0.0,0.0,0.0,-0.31862888274538886,-0.24780055862730557,9.852673603431736
1070000000.0,22.22,0.0,0.0,0.0,-0.2984201376496014,-0.24525,9.816866896082669
1075000000.0,22.22,0.0,0.0,0.0,-0.28596147911941483,-0.2702655626417556,9.835015562641756
1080000000.0,22.22,0.0,0.0,0.0,-0.3009708419554084,-0.26643957902229576,9.83943
1085000000.0,22.22,0.0,0.0,0.0,-0.30411,-0.24858535785035357,9.847572321074823
1090000000.0,22.22,0.0,0.0,0.0,-0.2960657788280578,-0.2613384423438844,9.833151557656116
1095000000.0,22.22,0.0,0.0,0.0,-0.2943,-0.2728161212690612,9.82167387873094
1100000000.0,22.22,0.0,0.0,0.0,-0.3021480213661802,-0.2354398931690989,9.843354064098541
1105000000.0,22.22,0.0,0.0,0.0,-0.27311031414680315,-0.24112984292659842,9.84924
1110000000.0,22.22,0.0,0.0,0.0,-0.29547728624167285,-0.26055364312083645,9.84924
1115000000.0,22.22,0.0,0.0,0.0,-0.30411,-0.24976255668492556,9.819025113369852
1120000000.0,22.22,0.0,0.0,0.0,-0.2891987564906876,-0.2377943782453438,9.824911243509312
1125000000.0,22.22,0.0,0.0,0.0,-0.2771324781482248,-0.25751256555532565,9.82962
1130000000.0,22.22,0.0,0.0,0.0,-0.30371768779557684,-0.25035115610221154,9.815101156102212
1135000000.0,22.22,0.0,0.0,0.0,-0.31392,-0.24525,9.83148396613804
1140000000.0,22.22,0.0,0.0,0.0,-0.2786038892843389,-0.25937644428626444,9.825303555713736
1145000000.0,22.22,0.0,0.0,0.0,-0.2857653667207537,-0.2579048777597488,9.833740244480502
1150000000.0,22.22,0.0,0.0,0.0,-0.2874329776626298,-0.25506,9.83256297766263
1155000000.0,22.22,0.0,0.0,0.0,-0.2777210775655108,-0.24829107756551078,9.843157844868978
1160000000.0,22.22,0.0,0.0,0.0,-0.29469246759482465,-0.25859164506321647,9.822556709873567
1165000000.0,22.22,0.0,0.0,0.0,-0.30411,-0.2582972773712728,9.823145445257454
1170000000.0,22.22,0.0,0.0,0.0,-0.2976353772741538,-0.25506,9.816670754548309
1175000000.0,22.22,0.0,0.0,0.0,-0.2879234771770348,-0.2614365228229652,9.816376522822965
1180000000.0,22.22,0.0,0.0,0.0,-0.3096036916803369,-0.2523131541598315,9.81981
1185000000.0,22.22,0.0,0.0,0.0,-0.2990087079311871,-0.25143032301720325,9.825990323017203
1190000000.0,22.22,0.0,0.0,0.0,-0.28449,-0.24289555377135555,9.82962
1195000000.0,22.22,0.0,0.0,0.0,-0.31441061605720616,-0.24740824642288248,9.817651753577119
1200000000.0,22.22,0.0,0.0,0.0,-0.30999590676575906,-0.24917397669143976,9.81
1205000000.0,22.22,0.0,0.0,0.0,-0.2827241531886415,-0.25103792340567926,9.827363770217039
1210000000.0,22.22,0.0,0.0,0.0,-0.3031291175139912,-0.25506,9.845119823502799
1215000000.0,22.22,0.0,0.0,0.0,-0.31813827640008274,-0.2382848292002483,9.832464829200248
1220000000.0,22.22,0.0,0.0,0.0,-0.2974391289088913,-0.23112362369703623,9.814316376302964
1225000000.0,22.22,0.0,0.0,0.0,-0.2898855237941553,-0.2462310475883105,9.831582095176621
1230000000.0,22.22,0.0,0.0,0.0,-0.2943,-0.25506,9.833347728326178
1235000000.0,22.22,0.0,0.0,0.0,-0.28390135202321354,-0.24986067601160677,9.83540797196518
1240000000.0,22.22,0.0,0.0,0.0,-0.27468,-0.25545244817102447,9.844138775914487
1245000000.0,22.22,0.0,0.0,0.0,-0.27968312418263125,-0.2598668758173688,9.829423751634737
1250000000.0,22.22,0.0,0.0,0.0,-0.27958497572024976,-0.26487004855950047,9.829620048559502
1255000000.0,22.22,0.0,0.0,0.0,-0.27468,-0.2650661512462615,9.834623075623131
1260000000.0,22.22,0.0,0.0,0.0,-0.2793888244739882,-0.25506,9.824911175526012
1265000000.0,22.22,0.0,0.0,0.0,-0.29832217371332176,-0.25967072457110724,9.829031449142215
1270000000.0,22.22,0.0,0.0,0.0,-0.30940737533177376,-0.2513321259953213,9.834917375331774
1275000000.0,22.22,0.0,0.0,0.0,-0.29086642570396426,-0.2442690495306905,9.834034524765345
1280000000.0,22.22,0.0,0.0,0.0,-0.28762927458739274,-0.2464271502750715,9.83943
1285000000.0,22.22,0.0,0.0,0.0,-0.29989167504041675,-0.24809497487874976,9.835211675040417
1290000000.0,22.22,0.0,0.0,0.0,-0.28193932482989326,-0.2895913503402135,9.821379549886595
1295000000.0,22.22,0.0,0.0,0.0,-0.27693637546146377,-0.2553538723850387,9.753690247846503
1300000000.0,22.22,0.0021293153894895757,0.0068207906082994015,0.0,-0.23151559598495597,0.003925035288550344,9.492154838456749
1305000000.0,22.22,0.008644986858589037,0.031591253921192684,0.0,-0.10290667186746671,0.03865003120480032,9.010974105856741
1310000000.0,22.22,0.019106504332090667,0.1328651216176912,0.004450270903140368,-0.5038447043117471,-0.20247784020607842,8.659483047328932
1315000000.0,22.22,0.02415306297129104,0.2566569191532844,0.013293311381383614,-1.9427773041210732,0.2616350243490503,8.644768353253784
1320000000.0,22.22,0.006611921815495192,0.14496000721535784,0.012914716026869463,-3.2035541384277417,1.3149359638788596,8.515863594947437
1325000000.0,22.22,-0.051127954602228354,-0.1642608450846823,-0.0003726864506426652,-2.521654400441144,1.8168092204541924,8.114340702167407
1330000000.0,22.22,-0.2152685977137916,-0.4042891936777228,-0.013819159540485956,-0.42005962744319625,-0.4428355676511557,7.843290631659607
1335000000.0,22.22,-0.3527200208475964,-0.3431216585309813,-0.011359821688263851,1.2180135414775355,-2.5308741985603422,8.260907386023774
1340000000.0,22.22,-0.1589407302439618,-0.05215636796443396,-0.004854759826909453,2.0161495342148954,-1.1124584247416842,9.718181054845012
1345000000.0,22.22,0.060714850958485556,0.28699363963292784,0.011748546231886387,0.9201722524975227,-0.9327235139951351,9.948513333498335
1350000000.0,22.22,0.06668889402643474,0.42003772260099564,0.017153058846395012,-1.5048623386374236,1.7736460595623609,9.37934485465315
1355000000.0,22.22,-0.046958629214059064,0.24346337199599782,0.006217549501897422,-3.8023570527699704,0.7448684835773848,9.714542462337924
1360000000.0,22.22,-0.23337840607619004,-0.12488937659819249,-8.520360330735877e-05,-3.333823214747832,-0.3127407131069071,8.420907434127875
1365000000.0,22.22,-0.24996161662635857,-0.3246866218186991,-0.010534129422531003,-1.065656826733168,-0.573206492667565,9.73642897702309
1370000000.0,22.22,-0.29144067453538147,-0.3989375744570394,-0.01515224172285438,0.7804930733758308,-2.0489089095347888,10.619323004204531
1375000000.0,22.22,-0.15153769313815224,-0.18056173267443,-0.005855504279130198,2.8154640174695404,-0.5223887228999871,10.33974288443433
1380000000.0,22.22,-0.02616059195994831,0.23879104430393946,0.01797552998845325,0.877795503004155,-1.6527821523986213,10.670527919445679
1385000000.0,22.22,-0.03449708766025376,0.39711910611561274,0.02206229081013087,-0.6303976483143765,0.5346490352944905,9.251419191843192
1390000000.0,22.22,0.08713474473062371,0.23342552359531515,0.002725500299650155,-2.7367953929458544,1.3461241771367418,9.162929214108292
1395000000.0,22.22,-0.09212153043779747,-0.00044466096894544074,0.0010646508437165,-2.776224580759746,0.23073152515441525,8.309463050308832
1400000000.0,22.22,-0.2799544916527342,-0.11718183414656629,0.00021291836389460692,-1.2674525710597258,0.05100822012848216,8.744637453551674
1405000000.0,22.22,-0.33145805181383786,-0.25370369318009667,-0.004407672263499718,-1.1414873426914736,-1.1050974551653745,9.543753707213437
1410000000.0,22.22,-0.2989627292590006,-0.2703816211569307,-0.008623656972642637,0.3470816616457166,-1.2754945293589453,8.800356333703263
1415000000.0,22.22,-0.1964559595903721,-0.04627328915190474,-0.0010007181021121315,1.3578981661338816,-0.8581800093258001,9.279181367239515
1420000000.0,22.22,-0.11875128855304136,0.20073328650578257,0.013883029041829574,0.4445837388043374,-0.9762869799851698,9.390916331109464
1425000000.0,22.22,-0.051614570853473214,0.23403257805488273,0.007878404227852827,-1.304732214313222,0.27860388928433893,9.362666103597562
1430000000.0,22.22,-0.06246377037390565,0.1016461360011548,0.00410954924229336,-1.896271472318115,0.1573506223338062,10.001883711104137
1435000000.0,22.22,-0.23145421572518335,-0.04340900898125732,0.003470767800500848,-1.4386366393657664,-0.41319786895567867,10.080266475560364
1440000000.0,22.22,-0.28425062646359406,-0.12634400530037135,0.0046844485346901965,-1.380068394556584,-0.7640062683137627,10.374271088118912
1445000000.0,22.22,-0.2867213610747412,-0.21902296385452935,-0.0007026878332882685,-0.3970044409717445,-1.722240680991307,10.311682670247828
1450000000.0,22.22,-0.24298094504917367,-0.1572380172386643,-0.005855564357377915,1.6137468306931682,-0.7877422395582225,10.075850746519407
1455000000.0,22.22,-0.14960688002859307,-0.00757889543283434,-0.0002980776990194312,2.074615182511452,-0.6244089022384891,9.931053308639433
1460000000.0,22.22,-0.16067764337492724,0.11850607896902156,0.008048781922345793,0.82678299992773,-1.2780429999277299,9.27515897015249
1465000000.0,22.22,-0.10838611264050829,0.21228183136981998,0.014159825339102589,-0.4423353756604538,-0.07073018536760185,9.360212780514027
1470000000.0,22.22,-0.09272072192127269,0.11091676634471091,0.00393919262788726,-1.2248760574932607,-0.0822070290693703,9.714251658913316
1475000000.0,22.22,-0.1323564978420994,0.00915404039149372,-0.0010114151922178548,-1.051141585950316,0.12556559339115594,8.84371585950316
1480000000.0,22.22,-0.24164664160406485,-0.06332011559143505,0.0,-1.0602634201332344,-0.6945507309863074,9.151947298547373
1485000000.0,22.22,-0.3142145891658745,-0.1530894649456865,0.0,-0.5655423175702231,-1.5842164096461642,9.852674797995448
1490000000.0,22.22,-0.3096020317621926,-0.20913226021434997,2.1296157807280543e-05,0.8291433995511341,-1.412246095043961,10.278132794819529
1495000000.0,22.22,-0.13456760742457655,-0.06723402785597289,0.001107249483357138,1.5553741932638419,-0.9165495486589955,10.13892793518668
1500000000.0,22.22,-0.16938409313192074,0.131022110577727,0.0053232542185827,1.1183353382879533,-1.3341581935865823,9.682472097770422
1505000000.0,22.22,-0.13245938350870604,0.2122322814851249,0.0053232542185827,-0.4355686772510867,-0.7320203875652039,10.381728904762989
1510000000.0,22.22,-0.11747946365183619,0.03036153937915581,0.00010644916890603217,-1.2876631517046317,-0.5721187307209874,10.571452757268828
1515000000.0,22.22,-0.15334334364633564,-0.06326322740018796,0.0,-0.4863772692730727,-0.4167283291670833,10.108909258074194
1520000000.0,22.22,-0.26286786915384,-0.08343517034921048,0.0,-0.0278590418878904,-2.257875386738554,10.329930738104409
1525000000.0,22.22,-0.23399095068888606,-0.041646911487731496,0.0040456860649758135,0.07406576659165766,-0.9741286752908866,10.432935296212953
1530000000.0,22.22,-0.11105770231118825,-0.03640720945499138,0.0002555033014787732,0.7793086585994867,-0.8287485622526858,10.299518554223786
1535000000.0,22.22,-0.1578130235729778,0.023224592478279814,0.0,1.033876585757266,-1.125109883912599,9.533453625310736
1540000000.0,22.22,-0.15799626661730345,0.10904355434802679,0.007835856180420797,-0.1867864980333651,-1.084593390611434,9.611838448689785
1545000000.0,22.22,-0.1402165518888491,0.012387823798708134,0.005610700175765879,-0.740656500488565,-0.8023589696970899,9.971768070381081
1550000000.0,22.22,-0.13272703396836774,-0.03717215642649171,0.0014904981115492315,-0.034332440914324414,-0.7485029096793291,9.953225819358659
1555000000.0,22.22,-0.20130372285004017,-0.027325698264546457,0.0010646508437165,0.040319069795990696,-1.732155113053051,10.087034883264149
1560000000.0,22.22,-0.15080322140640434,-0.015247858249784349,0.0010646508437165,-0.09025245451692454,-1.0167054607905546,10.112932830301128
1565000000.0,22.22,-0.11494780911003151,-0.011987961902180998,0.00013840131064954257,0.3700349023018491,-0.9622631127877311,10.293339338363193
1570000000.0,22.22,-0.12910556161999742,0.025843575046905168,0.0027468091055095935,0.27271739009267393,-1.35927500278685,10.25262695603707
1575000000.0,22.22,-0.14477074466581932,0.007508316744581869,0.004098909068422314,-0.11330681547686813,-1.4558041223699412,10.550165631921956
1580000000.0,22.22,-0.10047563920731442,-0.015601219116056119,0.0006813632173636448,0.08711378206733786,-0.9260620051757201,10.588129138620792
1585000000.0,22.22,-0.1057654353884036,-0.0006097478208038562,0.0,0.19433631550706315,-1.2800105240565054,10.259296768531067
1590000000.0,22.22,-0.13048962531870154,0.01630351993968311,-0.0008730170435813497,0.14165615292926154,-1.429709616186896,10.29716500148995
1595000000.0,22.22,-0.0843723336825882,0.01745642738804914,0.0023848313390204936,-0.17442297727652975,-1.0606557129138572,10.328066130980961
1600000000.0,22.22,-0.08266581522051832,-0.023858812880414016,0.004897400626723893,0.00588699449856997,-1.0182781864684818,10.063096943345268
1605000000.0,22.22,-0.09784059062323334,-0.023993349692768985,0.003641099118802651,0.25466834820478346,-1.3710469717087697,9.973140206474403
1610000000.0,22.22,-0.09787246582265959,0.011933999160471349,0.0040243835831424634,0.21993985600449856,-1.5458601439955015,10.165907613080277
1615000000.0,22.22,-0.07150882638774528,0.02786874659961687,0.000979465158483055,0.06778656671956568,-1.161698506050385,10.320218507802686
1620000000.0,22.22,-0.04529051735716497,0.032255091085179016,0.0032365522247945577,-0.2837065215953652,-0.8982030021354299,10.260082422401325
1625000000.0,22.22,-0.07297236000978799,-0.022100468126164695,0.0002661455833585305,-0.19865171090811712,-1.5377204354218044,10.31276284720043
1630000000.0,22.22,-0.08809900183318853,-0.034959269930917636,-0.0002768057833121226,0.0005892015550920393,-1.4972010285506103,10.383296589964768
1635000000.0,22.22,-0.03816244370418612,-0.005806938799936653,0.0007771985625072558,0.06337266351582663,-1.2524420330838204,10.59195595746366
1640000000.0,22.22,-0.01610239379368826,0.03877857913690083,0.0025977549729368408,-0.03727847782548478,-1.3168949415355495,10.47276273991413
1645000000.0,22.22,-0.027767898340689535,0.0590059480275677,0.006217574798001722,-0.6356905561721056,-0.8412051035886512,10.349844076334941
1650000000.0,22.22,-0.04570325097938718,-0.0754163173122332,0.0007452242866725399,-0.5748646539306466,-1.1360003716460039,10.29559483975365
1655000000.0,22.22,-0.070250116756354,-0.17464359653696065,-0.006536977112945826,1.213897308011773,-1.583923692977237,10.077812035608321
1660000000.0,22.22,-0.04478638028800695,-0.06242141954623759,-0.0041734103116022065,2.16212496730525,-1.7740408191656083,10.059959154678593
1665000000.0,22.22,0.009066298935788086,0.13312128562438602,0.0035772549135633463,1.237526487202765,-1.854286394043764,10.232517379153174
1670000000.0,22.22,0.06566575986097976,0.2287356692969591,0.009901270448436358,-0.42968383879433836,-0.876616604587066,10.384670221690701
1675000000.0,22.22,0.11637696814276888,0.14977233127221617,0.005482920066909088,-1.827116566858166,-0.29282814211648145,10.72772702913867
1680000000.0,22.22,0.026118645023289908,-0.06523707260435532,-0.0026403588825992612,-1.6410136020655361,-0.45596984422349846,10.349154793649348
1685000000.0,22.22,-0.10120362117512377,-0.21201799849662006,-0.0053232542185827,-0.5285587415911874,-2.064620520443005,10.255571312789513
1690000000.0,22.22,-0.07522927195586927,-0.2089384118128542,-0.005983341304221619,1.4724893706866937,-2.0245828432404283,10.208677480865775
1695000000.0,22.22,0.05842174633471744,-0.026326183386149504,-0.0024912615358482944,2.010164828289448,-1.3420073415331735,10.319728785240288
1700000000.0,22.22,0.09715537982348094,0.17066231200362045,0.005110352718757586,0.9339074431764744,-1.4185268585319686,10.174930415017904
1705000000.0,22.22,0.10006540817154191,0.18804064198933435,0.0047483211980467975,-0.5915486299884865,-1.1964257454155574,10.455402582523925
1710000000.0,22.22,0.10073300909865335,0.05897515278518452,0.00027679840528170184,-1.2582305003559051,-0.954120500355905,10.900676497508664
1715000000.0,22.22,0.07628196074875628,-0.054827680915776174,-0.0004577962475631888,-1.0333841341509413,-0.8746592002581921,10.668471201226412
1720000000.0,22.22,-0.0034966535079200695,-0.16013021266257446,-0.004769664786049684,-0.07651315570423156,-1.8513494474710945,10.554383568405537
1725000000.0,22.22,0.022637411598949095,-0.13059983146018003,-0.007346083549014108,1.0295624820389249,-1.6171720333313204,10.4486297267699
1730000000.0,22.22,0.10691026738376835,0.0030480916861695267,-0.002938414447527413,1.1469834526349345,-1.1942721218571213,10.238500531174607
1735000000.0,22.22,0.12695492266858754,0.09202882399958759,0.0,0.5483766409794664,-1.2738266464838666,10.020423320489733
1740000000.0,22.22,0.1377170013690863,0.10086172889558134,0.0016608663200031622,-0.3865180556894806,-1.0406449351896494,10.211035132021452
1745000000.0,22.22,0.1274956604879019,0.016880397580958315,-0.001149852339015208,-0.8364979204257792,-1.0344643305273433,10.52593373221094
1750000000.0,22.22,0.10546148310112953,-0.05219413036560942,-0.0026616086642152984,-0.40220775655107754,-1.1624860537411605,10.403504218192042
1755000000.0,22.22,0.09647776089608008,-0.06176336990283542,-0.0015650478389290653,0.04169335221923352,-1.4587480226630802,10.276269197733692
1760000000.0,22.22,0.11466829151176763,-0.0423994841199155,-0.0026829164160703345,0.3880852067367521,-1.415777798378578,10.294221839301217
1765000000.0,22.22,0.15301137815250973,-0.003216166121985539,-0.002129301687433,0.614007797150978,-1.0775294400757944,10.348372937132028
1770000000.0,22.22,0.16741720285318365,0.03117728122182876,-0.00017032921029310312,0.42241725917507256,-1.040253225123032,10.315018387438483
1775000000.0,22.22,0.15504711818951822,0.0475715555318371,-0.00026618141950630805,0.008336879569468825,-1.2512661550676616,10.295595344772455
1780000000.0,22.22,0.15446941211810605,0.027061528904778826,-0.0031939525311496,-0.3747430372309304,-1.1595404441536046,10.41861295318983
1785000000.0,22.22,0.17304663291079864,-0.027493900338560903,-0.006398577910304995,-0.307541593068416,-0.9334216733574168,10.426361641241817
1790000000.0,22.22,0.16895093765713554,-0.05430335917959046,-0.006622094287896839,0.1483284516696845,-1.0602656344464563,10.208873661247736
1795000000.0,22.22,0.16358226647768526,-0.012001555931870599,0.0011179023052803733,0.24456235862552356,-1.2048642697314427,10.019050786208508
1800000000.0,22.22,0.18045663339135198,0.023439790826362005,0.00255514684725708,0.052973685334436846,-1.137959300743193,10.010124384591244
1805000000.0,22.22,0.2002340332089578,0.02621850675142828,0.0016608705360205325,-0.026781545419715454,-0.9896325195203253,10.128433090839431
1810000000.0,22.22,0.20303787708143367,0.0150435916892018,0.0014266054221100106,-0.027663813272138134,-0.9119373187433732,10.208482164842922
1815000000.0,22.22,0.1816489663215211,-0.008832478317972523,-0.0047696510839931585,0.050129205762592055,-1.0520262332182624,10.191510794237407
1820000000.0,22.22,0.18318212104295004,-0.002219180231983156,-0.006685999625388183,-0.016089248431592484,-1.3734000000000002,10.180033270702632
1825000000.0,22.22,0.2149166036838112,0.055551477674230895,-0.003460096006499444,-0.3350132369733324,-1.0575147387439474,10.247526567174965
1830000000.0,22.22,0.2577540404497013,0.08231648497053749,-0.001085955433558581,-0.7275104530933045,-0.5109052265466523,10.362891742182217
1835000000.0,22.22,0.23454272092719702,0.02747953068262409,-0.0028426138845271728,-0.8472893079305931,-0.5238532871465329,10.265771245578412
1840000000.0,22.22,0.18509274112256183,-0.030040238836942432,-0.003832762431059427,-0.7310406996429071,-0.6717919808415198,10.050541593137716
1845000000.0,22.22,0.15200741459822917,-0.10812543614747008,-0.007782601556843883,-0.2392612053646121,-1.2715722716738227,10.151290222532202
1850000000.0,22.22,0.1667090628973171,-0.10621153949664358,-0.005962013526283973,0.6415739281319394,-1.1202999876943,10.156292317253424
1855000000.0,22.22,0.24813933913050484,0.016760811561067398,0.0009262579651017528,0.4884381344736814,-0.7698892323737924,9.886418134473681
1860000000.0,22.22,0.25038021623201306,0.09992153521331557,0.0022996340597392128,-0.009419659311296569,-0.7738117522802175,9.657750281259004
1865000000.0,22.22,0.28220436542432065,0.10098326376950768,-0.0002874596592396649,-0.5974315357771154,-0.47097675966066765,9.955286208676162
1870000000.0,22.22,0.27549702958896,0.05872195372727202,-0.0007878376823739566,-1.0783149094199491,-0.15499727354987275,9.918105364582354
1875000000.0,22.22,0.24155321650767875,-0.031420598349685094,-0.0021293333075634493,-0.8902555697598558,-0.20110784073077842,9.775665364196254
1880000000.0,22.22,0.166100823080272,-0.0960413156145502,-0.008006166418635675,-0.4367402140479022,-0.9656993578562937,9.891619857301398
1885000000.0,22.22,0.1650737964767678,-0.08984741135240792,-0.00516353672404326,-0.15872455512864556,-1.3755550512077506,10.08674108857431
1890000000.0,22.22,0.2238984418647318,-0.028094980096739722,-0.002001559522732773,0.18011299501732997,-0.7302564734219648,10.271265869601159
1895000000.0,22.22,0.2834643743493314,0.047448293248460546,-0.003981770187441044,0.3184298762004988,-0.6198916547058165,10.049949876200499
1900000000.0,22.22,0.2916759299295718,0.10355026830388536,0.0004258483218370577,-0.3590479559766796,-0.19227684882006849,9.602030361934103
1905000000.0,22.22,0.28373751221479887,0.06709720471812547,-0.0027361647156211154,-0.7563506299766064,-0.3802357480093575,10.093116377985965
1910000000.0,22.22,0.24815743249740166,0.012257695679186699,-0.0053232542185827,-0.7139725790886259,-0.40848832580108324,10.006591583811915
1915000000.0,22.22,0.2227938768267709,-0.021898397229421954,-0.0053232542185827,-0.811187300547173,-0.3707194164444942,9.821281314017114
1920000000.0,22.22,0.21582037327396045,-0.07862071860315309,-0.006174995130439372,-0.3276508300358083,-0.3763142478524425,9.815102020461321
1925000000.0,22.22,0.20688009857946146,-0.045700192155103084,-0.009368894961371688,0.2815446817694468,-0.9275346400112464,9.972845401746953
1930000000.0,22.22,0.23909249238056038,0.04000575525634027,-0.0022783568740100987,-0.2642821872466219,-0.6437296883083969,9.840803437487935
1935000000.0,22.22,0.284410571208382,0.04131519017733863,-0.0034707699085095396,-0.38023379591743794,-0.0516979107138791,9.84924
1940000000.0,22.22,0.29920926441763357,0.028892984964214895,-0.004812205455451309,-0.01295055655820557,0.054541263705312634,9.859835139139552
1945000000.0,22.22,0.24659356211955688,0.04799340273222615,-0.0012988822294879515,-0.3766077511852775,-0.48824396445503965,9.942925688896457
1950000000.0,22.22,0.2126284159384799,0.0018080253873196598,-0.002874544946183794,-0.788723393977434,-0.4738200835164009,9.969902356101024
1955000000.0,22.22,0.2566246569787544,-0.032033169813573806,-0.00019164539418295432,-0.6086107291647074,0.18746830255588304,9.801268302555883
1960000000.0,22.22,0.2513956225412771,-0.05169024110842394,-0.0020441254882386443,-0.19855356244573563,-0.05179931266279313,9.602027428940273
1965000000.0,22.22,0.202629422457674,-0.01840136821949462,-0.0010646508437165,-0.031589955717299556,-0.6220506877926069,9.476264334348743
1970000000.0,22.22,0.21128853278443077,0.020565235340134776,-0.0011924172505167311,-0.4683305096817051,-0.2315125561602256,9.596337702556477
1975000000.0,22.22,0.29928722730482404,0.024396993287773953,-0.0034068993531615687,-0.7151473887957739,0.5724114668137147,9.466158694397887
1980000000.0,22.22,0.275133419325248,0.0029818040396751098,-0.0073673754908039615,-0.3362880306919803,0.06121270779852707,9.275551699968617
1985000000.0,22.22,0.205983110401437,0.022512880605357805,-0.005163535670038954,-0.6529556049246561,-0.3475675674313756,9.412696927812169
1990000000.0,22.22,0.21907875313393405,-0.007921443700491363,0.0,-1.1348182488780827,-0.1593129311722293,9.889853670573537
1995000000.0,22.22,0.25316422826973567,-0.030519378171424468,0.0,-0.4993286124951862,0.2027714212341142,9.954107698735077
2000000000.0,22.22,0.21731083969626427,0.006387921926368733,-1.2648052149832937e-08,-0.40221170929441713,-0.11771961152399613,9.653039300743194
2005000000.0,22.22,0.19094345229101134,0.010603939309646445,-0.003162025685510384,-0.8295353135676533,-0.020600610552806098,9.47822509899505
2010000000.0,22.22,0.24705298082538357,-0.01858473364927572,-0.0073674007869082596,-0.6319593801213939,0.14381526371125264,9.3514800924561
2015000000.0,22.22,0.224433885143757,0.024226744821125253,-0.004354409207888047,-0.39946226066502266,-0.15735365244663652,9.367961478277916
2020000000.0,22.22,0.19199795388497934,0.050115486407832685,0.003917949170297268,-0.8632819618038197,0.1911002909709029,9.67933209479052
2025000000.0,22.22,0.22712159470506563,-0.009580368527210774,-0.0018099320466236479,-0.6312724380037245,0.4389984833298848,9.906629404663493
2030000000.0,22.22,0.21401151048882747,-0.00877270583519369,-0.002129301687433,-0.23072954392679546,0.17461681709056814,9.410730831332708
2035000000.0,22.22,0.17442105675487088,0.03407459658416073,-0.000149042538524935,-0.9085071436123715,-0.007260111493801125,9.104659814176998
2040000000.0,22.22,0.18914420097150783,-0.015643967510707714,-0.0029384492296708246,-0.9704052396245524,0.594096294469563,9.264564792491049
2045000000.0,22.22,0.21491401781373937,-0.05417098214309135,-0.011913481739087978,-0.1677474250495743,0.04934163864801633,9.592709890258499
2050000000.0,22.22,0.16649545481716876,0.03835578806698077,0.001597041086842067,-0.33550311492613116,-0.0009809601812096006,9.641268079637582
2055000000.0,22.22,0.1655872617781253,0.030989983820196194,0.0012988653654184181,-0.9915976739454768,0.15715691848636917,9.695615639495456
2060000000.0,22.22,0.22055890591636892,-0.01249116360295778,-0.0036198345811257115,-0.8275704796352048,0.8413086810031868,9.279080839361608
2065000000.0,22.22,0.18811576277972442,-0.012543829677419429,-0.0033323527877947966,-0.40201195493321956,0.3259834521795345,9.272608440660884
2070000000.0,22.22,0.12902495705234113,0.020349993743316842,-0.0031939525311496,-0.7651820103633202,0.1342003175128032,9.34775312165813
2075000000.0,22.22,0.1493488368012647,-0.01518368880644996,-0.0031939525311496,-0.9422510239570102,0.2761522657833227,9.408771241826312
2080000000.0,22.22,0.17683407697359382,-0.03936703178478672,-0.0031939525311496,-0.5411175395232755,0.6831702584692025,9.376397797992478
2085000000.0,22.22,0.15633826820856778,0.009561696701994582,-0.0005429587447010661,-0.31450787102477873,0.3156836130743361,9.44183106448761
2090000000.0,22.22,0.12331679537551364,0.024610909811062842,-0.001746036195171391,-0.7269232327658324,0.14518759404257595,9.344220631659606
2095000000.0,22.22,0.16291537524107375,0.026431445141405475,0.0021825563110099504,-0.9750166731643667,0.7870596775074968,9.232092452378524
2100000000.0,22.22,0.1548908923349164,-0.016832181219105773,-0.004471573384973712,-0.6023318789210188,0.6749266131406662,9.305766489479764
2105000000.0,22.22,0.12159257472038926,0.009336659689870585,-0.001341433438933057,-0.6243090541935906,0.2517227191934272,9.282810354677403
2110000000.0,22.22,0.0957043334747284,0.0017284806123936923,0.0016608642119944187,-0.9862991623213917,0.4018189114949891,9.438790501652804
2115000000.0,22.22,0.12089318820149968,-0.03601225507181338,-0.001969626353067516,-0.6863054637704546,0.8183520897415208,9.372963883779938
2120000000.0,22.22,0.11862926856065571,-0.03609195896683806,-0.004812230751555608,-0.17383101754181018,0.4748015292926152,9.160184611717046
2125000000.0,22.22,0.07110883052899361,0.02369752611163376,-0.0013307911570533265,-0.32127902719629026,0.1128137617327376,9.19932803658248
2130000000.0,22.22,0.1029701530722775,0.059949017068246395,0.0031513844576349665,-0.8621053651070536,0.5836981029520811,9.369139386081194
2135000000.0,22.22,0.13875343905644297,0.024048997649197573,0.0011498049088196202,-1.0130786585301865,1.018475609973656,9.188437072965971
2140000000.0,22.22,0.09685989957130228,-0.019091271964957416,0.0,-0.7561533035904331,1.0802770337322705,9.01185785962988
2145000000.0,22.22,0.012726726351726877,-0.07067141825895201,-0.003023626482869505,-0.3925946167660462,0.36581069193080695,9.261720808226109
2150000000.0,22.22,-0.00638785974011235,-0.07990112783411345,-0.006494383743326881,-0.07847874716488748,-0.26487208805852086,9.350891832955318
2155000000.0,22.22,0.05487665237670934,0.015179696721793257,-0.0008410332817075233,-0.1458756627406566,0.06857487193854872,9.400040476724605
2160000000.0,22.22,0.12804742388382395,0.12237801480205793,0.002129301687433,-0.6160705173245051,1.0049409311841093,9.567497681063577
2165000000.0,22.22,0.15305631794314756,0.1569635911034261,0.0028426223165619394,-1.6457309827235098,1.061342091741321,9.52825612715956
2170000000.0,22.22,0.07360803671763172,0.062396289957345794,0.002491278399917783,-1.9176578727077787,0.9156653578503535,9.06208290242263
2175000000.0,22.22,0.0001010180400208352,-0.07584910580343976,5.321878742911221e-05,-1.7358787818049881,1.2375336545850364,8.925138506961186
2180000000.0,22.22,-0.06613364890858334,-0.2162929963734439,-0.006515699927216754,-0.7357436484173367,0.5713287259194872,9.343046540633066
2185000000.0,22.22,-0.1011197151375599,-0.2382440422603378,-0.01025259223098925,0.7766644481195446,-0.2912615737832157,9.375710069210902
2190000000.0,22.22,-0.05988506953602363,-0.057376558268724315,-0.0020653626218026487,1.3781089701524898,-0.6841505485293056,9.440752791067428
2195000000.0,22.22,0.07916142164032412,0.19401920882665702,0.007740044023372785,0.42957303572613026,0.37612367123683665,9.216002155061721
2200000000.0,22.22,0.19366204931144412,0.2850645849136352,0.0068137375740710895,-1.1104987089805871,1.8128930424185303,9.087984598253046
2205000000.0,22.22,0.10385232018676635,0.16055857723836023,0.0017460087910584408,-2.3690216540722164,1.46560800387288,8.824583144378632
2210000000.0,22.22,-0.05531041112211316,-0.027711380312312947,-0.0006175021480547785,-1.9619935610102357,0.9195895287797953,8.853723088770332
2215000000.0,22.22,-0.1411462318777653,-0.20108694211313843,-0.00531264039482027,-1.2768690837153909,0.3615922115808221,9.437615497707656
2220000000.0,22.22,-0.16106245063364422,-0.2581333671277225,-0.0085172067497323,-0.16597687767856883,-0.07965728624167286,9.466647843958178
2225000000.0,22.22,-0.09544107795400736,-0.12255952991857057,-0.004418268169188238,0.9962081362952815,-0.13145434574364345,9.26162108643591
2230000000.0,22.22,-0.005129905691606977,0.09152425195493123,0.0029597622515476546,0.9052638545749385,0.16167148553461488,9.212178123534182
2235000000.0,22.22,0.0762533168329154,0.24219053794610718,0.008080714038006765,-0.3426711576070115,1.294142319599723,9.110546565878066
2240000000.0,22.22,0.06225121895903217,0.215528679938445,0.0062601186294164,-1.901576578322366,1.5911780841618808,9.151161139658312
2245000000.0,22.22,-0.05343904031551239,0.027483007030859277,0.00047906921727491024,-2.2450156655819566,1.112355420329254,8.956037101646272
2250000000.0,22.22,-0.15233267876698192,-0.13635428440311934,-0.0026616318523108562,-1.5009261540875616,0.6916017222337172,9.074253408876935
2255000000.0,22.22,-0.20581459931408289,-0.20049134509550015,-0.0037156361981302843,-0.5453331257270313,-0.00794912224619121,9.437612224797322
2260000000.0,22.22,-0.17299588450221104,-0.1477254253723495,-0.0022144546985317995,0.31549254115182546,-0.22602121475971212,9.35638502932875
2265000000.0,22.22,-0.08633238661785524,0.005606926874765342,0.002001562684745813,0.6019410720611108,0.11458273577592736,9.373063391908333
2270000000.0,22.22,-0.020012719488782454,0.1428333283227061,0.0047483475481554654,0.10633616716546168,0.6998488832700888,9.412498270895682
2275000000.0,22.22,0.004631149642930757,0.1891429755791438,0.0053232542185827,-1.011417098102071,1.0741945581085455,9.313613646486836
2280000000.0,22.22,-0.057352053030537906,0.10464920131282125,0.004386351863592502,-1.8423188857252888,1.067720887148909,9.145273115698332
2285000000.0,22.22,-0.15013699244737594,-0.05547461210923707,0.001820538492355691,-1.6442508600130088,0.8159925156296253,9.142038742185187
2290000000.0,22.22,-0.209068011115933,-0.15936650796478644,-0.0013414745451025435,-0.836396285391263,0.05198921915729221,9.31596804415598
2295000000.0,22.22,-0.228276349736656,-0.1228651588502987,0.00029814093928022143,-0.1075156385846564,-0.23857706027417064,9.3267600240867
2300000000.0,22.22,-0.16532756386764655,-0.012566016520735267,0.003619793474956257,0.11183359792733598,0.2707586358096864,9.376397642602077
2305000000.0,22.22,-0.08600529693085425,0.054445609731389705,0.0018950882197354775,-0.002355116349751163,0.591248386596984,9.18392409866934
2310000000.0,22.22,-0.08011010947449772,0.11502696837854828,0.0044076691014866805,-0.4000554343872544,0.5829106038208061,8.978897069213872
2315000000.0,22.22,-0.12781334271958988,0.11816261167868997,0.0040243509090077696,-1.2266465368809654,0.5686848456441485,9.167839288576094
2320000000.0,22.22,-0.17324848032406248,-0.0008173817179262383,-0.0003832791943181046,-1.6151161017759612,0.49010809569538094,9.455663160505733
2325000000.0,22.22,-0.20154292495486403,-0.08660856169187833,5.324724554644925e-05,-1.0648724742575248,0.4252617387469174,9.6123298999704
2330000000.0,22.22,-0.2410860561572108,-0.09978886074024586,0.0014053292903852769,-0.4775486276421863,0.0698457517614575,9.806664554742547
2335000000.0,22.22,-0.25725849294576253,-0.09557275482060312,0.0,-0.08907371149023713,-0.053169020781090204,9.602711933371019
2340000000.0,22.22,-0.21032108771613128,-0.07257062250388807,0.0010220796081888872,0.20679679987446797,0.1459732090652321,9.233172454516923
2345000000.0,22.22,-0.1946751956280456,-0.03176108481205413,0.002863905826317072,0.600667803110778,0.04178814036418141,9.412402385306024
2350000000.0,22.22,-0.19803005992705228,0.039094170206687984,0.0027681021013037806,0.5768241657418417,-0.23838167626801676,9.621647360956974
2355000000.0,22.22,-0.14753609856310346,0.12562923309991314,0.005802371920057427,-0.21906082221480822,0.14852641904126418,9.494215596826457
2360000000.0,22.22,-0.11837884619943798,0.12685592090432274,0.008389428748884244,-0.8322816835247168,0.7647902128896021,9.412106308319663
2365000000.0,22.22,-0.15960300984870637,0.06357129403662283,0.0038859506523625923,-1.093619902494899,0.9554903250170033,9.30527389219494
2370000000.0,22.22,-0.2383412612367273,-0.05765506825611222,-0.0005536284306937784,-1.1022486537979865,0.23210188397001882,9.11839615086016
2375000000.0,22.22,-0.3198403772410633,-0.14301222375461414,-0.0010646308176339293,-0.4340886710833868,-0.23053564584135647,9.42986494497085
2380000000.0,22.22,-0.315916181729995,-0.1273125576779905,0.0018737804678803538,0.25898561800255615,-0.39711004817340045,9.786847752798979
2385000000.0,22.22,-0.2602856269477499,-0.08021865405587952,0.0015544002870275721,0.607927506704775,-0.5600521124620211,9.632830380833203
2390000000.0,22.22,-0.2134102162494035,0.03636706906450285,0.004833550097458487,0.7579174896668749,-0.31509469316434696,9.496865449920355
2395000000.0,22.22,-0.16244583985596073,0.150203035426632,0.00952859980785895,0.07219769231987691,0.12488190476001905,9.610170439560004
2400000000.0,22.22,-0.1455083174511403,0.140188098229432,0.00617499513043936,-0.7004368902614689,0.2648709323424093,9.602027254126071
2405000000.0,22.22,-0.1955177026324524,0.0754370492839765,0.008772702673180628,-1.1814181598572815,0.43487762699967625,9.519330774427507
2410000000.0,22.22,-0.26646118427719584,-0.05571508663920884,0.0037901163612233113,-1.0163122550913226,0.3139153188641532,9.695026612754566
2415000000.0,22.22,-0.3336756338642151,-0.1649490777494517,-0.0024699695940584017,-0.24269574113875741,-0.5755550923323509,9.65617901236609
2420000000.0,22.22,-0.3411047738714541,-0.10937939116525736,0.0012350000800921738,0.40024823502798235,-0.8825043566138435,9.634597529039175
2425000000.0,22.22,-0.27862568257677134,-0.03344464678301196,0.002448707164390119,0.49148260149232603,-0.34776558336245583,9.709938565232585
2430000000.0,22.22,-0.20033785960036118,0.024883096619035143,0.004705772096610406,0.7159317704071178,-0.4887324536061246,9.759182453606124
2435000000.0,22.22,-0.18164900215766885,0.1413984807421206,0.008006194876752963,0.20904575544425752,-0.13194284460662842,9.490391808096419
2440000000.0,22.22,-0.18714474646824114,0.14461523385813288,0.010561290077797164,-0.777737700487377,0.16677,9.793519721334798
2445000000.0,22.22,-0.20976682805778565,0.015374156722269786,0.0018950681936528678,-0.9093855752642558,0.13007898529948986,9.864738755193788
2450000000.0,22.22,-0.2928351375247667,-0.07296726426162992,-0.00010647024899294451,-0.5993886681727867,-0.21778447459214476,9.690318856589588
2455000000.0,22.22,-0.3474010465950868,-0.1260819077330149,-0.001160474594812323,-0.1058466097053661,-0.7130908551026086,9.861601267596013
2460000000.0,22.22,-0.31877201628477075,-0.12024142384519299,-0.0017885926746381941,0.5336654334764543,-1.0484909364806094,9.972452739914127
2465000000.0,22.22,-0.2227299504091926,-0.0012840580384967338,0.002800078485147247,0.7707693538962935,-0.680714798767648,9.810686747879668
2470000000.0,22.22,-0.2081324670269694,0.09442297942390514,0.011583390766072977,0.2884111213928112,-0.4485113768821138,9.838646735257168
2475000000.0,22.22,-0.18216099112723422,0.08628799677558328,0.009422144314926785,-0.276152605699826,-0.10251493266514933,10.12833397118704
2480000000.0,22.22,-0.20509047927003285,0.04381170713436402,0.006302722539078765,-0.4940320335392203,-0.1930616189074162,10.013261658527217
2485000000.0,22.22,-0.2700568040760869,-0.006528252652448946,0.004162769083726816,-0.5758465173185652,-0.36022435843544354,9.716315224022152
2490000000.0,22.22,-0.28765575311967606,-0.08071085640920599,0.0009794577804526092,-0.4673451111621511,-0.5958611895147119,9.8606199869221
2495000000.0,22.22,-0.2894398347593868,-0.1196719925891123,-0.003161997227393047,0.19198446235574462,-0.9500977730642778,9.936548515376186
2500000000.0,22.22,-0.25780237810844736,-0.05007303748864547,1.581006518729117e-08,0.7455574749059748,-0.8044216510230165,9.839431408225515
2505000000.0,22.22,-0.21666165110195496,0.041677176876946484,0.0031620288475234216,0.24053866985578676,-1.1346262543250627,10.121076511041965
2510000000.0,22.22,-0.21102947873237726,0.08750230973959251,0.008410768120869726,-0.08181700887337015,-0.3880797972083979,10.037395361216353
2515000000.0,22.22,-0.169597445520982,0.049158218563593835,0.00541905688959161,-0.4403727074817271,-0.21101226953542268,10.244976474718865
2520000000.0,22.22,-0.21432946380697743,-0.022628909619763007,0.00021290360783379324,-0.22523642524856427,-0.6768924473988245,9.780567552601175
2525000000.0,22.22,-0.27190775508629705,-0.0255690735417169,0.0030342708727579587,-0.26241774522547745,-1.1252092560743927,9.9659800789921
2530000000.0,22.22,-0.2758377744379026,-0.06961967328375981,0.002193175404794006,-0.11732681372456813,-1.0278911611512116,10.281077821693078
2535000000.0,22.22,-0.1887214579019823,-0.06351998830163891,0.0011391710589746216,0.64932798686468,-0.7465395228199952,10.245759904563998
2540000000.0,22.22,-0.20176575375876848,0.03908127168163658,0.006941555627084225,0.5889917586261176,-1.0057227294300273,10.016008766588687
2545000000.0,22.22,-0.19959513366684217,0.0818693942796723,0.010359068804008288,-0.15323625355286252,-0.8336527124614272,10.157078689804287
2550000000.0,22.22,-0.17140862986299862,0.000856483361213814,0.0020227882242619174,-0.30509144577621444,-0.5140423159565233,10.234773346714833
2555000000.0,22.22,-0.18063763334164215,-0.033168900826987646,0.00011710620684660784,0.06151083399580831,-1.0918564739466647,10.259101899255619
2560000000.0,22.22,-0.2262249445341396,-0.010903973240731675,0.006558286972809571,0.090644300550143,-1.1328586011002861,10.287158549174785
2565000000.0,22.22,-0.17662804289955958,-0.017656508410980626,0.0028212977006372812,0.105359499644095,-0.9489202537370025,10.350433248754333
2570000000.0,22.22,-0.15823288656698895,0.010133206022676249,0.0012136965442544724,0.27664299838332995,-0.9643232495958325,10.199063651535836
2575000000.0,22.22,-0.1701801555557804,0.03573399604113221,0.005589444070123699,0.04561494949514949,-1.1462995503419955,10.298048250244282
2580000000.0,22.22,-0.16183174981371226,0.006305324201937003,0.002810656472761894,-0.22249215306192155,-0.8393415453504155,10.361322250567023
2585000000.0,22.22,-0.1456462426282857,-0.02210612755930261,0.00036197038845867417,0.05268165821041659,-1.0029758058946583,10.271461797473718
2590000000.0,22.22,-0.17070140416086887,-0.012651106170621871,0.0017460383031800827,0.14989700123057,-1.3312187607674875,10.21927299876943
2595000000.0,22.22,-0.14922669763727303,-0.00871948493975588,0.004716419648511921,0.06955234554762346,-1.059281683000017,10.37113300809523
2600000000.0,22.22,-0.12314681521344657,-0.009368932905528099,0.0010646234396035487,0.27664346455453465,-1.0908727070263269,10.384865848494359
2605000000.0,22.22,-0.13002117203319774,0.04343373723639593,0.005046477947392218,0.1087914326290143,-1.087340197604002,10.285980592812006
2610000000.0,22.22,-0.12899900283463947,0.012655434188926007,0.002235739262291268,-0.3182388334136883,-1.1632703576573036,10.41429701392237
2615000000.0,22.22,-0.12208940778133343,-0.04593493132906653,-0.0030342824668057452,0.06916380156043811,-1.1265799936540999,10.434798747620286
2620000000.0,22.22,-0.10985653637535339,-0.018362676272879942,0.002214517938792549,0.4469451776010518,-1.2352760651360608,10.42803
2625000000.0,22.22,-0.10492482014900993,0.015450671165586492,0.002661616042245644,0.2109128585260286,-1.304730203949902,10.398599796050098
2630000000.0,22.22,-0.07758842330838442,0.04602345159031126,0.005280690361085425,-0.10987353253783533,-1.0894970163775701,10.381530548915405
2635000000.0,22.22,-0.06739535991238248,0.02477299214577905,0.004056303050751284,-0.4728440472685405,-1.1250116189074162,10.464916214180562
2640000000.0,22.22,-0.08858399303435607,-0.043676234901791525,-0.0014053725045634988,-0.1267419181547192,-1.287465271740153,10.616775271740153
2645000000.0,22.22,-0.07726959518390614,-0.03125911392917188,-0.00168213718170612,0.292830298158303,-1.2784387889923878,10.545062426608824
2650000000.0,22.22,-0.055077249066947366,0.035898328951586955,0.0011711326867572486,0.09711678665796786,-1.2900152573653527,10.35935897053859
2655000000.0,22.22,-0.04091604106420933,0.056386858952667145,0.004333145724215522,-0.3746465300796653,-0.9053618573588187,10.286962096859622
2660000000.0,22.22,-0.030764519193325537,-0.008348054464882008,0.004599286037552292,-0.6298027750096278,-0.6192063733230637,10.274209148332693
2665000000.0,22.22,-0.09121908642226127,-0.14254831839419002,-0.0014479700901997797,0.4601960552459604,-1.660056792894968,10.185624227062442
2670000000.0,22.22,-0.08734786240501226,-0.12427177217715862,-0.0042586033748661,1.9137419568934195,-1.6665185473531856,10.227710474200105
2675000000.0,22.22,-0.031152944157811273,0.020298192401666484,-0.0014904886255101345,1.7937537717614376,-1.6990944940159447,10.4559900068013
2680000000.0,22.22,0.017982713719220427,0.15724015489770765,0.0061324397049768746,0.539542191632322,-1.7634447671074476,10.48649702738637
2685000000.0,22.22,0.08442444415852957,0.2093900108086029,0.011594064668083059,-1.1088337396755374,-0.7737068249115682,10.756667607645175
2690000000.0,22.22,0.07964117310942836,0.07938304919029199,0.005514828994474436,-1.8509515315003153,-0.1161494594995946,11.035466036000361
2695000000.0,22.22,-0.021333334994142264,-0.13250757519648965,-0.0028320053307865556,-1.0952794331358944,-1.1800547936097479,10.604409507534395
2700000000.0,22.22,-0.14529581878832037,-0.2433096203215647,-0.004684458020729272,0.7926602195127023,-2.185670517324505,10.537904202658941
2705000000.0,22.22,-0.03171587289822875,-0.16526434817729385,-0.0042586033748661,1.95003400673794,-1.2743090171378901,10.517495518675855
2710000000.0,22.22,0.0735456625719947,0.02433625753141684,0.0006814222416070105,1.567044294065643,-1.073415411211354,9.81411488351165
2715000000.0,22.22,0.06695884717457444,0.1687834647986196,0.007292886895676228,0.4069116279560161,-1.3526996870807968,9.621650109424701
2720000000.0,22.22,0.08215070840242542,0.1506667135195289,0.0060045963558594,-1.0622354117360542,-1.0963640678506406,10.460605645593857
2725000000.0,22.22,0.09597741238506748,0.005486355395368639,0.0002661339893107466,-1.4258801654191018,-0.5071724480324244,10.846915623823756
2730000000.0,22.22,0.061846787072449116,-0.11770753104740561,-0.0038540533188450225,-0.4908858246551584,-1.1976155114488551,10.546729144055892
2735000000.0,22.22,-0.018290865833679927,-0.11494418824224967,-0.002501900655715011,0.4482227780588278,-2.0935519406277194,10.695551834321519
2740000000.0,22.22,0.044063697715818376,-0.037798505420498854,0.002214496858705632,0.8103062661060627,-1.401253321578733,11.028795038654552
2745000000.0,22.22,0.13405393477810193,0.02224968307215452,0.001543714790969681,0.9289099130482992,-0.9751161327332614,10.620006741395168
2750000000.0,22.22,0.12836026882304244,0.08202217746234172,0.0026616676884586637,0.5787851926094519,-1.1232445192609453,10.099394198768241
2755000000.0,22.22,0.11275434950419679,0.09325193000349119,0.00430116617835898,-0.5115987241968872,-1.1896599307890994,10.381534559930145
2760000000.0,22.22,0.10805908204686573,-0.0076732824032193225,-0.001959004097270367,-0.8950610761993107,-0.8856420287377204,10.624620952538411
2765000000.0,22.22,0.1290736200182974,-0.0802123069799391,-0.00488672988672679,-0.23298347198943475,-0.860440094733101,10.31629211284812
2770000000.0,22.22,0.09755403059989974,-0.061337344508268214,-0.0031939525311496,0.3871053440002534,-1.4297104222746044,10.09684407717644
2775000000.0,22.22,0.1002426864843233,-0.013212617033291615,-0.001756656342959922,0.48068784395817843,-1.2169266730257668,10.157765631921956
2780000000.0,22.22,0.16140320918464326,0.017725452442165356,-0.0028107133889966242,0.3382497179687972,-0.88133099397981,10.245171276011012
2785000000.0,22.22,0.16251035221356153,0.02517295016404682,-0.004556682127889909,0.3346178558084786,-1.034563790096238,10.199554937714149
2790000000.0,22.22,0.149159565854249,0.047830369581917435,-0.0007878239803174609,-0.11536982700739831,-1.1534597458075975,10.261064829655648
2795000000.0,22.22,0.14965673790718104,0.009360945073117688,0.0006281381059084418,-0.5229706113943061,-1.0190610627353107,10.405369388605694
2800000000.0,22.22,0.16426685712547087,-0.04452688129061069,-0.0012775987197328497,-0.14125943152219433,-0.9319513596660137,10.46138405438664
2805000000.0,22.22,0.15853923379403934,-0.03155600246938656,-0.0019482933051081159,0.39907145380511455,-1.0944038179350382,10.451966182064961
2810000000.0,22.22,0.16064330527836254,-0.010738407628997654,-0.00445030568528378,0.45224072709560725,-1.0810614541912145,10.40193501793385
2815000000.0,22.22,0.1818366496442531,-0.0008133637324086174,-0.0077718918186860326,0.3165671143380711,-0.9077176049820761,10.235948340948084
2820000000.0,22.22,0.20167551021769706,0.026414392042240498,-0.0006813705953940495,0.003137118545571166,-0.8609278457797784,10.032883309550233
2825000000.0,22.22,0.19057071996526145,0.005323135116091577,0.00037263375042532885,-0.28007621333906213,-0.9775642502383425,10.17591508514495
2830000000.0,22.22,0.1954742329359744,-0.00815521949720406,-2.1310913868122098e-05,-0.26624180588871804,-0.7795036444177365,10.298143621103238
2835000000.0,22.22,0.20496574474993037,-0.007803896660646819,-0.0017779609328019141,0.047776847592468474,-1.00287800706068,10.048873224667632
2840000000.0,22.22,0.19809294343324851,0.01363909024147569,-0.0020867336139184247,0.16912202796552028,-1.1250093657465938,10.009731489672815
2845000000.0,22.22,0.23587894846587845,0.07293718237284366,-0.002938412339518698,-0.3670947313783473,-0.808635702746557,9.953813826350038
2850000000.0,22.22,0.26972657713651127,0.08639004888026115,-0.00031940126093972114,-0.92214,-0.46695555713735554,9.888480553578306
2855000000.0,22.22,0.24760355352469118,0.04352062135459952,-0.0004471413176313008,-1.0074886636484865,-0.30106673725696736,9.974219732729697
2860000000.0,22.22,0.209512548697255,-0.020236101454902036,-0.0016183235425928867,-1.0983252112610522,-0.19973504422825047,10.051719122176891
2865000000.0,22.22,0.15908990149196822,-0.1290572471493469,-0.009667053818725752,-0.5244369237828692,-0.9369593883581939,10.101159909613001
2870000000.0,22.22,0.1364231041309063,-0.1310843275212077,-0.010838103239139703,0.3871065579877656,-1.4196960644727608,9.961073442536934
2875000000.0,22.22,0.21652155357001657,-0.018107354432936217,-0.005855591761490927,0.7332936468036364,-0.6842519116306192,9.991487345423874
2880000000.0,22.22,0.2672993179065542,0.06523403969821084,-0.00489733317044571,0.19502207277292072,-1.0535889653509898,10.229866321783664
2885000000.0,22.22,0.2813675098702648,0.14896808910076137,0.0029490767554897065,-0.25840425395084254,-0.3081302507571025,10.096454241506544
2890000000.0,22.22,0.2988263406474038,0.12013846958191017,0.0004896967430937141,-1.4195061579782617,-0.07396779294347794,10.282054168721743
2895000000.0,22.22,0.2569325137819307,-0.018969134373332884,-0.0053232542185827,-1.168759688694497,-0.12546984376809844,9.807055313042953
2900000000.0,22.22,0.19217781860347402,-0.07690637777007625,-0.0053232542185827,-0.6082185917744859,-0.2982291822698918,9.653042253160823
2905000000.0,22.22,0.1413239331227495,-0.10696802405731773,-0.006132413354868256,-0.3225500915453009,-0.9960085664601857,9.940864610034046
2910000000.0,22.22,0.17410702963746663,-0.09738368124257267,-0.008623641162577451,0.1665772479187725,-0.8432660173487602,9.799600439104605
2915000000.0,22.22,0.2708020504968507,0.03425546315970435,-0.003534616221757518,0.5505335762958358,-0.5746683278701834,9.65617897351849
2920000000.0,22.22,0.2858697019432545,0.12199655583868753,0.0,-0.07259768663727686,-0.3582610298475103,9.687965925417359
2925000000.0,22.22,0.30354674768074974,0.133695402862837,0.00015970379248289804,-0.7185867610961676,-0.20698611394306113,9.980201738746917
2930000000.0,22.22,0.28915813729006945,0.07201230325277136,-0.00012780751296974022,-1.3068866633831668,0.42359221456072216,9.717589629264797
2935000000.0,22.22,0.230128914116502,-0.03845631989998055,-0.007729377499393023,-1.020433577592736,-0.16657642240726422,9.69228
2940000000.0,22.22,0.16336198350896627,-0.10255690592531506,-0.008559743203116496,-0.5889905155029053,-0.5685880568477806,9.732306741603068
2945000000.0,22.22,0.15013274090486262,-0.09634999765129292,-0.002235828852660663,-0.23936056781450565,-0.6193043275474434,10.033374100421641
2950000000.0,22.22,0.21614368699903183,-0.0799999786856905,-0.011072331462898138,0.3207891201077912,-0.48461480220294806,10.066039338293894
2955000000.0,22.22,0.2728035204292141,0.03466813563239565,-0.0049399549981820065,0.5732915786243158,-0.5799653632854536,9.803819298218693
2960000000.0,22.22,0.27786369794496063,0.13614815432829588,-0.0009794725365134527,-0.24015345705033456,-0.22052339552183398,9.75231800492228
2965000000.0,22.22,0.32215037294106613,0.1138328774728029,-0.000521722665141494,-0.9602018785349188,0.5941888780131889,9.88141703036627
2970000000.0,22.22,0.2796668005099499,0.01137033327360466,-0.007069244037562863,-0.8089320808018209,0.12360369245253693,9.892597719386476
2975000000.0,22.22,0.18748314282271372,-0.012990761766548757,-0.0010646508437165,-0.7470339847896399,-0.24623111557161115,9.515211753646417
2980000000.0,22.22,0.16917225465595415,-0.059657064395825556,-0.0013202047374038745,-1.1093091274733915,-0.2546660950439609,9.869643468692734
2985000000.0,22.22,0.21505386020751113,-0.10801264366939327,-0.007228935181993618,-0.1675510892772109,-0.013931011720610117,9.647152840399128
2990000000.0,22.22,0.21105083602243663,-0.016560619781285684,-2.1299319820318e-05,0.4263381280584813,-0.14675748384567483,9.453307354611074
2995000000.0,22.22,0.21781197706905409,0.05937820582673801,-0.0011072621314092879,-0.3164721125313211,-0.12350551485445516,9.28143789809138
3000000000.0,22.22,0.2673845236178702,0.03195713680834053,-0.0053232478945566255,-0.5689803496284035,0.2746808157996081,9.397980291357003
3005000000.0,22.22,0.28108658011352267,0.058324524213593576,-0.0042692435487371476,-0.6272517502111176,0.41064741715927416,9.446539791842598
3010000000.0,22.22,0.21650211505167188,0.038749679391742876,-8.514668707267428e-05,-1.0989190648162908,0.017851802908817993,9.629693310847133
3015000000.0,22.22,0.17798687741460056,-0.03604464846124511,0.0010327176740512103,-1.0990142414372424,0.1715778955668789,9.99501882538479
3020000000.0,22.22,0.1942119698066856,-0.07208998774458447,-0.00404570503705404,-0.5807487737067878,0.14832702402037024,9.874352778761727
3025000000.0,22.22,0.18178730333790555,-0.045159343077854575,-0.006281452731380129,-0.3820983836170838,-0.14175632146686323,9.272408239552282
3030000000.0,22.22,0.19110314499053044,0.022416034418210225,-0.00038323598013993883,-0.42810875312468755,-0.05552395260473954,9.324013129687032
3035000000.0,22.22,0.21354100030520343,0.049422984749002564,-0.0019802633649254483,-0.7874509990981101,0.2337741274882413,9.502653820073439
3040000000.0,22.22,0.24164380059582635,0.04426569365730114,-0.0011498165028673974,-0.7420279276131793,0.561918807643988,9.58790207238682
3045000000.0,22.22,0.2003151634483225,0.03010439627153882,-0.0010646508437165,-0.7714586365818864,0.4100568170905682,9.656670114018302
3050000000.0,22.22,0.15286611843558198,0.0009597445298277392,-0.0029810352212593094,-0.9162549478814495,0.11869916347969162,9.477439755905598
3055000000.0,22.22,0.15470655357531884,-0.03720402578569716,-0.007931680985520967,-0.9144880813205808,0.3764116582104166,9.159987382449874
3060000000.0,22.22,0.18083792685876132,-0.0490493887444458,-0.0028958115918693373,-0.4116241526639415,0.31705854619488544,9.390918642541687
3065000000.0,22.22,0.1500027815297089,0.008325976961558054,-0.0039818070775930765,-0.14705053071920532,0.15901908792289085,9.512757595339476
3070000000.0,22.22,0.17327858325837817,0.03719520313000858,0.0003194276110483523,-0.7251594934367951,0.23857991557279917,9.517073340368935
3075000000.0,22.22,0.18242620915221092,0.020565071969461196,0.00015969114443074818,-0.6822844846208449,0.7220193447783936,9.549054238912742
3080000000.0,22.22,0.16532373997443744,0.005411134301778026,-0.0053658792083319485,-0.616067700873477,0.46656114716251146,9.505497241048172
3085000000.0,22.22,0.13008770704241687,0.0005429524206749911,0.0006814285656330356,-0.9013449572072496,0.39406764007757644,9.186670322947904
3090000000.0,22.22,0.14191704716533043,-0.025331897768887265,-0.003108819546133404,-0.6235210791792108,0.4647983401758834,9.380716320625364
3095000000.0,22.22,0.13558181028550156,-0.011905968917062304,-0.0033962296671688342,-0.4540060786000608,0.25819751673347513,9.508735441049955
3100000000.0,22.22,0.1305959870052468,0.01300285987033271,0.00021295630805105627,-0.6749298666271987,0.4492998666271987,9.321460434441704
3105000000.0,22.22,0.1417461342785323,-0.004606449794073198,-0.0006175105800895451,-0.6350005159583052,0.6263694046634941,9.355699563419897
3110000000.0,22.22,0.12659661482427925,0.019262736942687618,-0.001895085057722401,-0.45518279183962795,0.4583216293915163,9.324796977143869
3115000000.0,22.22,0.11980043392154777,0.038355615538564515,0.001149849177002118,-0.9936595588955954,0.5910540126284402,9.173722310907523
3120000000.0,22.22,0.11041015426600376,-0.019982425606892527,-0.0002981219672019736,-0.9288088607277886,0.7592949090338491,9.230033587829336
3125000000.0,22.22,0.09321355334240597,-0.050601550671818034,-0.003460135004660184,-0.34579831174308306,0.6106709825156099,9.282712682098127
3130000000.0,22.22,0.06713356235613185,-0.01570170562686899,-0.0003193622627789515,-0.3798449023018491,0.20090588176825885,9.19569700964557
3135000000.0,22.22,0.07598933105997027,0.02042228933553366,0.0002874491191962067,-0.5013895262552953,0.4651934882551349,9.291444496085045
3140000000.0,22.22,0.11653802652090242,0.04640636276432511,-0.0007665552266231718,-0.7671441346756414,0.8483708736849087,9.317930217027802
3145000000.0,22.22,0.10197620119426025,0.016959045899269942,-0.0010646508437165,-0.9120361276149612,1.0532025774056257,9.079839684100897
3150000000.0,22.22,0.04953382407063281,-0.0500634892978342,-0.0025551753053744274,-0.6504004914162049,0.7553669407514694,9.109567101329473
3155000000.0,22.22,-0.005532509537242922,-0.07832013270208703,-0.002459336798217724,-0.1506781682029817,0.14793063281790625,9.297919225641792
3160000000.0,22.22,0.010227231262225436,-0.03387221867841455,-0.0014053324523983144,-0.040417752412877525,-0.1522520593089206,9.392094306896043
3165000000.0,22.22,0.08053000574740019,0.07108105348853026,0.0025019628419713866,-0.33158045905310457,0.33619367958253676,9.447226568857966
3170000000.0,22.22,0.1441502321085653,0.1610685270723704,0.0035559271356256574,-1.1214854804915548,1.3688947272401473,9.460175338426554
3175000000.0,22.22,0.10828580648538982,0.0991774909968201,0.0031939525311496,-2.3289023871969237,1.013365722873257,9.176271286495114
3180000000.0,22.22,0.03178756786347724,-0.018705740259679783,0.001149802800810938,-2.029877664342477,1.2737369473745694,8.987529229393893
3185000000.0,22.22,-0.036955152119717324,-0.15925619324358148,-0.0033536837277455154,-1.1046010508157107,1.0547652609788527,9.23827592205136
3190000000.0,22.22,-0.125845872997644,-0.2500815702000273,-0.005983344466234657,0.019039888783398906,0.03118892222658931,9.312828332533083
3195000000.0,22.22,-0.11443024152008754,-0.17074506003598341,-0.005089017562789469,1.1281562059041619,-0.4843207550037076,9.284576648236166
3200000000.0,22.22,0.011286284357976406,0.06050884971409494,0.00021297738813801266,1.1575762706303627,-0.17265202200572027,9.311652124312321
3205000000.0,22.22,0.15269429756723685,0.27439006634553714,0.007591007808873919,-0.12548116784361163,1.4675909407871095,9.099557434375376
3210000000.0,22.22,0.14470316137152384,0.276555395076466,0.01126401269322887,-2.122309304138893,1.9720011496177114,9.32225091512631
3215000000.0,22.22,0.006772766662715618,0.05870366735662866,0.006249439457384534,-2.727961302939013,1.3419065902815657,9.046187280143274
3220000000.0,22.22,-0.09744910737010504,-0.15945152713461203,-0.00025554335364390843,-1.848981482277515,0.8271758851342588,8.770141563615915
3225000000.0,22.22,-0.17150794114168716,-0.2434657194364636,-0.002129301687433,-0.6641291071387911,0.0912271116749711,9.228761571714116
3230000000.0,22.22,-0.167861081284378,-0.20003085387977604,-0.004428974745333044,0.559570305098203,-0.23897059617800598,9.362073580572636
3235000000.0,22.22,-0.07563159006265496,-0.04605670712074035,-0.004130817995987643,1.1073525486560256,-0.2031655398519554,9.267605539851957
3240000000.0,22.22,0.028722506085304685,0.17138096084934132,0.004514201536736099,0.45635339629403393,0.4736355477026556,9.136639586140396
3245000000.0,22.22,0.08263737370806928,0.27086569233325564,0.00956055089559811,-1.0280993454416933,1.3883144775720448,9.17107703211857
3250000000.0,22.22,0.019703910314925327,0.1454106464623952,0.004790880839526665,-2.1483932826222327,1.397921906759819,8.936904697302547
3255000000.0,22.22,-0.10690761673562618,-0.051564058749204264,0.0005429650687271237,-2.0092790155934903,0.8931970226541703,8.866184388937343
3260000000.0,22.22,-0.20466266941155076,-0.18757677982580961,-0.004088314216738182,-1.1469791211274913,0.156561394484314,9.607526792370267
3265000000.0,22.22,-0.21584240231036328,-0.20870917283097867,-0.00601524285375654,-0.0993676263363763,-0.28341007555680076,9.721509614365296
3270000000.0,22.22,-0.13586550626800986,-0.08829362428856449,-0.0007452211246594957,0.6515819149273192,-0.12105406616764065,9.369334672968346
3275000000.0,22.22,-0.05380117410920214,0.09070329683397625,0.005962099954640301,0.503248801545588,0.2903803256803033,9.416129326968292
3280000000.0,22.22,-0.011848504427340688,0.19933002422159196,0.00830424200964647,-0.41399028230840296,0.9551059959944601,9.456054754029548
3285000000.0,22.22,-0.020477973214503807,0.15854331394853458,0.004407640643369363,-1.5879516549830168,1.2793212705066128,9.223555264869553
3290000000.0,22.22,-0.10024127068002671,0.023202824886791054,0.0018524716620209815,-1.913141790603118,1.1077436662967366,8.953979208287093
3295000000.0,22.22,-0.1983046633078081,-0.10409469394617561,-0.0017460551672496567,-1.27519799591328,0.5207076318407764,9.109863052061131
3300000000.0,22.22,-0.2469257058265111,-0.15339684882920793,-0.0038327360809508174,-0.6474555131021551,-0.16677064098540642,9.29595497442335
3305000000.0,22.22,-0.20873687660950063,-0.09865664984216571,0.000543034633013965,-0.028837933434379348,-0.07259143217361433,9.270647355521874
3310000000.0,22.22,-0.13162862720133925,0.010698924211513063,0.006792479360420239,0.21228698555886988,0.2003207786350078,9.385815728585557
3315000000.0,22.22,-0.10771668094240562,0.10094546708727277,0.007846483706239655,-0.23730950192109507,0.3349148165777482,9.419758586339386
3320000000.0,22.22,-0.1101121313752103,0.11551394542757593,0.009283769354385928,-0.993953198195032,0.6474632243508323,9.531004954227349
3325000000.0,22.22,-0.13279117191252313,0.05284012665721545,0.008038064806157572,-1.3248394020696939,0.8377716749711167,9.552975933307659
3330000000.0,22.22,-0.18849026208328437,-0.024882491240407964,0.0028319642246170127,-1.1997626765937268,0.45145315998103164,9.21884687743107
3335000000.0,22.22,-0.23031635178710627,-0.07550337117697273,0.0014266180701621367,-1.0087591258596913,0.1406752704432527,9.102309320691694
3340000000.0,22.22,-0.2410429102128545,-0.09403958850512639,0.00034069531073831005,-0.4261410153341102,0.15892264875492648,9.456841621887316
3345000000.0,22.22,-0.2090492828237298,-0.06529369971354237,0.0013946996565576885,0.1518593197808932,0.11310689601336894,9.571910195465602
3350000000.0,22.22,-0.2119876909472312,-0.023327809378711144,0.004045715577097492,0.1765793493026935,0.04218696925356971,9.380320308187002
3355000000.0,22.22,-0.20395497813323904,-0.00192157453684429,0.006047160213356649,0.17049923367069236,0.3671861494939615,9.272904129171241
3360000000.0,22.22,-0.19144882641569608,-0.0027328453967548176,-0.0002981093191498239,0.3484517873757179,-0.038459376893993785,9.408573886304438
3365000000.0,22.22,-0.20180471775945572,0.065151115007808,0.002097440190063334,0.10476321811383216,-0.26535494430754947,9.322933826805437
3370000000.0,22.22,-0.17172168467003332,0.12531856685679243,0.008985610497031837,-0.8483719419939194,0.45302861470288613,9.430158632829786
3375000000.0,22.22,-0.16165712171710406,0.03728405509160451,0.0037262637239491563,-1.076644287789043,0.6817927711189278,9.586821254448813
3380000000.0,22.22,-0.22081189075221774,-0.025995005129897275,0.003151394997678399,-0.7067121373902214,0.33039797694487977,9.475283587829336
3385000000.0,22.22,-0.29061284042914537,-0.052953839298364946,0.005163520913978073,-0.6520699767547998,-0.06690643548516437,9.63244097248691
3390000000.0,22.22,-0.3146391366735613,-0.1161167551351827,0.00036195984841521603,-0.3229376934781769,-0.28703948060639484,9.783510695366108
3395000000.0,22.22,-0.2566382415396836,-0.09643038182836841,-0.0010113825180831134,0.5637811616066117,-0.21464464642644646,9.521880497831406
3400000000.0,22.22,-0.23265938494231114,-0.004477912460848426,0.0038327645390681744,0.6023334716726348,-0.45910892457288927,9.609878179350382
3405000000.0,22.22,-0.2220164383486843,0.0794542833482962,0.006792486738450679,0.36806511530035124,-0.3919032168862322,9.857676203171762
3410000000.0,22.22,-0.16401502067055362,0.12422595813311282,0.008133918069375065,-0.4494974455227745,0.40358492340864927,9.762321611650716
3415000000.0,22.22,-0.16002115187824462,0.0719386747251898,0.0053019180086102445,-0.8303178693417786,0.4851984873987849,9.53845893467089
3420000000.0,22.22,-0.2677708399861865,-0.015847899848240102,0.0005110540331531121,-0.7432046699884468,-0.05258299501732995,9.541992327876123
3425000000.0,22.22,-0.30908298244948357,-0.06599578963262764,0.0022357234522261066,-0.6028233690492337,-0.2550613305303133,9.756536630950766
3430000000.0,22.22,-0.306855259546835,-0.1267179736622011,-0.0024486607881989745,-0.28389280555112806,-0.4575401322145013,9.858459467914594
3435000000.0,22.22,-0.2859518652278294,-0.07864566621214705,0.0024061253888190146,0.7495792310075924,-0.680716100162261,9.640582701135827
3440000000.0,22.22,-0.26601699894067043,0.027232298930791154,0.004003072669274329,0.3331447936493479,-0.6309749236561492,9.817455466364255
3445000000.0,22.22,-0.19794281573677386,0.06460800916902507,0.0020121828325342424,-0.016479997020099973,-0.06876749776507497,9.794794165425042
3450000000.0,22.22,-0.17694715942381714,0.07958182881159528,0.0018099573427279832,0.013728907079589056,-0.015697742314877423,9.755064268048443
3455000000.0,22.22,-0.2389745905041053,0.0763169052088376,0.008133903313314223,-0.6908227501507275,-0.23553736179847362,9.808922309293823
3460000000.0,22.22,-0.274836997311547,-0.0325154718004074,0.0039178859300365194,-0.9547027481905274,-0.16088601619046014,10.00188407044444
3465000000.0,22.22,-0.2781188869976355,-0.12083034215565461,0.00022359858993082157,-0.05875900595089005,-0.4804004785462048,10.054071723144517
3470000000.0,22.22,-0.31992667547108067,-0.06640269934519763,0.003513384358215362,0.3088159691753597,-1.11225598018416,9.91163200440352
3475000000.0,22.22,-0.28752057661307695,-0.006282444618584623,0.008410727014700237,-0.07014035253900353,-0.8387516251147163,9.967450567497705
3480000000.0,22.22,-0.20406590972344643,-0.021862237277706045,0.006302718323061382,0.1063435093619351,-0.37042519443105193,9.973237791646579
3485000000.0,22.22,-0.19386181667304955,0.04310528035024965,0.004354443990031459,0.5139400108009002,-0.32540033998580337,9.891423676919436
3490000000.0,22.22,-0.22816661025992127,0.09250551406987258,0.007367354410717043,-0.32412592503125925,-0.6896406273828062,9.984028518742186
3495000000.0,22.22,-0.23731155068891097,0.031072182940918867,0.00315133702743943,-0.8211931313007315,-0.3512948101625481,9.858657328455273
3500000000.0,22.22,-0.21305281422679737,-0.056461548983576235,-0.0010646434656860792,-0.5395449692357498,-0.16677605051376052,9.819811359666014
3505000000.0,22.22,-0.2805436498787752,-0.07755891465973218,-1.0639119866700771e-05,0.17913563795105636,-1.0311351591573517,10.014049361608393
3510000000.0,22.22,-0.3031526764668198,-0.0286994971531567,0.005216826129763584,0.20561773635507735,-1.5013256725218567,10.217901231728312
3515000000.0,22.22,-0.21680086078210142,0.02293870207600215,0.010486847858860674,-0.21268380408493806,-0.521100099435601,10.079283475880136
3520000000.0,22.22,-0.1783277092966561,0.011200728423478598,0.004514075056214504,0.20758274510172742,-0.3303996376797964,10.093705336743554
3525000000.0,22.22,-0.2082075382618765,0.02886875236757886,0.002235751910343379,0.25358870540668704,-0.8735845396648454,10.010613883779941
3530000000.0,22.22,-0.25190752332005256,0.03283001461967577,0.007133197859254146,-0.3812213310550134,-0.9762917485281175,10.024642937132029
3535000000.0,22.22,-0.2199203005278596,-0.03830039094630781,0.0015117594872130942,-0.4127066313368663,-0.6434353594640536,10.29952105989401
3540000000.0,22.22,-0.20751608278011405,-0.05445854366061992,0.0010646508437165,0.4363552634637526,-0.9970912879306129,10.311094731239747
3545000000.0,22.22,-0.22605711416080537,0.0008277197381251697,0.0030023303250622446,0.4029939737115398,-1.2085933771474338,10.25674698685577
3550000000.0,22.22,-0.18769937452702384,0.03227483070319134,0.007984918745028307,0.012750034956900358,-0.6523605179581051,10.269108137908981
3555000000.0,22.22,-0.16804838340311207,0.0038663550009765887,0.0009368327907033633,0.20630616439346164,-0.702102597670926,10.183760309483903
3560000000.0,22.22,-0.1943105235327097,0.011242802963777897,0.0018738004939629245,0.028251140430511412,-1.2427350180724503,10.155704261702542
3565000000.0,22.22,-0.2055572599715912,-0.0020442498607514854,0.004908062934686196,-0.2560430773754308,-0.8792667684617678,10.272836769441867
3570000000.0,22.22,-0.1608540542594108,-0.03631986712135753,0.0016608252138336512,0.10222345911943453,-0.8817233547437335,10.4172400401445
3575000000.0,22.22,-0.17513088145892985,0.00462899764251673,0.0019696115970065974,0.4169270832025709,-1.1678827915228278,10.137651500156915
3580000000.0,22.22,-0.17986037575489155,0.031571070377284294,0.004812244453612096,-0.06632005038110056,-1.1587567132395673,10.348375025190553
3585000000.0,22.22,-0.14466951568669928,-0.005512272066325326,0.0035559187035909077,-0.06906156438811566,-0.7569362575524627,10.34974578219406
3590000000.0,22.22,-0.14528441663842234,-0.01122139718951872,0.0005748887523533194,0.1761895524803955,-1.022793598452036,10.227120223759803
3595000000.0,22.22,-0.1737568377994088,0.003151487750060869,0.001724749523403223,-0.04453977417109778,-1.3529974345139744,10.218292339657124
3600000000.0,22.22,-0.1485028038240247,-0.016622720818845898,0.00127757342362851,-0.021581230817512315,-1.0516287834186877,10.355437188736571
3605000000.0,22.22,-0.11873926369392007,-0.017328630415122854,0.0019057326096238684,0.3254987409575874,-1.0233797601823975,10.404289940045599
3610000000.0,22.22,-0.1320364274611877,0.03720148228314432,0.002959736955443325,0.12890080556300804,-1.1852455322784554,10.362498779280488
3615000000.0,22.22,-0.12429716582005719,0.01528542495172669,0.0031939525311496,-0.2153319575963196,-1.1733736084807362,10.440195242604451
3620000000.0,22.22,-0.11309307806010456,-0.031356921230052695,0.0007665257145015127,-0.018440198376201977,-1.083023296858433,10.415080307800904
3625000000.0,22.22,-0.10678793195034443,-0.02103101103990992,0.0015969915486377644,0.3041122531608225,-1.236061689870617,10.457460563290207
3630000000.0,22.22,-0.099149999194123,0.009020083609825466,0.0013414524110112393,0.2446600603405006,-1.3239578820335791,10.47708
3635000000.0,22.22,-0.07671557338496747,0.04970712451917679,0.0026190564007658513,-0.09741619482606192,-1.047705175779452,10.348175329100753
3640000000.0,22.22,-0.0677040988653599,0.02266515221578682,0.0024273962505220103,-0.4249713917816139,-1.0618356019447561,10.420575601944755
3645000000.0,22.22,-0.09055350496747638,-0.03263544650599935,0.0006174821219722079,-0.02255804401738043,-1.3801716611903165,10.620503757594538
3650000000.0,22.22,-0.0792499497806832,-0.02663872942010275,0.0,0.2521177798655778,-1.3606456529594566,10.57321686565007
3655000000.0,22.22,-0.04972054933797199,0.032938203414115186,0.001469233573872306,0.00019321825243218127,-1.237040290060103,10.390750580120205
3660000000.0,22.22,-0.031062571596240686,0.060464542481573416,0.002129301687433,-0.3343270038243701,-0.8797573165356732,10.303246515635564
3665000000.0,22.22,-0.03448028608799474,0.00432167399275199,0.0035559492697168865,-0.6288231356468315,-0.7982404830705049,10.369563254258733
3670000000.0,22.22,-0.08686417479987539,-0.13136896777065857,-0.002065492264337193,0.23878602151666017,-1.5007411423907115,10.265967231722371
3675000000.0,22.22,-0.08484626120748275,-0.14141392617364057,-0.006015285013930367,1.8835328488438288,-1.57646400193644,10.29461514211945
3680000000.0,22.22,-0.038947014353220795,-0.0019604383034460965,-0.0029809835750463456,2.0055507531128076,-1.8089682887750829,10.406056243316263
3685000000.0,22.22,0.016272838011406467,0.16822111510399945,0.007654940550478261,0.5955520014632201,-1.786005880085259,10.48728297261363
3690000000.0,22.22,0.09184474260711674,0.21425119617430083,0.009475353616316766,-1.102656184549862,-0.7479037922742379,10.85084494206025
3695000000.0,22.22,0.08109986676079385,0.07976720626655756,0.004205331887219676,-1.778259202396592,-0.13635828229058283,11.01996496937435
3700000000.0,22.22,-0.01320946345228887,-0.1195285879198331,-0.0029810847594635924,-1.2458631725342317,-0.9456943490007435,10.549668538027385
3705000000.0,22.22,-0.13545806661587778,-0.26142980252303105,-0.007644208678229134,0.5044473277127731,-2.118477056343871,10.372997411268774
3710000000.0,22.22,-0.04194781652749058,-0.18356277218974376,-0.006664690819528795,1.871360788485508,-1.4085054596025548,10.303833454317934
3715000000.0,22.22,0.06315803161523667,0.035887065964820136,-0.0016821013455584196,1.5920574675799748,-1.0750841778693419,9.812349493159594
3720000000.0,22.22,0.07014140189279468,0.17167874340986525,0.003449500100810904,0.3994532285979323,-1.2717661600473615,9.679332823183028
3725000000.0,22.22,0.10423841343445772,0.14988907313913433,0.0053232542185827,-0.9246022677435228,-0.9760928293903284,10.372120669487506
3730000000.0,22.22,0.1003075500154376,0.020070074742184835,0.0018737383077066135,-1.3245435193213353,-0.631761101969011,10.776480330590703
3735000000.0,22.22,0.055182457897362244,-0.09096443890319626,-0.0033217421260454396,-0.6428421177585213,-1.0699853331993534,10.561149451015295
3740000000.0,22.22,-0.011380907494449768,-0.12638004445627765,-0.004769627895897561,0.4359652626915526,-1.9247263587007637,10.69368872283069
3745000000.0,22.22,0.03422701967747676,-0.08377722707070964,-0.0031726437252901185,1.1805378732324787,-1.6068692709441927,10.887921927094421
3750000000.0,22.22,0.12623104091591356,0.017043978467951665,0.0005323649470212683,1.1919127419832276,-1.0496702913570028,10.48688490125245
3755000000.0,22.22,0.1331511686346474,0.10168400805333978,0.004237326189137093,0.5110929769993298,-1.0452551353181514,10.095470270636303
3760000000.0,22.22,0.12241932168161836,0.09216604636317946,0.0027680525630996012,-0.5383805415498055,-1.142670698870707,10.403314350545145
3765000000.0,22.22,0.11930019608099147,-0.004001850456202216,-0.002001575332797963,-0.9085013941675141,-0.8695519645065197,10.634233713559338
3770000000.0,22.22,0.12007711322433845,-0.08212779343217301,-0.0042586033748661,-0.35962881500958815,-0.9309774211885742,10.398795248039551
3775000000.0,22.22,0.09294461253952233,-0.07829594489199637,-0.002342200025245111,0.4429278792615788,-1.4871951201018512,10.246053106827931
3780000000.0,22.22,0.10993054985642378,-0.01244636817635783,0.0009369086790162287,0.6317592275722922,-1.25842400996534,10.247135362127155
3785000000.0,22.22,0.16224117479534161,0.020802347838146124,-0.001075353203844036,0.36748421741984216,-0.9568657825801579,10.341014638328247
3790000000.0,22.22,0.1723440051557581,0.026461003431934547,-0.0030874475000132596,0.3462904234329042,-0.8832932833944329,10.22888589575696
3795000000.0,22.22,0.16436229445438325,0.05422555453128194,0.00043651484581674974,-0.15853520221245204,-1.072235211399652,10.203872605699827
3800000000.0,22.22,0.14743499129556709,0.01768659750500979,0.0006387824957968717,-0.5356248190329482,-1.0849829737719296,10.34562703334617
3805000000.0,22.22,0.1616550394364857,-0.040577059495422334,-0.0016608874000900657,-0.22336948726909486,-0.8207041565546416,10.42037805218488
3810000000.0,22.22,0.16939869587832684,-0.05221728989942756,-0.005067754079116908,0.33766456627604563,-0.9823773222479733,10.322668897892388
3815000000.0,22.22,0.15395057422830158,-0.01784766754630628,-0.007175762770755764,0.6493229366766293,-1.210355873353259,10.208188418712584
3820000000.0,22.22,0.17389391192852055,0.027406773730242723,-0.005834230255414198,0.31469945767799457,-0.9401880998335811,10.230259954806499
3825000000.0,22.22,0.21299908505936221,0.027543518232454444,-0.0006920149852824794,-0.0892699598554996,-0.7901964658484647,10.158254257039642
3830000000.0,22.22,0.20041941439613215,0.0030297525634725795,-0.00036198936053689895,0.0,-0.8797609487863095,10.221238026939881
3835000000.0,22.22,0.18213876951905383,0.011818453156516726,-0.0010646508437165,-0.06798486429574864,-0.9801191112373911,10.405759884684798
3840000000.0,22.22,0.18983116623924823,-0.01836042476408838,-0.0024274363026871876,-0.03648917228079171,-1.1010730574269305,10.19925886072779
3845000000.0,22.22,0.20863973512834863,-0.01082796662016463,-0.0030129051506638978,0.25682415694074157,-0.9384235544168356,10.04406704810707
3850000000.0,22.22,0.2356404254335923,0.06359995227655553,0.0008516882116393488,-0.12459290774882911,-0.902521495632615,10.067021551310216
3855000000.0,22.22,0.24819793992330513,0.08116819705043161,-0.001203031074279126,-0.7723440705137408,-0.7752773362762734,10.01728507536375
3860000000.0,22.22,0.2716430447803974,0.07158663424990312,0.0007665404705623302,-1.0877343744932437,-0.0890737503378375,10.0403399996139
3865000000.0,22.22,0.24460730293859823,-0.006070802826740388,-0.0017247832515423429,-1.1062700214236003,-0.16500915481719158,10.084481848102318
3870000000.0,22.22,0.16098536927421953,-0.10241274814401265,-0.006941539817019079,-0.6354882670049826,-0.8519067142889671,9.880435273809253
3875000000.0,22.22,0.13954369854706475,-0.12090294472231751,-0.0085172067497323,-0.07847337648413377,-1.3243457850353577,9.925270435421805
3880000000.0,22.22,0.18684028644461134,-0.05859058267744534,-0.008261682368166592,0.6301963594729636,-0.9853187362946874,10.214564475364345
3885000000.0,22.22,0.2595778893623621,0.0532457919189495,-0.004758899185661449,0.632248085775581,-1.0675192195433922,10.152072360694623
3890000000.0,22.22,0.28208079091375504,0.1514340101431762,0.0035559092175517565,-0.22563755585827555,-0.43300863980928644,9.993449644550395
3895000000.0,22.22,0.306587706712166,0.11458262696298602,-0.00027685848352945546,-1.017592283524123,0.022267716475877167,10.189153852050438
3900000000.0,22.22,0.26247963021248194,0.028116612723835952,-0.004258562268696673,-1.1163779242471792,-0.1196835908092359,9.837464894134348
3905000000.0,22.22,0.20354846398331639,-0.05413360003013963,-0.0004045837841601517,-1.0060113282533134,-0.3702328890972289,9.621946623446567
3910000000.0,22.22,0.14852104369752547,-0.12623428593611294,-0.003470819446713734,-0.43300755207647557,-0.772833394888234,10.055445364582354
3915000000.0,22.22,0.17651997928973462,-0.12815198636767222,-0.008676863112019602,0.29479544287155446,-0.9084044791164448,9.921930046807201
3920000000.0,22.22,0.2380282844778505,-0.009076050117469075,-0.0032364889845338165,0.7235807269570074,-0.7235845340218453,9.717786761412968
3925000000.0,22.22,0.2762799176323685,0.10960776494779506,0.0019695957869414102,0.06670129101941288,-0.5110959682645597,9.79724684752317
3930000000.0,22.22,0.32095000898158715,0.12584481431075434,0.0007665320385275636,-0.7124047190726472,0.07907081373050814,9.753100473289306
3935000000.0,22.22,0.3112861135819168,0.07445587935121849,-0.0009262379390191533,-1.007389893624499,0.2701641898285419,9.595848387893884
3940000000.0,22.22,0.2273314705212679,0.01900376833410116,-0.0005110656272009122,-1.107744511232045,-0.12596284895272847,9.679723659178636
3945000000.0,22.22,0.1756549890594458,-0.07438375575177644,-0.003907243648156778,-0.9868829349243293,-0.40113082337310824,9.717490703850407
3950000000.0,22.22,0.17705161863251817,-0.12175743432199919,-0.0015970178987464298,-0.5424855577709556,-0.3953432301720323,9.628516918100269
3955000000.0,22.22,0.19900967219689597,-0.08685849318080993,-0.00619625123608147,0.32274976821129764,-0.46421288741422884,9.855420837747909
3960000000.0,22.22,0.21190572071823913,0.011758669114247534,-0.003917881714019136,0.35786349264083495,-0.8228559542758596,9.900642707798527
3965000000.0,22.22,0.26544983911579134,0.09755303399559387,-0.0002981356692584764,-0.2902807495686075,0.01952628987596291,9.70552388507684
3970000000.0,22.22,0.3340850782326129,0.08911967574515532,-0.004514153052536095,-0.6160664577502646,0.49775392501343935,9.759381479574815
3975000000.0,22.22,0.25769298080299224,0.04969993698708252,-0.008091279377569292,-0.4620557869955579,-0.1515636506943365,9.878668455807883
3980000000.0,22.22,0.19566062762608166,0.03864011083649967,-0.0002555665417395243,-1.0465321142143211,-0.04708761346637614,9.702876887281569
3985000000.0,22.22,0.2130523417909478,-0.05745231073601392,-0.006260113359394669,-1.1727765985579661,-0.004415661057656611,9.949790564903907
3990000000.0,22.22,0.21232774404102656,-0.0876713617730786,-0.0020866988317749806,-0.08005022000770219,-0.1495053300115533,9.713470220007702
3995000000.0,22.22,0.17715658238100454,0.0009261367546019507,-1.0654929931888096e-05,-0.15862901916739017,-0.26172831686138315,9.787827382449874
4000000000.0,22.22,0.20879419402241914,-0.01277561618779877,-0.0010647014359250993,-0.323727202972772,0.049051709294417094,9.53531782453438
4005000000.0,22.22,0.26574498621620285,0.011466483766047728,-0.007388727510841568,0.025901200523512025,0.2627135114310351,9.263384621815046
4010000000.0,22.22,0.24752209315734236,0.08375474569365493,-0.002235724506230387,-0.5570165512557655,0.22641448844224488,9.202956732663367
4015000000.0,22.22,0.22336913726252555,0.04181633686337999,-0.003162021469492999,-1.1399266791934668,0.10192488617474887,9.392095559731157
4020000000.0,22.22,0.21650175967941973,-0.0300823818529668,-0.0031939525311496,-0.8938850136570502,0.4748071233470712,9.755851767179717
4025000000.0,22.22,0.19296689747099838,-0.03403305623399836,-0.002182525744883846,-0.5287560291297603,0.16431476367214765,9.873275359988753
4030000000.0,22.22,0.1546965947202241,-0.03808940144492354,-0.0011285213990644626,-0.6576636524466366,-0.2493735659503356,9.426817564382176
4035000000.0,22.22,0.19294405422487781,-0.01159503962210296,-0.0020547846341879158,-0.7218202702502028,0.15411878362658782,9.23375918924939
4040000000.0,22.22,0.21658576531175489,-0.00174595925285417,-0.006047250857730361,-0.56348498750125,0.312743898610139,9.501183632636737
4045000000.0,22.22,0.21450023283082162,0.04837799495677777,-0.0005748602942359819,-0.5225784642921847,0.3058756428614564,9.51658282143073
4050000000.0,22.22,0.18823003851837597,0.02929688324813877,0.0019163885935601023,-0.8554349893228499,0.14518658400496584,9.656965258662254
4055000000.0,22.22,0.177773584170734,0.005772139239534693,0.00023420608966714072,-0.8577860849459608,0.4243832779593327,9.742507830108078
4060000000.0,22.22,0.1768367598120654,-0.02492844553614674,-0.0018738026019716162,-0.6980781805086819,0.42653848455748483,9.518052270763022
4065000000.0,22.22,0.1657065176700321,-0.023205497254334205,-0.0030555564905217734,-0.5744726525070266,0.16578663126756626,9.085135388985854
4070000000.0,22.22,0.1484781552066898,0.018857272667487202,-0.004109560836341165,-0.5760433581097336,0.3806303716460038,9.28673705070087
4075000000.0,22.22,0.17129819809547506,0.0038351547271856003,-0.0042586033748661,-0.6871915289758153,0.3050898918721989,9.587805953711559
4080000000.0,22.22,0.17219484773075944,-0.0017886306187946438,-0.0006813421372767283,-0.5167889772705898,0.4080971887365719,9.47685089426701
4085000000.0,22.22,0.1458726236860169,0.020860573785532025,0.0,-0.6679647249631472,0.513063793462238,9.479599517384894
4090000000.0,22.22,0.14498628940119865,-0.0041279969619955025,-0.0026190669408093182,-0.7384971177733711,0.5458285588866857,9.293207293359773
4095000000.0,22.22,0.1476691836831778,-0.01409601169998931,-0.004056328346855557,-0.4912822547052225,0.33481315240753157,9.179314384135845
4100000000.0,22.22,0.12676653801827537,0.018326294358216044,-0.0008516861036306769,-0.6670823891274239,0.44145159275161594,9.390134309489843
4105000000.0,22.22,0.13069192037279465,-0.005341211014162264,-0.0008410828199117142,-0.7879398378775984,0.5736897568163976,9.454779979734699
4110000000.0,22.22,0.13980827292096137,-0.02381931054268743,-0.0043863961317750265,-0.5059966865590668,0.4759799226908992,9.25789112437271
4115000000.0,22.22,0.11214651665378048,0.02997209101100781,-0.0012243050979951903,-0.6862122975128231,0.4565575598578756,9.307532919005128
4120000000.0,22.22,0.10900075964629907,0.011250708065486642,-0.0024274299786611244,-0.95157200065142,0.6325506405993064,9.383854080156341
4125000000.0,22.22,0.12037546285647911,-0.03354995690151654,-0.0015969588745030688,-0.7381995354424954,0.7014151602463515,9.214040496920607
4130000000.0,22.22,0.08967883125368731,-0.02424868013753509,-0.0002768005132903935,-0.4078971527302715,0.5901683164752832,9.189027401101473
4135000000.0,22.22,0.06687827676702619,-0.011598698917846543,-0.00155440766505797,-0.44547346539603466,0.1912909841293099,9.323523465396034
4140000000.0,22.22,0.09736951945011593,0.02569234631330067,0.00017037031646259006,-0.5893859258034593,0.5038466661155667,9.262600793782008
4145000000.0,22.22,0.11154941175333473,0.05000467820524876,0.002576472517186055,-0.9064472204660723,0.9137061373961614,9.228365180511652
4150000000.0,22.22,0.09097853282468465,0.010337068726806856,0.0009581595146366693,-0.9172337908684379,1.1477716121754162,9.107602549042126
4155000000.0,22.22,0.04086778992021343,-0.07393432333971499,-0.00440770704564313,-0.5481789261172894,0.6244976592934767,9.041092038588221
4160000000.0,22.22,-0.014571154249991992,-0.08014454035800246,-0.004215991033169,-0.08200772145557722,0.08946388707663888,9.14841497365115
4165000000.0,22.22,0.0037326513531388272,-0.017141110031095523,-0.0017673028408570215,-0.04306727530217276,-0.1969867416030674,9.484409578705495
4170000000.0,22.22,0.0895048278015234,0.08656058056306125,-0.0003619724964673658,-0.4736314978403151,0.5346551246558513,9.539439147035791
4175000000.0,22.22,0.15510605282523593,0.16623176855424554,0.004844222945464219,-1.445022893512629,1.1046079462647793,9.578975554226755
4180000000.0,22.22,0.06583175460799136,0.08862654102995186,0.003364243797286226,-2.115039247659393,0.9672631582980316,9.190394797787548
4185000000.0,22.22,0.009070860476530404,-0.032743765357663566,0.00039391199015873044,-1.7927714033547142,1.2515651650478516,9.008523812886038
4190000000.0,22.22,-0.04483371299680623,-0.17770630949236677,-0.003960554133964012,-0.9427332683563328,0.7977399220275992,9.43408600868626
4195000000.0,22.22,-0.1314629300982434,-0.24937447728516643,-0.0063879050622992,0.29705885946058863,-0.12390706307587063,9.421324377720644
4200000000.0,22.22,-0.09928039681046065,-0.12824854776630126,-0.0031939082629670553,1.1693562421579626,-0.5238551421194515,9.172348776300588
4205000000.0,22.22,0.03762136105266315,0.1067344317091975,0.003332419190068601,0.9219374291877743,-0.052083667385736665,9.13085394503124
4210000000.0,22.22,0.16343246313808896,0.28983398504092145,0.008857930518587964,-0.4159587193557872,1.4860356454849564,9.09171106403221
4215000000.0,22.22,0.12029152423117428,0.2575522273520543,0.007612209106290084,-2.270344592392246,1.7420511216403112,9.239158801753488
4220000000.0,22.22,-0.018445027273901037,0.02484193849231764,0.001745974008915076,-2.565895485124755,1.2839326360631265,9.01577699008317
4225000000.0,22.22,-0.11488689517510366,-0.17224581445647674,-0.003992485195620596,-1.5828350472477506,0.8166755244277553,8.98988793914668
4230000000.0,22.22,-0.18324791621023342,-0.2366758740156247,-0.005812984689815524,-0.5295345156177452,0.033543873474038755,9.302432161090822
4235000000.0,22.22,-0.153702686488354,-0.18120937100113418,-0.004758980343996093,0.6407015469938155,-0.2723249419216494,9.341375559661856
4240000000.0,22.22,-0.05138310246233992,-0.006094172262932143,-0.00038321173803996774,1.1089205057910052,-0.061996399864964,9.29988
4245000000.0,22.22,0.04413602064303311,0.20166534006064926,0.00808078044028055,0.21512035471700341,0.7735296312942963,9.149784526379046
4250000000.0,22.22,0.08308623763165562,0.2647222854193216,0.0127758101245984,-1.4273699417582995,1.5794126416368264,9.177257889290278
4255000000.0,22.22,-0.00167000165212855,0.12106684818647692,0.008080619177615642,-2.3295809479448097,1.4479510411038103,8.925915526952254
4260000000.0,22.22,-0.13000836207906885,-0.08113557430274282,-0.0003833371645571206,-1.8878283736972838,0.794603794095838,8.777600730214107
4265000000.0,22.22,-0.21082665112962934,-0.2001801426924639,-0.004758998262069972,-0.9503848471192484,0.07543285249692855,9.439678713188087
4270000000.0,22.22,-0.20890101439092126,-0.18845150950550157,-0.004343757439969247,0.0812365868759658,-0.20483097532820974,9.65813804829418
4275000000.0,22.22,-0.12357189993505319,-0.06189489580490709,-0.001277544965511228,0.732807498220475,-0.02207125444881254,9.377377505338576
4280000000.0,22.22,-0.042477389969919954,0.10567829302185658,0.0043438385983038535,0.406911899889219,0.30921602176416024,9.284576483133865
4285000000.0,22.22,-0.011093607594622839,0.20501436341314655,0.00760158895850158,-0.580566287103963,0.9484371255547714,9.353345748464758
4290000000.0,22.22,-0.036085610422203006,0.1501361171054061,0.004599255471426247,-1.606492099592021,1.2745132001255322,9.251807250235373
4295000000.0,22.22,-0.11974184636427754,0.0010731654536760143,0.0012562698877908087,-1.8170033613371335,0.9650061127154612,8.943481615472116
4300000000.0,22.22,-0.21475994501355594,-0.11568802988256556,0.0,-1.1634592346903925,0.35903839946698407,9.135077679519178
4305000000.0,22.22,-0.2487672473252359,-0.15064318219863682,-0.000830445808053705,-0.4418370483545706,-0.17275401638054017,9.474104262088643
4310000000.0,22.22,-0.1927502299618094,-0.08938772845434442,-0.0009155724690438072,0.08279958122999581,-0.036294069919740685,9.288890790802109
4315000000.0,22.22,-0.1246443627997996,0.03057585338303448,0.002246440568414365,0.16872864745208646,0.23828632483286324,9.233664595342447
4320000000.0,22.22,-0.10422891374512512,0.11244337751342202,0.005408453605872599,-0.3362929254896293,0.46695893687858936,9.44467694257307
4325000000.0,22.22,-0.10647047550021034,0.10439283122235876,0.007825192818454101,-1.052128800595188,0.6592313279365133,9.56916508805555
4330000000.0,22.22,-0.14395924479322686,0.04401393626998863,0.00815521633519102,-1.4403019291635193,0.6515812933657129,9.580445158949452
4335000000.0,22.22,-0.20406590663054847,-0.023131644051039454,0.004993148489506771,-1.2687273842021738,0.5609312530826125,9.438002779147828
4340000000.0,22.22,-0.2332865217440911,-0.09988000158459076,-0.0017034870937350725,-1.0272965403558656,0.12124932391909324,9.217474314014144
4345000000.0,22.22,-0.2405001343983831,-0.10328135758332246,-0.003672999614333237,-0.32392130500811306,0.03237553189235532,9.18137790068518
4350000000.0,22.22,-0.21816272085981403,-0.035470152161362345,0.0012776176918110644,0.04806840854528408,0.16480597215525972,9.456841689870616
4355000000.0,22.22,-0.2102788207768419,-0.01790907138590978,0.0042586033748661,0.031294830497148304,0.13940424494184245,9.497450523917905
4360000000.0,22.22,-0.1836080494691174,-0.008985634739131741,0.003960491947707584,0.18482277125752772,0.34883953498709536,9.326565232506452
4365000000.0,22.22,-0.20287722007161058,0.00635047323835567,0.002331557743365391,0.348155797796458,-0.09349260661062607,9.46959215215112
4370000000.0,22.22,-0.21487011884375365,0.0597326829181696,0.0016609105881856866,-0.020413967256739662,-0.18658000361350005,9.36482109653391
4375000000.0,22.22,-0.16591953151635316,0.09107514552395148,0.005589389261897722,-0.8313984347703843,0.441453399165034,9.336669794436398
4380000000.0,22.22,-0.1670335429559516,0.033115341406088496,0.003449477966719629,-0.8416954477126545,0.6368616267977163,9.54002897015249
4385000000.0,22.22,-0.23668546274240643,-0.01923181200593348,0.004013724437193192,-0.6473630072537301,0.20188520063835202,9.550427229653273
4390000000.0,22.22,-0.2860199024005865,-0.05157609140104611,0.0031939525311496,-0.6872862976969629,-0.1779522914837229,9.58064399068014
4395000000.0,22.22,-0.2985176307227428,-0.10114091116495433,0.0034175384730282645,-0.26025016566660164,-0.08466055610280555,9.724848517059185
4400000000.0,22.22,-0.26269628282738,-0.08330048061983157,0.003832724486902993,0.5787904273236043,-0.21386261509492616,9.623608290705583
4405000000.0,22.22,-0.24232632598257198,-0.009332954415347296,0.003140766417855146,0.567702389830324,-0.5929143465158435,9.500201740113118
4410000000.0,22.22,-0.22373074597198483,0.08193454201182723,0.0072609094578284005,0.24544097480350974,-0.25387560464745607,9.685611255815013
4415000000.0,22.22,-0.16990585489889565,0.11222442632239085,0.006025905161718826,-0.3236359305356593,0.38013535609805355,9.838643141854131
4420000000.0,22.22,-0.18276544442502768,0.059649069669189994,0.0039178964700799694,-0.7251562302383623,0.15617408390844084,9.603987853670079
4425000000.0,22.22,-0.27090079911000625,-0.016401381651378468,0.0019695947329370646,-0.7916651090930512,0.02550462479494625,9.450957094211372
4430000000.0,22.22,-0.30758173349360696,-0.07501300116700456,0.0003193485607224162,-0.5244373511064735,-0.18757219075122192,9.762127888379478
4435000000.0,22.22,-0.299064592092144,-0.11429103764560436,-0.0030128777465508287,0.039930059637600594,-0.6909192475900926,9.807938435542585
4440000000.0,22.22,-0.29171392841044197,-0.04376386186843498,0.005451021679387271,0.35276613389156136,-0.7282902603997027,9.685218438591784
4445000000.0,22.22,-0.2443661276512452,0.020107574005127818,0.006036542173576841,0.21572267704912676,-0.3031281366120813,9.851398372677584
4450000000.0,22.22,-0.18908213070741875,0.04388697990872507,0.003513375926180593,0.2648674069226741,-0.21582,9.842370666230407
4455000000.0,22.22,-0.20644272212828896,0.10966308077190341,0.006483733029412406,-0.08564969370389694,-0.2061071481366715,9.619000771061508
4460000000.0,22.22,-0.23734392833739248,0.06588219194706688,0.006856285621503091,-0.9240989679447897,-0.09770647380806474,9.785672845972828
4465000000.0,22.22,-0.24997217287729342,-0.060753439042475335,-0.00029813988527585967,-0.5505299149094991,-0.040817231999572316,9.958523573454537
4470000000.0,22.22,-0.29010655260364404,-0.08539207374670456,-0.0037474955874913546,0.2052236371610364,-0.852490302365803,9.971471818580518
4475000000.0,22.22,-0.3253862982060625,-0.021629922019999036,0.004311845350390825,0.028447087726870875,-0.9692241754537417,9.898782325351624
4480000000.0,22.22,-0.2519923916635842,-0.027485397841011998,0.0051102768304446995,-0.14832093465900933,-0.556030103851001,10.094882487018625
4485000000.0,22.22,-0.21562945294837366,-0.01988152933029178,0.00025559183784382497,0.5232634834536348,-0.4859889680833897,10.097529096337892
4490000000.0,22.22,-0.2302959309194325,0.0607200046768827,0.008602416677065725,0.29939474624814744,-0.6570737127871371,9.88279203147012
4495000000.0,22.22,-0.23940883590577797,0.06025079200716588,0.012690562253108524,-0.41231456192994564,-0.6403905136813052,10.083305377660254
4500000000.0,22.22,-0.21198783339332672,0.013839939080654982,0.004258555944670538,-0.4414471155656712,0.05885606668046067,9.947338688893488
4505000000.0,22.22,-0.22781517734038556,-0.04414757869918051,-0.001011465784426453,-0.12095441236074411,-0.37817943768989437,9.801660187436703
4510000000.0,22.22,-0.28329047997797796,-0.058313668452636906,-0.0031513855116393364,0.09378552722945528,-1.0555621320937214,9.780962224797323
4515000000.0,22.22,-0.2761570882164816,-0.022428543877427966,0.0019696516491717357,0.012457910713879097,-1.0217110615077107,10.151685720239858
4520000000.0,22.22,-0.21454367723119533,-0.000852228086488313,0.004173450363767348,-0.06553150236461502,-0.6717855515636555,10.144324624408847
4525000000.0,22.22,-0.19376540903810366,0.005057139201350213,0.0052700312151362,0.18295887310278874,-0.46155865425338655,10.003746181609563
4530000000.0,22.22,-0.22084480630576964,0.017349036578572036,0.0053232542185827,0.1500925600509256,-0.9676633274296333,10.226927199745372
4535000000.0,22.22,-0.24245312799267454,0.0181165176357011,0.004333119374106845,-0.19041535921655361,-0.8363990144351903,9.949691581218117
4540000000.0,22.22,-0.2076875435418268,-0.025013083985779616,0.00034064998855144746,-0.17971884726378845,-0.7428124063435241,10.0811498991289
4545000000.0,22.22,-0.2045351350412154,-0.016152199386749177,0.005813051092089292,0.18050753124687532,-0.9767840835916409,10.148053129687032
4550000000.0,22.22,-0.22369904205690405,0.009049771957579233,0.0063879050622992,0.20699091162170913,-1.0094490883782907,10.25929906053949
4555000000.0,22.22,-0.1860155665065269,0.003183219604896065,0.005440356209411925,-0.03845767731147676,-0.783424299639343,10.24487703457377
4560000000.0,22.22,-0.18577987496188253,0.001192399332442846,0.0025125471536120623,0.2939113200462132,-0.9366606600231067,10.181209779992297
4565000000.0,22.22,-0.20310640735543697,0.013105976985926356,0.003981813401619152,0.1470498605980986,-1.12354098472331,10.21564394334824
4570000000.0,22.22,-0.17811649511955857,0.006664627579268044,0.0042586033748661,-0.11007059670270596,-0.7934290717957908,10.264203443833834
4575000000.0,22.22,-0.164578343211185,-0.013695801325435204,0.0015437147909696473,0.0696533104610331,-0.9442147215971473,10.22937705568057
4580000000.0,22.22,-0.18356278283345978,0.018750109592063847,0.004641916297323339,0.05846706623397067,-1.1870122240251222,10.180817555194976
4585000000.0,22.22,-0.17599555999767127,0.000811830916350953,0.002672244622068896,-0.18707928268559285,-0.9982631063725311,10.392814504569344
4590000000.0,22.22,-0.14481872429138432,-0.019987335850285733,0.0012562783198255753,0.15873016860690167,-0.9274371325342713,10.397618554223786
4595000000.0,22.22,-0.1548770366702464,0.0015832946930488014,0.004514158322557874,0.2929271355141713,-1.1764180560755806,10.245758593457486
4600000000.0,22.22,-0.15786851180455103,0.014280361673501983,0.004471523846769438,-0.06475019942560195,-1.173275285204153,10.30638707219377
4605000000.0,22.22,-0.1282038674853564,-0.013478296159251404,0.0025764356270339007,0.06778969395139697,-0.9870802321748023,10.438429852252398
4610000000.0,22.22,-0.1228666706381058,0.0019553900891561213,0.0037901764394709546,0.2576121222432213,-1.1483610176804102,10.367795435931654
4615000000.0,22.22,-0.13258701070053885,0.027385836141258134,0.003438812496744283,-0.0909432716827327,-1.1613072621549727,10.422831686049216
4620000000.0,22.22,-0.11343357205601282,-0.000166554803451964,0.0031939525311496,-0.19855431026204312,-0.9912005155029052,10.42528293078613
4625000000.0,22.22,-0.11531837424733749,-0.0370231188124133,-0.0007985368804883436,0.19375226125902265,-1.1845604645575047,10.388789640659697
4630000000.0,22.22,-0.10957969159388045,-0.015062857679130116,0.001809955234719335,0.4035843892541439,-1.2945279597287798,10.422536939593169
4635000000.0,22.22,-0.09175526363388631,0.022956308717515132,0.0031939525311496,0.24544385923783857,-1.1973091495602917,10.452162780058627
4640000000.0,22.22,-0.06864566874900485,0.04989848052869117,0.00472706930842209,-0.16952121619521218,-0.9739344567127446,10.323257487597775
4645000000.0,22.22,-0.06934377442799036,0.013349639533469258,0.0015436947648871198,-0.5061005164830052,-1.1671972284949723,10.34768709245907
4650000000.0,22.22,-0.08287709692300894,-0.03632945019798477,0.0,-0.23837839364578395,-1.2134961871139618,10.468252174168722
4655000000.0,22.22,-0.07044545154588007,-0.03389983761822604,-0.0007346188949448446,0.18923860712938606,-1.322389808355798,10.54035495208895
4660000000.0,22.22,-0.052713692805647264,0.025527893401859413,0.0011072663474266692,0.10045150352291501,-1.3098302043360022,10.402129518157095
4665000000.0,22.22,-0.03580596039952428,0.05934673292867545,0.005695931183186141,-0.4140858085577581,-0.8086318665460187,10.356221162448112
4670000000.0,22.22,-0.03404375332410407,-0.03522143504094602,0.0025338000972412083,-0.5079602579445026,-0.9154739168756392,10.291473711490237
4675000000.0,22.22,-0.08469191961891236,-0.14376184360226263,-0.003460164516781922,0.6837731635153317,-1.4715054483759549,10.200437273549872
4680000000.0,22.22,-0.06442571453854426,-0.07653196439378865,-0.0019163221912863876,1.7030219087200191,-1.5142692365119925,10.317375290777854
4685000000.0,22.22,-0.012175031535202382,0.06862365612742387,0.0033536995378107026,1.4999426299647263,-1.6820264220211643,10.565470557013606
4690000000.0,22.22,0.042821199517924985,0.18881282195334584,0.0053232542185827,0.1206461469397615,-1.3235575477996755,10.438425229387953
4695000000.0,22.22,0.0989521017571783,0.18720877239419695,0.0053232542185827,-1.4127509584586098,-0.4120108805258088,10.486009927037
4700000000.0,22.22,0.061787254004165605,0.01469342196795645,-0.00042594950625423657,-1.6461132528232325,-0.22955710392327106,10.639926547751164
4705000000.0,22.22,-0.05827172524819053,-0.15933459692921237,-0.006771219038760734,-0.7127830849885308,-1.8041798558559985,10.7213499138898
4710000000.0,22.22,-0.09404672900443657,-0.1988395481027601,-0.0041946548231965725,0.42556795495697963,-1.997695408973954,10.716050868111209
4715000000.0,22.22,0.0201414989147103,-0.0810738449831415,-0.0022783726840753292,1.4420791583217916,-1.1554175871719758,10.705457166332872
4720000000.0,22.22,0.06676465910721907,0.07755674493131065,-0.00021288041973822154,1.4298983572533834,-1.2470519673775198,10.09604914844159
4725000000.0,22.22,0.06641800087920623,0.16192419259532687,0.004471573384973683,0.06374756228337564,-1.3581925726734259,10.035637342196473
4730000000.0,22.22,0.09508328363443935,0.09653478878609996,0.0035132979298589844,-1.1828968743422688,-0.9476404875255049,10.696044528725345
4735000000.0,22.22,0.09648829356150788,-0.03534572136729903,-0.0017567237992380522,-1.0884116824060168,-0.5053100649341007,10.765392497047324
4740000000.0,22.22,0.03575384534471165,-0.10171453811859689,-0.003151346513478491,-0.2629001741509017,-1.4907481313452813,10.55909095551831
4745000000.0,22.22,0.005172808022729285,-0.09387931924795131,-0.001586319754636343,0.5075762202789622,-1.8103239437739396,10.516123615668137
4750000000.0,22.22,0.08149924149996811,-0.0484673025247113,-0.0031939925833147417,0.9221411071566111,-1.113435092263051,10.70761878278509
4755000000.0,22.22,0.1327660185307791,0.04183537962901092,-0.0021931205965681198,0.8896671451567715,-1.0798840611186407,10.38475783274148
4760000000.0,22.22,0.12314340053310503,0.11786296313306255,0.002086735721927133,0.1400739484368394,-1.1528734189749343,10.065456837949869
4765000000.0,22.22,0.1193745666276325,0.07024956832851904,0.001692764707525041,-0.7995196277203963,-1.0493711648340116,10.448633776632237
4770000000.0,22.22,0.13147732047141317,-0.027016266398744826,-0.0014692483299331932,-0.6894392025747921,-0.6772799910603,10.460203835151137
4775000000.0,22.22,0.1081781818770143,-0.0750476240520878,-0.0036730554765635275,-0.06523251180822512,-1.1178616500726166,10.189154366781144
4780000000.0,22.22,0.08322127338547766,-0.05735715719345193,-0.0023847775847988316,0.2574163497610635,-1.4102766868065668,10.03916104292541
4785000000.0,22.22,0.1297202448766262,-0.015968993750938392,-0.0022890497480985085,0.4276191082574911,-0.9967966094578662,10.153843753000938
4790000000.0,22.22,0.15786862247500738,0.01289749166063774,-0.0030874369599698014,0.5250317582400176,-0.9994394505598947,10.275384725279947
4795000000.0,22.22,0.1588052929490415,0.047752577616218525,-0.0008730339076508828,0.2333723558931236,-0.9353867597992677,10.261458249016682
4800000000.0,22.22,0.15297116809406186,0.031108323281242436,-0.0029810425992896797,-0.31784595791905956,-1.0712504150179043,10.377017720297278
4805000000.0,22.22,0.16010056013368973,-0.00986581814832679,-0.0038433794168349013,-0.3496261600473616,-0.9903199666567997,10.3976199333136
4810000000.0,22.22,0.16239334027962823,-0.03762769546327263,-0.0027893750710154853,-0.10908477085954771,-0.9866889591436896,10.416453172286731
4815000000.0,22.22,0.16352850881757527,-0.03702481176801653,-0.0009475088007221343,0.19424174102391745,-1.051733186344732,10.273324335962444
