#timestamp [ns], temperature [degC], w_RS_S_x [rad s^-1], w_RS_S_y [rad s^-1], w_RS_S_z [rad s^-1], a_RS_S_x [m s^-2], a_RS_S_y [m s^-2], a_RS_S_z [m s^-2]
0.0,21.34,0.0,0.0,0.0,0.59841,-0.14715,9.80019
5000000.0,21.34,0.0,0.0,0.0,0.59841,-0.17628570029135698,9.80019
10000000.0,21.34,0.0,0.0,0.0,0.608023800194238,-0.147738599417286,9.84825900097119
15000000.0,21.34,0.0,0.0,0.0,0.617735700291357,-0.175697100874071,9.84924
20000000.0,21.34,0.0,0.0,0.0,0.599194799223048,-0.167162399611524,9.80215199805762
25000000.0,21.34,0.0,0.0,0.0,0.589090499514405,-0.16677,9.790870499514405
30000000.0,21.34,0.0,0.0,0.0,0.597821400582714,-0.175991400582714,9.799601400582715
35000000.0,21.34,0.0,0.0,0.0,0.59841,-0.15833339864033397,9.845806503399166
40000000.0,21.34,0.0,0.0,0.0,0.607435200776952,-0.15696,9.813139196892193
45000000.0,21.34,0.0,0.0,0.0,0.6171471008740711,-0.16588710087407102,9.783218697377787
50000000.0,21.34,0.0,0.0,0.0,0.60037199805762,-0.17559900097119,9.79822800194238
55000000.0,21.34,0.0,0.0,0.0,0.607140901068309,-0.21150360427323606,9.817651802136618
60000000.0,21.34,0.0,0.0,0.0,0.6168528011654281,-0.15539039184200393,9.837075602330856
65000000.0,21.34,0.0,0.0,0.0,0.609495298737453,-0.155684701262547,9.813825896212359
70000000.0,21.34,0.0,0.0,0.0,0.616656601359666,-0.14852339864033398,9.81
75000000.0,21.34,0.0,0.0,0.0,0.609691498543215,-0.16382700291357002,9.801661498543215
80000000.0,21.34,0.0,0.0,0.0,0.60822,-0.16677,9.80019
85000000.0,21.34,0.0,0.0,0.0,0.583793095046931,-0.15048539669795397,9.82461690495307
90000000.0,21.34,0.0,0.0,0.0,0.6109668069925681,-0.17128260524442604,9.82962
95000000.0,21.34,0.0,0.0,0.0,0.610083898154739,-0.17658,9.821673898154739
100000000.0,21.34,0.0,0.0,0.0,0.60037199805762,-0.16088399611523996,9.81196199805762
105000000.0,21.34,0.0,0.0,0.0,0.6139098040789981,-0.15696,9.81
110000000.0,21.34,0.0,0.0,0.0,0.6333336042732362,-0.15696,9.825303604273236
115000000.0,21.34,0.0,0.0,0.0,0.622542595532526,-0.164513702233737,9.814512595532527
120000000.0,21.34,0.0,0.0,0.0,0.610574397669144,-0.15931439766914396,9.802544397669145
125000000.0,21.34,0.0,0.0,0.0,0.60822,-0.15696,9.8296200097119
130000000.0,21.34,0.0,0.0,0.0,0.60822,-0.14244119494981194,9.832170597474907
135000000.0,21.34,0.0,0.0,0.0,0.6153813026222131,-0.15166260524442604,9.815297394755575
140000000.0,21.34,0.0,0.0,0.0,0.596840391842004,-0.15696,9.774683986403339
145000000.0,21.34,0.0,0.0,0.0,0.5886,-0.14999489718354897,9.809705719715158
150000000.0,21.34,0.0,0.0,0.0,0.60233400582714,-0.16088400582714008,9.84335400582714
155000000.0,21.34,0.0,0.0,0.0,0.6149889030106891,-0.13969438795724387,9.835702193978623
160000000.0,21.34,0.0,0.0,0.0,0.5980175906765759,-0.12753,9.802936787568768
165000000.0,21.34,0.0,0.0,0.0,0.6017454064098541,-0.14067540640985407,9.757516483975365
170000000.0,21.34,0.0,0.0,0.0,0.6211692066040921,-0.15362460330204603,9.80607603302046
175000000.0,21.34,0.0,0.0,0.0,0.6278400000000001,-0.15058349660083498,9.86493601359666
180000000.0,21.34,0.0,0.0,0.0,0.621561596503716,-0.17226361398513615,9.86611319300743
185000000.0,21.34,0.0,0.0,0.0,0.6303906071868062,-0.17402939281319393,9.821968178439581
190000000.0,21.34,0.0,0.0,0.0,0.6194033889284339,-0.17285220369052204,9.775861185237911
195000000.0,21.34,0.0,0.0,0.0,0.6142041037876411,-0.15862768863707688,9.790870518938204
200000000.0,21.34,0.0,0.0,0.0,0.6180300000000001,-0.15303600388476002,9.821772007769521
205000000.0,21.34,0.0,0.0,0.0,0.612242096018121,-0.15117209601812095,9.83540790398188
210000000.0,21.34,0.0,0.0,0.0,0.602530195921002,-0.15852960815799608,9.828050391842003
215000000.0,21.34,0.0,0.0,0.0,0.604001704176117,-0.16117829582388296,9.780668070767181
220000000.0,21.34,0.0,0.0,0.0,0.6137136042732361,-0.16245360427323605,9.784101625639416
225000000.0,21.34,0.0,0.0,0.0,0.6072389912592899,-0.16137449562964495,9.83158201748142
230000000.0,21.34,0.0,0.0,0.0,0.59841,-0.16225740446747405,9.854537404467473
235000000.0,21.34,0.0,0.0,0.0,0.603609304564593,-0.17716860912918608,9.822654868047849
240000000.0,21.34,0.0,0.0,0.0,0.60822,-0.18128879533828796,9.79038
245000000.0,21.34,0.0,0.0,0.0,0.6132231047588311,-0.17658,9.78537689524117
250000000.0,21.34,0.0,0.0,0.0,0.61312499514405,-0.17167499514404994,9.81490503399165
255000000.0,21.34,0.0,0.0,0.0,0.60822,-0.16677,9.84443309504693
260000000.0,21.34,0.0,0.0,0.0,0.60822,-0.16677,9.820594779799249
265000000.0,21.34,0.0,0.0,0.0,0.603609294852693,-0.17138070514730705,9.790968589705386
270000000.0,21.34,0.0,0.0,0.0,0.6029226052444261,-0.16304218426672185,9.785082605244426
275000000.0,21.34,0.0,0.0,0.0,0.60822,-0.14715,9.799209010683091
280000000.0,21.34,0.0,0.0,0.0,0.6125364054386641,-0.16009921631599217,9.83158202719332
285000000.0,21.34,0.0,0.0,0.0,0.613811694464217,-0.1681433889284339,9.850613388928434
290000000.0,21.34,0.0,0.0,0.0,0.60822,-0.16108020563290204,9.810588560569686
295000000.0,21.34,0.0,0.0,0.0,0.60822,-0.15470368280993682,9.790870528650105
300000000.0,21.34,0.0,0.0,0.0,0.6121440058271401,-0.14911201748142017,9.81981
305000000.0,21.34,0.0,0.0,0.0,0.614204094075741,-0.16677,9.815984094075741
310000000.0,21.34,0.0,0.0,0.0,0.6156756120427561,-0.1555865819358658,9.813727806021378
315000000.0,21.34,0.0,0.0,0.0,0.6133211755260118,-0.14096970611849705,9.816180293881503
320000000.0,21.34,0.0,0.0,0.0,0.5921316062156161,-0.16127642486246424,9.81
325000000.0,21.34,0.0,0.0,0.0,0.59841,-0.17952298737452987,9.80313298737453
330000000.0,21.34,0.0,0.0,0.0,0.6017454064098541,-0.16677,9.793715406409854
335000000.0,21.34,0.0,0.0,0.0,0.6017453869860538,-0.16677,9.806664613013947
340000000.0,21.34,0.0,0.0,0.0,0.5886,-0.16363079339590794,9.822949206604092
345000000.0,21.34,0.0,0.0,0.0,0.5946822134024221,-0.16000110670121107,9.82962
350000000.0,21.34,0.0,0.0,0.0,0.60822,-0.1579409796050098,9.82373398640334
355000000.0,21.34,0.0,0.0,0.0,0.605375093104551,-0.14302981379089813,9.804310186209102
360000000.0,21.34,0.0,0.0,0.0,0.601156806992568,-0.16245361398513614,9.801367227970273
365000000.0,21.34,0.0,0.0,0.0,0.6055712929103129,-0.17128258582062583,9.826971292910313
370000000.0,21.34,0.0,0.0,0.0,0.6035112143736122,-0.16206121437361212,9.822360607186807
375000000.0,21.34,0.0,0.0,0.0,0.615577492716075,-0.17167498543214985,9.827167492716075
380000000.0,21.34,0.0,0.0,0.0,0.6058655926189559,-0.15696,9.80803796309478
385000000.0,21.34,0.0,0.0,0.0,0.5961536925218369,-0.16147261495632614,9.784297844868977
390000000.0,21.34,0.0,0.0,0.0,0.5929164151505641,-0.17442179242471792,9.836094622725847
395000000.0,21.34,0.0,0.0,0.0,0.6061598923275989,-0.1688301076724011,9.852869676982797
400000000.0,21.34,0.0,0.0,0.0,0.59841,-0.17658,9.82569598446096
405000000.0,21.34,0.0,0.0,0.0,0.600273907866639,-0.17471609213336092,9.802544368533445
410000000.0,21.34,0.0,0.0,0.0,0.60822,-0.16500419203624192,9.77782323185503
415000000.0,21.34,0.0,0.0,0.0,0.60822,-0.16029541612175416,9.816670832243508
420000000.0,21.34,0.0,0.0,0.0,0.60822,-0.17030156736801566,9.844531175526011
425000000.0,21.34,0.0,0.0,0.0,0.60822,-0.14175452476534525,9.81686698348977
430000000.0,21.34,0.0,0.0,0.0,0.6095934083522341,-0.16402318329553184,9.80019
435000000.0,21.34,0.0,0.0,0.0,0.6180300000000001,-0.14715,9.802740616898706
440000000.0,21.34,0.0,0.0,0.0,0.616852791453528,-0.14832720854647208,9.820987208546473
445000000.0,21.34,0.0,0.0,0.0,0.60822,-0.15696,9.827461782712819
450000000.0,21.34,0.0,0.0,0.0,0.60822,-0.15794100874071007,9.80803798251858
455000000.0,21.34,0.0,0.0,0.0,0.6108687265134872,-0.1676529088378291,9.793028726513487
460000000.0,21.34,0.0,0.0,0.0,0.6352955731951557,-0.17658,9.822949235739793
465000000.0,21.34,0.0,0.0,0.0,0.60822,-0.1752065819358658,9.857676581935866
470000000.0,21.34,0.0,0.0,0.0,0.60822,-0.15813721825837218,9.835898345224884
475000000.0,21.34,0.0,0.0,0.0,0.60822,-0.17559898154738982,9.779588981547391
480000000.0,21.34,0.0,0.0,0.0,0.60822,-0.1573524093234241,9.762912046617119
485000000.0,21.34,0.0,0.0,0.0,0.6085143094205431,-0.16677,9.812354475364344
490000000.0,21.34,0.0,0.0,0.0,0.617833790482338,-0.16618137144701373,9.887106533376365
495000000.0,21.34,0.0,0.0,0.0,0.60822,-0.1374381096147811,9.819515671155656
500000000.0,21.34,0.0,0.0,0.0,0.60822,-0.1471500388476004,9.7903799708643
505000000.0,21.34,0.0,0.0,0.0,0.60822,-0.1859976392360764,9.761244270572941
510000000.0,21.34,0.0,0.0,0.0,0.60822,-0.1575485702815857,9.809019049530692
515000000.0,21.34,0.0,0.0,0.0,0.60822,-0.15696,9.867094260019542
520000000.0,21.34,0.0,0.0,0.0,0.60822,-0.15696,9.840607169698872
525000000.0,21.34,0.0,0.0,0.0,0.5989004898025049,-0.15696,9.80215195921002
530000000.0,21.34,0.0,0.0,0.0,0.6076314102946141,-0.1661814102946141,9.80019
535000000.0,21.34,0.0,0.0,0.0,0.60822,-0.1758933103917331,9.781943379216534
540000000.0,21.34,0.0,0.0,0.0,0.5991947895111479,-0.15852957902229578,9.825696052444261
545000000.0,21.34,0.0,0.0,0.0,0.6073371105859711,-0.1658871105859711,9.847474221171943
550000000.0,21.34,0.0,0.0,0.0,0.60822,-0.1579409893169099,9.80509494658455
555000000.0,21.34,0.0,0.0,0.0,0.60822,-0.16569091078020912,9.80019
560000000.0,21.34,0.0,0.0,0.0,0.5909543782453438,-0.15813718912267188,9.808822810877329
565000000.0,21.34,0.0,0.0,0.0,0.6142041329233414,-0.16549471097444712,9.818534710974447
570000000.0,21.34,0.0,0.0,0.0,0.6095933889284338,-0.14989677785686778,9.811373388928434
575000000.0,21.34,0.0,0.0,0.0,0.6248970223373703,-0.13047297766262977,9.79332297766263
580000000.0,21.34,0.0,0.0,0.0,0.6031187662025876,-0.12753,9.798620411265805
585000000.0,21.34,0.0,0.0,0.0,0.6065523113629231,-0.15195693408876934,9.832759245451692
590000000.0,21.34,0.0,0.0,0.0,0.6162642114600422,-0.14891578853995788,9.855518422920085
595000000.0,21.34,0.0,0.0,0.0,0.6021377768856778,-0.16304222311432223,9.827265553771356
600000000.0,21.34,0.0,0.0,0.0,0.6062580116542801,-0.15892198834571988,9.788417953382881
605000000.0,21.34,0.0,0.0,0.0,0.60822,-0.14146017649720175,9.7728200882486
610000000.0,21.34,0.0,0.0,0.0,0.60822,-0.16029543554555437,9.816670871091109
615000000.0,21.34,0.0,0.0,0.0,0.6157737119456371,-0.1592162880543629,9.852281135836911
620000000.0,21.34,0.0,0.0,0.0,0.6105743879572438,-0.16441561204275612,9.814316327743464
625000000.0,21.34,0.0,0.0,0.0,0.5861474635803746,-0.16677,9.80019
630000000.0,21.34,0.0,0.0,0.0,0.6078276489479766,-0.15951058776300586,9.778411763289018
635000000.0,21.34,0.0,0.0,0.0,0.6180300000000001,-0.14263737533177373,9.813727874004678
640000000.0,21.34,0.0,0.0,0.0,0.6039035751375358,-0.13734,9.843746424862465
645000000.0,21.34,0.0,0.0,0.0,0.6053751125283511,-0.15127022505670223,9.821379549886595
650000000.0,21.34,0.0,0.0,0.0,0.6013529873745299,-0.16382701262547011,9.79626597474906
655000000.0,21.34,0.0,0.0,0.0,0.6051789127225892,-0.16677,9.783611087277412
660000000.0,21.34,0.0,0.0,0.0,0.60822,-0.16677,9.827265689737958
665000000.0,21.34,0.0,0.0,0.0,0.6213654258336543,-0.17334271291682712,9.855812712916826
670000000.0,21.34,0.0,0.0,0.0,0.6148907739721078,-0.14420693493026934,9.82667693493027
675000000.0,21.34,0.0,0.0,0.0,0.5890904606668046,-0.14028302622213026,9.778117434444674
680000000.0,21.34,0.0,0.0,0.0,0.5976252396245524,-0.15970682641636827,9.79234206604092
685000000.0,21.34,0.0,0.0,0.0,0.60822,-0.1482290600840906,9.828540939915909
690000000.0,21.34,0.0,0.0,0.0,0.60822,-0.1555866402072664,9.851594426804844
695000000.0,21.34,0.0,0.0,0.0,0.6022358865004589,-0.17275411349954112,9.823145319002753
700000000.0,21.34,0.0,0.0,0.0,0.6042960135966601,-0.17069398640333985,9.776645945613359
705000000.0,21.34,0.0,0.0,0.0,0.5966441726124417,-0.14940625891866258,9.784101654775117
710000000.0,21.34,0.0,0.0,0.0,0.6113592551635926,-0.1544094413726944,9.822949255163593
715000000.0,21.34,0.0,0.0,0.0,0.5998814305599144,-0.1555865722239657,9.83943
720000000.0,21.34,0.0,0.0,0.0,0.5897772279702723,-0.14165638601486386,9.81196193007432
725000000.0,21.34,0.0,0.0,0.0,0.59841,-0.14813102816451026,9.79038
730000000.0,21.34,0.0,0.0,0.0,0.59841,-0.15166258582062586,9.795677414179375
735000000.0,21.34,0.0,0.0,0.0,0.6140079428294795,-0.15234931427649315,9.831385885658959
740000000.0,21.34,0.0,0.0,0.0,0.6074351425055514,-0.17226364312083642,9.848847571252776
745000000.0,21.34,0.0,0.0,0.0,0.5936031144707311,-0.1763837710585377,9.814414427646344
750000000.0,21.34,0.0,0.0,0.0,0.6082200291357003,-0.17167501456785014,9.78547498543215
755000000.0,21.34,0.0,0.0,0.0,0.6084161706700617,-0.17177308533503086,9.794990743994909
760000000.0,21.34,0.0,0.0,0.0,0.6031188147620882,-0.1761876295241763,9.838252888572528
765000000.0,21.34,0.0,0.0,0.0,0.6128307148592071,-0.16333642570396426,9.864249285140792
770000000.0,21.34,0.0,0.0,0.0,0.6044921551310216,-0.15990307478163074,9.827461695305717
775000000.0,21.34,0.0,0.0,0.0,0.5886,-0.17314645483966454,9.794794515053447
780000000.0,21.34,0.0,0.0,0.0,0.5886,-0.16127641515056415,9.795873584849437
785000000.0,21.34,0.0,0.0,0.0,0.6012549457430495,-0.14567842376158424,9.811471576238416
790000000.0,21.34,0.0,0.0,0.0,0.6139097846551979,-0.13008064603440647,9.83943
795000000.0,21.34,0.0,0.0,0.0,0.6041978845580789,-0.14715,9.819319422790395
800000000.0,21.34,0.0,0.0,0.0,0.6023340155390402,-0.16284606215616063,9.78253196892192
805000000.0,21.34,0.0,0.0,0.0,0.6043940843638408,-0.1787381687276817,9.782237746908477
810000000.0,21.34,0.0,0.0,0.0,0.6021378157332782,-0.1742256314665563,9.807645631466556
815000000.0,21.34,0.0,0.0,0.0,0.60822,-0.18276028416960283,9.83432886332159
820000000.0,21.34,0.0,0.0,0.0,0.60822,-0.17304838407248382,9.841391920362419
825000000.0,21.34,0.0,0.0,0.0,0.6013529679507297,-0.15303593590145936,9.79626593590146
830000000.0,21.34,0.0,0.0,0.0,0.5919354161217542,-0.1375362483652625,9.780766248365262
835000000.0,21.34,0.0,0.0,0.0,0.6016473162188731,-0.1472480513433805,9.816376581094366
840000000.0,21.34,0.0,0.0,0.0,0.6176376489479765,-0.14636529789595298,9.846100783684008
845000000.0,21.34,0.0,0.0,0.0,0.6315677671737777,-0.17422553434755533,9.824224417934445
850000000.0,21.34,0.0,0.0,0.0,0.6180300000000001,-0.14715,9.787436983489771
855000000.0,21.34,0.0,0.0,0.0,0.6151850833926509,-0.15283983321469832,9.789104749822048
860000000.0,21.34,0.0,0.0,0.0,0.6054731832955318,-0.16677,9.818240450113406
865000000.0,21.34,0.0,0.0,0.0,0.6063561504047615,-0.16412128319841282,9.834132566396827
870000000.0,21.34,0.0,0.0,0.0,0.6227387662025877,-0.15951061689870616,9.817259383101295
875000000.0,21.34,0.0,0.0,0.0,0.6033149660083497,-0.16677,9.81
880000000.0,21.34,0.0,0.0,0.0,0.5933088341858883,-0.16912441709294418,9.81
885000000.0,21.34,0.0,0.0,0.0,0.60822,-0.17206736561987365,9.81
890000000.0,21.34,0.0,0.0,0.0,0.6060617827128179,-0.16127643457436433,9.81
895000000.0,21.34,0.0,0.0,0.0,0.5942897652313976,-0.17864011738430116,9.81
900000000.0,21.34,0.0,0.0,0.0,0.5846760524442606,-0.18246596503715964,9.81
905000000.0,21.34,0.0,0.0,0.0,0.60822,-0.16490608242146082,9.81186391757854
910000000.0,21.34,0.0,0.0,0.0,0.60822,-0.1640232707026327,9.816278364648683
915000000.0,21.34,0.0,0.0,0.0,0.60822,-0.18619369336333694,9.801857717772778
920000000.0,21.34,0.0,0.0,0.0,0.60822,-0.13890961786989617,9.81
925000000.0,21.34,0.0,0.0,0.0,0.60822,-0.14862151796701517,9.81588607186806
930000000.0,21.34,0.0,0.0,0.0,0.60822,-0.15696,9.846493163871731
935000000.0,21.34,0.0,0.0,0.0,0.6120459544837595,-0.15823531816125316,9.825794045516242
940000000.0,21.34,0.0,0.0,0.0,0.6341183452248835,-0.16206112696651126,9.80019
945000000.0,21.34,0.0,0.0,0.0,0.60822,-0.13076735506647355,9.80019
950000000.0,21.34,0.0,0.0,0.0,0.6062579630947796,-0.1579410184526102,9.802152036905222
955000000.0,21.34,0.0,0.0,0.0,0.5912487556491876,-0.1676529185497292,9.818927081450271
960000000.0,21.34,0.0,0.0,0.0,0.6172451813531519,-0.1750103627063036,9.810784818646848
965000000.0,21.34,0.0,0.0,0.0,0.60822,-0.15696,9.819123281256033
970000000.0,21.34,0.0,0.0,0.0,0.60822,-0.15696,9.81
975000000.0,21.34,0.0,0.0,0.0,0.6087105189382052,-0.1564694810617948,9.81
980000000.0,21.34,0.0,0.0,0.0,0.6172451619293517,-0.1467575809646758,9.809215161929352
985000000.0,21.34,0.0,0.0,0.0,0.59841,-0.13822295739732957,9.791557276529774
990000000.0,21.34,0.0,0.0,0.0,0.5986062192295621,-0.16637756154087563,9.830208657688686
995000000.0,21.34,0.0,0.0,0.0,0.60822,-0.14734623865336238,9.858657522693274
1000000000.0,21.34,0.0,0.0,0.0,0.60822,-0.16676996115239962,9.81981
1005000000.0,21.34,0.0,0.0,0.0,0.60822,-0.1473461609581616,9.81981
1010000000.0,21.34,0.0,0.0,0.0,0.6178338196180383,-0.17599145885411457,9.800582360763924
1015000000.0,21.34,0.0,0.0,0.0,0.6085142802848428,-0.1670642802848428,9.809705719715158
1020000000.0,21.34,0.0,0.0,0.0,0.6364728594368286,-0.16677,9.819417619812276
1025000000.0,21.34,0.0,0.0,0.0,0.6190109601812097,-0.1481309601812096,9.83844903981879
1030000000.0,21.34,0.0,0.0,0.0,0.6088085799934858,-0.1748142600195426,9.811765739980459
1035000000.0,21.34,0.0,0.0,0.0,0.5990966798963668,-0.15833335979273358,9.791753359792734
1040000000.0,21.34,0.0,0.0,0.0,0.5893847797992479,-0.15696,9.75427911919699
1045000000.0,21.34,0.0,0.0,0.0,0.6064542405957424,-0.13910575940425757,9.8136298420851
1050000000.0,21.34,0.0,0.0,0.0,0.6170490203949903,-0.16382706118497062,9.82863902039499
1055000000.0,21.34,0.0,0.0,0.0,0.6005681590157816,-0.15803907950789078,9.83835092049211
1060000000.0,21.34,0.0,0.0,0.0,0.5811443588215436,-0.1742256411784564,9.813531538232317
1065000000.0,21.34,0.0,0.0,0.0,0.6043941620590416,-0.15097583794095837,9.792930558627306
1070000000.0,21.34,0.0,0.0,0.0,0.5997833792165338,-0.16402324156693243,9.8156898623504
1075000000.0,21.34,0.0,0.0,0.0,0.5733944373582444,-0.16677,9.844825562641756
1080000000.0,21.34,0.0,0.0,0.0,0.5937012629331127,-0.1750104209777042,9.824518737066887
1085000000.0,21.34,0.0,0.0,0.0,0.6065523210748232,-0.17658,9.787240715700708
1090000000.0,21.34,0.0,0.0,0.0,0.6162642211719422,-0.1685357788280578,9.764481557656115
1095000000.0,21.34,0.0,0.0,0.0,0.6100838787309388,-0.15087775746187757,9.82451897015249
1100000000.0,21.34,0.0,0.0,0.0,0.60822,-0.16284604273236042,9.862974064098541
1105000000.0,21.34,0.0,0.0,0.0,0.5927201570734015,-0.15127015707340158,9.822360471220206
1110000000.0,21.34,0.0,0.0,0.0,0.6039036431208364,-0.16245364312083643,9.787044535318746
1115000000.0,21.34,0.0,0.0,0.0,0.5931125566849256,-0.15166255668492556,9.788123721657538
1120000000.0,21.34,0.0,0.0,0.0,0.6109668652639687,-0.16951686526396864,9.797835621754658
1125000000.0,21.34,0.0,0.0,0.0,0.6106724781482248,-0.16922247814822478,9.836977609258875
1130000000.0,21.34,0.0,0.0,0.0,0.60822,-0.16677,9.820202312204424
1135000000.0,21.34,0.0,0.0,0.0,0.60822,-0.15244735590797356,9.802838677953988
1140000000.0,21.34,0.0,0.0,0.0,0.6223464442862645,-0.16127644428626445,9.807253222143133
1145000000.0,21.34,0.0,0.0,0.0,0.6069446332792463,-0.17373512224025123,9.816965122240251
1150000000.0,21.34,0.0,0.0,0.0,0.59841,-0.16971297766262977,9.83354404467474
1155000000.0,21.34,0.0,0.0,0.0,0.5916410775655108,-0.16677,9.819123232696533
1160000000.0,21.34,0.0,0.0,0.0,0.6019416450632165,-0.16009917746839178,9.789987532405176
1165000000.0,21.34,0.0,0.0,0.0,0.60822,-0.15696,9.813433613143637
1170000000.0,21.34,0.0,0.0,0.0,0.6017453772741538,-0.17638386817753868,9.842569245451692
1175000000.0,21.34,0.0,0.0,0.0,0.59841,-0.18639,9.830110431531105
1180000000.0,21.34,0.0,0.0,0.0,0.59841,-0.1675547312397473,9.807253154159833
1185000000.0,21.34,0.0,0.0,0.0,0.6045903230172032,-0.16314032301720321,9.794009676982798
1190000000.0,21.34,0.0,0.0,0.0,0.6021377768856777,-0.16677,9.808626669342967
1195000000.0,21.34,0.0,0.0,0.0,0.6043941232114413,-0.17275412321144124,9.831778246422882
1200000000.0,21.34,0.0,0.0,0.0,0.60822,-0.1589219300743193,9.81588590676576
1205000000.0,21.34,0.0,0.0,0.0,0.5966441531886415,-0.15872584681135848,9.788614153188643
1210000000.0,21.34,0.0,0.0,0.0,0.6056694705083947,-0.16108017649720177,9.809019117513992
1215000000.0,21.34,0.0,0.0,0.0,0.5956631056003311,-0.15696,9.835211723599917
1220000000.0,21.34,0.0,0.0,0.0,0.5952708710911088,-0.15146637630296375,9.833936376302963
1225000000.0,21.34,0.0,0.0,0.0,0.6136155237941553,-0.15254552379415523,9.786455809646759
1230000000.0,21.34,0.0,0.0,0.0,0.6180300000000001,-0.16755484778254848,9.756437423891274
1235000000.0,21.34,0.0,0.0,0.0,0.6180300000000001,-0.17138067601160675,9.802544591907147
1240000000.0,21.34,0.0,0.0,0.0,0.6180300000000001,-0.16677,9.864936120427561
1245000000.0,21.34,0.0,0.0,0.0,0.6030206274521063,-0.16677,9.858461254904212
1250000000.0,21.34,0.0,0.0,0.0,0.5984100485595005,-0.16677,9.775664732922747
1255000000.0,21.34,0.0,0.0,0.0,0.6130269243768692,-0.16196307562313075,9.731323848753739
1260000000.0,21.34,0.0,0.0,0.0,0.6180300000000001,-0.15696,9.797835893687859
1265000000.0,21.34,0.0,0.0,0.0,0.6134192754288927,-0.15234927542889276,9.89132507199775
1270000000.0,21.34,0.0,0.0,0.0,0.6037073753317738,-0.14715,9.89161900265419
1275000000.0,21.34,0.0,0.0,0.0,0.6028245247653452,-0.1383209504693095,9.805094752346548
1280000000.0,21.34,0.0,0.0,0.0,0.6039035751375358,-0.14047927458739273,9.738190725412608
1285000000.0,21.34,0.0,0.0,0.0,0.6026283249595833,-0.14430502512125024,9.763893249595833
1290000000.0,21.34,0.0,0.0,0.0,0.60822,-0.13989067517010675,9.852771800453619
1295000000.0,21.34,0.0,0.0,0.0,0.6041978748461787,-0.15696,9.886223624538536
1300000000.0,21.34,0.0,0.0,0.0,0.6023340252509403,-0.15696,9.833543772741537
1305000000.0,21.34,0.0,0.0,0.0,0.6005681493038815,-0.16078592534805924,9.765266298607763
1310000000.0,21.34,0.0,0.0,0.0,0.5886,-0.16677,9.767424778116247
1315000000.0,21.34,0.0,0.0,0.0,0.5886,-0.1595105489154055,9.842667529880675
1320000000.0,21.34,0.0,0.0,0.0,0.5956632512788325,-0.1542132512788325,9.884163497442335
1325000000.0,21.34,0.0,0.0,0.0,0.60822,-0.17020352573653524,9.84531589705386
1330000000.0,21.34,0.0,0.0,0.0,0.60822,-0.16990914833269147,9.809803722499037
1335000000.0,21.34,0.0,0.0,0.0,0.60822,-0.16667197779231976,9.79038
1340000000.0,21.34,0.0,0.0,0.0,0.6050807739721077,-0.18325077397210773,9.80293690411157
1345000000.0,21.34,0.0,0.0,0.0,0.6075333783750339,-0.17962112612501124,9.838743378375034
1350000000.0,21.34,0.0,0.0,0.0,0.6219539475557395,-0.17461789511147896,9.835505790222959
1355000000.0,21.34,0.0,0.0,0.0,0.60822,-0.14715,9.78057
1360000000.0,21.34,0.0,0.0,0.0,0.60822,-0.14989682641636826,9.786063652832738
1365000000.0,21.34,0.0,0.0,0.0,0.60822,-0.15696,9.81078490605395
1370000000.0,21.34,0.0,0.0,0.0,0.60822,-0.15696,9.829227493557575
1375000000.0,21.34,0.0,0.0,0.0,0.6057674732922748,-0.15450747329227474,9.797737473292276
1380000000.0,21.34,0.0,0.0,0.0,0.6007644268048442,-0.15656770721937707,9.79038
1385000000.0,21.34,0.0,0.0,0.0,0.60822,-0.1796210192941102,9.799405307607854
1390000000.0,21.34,0.0,0.0,0.0,0.6060617730009177,-0.15911822699908226,9.833936453998165
1395000000.0,21.34,0.0,0.0,0.0,0.6025302541924026,-0.16058961871139618,9.838939364518994
1400000000.0,21.34,0.0,0.0,0.0,0.6121439184200392,-0.1432260815799608,9.802152027193321
1405000000.0,21.34,0.0,0.0,0.0,0.5886,-0.16677,9.81
1410000000.0,21.34,0.0,0.0,0.0,0.5921316547751165,-0.1650041726124417,9.815297482162675
1415000000.0,21.34,0.0,0.0,0.0,0.6098877274846772,-0.15862772748467727,9.837762272515322
1420000000.0,21.34,0.0,0.0,0.0,0.6164603724182038,-0.16520037241820373,9.820202234509223
1425000000.0,21.34,0.0,0.0,0.0,0.6038054169632542,-0.1554884723210847,9.77370305535783
1430000000.0,21.34,0.0,0.0,0.0,0.57879,-0.14715,9.795873711104138
1435000000.0,21.34,0.0,0.0,0.0,0.5813406557463066,-0.15097598361945982,9.83344598361946
1440000000.0,21.34,0.0,0.0,0.0,0.6007644559405446,-0.1754027720297277,9.854341088118911
1445000000.0,21.34,0.0,0.0,0.0,0.6158717438652175,-0.16677,9.814414359663044
1450000000.0,21.34,0.0,0.0,0.0,0.5974289718354897,-0.16873205632902055,9.77272205632902
1455000000.0,21.34,0.0,0.0,0.0,0.5912487847848878,-0.18374121521511216,9.793911713046517
1460000000.0,21.34,0.0,0.0,0.0,0.6172451716412518,-0.15696,9.831974485076245
1465000000.0,21.34,0.0,0.0,0.0,0.60822,-0.15764672845586727,9.856989814632398
1470000000.0,21.34,0.0,0.0,0.0,0.6076313714470137,-0.16735862855298628,9.826088228682082
1475000000.0,21.34,0.0,0.0,0.0,0.5989005286501052,-0.1760894713498947,9.772231585950315
1480000000.0,21.34,0.0,0.0,0.0,0.60822,-0.16598514250555144,9.800974857494449
1485000000.0,21.34,0.0,0.0,0.0,0.6079256711556567,-0.14773865768868658,9.82069298653303
1490000000.0,21.34,0.0,0.0,0.0,0.5986062289414623,-0.16677,9.848455084234152
1495000000.0,21.34,0.0,0.0,0.0,0.6080237419228374,-0.16686812903858128,9.809607483845676
1500000000.0,21.34,0.0,0.0,0.0,0.5886000582714006,-0.17658,9.7707600582714
1505000000.0,21.34,0.0,0.0,0.0,0.6080238584656386,-0.17658,9.790183858465639
1510000000.0,21.34,0.0,0.0,0.0,0.60822,-0.1669661706700617,9.886518293299382
1515000000.0,21.34,0.0,0.0,0.0,0.60822,-0.16677,9.859932811718828
1520000000.0,21.34,0.0,0.0,0.0,0.6176376295241763,-0.1573523704758237,9.802544222854943
1525000000.0,21.34,0.0,0.0,0.0,0.6087104703787047,-0.1383209407574094,9.753592351893523
1530000000.0,21.34,0.0,0.0,0.0,0.60822,-0.15578285943682857,9.760361429718413
1535000000.0,21.34,0.0,0.0,0.0,0.6173433298155334,-0.15696,9.852183298155333
1540000000.0,21.34,0.0,0.0,0.0,0.6180300000000001,-0.15696,9.868075229912652
1545000000.0,21.34,0.0,0.0,0.0,0.6180300000000001,-0.1658871300097713,9.833151479960915
1550000000.0,21.34,0.0,0.0,0.0,0.6092009698931097,-0.16677,9.776645819358658
1555000000.0,21.34,0.0,0.0,0.0,0.60822,-0.16677,9.77076
1560000000.0,21.34,0.0,0.0,0.0,0.5995871696988717,-0.14950433939774338,9.82255698180677
1565000000.0,21.34,0.0,0.0,0.0,0.6154794607964946,-0.1556847303982473,9.872293651991237
1570000000.0,21.34,0.0,0.0,0.0,0.6264666304953663,-0.14852336950463368,9.828050217027803
1575000000.0,21.34,0.0,0.0,0.0,0.5944858776300588,-0.13881146940751468,9.769778816445088
1580000000.0,21.34,0.0,0.0,0.0,0.5803595693103957,-0.1538208613792086,9.769190430689603
1585000000.0,21.34,0.0,0.0,0.0,0.6032169923601699,-0.15696,9.811471653933618
1590000000.0,21.34,0.0,0.0,0.0,0.60822,-0.1650042308838423,9.85198692353537
1595000000.0,21.34,0.0,0.0,0.0,0.60822,-0.1588238690190387,9.827265476076155
1600000000.0,21.34,0.0,0.0,0.0,0.60822,-0.1491119689219197,9.804113937843839
1605000000.0,21.34,0.0,0.0,0.0,0.6004700688248007,-0.14715,9.769190275299202
1610000000.0,21.34,0.0,0.0,0.0,0.6060618312723183,-0.17010549381695492,9.776253662544637
1615000000.0,21.34,0.0,0.0,0.0,0.60822,-0.16147253726112537,9.825892388216625
1620000000.0,21.34,0.0,0.0,0.0,0.5933087370668874,-0.1644156314665563,9.861796894399669
1625000000.0,21.34,0.0,0.0,0.0,0.5959575315636754,-0.14469740530897404,9.824714810617948
1630000000.0,21.34,0.0,0.0,0.0,0.5911505683392057,-0.1445994316607943,9.773702841696029
1635000000.0,21.34,0.0,0.0,0.0,0.6029226635158266,-0.14715,9.796756658789567
1640000000.0,21.34,0.0,0.0,0.0,0.60822,-0.14008676814496768,9.817063231855032
1645000000.0,21.34,0.0,0.0,0.0,0.6151851319521514,-0.15823539585645396,9.826775131952152
1650000000.0,21.34,0.0,0.0,0.0,0.6111629679507297,-0.15990296795072967,9.82962
1655000000.0,21.34,0.0,0.0,0.0,0.6217578642927787,-0.14342213570722134,9.809313203560832
1660000000.0,21.34,0.0,0.0,0.0,0.6011566710259667,-0.14401083224350833,9.766835838782459
1665000000.0,21.34,0.0,0.0,0.0,0.6017454646812547,-0.16029546468125466,9.764285464681254
1670000000.0,21.34,0.0,0.0,0.0,0.60822,-0.16677,9.835506324377462
1675000000.0,21.34,0.0,0.0,0.0,0.60822,-0.1731465325348653,9.862483467465134
1680000000.0,21.34,0.0,0.0,0.0,0.6207768652639687,-0.17030156736801566,9.821379404208095
1685000000.0,21.34,0.0,0.0,0.0,0.6154793345417934,-0.16677,9.769288336354483
1690000000.0,21.34,0.0,0.0,0.0,0.60822,-0.15460553434755533,9.769386698478668
1695000000.0,21.34,0.0,0.0,0.0,0.60822,-0.13518173415331736,9.810490664616706
1700000000.0,21.34,0.0,0.0,0.0,0.60822,-0.13930206604092066,9.853164132081842
1705000000.0,21.34,0.0,0.0,0.0,0.60822,-0.14715,9.834132401294525
1710000000.0,21.34,0.0,0.0,0.0,0.6025301667853017,-0.15283983321469832,9.781550833926508
1715000000.0,21.34,0.0,0.0,0.0,0.5928182666881827,-0.16814346662363466,9.766541733311817
1720000000.0,21.34,0.0,0.0,0.0,0.5886,-0.1655927331821273,9.803721800453618
1725000000.0,21.34,0.0,0.0,0.0,0.5993910670121106,-0.15696,9.861993201036332
1730000000.0,21.34,0.0,0.0,0.0,0.6029225663968256,-0.14636513279365132,9.85139796477778
1735000000.0,21.34,0.0,0.0,0.0,0.5932106662997066,-0.1633366685014667,9.799012665198827
1740000000.0,21.34,0.0,0.0,0.0,0.5988024675948247,-0.17618753240517532,9.765266298607763
1745000000.0,21.34,0.0,0.0,0.0,0.60822,-0.16176686610546864,9.786161937261719
1750000000.0,21.34,0.0,0.0,0.0,0.60822,-0.15205496600834967,9.854145237941552
1755000000.0,21.34,0.0,0.0,0.0,0.60822,-0.15195693408876934,9.88848
1760000000.0,21.34,0.0,0.0,0.0,0.594093497442335,-0.16637766837177667,9.841391658141116
1765000000.0,21.34,0.0,0.0,0.0,0.5880114685660147,-0.16274779715097798,9.767326328584964
1770000000.0,21.34,0.0,0.0,0.0,0.59841,-0.14263736561987364,9.759380537520505
1775000000.0,21.34,0.0,0.0,0.0,0.6028245344772454,-0.15058360343173602,9.833544413726944
1780000000.0,21.34,0.0,0.0,0.0,0.5995871308512714,-0.16677,9.88965713085127
1785000000.0,21.34,0.0,0.0,0.0,0.5928183346714834,-0.16255166532851664,9.849141657299617
1790000000.0,21.34,0.0,0.0,0.0,0.59841,-0.16108023476860234,9.781158356619784
1795000000.0,21.34,0.0,0.0,0.0,0.59841,-0.15068146053711462,9.749374269731442
1800000000.0,21.34,0.0,0.0,0.0,0.6023340349628403,-0.13537806992568072,9.792342279702723
1805000000.0,21.34,0.0,0.0,0.0,0.6120459350599594,-0.1548018701199187,9.862385610359755
1810000000.0,21.34,0.0,0.0,0.0,0.6143021648429217,-0.15558649452876494,9.868467318743374
1815000000.0,21.34,0.0,0.0,0.0,0.6118497352541974,-0.1518589410167894,9.794401853220618
1820000000.0,21.34,0.0,0.0,0.0,0.6144983646486837,-0.17658,9.758203270702632
1825000000.0,21.34,0.0,0.0,0.0,0.6013529291031293,-0.16971292910312927,9.791361212690612
1830000000.0,21.34,0.0,0.0,0.0,0.5986063066366631,-0.16029543554555434,9.846297177727772
1835000000.0,21.34,0.0,0.0,0.0,0.6147926643573267,-0.17000733564267334,9.865720657429307
1840000000.0,21.34,0.0,0.0,0.0,0.6050807642602076,-0.17344076426020763,9.820594585561246
1845000000.0,21.34,0.0,0.0,0.0,0.5923277283261773,-0.16677,9.774487728326177
1850000000.0,21.34,0.0,0.0,0.0,0.5876191078020911,-0.16677,9.77566517967015
1855000000.0,21.34,0.0,0.0,0.0,0.60822,-0.15823519190655191,9.818534808093448
1860000000.0,21.34,0.0,0.0,0.0,0.6027263277434632,-0.14008683612826836,9.831189491615195
1865000000.0,21.34,0.0,0.0,0.0,0.5938974724507747,-0.15774494490154944,9.807351263774613
1870000000.0,21.34,0.0,0.0,0.0,0.60822,-0.1736368183874682,9.80019
1875000000.0,21.34,0.0,0.0,0.0,0.60822,-0.1446976092588761,9.80019
1880000000.0,21.34,0.0,0.0,0.0,0.60822,-0.16206112696651126,9.790772253933023
1885000000.0,21.34,0.0,0.0,0.0,0.6104763366138634,-0.14940633661386338,9.772231683069316
1890000000.0,21.34,0.0,0.0,0.0,0.6180300000000001,-0.15911823671098235,9.81
1895000000.0,21.34,0.0,0.0,0.0,0.6159698631918987,-0.16470986319189862,9.814120273616203
1900000000.0,21.34,0.0,0.0,0.0,0.60822,-0.15892203690522036,9.82962
1905000000.0,21.34,0.0,0.0,0.0,0.60822,-0.16863393700233936,9.825892125995322
1910000000.0,21.34,0.0,0.0,0.0,0.60822,-0.1748141629005416,9.806468325801085
1915000000.0,21.34,0.0,0.0,0.0,0.6065522628034226,-0.16677,9.792047737196578
1920000000.0,21.34,0.0,0.0,0.0,0.5968403627063036,-0.16677,9.80489891188109
1925000000.0,21.34,0.0,0.0,0.0,0.5915430747816307,-0.16382692521836925,9.82667692521837
1930000000.0,21.34,0.0,0.0,0.0,0.6040996875361969,-0.14852343748793437,9.805879687536198
1935000000.0,21.34,0.0,0.0,0.0,0.5800653375850534,-0.15696,9.783120675170107
1940000000.0,21.34,0.0,0.0,0.0,0.5874227623178276,-0.15931447536434473,9.80489895072869
1945000000.0,21.34,0.0,0.0,0.0,0.5831065511171656,-0.17334258666212585,9.83943
1950000000.0,21.34,0.0,0.0,0.0,0.6170489621235897,-0.15009311362923114,9.834524810617948
1955000000.0,21.34,0.0,0.0,0.0,0.6091029379735293,-0.17569706202647062,9.79038
1960000000.0,21.34,0.0,0.0,0.0,0.6180300000000001,-0.16520032385870323,9.79116483807065
1965000000.0,21.34,0.0,0.0,0.0,0.6180300000000001,-0.14577652366446525,9.802250214503303
1970000000.0,21.34,0.0,0.0,0.0,0.6174413617351137,-0.12988455305954555,9.830797276529774
1975000000.0,21.34,0.0,0.0,0.0,0.60822,-0.16578892327598924,9.849730538362005
1980000000.0,21.34,0.0,0.0,0.0,0.60822,-0.14911219229562192,9.855910492327006
1985000000.0,21.34,0.0,0.0,0.0,0.6088086771124868,-0.19502264577502648,9.78057
1990000000.0,21.34,0.0,0.0,0.0,0.6274475226932753,-0.15715623865336237,9.780962477306726
1995000000.0,21.34,0.0,0.0,0.0,0.60822,-0.1666718612495186,9.800778832502889
2000000000.0,21.34,0.0,0.0,0.0,0.60822,-0.15696,9.85905
2005000000.0,21.34,0.0,0.0,0.0,0.60822,-0.15696,9.85905
2010000000.0,21.34,0.0,0.0,0.0,0.60822,-0.17618767808367677,9.810980804790809
2015000000.0,21.34,0.0,0.0,0.0,0.60822,-0.13851704344417043,9.781452782583129
2020000000.0,21.34,0.0,0.0,0.0,0.60822,-0.16559291770822918,9.771152360763923
2025000000.0,21.34,0.0,0.0,0.0,0.5989004606668046,-0.16677,9.835996775332369
2030000000.0,21.34,0.0,0.0,0.0,0.59841,-0.16677,9.85787287886063
2035000000.0,21.34,0.0,0.0,0.0,0.6166566790548669,-0.16677,9.8043099628354
2040000000.0,21.34,0.0,0.0,0.0,0.5909542811263429,-0.17579523962455237,9.746038562252686
2045000000.0,21.34,0.0,0.0,0.0,0.6153814191650142,-0.1676528602783286,9.794892838330028
2050000000.0,21.34,0.0,0.0,0.0,0.6180300000000001,-0.16677,9.853164238912742
2055000000.0,21.34,0.0,0.0,0.0,0.5918371802522718,-0.15803906008409058,9.841588120168181
2060000000.0,21.34,0.0,0.0,0.0,0.6058656800260568,-0.15696,9.813531479960915
2065000000.0,21.34,0.0,0.0,0.0,0.6167547401101474,-0.1654947401101474,9.758791559339116
2070000000.0,21.34,0.0,0.0,0.0,0.6180300000000001,-0.16677,9.768013280414532
2075000000.0,21.34,0.0,0.0,0.0,0.6180300000000001,-0.1500929193912292,9.820791241826312
2080000000.0,21.34,0.0,0.0,0.0,0.6262704404015045,-0.1553904404015044,9.870822202007522
2085000000.0,21.34,0.0,0.0,0.0,0.6115553190027532,-0.12439063800550638,9.85424297850413
2090000000.0,21.34,0.0,0.0,0.0,0.6243084811914849,-0.14185272178722722,9.784886075234061
2095000000.0,21.34,0.0,0.0,0.0,0.6040015779214158,-0.14715,9.77076
2100000000.0,21.34,0.0,0.0,0.0,0.5827139184200392,-0.14715,9.810000203949903
2105000000.0,21.34,0.0,0.0,0.0,0.6020398226612982,-0.1548999408870994,9.835309881774199
2110000000.0,21.34,0.0,0.0,0.0,0.60822,-0.1646118409842184,9.83943
2115000000.0,21.34,0.0,0.0,0.0,0.60822,-0.1592162589186626,9.831876258918664
2120000000.0,21.34,0.0,0.0,0.0,0.6007643588215436,-0.17932692353536922,9.777430511750804
2125000000.0,21.34,0.0,0.0,0.0,0.59841,-0.14960229362212293,9.783022623826726
2130000000.0,21.34,0.0,0.0,0.0,0.5911505586273056,-0.1518588827453888,9.819417765490778
2135000000.0,21.34,0.0,0.0,0.0,0.6029226829396268,-0.15696,9.858265365879253
2140000000.0,21.34,0.0,0.0,0.0,0.60822,-0.14283351686613516,9.826480550598406
2145000000.0,21.34,0.0,0.0,0.0,0.6012548583359486,-0.16520056665620567,9.775174291679743
2150000000.0,21.34,0.0,0.0,0.0,0.6052770417611704,-0.1697129582388296,9.76095
2155000000.0,21.34,0.0,0.0,0.0,0.6285268255748683,-0.15323211628342118,9.794794709291446
2160000000.0,21.34,0.0,0.0,0.0,0.6109666321783663,-0.14047915804459157,9.85002505173245
2165000000.0,21.34,0.0,0.0,0.0,0.6247009682101097,-0.15048548410505483,9.84256903178989
2170000000.0,21.34,0.0,0.0,0.0,0.6311753578503536,-0.15696,9.79724678925177
2175000000.0,21.34,0.0,0.0,0.0,0.6150869155064692,-0.15058345775323456,9.786946542246767
2180000000.0,21.34,0.0,0.0,0.0,0.60822,-0.14087155765611556,9.79038
2185000000.0,21.34,0.0,0.0,0.0,0.5958593151179932,-0.1620613697640137,9.808921027323011
2190000000.0,21.34,0.0,0.0,0.0,0.5946822425381224,-0.16441551492375514,9.844138970152489
2195000000.0,21.34,0.0,0.0,0.0,0.6043941426352414,-0.15097585736475858,9.823145144188551
2200000000.0,21.34,0.0,0.0,0.0,0.5905618718029187,-0.14715,9.78841791453528
2205000000.0,21.34,0.0,0.0,0.0,0.6019417713179178,-0.15293794282947942,9.803721771317917
2210000000.0,21.34,0.0,0.0,0.0,0.6123401570734016,-0.14558031414680314,9.825499842926599
2215000000.0,21.34,0.0,0.0,0.0,0.6138117430237174,-0.14852348604743484,9.82962
2220000000.0,21.34,0.0,0.0,0.0,0.6125363568791636,-0.16245364312083643,9.807645427516654
2225000000.0,21.34,0.0,0.0,0.0,0.6298021728718217,-0.17216554321795544,9.801171086435911
2230000000.0,21.34,0.0,0.0,0.0,0.6262702267397022,-0.1659851133698511,9.799405113369852
2235000000.0,21.34,0.0,0.0,0.0,0.60822,-0.16215934341219343,9.821576060473161
2240000000.0,21.34,0.0,0.0,0.0,0.6184224870186249,-0.16677,9.833936269472062
2245000000.0,21.34,0.0,0.0,0.0,0.6178337127871372,-0.17177314360643142,9.809803712787138
2250000000.0,21.34,0.0,0.0,0.0,0.5984099125928991,-0.15695982518579824,9.7903799125929
2255000000.0,21.34,0.0,0.0,0.0,0.5982138876013389,-0.1517608314020083,9.794990831402009
2260000000.0,21.34,0.0,0.0,0.0,0.60822,-0.15264346830663467,9.824126531693366
2265000000.0,21.34,0.0,0.0,0.0,0.6174414879898149,-0.14656148798981486,9.834819256005092
2270000000.0,21.34,0.0,0.0,0.0,0.6188147118159472,-0.16147264409202644,9.807056779539868
2275000000.0,21.34,0.0,0.0,0.0,0.5993909116217091,-0.15794091162170912,9.78939908837829
2280000000.0,21.34,0.0,0.0,0.0,0.5972328885725289,-0.16009933285879333,9.821772221431322
2285000000.0,21.34,0.0,0.0,0.0,0.60822,-0.17236165561661654,9.84924
2290000000.0,21.34,0.0,0.0,0.0,0.6040997555194976,-0.16677,9.83275902207799
2295000000.0,21.34,0.0,0.0,0.0,0.6024321445776214,-0.16274785542237855,9.801955710844759
2300000000.0,21.34,0.0,0.0,0.0,0.6121440446747405,-0.1491119106505191,9.79038
2305000000.0,21.34,0.0,0.0,0.0,0.6103781104562811,-0.13734,9.79803188954372
2310000000.0,21.34,0.0,0.0,0.0,0.5946821551310215,-0.1447956897379569,9.828639224344892
2315000000.0,21.34,0.0,0.0,0.0,0.595859489932195,-0.16058974496609743,9.84453102013561
2320000000.0,21.34,0.0,0.0,0.0,0.6117516450632164,-0.17030164506321643,9.816278354936784
2325000000.0,21.34,0.0,0.0,0.0,0.6145964548396646,-0.17314645483966454,9.813433545160336
2330000000.0,21.34,0.0,0.0,0.0,0.60822,-0.17010544525745444,9.803132773712727
2335000000.0,21.34,0.0,0.0,0.0,0.6114573453545735,-0.17334265464542653,9.79018407212744
2340000000.0,21.34,0.0,0.0,0.0,0.6180300000000001,-0.17304849090338492,9.823341509096615
2345000000.0,21.34,0.0,0.0,0.0,0.6149888544511886,-0.1711842722559427,9.819123436646434
2350000000.0,21.34,0.0,0.0,0.0,0.6052769543540696,-0.1432260912918609,9.821771726124418
2355000000.0,21.34,0.0,0.0,0.0,0.6040998914860989,-0.15411505425695055,9.78341494574305
2360000000.0,21.34,0.0,0.0,0.0,0.6152831541598316,-0.14440315415983154,9.801367383360674
2365000000.0,21.34,0.0,0.0,0.0,0.6055712540627125,-0.13734,9.824322508125425
2370000000.0,21.34,0.0,0.0,0.0,0.6035112920688129,-0.13734,9.804898707931187
2375000000.0,21.34,0.0,0.0,0.0,0.6106723616054237,-0.14715018452610185,9.795285092263052
2380000000.0,21.34,0.0,0.0,0.0,0.5909544462286445,-0.17658,9.819417784914577
2385000000.0,21.34,0.0,0.0,0.0,0.59841,-0.17206730734847306,9.840214614696947
2390000000.0,21.34,0.0,0.0,0.0,0.6005682464228824,-0.15911824642288244,9.799208767885588
2395000000.0,21.34,0.0,0.0,0.0,0.60822,-0.16264970695999706,9.769190586080006
2400000000.0,21.34,0.0,0.0,0.0,0.60822,-0.14715,9.808038186468483
2405000000.0,21.34,0.0,0.0,0.0,0.6100839467142395,-0.14528605328576052,9.84129394671424
2410000000.0,21.34,0.0,0.0,0.0,0.6180300000000001,-0.1426375404340754,9.847474153188642
2415000000.0,21.34,0.0,0.0,0.0,0.6163622530915226,-0.16343450618304506,9.829423518549136
2420000000.0,21.34,0.0,0.0,0.0,0.60822,-0.14715,9.78527894101679
2425000000.0,21.34,0.0,0.0,0.0,0.60822,-0.15009309420543093,9.817357735513578
2430000000.0,21.34,0.0,0.0,0.0,0.60822,-0.16539655280016552,9.857676552800166
2435000000.0,21.34,0.0,0.0,0.0,0.6094953472969534,-0.15696,9.842863263515232
2440000000.0,21.34,0.0,0.0,0.0,0.6144982578177827,-0.15696,9.79548101042371
2445000000.0,21.34,0.0,0.0,0.0,0.5918374424735744,-0.1558808525088085,9.76202914749119
2450000000.0,21.34,0.0,0.0,0.0,0.6160679048233791,-0.14813104758831047,9.778608380706483
2455000000.0,21.34,0.0,0.0,0.0,0.5992929476854295,-0.15784294768542947,9.84835705231457
2460000000.0,21.34,0.0,0.0,0.0,0.60822,-0.16598515221745153,9.834720913304709
2465000000.0,21.34,0.0,0.0,0.0,0.60822,-0.15696,9.779883252120333
2470000000.0,21.34,0.0,0.0,0.0,0.60822,-0.1563713520232135,9.77252594393036
2475000000.0,21.34,0.0,0.0,0.0,0.60822,-0.14764054807390548,9.801661644221717
2480000000.0,21.34,0.0,0.0,0.0,0.60822,-0.15617510365795104,9.82962
2485000000.0,21.34,0.0,0.0,0.0,0.60822,-0.13822304480443043,9.828442606927426
2490000000.0,21.34,0.0,0.0,0.0,0.607827503269475,-0.1665737516347375,9.789987503269476
2495000000.0,21.34,0.0,0.0,0.0,0.5886981484623814,-0.15696,9.771152593849525
2500000000.0,21.34,0.0,0.0,0.0,0.5984100485595005,-0.15696,9.810000097119001
2505000000.0,21.34,0.0,0.0,0.0,0.6081219486566195,-0.15696,9.829423897313239
2510000000.0,21.34,0.0,0.0,0.0,0.5986061512462615,-0.16657384875373848,9.868075395014953
2515000000.0,21.34,0.0,0.0,0.0,0.6079257488508575,-0.1572542511491425,9.802249758043999
2520000000.0,21.34,0.0,0.0,0.0,0.60822,-0.15696,9.77193705315607
2525000000.0,21.34,0.0,0.0,0.0,0.5989004509549045,-0.17559909809019097,9.789399098090191
2530000000.0,21.34,0.0,0.0,0.0,0.616852898284429,-0.19502289828442898,9.827265796568858
2535000000.0,21.34,0.0,0.0,0.0,0.5815366030426661,-0.177953301521333,9.838743349239333
2540000000.0,21.34,0.0,0.0,0.0,0.57879,-0.1675547506635475,9.812354251990643
2545000000.0,21.34,0.0,0.0,0.0,0.6234257471678575,-0.16677,9.783218551699287
2550000000.0,21.34,0.0,0.0,0.0,0.6013528514079285,-0.184428099061381,9.798228099061381
2555000000.0,21.34,0.0,0.0,0.0,0.6071409496278095,-0.168928100744381,9.826382848883428
2560000000.0,21.34,0.0,0.0,0.0,0.5995871502750715,-0.14950430055014302,9.820987150275071
2565000000.0,21.34,0.0,0.0,0.0,0.6069447498220475,-0.13008050035590502,9.828344749822048
2570000000.0,21.34,0.0,0.0,0.0,0.60822,-0.16971324959583248,9.812746700161668
2575000000.0,21.34,0.0,0.0,0.0,0.5998814499837145,-0.14322579993485798,9.81
2580000000.0,21.34,0.0,0.0,0.0,0.6066504501134045,-0.16206135034021352,9.81
2585000000.0,21.34,0.0,0.0,0.0,0.60822,-0.15048529957895299,9.81
2590000000.0,21.34,0.0,0.0,0.0,0.60822,-0.1551942503076425,9.818044250307643
2595000000.0,21.34,0.0,0.0,0.0,0.592327699190477,-0.172852300809523,9.803917699190478
2600000000.0,21.34,0.0,0.0,0.0,0.604296101003761,-0.15303584849435847,9.80019
2605000000.0,21.34,0.0,0.0,0.0,0.6004700494010005,-0.14715,9.807939950599
2610000000.0,21.34,0.0,0.0,0.0,0.6060618506961185,-0.1701055520883555,9.802348149303882
2615000000.0,21.34,0.0,0.0,0.0,0.60822,-0.16902624920676249,9.815297501586475
2620000000.0,21.34,0.0,0.0,0.0,0.6156756508903566,-0.16677,9.849632603561426
2625000000.0,21.34,0.0,0.0,0.0,0.6253875509874756,-0.1594124490125245,9.822262245062623
2630000000.0,21.34,0.0,0.0,0.0,0.6060616467462164,-0.14244109783081096,9.802740548915406
2635000000.0,21.34,0.0,0.0,0.0,0.5912486488182865,-0.15166270236342702,9.793028648818288
2640000000.0,21.34,0.0,0.0,0.0,0.602726502557665,-0.14283349744233495,9.797443251278834
2645000000.0,21.34,0.0,0.0,0.0,0.60822,-0.16520060550380605,9.835015756879757
2650000000.0,21.34,0.0,0.0,0.0,0.594485897053859,-0.16284589705385896,9.82863884558079
2655000000.0,21.34,0.0,0.0,0.0,0.6156758062807581,-0.15696,9.80627209685962
2660000000.0,21.34,0.0,0.0,0.0,0.614498296665383,-0.17030170333461703,9.780177444998074
2665000000.0,21.34,0.0,0.0,0.0,0.6147927517644276,-0.17658,9.79705100705771
2670000000.0,21.34,0.0,0.0,0.0,0.6115553481384535,-0.1701053481384535,9.835898607446186
2675000000.0,21.34,0.0,0.0,0.0,0.595466896082669,-0.16039344804133449,9.823733792165338
2680000000.0,21.34,0.0,0.0,0.0,0.5886,-0.16323845205578452,9.79744309588843
2685000000.0,21.34,0.0,0.0,0.0,0.5886,-0.15440929569419296,9.778019295694193
2690000000.0,21.34,0.0,0.0,0.0,0.5886,-0.15323225225002252,9.776842252250022
2695000000.0,21.34,0.0,0.0,0.0,0.6065524570414246,-0.16892830469428305,9.81647491408285
2700000000.0,21.34,0.0,0.0,0.0,0.6239160524442606,-0.17069394755573947,9.83943
2705000000.0,21.34,0.0,0.0,0.0,0.6220520474586205,-0.15519409491724095,9.816278189834483
2710000000.0,21.34,0.0,0.0,0.0,0.606650294723003,-0.15283985263849853,9.80019
2715000000.0,21.34,0.0,0.0,0.0,0.6040017527356175,-0.15696,9.805781752735617
2720000000.0,21.34,0.0,0.0,0.0,0.6192073056654731,-0.15696,9.81
2725000000.0,21.34,0.0,0.0,0.0,0.617048894140289,-0.1731466587895666,9.836977764649278
2730000000.0,21.34,0.0,0.0,0.0,0.5923276409190764,-0.17579509394605095,9.821967828811179
2735000000.0,21.34,0.0,0.0,0.0,0.5943880593722806,-0.1511719406277194,9.79038
2740000000.0,21.34,0.0,0.0,0.0,0.5980174935575749,-0.14244125322121254,9.795481253221213
2745000000.0,21.34,0.0,0.0,0.0,0.5936031533183316,-0.1621594599549946,9.820202613273327
2750000000.0,21.34,0.0,0.0,0.0,0.6033150534154506,-0.1618648397536484,9.829619893169099
2755000000.0,21.34,0.0,0.0,0.0,0.6034130464874304,-0.15195695351256952,9.815003046487432
2760000000.0,21.34,0.0,0.0,0.0,0.5889922927806229,-0.16637770721937706,9.791164585561246
2765000000.0,21.34,0.0,0.0,0.0,0.5926222611204226,-0.17196924629319246,9.78920301482723
2770000000.0,21.34,0.0,0.0,0.0,0.599194692392147,-0.16225734619607346,9.819025307607854
2775000000.0,21.34,0.0,0.0,0.0,0.5974291078020911,-0.16137455390104552,9.838449107802091
2780000000.0,21.34,0.0,0.0,0.0,0.6039035460018355,-0.15382063800550638,9.823341276011012
2785000000.0,21.34,0.0,0.0,0.0,0.6026283540952835,-0.13734,9.781943291809434
2790000000.0,21.34,0.0,0.0,0.0,0.6123402541924026,-0.14970076257720763,9.791361270962012
2795000000.0,21.34,0.0,0.0,0.0,0.6059635371314355,-0.16677,9.827854308579044
2800000000.0,21.34,0.0,0.0,0.0,0.5925240543866406,-0.1589218912267189,9.83943
2805000000.0,21.34,0.0,0.0,0.0,0.5945840455162404,-0.13949809103248093,9.824126182064962
2810000000.0,21.34,0.0,0.0,0.0,0.5960557091617571,-0.1498971274852713,9.80391785458088
2815000000.0,21.34,0.0,0.0,0.0,0.6009604906440049,-0.17550073596600735,9.79548098128801
2820000000.0,21.34,0.0,0.0,0.0,0.595663309550233,-0.15696,9.788418273875582
2825000000.0,21.34,0.0,0.0,0.0,0.6116535548722356,-0.15352644512776445,9.830110664616706
2830000000.0,21.34,0.0,0.0,0.0,0.611359090061291,-0.15048545496935456,9.835898180122582
2835000000.0,21.34,0.0,0.0,0.0,0.6081220651994207,-0.15696,9.813237355066475
2840000000.0,21.34,0.0,0.0,0.0,0.6247007448364075,-0.1632385103271851,9.822949255163593
2845000000.0,21.34,0.0,0.0,0.0,0.6210711552607117,-0.16441537895715377,9.820496534217865
2850000000.0,21.34,0.0,0.0,0.0,0.6219538892843389,-0.13734,9.79724694464217
2855000000.0,21.34,0.0,0.0,0.0,0.60822,-0.1430299109098991,9.793224955454951
2860000000.0,21.34,0.0,0.0,0.0,0.60822,-0.15696,9.811177422208274
2865000000.0,21.34,0.0,0.0,0.0,0.6135175112983752,-0.15431124435081245,9.836781244350812
2870000000.0,21.34,0.0,0.0,0.0,0.6176373770147738,-0.14970065574630656,9.819417377014775
2875000000.0,21.34,0.0,0.0,0.0,0.5935051116868512,-0.1618651116868511,9.78547488831315
2880000000.0,21.34,0.0,0.0,0.0,0.6035110881189109,-0.16951663217836632,9.77076
2885000000.0,21.34,0.0,0.0,0.0,0.5908563560376636,-0.14715,9.784298136225981
2890000000.0,21.34,0.0,0.0,0.0,0.6005682561347826,-0.14930825613478257,9.831778256134783
2895000000.0,21.34,0.0,0.0,0.0,0.6040996875361969,-0.15902015623190155,9.837369843768098
2900000000.0,21.34,0.0,0.0,0.0,0.5905620563290206,-0.16284588734195887,9.815885605696856
2905000000.0,21.34,0.0,0.0,0.0,0.5928181307215813,-0.15087791285227914,9.764677912852278
2910000000.0,21.34,0.0,0.0,0.0,0.5725117130465172,-0.15970657390696574,9.789399282616294
2915000000.0,21.34,0.0,0.0,0.0,0.5902677566203776,-0.13420102648151028,9.82962
2920000000.0,21.34,0.0,0.0,0.0,0.59841,-0.16677,9.828050343282504
2925000000.0,21.34,0.0,0.0,0.0,0.5954668863707688,-0.16529844318538442,9.812452215926923
2930000000.0,21.34,0.0,0.0,0.0,0.5829103707352037,-0.15696,9.773506913823468
2935000000.0,21.34,0.0,0.0,0.0,0.6094953570088536,-0.15823535700885355,9.798032142053122
2940000000.0,21.34,0.0,0.0,0.0,0.615675485788055,-0.16677,9.845708228682083
2945000000.0,21.37410180764102,0.0,0.0,0.0,0.6016474716092747,-0.16677,9.81981
2950000000.0,21.65,0.0,0.0,0.0,0.6229347134989472,-0.16578894269978942,9.81784788539958
2955000000.0,21.65,0.0,0.0,0.0,0.5796729573973296,-0.15696,9.79930704260267
2960000000.0,21.65,0.0,0.0,0.0,0.5893848574944486,-0.15617514250555142,9.792734572483347
2965000000.0,21.65,0.0,0.0,0.0,0.5990967575915676,-0.14783675759156759,9.820496757591568
2970000000.0,21.65,0.0,0.0,0.0,0.6093973153773732,-0.15696,9.830208657688686
2975000000.0,21.65,0.0,0.0,0.0,0.6268588844283889,-0.15794111557161114,9.837467768856778
2980000000.0,21.65,0.0,0.0,0.0,0.6090049157658491,-0.17579508423415083,9.799797542117076
2985000000.0,21.65,0.0,0.0,0.0,0.6272512840399129,-0.15696,9.790968715960087
2990000000.0,21.65,0.0,0.0,0.0,0.60822,-0.15696,9.810588774231489
2995000000.0,21.65,0.0,0.0,0.0,0.6081218418257184,-0.15696,9.83943
3000000000.0,21.65,0.0,0.0,0.0,0.5984100582714006,-0.15696,9.839429766914398
3005000000.0,21.65,0.0,0.0,0.0,0.6081219583685196,-0.15696,9.800582166525922
3010000000.0,21.65,0.0,0.0,0.0,0.6178338584656387,-0.14734614153436143,9.790576141534363
3015000000.0,21.65,0.0,0.0,0.0,0.6085142414372424,-0.16618151712551518,9.79038
3020000000.0,21.65,0.0,0.0,0.0,0.60822,-0.14793468268024684,9.79038
3025000000.0,21.65,0.0,0.0,0.0,0.5989004412430045,-0.17510867627098675,9.836977793784978
3030000000.0,21.65,0.0,0.0,0.0,0.59841,-0.17658,9.802544164583542
3035000000.0,21.65,0.0,0.0,0.0,0.6075333589512336,-0.1674566410487664,9.80019
3040000000.0,21.65,0.0,0.0,0.0,0.6172452590483527,-0.14871948190329481,9.854341554290116
3045000000.0,21.65,0.0,0.0,0.0,0.6180300000000001,-0.15607715914547157,9.80548704512717
3050000000.0,21.65,0.0,0.0,0.0,0.6092009407574094,-0.17461811848518116,9.817848118485182
3055000000.0,21.65,0.0,0.0,0.0,0.60822,-0.1678490406602904,9.784886162641163
3060000000.0,21.65,0.0,0.0,0.0,0.60822,-0.14087142168951422,9.806468578310486
3065000000.0,21.65,0.0,0.0,0.0,0.60822,-0.1458747595339476,9.827069519067896
3070000000.0,21.65,0.0,0.0,0.0,0.60822,-0.1387133403689334,9.812746680737867
3075000000.0,21.65,0.0,0.0,0.0,0.60822,-0.17069423891274238,9.801661440271815
3080000000.0,21.65,0.0,0.0,0.0,0.5999795401746953,-0.1600990803493908,9.80019
3085000000.0,21.65,0.0,0.0,0.0,0.6146947198448472,-0.1488176400775764,9.808332359922424
3090000000.0,21.65,0.0,0.0,0.0,0.6019414799609148,-0.14715,9.84217704007817
3095000000.0,21.65,0.0,0.0,0.0,0.5904638398833384,-0.17893464046664642,9.833347679766677
3100000000.0,21.65,0.0,0.0,0.0,0.5807519397862194,-0.1549977591448776,9.790379698931098
3105000000.0,21.65,0.0,0.0,0.0,0.5942899206217992,-0.17814984124359842,9.7960699206218
3110000000.0,21.65,0.0,0.0,0.0,0.6060618604080186,-0.1710862791839628,9.815493720816038
3115000000.0,21.65,0.0,0.0,0.0,0.6006662394948624,-0.1818775210102752,9.827363760505138
3120000000.0,21.65,0.0,0.0,0.0,0.6058656606022566,-0.1789343393977434,9.814708678795487
3125000000.0,21.65,0.0,0.0,0.0,0.6229351213987513,-0.1692224393006244,9.81
3130000000.0,21.65,0.0,0.0,0.0,0.6278400000000001,-0.1522510784070108,9.795481078407011
3135000000.0,21.65,0.0,0.0,0.0,0.6063559173191592,-0.18295680446806806,9.826186804468069
3140000000.0,21.65,0.0,0.0,0.0,0.6054732609907326,-0.1891367390092674,9.853556521981465
3145000000.0,21.65,0.0,0.0,0.0,0.5942896778242968,-0.15156419456074194,9.81725903347289
3150000000.0,21.65,0.0,0.0,0.0,0.6023341223699412,-0.15794118355491182,9.78645587763006
3155000000.0,21.65,0.0,0.0,0.0,0.6149889612820897,-0.16677,9.80087688384627
3160000000.0,21.65,0.0,0.0,0.0,0.6113591386207914,-0.15342827724158278,9.823341722758418
3165000000.0,21.65,0.0,0.0,0.0,0.60822,-0.14715,9.823047238523673
3170000000.0,21.65,0.0,0.0,0.0,0.6017453384265534,-0.16009932314689324,9.800386015279662
3175000000.0,21.65,0.0,0.0,0.0,0.6047865616705657,-0.16039343832943437,9.809509685011697
3180000000.0,21.65,0.0,0.0,0.0,0.60822,-0.1632384617676846,9.813531538232317
3185000000.0,21.65,0.0,0.0,0.0,0.6205807237296073,-0.16677,9.816180361864804
3190000000.0,21.65,0.0,0.0,0.0,0.6095932141142322,-0.15460547607615477,9.813727738038077
3195000000.0,21.65,0.0,0.0,0.0,0.6043941620590416,-0.15911832411808324,9.81
3200000000.0,21.65,0.0,0.0,0.0,0.60822,-0.15499787568767875,9.804113937843839
3205000000.0,21.65,0.0,0.0,0.0,0.6024320377467204,-0.15293796225327963,9.81176592450656
3210000000.0,21.65,0.0,0.0,0.0,0.6097897247007973,-0.16833972470079722,9.81981
3215000000.0,21.65,0.0,0.0,0.0,0.6012547126574471,-0.17098823755248238,9.814218237552483
3220000000.0,21.65,0.0,0.0,0.0,0.5940936625446366,-0.16677,9.799012674910728
3225000000.0,21.65,0.0,0.0,0.0,0.59841,-0.1505833120747331,9.801171125283512
3230000000.0,21.65,0.0,0.0,0.0,0.5931125372611253,-0.14793492547774925,9.815297462738876
3235000000.0,21.65,0.0,0.0,0.0,0.604198088507981,-0.16215936283599364,9.81981
3240000000.0,21.65,0.0,0.0,0.0,0.6078274741337748,-0.1718712629331126,9.824911262933114
3245000000.0,21.65,0.0,0.0,0.0,0.59841,-0.16657367393953673,9.814610510909306
3250000000.0,21.65,0.0,0.0,0.0,0.6033150631273506,-0.15696,9.814905189382053
3255000000.0,21.65,0.0,0.0,0.0,0.6034130367755304,-0.1713808896734089,9.82481303677553
3260000000.0,21.65,0.0,0.0,0.0,0.6031188633215886,-0.1722634100352341,9.815101136678411
3265000000.0,21.65,0.0,0.0,0.0,0.6036092365812924,-0.16157076341870763,9.805389236581293
3270000000.0,21.65,0.0,0.0,0.0,0.59841,-0.15774467296834674,9.804702663515828
3275000000.0,21.65,0.0,0.0,0.0,0.59841,-0.1603936908388369,9.827658254451784
3280000000.0,21.65,0.0,0.0,0.0,0.6027264637100647,-0.16363060886980607,9.840607072579871
3285000000.0,21.65,0.0,0.0,0.0,0.60822,-0.15136836380718363,9.821183272385634
3290000000.0,21.65,0.0,0.0,0.0,0.5999794721913947,-0.15696,9.801759472191396
3295000000.0,21.65,0.0,0.0,0.0,0.5926221640014216,-0.15696,9.802446492004265
3300000000.0,21.65,0.0,0.0,0.0,0.6023340640985406,-0.16873219229562192,9.827658128197081
3305000000.0,21.65,0.0,0.0,0.0,0.60822,-0.17873807160868072,9.83560403580434
3310000000.0,21.65,0.0,0.0,0.0,0.6007642714144427,-0.16304213570722134,9.814708542828885
3315000000.0,21.65,0.0,0.0,0.0,0.5886,-0.15696,9.794009764389898
3320000000.0,21.65,0.0,0.0,0.0,0.5956633289740333,-0.16402332897403327,9.796658335512983
3325000000.0,21.65,0.0,0.0,0.0,0.60822,-0.16627930624759305,9.804114258336543
3330000000.0,21.65,0.0,0.0,0.0,0.6115554646812547,-0.1604918587250186,9.826284535318745
3335000000.0,21.65,0.0,0.0,0.0,0.6212673647783737,-0.1734405408865054,9.813335270443254
3340000000.0,21.65,0.0,0.0,0.0,0.6215614702490148,-0.15028926487549266,9.803329264875494
3345000000.0,21.65,0.0,0.0,0.0,0.6021376700547767,-0.15696,9.803917670054778
3350000000.0,21.65,0.0,0.0,0.0,0.597429195209192,-0.16284613013946128,9.802152260278923
3355000000.0,21.65,0.0,0.0,0.0,0.6180300000000001,-0.1708900696663007,9.821085104499451
3360000000.0,21.65,0.0,0.0,0.0,0.6097894042080941,-0.15421313473603135,9.80019
3365000000.0,21.65,0.0,0.0,0.0,0.5991950614443506,-0.14715,9.797541234638913
3370000000.0,21.65,0.0,0.0,0.0,0.6201880036253801,-0.14715,9.795481330916415
3375000000.0,21.65,0.0,0.0,0.0,0.605767696665977,-0.14715,9.814905131110653
3380000000.0,21.65,0.0,0.0,0.0,0.6231310686951107,-0.14479553434755535,9.827265534347555
3385000000.0,21.65,0.0,0.0,0.0,0.60822,-0.14410909724869098,9.810784537001746
3390000000.0,21.65,0.0,0.0,0.0,0.6103782658466826,-0.16892826584668266,9.78057
3395000000.0,21.65,0.0,0.0,0.0,0.6159698340561984,-0.17451983405619834,9.788810663775207
3400000000.0,21.65,0.0,0.0,0.0,0.60822,-0.16480793395907933,9.823734132081842
3405000000.0,21.65,0.0,0.0,0.0,0.602628101585881,-0.15696,9.84129396613804
3410000000.0,21.65,0.0,0.0,0.0,0.5823217324703174,-0.16225759870547599,9.843942401294525
3415000000.0,21.65,0.0,0.0,0.0,0.5967422336677224,-0.18305446733544467,9.818142233667723
3420000000.0,21.65,0.0,0.0,0.0,0.5917393328587933,-0.16363066714120666,9.806860667141207
3425000000.0,21.65,0.0,0.0,0.0,0.6052768669469687,-0.14862156652651567,9.79038
3430000000.0,21.65,0.0,0.0,0.0,0.592720399870904,-0.15833346662363465,9.794500399870905
3435000000.0,21.65,0.0,0.0,0.0,0.6205807334415074,-0.16421926655849267,9.822360733441508
3440000000.0,21.65,0.0,0.0,0.0,0.634118199546382,-0.14832726681787267,9.840607266817873
3445000000.0,21.65,0.0,0.0,0.0,0.6060616661700167,-0.15480166617001664,9.843844165425041
3450000000.0,21.65,0.0,0.0,0.0,0.5895810670121107,-0.13930213402422134,9.79920893298789
3455000000.0,21.65,0.0,0.0,0.0,0.6001759342184594,-0.15784296710922965,9.79126296710923
3460000000.0,21.65,0.0,0.0,0.0,0.6141056639682567,-0.16598513279365132,9.801759734412698
3465000000.0,21.65,0.0,0.0,0.0,0.571040301910403,-0.15696,9.821183534606936
3470000000.0,21.65,0.0,0.0,0.0,0.5978213325994133,-0.15754866740058665,9.838841332599413
3475000000.0,21.65,0.0,0.0,0.0,0.5895811349954113,-0.16677,9.828638865004589
3480000000.0,21.65,0.0,0.0,0.0,0.6074350648103506,-0.16637753240517533,9.808822597215526
3485000000.0,21.65,0.0,0.0,0.0,0.5891887353838874,-0.15725436769194368,9.781747470767776
3490000000.0,21.65,0.0,0.0,0.0,0.6084162677890627,-0.16677,9.820202535578126
3495000000.0,21.65,0.0,0.0,0.0,0.6180300000000001,-0.16677,9.839233664227637
3500000000.0,21.65,0.0,0.0,0.0,0.6180298640333988,-0.16676993201669932,9.819809796050098
3505000000.0,21.65,0.0,0.0,0.0,0.5986060638391606,-0.15705803191958032,9.790674095758742
3510000000.0,21.65,0.0,0.0,0.0,0.5887961318224614,-0.15696,9.771152263644922
3515000000.0,21.65,0.0,0.0,0.0,0.5981157682746577,-0.14744423172534232,9.818338841373288
3520000000.0,21.65,0.0,0.0,0.0,0.6172453367435534,-0.16598533674355337,9.84806300511533
3525000000.0,21.65,0.0,0.0,0.0,0.6180300000000001,-0.16677,9.839920431531105
3530000000.0,21.65,0.0,0.0,0.0,0.5995870628679706,-0.16677,9.774879720037896
3535000000.0,21.65,0.0,0.0,0.0,0.59841,-0.14852326267373261,9.761636631336865
3540000000.0,21.65,0.0,0.0,0.0,0.59841,-0.15617526876025267,9.806076343801264
3545000000.0,21.65,0.0,0.0,0.0,0.6162643377147434,-0.1658871688573717,9.85463584428686
3550000000.0,21.65,0.0,0.0,0.0,0.6003718620910187,-0.16677,9.85905
3555000000.0,21.65,0.0,0.0,0.0,0.6071409690516096,-0.17550096905160967,9.806664185690343
3560000000.0,21.65,0.0,0.0,0.0,0.60822,-0.15068139255381394,9.748392785107628
3565000000.0,21.65,0.0,0.0,0.0,0.6252895384916954,-0.17275430773754308,9.78400384622924
3570000000.0,21.65,0.0,0.0,0.0,0.6109666613140666,-0.15126999197109992,9.8410000160578
3575000000.0,21.65,0.0,0.0,0.0,0.5998814305599143,-0.14715,9.865917138880171
3580000000.0,21.65,0.0,0.0,0.0,0.6066504695372047,-0.14715,9.835898121851182
3585000000.0,21.65,0.0,0.0,0.0,0.6000776303656763,-0.1552923696343237,9.772623412559733
3590000000.0,21.65,0.0,0.0,0.0,0.6064542697314427,-0.1730485394628854,9.752905730268557
3595000000.0,21.65,0.0,0.0,0.0,0.6002738301714383,-0.1606876603428766,9.806763188799932
3600000000.0,21.65,0.0,0.0,0.0,0.59841,-0.15696,9.835506139851361
3605000000.0,21.65,0.0,0.0,0.0,0.6061599700227996,-0.15696,9.83943
3610000000.0,21.65,0.0,0.0,0.0,0.6158718701199187,-0.1493081298800813,9.785866909160568
3615000000.0,21.65,0.0,0.0,0.0,0.6104762297829623,-0.1698113106511131,9.80097508086815
3620000000.0,21.65,0.0,0.0,0.0,0.6007643296858433,-0.1616686593716866,9.824911340628313
3625000000.0,21.65,0.0,0.0,0.0,0.6057675704112757,-0.1643175704112757,9.822262429588724
3630000000.0,21.65,0.0,0.0,0.0,0.5937010589832106,-0.16677,9.827069470508395
3635000000.0,21.65,0.0,0.0,0.0,0.6029227412110274,-0.15244725878897258,9.815297258788974
3640000000.0,21.65,0.0,0.0,0.0,0.60822,-0.16127654140526543,9.824126541405265
3645000000.0,21.65,0.0,0.0,0.0,0.60822,-0.14587448760074487,9.822654829200248
3650000000.0,21.65,0.0,0.0,0.0,0.6013529291031293,-0.1510741417937414,9.81294292910313
3655000000.0,21.65,0.0,0.0,0.0,0.5713341160240412,-0.15696,9.789693087018032
3660000000.0,21.65,0.0,0.0,0.0,0.5791826132733262,-0.1502891289088913,9.800582613273328
3665000000.0,21.65,0.0,0.0,0.0,0.6017455423764554,-0.1537227711882277,9.829718313564683
3670000000.0,21.65,0.0,0.0,0.0,0.6017453287146532,-0.17638401385604013,9.826480657429308
3675000000.0,21.65,0.0,0.0,0.0,0.5856568572350686,-0.17363685723506858,9.800680285852604
3680000000.0,21.65,0.0,0.0,0.0,0.5850684714795847,-0.1604915285204153,9.796658471479585
3685000000.0,21.65,0.0,0.0,0.0,0.6009607431534074,-0.13841888526988885,9.812550743153407
3690000000.0,21.65,0.0,0.0,0.0,0.60822,-0.15794135836911358,9.831974543347645
3695000000.0,21.65,0.0,0.0,0.0,0.6022358282290583,-0.17658,9.815493312916233
3700000000.0,21.65,0.0,0.0,0.0,0.59841,-0.16480785626387856,9.79430392813194
3705000000.0,21.65,0.0,0.0,0.0,0.6041979719651797,-0.15696,9.79616797196518
3710000000.0,21.65,0.0,0.0,0.0,0.6139098720622987,-0.16833974412459743,9.811569744124597
3715000000.0,21.65,0.0,0.0,0.0,0.6124382278405823,-0.16539645568116454,9.830993544318837
3720000000.0,21.65,0.0,0.0,0.0,0.60822,-0.16794734451307344,9.82294898323039
3725000000.0,21.65,0.0,0.0,0.0,0.6028244276463443,-0.16578885529268855,9.793813282939034
3730000000.0,21.65,0.0,0.0,0.0,0.6037074724507747,-0.16755494490154943,9.775272527549225
3735000000.0,21.65,0.0,0.0,0.0,0.60822,-0.17138062745210628,9.801956235287362
3740000000.0,21.65,0.0,0.0,0.0,0.60822,-0.16166872735498727,9.839822545290026
3745000000.0,21.65,0.0,0.0,0.0,0.60822,-0.15195682725786827,9.829227309031474
3750000000.0,21.65,0.0,0.0,0.0,0.6131250728392508,-0.16186521851775218,9.800189854321498
3755000000.0,21.65,0.0,0.0,0.0,0.6132230270636303,-0.17177302706363026,9.78557302706363
3760000000.0,21.65,0.0,0.0,0.0,0.6223466191004662,-0.17147887303348872,9.799405492133955
3765000000.0,21.65,0.0,0.0,0.0,0.6145961343469614,-0.16735845373878452,9.83825309252243
3770000000.0,21.65,0.0,0.0,0.0,0.5976253464554535,-0.17952336613863365,9.840999307089094
3775000000.0,21.65,0.0,0.0,0.0,0.6126345733248457,-0.18393713337577133,9.81981
3780000000.0,21.65,0.0,0.0,0.0,0.6093970531560706,-0.16127647342196472,9.806860579734106
3785000000.0,21.65,0.0,0.0,0.0,0.59841,-0.16677,9.803035120557253
3790000000.0,21.65,0.0,0.0,0.0,0.5942897263837973,-0.1544091791513918,9.83629109446481
3795000000.0,21.65,0.0,0.0,0.0,0.5966443474266435,-0.14538434742664347,9.838939131433392
3800000000.0,21.65,0.0,0.0,0.0,0.6160681476208815,-0.15303592618955925,9.81
3805000000.0,21.65,0.0,0.0,0.0,0.6240140260924403,-0.1586279217226792,9.79852207827732
3810000000.0,21.65,0.0,0.0,0.0,0.6143021259953213,-0.17285212599532127,9.788025748009359
3815000000.0,21.65,0.0,0.0,0.0,0.6118497741017977,-0.16677,9.811079322305394
3820000000.0,21.65,0.0,0.0,0.0,0.6180300000000001,-0.15970665160216652,9.833151674198916
3825000000.0,21.65,0.0,0.0,0.0,0.6111628514079286,-0.15745072288810721,9.818828554223787
3830000000.0,21.65,0.0,0.0,0.0,0.6050809487863095,-0.17324452560684525,9.770563576820535
3835000000.0,21.65,0.0,0.0,0.0,0.6147926255097264,-0.16353262550972625,9.767326872451369
3840000000.0,21.65,0.0,0.0,0.0,0.60822,-0.15696,9.809607823762178
3845000000.0,21.65,0.0,0.0,0.0,0.6021376506309765,-0.16000117468451175,9.826578825315488
3850000000.0,21.65,0.0,0.0,0.0,0.5886,-0.16382692521836925,9.81686692521837
3855000000.0,21.65,0.0,0.0,0.0,0.5857550251212502,-0.15696,9.804310050242501
3860000000.0,21.65,0.0,0.0,0.0,0.589777499903475,-0.16245374995173748,9.798620624927606
3865000000.0,21.65,0.0,0.0,0.0,0.6153812249270123,-0.1712824498540245,9.817161224927013
3870000000.0,21.65,0.0,0.0,0.0,0.6056693248298932,-0.15951067517010675,9.820202700680428
3875000000.0,21.65,0.0,0.0,0.0,0.59841,-0.1618648494655485,9.836977123663871
3880000000.0,21.65,0.0,0.0,0.0,0.6007644753643447,-0.14715,9.80019
3885000000.0,21.65,0.0,0.0,0.0,0.6037072490770725,-0.15391912638439126,9.802446375461464
3890000000.0,21.65,0.0,0.0,0.0,0.5886,-0.17226344888283449,9.807841724441417
3895000000.0,21.65,0.0,0.0,0.0,0.5906601756557017,-0.165200702622807,9.798129824344299
3900000000.0,21.65,0.0,0.0,0.0,0.6042962272584623,-0.18638962123589622,9.794304151505642
3905000000.0,21.65,0.0,0.0,0.0,0.6203840966002411,-0.15274192754981927,9.81372795169988
3910000000.0,21.65,0.0,0.0,0.0,0.5903658759470588,-0.17128237215882372,9.824322372158823
3915000000.0,21.65,0.0,0.0,0.0,0.59841,-0.14881777604417776,9.803525552088356
3920000000.0,21.65,0.0,0.0,0.0,0.5999796761412968,-0.15539032385870322,9.81510097157611
3925000000.0,21.65,0.0,0.0,0.0,0.60822,-0.1515647287152473,9.794794728715248
3930000000.0,21.65,0.0,0.0,0.0,0.6109669526710695,-0.1724595709933957,9.82255695267107
3935000000.0,21.65,0.0,0.0,0.0,0.6240138707020387,-0.14715,9.836879247134693
3940000000.0,21.65,0.0,0.0,0.0,0.59841,-0.1506818295893183,9.812746340821363
3945000000.0,21.65,0.0,0.0,0.0,0.5973308233731083,-0.1755008233731082,9.764187529880674
3950000000.0,21.65,0.0,0.0,0.0,0.5895810767240108,-0.16775107672401077,9.796266460344066
3955000000.0,21.65,0.0,0.0,0.0,0.59841,-0.1739310695366107,9.84835702317887
3960000000.0,21.65,0.0,0.0,0.0,0.5991948769182488,-0.14871975383649755,9.836290492327006
3965000000.0,21.65,0.0,0.0,0.0,0.60822,-0.1647096689538967,9.796756114923161
3970000000.0,21.65,0.0,0.0,0.0,0.6076313228875132,-0.13851735422497352,9.75467206267492
3975000000.0,21.65,0.0,0.0,0.0,0.5989005772096058,-0.15646942279039422,9.810490577209606
3980000000.0,21.65,0.0,0.0,0.0,0.60822,-0.14793495461344955,9.8213799092269
3985000000.0,21.65,0.0,0.0,0.0,0.60822,-0.16618124519231245,9.85757811298078
3990000000.0,21.65,0.0,0.0,0.0,0.6080237224990372,-0.14695372249903724,9.809018612495187
3995000000.0,21.65,0.0,0.0,0.0,0.59841,-0.13753635519616353,9.761342710392327
4000000000.0,21.65,0.0,0.0,0.0,0.5984100776952008,-0.15696007769520076,9.800190233085603
4005000000.0,21.65,0.0,0.0,0.0,0.6081219777923198,-0.1666719777923198,9.829325933376959
4010000000.0,21.65,0.0,0.0,0.0,0.6178338778894389,-0.16677,9.868075511557755
4015000000.0,21.65,0.0,0.0,0.0,0.6085142220134422,-0.14773844402688444,9.849828444026885
4020000000.0,21.65,0.0,0.0,0.0,0.60822,-0.17540303425103032,9.79273393149794
4025000000.0,21.65,0.0,0.0,0.0,0.60822,-0.18589957818079578,9.781060421819205
4030000000.0,21.65,0.0,0.0,0.0,0.6174414782779148,-0.14950408688834088,9.79901295655583
4035000000.0,21.65,0.0,0.0,0.0,0.5997832432499325,-0.15627337837503377,9.854930270250202
4040000000.0,21.65,0.0,0.0,0.0,0.6074352784721527,-0.17501055694430556,9.831974164583542
4045000000.0,21.65,0.0,0.0,0.0,0.5903656428614564,-0.17658,9.811765642861458
4050000000.0,21.65,0.0,0.0,0.0,0.6062581573327815,-0.14126368533443684,9.80117092133361
4055000000.0,21.65,0.0,0.0,0.0,0.60822,-0.16353293629052937,9.80892097876351
4060000000.0,21.65,0.0,0.0,0.0,0.5823213634181137,-0.1581371211393712,9.835898636581886
4065000000.0,21.65,0.0,0.0,0.0,0.6043943368732434,-0.1398904420845044,9.796756105211262
4070000000.0,21.65,0.0,0.0,0.0,0.5997833209451332,-0.13734,9.798816679054868
4075000000.0,21.65,0.0,0.0,0.0,0.6067485791519858,-0.13734,9.808528579151986
4080000000.0,21.65,0.0,0.0,0.0,0.5917390415017905,-0.15382095849820956,9.82648095849821
4085000000.0,21.65,0.0,0.0,0.0,0.5967423793462238,-0.17324475869244757,9.821477620653777
4090000000.0,21.65,0.0,0.0,0.0,0.6064542794433427,-0.1444028822266288,9.795677161669973
4095000000.0,21.65,0.0,0.0,0.0,0.6002738204595381,-0.1611785386213854,9.806272359080925
4100000000.0,21.65,0.0,0.0,0.0,0.5905619203624192,-0.17461807963758078,9.817848079637582
4105000000.0,21.65,0.0,0.0,0.0,0.6040999594693995,-0.17658,9.8043100405306
4110000000.0,21.65,0.0,0.0,0.0,0.60822,-0.1612762403363624,9.792538120168182
4115000000.0,21.65,0.0,0.0,0.0,0.5931124401421244,-0.17206755985787558,9.805487559857877
4120000000.0,21.65,0.0,0.0,0.0,0.6109670400781705,-0.1840356800260568,9.824911360052115
4125000000.0,21.65,0.0,0.0,0.0,0.5885996795072969,-0.1716748397536484,9.82962
4130000000.0,21.65,0.0,0.0,0.0,0.5933089604405896,-0.16677,9.807841559339115
4135000000.0,21.65,0.0,0.0,0.0,0.6055713803174138,-0.1596086196825862,9.778705859047758
4140000000.0,21.65,0.0,0.0,0.0,0.5940934391709344,-0.1498967195854672,9.77076
4145000000.0,21.65,0.0,0.0,0.0,0.5955651805116519,-0.14715,9.819516263581562
4150000000.0,21.65,0.0,0.0,0.0,0.6052770806087708,-0.14715,9.853164161217542
4155000000.0,21.65,0.0,0.0,0.0,0.60822,-0.16068796141177963,9.825205096470551
4160000000.0,21.65,0.0,0.0,0.0,0.6015491191969912,-0.16009911919699119,9.783316476787965
4165000000.0,21.65,0.0,0.0,0.0,0.59841,-0.15696,9.757614438199743
4170000000.0,21.65,0.0,0.0,0.0,0.5919353190027532,-0.1634346809972468,9.789988085983481
4175000000.0,21.65,0.0,0.0,0.0,0.6013531621887316,-0.17314658109436581,9.848259486566194
4180000000.0,21.65,0.0,0.0,0.0,0.60822,-0.15146607523406075,9.84374607523406
4185000000.0,21.65,0.0,0.0,0.0,0.60822,-0.17442228773162288,9.792537712268377
4190000000.0,21.65,0.0,0.0,0.0,0.60822,-0.17187087445710875,9.776842281385724
4195000000.0,21.65,0.0,0.0,0.0,0.6142041814828418,-0.1509758185171582,9.798522544448526
4200000000.0,21.65,0.0,0.0,0.0,0.6121439184200392,-0.16480824473988243,9.833544326319844
4205000000.0,21.65,0.0,0.0,0.0,0.60822,-0.17079201832292018,9.83766403664584
4210000000.0,21.65,0.0,0.0,0.0,0.6025301182258012,-0.14970035467740353,9.795480709354807
4215000000.0,21.65,0.0,0.0,0.0,0.5928182181286822,-0.13734,9.776351781871318
4220000000.0,21.65,0.0,0.0,0.0,0.5995873639368736,-0.14283368196843682,9.819025773779058
4225000000.0,21.65,0.0,0.0,0.0,0.6028244179344442,-0.15794116413111164,9.854635582065555
4230000000.0,21.65,0.0,0.0,0.0,0.59841,-0.1720674821626748,9.843157553511976
4235000000.0,21.65,0.0,0.0,0.0,0.59841,-0.17138061774020616,9.793224324181443
4240000000.0,21.65,0.0,0.0,0.0,0.6035112823569128,-0.16166871764308718,9.766051282356912
4245000000.0,21.65,0.0,0.0,0.0,0.6132231824540318,-0.15696,9.790772729816128
4250000000.0,21.65,0.0,0.0,0.0,0.6082198348976984,-0.15205491744884916,9.834525412755754
4255000000.0,21.65,0.0,0.0,0.0,0.6080239652965397,-0.15676396529653966,9.84943603470346
4260000000.0,21.65,0.0,0.0,0.0,0.6133211172546112,-0.16206111725461117,9.820594469018445
4265000000.0,21.65,0.0,0.0,0.0,0.60822,-0.15696,9.790968434314985
4270000000.0,21.65,0.0,0.0,0.0,0.6127326829396269,-0.15696,9.798620731758508
4275000000.0,21.65,0.0,0.0,0.0,0.6136154169632542,-0.14813083392650833,9.81981
4280000000.0,21.65,0.0,0.0,0.0,0.60822,-0.14165648313386484,9.824126483133865
4285000000.0,21.65,0.0,0.0,0.0,0.60822,-0.15980514969295148,9.816964850307048
4290000000.0,21.65,0.0,0.0,0.0,0.60822,-0.17245971667189716,9.80019
4295000000.0,21.65,0.0,0.0,0.0,0.6122421834252219,-0.16677,9.80019
4300000000.0,21.65,0.0,0.0,0.0,0.6219540835223409,-0.16284591647765917,9.811962250567023
4305000000.0,21.65,0.0,0.0,0.0,0.6125360655221607,-0.16461196723891966,9.82962
4310000000.0,21.65,0.0,0.0,0.0,0.5923278837165789,-0.17285211628342115,9.825892116283422
4315000000.0,21.65,0.0,0.0,0.0,0.59841,-0.16677,9.816180216186302
4320000000.0,21.65,0.0,0.0,0.0,0.6019416839108168,-0.16677,9.806468316089184
4325000000.0,21.65,0.0,0.0,0.0,0.6116535840079359,-0.16677,9.796756415992064
4330000000.0,21.65,0.0,0.0,0.0,0.6080235476848356,-0.15676354768483547,9.79705096821011
4335000000.0,21.65,0.0,0.0,0.0,0.5950747684043477,-0.14705215260652152,9.819712152606522
4340000000.0,21.65,0.0,0.0,0.0,0.5988021471021214,-0.1604914314014143,9.836290715700708
4345000000.0,21.65,0.0,0.0,0.0,0.5879135531892355,-0.15627355318923553,9.817455262414352
4350000000.0,21.65,0.0,0.0,0.0,0.6052769155064691,-0.17363691550646915,9.784493831012938
4355000000.0,21.65,0.0,0.0,0.0,0.59841,-0.16392501540935014,9.77360498459065
4360000000.0,21.65,0.0,0.0,0.0,0.6011568846877688,-0.15970688468776884,9.791557538751077
4365000000.0,21.65,0.0,0.0,0.0,0.60822,-0.16677,9.822458784784889
4370000000.0,21.65,0.0,0.0,0.0,0.60822,-0.16677,9.824518630235987
4375000000.0,21.65,0.0,0.0,0.0,0.6057674150208742,-0.16677,9.802642245062623
4380000000.0,21.65,0.0,0.0,0.0,0.6007644850762448,-0.16677,9.778215514923756
4385000000.0,21.65,0.0,0.0,0.0,0.60822,-0.16451361482663615,9.786554696213546
4390000000.0,21.65,0.0,0.0,0.0,0.6103782852704829,-0.15480171472951715,9.841588285270483
4395000000.0,21.65,0.0,0.0,0.0,0.6139096292647963,-0.14921018536760186,9.840999258529592
4400000000.0,21.65,0.0,0.0,0.0,0.6003720854647209,-0.16284625639416256,9.796265401746954
4405000000.0,21.65,0.0,0.0,0.0,0.60822,-0.17893405775264057,9.748785942247359
4410000000.0,21.65,0.0,0.0,0.0,0.60822,-0.14891588565895886,9.785867656976878
4415000000.0,21.65,0.0,0.0,0.0,0.6115555715121557,-0.15529221424392214,9.816671143024312
4420000000.0,21.65,0.0,0.0,0.0,0.6262703141468032,-0.15028937170639373,9.846100628293605
4425000000.0,21.65,0.0,0.0,0.0,0.6165584140496843,-0.16382682809936827,9.823733656198737
4430000000.0,21.65,0.0,0.0,0.0,0.6054730279051302,-0.1498969720948697,9.786259541857696
4435000000.0,21.65,0.0,0.0,0.0,0.5898753861445539,-0.16549461385544614,9.767326930722769
4440000000.0,21.65,0.0,0.0,0.0,0.59841,-0.1593145724833457,9.814709144966692
4445000000.0,21.65,0.0,0.0,0.0,0.59841,-0.17550081366120812,9.848160813661208
4450000000.0,21.65,0.0,0.0,0.0,0.5974289135640891,-0.16578891356408915,9.833543481384535
4455000000.0,21.65,0.0,0.0,0.0,0.5903659730660598,-0.1587259730660597,9.77880402693394
4460000000.0,21.65,0.0,0.0,0.0,0.60822,-0.17736488663014885,9.764874433150744
4465000000.0,21.65,0.0,0.0,0.0,0.60822,-0.18501642654546427,9.812060360181803
4470000000.0,21.65,0.0,0.0,0.0,0.6088086868243868,-0.16618131317561313,9.838841313175614
4475000000.0,21.65,0.0,0.0,0.0,0.6180300000000001,-0.15646941307849413,9.827657652313977
4480000000.0,21.65,0.0,0.0,0.0,0.6176375129813753,-0.14871994807449948,9.79038
4485000000.0,21.65,0.0,0.0,0.0,0.6079256128842561,-0.1852124515370245,9.791263161347233
4490000000.0,21.65,0.0,0.0,0.0,0.5988025744257257,-0.1473462872128629,9.820006287212863
4495000000.0,21.65,0.0,0.0,0.0,0.6178336253800363,-0.15696,9.829521812690018
4500000000.0,21.65,0.0,0.0,0.0,0.5984100874071009,-0.1569602622213026,9.819809825185798
4505000000.0,21.65,0.0,0.0,0.0,0.6081219875042199,-0.18609596251265964,9.80038602499156
4510000000.0,21.65,0.0,0.0,0.0,0.5986061123986611,-0.1479344495946445,9.809803887601339
4515000000.0,21.65,0.0,0.0,0.0,0.59841,-0.15666578769845788,9.848063150793832
4520000000.0,21.65,0.0,0.0,0.0,0.59841,-0.14754231220442313,9.830404624408846
4525000000.0,21.65,0.0,0.0,0.0,0.6263687636780877,-0.16578917578539176,9.801661236321912
4530000000.0,21.65,0.0,0.0,0.0,0.5909540480407405,-0.16677,9.790968512010187
4535000000.0,21.65,0.0,0.0,0.0,0.5977233880869339,-0.17589338808693386,9.817750164260802
4540000000.0,21.65,0.0,0.0,0.0,0.5893847118159471,-0.17658,9.846885864552158
4545000000.0,21.65,0.0,0.0,0.0,0.5886,-0.16765281171882812,9.80460405859414
4550000000.0,21.65,0.0,0.0,0.0,0.6062581767565818,-0.14911182324341823,9.817848176756582
4555000000.0,21.65,0.0,0.0,0.0,0.5994890115245901,-0.17334296542622965,9.81107901152459
4560000000.0,21.65,0.0,0.0,0.0,0.6156757771450578,-0.15068133428241334,9.818632888572528
4565000000.0,21.65,0.0,0.0,0.0,0.6094952113303521,-0.17275436600894364,9.836879577339296
4570000000.0,21.65,0.0,0.0,0.0,0.60822,-0.15126993369969935,9.805683244932933
4575000000.0,21.65,0.0,0.0,0.0,0.5998814111361142,-0.14715,9.783512822272229
4580000000.0,21.65,0.0,0.0,0.0,0.6066504889610049,-0.14715,9.805291466883014
4585000000.0,21.65,0.0,0.0,0.0,0.5919352218837522,-0.14715,9.826284778116248
4590000000.0,21.65,0.0,0.0,0.0,0.6127328674657287,-0.1551942891552429,9.813531421689515
4595000000.0,21.65,0.0,0.0,0.0,0.6021376214952763,-0.1649061892523619,9.802053810747639
4600000000.0,21.65,0.0,0.0,0.0,0.5905619106505191,-0.1589219106505191,9.784493821301039
4605000000.0,21.65,0.0,0.0,0.0,0.5963499894465999,-0.1414600211068002,9.8038199683398
4610000000.0,21.65,0.0,0.0,0.0,0.6213656686311567,-0.1526437790874378,9.825303779087438
4615000000.0,21.65,0.0,0.0,0.0,0.6202862103591622,-0.15696,9.837173789640838
4620000000.0,21.65,0.0,0.0,0.0,0.6105743102620431,-0.1793270692138707,9.809607241048173
4625000000.0,21.65,0.0,0.0,0.0,0.60822,-0.1496020508246205,9.756044460989544
4630000000.0,21.65,0.0,0.0,0.0,0.6154794899321949,-0.1591184697965847,9.79940591945756
4635000000.0,21.65,0.0,0.0,0.0,0.6037072199413722,-0.1596086099706861,9.834132780058628
4640000000.0,21.65,0.0,0.0,0.0,0.6054732901264329,-0.1710865802528658,9.832366709873567
4645000000.0,21.65,0.0,0.0,0.0,0.6012548097764481,-0.1696148097764481,9.794794048882242
4650000000.0,21.65,0.0,0.0,0.0,0.5915429096793291,-0.1736370903206709,9.794304180641342
4655000000.0,21.65,0.0,0.0,0.0,0.5953689904177899,-0.16304201916442018,9.81372798083558
4660000000.0,21.65,0.0,0.0,0.0,0.5783973284552734,-0.1769726715447267,9.853164452574545
4665000000.0,21.65,0.0,0.0,0.0,0.5755527906120279,-0.17324441877594418,9.829423256327832
4670000000.0,21.65,0.0,0.0,0.0,0.5982140721274407,-0.1732446907091469,9.79057592787256
4675000000.0,21.65,0.0,0.0,0.0,0.60822,-0.14469704596867045,9.786946590806266
4680000000.0,21.65,0.0,0.0,0.0,0.601941509096615,-0.15264396361353963,9.809215472710155
4685000000.0,21.65,0.0,0.0,0.0,0.5922296089994961,-0.1605896089994961,9.832170782001008
4690000000.0,21.65,0.0,0.0,0.0,0.5946822910976229,-0.16912458219524582,9.821183126707131
4695000000.0,21.65,0.0,0.0,0.0,0.6163625735842257,-0.16461161761051615,9.792047426415776
4700000000.0,21.65,0.0,0.0,0.0,0.6160678174162781,-0.15696,9.78057
4705000000.0,21.65,0.0,0.0,0.0,0.6024320086110201,-0.15696,9.79793397416694
4710000000.0,21.65,0.0,0.0,0.0,0.5927201085139011,-0.15127010851390107,9.838449457430494
4715000000.0,21.65,0.0,0.0,0.0,0.5941917915832179,-0.1527417915832179,9.836682833667128
4720000000.0,21.65,0.0,0.0,0.0,0.59841,-0.15696,9.792341541598315
4725000000.0,21.65,0.0,0.0,0.0,0.59841,-0.16235559177745593,9.781551183554912
4730000000.0,21.65,0.0,0.0,0.0,0.6090049837491499,-0.15087752437627525,9.806272475623725
4735000000.0,21.65,0.0,0.0,0.0,0.623229391971694,-0.13214060802830607,9.84580695985847
4740000000.0,21.65,0.0,0.0,0.0,0.6074348317247483,-0.13773258413762585,9.838252247587123
4745000000.0,21.65,0.0,0.0,0.0,0.5986063843318639,-0.15215319216593193,9.789987231336273
4750000000.0,21.65,0.0,0.0,0.0,0.6033149077369491,-0.15696,9.760949815473898
4755000000.0,21.65,0.0,0.0,0.0,0.5936030076398301,-0.15696,9.78478894652119
4760000000.0,21.65,0.0,0.0,0.0,0.5838911075427111,-0.16637778491457783,9.848063354743733
4765000000.0,21.65,0.0,0.0,0.0,0.5880115851088159,-0.16735841489118414,9.851005244673553
4770000000.0,21.65,0.0,0.0,0.0,0.6029226926515269,-0.15696,9.797246536742366
4775000000.0,21.65,0.0,0.0,0.0,0.603805407251354,-0.15696,9.779589185497292
4780000000.0,21.65,0.0,0.0,0.0,0.59841,-0.15696,9.803329478537295
4785000000.0,21.65,0.0,0.0,0.0,0.6110651788286519,-0.15696,9.832465178828652
4790000000.0,21.65,0.0,0.0,0.0,0.6154791208799912,-0.15696,9.832758827839989
4795000000.0,21.65,0.0,0.0,0.0,0.59841,-0.15696,9.801955613725756
4800000000.0,21.65,0.0,0.0,0.0,0.6062581864684818,-0.16088409323424094,9.794304093234242
4805000000.0,21.65,0.0,0.0,0.0,0.6142040066686401,-0.16294400666864006,9.81166797999408
4810000000.0,21.65,0.0,0.0,0.0,0.60822,-0.15323210657152106,9.837075786856959
4815000000.0,21.65,0.0,0.0,0.0,0.60822,-0.15803938057679381,9.838350619423206
4820000000.0,21.65,0.0,0.0,0.0,0.60822,-0.17658,9.812746612754566
4825000000.0,21.65,0.0,0.0,0.0,0.60822,-0.17658,9.80019
4830000000.0,21.65,0.0,0.0,0.0,0.611555493816955,-0.17658,9.803525493816956
4835000000.0,21.65,0.0,0.0,0.0,0.6115552121718522,-0.17981739391407392,9.81
4840000000.0,21.65,0.0,0.0,0.0,0.6046885880223859,-0.17383282395522823,9.806860705988807
4845000000.0,21.65,0.0,0.0,0.0,0.6119476117833762,-0.14410880589168806,9.79714880589169
4850000000.0,21.65,0.0,0.0,0.0,0.6131254710271548,-0.1520554710271547,9.802152376821724
4855000000.0,21.65,0.0,0.0,0.0,0.6332350284872503,-0.18354500569745005,9.8239300113949
4860000000.0,21.65,0.0,0.0,0.0,0.59841,-0.16833931680099315,9.81
4865000000.0,21.65,0.0,0.0,0.0,0.6010587944967879,-0.15244758899357588,9.802053616509637
4870000000.0,21.65,0.0,0.0,0.0,0.60822,-0.16677,9.788222083781722
4875000000.0,21.65,0.0,0.0,0.0,0.60822,-0.1569596212358962,9.817357784073078
4880000000.0,21.65,0.0,0.0,0.0,0.60822,-0.1322389895762899,9.841784494788145
4885000000.0,21.65,0.0,0.0,0.0,0.603707210229472,-0.14940639488526394,9.831188840917887
4890000000.0,21.65,0.0,0.0,0.0,0.590758294982383,-0.15696,9.772918294982382
4895000000.0,21.65,0.0,0.0,0.0,0.600470195079502,-0.16108039015900388,9.786750585238506
4900000000.0,21.65,0.0,0.0,0.0,0.60822,-0.17461790482337905,9.821772571059727
4905000000.0,21.65,0.0,0.0,0.0,0.61194799054748,-0.1630420094525201,9.86513200945252
4910000000.0,21.65,0.0,0.0,0.0,0.6243082092582821,-0.14891589537085895,9.840410523145705
4915000000.0,21.65,0.0,0.0,0.0,0.6065522045320221,-0.15529220453202203,9.793518818128089
4920000000.0,21.65,0.0,0.0,0.0,0.6015493911301939,-0.14871969556509695,9.767228782260387
4925000000.0,21.65,0.0,0.0,0.0,0.6136152130133522,-0.15696,9.81490595662216
4930000000.0,21.65,0.0,0.0,0.0,0.5913469915186699,-0.15558650424066503,9.891422521203324
4935000000.0,21.65,0.0,0.0,0.0,0.605669208287092,-0.14842539585645395,9.835210645579007
4940000000.0,21.65,0.0,0.0,0.0,0.5921318878607189,-0.15696,9.740152704046427
4945000000.0,21.65,0.0,0.0,0.0,0.6147924118479242,-0.15480160789861608,9.740153568405535
4950000000.0,21.65,0.0,0.0,0.0,0.5905621922956219,-0.14028328844343288,9.816867673034677
4955000000.0,21.65,0.0,0.0,0.0,0.60822,-0.16323801502028015,9.87513801502028
4960000000.0,21.65,0.0,0.0,0.0,0.60822,-0.13145448171024482,9.833935725605658
4965000000.0,21.65,0.0,0.0,0.0,0.60822,-0.17589320356083202,9.768699610682495
4970000000.0,21.65,0.0,0.0,0.0,0.60822,-0.16794739307257392,9.743684786145147
4975000000.0,21.65,0.0,0.0,0.0,0.60822,-0.18442761346637612,9.78547596633406
4980000000.0,21.65,0.0,0.0,0.0,0.607827503269475,-0.1483274901915749,9.87788500653895
4985000000.0,21.65,0.0,0.0,0.0,0.59841,-0.17599120634471205,9.85757801586178
4990000000.0,21.65,0.0,0.0,0.0,0.598606296924763,-0.15715629692476296,9.809214812300949
4995000000.0,21.65,0.0,0.0,0.0,0.608121802978118,-0.16647540893435409,9.770956394043763
5000000000.0,21.65,0.0,0.0,0.0,0.5984101942380019,-0.13734,9.790380582714006
5005000000.0,21.65,0.0,0.0,0.0,0.6178339944322401,-0.13734,9.848651983296719
5010000000.0,21.65,0.0,0.0,0.0,0.608416102686761,-0.15656779462647794,9.839626102686761
5015000000.0,21.65,0.0,0.0,0.0,0.60822,-0.17599159482071594,9.810882607768926
5020000000.0,21.65,0.0,0.0,0.0,0.627055395014954,-0.17658,9.78174690747757
5025000000.0,21.65,0.0,0.0,0.0,0.6092008047908081,-0.18589959760459598,9.799209195209192
5030000000.0,21.65,0.0,0.0,0.0,0.6266629954034301,-0.177168502298285,9.864740483912005
5035000000.0,21.65,0.0,0.0,0.0,0.591346408804664,-0.17658,9.832366408804665
5040000000.0,21.65,0.0,0.0,0.0,0.633726489479765,-0.14950410631214106,9.793518808416188
5045000000.0,21.65,0.0,0.0,0.0,0.6108684060207841,-0.13822280200692802,9.781452802006928
5050000000.0,21.65,0.0,0.0,0.0,0.60822,-0.16382729427057294,9.815886392360765
5055000000.0,21.65,0.0,0.0,0.0,0.60822,-0.17550099818730996,9.82854099818731
5060000000.0,21.65,0.0,0.0,0.0,0.616852898284429,-0.167947101715571,9.812354203431143
5065000000.0,21.65,0.0,0.0,0.0,0.609495201618452,-0.16677,9.801465201618452
5070000000.0,21.65,0.0,0.0,0.0,0.599783301521333,-0.14989660304266603,9.774879904564
5075000000.0,21.65,0.0,0.0,0.0,0.606748598575786,-0.15548859857578598,9.81245299287893
5080000000.0,21.65,0.0,0.0,0.0,0.62470099734581,-0.15696,9.811569501327096
5085000000.0,21.65,0.0,0.0,0.0,0.6278400000000001,-0.148817601229976,9.801857601229976
5090000000.0,21.65,0.0,0.0,0.0,0.611751402265714,-0.15519429886714298,9.792145701132858
5095000000.0,21.65,0.0,0.0,0.0,0.60822,-0.14901380103573802,9.782433801035738
5100000000.0,21.65,0.0,0.0,0.0,0.623916198122762,-0.131453801877238,9.804114297184144
5105000000.0,21.65,0.0,0.0,0.0,0.6123400016830001,-0.14302999831699997,9.81
5110000000.0,21.65,0.0,0.0,0.0,0.615871899255619,-0.154801899255619,9.825303798511237
5115000000.0,21.65,0.0,0.0,0.0,0.5878148025890481,-0.164513799352738,9.814512401294525
5120000000.0,21.65,0.0,0.0,0.0,0.601157098349571,-0.14440290165042902,9.81
5125000000.0,21.65,0.0,0.0,0.0,0.60822,-0.159412798640928,9.817357599546977
5130000000.0,21.65,0.0,0.0,0.0,0.6154794996440951,-0.16677,9.81981
5135000000.0,21.65,0.0,0.0,0.0,0.610868600258786,-0.15244720051757202,9.812648600258786
5140000000.0,21.65,0.0,0.0,0.0,0.6152832998383331,-0.16833989951499898,9.81
5145000000.0,21.65,0.0,0.0,0.0,0.604099600129096,-0.155684400193644,9.823930399870905
5150000000.0,21.65,0.0,0.0,0.0,0.59841,-0.14715,9.83648710003257
5155000000.0,21.65,0.0,0.0,0.0,0.60517900012969,-0.16745700038907,9.81235399948124
5160000000.0,21.65,0.0,0.0,0.0,0.60822,-0.156567299319573,9.780177299319572
5165000000.0,21.65,0.0,0.0,0.0,0.60822,-0.16686840097178401,9.797051201295712
5170000000.0,21.65,0.0,0.0,0.0,0.60822,-0.15715589873685898,9.822949400842095
5175000000.0,21.65,0.0,0.0,0.0,0.5954667989636679,-0.17265640207266403,9.804113597927337
5180000000.0,21.65,0.0,0.0,0.0,0.60115700123057,-0.16755449815414497,9.821772503076426
5185000000.0,21.65,0.0,0.0,0.0,0.595859198575192,-0.17550120213721201,9.83943
5190000000.0,21.65,0.0,0.0,0.0,0.600764601619046,-0.16814309757143098,9.796853894333339
5195000000.0,21.65,0.0,0.0,0.0,0.620188401813284,-0.168928401813284,9.782728401813284
5200000000.0,21.65,0.0,0.0,0.0,0.610181696988717,-0.170693898996239,9.831582707026326
5205000000.0,21.65,0.0,0.0,0.0,0.60419800110088,-0.16677,9.87062600220176
5210000000.0,21.65,0.0,0.0,0.0,0.60822,-0.16108009880200097,9.82177098802001
5215000000.0,21.65,0.0,0.0,0.0,0.597036397409764,-0.162551801295118,9.774978198704883
5220000000.0,21.65,0.0,0.0,0.0,0.599587402784474,-0.161276298607763,9.781747402784474
5225000000.0,21.65,-0.004098982848726532,0.008793134167291647,0.0,0.6351980074467801,-0.20552041340420413,9.801171202978713
5230000000.0,21.65,-0.004577943503553756,0.044167842451091704,0.0,0.6148899873081999,-0.23995249841352498,9.79940499682705
5235000000.0,21.65,-0.005514957583004633,0.08341726253891488,0.0028213799129763345,0.563191794949218,-0.17824658148046582,9.956760853875009
5240000000.0,21.65,0.002555382944230548,0.13017150752403725,0.0047696247338845235,0.4218274554821746,-0.051010473289304734,9.946159644797897
5245000000.0,21.65,0.005174048309384159,0.14183623796532216,0.003715620388065097,0.21405236619902365,-0.050424826289648284,9.705129164321193
5250000000.0,21.65,-0.0015969651985291188,0.1145108639021452,0.005323298486765175,0.06376367432563675,-0.11281489802504899,9.785478569123285
5255000000.0,21.65,-0.010985312967779841,0.06317879954407907,0.0032790359779615256,-0.028842012432420124,-0.12233100621621006,9.98118501036035
5260000000.0,21.65,-0.01977733968752174,-0.003832544234881184,0.005067871073599348,0.030609141214591414,-0.15617560867675606,10.020326706507568
5265000000.0,21.65,-0.02362088458303897,-0.06982018936858359,0.0017032193766312424,0.14136240679892406,-0.2595744407935444,10.012575988668459
5270000000.0,21.65,-0.029337926419267607,-0.1626671384701789,-0.010561358588079635,0.28782836853938365,-0.4253632378148324,9.8196100125532
5275000000.0,21.65,-0.01629846792406603,-0.22210983932392173,-0.0117111592808819,0.5253274467503745,-0.501290795078908,9.619195397539453
5280000000.0,21.65,0.006438348811794653,-0.2420363115723069,-0.011242701779360749,0.7400690664992907,-0.4732339897693399,9.73466207161462
5285000000.0,21.65,0.02743249103886919,-0.22877822195782002,-0.0069840204081729855,0.9967968716791689,-0.4048575707973757,9.837859168142591
5290000000.0,21.65,0.046635298158391486,-0.16287455930291458,-0.0025764661931599506,1.1560106055038062,-0.32686878899238786,9.762519394496193
5295000000.0,21.65,0.057004496013278165,-0.09526636659105578,0.0011712275471483955,1.16739,-0.2196437401705374,9.678740348717604
5300000000.0,21.65,0.06561744324776304,-0.024720262191742517,0.005323198356352293,1.0967561469694613,-0.05101076464630765,9.558863588215436
5305000000.0,21.65,0.06651166053475624,0.013091488849533883,0.0017140766753974558,1.0482000456489005,0.10379206695172068,9.61566606390846
5310000000.0,21.65,0.05946359355250946,0.027528232577626075,0.0006600723295780773,1.1081367748769677,0.2839027408249274,9.830799675369096
5315000000.0,21.65,0.041560175586729184,0.024827592007197627,0.0,1.0377011805750118,0.3157825579125256,10.009438229137483
5320000000.0,21.65,0.013851350526525785,0.0069054226993486515,0.0003832855183441795,1.00062,0.20012296665382967,10.057996593330767
5325000000.0,21.65,-0.015124510021856665,0.017311864540781485,-0.0011711832789659175,0.9594167588191677,0.09613675881916758,9.849724604391046
5330000000.0,21.65,-0.04561199514489602,0.02724605290995988,-0.0017033289930832,0.9029130211731302,0.012948992942289928,9.51962503528855
5335000000.0,21.65,-0.06108196347129354,0.06873243362648729,0.003215178070665745,0.8899615419844155,-0.04532365076363651,9.581132596374026
5340000000.0,21.65,-0.0596553538331661,0.10660841543341658,0.00029814726330630527,0.7910786074461861,-0.15617582233855823,9.731525186154652
5345000000.0,21.65,-0.058665194746590356,0.1329227843120662,0.004844217675442521,0.7679255541574556,-0.21444722292127225,10.098513242022333
5350000000.0,21.65,-0.05869724701874674,0.15733607202322122,0.004684328378194777,0.6337241294880414,-0.27860483133864833,10.06407515505875
5355000000.0,21.65,-0.05959131674513152,0.15562740691715285,-0.0005534829780940395,0.4816699598554996,-0.35630003211560035,9.80146498795665
5360000000.0,21.65,-0.04811450479049905,0.17061916498798105,0.008815320284899507,0.36257572599175725,-0.42300761644627616,9.786063808223139
5365000000.0,21.65,-0.03948590547052751,0.16572763715252076,0.007857055369828232,0.20365434949574351,-0.4406647831652478,9.765755545287057
5370000000.0,21.65,-0.019602377575208475,0.14875016471730815,0.0043012346886414825,0.08711154833031548,-0.40436788708257887,9.749181129174211
5375000000.0,21.65,-0.004520096652157234,0.11691509597086279,0.005589337615684752,-0.0024526044029260442,-0.36787437358244374,9.971865208805852
5380000000.0,21.65,0.018073976966299508,0.08786881993211373,0.0,-0.02393702700027027,-0.2954759459994595,9.96774396399964
5385000000.0,21.65,0.023759280623666786,0.023126747578817664,0.0,-0.06641359540283595,-0.2014971908056719,9.831382243696423
5390000000.0,21.65,0.03008310222174021,-0.011208556600148854,-0.0007027036433534557,-0.056701695305716955,-0.17128186714001867,9.63067592205136
5395000000.0,21.65,0.023663359904171156,-0.0756648757963561,-0.0018524242318254196,-0.016086723337567235,-0.1135995904171959,9.815198566460186
5400000000.0,21.65,0.025143247353971044,-0.1208051877890213,0.0010645370112471915,0.11772052444260525,-0.10006210488852106,9.794305783104857
5405000000.0,21.65,0.02547312963412566,-0.16671232581831164,-0.007250260851922587,0.2016961196553612,-0.10977400498564005,9.9183999750718
5410000000.0,21.65,0.017903701510227993,-0.21139157770936612,-0.006962850730887193,0.42418629148966297,-0.12654952541379527,9.855713233924131
5415000000.0,21.65,0.026090718210536774,-0.22145559824746874,-0.009762859651747688,0.5973326880579269,-0.1701056103597561,9.749472194820122
5420000000.0,21.65,0.02412119409589083,-0.23120829855867225,-0.009283663953951346,0.7671441055399411,-0.1895294105539941,9.74133
5425000000.0,21.65,0.026899829916626834,-0.20059310289106297,-0.003406974187470077,0.9510808698635087,-0.20159518387765182,9.767818896734088
5430000000.0,21.65,0.02222605844595978,-0.17683130019050539,-0.009603070484912818,1.0745885601835856,-0.17245948358629482,9.905548450758884
5435000000.0,21.65,0.021725718366981867,-0.12451404269597828,-0.003609200731280765,1.1750424334101244,-0.14715,9.811764322043043
5440000000.0,21.65,0.025398809679693175,-0.0747009259619762,-0.005365748511793076,1.223895388669054,-0.13773155467621556,9.687570777338108
5445000000.0,21.65,0.0319569786040161,-0.02231741707179274,0.002246424758349152,1.205550794237408,-0.05895714813667148,9.659515234575553
5450000000.0,21.65,0.030466306581749775,0.03387553220889637,0.0030874759581305707,1.1899522589820226,0.021582211719422116,9.724654376176243
5455000000.0,21.65,0.015996164980805617,0.07500067792098081,0.0023209618376768045,1.1149049106475493,0.041006011913660115,9.83501497021585
5460000000.0,21.65,0.0036181862220014604,0.12378381030793924,0.004003052643191763,0.9700113152447132,0.05807509394605094,9.788025281838154
5465000000.0,21.65,-0.01680712382087224,0.13968446941499255,0.0016609474783377595,0.8381655507914555,0.04973680615106806,9.766444449208544
5470000000.0,21.65,-0.028656733950608033,0.15546239906378417,0.00926240468629612,0.7545832875326329,0.0541503500145035,9.841196118744561
5475000000.0,21.65,-0.04404171932346041,0.15360973346496348,0.004152115207799271,0.5861469682734697,-0.023054244417142444,9.870822425381224
5480000000.0,21.65,-0.051223342254706386,0.1368727583676857,0.002129301687433,0.5340549098060492,-0.09339258375152583,9.901427390478773
5485000000.0,21.65,-0.05333135094634524,0.1225144013574823,0.0020973505996938315,0.40044356076273563,-0.21788084577680847,9.740152373841823
5490000000.0,21.65,-0.055332836688773854,0.08799193885362055,0.0011285646132426432,0.3427610800900108,-0.2864530663666307,9.704445679639957
5495000000.0,21.65,-0.052128016560717055,0.06684128271773998,0.004215971007086396,0.31392,-0.38308103366891033,9.821381307740513
5500000000.0,21.65,-0.04473258003575413,0.04047380256010461,2.3188095608026325e-08,0.3139198931690989,-0.4316404273236043,9.976769359014593
5505000000.0,21.65,-0.025760501811004623,0.005674380388296242,0.002108031879734365,0.30420799307197993,-0.4704880277120803,9.918497958431878
5510000000.0,21.65,-0.005727949727203523,-0.014500765178849143,4.256280349287803e-05,0.3425656281005563,-0.4324243718994437,9.850612650824026
5515000000.0,21.65,0.01326575877473089,-0.03660922352189312,-0.003098168832218915,0.36238161424451615,-0.37454515726645154,9.677955471799356
5520000000.0,21.65,0.03429874524340874,-0.053650211312989166,-0.00012772319262205085,0.4288939505356395,-0.27860292780622925,9.691495414438755
5525000000.0,21.65,0.04629324138505604,-0.045212649261250556,-0.0010114299482786963,0.4595988219494882,-0.17216431951854322,9.906630968279408
5530000000.0,21.65,0.045878760258186026,-0.04173043837746978,0.0019376995074282244,0.5163990444816905,-0.12066246293192463,9.95479602965446
5535000000.0,21.65,0.039857839396624725,-0.026686781910197646,0.00014902778246409345,0.51993,-0.03560933240339331,9.86591592489266
5540000000.0,21.65,0.036471063146269814,-0.0137991308661014,0.0,0.49285407717644075,0.02472184564711846,9.687569155450792
5545000000.0,21.65,0.03137136219543107,-0.01180696616790819,0.0019376879133804201,0.4815727922950279,0.05621162311491623,9.636951169180112
5550000000.0,21.65,0.0251431430075408,-0.0011709872341575667,0.0011711042286399113,0.48069,0.08534732340627323,9.827660371646004
5555000000.0,21.65,0.008380522740458505,-0.009475509608960027,0.0010646508437165,0.48069,0.053365968403159686,10.00639814218578
5560000000.0,21.65,-0.011413279734679479,-0.013457221826162024,0.00012774638071765454,0.4979558159926582,-0.0027474479779744793,9.84452893207709
5565000000.0,21.65,-0.02774951500164629,-0.0231182251761375,-0.0027787738953052588,0.5088448080934481,-0.07808846474758464,9.708857494785175
5570000000.0,21.65,-0.03623695718701547,-0.03366053737004667,-0.00044711812953570707,0.5860503737151037,-0.1979672064773721,9.734463540952834
5575000000.0,21.65,-0.036375267853291315,-0.03967575598170336,0.0009049649693074808,0.6234258248630583,-0.26585164972611647,9.849731907739919
5580000000.0,21.65,-0.030849671150419894,-0.05122066796922091,-0.0007239860991042186,0.6690425419240256,-0.3323635586936356,9.975986609002465
5585000000.0,21.65,-0.020107285207937052,-0.05503479271789346,-0.00018097887020326225,0.7257444508915445,-0.36777722544577224,9.866111464289215
5590000000.0,21.65,-0.00849892551088056,-0.05888885236076455,-0.0034921019024645467,0.7679272343161724,-0.3808243085790431,9.775075531367655
5595000000.0,21.65,0.003098263692610065,-0.0536187009891329,-0.0016714664417090347,0.8147210433808105,-0.3666975826476758,9.76095
5600000000.0,21.65,0.013854541844339782,-0.040264580382105564,-0.00021291836389462687,0.8632805438664055,-0.30018512981375134,9.870823522825935
5605000000.0,21.65,0.02692133371329017,-0.018762552925467933,-0.0008410859819247516,0.8575899822591998,-0.2224899290367993,9.8750399733888
5610000000.0,21.65,0.03481031382074901,0.0035987681962658565,-0.00023421135968886995,0.8381661820649619,-0.15244663722736634,9.769385183422251
5615000000.0,21.65,0.041134339895665506,0.02574629868775447,0.001639585972261017,0.8111885728060858,-0.06935571841825719,9.635576673095066
5620000000.0,21.65,0.04098519406471472,0.04627937573326295,0.0005110087109662261,0.7522300358677003,-0.004315745029457453,9.6561799641323
5625000000.0,21.65,0.030892185469712938,0.06471264691915084,0.004790999942017742,0.6989619537056196,0.09810131110651311,9.856600231471901
5630000000.0,21.65,0.01744336419641712,0.07712866198203036,0.004024344584981694,0.6141049064400491,0.12753,9.946948037423981
5635000000.0,21.65,0.0006279420611001816,0.0853416221180947,0.0031939525311496,0.509824496015745,0.09888436218754362,9.842567448750176
5640000000.0,21.65,-0.01653613788670376,0.08352092657909145,0.0016608315378597261,0.44537345224883457,0.05297345224883452,9.644797189894872
5645000000.0,21.65,-0.03038143815182441,0.07521485682223678,0.0025764788412121296,0.3968139517632395,-0.009516467531464678,9.619196048236759
5650000000.0,21.65,-0.04004842029825467,0.059016348942452265,0.0009581500285975567,0.3757228902555289,-0.09123398770023988,9.798230633867306
5655000000.0,21.65,-0.045554014020257286,0.04150146975634833,0.0007346210029535362,0.3524729704752297,-0.1989481180990812,9.936550098415902
5660000000.0,21.65,-0.0468795437085676,0.016656401907849193,0.00034067633866008537,0.3500209099387091,-0.302149099387091,9.953618180122582
5665000000.0,21.65,-0.04544119379249227,-0.007527332244329925,-0.0007133280071592931,0.3597328100358281,-0.36640405017914046,9.802738179211781
5670000000.0,21.65,-0.03419256608968163,-0.026159535329230977,-0.00036196933445432845,0.4082929709306297,-0.4084888405317884,9.770368260797683
5675000000.0,21.65,-0.016987086043408338,-0.043732918633474324,-0.00069203501136505,0.4698996613803966,-0.44733644092026437,9.87327593299086
5680000000.0,21.65,-0.0011070692486140812,-0.06097571245520454,-0.00038326233024857154,0.5281710619631107,-0.4233989380368894,9.94302404130874
5685000000.0,21.65,0.015672213410317357,-0.07180310384817773,-0.0006707420155708069,0.5864424625458247,-0.3713079478784795,9.864443843635438
5690000000.0,21.65,0.02765588515195697,-0.07787176447156093,-0.0010646508437165,0.6264669315642694,-0.32274844739288444,9.767423826350038
5695000000.0,21.65,0.03999526074241408,-0.07339603625329225,-0.00041520182393993616,0.6974921061854211,-0.25025210443312107,9.783219474329796
5700000000.0,21.65,0.049647707996127874,-0.06476559377345872,-0.0006388025218794423,0.7592944428626445,-0.15107278212772784,9.874747217872272
5705000000.0,21.65,0.05031832985520328,-0.04921123740121493,-0.00043649481973417924,0.7923540324383403,-0.07318193512331936,9.92369801081278
5710000000.0,21.65,0.04591117465858961,-0.028123994832043996,0.0,0.7873502672703028,-0.009220623630706234,9.842371336351514
5715000000.0,21.65,0.03881323365939325,-0.009461411454175391,0.0006068630281880777,0.7638063779859638,0.053170866042108654,9.685509212880692
5720000000.0,21.65,0.028592549301964962,0.009804802959866672,0.0028533004345894244,0.7443825777917258,0.10045484441654845,9.66873711104137
5725000000.0,21.65,0.015232191892042042,0.027379148932931616,0.002501893277684541,0.7087719439937195,0.11232438879874389,9.782042945616329
5730000000.0,21.65,-0.0018314168712089147,0.04329448181937232,0.001639574378213213,0.6602124435081245,0.08142244350812444,9.82883497740325
5735000000.0,21.65,-0.019119914429382514,0.05283097819323263,0.0004364705776342254,0.6220517658135176,0.027663531627035318,9.778214708836048
5740000000.0,21.65,-0.031062768695053318,0.05211757745977347,0.00059624077239091,0.5929160655221607,-0.04081049194090492,9.700519508059095
5745000000.0,21.65,-0.0373228672983872,0.04572072253555621,0.0032152697690437477,0.5737867884102679,-0.1135024811281248,9.737898173845982
5750000000.0,21.65,-0.04100654713875663,0.03195676042511657,0.0026615907461413693,0.5493595532525956,-0.19620111686851116,9.89829201036332
5755000000.0,21.65,-0.042081795996170394,0.01558458511320936,0.0005429597987053947,0.5441610353519104,-0.27889908248779083,9.95773792929618
5760000000.0,21.65,-0.03949465800900897,0.0008515385430223022,0.0,0.5638789118810892,-0.3563002069298021,9.838250674259307
5765000000.0,21.65,-0.028773465985911812,-0.01146394354645924,0.0,0.5735908119782082,-0.41143162395641625,9.722886752087167
5770000000.0,21.65,-0.011337114944345385,-0.018925725256186583,-0.0009795031026394814,0.5923281362259813,-0.4037791516986915,9.73367898452729
5775000000.0,21.65,0.0031408539002159464,-0.0223751210105673,-0.00021288147374252313,0.6302930608622306,-0.37376077565510774,9.832564570414245
5780000000.0,21.65,0.015211039908206254,-0.02050128678846522,0.000723926020856507,0.6486369754608697,-0.31980487730434876,9.921049536808695
5785000000.0,21.65,0.026495429529222812,-0.013988704001346736,-0.0019802749589732955,0.63765,-0.231122701066527,9.857380165033002
5790000000.0,21.65,0.0355343030818663,-0.0035983855926883315,-0.0018524558519557944,0.63765,-0.14518687536196875,9.742899375072394
5795000000.0,21.65,0.0404741853537485,0.010185413570690001,0.00130955718550244,0.6255833623172337,-0.052090086951700865,9.759675487926454
5800000000.0,21.65,0.03664133227831524,0.024078672398567424,0.0031939525311496,0.5964476620258766,0.019620563290205634,9.855127577212576
5805000000.0,21.65,0.02507916283574091,0.033149485444902274,0.0031939525311496,0.548181897958719,0.04905,9.88396582142776
5810000000.0,21.65,0.010316469542332264,0.03874946323445817,0.0019802138267212568,0.4853983485908835,0.04905,9.740543394363534
5815000000.0,21.65,-0.0016928806480031023,0.039803467580277585,0.0011817992107369774,0.45744018705060185,0.030900935253009354,9.665008877696389
5820000000.0,21.65,-0.009843767599868,0.038941039064354324,0.0028106659588010385,0.44419657390696576,-0.010595139139551391,9.776255973976859
5825000000.0,21.65,-0.019340976618330775,0.03174390108546528,0.002129301687433,0.42820638685636386,-0.05346529200545293,9.949303357723633
5830000000.0,21.65,-0.027741035001042663,0.01908991461470514,0.0014053145343244353,0.41849448675924483,-0.13145513240755133,9.972451788147918
5835000000.0,21.65,-0.03265967276133045,0.003619566864021922,-0.0007026941573143214,0.40878258666212586,-0.23181154671661547,9.804111733242518
5840000000.0,21.65,-0.03238277738764894,-0.015421901823228423,-0.0014479005259129215,0.41476725373997253,-0.3135279403049794,9.68207794030498
5845000000.0,21.65,-0.026122593409963066,-0.03151004703324964,-0.0006601081657258353,0.47186213532112137,-0.3426636405963364,9.762914270642243
5850000000.0,21.65,-0.01640769211362701,-0.04952913869301921,-0.0014904865175014077,0.5513224545169246,-0.37474245451692456,9.933607363550774
5855000000.0,21.65,-0.0037474228611914903,-0.06442513772170694,-0.0015438054353434307,0.6015501098108011,-0.3879849313682493,9.976179807831098
5860000000.0,21.65,0.009501745591397246,-0.07618373322843792,-0.0053232542185827,0.6710045691173457,-0.3421723447061234,9.81549098206021
5865000000.0,21.65,0.023120500235878624,-0.08107813645686868,-0.0038859137622104887,0.7142664417617643,-0.295378302555883,9.660986441761764
5870000000.0,21.65,0.03338372210069549,-0.07285690055514107,0.0,0.7612571401770715,-0.22229357384063572,9.73603499437185
5875000000.0,21.65,0.041272710640189086,-0.061518331810506234,0.0002661750954801884,0.8412078423444785,-0.139791701196217,9.905648298803783
5880000000.0,21.65,0.042901552092148874,-0.047301029126284644,0.0005535936485503663,0.8609254857880548,-0.07887194315221943,9.928895829456659
5885000000.0,21.65,0.038760010655946815,-0.031477699639876386,-0.0008197687440305546,0.8444443427637434,-0.037767928454679286,9.796558128127781
5890000000.0,21.65,0.03208468704057736,-0.014726852117531627,-0.00023423560178882375,0.8142300000000001,0.01079157203091572,9.642248427969085
5895000000.0,21.65,0.026750724137841096,0.0064344547322633195,-0.0006174726359330956,0.8101095709933959,0.05935107251651073,9.636953432052835
5900000000.0,21.65,0.016622366345089186,0.03132195257970772,0.0014905360557056814,0.7906857707991578,0.09417577079915772,9.806078635809685
5905000000.0,21.65,0.0027465751165448213,0.054726306725959024,0.0027893603149546625,0.7600778824196789,0.06356788241967881,9.960483794234438
5910000000.0,21.65,-0.015462046464291774,0.07628845393388933,0.0006813516233158248,0.6806167668480676,-0.0017659147946591479,9.80685804492818
5915000000.0,21.65,-0.02914640012757578,0.0841597765311665,2.1367830102830224e-05,0.5948774808657747,-0.014813444675334447,9.627142519134225
5920000000.0,21.65,-0.0375784348941311,0.0838190633023543,0.005493610832988795,0.5234611400444114,-0.0549371498889715,9.72524401476684
5925000000.0,21.65,-0.04489511704375488,0.0797919150139764,0.006228194945790227,0.4890283849139838,-0.1520561508601615,9.920364226290241
5930000000.0,21.65,-0.0458148928648511,0.06397513008245402,0.004577936125523415,0.47107539371805396,-0.2505486670144867,10.023463757069837
5935000000.0,21.65,-0.04525895524886569,0.04182602919360517,0.0,0.4094691694394917,-0.3484516611210166,9.864247109675171
5940000000.0,21.65,-0.03987781810083603,0.020073155199476198,0.0,0.39710926150949266,-0.38847657688686577,9.70562194613212
5945000000.0,21.65,-0.025588220912959505,0.0017884630321037146,0.0,0.43379843094898435,-0.42840235357652356,9.755262740438827
5950000000.0,21.65,-0.006813564717358396,-0.01000776810154228,0.0002129552540467305,0.4571466934296669,-0.4002477688567777,9.959113386859334
5955000000.0,21.65,0.00909219352448978,-0.014512849874315554,0.001745977170928025,0.5083539686625397,-0.377291905987619,10.049165717962858
5960000000.0,21.65,0.016013908487374544,-0.021991947216683704,-0.0020441170562038777,0.49128491576584915,-0.3166657581073576,9.866502358556223
5965000000.0,21.65,0.029284793006190527,-0.02997675318324701,-0.0009155745770524987,0.4996231841370319,-0.2285718413703184,9.615860447588904
5970000000.0,21.65,0.03634336524975206,-0.031573628791406814,0.0011285424791513791,0.49403229576052293,-0.13263027231930272,9.659125330922354
5975000000.0,21.65,0.03829163852877764,-0.025196357578952583,0.001969566274819727,0.5493600000000001,-0.0564069197139692,9.911534312400443
5980000000.0,21.65,0.03685424642619242,-0.017860227459502512,-0.001107249483357136,0.5493600000000001,-0.01020251615432516,9.970097225376472
5985000000.0,21.65,0.026346155109741764,-0.011519446430420808,-0.0020973495456894854,0.5487711674971117,-0.01873675124566751,9.804406091222562
5990000000.0,21.65,0.01683846108067072,-0.005216725999350732,-0.001043345199870107,0.5293473673028737,0.010202632697126327,9.622824734605746
5995000000.0,21.65,0.006313291040654298,0.0,5.329572974635887e-05,0.5104146493370465,0.029233567108635672,9.587021844033417
6000000000.0,21.65,-0.0010647646761858486,-3.794415644949881e-08,0.0053232289224784,0.5395501165428013,0.009809300743193007,9.84924198122762
6005000000.0,21.65,-0.01055080378856065,-0.0031620509816146837,0.003215220230839544,0.5492620166399202,-0.048462099839521,10.014344282878643
6010000000.0,21.65,-0.022140688327244556,-0.01990498490110099,-0.0009795294527481244,0.5493600000000001,-0.1355752506333525,9.89102908241849
6015000000.0,21.65,-0.025473293004799252,-0.03470395529621668,-3.192684563921473e-05,0.5969390841707909,-0.21346653467326537,9.650584579146047
6020000000.0,21.65,-0.026591151041897066,-0.05458715900744504,0.0,0.6078277169312771,-0.2817440185189402,9.680900867725109
6025000000.0,21.65,-0.01955370736945182,-0.0655110604811308,0.0,0.7200554043407541,-0.3217684681135847,9.85022310651113
6030000000.0,21.65,-0.011158486140979404,-0.07104718141739519,0.0,0.8181551712551518,-0.3606160685020607,9.988151239757212
6035000000.0,21.65,-0.003715542391743528,-0.06443554706862623,-0.001980276012977598,0.8514102516679025,-0.36297,9.905155827773658
6040000000.0,21.65,0.007580454063359219,-0.05118056759634003,-0.004088284704616446,0.8895712692790126,-0.2997927787617278,9.762910240203702
6045000000.0,21.65,0.023065764615244504,-0.03843147340628877,-0.00038322333208778503,0.9105644348337443,-0.24073669549876697,9.688649478081896
6050000000.0,21.65,0.032170010800380136,-0.017142355881510966,0.0,0.9211591175139912,-0.18246529491605293,9.770761175139912
6055000000.0,21.65,0.0330216294477327,0.007836136545576813,0.0018951040298006256,0.9134089823888898,-0.1067318591111186,9.928997299388874
6060000000.0,21.65,0.030210912896722952,0.03408450546908214,0.00025549065342661743,0.8432666583341667,-0.04630249375062494,9.886909576042395
6065000000.0,21.65,0.02797515887837086,0.05952563385522909,0.0,0.782641093167911,0.0034340890267408886,9.699438826087688
6070000000.0,21.65,0.019457862538269123,0.08667024195708065,0.0027468375636269305,0.6906228209753283,0.06043030741480307,9.630476410487663
6075000000.0,21.65,0.006337123824067996,0.10956680359159378,0.0031939525311496,0.5935038200041383,0.1103630899979309,9.715334797995448
6080000000.0,21.65,-0.008261869980940193,0.12454895643442469,0.004088272056564305,0.48814430093624306,0.10947948190329482,9.863368289547282
6085000000.0,21.65,-0.025683436348038928,0.12411224448979527,0.0042586033748661,0.40574065444940655,0.042770654449406545,9.904764836387647
6090000000.0,21.65,-0.040112370957932915,0.11221996615613208,0.0016395237860046315,0.32000113538151137,-0.051013182909431826,9.827656817090569
6095000000.0,21.65,-0.04865428464081441,0.0881552119022299,0.0036517909388866024,0.22464781611937817,-0.15607840226868402,9.754376471283564
6100000000.0,21.65,-0.05262869684119604,0.05582568976019309,0.001703402773387363,0.19031376302963762,-0.25506118485181184,9.796266829396268
6105000000.0,21.65,-0.04990310062715035,0.01870213547842325,0.0002235638077874026,0.1786399814176998,-0.33668014865840146,9.848750092911501
6110000000.0,21.65,-0.04235170731243269,-0.017602083635234845,-0.0008304405380319758,0.20718767471767674,-0.4143753494353535,9.882005756038257
6115000000.0,21.65,-0.028177274751725146,-0.04935653995218816,-0.002704238923986286,0.2989120065419201,-0.46185527510615276,9.873372362446924
6120000000.0,21.65,-0.012353944850626708,-0.07508505948729226,-0.0048122476156251415,0.3833757509892575,-0.4559685622526856,9.846492843379028
6125000000.0,21.65,0.005855812048399229,-0.09294333966512652,-0.0037262521299014023,0.4831438086785381,-0.4218295241168952,9.861502856912328
6130000000.0,21.65,0.02641651501433811,-0.10087485938798259,-0.002406097984706036,0.5681961525431616,-0.36846288559262885,9.85434096186421
6135000000.0,21.65,0.042073424350669235,-0.10381325697144052,-0.002129301687433,0.6458913533201136,-0.2815458083498581,9.827755742504957
6140000000.0,21.65,0.05271394682069461,-0.10208845790983298,-0.0013627401367837535,0.6953332770485328,-0.20561676516506766,9.791556722951468
6145000000.0,21.65,0.0553967504583,-0.09287912445035747,-0.0018205658964686251,0.7620417548740176,-0.12370302576673026,9.801465658077758
6150000000.0,21.65,0.056142019013155006,-0.07531071069021089,-0.002129301687433,0.819135597281856,-0.02942880543628805,9.816867119456372
6155000000.0,21.65,0.04984980278939529,-0.05527939234441469,-0.001394679630475118,0.8541570586604706,0.013538039106980392,9.81304098044651
6160000000.0,21.65,0.03817996854805028,-0.03162156352675392,-0.0010646508437165,0.8699509196506092,0.059645517903655174,9.763303562445735
6165000000.0,21.65,0.02267301531283057,-0.009161496711974975,-0.0003513217825528611,0.8467987210090873,0.08505281974772819,9.721611540756815
6170000000.0,21.65,0.008608156646502964,0.011233186400914323,0.0,0.8273752801551529,0.1077141595345416,9.731324159534541
6175000000.0,21.65,-0.005429901540305768,0.02849705861624243,-0.0006920360653693958,0.792156900290169,0.06670704046427041,9.79234295953573
6180000000.0,21.65,-0.020878522270028108,0.0409001759661722,0.0016609074261726613,0.7687114799609148,0.0015688797654887995,9.826088520039086
6185000000.0,21.65,-0.036024127359485916,0.05010972907324187,0.0011817233224240787,0.734277899318979,-0.050522100681021004,9.79871789931898
6190000000.0,21.65,-0.04285902934082113,0.05260735219918881,0.0,0.6674714381334145,-0.1355755225665552,9.744076078600061
6195000000.0,21.65,-0.04301868781111713,0.048306097484464725,0.0006494500737809096,0.6496184406608845,-0.2244537626435376,9.739662660991327
6200000000.0,21.65,-0.04196468346529771,0.045165617099198696,0.0004258472678327119,0.6337255182897552,-0.29626284299292843,9.839431806413417
6205000000.0,21.65,-0.039026207885518215,0.04159200333868115,0.0,0.6064539589506396,-0.35267010262340104,9.921442082098721
6210000000.0,21.65,-0.03048761644161357,0.03817451334985275,0.0,0.59841,-0.3670900793782008,9.86356103191661
6215000000.0,21.65,-0.0158492996351264,0.03303218424725166,0.0006068640821924235,0.570450896405409,-0.35178635856216356,9.759673613529737
6220000000.0,21.65,-0.0013625957381884525,0.03042389450087836,0.00046843325942119804,0.5328788375518884,-0.31588139591981396,9.765659766528298
6225000000.0,21.65,0.008943172066051708,0.02855004341470677,0.0005855710863981804,0.5253256209131562,-0.26732189543421897,9.81637686273947
6230000000.0,21.65,0.015084933471856889,0.022609252265925826,0.0004897262552154411,0.4926573529280735,-0.20816735292807353,9.856107605051376
6235000000.0,21.65,0.022130369607420194,0.019745446570021592,0.0,0.46107,-0.1297852100334521,9.86827115778521
6240000000.0,21.65,0.0282946191635539,0.01691495383914388,0.0,0.43556339397743393,-0.07298603638646037,9.808036787954867
6245000000.0,21.65,0.025483796158105296,0.013297475873505254,0.0,0.42702966390489666,-0.048853557396735574,9.765953221301631
6250000000.0,21.65,0.015978357335480326,0.011178794333860632,0.0,0.4267346358037464,-0.024524635803746357,9.81490609258876
6255000000.0,21.65,0.0069946637440570945,0.004886628702309592,-0.0010433841980309023,0.39759893551238934,-0.024231064487610643,9.87347106448761
6260000000.0,21.65,-0.0008944122777971809,0.0,-0.0016182560863146705,0.3920078431859784,-0.05807568637195686,9.841390784070107
6265000000.0,21.65,-0.007825249734688835,-0.0050039910322122695,-6.385263727408386e-05,0.3975991783098918,-0.10153410845054109,9.771936713239567
6270000000.0,21.65,-0.013103300195020727,-0.01849057885358591,0.0005748982383924135,0.4194763307233633,-0.15009360893613607,9.760165443574454
6275000000.0,21.65,-0.01790364037797595,-0.03633013936131808,-0.00047910610742696503,0.46891848753738485,-0.19423848753738487,9.832564706380847
6280000000.0,21.65,-0.01695892239069514,-0.05390643785151556,-0.0010646508437165,0.5293486978331869,-0.24171913188879132,9.929682609907326
6285000000.0,21.65,-0.011860183901332956,-0.06926619506015173,-0.000606837732083778,0.5998821103929212,-0.30842737662867376,9.914965779214159
6290000000.0,21.65,-0.007963508754751672,-0.08179637099248784,-0.0008943332274712008,0.6608025774056258,-0.35316,9.817846778242968
6295000000.0,21.65,-0.0016394826798351858,-0.08866328940983162,-0.0034388620349485185,0.7425200004554,-0.34913777772717774,9.76497222227282
6300000000.0,21.65,0.00767264025539122,-0.08586307179611066,-0.0036197597468171907,0.829927101329471,-0.3119570210404702,9.794304734219647
6305000000.0,21.65,0.020139487148710514,-0.06969471866964233,-0.0014798779637607358,0.8982040898682409,-0.2495659101317591,9.82962
6310000000.0,21.65,0.029465788740463315,-0.046893924923994745,-0.0017247210652858857,0.92214,-0.19953454205074542,9.814708309743283
6315000000.0,21.65,0.03448021441569919,-0.021985016032269364,-0.0006707167194665072,0.92214,-0.1315512413709124,9.775860709354808
6320000000.0,21.65,0.03476764350881283,0.008310959663147655,0.0007665752527057423,0.9115448317247483,-0.06003621793266217,9.744076554483165
6325000000.0,21.65,0.031850433520714636,0.03957572766904194,0.0017566605589772503,0.8652410171557102,0.010791737133217374,9.745254491422145
6330000000.0,21.65,0.024078428923563582,0.06834915930477942,0.002150634735392418,0.7742037245681374,0.06906313771593138,9.774095522952654
6335000000.0,21.65,0.011424536863946809,0.09295984609888999,0.004609951507527639,0.6673731925520319,0.09819773085067732,9.799994538298646
6340000000.0,21.65,-0.005797513063695811,0.11241191721157529,0.0053232542185827,0.5705481222372812,0.07220135370621353,9.795479475943495
6345000000.0,21.65,-0.021087013867506596,0.1200453033731816,0.0040030336711135844,0.46617021404790215,0.04365388377993884,9.705131223244011
6350000000.0,21.65,-0.03185068753576199,0.11483375051355392,0.0017034681216568138,0.38847501327095013,-0.0078487400467874,9.76193309679923
6355000000.0,21.65,-0.0443227571415661,0.09883042402246624,0.0031939525311496,0.3164698593704986,-0.08603530469725304,9.907120234382502
6360000000.0,21.65,-0.05233060965613745,0.07717041786744211,0.0034920681743254986,0.26643922939389225,-0.20679615888906158,9.949300764646308
6365000000.0,21.65,-0.05395940473190606,0.043228395401314235,0.0031087267937509634,0.24789882363248825,-0.31097823632488236,9.860128234572581
6370000000.0,21.65,-0.04757755433709572,-0.005562646597109159,0.0,0.2729150661072507,-0.40044506610725067,9.807449276270393
6375000000.0,21.65,-0.0370138954104494,-0.05139602706103982,-0.0002661761494845342,0.3359931191336312,-0.4635231191336312,9.810000495306905
6380000000.0,21.65,-0.022796590600940317,-0.08467536107240946,-0.0020867694500661988,0.40574333493383336,-0.50031,9.860620715314607
6385000000.0,21.65,-0.005503962209669103,-0.1094734953860174,-0.0053232542185827,0.5326842402096424,-0.4912843039161431,9.934489272062894
6390000000.0,21.65,0.016633968997715586,-0.12141883756847091,-0.005089017562789508,0.6211699447084995,-0.452436703527667,9.924775138228751
6395000000.0,21.65,0.03722020791441852,-0.1273274341545088,-0.004035013216970052,0.6979833632280338,-0.3909266367719664,9.795578430493585
6400000000.0,21.65,0.05135122565598899,-0.11611292697411991,-0.0029810088711506536,0.82992699449857,-0.25505875687678753,9.75506487018625
6405000000.0,21.65,0.06132689616318813,-0.08934094524466327,-0.00172470736322939,0.8964380488188805,-0.14861963385839633,9.821184146456641
6410000000.0,21.65,0.0639139572080323,-0.058949042505724546,0.0003833013284093668,0.91233,-0.01530260394752604,9.861796301973763
6415000000.0,21.65,0.06228491971126417,-0.020114607116946064,0.0017672933548178761,0.905658701585287,0.06572824603678246,9.807938280152182
6420000000.0,21.65,0.05177394183976424,0.01870140918303516,0.0,0.8621019270944194,0.1565683482047835,9.695811101196812
6425000000.0,21.65,0.03482861969911219,0.060350414960123125,0.0006388446820532901,0.7897037520208375,0.2089532495958325,9.671679748787499
6430000000.0,21.65,0.012520077050172274,0.09184931105936302,0.004556732720098509,0.6925847510496475,0.22150942531489426,9.728577624475175
6435000000.0,21.65,-0.005176770681658021,0.11306122077875218,0.005834232363422871,0.598016600062766,0.18854745004707452,9.779687974945078
6440000000.0,21.65,-0.02825437337263086,0.11322082338681785,0.002257073364254966,0.5167894240179942,0.12674407419654074,9.83943
6445000000.0,21.65,-0.05005244777293127,0.10548937507990291,0.003076827352224756,0.4142754236952542,0.032861622204116224,9.82971697332247
6450000000.0,21.65,-0.06785326050637591,0.08564818864716411,0.002022823006405289,0.35217887471648873,-0.10987350340213504,9.75114
6455000000.0,21.65,-0.0745604656451977,0.05717264288165516,0.0010646508437165,0.33981789847747895,-0.23348050761260508,9.760853279186932
6460000000.0,21.65,-0.07387898016332993,0.01815580683992593,0.001149836528949968,0.31195925477749253,-0.4206541802552418,9.859834925477749
6465000000.0,21.65,-0.06485063189808381,-0.019905458131773485,0.0018311449380876141,0.40427047672460475,-0.5240509534492095,9.866112697700526
6470000000.0,21.65,-0.04741048073888167,-0.04513871716313868,-0.002257087066311456,0.4375272567198726,-0.57879,9.833152354031924
