#timestamp [ns], temperature [degC], w_RS_S_x [rad s^-1], w_RS_S_y [rad s^-1], w_RS_S_z [rad s^-1], a_RS_S_x [m s^-2], a_RS_S_y [m s^-2], a_RS_S_z [m s^-2]
0.0,22.35,0.0,0.0,0.0,0.05886,0.14715,9.80019
5000000.0,22.35,0.0,0.0,0.0,0.0005885994172859996,0.166573800194238,9.80990190009712
10000000.0,22.35,0.0,0.0,0.0,0.04806900097119001,0.128314799223048,9.81
15000000.0,22.35,0.0,0.0,0.0,0.0014714985432149816,0.156077100874071,9.819515700291358
20000000.0,22.35,0.0,0.0,0.0,0.056505602330856025,0.16637760038847602,9.800974799223049
25000000.0,22.35,0.0,0.0,0.0,0.00294299708642997,0.14813099902881,9.809509500485596
30000000.0,22.35,0.0,0.0,0.0,0.04610700291357003,0.16559280116542802,9.782335798251859
35000000.0,22.35,0.0,0.0,0.0,0.012556797280667976,0.14852339864033398,9.8079399020395
40000000.0,22.35,0.0,0.0,0.0,0.03688560233085602,0.138124799223048,9.791949598446097
45000000.0,22.35,0.0,0.0,0.0,0.0035315965037159627,0.155194201748142,9.799307100874072
50000000.0,22.35,0.0,0.0,0.0,0.00882900097119001,0.14813099902881,9.79136099902881
55000000.0,22.35,0.0,0.0,0.0,0.00981,0.138419098931691,9.79911090106831
60000000.0,22.35,0.0,0.0,0.0,0.03570840349628403,0.14597280116542802,9.791557198834573
65000000.0,22.35,0.0,0.0,0.0,0.030705298737452986,0.14715,9.807449402525094
70000000.0,22.35,0.0,0.0,0.0,0.046303202719332026,0.14715,9.81
75000000.0,22.35,0.0,0.0,0.0,0.032372997086429975,0.14715,9.81
80000000.0,22.35,0.0,0.0,0.0,0.03767040155390401,0.16363080310780803,9.81
85000000.0,22.35,0.0,0.0,0.0,0.03924,0.15862769834897697,9.818142301651024
90000000.0,22.35,0.0,0.0,0.0,0.02315159650371596,0.148915798251858,9.811765798251859
95000000.0,22.35,0.0,0.0,0.0,0.035512203690522035,0.14715,9.786161694464218
100000000.0,22.35,0.0,0.0,0.0,0.007847992230479918,0.13930199805761997,9.78841800194238
105000000.0,22.35,0.0,0.0,0.0,0.0,0.145089902039499,9.774880195921002
110000000.0,22.35,0.0,0.0,0.0,0.015303604273236043,0.16245360427323605,9.801367208546472
115000000.0,22.35,0.0,0.0,0.0,0.01962,0.174323702233737,9.81
120000000.0,22.35,0.0,0.0,0.0,0.04198680699256807,0.16166879533828793,9.817455602330856
125000000.0,22.35,0.0,0.0,0.0,0.03433499514404995,0.16431750242797502,9.797737492716076
130000000.0,22.35,0.0,0.0,0.0,0.022170597474905976,0.15225119494981196,9.79038
135000000.0,22.35,0.0,0.0,0.0,0.01962,0.13282739475557395,9.797541302622214
140000000.0,22.35,0.0,0.0,0.0,0.01962,0.16990921631599215,9.807253202719332
145000000.0,22.35,0.0,0.0,0.0,0.026585102816451028,0.1585295887341959,9.81
150000000.0,22.35,0.0,0.0,0.0,0.02943,0.15401700291357,9.796265994172861
155000000.0,22.35,0.0,0.0,0.0,0.03619890301068903,0.16372890301068901,9.810686709032067
160000000.0,22.35,0.0,0.0,0.0,0.03924,0.15342839378438394,9.793126787568768
165000000.0,22.35,0.0,0.0,0.0,0.05238540640985406,0.14057729679507297,9.773997296795073
170000000.0,22.35,0.0,0.0,0.0,0.05238539669795397,0.13734,9.783709206604092
175000000.0,22.35,0.0,0.0,0.0,0.023543986403339868,0.14371650339916503,9.796756503399166
180000000.0,22.35,0.0,0.0,0.0,0.028645210488852102,0.15970680699256806,9.806468403496284
185000000.0,22.35,0.0,0.0,0.0,0.03924,0.17295030359340302,9.81
190000000.0,22.35,0.0,0.0,0.0,0.03315779630947796,0.1644155926189559,9.797835592618956
195000000.0,22.35,0.0,0.0,0.0,0.02344589621235896,0.16892820757528207,9.78439589621236
200000000.0,22.35,0.0,0.0,0.0,0.02550600388476004,0.15303598446095984,9.798228011654281
205000000.0,22.35,0.0,0.0,0.0,0.017854192036241924,0.12576419203624192,9.81
210000000.0,22.35,0.0,0.0,0.0,0.02118960815799608,0.14047921631599217,9.804310195921003
215000000.0,22.35,0.0,0.0,0.0,0.03502170417611704,0.15136829582388295,9.794598295823883
220000000.0,22.35,0.0,0.0,0.0,0.03374639572676395,0.15264360427323603,9.806860812819709
225000000.0,22.35,0.0,0.0,0.0,0.034825504370355045,0.15156449562964494,9.814414495629645
230000000.0,22.35,0.0,0.0,0.0,0.03924,0.14185259553252594,9.788810382130103
235000000.0,22.35,0.0,0.0,0.0,0.034040695435406956,0.1269413908708139,9.781158609129186
240000000.0,22.35,0.0,0.0,0.0,0.024328795338287953,0.14832722797027229,9.805683613985137
245000000.0,22.35,0.0,0.0,0.0,0.024623104758831046,0.16157068572350686,9.81981
250000000.0,22.35,0.0,0.0,0.0,0.0392400097119001,0.14715,9.814904995144051
255000000.0,22.35,0.0,0.0,0.0,0.03462928514079285,0.1663776198122762,9.81480690495307
260000000.0,22.35,0.0,0.0,0.0,0.014911194949811947,0.17226358484943585,9.805683584849437
265000000.0,22.35,0.0,0.0,0.0,0.014420705147307051,0.15696,9.79038
270000000.0,22.35,0.0,0.0,0.0,0.02413260524442605,0.16147260524442605,9.794892605244426
275000000.0,22.35,0.0,0.0,0.0,0.02943,0.1579409893169099,9.804604505341546
280000000.0,22.35,0.0,0.0,0.0,0.025113594561335946,0.15146640543866405,9.801367189122672
285000000.0,22.35,0.0,0.0,0.0,0.03649322214313222,0.15696,9.798816611071567
290000000.0,22.35,0.0,0.0,0.0,0.054739794367097944,0.15283979436709794,9.818240411265805
295000000.0,22.35,0.0,0.0,0.0,0.04905,0.15117210573002104,9.817553682809937
300000000.0,22.35,0.0,0.0,0.0,0.041201988345719885,0.15303599417285993,9.80019
305000000.0,22.35,0.0,0.0,0.0,0.025604094075740942,0.15097590592425905,9.796364094075741
310000000.0,22.35,0.0,0.0,0.0,0.030803418064134183,0.15323219397862192,9.79038
315000000.0,22.35,0.0,0.0,0.0,0.038160881644508815,0.13626088164450884,9.801269118355492
320000000.0,22.35,0.0,0.0,0.0,0.02315160621561606,0.12831481864684818,9.81981
325000000.0,22.35,0.0,0.0,0.0,0.02943,0.14715,9.816376493687265
330000000.0,22.35,0.0,0.0,0.0,0.022759187180291872,0.14047918718029187,9.803329187180292
335000000.0,22.35,0.0,0.0,0.0,0.01628461301394613,0.14047922602789226,9.793617306506974
340000000.0,22.35,0.0,0.0,0.0,0.0388476198122762,0.16990920660409206,9.80019
345000000.0,22.35,0.0,0.0,0.0,0.043654466493944666,0.17658,9.791066679896367
350000000.0,22.35,0.0,0.0,0.0,0.015696013596660136,0.17363699320166992,9.78253202719332
355000000.0,22.35,0.0,0.0,0.0,0.02943,0.15539037241820372,9.807155093104551
360000000.0,22.35,0.0,0.0,0.0,0.03217680699256807,0.12753,9.80293680699257
365000000.0,22.35,0.0,0.0,0.0,0.033942585820625856,0.12753,9.804702585820626
370000000.0,22.35,0.0,0.0,0.0,0.014518785626387854,0.13008060718680609,9.787829392813194
375000000.0,22.35,0.0,0.0,0.0,0.0049050145678501455,0.14224501456785013,9.78547501456785
380000000.0,22.35,0.0,0.0,0.0,0.021974407381044073,0.16166881476208814,9.804898814762089
385000000.0,22.35,0.0,0.0,0.0,0.027173692521836927,0.17658,9.822066307478163
390000000.0,22.35,0.0,0.0,0.0,0.01962,0.17226358484943582,9.825303584849436
395000000.0,22.35,0.0,0.0,0.0,0.023740215344802154,0.15696,9.805879784655199
400000000.0,22.35,0.0,0.0,0.0,0.03531598446095984,0.15499799223047991,9.792342007769522
405000000.0,22.35,0.0,0.0,0.0,0.01775609213336092,0.1452860921333609,9.805781723599917
410000000.0,22.35,0.0,0.0,0.0,0.015107423891274237,0.14440323185503232,9.824322576108726
415000000.0,22.35,0.0,0.0,0.0,0.034236875817368756,0.17157687581736875,9.801857708060878
420000000.0,22.35,0.0,0.0,0.0,0.016088432631984326,0.15185882447398824,9.811569608157997
425000000.0,22.35,0.0,0.0,0.0,0.044635475234654755,0.1751084917448849,9.815395475234656
430000000.0,22.35,0.0,0.0,0.0,0.020993408352234084,0.16127636659106367,9.79038
435000000.0,22.35,0.0,0.0,0.0,0.02560407465194075,0.1288053084493531,9.79038
440000000.0,22.35,0.0,0.0,0.0,0.0035316256394162565,0.13851720854647206,9.792734417092944
445000000.0,22.35,0.0,0.0,0.0,0.02943,0.1493082172871822,9.81
450000000.0,22.35,0.0,0.0,0.0,0.028448991259289912,0.16578899125928992,9.81196201748142
455000000.0,22.35,0.0,0.0,0.0,0.022268726513487262,0.15696,9.826971273486514
460000000.0,22.35,0.0,0.0,0.0,0.048265191065051914,0.1561751910650519,9.797835573195156
465000000.0,22.35,0.0,0.0,0.0,0.03786658193586582,0.14783670903206708,9.771446709032066
470000000.0,22.35,0.0,0.0,0.0,0.01962,0.15813721825837218,9.781747218258372
475000000.0,22.35,0.0,0.0,0.0,0.01962,0.17559898154738982,9.800680509226305
480000000.0,22.35,0.0,0.0,0.0,0.02001240932342409,0.15774481864684817,9.81
485000000.0,22.35,0.0,0.0,0.0,0.02913569057945691,0.17658,9.810294309420543
490000000.0,22.35,0.0,0.0,0.0,0.019816209517662095,0.1761875809646758,9.818436533376365
495000000.0,22.35,0.0,0.0,0.0,0.029331890385218905,0.15696,9.751728657688686
500000000.0,22.35,0.0,0.0,0.0,0.01962,0.1569599611523996,9.8099999611524
505000000.0,22.35,0.0,0.0,0.0,0.01962,0.11811236076392362,9.771152360763923
510000000.0,22.35,0.0,0.0,0.0,0.0388476198122762,0.15617523962455238,9.78037380990614
515000000.0,22.35,0.0,0.0,0.0,0.0297242899967429,0.1664757100032571,9.809117130009772
520000000.0,22.35,0.0,0.0,0.0,0.0388476101003761,0.16677,9.819417610100377
525000000.0,22.35,0.0,0.0,0.0,0.03924,0.1481309796050098,9.810490489802506
530000000.0,22.35,0.0,0.0,0.0,0.04846141029461411,0.14715,9.819221410294615
535000000.0,22.35,0.0,0.0,0.0,0.021680068824800686,0.1380266896082669,9.801563379216534
540000000.0,22.35,0.0,0.0,0.0,0.028645210488852105,0.1553904209777042,9.80019
545000000.0,22.35,0.0,0.0,0.0,0.020502889414028894,0.1658871105859711,9.782335778828058
550000000.0,22.35,0.0,0.0,0.0,0.01962,0.1579409893169099,9.789399010683091
555000000.0,22.35,0.0,0.0,0.0,0.01962,0.18315273234062732,9.80784182156042
560000000.0,22.35,0.0,0.0,0.0,0.01962,0.17775718912267188,9.81
565000000.0,22.35,0.0,0.0,0.0,0.03668942194889421,0.15097586707665867,9.801465289025554
570000000.0,22.35,0.0,0.0,0.0,0.03080338892843389,0.14715,9.80019
575000000.0,22.35,0.0,0.0,0.0,0.021091488831314887,0.1554885111686851,9.791851488831316
580000000.0,22.35,0.0,0.0,0.0,0.011379588734195886,0.13223876620258768,9.80686082253161
585000000.0,22.35,0.0,0.0,0.0,0.026094622725846228,0.16824155681461556,9.801857688637078
590000000.0,22.35,0.0,0.0,0.0,0.02943,0.16853578853995788,9.792145788539958
595000000.0,22.35,0.0,0.0,0.0,0.02943,0.15087777688567777,9.814218334671484
600000000.0,22.35,0.0,0.0,0.0,0.02943,0.13930198834571988,9.81981
605000000.0,22.35,0.0,0.0,0.0,0.013930176497201767,0.15283982350279823,9.804310176497202
610000000.0,22.35,0.0,0.0,0.0,0.017461811848518118,0.14165637630296374,9.80019
615000000.0,22.35,0.0,0.0,0.0,0.01962,0.15244742389127422,9.807743711945637
620000000.0,22.35,0.0,0.0,0.0,0.02707561204275612,0.1867824481710245,9.817455612042757
625000000.0,22.35,0.0,0.0,0.0,0.02207248786012488,0.18148497572024974,9.80509497572025
630000000.0,22.35,0.0,0.0,0.0,0.04139823671098237,0.16932058776300588,9.80019
635000000.0,22.35,0.0,0.0,0.0,0.03472737533177376,0.14528606299766061,9.785867375331774
640000000.0,22.35,0.0,0.0,0.0,0.02943,0.1726560621561606,9.787633212431233
645000000.0,22.35,0.0,0.0,0.0,0.02943,0.15156443735824437,9.776449774943297
650000000.0,22.35,0.0,0.0,0.0,0.022562987374529872,0.13734,9.80509506312735
655000000.0,22.35,0.0,0.0,0.0,0.01962,0.1576467381677674,9.81981
660000000.0,22.35,0.0,0.0,0.0,0.01962,0.1734408128197081,9.806468374360584
665000000.0,22.35,0.0,0.0,0.0,0.013047287083172869,0.17658,9.80019
670000000.0,22.35,0.0,0.0,0.0,0.02275922602789226,0.17010538698605387,9.793715386986054
675000000.0,22.35,0.0,0.0,0.0,0.03580651311106513,0.16039348688893487,9.79038
680000000.0,22.35,0.0,0.0,0.0,0.03924,0.16951682641636825,9.796658413208185
685000000.0,22.35,0.0,0.0,0.0,0.03924,0.15185874677878747,9.80019
690000000.0,22.35,0.0,0.0,0.0,0.02707557319515573,0.14342221340242214,9.806272213402423
695000000.0,22.35,0.0,0.0,0.0,0.007651773000917728,0.14116588650045886,9.80401588650046
700000000.0,22.35,0.0,0.0,0.0,0.005886013596660136,0.15499804078998042,9.79430398640334
705000000.0,22.35,0.0,0.0,0.0,0.03296165477511655,0.17255791369377912,9.796167913693779
710000000.0,22.35,0.0,0.0,0.0,0.03198055862730559,0.1652003724182037,9.805879813790899
715000000.0,22.35,0.0,0.0,0.0,0.02521171388801714,0.16255171388801715,9.804408286111983
720000000.0,22.35,0.0,0.0,0.0,0.03492361398513614,0.17226361398513612,9.789202772029729
725000000.0,22.35,0.0,0.0,0.0,0.02305345775323458,0.17118448591774485,9.796756542246767
730000000.0,22.35,0.0,0.0,0.0,0.00981,0.15617517164125172,9.804702585820626
735000000.0,22.35,0.0,0.0,0.0,0.015009314276493142,0.14195068572350686,9.80019
740000000.0,22.35,0.0,0.0,0.0,0.009417571252775711,0.14244121437361215,9.784886356879163
745000000.0,22.35,0.0,0.0,0.0,0.015009343412193434,0.15215311447073115,9.780766228941463
750000000.0,22.35,0.0,0.0,0.0,0.024524985432149857,0.15696,9.79038
755000000.0,22.35,0.0,0.0,0.0,0.03404074399490744,0.1761876586598766,9.799993829329939
760000000.0,22.35,0.0,0.0,0.0,0.03963237047582371,0.17265592618955927,9.805291185237913
765000000.0,22.35,0.0,0.0,0.0,0.03404071485920715,0.15176071485920714,9.790968570281587
770000000.0,22.35,0.0,0.0,0.0,0.0302147700873477,0.14342215513102155,9.785082614956327
775000000.0,22.35,0.0,0.0,0.0,0.02403451505344515,0.1363590301068903,9.78155096989311
780000000.0,22.35,0.0,0.0,0.0,0.020797169698871697,0.14283358484943584,9.779392830301129
785000000.0,22.35,0.0,0.0,0.0,0.018246630495366303,0.13734,9.794598315247685
790000000.0,22.35,0.0,0.0,0.0,0.03767043068960431,0.14970064603440644,9.808430430689604
795000000.0,22.35,0.0,0.0,0.0,0.045027884558078844,0.16274788455807884,9.81981
800000000.0,22.35,0.0,0.0,0.0,0.03924,0.15696,9.81588598446096
805000000.0,22.35,0.0,0.0,0.0,0.031588168727681686,0.15313408436384085,9.802348168727683
810000000.0,22.35,0.0,0.0,0.0,0.01962,0.14715,9.794107815733279
815000000.0,22.35,0.0,0.0,0.0,0.01962,0.13989056833920568,9.803819715830398
820000000.0,22.35,0.0,0.0,0.0,0.01608838407248384,0.13106161592751617,9.799405152217453
825000000.0,22.35,0.0,0.0,0.0,0.01667703204927032,0.14420703204927032,9.784003516024637
830000000.0,22.35,0.0,0.0,0.0,0.026094583878245838,0.16029541612175416,9.787044583878247
835000000.0,22.35,0.0,0.0,0.0,0.02285731621887316,0.17000731621887316,9.78057
840000000.0,22.35,0.0,0.0,0.0,0.03256921631599216,0.1671623510520235,9.786848432631984
845000000.0,22.35,0.0,0.0,0.0,0.030116650760666504,0.14410888358688884,9.803231116413112
850000000.0,22.35,0.0,0.0,0.0,0.00981,0.14028301651023015,9.81
855000000.0,22.35,0.0,0.0,0.0,0.018344749822047497,0.15283983321469832,9.81
860000000.0,22.35,0.0,0.0,0.0,0.03374636659106366,0.16402318329553184,9.81
865000000.0,22.35,0.0,0.0,0.0,0.022268716801587166,0.15960871680158717,9.81
870000000.0,22.35,0.0,0.0,0.0,0.03198061689870617,0.16932061689870617,9.802348149303882
875000000.0,22.35,0.0,0.0,0.0,0.03678748300417483,0.17412748300417483,9.78057
880000000.0,22.35,0.0,0.0,0.0,0.02707558290705583,0.1597067487211675,9.782924417092945
885000000.0,22.35,0.0,0.0,0.0,0.024132634380126344,0.14185263438012632,9.794892634380128
890000000.0,22.35,0.0,0.0,0.0,0.037081782712817826,0.16127643457436433,9.812158217287182
895000000.0,22.35,0.0,0.0,0.0,0.02324964784709648,0.17039964784709646,9.81981
900000000.0,22.35,0.0,0.0,0.0,0.00392403496284035,0.14518798251857984,9.81981
905000000.0,22.35,0.0,0.0,0.0,0.02334783515707835,0.14106783515707835,9.812354329685844
910000000.0,22.35,0.0,0.0,0.0,0.03570836464868364,0.15872581767565816,9.784101635351318
915000000.0,22.35,0.0,0.0,0.0,0.022955435545554355,0.17010543554555435,9.80019
920000000.0,22.35,0.0,0.0,0.0,0.03610076426020764,0.18482038213010382,9.80019
925000000.0,22.35,0.0,0.0,0.0,0.01814848203298482,0.17216544609895446,9.80019
930000000.0,22.35,0.0,0.0,0.0,0.01255683612826836,0.14577658193586582,9.80019
935000000.0,22.35,0.0,0.0,0.0,0.030705318161253183,0.13861531816125316,9.798914681838747
940000000.0,22.35,0.0,0.0,0.0,0.03688556348325563,0.1459727817416278,9.792734436516746
945000000.0,22.35,0.0,0.0,0.0,0.02069911835549118,0.13841911835549117,9.808920881644509
950000000.0,22.35,0.0,0.0,0.0,0.026486944642169448,0.14911203690522037,9.80117101845261
955000000.0,22.35,0.0,0.0,0.0,0.001765837099458371,0.16677,9.809117081450271
960000000.0,22.35,0.0,0.0,0.0,0.020404818646848184,0.16598518135315182,9.800974818646848
965000000.0,22.35,0.0,0.0,0.0,0.030803437487934376,0.15902015623190155,9.809313281256033
970000000.0,22.35,0.0,0.0,0.0,0.04669552463565525,0.18403552463565526,9.80019
975000000.0,22.35,0.0,0.0,0.0,0.011281556814615568,0.14616896212358962,9.79920896212359
980000000.0,22.35,0.0,0.0,0.0,0.03767032385870324,0.12870725710597258,9.78135483807065
985000000.0,22.35,0.0,0.0,0.0,0.0002943191324431913,0.15784295739732956,9.80019
990000000.0,22.35,0.0,0.0,0.0,0.010006219229562192,0.1865862192295622,9.800386219229562
995000000.0,22.35,0.0,0.0,0.0,0.02001247730672477,0.19590564201995644,9.80990188067332
1000000000.0,22.35,0.0,0.0,0.0,0.05885994172859942,0.1667700388476004,9.8001900194238
1005000000.0,22.35,0.0,0.0,0.0,0.029724241437242418,0.1861938390418384,9.80990191952092
1010000000.0,22.35,0.0,0.0,0.0,0.0390438196180382,0.1575485411458854,9.790772360763924
1015000000.0,22.35,0.0,0.0,0.0,0.03924,0.15696,9.79038
1020000000.0,22.35,0.0,0.0,0.0,0.029822380187723804,0.1381247603754476,9.809215239624553
1025000000.0,22.35,0.0,0.0,0.0,0.0201104800906048,0.15597903981879038,9.800680480090605
1030000000.0,22.35,0.0,0.0,0.0,0.0011771599869715987,0.1661814200065142,9.80019
1035000000.0,22.35,0.0,0.0,0.0,0.04561660051816601,0.1850166402072664,9.80019
1040000000.0,22.35,0.0,0.0,0.0,0.021974339397743393,0.1683395595984956,9.782139559598496
1045000000.0,22.35,0.0,0.0,0.0,0.028547120297871202,0.17569712029787118,9.798424240595743
1050000000.0,22.35,0.0,0.0,0.0,0.02943,0.1500929388150294,9.80901902039499
1055000000.0,22.35,0.0,0.0,0.0,0.04689184098421841,0.1733427614763276,9.792538159015782
1060000000.0,22.35,0.0,0.0,0.0,0.02315153823231538,0.14204871764308716,9.824911282356913
1065000000.0,22.35,0.0,0.0,0.0,0.011085279313652791,0.1544094413726944,9.804015837940959
1070000000.0,22.35,0.0,0.0,0.0,0.035119862350398615,0.1653966207834662,9.8254998623504
1075000000.0,22.35,0.0,0.0,0.0,0.014224437358244375,0.15843147911941477,9.787927395597075
1080000000.0,22.35,0.0,0.0,0.0,0.018050420977704207,0.15696,9.772329579022296
1085000000.0,22.35,0.0,0.0,0.0,0.011477678925176787,0.15696,9.803329284299293
1090000000.0,22.35,0.0,0.0,0.0,0.00981,0.16500422117194222,9.81
1095000000.0,22.35,0.0,0.0,0.0,0.01775612126906121,0.1747161212690612,9.825892242538123
1100000000.0,22.35,0.0,0.0,0.0,0.027468021366180213,0.15303593590145936,9.80607593590146
1105000000.0,22.35,0.0,0.0,0.0,0.02943,0.13165015707340158,9.80019
1110000000.0,22.35,0.0,0.0,0.0,0.006474535318745353,0.13518182156041822,9.815493643120837
1115000000.0,22.35,0.0,0.0,0.0,0.02266116497261165,0.14489372165753722,9.789595113369852
1120000000.0,22.35,0.0,0.0,0.0,0.014518756490687566,0.16206124350931245,9.80293686526397
1125000000.0,22.35,0.0,0.0,0.0,0.024525043703550437,0.16677,9.802642478148226
1130000000.0,22.35,0.0,0.0,0.0,0.04394884389778844,0.16677,9.814708843897789
1135000000.0,22.35,0.0,0.0,0.0,0.04188867795398678,0.15244735590797356,9.805487355907974
1140000000.0,22.35,0.0,0.0,0.0,0.025113555713735553,0.16833966642939666,9.814316444286264
1145000000.0,22.35,0.0,0.0,0.0,0.01962,0.1487195110389951,9.81981
1150000000.0,22.35,0.0,0.0,0.0,0.01962,0.15794106701211066,9.792341910650519
1155000000.0,22.35,0.0,0.0,0.0,0.026388922434489225,0.15323215513102156,9.794107844868979
1160000000.0,22.35,0.0,0.0,0.0,0.04277164506321645,0.16716246759482467,9.786848354936785
1165000000.0,22.35,0.0,0.0,0.0,0.03590455474254555,0.17658,9.800288167886182
1170000000.0,22.35,0.0,0.0,0.0,0.02295537727415377,0.16363075454830753,9.797050754548309
1175000000.0,22.35,0.0,0.0,0.0,0.03237304564593045,0.15058347717703477,9.809509568468895
1180000000.0,22.35,0.0,0.0,0.0,0.032961577079915774,0.1534284229200842,9.807253154159833
1185000000.0,22.35,0.0,0.0,0.0,0.02943,0.15696,9.787829353965595
1190000000.0,22.35,0.0,0.0,0.0,0.02943,0.16912444622864445,9.80489889245729
1195000000.0,22.35,0.0,0.0,0.0,0.02943,0.17059587678855875,9.81382587678856
1200000000.0,22.35,0.0,0.0,0.0,0.035316023308560235,0.16677,9.815886023308561
1205000000.0,22.35,0.0,0.0,0.0,0.033452076594320763,0.15519415318864152,9.796658306377283
1210000000.0,22.35,0.0,0.0,0.0,0.01805035299440353,0.15283982350279823,9.797639470508395
1215000000.0,22.35,0.0,0.0,0.0,0.015401723599917237,0.15696,9.798816552800167
1220000000.0,22.35,0.0,0.0,0.0,0.008632752605927524,0.15146637630296375,9.801367247394072
1225000000.0,22.35,0.0,0.0,0.0,0.005395523794155238,0.14175447620584475,9.815395523794155
1230000000.0,22.35,0.0,0.0,0.0,0.015107423891274238,0.13204257610872575,9.809215152217453
1235000000.0,22.35,0.0,0.0,0.0,0.02481932398839324,0.14832729595357297,9.794990676011608
1240000000.0,22.35,0.0,0.0,0.0,0.03453122408551224,0.16166877591448775,9.785278775914488
1245000000.0,22.35,0.0,0.0,0.0,0.044243124182631245,0.15696,9.785573124182632
1250000000.0,22.35,0.0,0.0,0.0,0.04414497572024976,0.15696,9.79038
1255000000.0,22.35,0.0,0.0,0.0,0.034433075623130756,0.15696,9.79999384875374
1260000000.0,22.35,0.0,0.0,0.0,0.024721175526011756,0.15696,9.814708824473989
1265000000.0,22.35,0.0,0.0,0.0,0.024230724571107247,0.15234927542889276,9.824420724571107
1270000000.0,22.35,0.0,0.0,0.0,0.038455249336452495,0.14715,9.816082125995322
1275000000.0,22.35,0.0,0.0,0.0,0.03580642570396426,0.1559790495306905,9.795775475234656
1280000000.0,22.35,0.0,0.0,0.0,0.01962,0.16677,9.79038
1285000000.0,22.35,0.0,0.0,0.0,0.01540167504041675,0.17098832495958324,9.79038
1290000000.0,22.35,0.0,0.0,0.0,0.02217067517010675,0.16421932482989324,9.798620450113406
1295000000.0,22.35,0.0,0.0,0.0,0.031195749692357493,0.163238500615285,9.81
1300000000.0,22.35,0.0,0.0,0.0,0.031392075752820756,0.170693898996239,9.80215194949812
1305000000.0,22.35,0.0,0.0,0.0,0.0413981493038815,0.14332407465194075,9.79420592534806
1310000000.0,22.35,0.0,0.0,0.0,0.025702174554821745,0.14106782544517826,9.80019
1315000000.0,22.35,0.0,0.0,0.0,0.01962,0.14715,9.807449451084596
1320000000.0,22.35,0.0,0.0,0.0,0.02668325127883251,0.14715,9.816278374360584
1325000000.0,22.35,0.0,0.0,0.0,0.04610705147307051,0.14715,9.81
1330000000.0,22.35,0.0,0.0,0.0,0.04885372249903723,0.15048542583365426,9.803329148332692
1335000000.0,22.35,0.0,0.0,0.0,0.03590465186154652,0.15696,9.79038
1340000000.0,22.35,0.0,0.0,0.0,0.04591077397210774,0.15382077397210772,9.79038
1345000000.0,22.35,0.0,0.0,0.0,0.02707549549995495,0.14410887387498875,9.796462252250024
1350000000.0,22.35,0.0,0.0,0.0,0.008829078666390787,0.13734,9.80705697377787
1355000000.0,22.35,0.0,0.0,0.0,0.020895221042252214,0.14587477895774778,9.80019
1360000000.0,22.35,0.0,0.0,0.0,0.005493652832736528,0.16127634716726347,9.794696347167264
1365000000.0,22.35,0.0,0.0,0.0,0.01962,0.15774490605394906,9.788516179540462
1370000000.0,22.35,0.0,0.0,0.0,0.02472125322121253,0.18128874677878748,9.807449373389394
1375000000.0,22.35,0.0,0.0,0.0,0.04169252670772527,0.16186494658454947,9.80019
1380000000.0,22.35,0.0,0.0,0.0,0.04434114639031147,0.14715,9.797835573195156
1385000000.0,22.35,0.0,0.0,0.0,0.03168632690196327,0.14715,9.792636326901963
1390000000.0,22.35,0.0,0.0,0.0,0.034923546001835455,0.14715,9.802348226999083
1395000000.0,22.35,0.0,0.0,0.0,0.02168012709620127,0.15333038128860382,9.812060127096201
1400000000.0,22.35,0.0,0.0,0.0,0.03139202719332027,0.17658,9.81392391842004
1405000000.0,22.35,0.0,0.0,0.0,0.03924,0.17658,9.79038
1410000000.0,22.35,0.0,0.0,0.0,0.04100582738755827,0.17658,9.792145827387559
1415000000.0,22.35,0.0,0.0,0.0,0.045714545030645454,0.16824136257661362,9.798522272515322
1420000000.0,22.35,0.0,0.0,0.0,0.02943,0.12909962758179627,9.788810372418205
1425000000.0,22.35,0.0,0.0,0.0,0.02501541696325417,0.1358684723210847,9.784984583036747
1430000000.0,22.35,0.0,0.0,0.0,0.0013734277760342778,0.13577056665620568,9.808626572223966
1435000000.0,22.35,0.0,0.0,0.0,0.00981,0.18256401638054015,9.80019
1440000000.0,22.35,0.0,0.0,0.0,0.012164455940544558,0.1557827720297277,9.80019
1445000000.0,22.35,0.0,0.0,0.0,0.03158825613478256,0.14930825613478257,9.799110871932609
1450000000.0,22.35,0.0,0.0,0.0,0.04708794367097944,0.16677,9.792342056329021
1455000000.0,22.35,0.0,0.0,0.0,0.02854707173837072,0.16677,9.81088292826163
1460000000.0,22.35,0.0,0.0,0.0,0.021189656717496567,0.16677,9.818240343282504
1465000000.0,22.35,0.0,0.0,0.0,0.03855327154413271,0.16539654308826543,9.801563456911735
1470000000.0,22.35,0.0,0.0,0.0,0.028841371447013715,0.14656137144701373,9.81981
1475000000.0,22.35,0.0,0.0,0.0,0.02060105730021057,0.13783052865010528,9.818338414049684
1480000000.0,22.35,0.0,0.0,0.0,0.038455142505551425,0.14754242874722429,9.789987571252777
1485000000.0,22.35,0.0,0.0,0.0,0.01962,0.15754865768868656,9.781747315377373
1490000000.0,22.35,0.0,0.0,0.0,0.01981622894146229,0.1763837710585377,9.819221313175614
1495000000.0,22.35,0.0,0.0,0.0,0.02952812903858129,0.1669662580771626,9.790478129038583
1500000000.0,22.35,0.0,0.0,0.0,0.03924,0.18638988345719884,9.8001899708643
1505000000.0,22.35,0.0,0.0,0.0,0.03924,0.14754228306872283,9.79047807076718
1510000000.0,22.35,0.0,0.0,0.0,0.03924,0.14715,9.79038
1515000000.0,22.35,0.0,0.0,0.0,0.03924,0.1376342705729427,9.799895729427059
1520000000.0,22.35,0.0,0.0,0.0,0.020404740951647408,0.13734,9.837860518096706
1525000000.0,22.35,0.0,0.0,0.0,0.01962,0.17461811848518116,9.82079094075741
1530000000.0,22.35,0.0,0.0,0.0,0.0288414297184143,0.1858014297184143,9.801367140563173
1535000000.0,22.35,0.0,0.0,0.0,0.0385533298155333,0.18639,9.80019
1540000000.0,22.35,0.0,0.0,0.0,0.012164310262043104,0.1683395401746954,9.809215229912652
1545000000.0,22.35,0.0,0.0,0.0,0.0187371300097713,0.1578428699902287,9.81
1550000000.0,22.35,0.0,0.0,0.0,0.028449030106890302,0.1481309698931097,9.81
1555000000.0,22.35,0.0,0.0,0.0,0.020699069795990697,0.1384190697959907,9.81
1560000000.0,22.35,0.0,0.0,0.0,0.04551849090338491,0.14597283030112831,9.81
1565000000.0,22.35,0.0,0.0,0.0,0.04905,0.1812889215929892,9.792930539203507
1570000000.0,22.35,0.0,0.0,0.0,0.03217673900926739,0.1610801085139011,9.807253260990732
1575000000.0,22.35,0.0,0.0,0.0,0.05444559177745592,0.1652985305924853,9.801661469407515
1580000000.0,22.35,0.0,0.0,0.0,0.017657846551978468,0.17501043068960428,9.80019
1585000000.0,22.35,0.0,0.0,0.0,0.026094661573446615,0.1684376692132767,9.80019
1590000000.0,22.35,0.0,0.0,0.0,0.02943,0.15872576911615768,9.792145769116159
1595000000.0,22.35,0.0,0.0,0.0,0.005591607057116071,0.13312160705711606,9.806272261961924
1600000000.0,22.35,0.0,0.0,0.0,0.015696062156160623,0.15892212431232125,9.81
1605000000.0,22.35,0.0,0.0,0.0,0.01962,0.15127013764960137,9.8022500688248
1610000000.0,22.35,0.0,0.0,0.0,0.011968168727681687,0.17010549381695492,9.815493662544638
1615000000.0,22.35,0.0,0.0,0.0,0.00981,0.16147253726112537,9.804702537261125
1620000000.0,22.35,0.0,0.0,0.0,0.017265631466556314,0.15696,9.80019
1625000000.0,22.35,0.0,0.0,0.0,0.012262468436324683,0.1496024684363247,9.822262594691026
1630000000.0,22.35,0.0,0.0,0.0,0.017069431660794318,0.15440943166079432,9.815101136678411
1635000000.0,22.35,0.0,0.0,0.0,0.033942663515826636,0.15696,9.824322663515828
1640000000.0,22.35,0.0,0.0,0.0,0.04630323185503232,0.14283353628993534,9.801367072579872
1645000000.0,22.35,0.0,0.0,0.0,0.028154604143546043,0.15823539585645396,9.776449736095698
1650000000.0,22.35,0.0,0.0,0.0,0.02648703204927032,0.16677,9.77762703204927
1655000000.0,22.35,0.0,0.0,0.0,0.02943,0.1396942714144427,9.78057
1660000000.0,22.35,0.0,0.0,0.0,0.02275916775649168,0.14087166448701666,9.787240832243508
1665000000.0,22.35,0.0,0.0,0.0,0.032765464681254644,0.1537227323406273,9.796952732340628
1670000000.0,22.35,0.0,0.0,0.0,0.03276536756225368,0.14401073512450735,9.806664632437746
1675000000.0,22.35,0.0,0.0,0.0,0.03580653253486532,0.15009306506973064,9.81
1680000000.0,22.35,0.0,0.0,0.0,0.03296156736801567,0.14440313473603134,9.791164702104048
1685000000.0,22.35,0.0,0.0,0.0,0.023249667270896675,0.13734,9.792930665458208
1690000000.0,22.35,0.0,0.0,0.0,0.01962,0.13734,9.80019
1695000000.0,22.35,0.0,0.0,0.0,0.013635867076658668,0.14930826584668264,9.806174132923342
1700000000.0,22.35,0.0,0.0,0.0,0.027468099061380986,0.16873206604092064,9.79234190093862
1705000000.0,22.35,0.0,0.0,0.0,0.016088267529682673,0.16500413376484133,9.78635793311758
1710000000.0,22.35,0.0,0.0,0.0,0.017069499644094998,0.17971933285879332,9.79038
1715000000.0,22.35,0.0,0.0,0.0,0.023838266688182667,0.15705786681727868,9.801563466623636
1720000000.0,22.35,0.0,0.0,0.0,0.030607266817872666,0.1385172668178727,9.804506366591065
1725000000.0,22.35,0.0,0.0,0.0,0.03384446649394467,0.15794106701211066,9.78939893298789
1730000000.0,22.35,0.0,0.0,0.0,0.04002486720634867,0.16677,9.775272566396826
1735000000.0,22.35,0.0,0.0,0.0,0.03865133259941333,0.16677,9.781158667400586
1740000000.0,22.35,0.0,0.0,0.0,0.02943,0.16166876620258766,9.780177532405176
1745000000.0,22.35,0.0,0.0,0.0,0.02442686610546866,0.15195686610546866,9.790772535578125
1750000000.0,22.35,0.0,0.0,0.0,0.02452503399165034,0.14224496600834965,9.81
1755000000.0,22.35,0.0,0.0,0.0,0.03423693408876934,0.13734,9.81
1760000000.0,22.35,0.0,0.0,0.0,0.03924,0.14204883418588835,9.81
1765000000.0,22.35,0.0,0.0,0.0,0.03001853143398531,0.16559293713202938,9.805389265716993
1770000000.0,22.35,0.0,0.0,0.0,0.02864526876025269,0.17285209685962097,9.791164731239748
1775000000.0,22.35,0.0,0.0,0.0,0.04365453447724534,0.14371639656826396,9.776155465522756
1780000000.0,22.35,0.0,0.0,0.0,0.044733565425635655,0.1447957382974574,9.779392869148728
1785000000.0,22.35,0.0,0.0,0.0,0.03502166532851665,0.16677,9.79038
1790000000.0,22.35,0.0,0.0,0.0,0.021189530462795307,0.1585295304627953,9.798620469537205
1795000000.0,22.35,0.0,0.0,0.0,0.00981,0.1551942697314427,9.81
1800000000.0,22.35,0.0,0.0,0.0,0.0255061398513614,0.15499789511147893,9.81
1805000000.0,22.35,0.0,0.0,0.0,0.037572194820121946,0.14116593505995934,9.81
1810000000.0,22.35,0.0,0.0,0.0,0.01962,0.14342216484292164,9.798816494528765
1815000000.0,22.35,0.0,0.0,0.0,0.030509205762592057,0.1445994705083947,9.787829470508395
1820000000.0,22.35,0.0,0.0,0.0,0.04551836464868365,0.15342836464868365,9.80019
1825000000.0,22.35,0.0,0.0,0.0,0.03924,0.15745060634530605,9.80019
1830000000.0,22.35,0.0,0.0,0.0,0.032569128908891284,0.1699091289088913,9.80019
1835000000.0,22.35,0.0,0.0,0.0,0.01962,0.15696,9.803427335642674
1840000000.0,22.35,0.0,0.0,0.0,0.01962,0.15382076426020763,9.81
1845000000.0,22.35,0.0,0.0,0.0,0.02266113583691136,0.14715,9.800876592489267
1850000000.0,22.35,0.0,0.0,0.0,0.03237303593403036,0.15009303593403037,9.789399107802092
1855000000.0,22.35,0.0,0.0,0.0,0.03355012793770128,0.15127012793770128,9.798620255875402
1860000000.0,22.35,0.0,0.0,0.0,0.01962,0.14832734451307344,9.776253672256537
1865000000.0,22.35,0.0,0.0,0.0,0.014322527549225274,0.17658,9.795677472450775
1870000000.0,22.35,0.0,0.0,0.0,0.00765190896751909,0.17147872735498726,9.81
1875000000.0,22.35,0.0,0.0,0.0,0.03433507283925073,0.15450746358037462,9.81
1880000000.0,22.35,0.0,0.0,0.0,0.04669556348325564,0.14244112696651126,9.81
1885000000.0,22.35,0.0,0.0,0.0,0.030214653544546534,0.13655534645545347,9.81
1890000000.0,22.35,0.0,0.0,0.0,0.008632946843929469,0.1602952898670529,9.81
1895000000.0,22.35,0.0,0.0,0.0,0.03717986319189863,0.14558054723240546,9.8079398631919
1900000000.0,22.35,0.0,0.0,0.0,0.027467963094779634,0.17069388928433887,9.80019
1905000000.0,22.35,0.0,0.0,0.0,0.023347874004678738,0.14901393700233936,9.80019
1910000000.0,22.35,0.0,0.0,0.0,0.035708325801083254,0.15696,9.80195583709946
1915000000.0,22.35,0.0,0.0,0.0,0.02128773719657737,0.15696,9.806664525606847
1920000000.0,22.35,0.0,0.0,0.0,0.027860362706303626,0.15696,9.791949637293698
1925000000.0,22.35,0.0,0.0,0.0,0.022563074781630745,0.15843153739081536,9.798718462609186
1930000000.0,22.35,0.0,0.0,0.0,0.03649312502413125,0.16539656251206564,9.793126874975869
1935000000.0,22.35,0.0,0.0,0.0,0.023446012755160128,0.1556846624149466,9.81
1940000000.0,22.35,0.0,0.0,0.0,0.045518286953482874,0.14597276231782763,9.807645524635657
1945000000.0,22.35,0.0,0.0,0.0,0.01962,0.13841913777929138,9.79038
1950000000.0,22.35,0.0,0.0,0.0,0.020601037876410377,0.14813103787641038,9.791361037876412
1955000000.0,22.35,0.0,0.0,0.0,0.028547062026470622,0.15872587594705875,9.798424124052941
1960000000.0,22.35,0.0,0.0,0.0,0.02118967614129676,0.1757951619293516,9.782924514211945
1965000000.0,22.35,0.0,0.0,0.0,0.03786652366446523,0.16539652366446525,9.808626523664465
1970000000.0,22.35,0.0,0.0,0.0,0.021385914794659146,0.14891591479465915,9.790968638264888
1975000000.0,22.35,0.0,0.0,0.0,0.047578384913983855,0.17510838491398384,9.79920892327599
1980000000.0,22.35,0.0,0.0,0.0,0.020404876918248768,0.14715,9.78057
1985000000.0,22.35,0.0,0.0,0.0,0.038945661443756614,0.1474443385562434,9.781453015668731
1990000000.0,22.35,0.0,0.0,0.0,0.028841284039912842,0.1565675226932752,9.81
1995000000.0,22.35,0.0,0.0,0.0,0.00039255500192555,0.13763441625144415,9.80990186124952
2000000000.0,22.35,0.0,0.0,0.0,0.03924,0.16676996115239962,9.800190077695202
2005000000.0,22.35,0.0,0.0,0.0,0.03924,0.1570580610552806,9.81961387788944
2010000000.0,22.35,0.0,0.0,0.0,0.03924,0.15696,9.800582321916323
2015000000.0,22.35,0.0,0.0,0.0,0.020208521722085215,0.15696,9.80019
2020000000.0,22.35,0.0,0.0,0.0,0.047872917708229185,0.17579527847215276,9.77193708229177
2025000000.0,22.35,0.0,0.0,0.0,0.030410921333609217,0.1672604606668046,9.798718617999587
2030000000.0,22.35,0.0,0.0,0.0,0.02943,0.14832712113937122,9.809411439430315
2035000000.0,22.35,0.0,0.0,0.0,0.02943,0.1653966790548668,9.828246679054867
2040000000.0,22.35,0.0,0.0,0.0,0.0474804792491048,0.13066904150179043,9.811569520750895
2045000000.0,22.35,0.0,0.0,0.0,0.0401228602783286,0.1364571397216714,9.792145720556658
2050000000.0,22.35,0.0,0.0,0.0,0.0215819203624192,0.1285109601812096,9.799209039818791
2055000000.0,22.35,0.0,0.0,0.0,0.03708187983181879,0.1537228197477282,9.80019
2060000000.0,22.35,0.0,0.0,0.0,0.021974319973943196,0.1655928400130284,9.808822840013029
2065000000.0,22.35,0.0,0.0,0.0,0.0366894802202948,0.1497005197797052,9.81
2070000000.0,22.35,0.0,0.0,0.0,0.030803359792733596,0.1555866402072664,9.801563359792734
2075000000.0,22.35,0.0,0.0,0.0,0.004414379086843792,0.1652985403043854,9.791851459695616
2080000000.0,22.35,0.0,0.0,0.0,0.01648088080300881,0.14204867879548677,9.815101321204514
2085000000.0,22.35,0.0,0.0,0.0,0.01962,0.1454823404986234,9.803525319002754
2090000000.0,22.35,0.0,0.0,0.0,0.01962,0.16323848119148482,9.816278481191485
2095000000.0,22.35,0.0,0.0,0.0,0.01962,0.14293157792141578,9.81186385930714
2100000000.0,22.35,0.0,0.0,0.0,0.01177195921001959,0.16088412236994123,9.81
2105000000.0,22.35,0.0,0.0,0.0,0.017559940887099407,0.1512701182258012,9.786750177338703
2110000000.0,22.35,0.0,0.0,0.0,0.02727184098421841,0.1548018409842184,9.78822184098422
2115000000.0,22.35,0.0,0.0,0.0,0.02187625891866259,0.13429877675598778,9.797933741081337
2120000000.0,22.35,0.0,0.0,0.0,0.03453128235691282,0.14244128235691284,9.807645641178457
2125000000.0,22.35,0.0,0.0,0.0,0.01716737617327376,0.14715,9.802642458724424
2130000000.0,22.35,0.0,0.0,0.0,0.03158832411808324,0.13989055862730557,9.81470888274539
2135000000.0,22.35,0.0,0.0,0.0,0.032078658530186585,0.13734,9.812648658530186
2140000000.0,22.35,0.0,0.0,0.0,0.022366758433067582,0.13734,9.817063241566933
2145000000.0,22.35,0.0,0.0,0.0,0.01962,0.16520056665620567,9.805879716671898
2150000000.0,22.35,0.0,0.0,0.0,0.026487041761170418,0.16284591647765914,9.78645591647766
2155000000.0,22.35,0.0,0.0,0.0,0.015892116283421166,0.15696,9.787338941858291
2160000000.0,22.35,0.0,0.0,0.0,0.01648084195540842,0.15696,9.803721683910817
2165000000.0,22.35,0.0,0.0,0.0,0.01962,0.15696,9.803427257947472
2170000000.0,22.35,0.0,0.0,0.0,0.01962,0.16343464214964643,9.81961392644894
2175000000.0,22.35,0.0,0.0,0.0,0.02599654224676542,0.15401691550646915,9.810490373259704
2180000000.0,22.35,0.0,0.0,0.0,0.041986884687768844,0.16598532703165325,9.812746884687769
2185000000.0,22.35,0.0,0.0,0.0,0.03668931511799316,0.17039965755899658,9.80126897267699
2190000000.0,22.35,0.0,0.0,0.0,0.023347757461877575,0.15460551492375516,9.784297757461879
2195000000.0,22.35,0.0,0.0,0.0,0.025604142635241425,0.14116585736475856,9.798522427905725
2200000000.0,22.35,0.0,0.0,0.0,0.023543957267639574,0.15499812819708128,9.80411395726764
2205000000.0,22.35,0.0,0.0,0.0,0.01383205717052057,0.17255794282947942,9.80597794282948
2210000000.0,22.35,0.0,0.0,0.0,0.03256937170639372,0.15382062829360627,9.81
2215000000.0,22.35,0.0,0.0,0.0,0.04345825697628257,0.13734,9.81
2220000000.0,22.35,0.0,0.0,0.0,0.028252713758327136,0.1538209293625093,9.799012713758328
2225000000.0,22.35,0.0,0.0,0.0,0.025015543217955433,0.16137445678204457,9.79038
2230000000.0,22.35,0.0,0.0,0.0,0.02943,0.1728523299452233,9.800974886630149
2235000000.0,22.35,0.0,0.0,0.0,0.019031313175613133,0.1707919697634197,9.804800656587807
2240000000.0,22.35,0.0,0.0,0.0,0.025113730527937302,0.15696,9.795088756490689
2245000000.0,22.35,0.0,0.0,0.0,0.029233712787137125,0.15195685639356857,9.800386287212863
2250000000.0,22.35,0.0,0.0,0.0,0.029430087407100874,0.14715,9.81
2255000000.0,22.35,0.0,0.0,0.0,0.03924,0.15195694380066943,9.80519305619933
2260000000.0,22.35,0.0,0.0,0.0,0.02982231220442312,0.15696,9.814316531693366
2265000000.0,22.35,0.0,0.0,0.0,0.02423074399490744,0.15696,9.820398512010186
2270000000.0,22.35,0.0,0.0,0.0,0.02943,0.16147264409202644,9.81
2275000000.0,22.35,0.0,0.0,0.0,0.020600911621709118,0.16677,9.81
2280000000.0,22.35,0.0,0.0,0.0,0.00981,0.17108644428626443,9.805683555713737
2285000000.0,22.35,0.0,0.0,0.0,0.005591655616616556,0.15970662246646622,9.80019
2290000000.0,22.35,0.0,0.0,0.0,0.012360733441507335,0.14146024448050243,9.80019
2295000000.0,22.35,0.0,0.0,0.0,0.02943,0.14715,9.796167855422379
2300000000.0,22.35,0.0,0.0,0.0,0.02943,0.15107404467474045,9.798228089349482
2305000000.0,22.35,0.0,0.0,0.0,0.03325594477185945,0.15313405522814055,9.80617405522814
2310000000.0,22.35,0.0,0.0,0.0,0.03551215513102155,0.15833353460693533,9.803917844868979
2315000000.0,22.35,0.0,0.0,0.0,0.03305974496609745,0.16569076510170763,9.81
2320000000.0,22.35,0.0,0.0,0.0,0.03570835493678355,0.14715,9.799405064810351
2325000000.0,22.35,0.0,0.0,0.0,0.02943,0.14715,9.787437090320672
2330000000.0,22.35,0.0,0.0,0.0,0.03276544525745445,0.14715,9.80019
2335000000.0,22.35,0.0,0.0,0.0,0.03600265464542655,0.15038734535457346,9.796952654645427
2340000000.0,22.35,0.0,0.0,0.0,0.03570849090338491,0.16009924545169243,9.787240754548309
2345000000.0,22.35,0.0,0.0,0.0,0.04296770890237709,0.16677,9.792734582195246
2350000000.0,22.35,0.0,0.0,0.0,0.03237304564593046,0.16971304564593045,9.813923908708139
2355000000.0,22.35,0.0,0.0,0.0,0.02786021702780217,0.17373505425695054,9.80303494574305
2360000000.0,22.35,0.0,0.0,0.0,0.0027468458401684586,0.16127630831966308,9.804506308319663
2365000000.0,22.35,0.0,0.0,0.0,0.017756237811862377,0.14979874593728745,9.795677491874576
2370000000.0,22.35,0.0,0.0,0.0,0.034138707931187076,0.16461193810321936,9.81
2375000000.0,22.35,0.0,0.0,0.0,0.02452509226305092,0.18148490773694909,9.80509490773695
2380000000.0,22.35,0.0,0.0,0.0,0.04159444622864446,0.16206110754271108,9.79038
2385000000.0,22.35,0.0,0.0,0.0,0.044537307348473075,0.14940634632576347,9.79038
2390000000.0,22.35,0.0,0.0,0.0,0.02943,0.1504852607313526,9.79038
2395000000.0,22.35,0.0,0.0,0.0,0.027369853479998537,0.13577058608000586,9.794500293040004
2400000000.0,22.35,0.0,0.0,0.0,0.01962,0.16873204661712046,9.80803795338288
2405000000.0,22.35,0.0,0.0,0.0,0.01962,0.17098815985728158,9.80205394671424
2410000000.0,22.35,0.0,0.0,0.0,0.021385846811358467,0.14715,9.806468306377283
2415000000.0,22.35,0.0,0.0,0.0,0.02943,0.14881774690847746,9.792047746908478
2420000000.0,22.35,0.0,0.0,0.0,0.02786035299440353,0.1553903529944035,9.801759647005596
2425000000.0,22.35,0.0,0.0,0.0,0.02109154710271547,0.15009309420543093,9.80705690579457
2430000000.0,22.35,0.0,0.0,0.0,0.030803447199834473,0.16402310560033107,9.789006552800167
2435000000.0,22.35,0.0,0.0,0.0,0.04051534729695347,0.15097604189086042,9.784396041890862
2440000000.0,22.35,0.0,0.0,0.0,0.04669550521185505,0.17422550521185504,9.806468257817784
2445000000.0,22.35,0.0,0.0,0.0,0.03158829498238295,0.15696,9.78057
2450000000.0,22.35,0.0,0.0,0.0,0.0451258096467581,0.15696,9.78155104758831
2455000000.0,22.35,0.0,0.0,0.0,0.008927052314570522,0.15784294768542947,9.79214589537086
2460000000.0,22.35,0.0,0.0,0.0,0.0031393911301939113,0.16441545665235457,9.809215152217453
2465000000.0,22.35,0.0,0.0,0.0,0.03855325212033252,0.13871349575933495,9.80019
2470000000.0,22.35,0.0,0.0,0.0,0.028252704046427043,0.1563713520232135,9.800778647976786
2475000000.0,22.35,0.0,0.0,0.0,0.01128164422171644,0.14862164422171645,9.81
2480000000.0,22.35,0.0,0.0,0.0,0.03845510365795103,0.17658,9.809215103657952
2485000000.0,22.35,0.0,0.0,0.0,0.019031303463713033,0.1762856517318565,9.789791303463714
2490000000.0,22.35,0.0,0.0,0.0,0.0007849934610499347,0.16677,9.771348745095787
2495000000.0,22.35,0.0,0.0,0.0,0.03914185153761851,0.16647555461285554,9.800288148462382
2500000000.0,22.35,0.0,0.0,0.0,0.02943,0.13734,9.8099999514405
2505000000.0,22.35,0.0,0.0,0.0,0.02943,0.13734,9.800288051343381
2510000000.0,22.35,0.0,0.0,0.0,0.010202302492523026,0.18540924376869244,9.819417697507477
2515000000.0,22.35,0.0,0.0,0.0,0.03835724655257246,0.17687425114914251,9.791262753447429
2520000000.0,22.35,0.0,0.0,0.0,0.020404702104047018,0.157744702104047,9.81863294684393
2525000000.0,22.35,0.0,0.0,0.0,0.04757864713528648,0.14764045095490452,9.791851352864715
2530000000.0,22.35,0.0,0.0,0.0,0.04905,0.15637144914221449,9.818044347426644
2535000000.0,22.35,0.0,0.0,0.0,0.0399266507606665,0.15696,9.810686650760667
2540000000.0,22.35,0.0,0.0,0.0,0.03924,0.1479347506635475,9.81
2545000000.0,22.35,0.0,0.0,0.0,0.021385701132857007,0.14715,9.80107285056643
2550000000.0,22.35,0.0,0.0,0.0,0.010790950469309503,0.129491900938619,9.809019049530692
2555000000.0,22.35,0.0,0.0,0.0,0.00981,0.16245379851123798,9.792538100744382
2560000000.0,22.35,0.0,0.0,0.0,0.018442849724928496,0.18403569944985698,9.79038
2565000000.0,22.35,0.0,0.0,0.0,0.0110852501779525,0.17785525017795248,9.798914749822048
2570000000.0,22.35,0.0,0.0,0.0,0.026683299838332997,0.159706700161667,9.808626649919168
2575000000.0,22.35,0.0,0.0,0.0,0.012752899967429,0.140282899967429,9.79332289996743
2580000000.0,22.35,0.0,0.0,0.0,0.042771800453618,0.153820900226809,9.798620450113406
2585000000.0,22.35,0.0,0.0,0.0,0.032765299578952994,0.1325329493684295,9.792047649789478
2590000000.0,22.35,0.0,0.0,0.0,0.02943,0.1516627509229275,9.806468500615285
2595000000.0,22.35,0.0,0.0,0.0,0.021483849595238497,0.15696,9.81
2600000000.0,22.35,0.0,0.0,0.0,0.003923898996238989,0.18835220200752203,9.80215194949812
2605000000.0,22.35,0.0,0.0,0.0,0.015499901197999011,0.14970029640600296,9.80019
2610000000.0,22.35,0.0,0.0,0.0,0.027271850696118507,0.152643701392237,9.80784185069612
2615000000.0,22.35,0.0,0.0,0.0,0.036983750793237506,0.15696,9.802446249206763
2620000000.0,22.35,0.0,0.0,0.0,0.016873047328930472,0.1644156508903565,9.807645650890358
2625000000.0,22.35,0.0,0.0,0.0,0.031882652962426525,0.15205489802504898,9.802642449012525
2630000000.0,22.35,0.0,0.0,0.0,0.024721097830810973,0.13989054891540548,9.80019
2635000000.0,22.35,0.0,0.0,0.0,0.02678135118171351,0.15166270236342702,9.814512702363427
2640000000.0,22.35,0.0,0.0,0.0,0.03649325127883251,0.15696,9.798620246163503
2645000000.0,22.35,0.0,0.0,0.0,0.01834454587214546,0.1499948486240485,9.804310302751903
2650000000.0,22.35,0.0,0.0,0.0,0.016677051473070515,0.14715,9.79626589705386
2655000000.0,22.35,0.0,0.0,0.0,0.026388951570189514,0.17422580628075807,9.79038
2660000000.0,22.35,0.0,0.0,0.0,0.022759148332691482,0.17971914833269148,9.79038
2665000000.0,22.35,0.0,0.0,0.0,0.026192751764427518,0.17000724823557248,9.796952751764428
2670000000.0,22.35,0.0,0.0,0.0,0.022955348138453482,0.14734604441536042,9.806664651861547
2675000000.0,22.35,0.0,0.0,0.0,0.04512620783466208,0.1437165519586655,9.816376551958665
2680000000.0,22.35,0.0,0.0,0.0,0.03374619177686192,0.14087154794421547,9.80725309588843
2685000000.0,22.35,0.0,0.0,0.0,0.01962,0.14970070430580704,9.787829295694193
2690000000.0,22.35,0.0,0.0,0.0,0.025702252250022522,0.16912450450004504,9.80489900900009
2695000000.0,22.35,0.0,0.0,0.0,0.041398304694283045,0.17059584765285848,9.801857542958576
2700000000.0,22.35,0.0,0.0,0.0,0.03139184266721842,0.15499789511147896,9.79038
2705000000.0,22.35,0.0,0.0,0.0,0.025407952541379526,0.15872590508275905,9.80774385762414
2710000000.0,22.35,0.0,0.0,0.0,0.023740147361501474,0.16108014736150147,9.814120147361502
2715000000.0,22.35,0.0,0.0,0.0,0.014028247264382471,0.15696,9.81
2720000000.0,22.35,0.0,0.0,0.0,0.020797305665473054,0.15146634716726348,9.799012694334527
2725000000.0,22.35,0.0,0.0,0.0,0.018638894140288943,0.16873221171942213,9.79038
2730000000.0,22.35,0.0,0.0,0.0,0.03629726513487265,0.1704976409190764,9.795677453026975
2735000000.0,22.35,0.0,0.0,0.0,0.03806258750362588,0.16735870624818705,9.789791293751813
2740000000.0,22.35,0.0,0.0,0.0,0.024721253221212533,0.1612762403363624,9.785671253221214
2745000000.0,22.35,0.0,0.0,0.0,0.02943,0.12713738672667388,9.800386306636664
2750000000.0,22.35,0.0,0.0,0.0,0.0147148397536484,0.13243526707725267,9.81
2755000000.0,22.35,0.0,0.0,0.0,0.014420860537708606,0.14734609297486093,9.800386092974861
2760000000.0,22.35,0.0,0.0,0.0,0.02001229278062293,0.14675770721937706,9.799797707219378
2765000000.0,22.35,0.0,0.0,0.0,0.019031507413615076,0.16157075370680754,9.800778492586385
2770000000.0,22.35,0.0,0.0,0.0,0.03394265380392654,0.17128265380392654,9.799405307607854
2775000000.0,22.35,0.0,0.0,0.0,0.04365455390104554,0.17216544609895446,9.80117089219791
2780000000.0,22.35,0.0,0.0,0.0,0.03610063800550638,0.15813709200367093,9.79038
2785000000.0,22.35,0.0,0.0,0.0,0.028056708190567083,0.15558670819056708,9.794598354095283
2790000000.0,22.35,0.0,0.0,0.0,0.02687923742279237,0.16677,9.804310254192403
2795000000.0,22.35,0.0,0.0,0.0,0.017854308579043084,0.16274784571047846,9.801955691420957
2800000000.0,22.35,0.0,0.0,0.0,0.03727810877328109,0.1648081087732811,9.798228108773282
2805000000.0,22.35,0.0,0.0,0.0,0.05287595448375955,0.18040595448375954,9.802348091032481
2810000000.0,22.35,0.0,0.0,0.0,0.05140429083824291,0.17147858167648583,9.782924290838244
2815000000.0,22.35,0.0,0.0,0.0,0.03561024532200245,0.14715,9.781649264033993
2820000000.0,22.35,0.0,0.0,0.0,0.03296165477511655,0.1542133095502331,9.796658345224884
2825000000.0,22.35,0.0,0.0,0.0,0.03924,0.1461686707665867,9.79038
2830000000.0,22.35,0.0,0.0,0.0,0.03924,0.1145809099387091,9.800386364908064
2835000000.0,22.35,0.0,0.0,0.0,0.03924,0.13724206519942064,9.816572644933526
2840000000.0,22.35,0.0,0.0,0.0,0.03924,0.16009925516359255,9.813139255163593
2845000000.0,22.35,0.0,0.0,0.0,0.036198844739288444,0.16372884473928845,9.810686534217865
2850000000.0,22.35,0.0,0.0,0.0,0.03531611071566111,0.1628461107156611,9.79038
2855000000.0,22.35,0.0,0.0,0.0,0.03767017818020178,0.17089008909010087,9.793224955454951
2860000000.0,22.35,0.0,0.0,0.0,0.01530371110413711,0.14871943334379434,9.794696288895864
2865000000.0,22.35,0.0,0.0,0.0,0.03207875564918756,0.12753,9.785867511298376
2870000000.0,22.35,0.0,0.0,0.0,0.03924,0.13263131149261312,9.802740655746307
2875000000.0,22.35,0.0,0.0,0.0,0.03433488831314888,0.15450766753027667,9.807547444156574
2880000000.0,22.35,0.0,0.0,0.0,0.024328911881089117,0.17187108811891086,9.797835544059456
2885000000.0,22.35,0.0,0.0,0.0,0.04149635603766356,0.15921635603766354,9.792636356037665
2890000000.0,22.35,0.0,0.0,0.0,0.04473348773043488,0.17108651226956512,9.802348256134783
2895000000.0,22.35,0.0,0.0,0.0,0.027369843768098437,0.18020953130429532,9.803819531304296
2900000000.0,22.35,0.0,0.0,0.0,0.023544112658041124,0.15696,9.788418225316082
2905000000.0,22.35,0.0,0.0,0.0,0.03364813072158131,0.14950417429544174,9.816082087147722
2910000000.0,22.35,0.0,0.0,0.0,0.01334171304651713,0.12125171304651713,9.801955856523259
2915000000.0,22.35,0.0,0.0,0.0,0.031097756620377566,0.1423432698611327,9.808332243379622
2920000000.0,22.35,0.0,0.0,0.0,0.03296137313001373,0.16677,9.801759656717497
2925000000.0,22.35,0.0,0.0,0.0,0.0073577840730778415,0.16529844318538442,9.80705688637077
2930000000.0,22.35,0.0,0.0,0.0,0.044929629264796295,0.15696,9.791753456911735
2935000000.0,22.35,0.0,0.0,0.0,0.02344607102656071,0.15951071401770714,9.801465357008855
2940000000.0,22.35,0.0,0.0,0.0,0.04787274289402743,0.1718709715761097,9.81
2945000000.0,22.35,0.0,0.0,0.0,0.03708168559381685,0.13841915720309156,9.808920842796908
2950000000.0,22.35,0.0,0.0,0.0,0.018638942699789426,0.14715,9.80019
2955000000.0,22.35,0.0,0.0,0.0,0.010692957397329573,0.14715,9.80019
2960000000.0,22.35,0.0,0.0,0.0,0.02118971498889715,0.14636514250555144,9.80019
2965000000.0,22.35,0.0,0.0,0.0,0.03717972722529727,0.13802675759156757,9.799503242408433
2970000000.0,22.35,0.0,0.0,0.0,0.010398657688686577,0.14891597306605972,9.791557315377373
2975000000.0,22.35,0.0,0.0,0.0,0.01962,0.17510832664258325,9.809509442214194
2980000000.0,22.35,0.0,0.0,0.0,0.020012457882924578,0.14754245788292458,9.799405084234152
2985000000.0,22.35,0.0,0.0,0.0,0.02943,0.15696,9.780864357980045
2990000000.0,22.35,0.0,0.0,0.0,0.02962625807716258,0.1567637419228374,9.791165032308651
2995000000.0,22.35,0.0,0.0,0.0,0.03904368365143683,0.14724815817428158,9.829325525477156
3000000000.0,22.35,0.0,0.0,0.0,0.01962,0.15696011654280115,9.8001898834572
3005000000.0,22.35,0.0,0.0,0.0,0.01962,0.17638391673703915,9.78076608326296
3010000000.0,22.35,0.0,0.0,0.0,0.010006141534361414,0.16696614153436143,9.799797716931279
3015000000.0,22.35,0.0,0.0,0.0,0.02884151712551517,0.17628575856275758,9.809705758562759
3020000000.0,22.35,0.0,0.0,0.0,0.02943,0.16716234134012342,9.800582341340125
3025000000.0,22.35,0.0,0.0,0.0,0.0014713237290132387,0.14813088248600884,9.809509558756996
3030000000.0,22.35,0.0,0.0,0.0,0.009221458854114588,0.1379285411458854,9.79155708229177
3035000000.0,22.35,0.0,0.0,0.0,0.04630343580493436,0.15558671790246717,9.808626717902468
3040000000.0,22.35,0.0,0.0,0.0,0.030999481903294823,0.15696,9.81
3045000000.0,22.35,0.0,0.0,0.0,0.03835715914547159,0.17481431829094318,9.81
3050000000.0,22.35,0.0,0.0,0.0,0.056898118485181184,0.17658,9.81
3055000000.0,22.35,0.0,0.0,0.0,0.041398081320580815,0.1591180813205808,9.783807121980873
3060000000.0,22.35,0.0,0.0,0.0,0.02197428112634281,0.15696,9.78057
3065000000.0,22.35,0.0,0.0,0.0,0.04522427860184279,0.1398904809321048,9.789104759533949
3070000000.0,22.35,0.0,0.0,0.0,0.0406133403689334,0.1542133192621332,9.781943340368935
3075000000.0,22.35,0.0,0.0,0.0,0.022562880543628802,0.15696,9.822262798640928
3080000000.0,22.35,0.0,0.0,0.0,0.0278604598253046,0.1487195401746954,9.788417700873477
3085000000.0,22.35,0.0,0.0,0.0,0.02943,0.1552923599224236,9.796854719844848
3090000000.0,22.35,0.0,0.0,0.0,0.013341479960914802,0.15696,9.776057219941372
3095000000.0,22.35,0.0,0.0,0.0,0.0336484803499848,0.1490138398833384,9.77076
3100000000.0,22.35,0.0,0.0,0.0,0.03924,0.16284612042756122,9.786456120427562
3105000000.0,22.35,0.0,0.0,0.0,0.008240158756401585,0.1590200396891004,9.7981299603109
3110000000.0,22.35,0.0,0.0,0.0,0.030607441632074416,0.1493081395919814,9.815493720816038
3115000000.0,22.35,0.0,0.0,0.0,0.024132478989724787,0.14715,9.804702478989725
3120000000.0,22.35,0.0,0.0,0.0,0.01962,0.1396943393977434,9.80019
3125000000.0,22.35,0.0,0.0,0.0,0.03433512139875121,0.1667702427975024,9.78547487860125
3130000000.0,22.35,0.0,0.0,0.0,0.02472107840701078,0.1838394607964946,9.79508892159299
3135000000.0,22.35,0.0,0.0,0.0,0.02678136089361361,0.1720672782127728,9.814512721787228
3140000000.0,22.35,0.0,0.0,0.0,0.02943,0.13145369504633697,9.805683478018535
3145000000.0,22.35,0.0,0.0,0.0,0.03639516108785161,0.15254580543925805,9.80019
3150000000.0,22.35,0.0,0.0,0.0,0.03924,0.16677,9.793322938815031
3155000000.0,22.35,0.0,0.0,0.0,0.03924,0.1532320774358208,9.80391792256418
3160000000.0,22.35,0.0,0.0,0.0,0.025898277241582772,0.16049172275841722,9.796658277241583
3165000000.0,22.35,0.0,0.0,0.0,0.01962,0.16019723852367238,9.79038
3170000000.0,22.35,0.0,0.0,0.0,0.006670676853106766,0.1634346615734466,9.796854661573446
3175000000.0,22.35,0.0,0.0,0.0,0.012753123341131234,0.13488719164717192,9.793813438329435
3180000000.0,22.35,0.0,0.0,0.0,0.03217692353536923,0.14283384707073846,9.796658461767684
3185000000.0,22.35,0.0,0.0,0.0,0.033059638135196384,0.16932072372960721,9.80019
3190000000.0,22.35,0.0,0.0,0.0,0.02334773803807738,0.1522509521523095,9.812354523923846
3195000000.0,22.35,0.0,0.0,0.0,0.02560416205904162,0.13135583794095837,9.813825837940959
3200000000.0,22.35,0.0,0.0,0.0,0.011771813531518138,0.13930212431232125,9.815886062156162
3205000000.0,22.35,0.0,0.0,0.0,0.017363886759838867,0.15293796225327963,9.82559796225328
3210000000.0,22.35,0.0,0.0,0.0,0.02943,0.16833972470079722,9.812550412948804
3215000000.0,22.35,0.0,0.0,0.0,0.04061352489503525,0.17658,9.789006475104966
3220000000.0,22.35,0.0,0.0,0.0,0.032569012366090125,0.16009901236609012,9.797050987633911
3225000000.0,22.35,0.0,0.0,0.0,0.01962,0.15794112528351126,9.804604437358245
3230000000.0,22.35,0.0,0.0,0.0,0.030214925477749253,0.16677,9.80019
3235000000.0,22.35,0.0,0.0,0.0,0.018442548656025484,0.1511719114920191,9.805389362835994
3240000000.0,22.35,0.0,0.0,0.0,0.015303788799337888,0.15774505173245051,9.81
3245000000.0,22.35,0.0,0.0,0.0,0.03443316303023163,0.16657367393953673,9.804996836969769
3250000000.0,22.35,0.0,0.0,0.0,0.024524810617948103,0.16186506312735063,9.810000126254701
3255000000.0,22.35,0.0,0.0,0.0,0.019423926448939262,0.16196303677553037,9.805389110326592
3260000000.0,22.35,0.0,0.0,0.0,0.02943,0.16637772664317727,9.79508886332159
3265000000.0,22.35,0.0,0.0,0.0,0.03865152683741527,0.15813694632516945,9.809411526837415
3270000000.0,22.35,0.0,0.0,0.0,0.035512009452520095,0.13282733648417336,9.815297336484173
3275000000.0,22.35,0.0,0.0,0.0,0.01962,0.14518825445178254,9.81
3280000000.0,22.35,0.0,0.0,0.0,0.015303536289935362,0.14950414515974145,9.81
3285000000.0,22.35,0.0,0.0,0.0,0.022465091421550912,0.14440345522873455,9.805781636192817
3290000000.0,22.35,0.0,0.0,0.0,0.03099947219139472,0.16264973609569736,9.80019
3295000000.0,22.35,0.0,0.0,0.0,0.02364216400142164,0.15293783599857835,9.79616783599858
3300000000.0,22.35,0.0,0.0,0.0,0.02550593590145936,0.14715,9.802152192295623
3305000000.0,22.35,0.0,0.0,0.0,0.03492385678263857,0.15862789258697893,9.812158071608682
3310000000.0,22.35,0.0,0.0,0.0,0.04767640712166407,0.17285213570722135,9.80391786429278
3315000000.0,22.35,0.0,0.0,0.0,0.03305976438989765,0.16314023561010235,9.81
3320000000.0,22.35,0.0,0.0,0.0,0.03570833551298335,0.16402332897403327,9.802936671025968
3325000000.0,22.35,0.0,0.0,0.0,0.025996435415864355,0.16284574166345742,9.793813564584136
3330000000.0,22.35,0.0,0.0,0.0,0.02629092936250929,0.14734639404376393,9.803525464681256
3335000000.0,22.35,0.0,0.0,0.0,0.03600263522162635,0.1602952704432527,9.806762635221627
3340000000.0,22.35,0.0,0.0,0.0,0.02629073512450735,0.15656779462647794,9.806468529750985
3345000000.0,22.35,0.0,0.0,0.0,0.02266116497261165,0.16745650508216503,9.813727670054778
3350000000.0,22.35,0.0,0.0,0.0,0.03237306506973065,0.15597919520919196,9.80019
3355000000.0,22.35,0.0,0.0,0.0,0.0335500696663007,0.16804510449945104,9.797345034833151
3360000000.0,22.35,0.0,0.0,0.0,0.01962,0.15539059579190595,9.79312686526397
3365000000.0,22.35,0.0,0.0,0.0,0.016971234638912345,0.1659849385556494,9.797541234638913
3370000000.0,22.35,0.0,0.0,0.0,0.014911330916413309,0.13989066545820664,9.79803199637462
3375000000.0,22.35,0.0,0.0,0.0,0.03433513111065131,0.1520551311106513,9.817357434444675
3380000000.0,22.35,0.0,0.0,0.0,0.041986603042666035,0.16441553434755535,9.807645534347555
3385000000.0,22.35,0.0,0.0,0.0,0.021876365749563656,0.15696,9.80019
3390000000.0,22.35,0.0,0.0,0.0,0.03158826584668266,0.15480173415331733,9.798031734153318
3395000000.0,22.35,0.0,0.0,0.0,0.03717983405619834,0.14715,9.792440165943802
3400000000.0,22.35,0.0,0.0,0.0,0.02746793395907934,0.14911206604092067,9.802152066040922
3405000000.0,22.35,0.0,0.0,0.0,0.017756033861960337,0.15882396613803965,9.808136033861961
3410000000.0,22.35,0.0,0.0,0.0,0.011575866235158662,0.16677,9.796658267529683
3415000000.0,22.35,0.0,0.0,0.0,0.01962,0.16510223366772234,9.78057
3420000000.0,22.35,0.0,0.0,0.0,0.02275933285879333,0.16009933285879333,9.783709332858795
3425000000.0,22.35,0.0,0.0,0.0,0.03776843347348433,0.17510843347348432,9.801661566526516
3430000000.0,22.35,0.0,0.0,0.0,0.02943,0.162649600129096,9.81
3435000000.0,22.35,0.0,0.0,0.0,0.026879266558492668,0.13861536672075367,9.808724633279247
3440000000.0,22.35,0.0,0.0,0.0,0.010987266817872668,0.14832726681787267,9.801367266817874
3445000000.0,22.35,0.0,0.0,0.0,0.01854083308500833,0.15372249925502499,9.80892083308501
3450000000.0,22.35,0.0,0.0,0.0,0.01373426804844268,0.13145426804844268,9.801171067012111
3455000000.0,22.35,0.0,0.0,0.0,0.04816703289077033,0.16677,9.809117032890772
3460000000.0,22.35,0.0,0.0,0.0,0.03924,0.16520026558730266,9.80097486720635
3465000000.0,22.35,0.0,0.0,0.0,0.03924,0.14783676730346768,9.809313232696534
3470000000.0,22.35,0.0,0.0,0.0,0.03982866740058667,0.15754866740058665,9.799601332599414
3475000000.0,22.35,0.0,0.0,0.0,0.04855943250229433,0.16578886500458864,9.790870567497706
3480000000.0,22.35,0.0,0.0,0.0,0.03884753240517532,0.14715,9.800582467594825
3485000000.0,22.35,0.0,0.0,0.0,0.029724367691943678,0.1474443676919437,9.80911689692417
3490000000.0,22.35,0.0,0.0,0.0,0.03924,0.1567637322109373,9.78057
3495000000.0,22.35,0.0,0.0,0.0,0.038847328455273285,0.14724816788618167,9.780766335772364
3500000000.0,22.35,0.0,0.0,0.0,1.3596660135966602e-07,0.15696006798330067,9.800189864033399
3505000000.0,22.35,0.0,0.0,0.0,0.019423936160839362,0.16667196808041967,9.780766063839161
3510000000.0,22.35,0.0,0.0,0.0,0.038847736355077364,0.1571561318224613,9.809411604532617
3515000000.0,22.35,0.0,0.0,0.0,0.03924,0.15696,9.81
3520000000.0,22.35,0.0,0.0,0.0,0.010986994884669948,0.15696,9.791164663256447
3525000000.0,22.35,0.0,0.0,0.0,0.019129568468895686,0.11968172612441727,9.799699568468895
3530000000.0,22.35,0.0,0.0,0.0,0.047284405698044055,0.15460587426405872,9.809411468566015
3535000000.0,22.35,0.0,0.0,0.0,0.02167989401059894,0.17520673732626735,9.800876631336866
3540000000.0,22.35,0.0,0.0,0.0,0.02864526876025269,0.16755473123974732,9.791164731239748
3545000000.0,22.35,0.0,0.0,0.0,0.02050283114262831,0.16677,9.79038
3550000000.0,22.35,0.0,0.0,0.0,0.03727813790898138,0.1579409310455093,9.808038137908982
3555000000.0,22.35,0.0,0.0,0.0,0.01304709284517093,0.17442193810321938,9.80126903094839
3560000000.0,22.35,0.0,0.0,0.0,0.01844286914872869,0.15068139255381394,9.80019
3565000000.0,22.35,0.0,0.0,0.0,0.01962,0.13008046150830463,9.808724769245849
3570000000.0,22.35,0.0,0.0,0.0,0.044930008028900084,0.14440333868593339,9.81
3575000000.0,22.35,0.0,0.0,0.0,0.015695722239657227,0.17216570832025707,9.81
3580000000.0,22.35,0.0,0.0,0.0,0.0015695304627953034,0.15185859138838592,9.785278591388387
3585000000.0,22.35,0.0,0.0,0.0,0.016284739268647392,0.17157710890297106,9.796854739268648
3590000000.0,22.35,0.0,0.0,0.0,0.027664269731442696,0.1604914605371146,9.808234269731443
3595000000.0,22.35,0.0,0.0,0.0,0.03737616982856169,0.17285233965712338,9.794107660342878
3600000000.0,22.35,0.0,0.0,0.0,0.023543860148638598,0.1373396503715965,9.806076139851362
3605000000.0,22.35,0.0,0.0,0.0,0.01962,0.15077991006839908,9.8177499700228
3610000000.0,22.35,0.0,0.0,0.0,0.01962,0.1493081298800813,9.812158129880082
3615000000.0,22.35,0.0,0.0,0.0,0.027173770217037704,0.16225754043407542,9.81
3620000000.0,22.35,0.0,0.0,0.0,0.02943,0.15931432968584328,9.795088659371688
3625000000.0,22.35,0.0,0.0,0.0,0.04414514082255141,0.1496024295887243,9.79038
3630000000.0,22.35,0.0,0.0,0.0,0.04905,0.1544094705083947,9.79038
3635000000.0,22.35,0.0,0.0,0.0,0.02040451757794518,0.15696,9.804702741211027
3640000000.0,22.35,0.0,0.0,0.0,0.016873270702632705,0.1640232707026327,9.81
3645000000.0,22.35,0.0,0.0,0.0,0.040515512399255126,0.14587448760074487,9.81
3650000000.0,22.35,0.0,0.0,0.0,0.021581716412517167,0.15794121269061212,9.81
3655000000.0,22.35,0.0,0.0,0.0,0.023347941987979418,0.1735389709939897,9.81
3660000000.0,22.35,0.0,0.0,0.0,0.009417386726673867,0.14989651563556514,9.789987386726674
3665000000.0,22.35,0.0,0.0,0.0,0.019718313564683135,0.15048554237645542,9.78057
3670000000.0,22.35,0.0,0.0,0.0,0.02943,0.15696,9.799994013856042
3675000000.0,22.35,0.0,0.0,0.0,0.035806571382465714,0.1633365713824657,9.81
3680000000.0,22.35,0.0,0.0,0.0,0.026683057040830568,0.14793458556124583,9.81
3685000000.0,22.35,0.0,0.0,0.0,0.025800371576703715,0.15588111473011115,9.81
3690000000.0,22.35,0.0,0.0,0.0,0.03551227167382272,0.15460545665235456,9.81
3695000000.0,22.35,0.0,0.0,0.0,0.03924,0.15911834354188345,9.81
3700000000.0,22.35,0.0,0.0,0.0,0.033353928131939284,0.16088392813193927,9.81
3705000000.0,22.35,0.0,0.0,0.0,0.017854056069640564,0.16853594393035942,9.80421202803482
3710000000.0,22.35,0.0,0.0,0.0,0.02687961618689616,0.17658,9.794500127937702
3715000000.0,22.35,0.0,0.0,0.0,0.028056455681164556,0.16539645568116454,9.795971772159419
3720000000.0,22.35,0.0,0.0,0.0,0.025113672256536722,0.17344101676961016,9.805683672256537
3725000000.0,22.35,0.0,0.0,0.0,0.03482557235365572,0.1648077105853771,9.799208855292688
3730000000.0,22.35,0.0,0.0,0.0,0.02864505509845055,0.14715,9.80097494490155
3735000000.0,22.35,0.0,0.0,0.0,0.0404174901915749,0.14195062745210626,9.799601254904212
3740000000.0,22.35,0.0,0.0,0.0,0.0384549094199491,0.15264381793503817,9.795481272645013
3745000000.0,22.35,0.0,0.0,0.0,0.029626345484263454,0.16677,9.795186827257869
3750000000.0,22.35,0.0,0.0,0.0,0.04414507283925073,0.1716750728392507,9.79038
3755000000.0,22.35,0.0,0.0,0.0,0.03943605412726055,0.1621590811908908,9.79999394587274
3760000000.0,22.35,0.0,0.0,0.0,0.02943,0.14715,9.795873380899534
3765000000.0,22.35,0.0,0.0,0.0,0.02943,0.14715,9.78057
3770000000.0,22.35,0.0,0.0,0.0,0.03845534645545347,0.15166267322772672,9.78057
3775000000.0,22.35,0.0,0.0,0.0,0.0358062800254628,0.17461829329938294,9.776155426675155
3780000000.0,22.35,0.0,0.0,0.0,0.01962,0.17893410631214107,9.766443526578035
3785000000.0,22.35,0.0,0.0,0.0,0.02805674703816747,0.1696151205572512,9.756731626480915
3790000000.0,22.35,0.0,0.0,0.0,0.03924,0.18226972638379726,9.747019726383797
3795000000.0,22.35,0.0,0.0,0.0,0.03924,0.17255782628667826,9.74133
3800000000.0,22.35,0.0,0.0,0.0,0.027467778568677784,0.16677,9.749178147620881
3805000000.0,22.35,0.0,0.0,0.0,0.017461947815119477,0.1591180521848805,9.776253895630239
3810000000.0,22.35,0.0,0.0,0.0,0.025702125995321262,0.15087787400467872,9.803917874004679
3815000000.0,22.35,0.0,0.0,0.0,0.02324977410179774,0.1388111294910113,9.81
3820000000.0,22.35,0.0,0.0,0.0,0.03296167419891674,0.12203669679566698,9.81
3825000000.0,22.35,0.0,0.0,0.0,0.028939277111892772,0.14715,9.81
3830000000.0,22.35,0.0,0.0,0.0,0.023151897572618974,0.1404790512136905,9.820006423179464
3835000000.0,22.35,0.0,0.0,0.0,0.04581262550972626,0.12429262550972626,9.83943
3840000000.0,22.35,0.0,0.0,0.0,0.04551854917478549,0.12399854917478549,9.836290725412608
3845000000.0,22.35,0.0,0.0,0.0,0.05886,0.13734,9.832661174684512
3850000000.0,22.35,0.0,0.0,0.0,0.05297385043673851,0.14028307478163074,9.830600775655109
3855000000.0,22.35,0.0,0.0,0.0,0.0449299497574995,0.14430502512125026,9.81284497487875
3860000000.0,22.35,0.0,0.0,0.0,0.0533662500482625,0.14008687497586875,9.811569375072395
3865000000.0,22.35,0.0,0.0,0.0,0.033942449854024496,0.14715,9.787731224927013
3870000000.0,22.35,0.0,0.0,0.0,0.024721350340213503,0.15990337585053377,9.783120675170107
3875000000.0,22.35,0.0,0.0,0.0,0.03924,0.19374742473277426,9.787927424732775
3880000000.0,22.35,0.0,0.0,0.0,0.041594475364344755,0.18168104927131049,9.771152098542622
3885000000.0,22.35,0.0,0.0,0.0,0.044537249077072495,0.16902637546146376,9.74809912638439
3890000000.0,22.35,0.0,0.0,0.0,0.027271724441417247,0.17226344888283449,9.759968622207085
3895000000.0,22.35,0.0,0.0,0.0,0.01755982434429824,0.15902017565570176,9.725830351311403
3900000000.0,22.35,0.0,0.0,0.0,0.00981,0.16480792424717924,9.743292075752821
3905000000.0,22.35,0.0,0.0,0.0,0.007946024150060241,0.15882397584993974,9.758595903399758
3910000000.0,22.35,0.0,0.0,0.0,0.003531751894117519,0.16677,9.788614124052941
3915000000.0,22.35,0.0,0.0,0.0,0.01962,0.16843777604417776,9.782237776044179
3920000000.0,22.35,0.0,0.0,0.0,0.02275935228259352,0.17030129543481293,9.791949676141298
3925000000.0,22.35,0.0,0.0,0.0,0.04071157623841576,0.13734,9.795775271284754
3930000000.0,22.35,0.0,0.0,0.0,0.04905,0.14008695267106952,9.772133476335535
3935000000.0,22.35,0.0,0.0,0.0,0.04905,0.15823537643265376,9.784396129297962
3940000000.0,22.35,0.0,0.0,0.0,0.051404553059545534,0.16912455305954555,9.808822723470227
3945000000.0,22.35,0.0,0.0,0.0,0.07082835325378353,0.1831524701193247,9.798031646746217
3950000000.0,22.35,0.0,0.0,0.0,0.08730892327598923,0.15597892327598922,9.776645693103958
3955000000.0,22.35,-0.0006707883917620411,0.0005749614786531805,0.0,0.07759702317887023,0.14273511589435117,9.732500231788702
3960000000.0,22.35,-0.0073673754908039615,0.006728626723146171,0.0,0.06396073849050737,0.10280926150949263,9.647939261509494
3965000000.0,22.35,-0.006089769393040716,0.0106465084371654,0.0,0.00981,0.1590203310461033,9.706210662092207
3970000000.0,22.35,-0.0020015268485980083,0.010518733598330403,0.0,0.008632645775026457,0.18756735422497353,9.763893385562433
3975000000.0,22.35,5.324092152037426e-05,0.008144520299089665,0.0,-0.00981,0.2074817316288173,9.80901884558079
3980000000.0,22.35,0.0009368675728467418,0.0006387066074839608,0.0,-0.008240090773100906,0.23426256807982568,9.789987522693275
3985000000.0,22.35,-0.002352937167515927,-0.009454065890544271,0.0,0.02913562259615623,0.20424373557693737,9.779392490384625
3990000000.0,22.35,-0.009603159021277811,-0.005174144223779629,0.0,0.01922744499807445,0.14616861249518612,9.740348612495186
3995000000.0,22.35,-0.010635853507233511,0.0020973368976373355,0.0,0.0,0.09859088799040888,9.692672710392328
4000000000.0,22.35,-0.009581866025483566,-0.0010646930038903327,0.0,1.55390401553904e-07,0.14715015539040155,9.731520388476003
4005000000.0,22.35,-0.010635870371303044,-0.0063347147329874225,0.0,0.019423955584639555,0.16657395558463955,9.7800798889616
4010000000.0,22.35,-0.007516409597294134,-0.0063879050622992,0.0,0.03884775577887756,0.13792836633168365,9.847867145226072
4015000000.0,22.35,-0.006419836123955798,-0.001224306151999496,0.0,0.04875577798655778,0.15637155597311556,9.84924
4020000000.0,22.35,-0.007409978346461981,-0.005152943980367814,0.0,0.04905,0.14754232191632322,9.839822321916323
4025000000.0,22.35,-0.005429702333484382,-0.0022889738597855337,0.0,0.04905,0.1378304218192042,9.848749578180795
4030000000.0,22.35,-0.010327155660425575,0.0008730391776726118,0.0,0.04905,0.09123260861042608,9.858461478277915
4035000000.0,22.35,-0.012626776018108231,7.45170532450842e-05,0.0,0.021679864874898647,0.07916662162496621,9.877296756750066
4040000000.0,22.35,-0.006898886369152451,0.003917949170297269,0.0,0.01962,0.09653055694430557,9.905745835416457
4045000000.0,22.35,-0.0005748602942359819,0.0013520809908344907,0.0,0.010692821430728213,0.11595435713854357,9.943808714277088
4050000000.0,22.35,0.0,-0.0008517377498436023,0.0,0.027468157332781573,0.11772,9.894365528001655
4055000000.0,22.35,0.0009475477988829296,-0.0010646508437165,0.0,0.03816097876350978,0.13518195752701956,9.905941957527018
4060000000.0,22.35,0.0010646508437165,-0.0001277495427306919,0.0,0.04787287886062879,0.15460575772125756,9.847669847975599
4065000000.0,22.35,0.00013839604062781345,0.0009262548030886865,0.0,0.014910884169008848,0.12282088416900885,9.80529088416901
4070000000.0,22.35,0.000915608305191565,0.004727084064482932,0.0,0.02668335810973358,0.1430300371646004,9.80019
4075000000.0,22.35,0.00015968903642205653,0.007133177833171587,0.0,0.021091420848014207,0.1388114208480142,9.775174262544041
4080000000.0,22.35,0.0008943153093973219,0.00476960997782365,0.0,0.03610095849820959,0.15382095849820956,9.746038562252686
4085000000.0,22.35,0.0028319884667169838,0.0007239281288652154,0.0,0.014812861961328621,0.21395665542356657,9.716902861961328
4090000000.0,22.35,0.002320930217546439,-0.0026190669408093182,0.0,0.00981,0.2175857205566572,9.67972288222663
4095000000.0,22.35,-0.0013202015753908292,-0.0006068250840316472,0.0,0.041594718161847184,0.21582,9.640875281838152
4100000000.0,22.35,-0.004684489640859667,0.0017034586356176715,0.0,0.0412019203624192,0.1922757610872576,9.609875761087258
4105000000.0,22.35,-0.007005419858406129,0.0029703845073447933,0.0,0.03924,0.19413997973469982,9.6194899594694
4110000000.0,22.35,-0.0074525559060157,0.004854825175178863,0.0,0.016284360504543606,0.1885481201681812,9.631261879831818
4115000000.0,22.35,-0.00909213555425072,0.004503464394465152,0.0,0.024917559857875596,0.1712824401421244,9.648527559857875
4120000000.0,22.35,-0.007963570941008025,0.001022030069984626,0.0,0.007062959921829599,0.1965927201042272,9.63067295992183
4125000000.0,22.35,-0.009049549562662232,0.0,0.0,0.007357580123175801,0.2133675801231758,9.660397900615878
4130000000.0,22.35,-0.01352110924557948,-0.003939251652130681,0.0,0.0025505197797051973,0.21582,9.67266
4135000000.0,22.35,-0.01569505669099543,-0.00687766188364067,0.0,0.014322760634827606,0.2086586196825862,9.72995104253931
4140000000.0,22.35,-0.0175203306175318,-0.0020866545635925124,0.0,0.012556719585467195,0.14244047626920475,9.779393121658131
4145000000.0,22.35,-0.01736060679896636,0.0060472866938781475,0.0,-0.011085541534955414,0.06896373641843737,9.818240722046607
4150000000.0,22.35,-0.018542395469659842,0.004045620716706368,0.0,-0.04022124182631242,0.055917080608770806,9.815885838782458
4155000000.0,22.35,-0.018446550638477104,-0.011840480205862185,0.0,-0.04228101929411019,0.09270490352944905,9.850613884235338
4160000000.0,22.35,-0.01376082119476782,-0.017392546292657723,0.0,0.027468808030088082,0.10791,9.875530880803009
4165000000.0,22.35,-0.010997834435735643,-0.009193599645455049,0.0,0.05228721909987219,0.13420112360051123,9.87867
4170000000.0,22.35,-0.009241151742667066,-0.010242002649326771,0.0,0.05552468099724681,0.18599808598348086,9.923992766980728
4175000000.0,22.35,-0.010593302297788402,-0.01763137785447833,0.0,0.11624922984929231,0.12949102686761027,10.004729229849293
4180000000.0,22.35,-0.015129256289819714,-0.010013868799647219,0.0,0.13459303761703037,0.00039126331921263136,9.991680631659607
4185000000.0,22.35,-0.01502865451240041,0.006473218282058527,0.0,0.09044771226837711,-0.07995190644301907,9.923697330979772
4190000000.0,22.35,-0.009879906834350926,0.01343590248025911,0.0,0.04434087445710874,-0.055524030299940304,9.946948251085782
4195000000.0,22.35,0.0009902402449103878,0.011242677537260772,0.0,0.01746163703431637,0.030411814828418145,9.928896548137265
4200000000.0,22.35,0.010859500581364215,0.0095818575934488,0.0,0.03924040789980408,0.13930297895952978,9.880631755260117
4205000000.0,22.35,0.02390120434772506,0.003928481835725073,0.0,0.05307201832292019,0.3021496335415963,9.793616238197963
4210000000.0,22.35,0.028422302304010837,-0.0037050381844330863,0.0,0.0774994088709941,0.3882798817741988,9.695810945806409
4215000000.0,22.35,0.01448657853953585,0.0033218527965017865,0.0,0.11487534561395346,0.33648218128682184,9.606932181286822
4220000000.0,22.35,-0.007207000504897972,0.019003269582700474,0.0,0.06160581637875817,0.22837581637875815,9.526294226220942
4225000000.0,22.35,-0.02290753549579279,0.020298971708289506,0.0,-0.022563492393334925,0.14960208967222088,9.539244656524446
4230000000.0,22.35,-0.024823773366731514,0.01080350767177565,0.0,-0.07023992865069928,0.12753,9.638129785952097
4235000000.0,22.35,-0.02068229938680753,0.002437987940193215,0.0,-0.09348938225979382,0.10673247096082471,9.744273822597938
4240000000.0,22.35,-0.013082191477199353,-0.0027255329737848498,0.0,-0.10320128235691282,0.12399897649838976,9.820987694141477
4245000000.0,22.35,-0.004194670633261732,-0.010240294367463595,0.0,-0.07288772282177722,0.16196318245403182,9.81922090527581
4250000000.0,22.35,-0.005323325890878165,-0.01811655347184886,0.0,-0.024524752346547524,0.15695983489769835,9.765854587244245
4255000000.0,22.35,-0.013763912917810536,-0.021289195089130384,0.0,0.01422491324134913,0.12311508675865088,9.72210206940692
4260000000.0,22.35,-0.020160683176104983,-0.017767370817033955,0.0,0.05807553098155531,0.09339111725461118,9.720925530981555
4265000000.0,22.35,-0.018864153605268164,-0.011274625462986878,0.0,0.07386921715749217,0.09751156568501565,9.750551565685015
4270000000.0,22.35,-0.016382385642071465,-0.010561354372062253,0.0,0.09123341469813415,0.13047341469813414,9.797051463517015
4275000000.0,22.35,-0.015234052157876123,-0.012669363063701108,0.0,0.1309637491102375,0.15254541696325416,9.843844583036747
4280000000.0,22.35,-0.009368882313319511,-0.009624362426702681,0.0,0.15578296626772967,0.12125110119681101,9.81470813492908
4285000000.0,22.35,-0.00821914064476064,0.0012351033725181357,0.0,0.14567808384508085,0.08829,9.73701293415213
4290000000.0,22.35,-0.009752183641728925,0.012996161258024757,0.0,0.1053591500156915,0.1006508499843085,9.688159716671898
4295000000.0,22.35,-0.010263270349016723,0.02136374797852316,0.0,0.06817908287389082,0.12174218342522183,9.70660310055133
4300000000.0,22.35,-0.0127758101245984,0.024078553296076326,0.0,0.011771415343614151,0.13145408352234084,9.772722668178726
4305000000.0,22.35,-0.009869249796410354,0.0192807358811622,0.0,-0.033255983619459834,0.1488179508583795,9.835113934477839
4310000000.0,22.35,-0.005727830624712431,0.008325469657171208,0.0,-0.046695767433157676,0.15931423256684232,9.847866348850264
4315000000.0,22.35,-0.00875148451169493,-0.00011713888098132817,0.0,-0.06248978381369784,0.13989043237260432,9.836879567627395
4320000000.0,22.35,-0.014698510510871596,-0.0032791519184395355,0.0,-0.051011580445915805,0.10633989653509897,9.842176632178367
4325000000.0,22.35,-0.017743880723262734,-0.0068138018683362,0.0,-0.01962,0.05493566396825664,9.826186415992064
4330000000.0,22.35,-0.015597970864728692,-0.011759734349787197,0.0,-0.012949031789890316,0.04610742052527421,9.816474515894946
4335000000.0,22.35,-0.012424466207954276,-0.014576080545353028,0.0,0.009712152606521526,0.09466692101086921,9.797050463191304
4340000000.0,22.35,-0.01034836960589383,-0.010689067024640862,0.0,0.04512642149646422,0.14636570579575706,9.780177852897879
4345000000.0,22.35,-0.006132352222616148,-0.006866952145482837,0.0,0.08456236879282368,0.1924723687928237,9.797148815603588
4350000000.0,22.35,-0.004790974645913453,-0.002235739262291294,0.0,0.10692925348059254,0.1942376620258766,9.775664577532346
4355000000.0,22.35,-0.010683573830450616,0.0,0.0,0.11615006163740062,0.14685510786545108,9.73279504622805
4360000000.0,22.35,-0.01837210736553621,0.0008943342814755745,0.0,0.09103688468776884,0.08436557656115577,9.714646884687768
4365000000.0,22.35,-0.023929492839477512,0.0034814174604109937,0.0,0.08485607607556077,0.04375243043022431,9.727007569569775
4370000000.0,22.35,-0.020714210422381585,0.005642695531687514,0.0,0.041397945353979455,0.04218342441003425,9.759184794174049
4375000000.0,22.35,-0.014651992806613074,0.008783341793047322,0.0,0.017167415020874148,0.08093258497912584,9.824715509874755
4380000000.0,22.35,-0.010390983001595347,0.004854752448878976,0.0,0.00981,0.0929989701524897,9.86886
4385000000.0,22.35,-0.008357462905084215,0.0,0.0,0.00981,0.10565361482663616,9.855321688959817
4390000000.0,22.35,-0.0042586033748661,0.00023423243977578628,0.0,0.007651714729517147,0.11104971162289712,9.788417147295172
4395000000.0,22.35,-0.004482189316744786,0.0012882367855951648,0.0,0.002060185367601854,0.15696,9.7119
4400000000.0,22.35,-0.00596207255052735,0.0017034227994699135,0.0,0.00981,0.16677042732360425,9.706013743605837
4405000000.0,22.35,-0.009326378534070005,-0.00020229294608442165,0.0,0.015401956685519566,0.20601,9.68433398556184
4410000000.0,22.35,-0.013928830558774499,-0.0014479437400911183,0.0,0.03924,0.20071234302312344,9.701109428294794
4415000000.0,22.35,-0.019724168330288172,-0.0037369523820201525,0.0,0.032568856975688565,0.16156992819529928,9.74133
4420000000.0,22.35,-0.023056534820139543,-0.00604719815751307,0.0,0.003139371706393717,0.0804415707340157,9.747608743412787
4425000000.0,22.35,-0.0266337243854334,-0.003779482511378278,0.0,0.01814841404968414,0.0318820702484207,9.784984757850948
4430000000.0,22.35,-0.02633560347223576,-0.000915590387117686,0.0,0.00843651395256514,-0.00843651395256514,9.816867430237174
4435000000.0,22.35,-0.023397111028386722,-0.0006920697935084881,0.0,-0.0012753861445538614,0.0051015445782154455,9.853948455421785
4440000000.0,22.35,-0.015218516634902765,-0.004939951836168964,0.0,-0.006278141274981412,0.052190148658401485,9.817455427516654
4445000000.0,22.35,-0.008176406038559365,-0.0027149065019702687,0.0,0.025015931693959315,0.15794186338791863,9.795873254644833
4450000000.0,22.35,0.0027680546711082786,-0.0069201835809640415,0.0,0.07161325930773259,0.24917434574364344,9.758987827128177
4455000000.0,22.35,-0.0020229305148485987,-0.001745989818980175,0.0,0.09898298653302987,0.2747771481366715,9.734266107735762
4460000000.0,22.35,-0.013331003613515703,0.0028107534411617096,0.0,0.10163090695880908,0.16716136043821359,9.66285
4465000000.0,22.35,-0.032404188431929895,0.010348368551889534,0.0,0.0273696398181964,0.0547392796363928,9.669717867272679
4470000000.0,22.35,-0.03796155282578433,0.006451793535721041,0.0,-0.0017660604731606047,-0.002354747297547473,9.768014241892642
4475000000.0,22.35,-0.03142455884876888,0.007239588003916815,0.0,-0.02943,-0.036787065392470654,9.882104108450541
4480000000.0,22.35,-0.020500457805407813,0.0029383796653840006,0.0,-0.028645025962750262,0.0137348701862487,9.94655502596275
4485000000.0,22.35,-0.000968803904525069,-0.003353697429801991,0.0,-0.009515612884256128,0.10879316134723162,9.924776128842563
4490000000.0,22.35,0.0020653942419329337,-0.0085172067497323,0.0,0.0013740104900401048,0.1387140104900401,9.827853415084235
4495000000.0,22.35,-0.0011605546991426093,-0.008431958878242425,0.0,0.06867,0.20581362538003625,9.740642688830127
4500000000.0,22.35,-0.010646603453065362,1.8972078224748812e-08,0.0,0.06866982518579824,0.18638930074319301,9.67266
4505000000.0,22.35,-0.02120392567102703,0.0021080276637169817,0.0,0.04924602499156025,0.108694099966241,9.67266
4510000000.0,22.35,-0.032787510840426255,0.007346138357240042,0.0,0.02020833719598337,0.09829611239866112,9.730343325608033
4515000000.0,22.35,-0.029923466939539765,-0.0008092107824984778,0.0,0.0005884246030842429,0.060036849206168495,9.82667787698458
4520000000.0,22.35,-0.021651082211245704,-0.006175022534552323,0.0,0.028253063386730635,0.049442312204423126,9.904961502364614
4525000000.0,22.35,-0.015225322340963706,-0.0063879050622992,0.0,0.010790824214608242,0.06768917578539176,9.917419587892695
4530000000.0,22.35,-0.008900423757794013,-0.007388686404672083,0.0,0.037474463969444635,0.05022702402037024,9.853359584071296
4535000000.0,22.35,-0.009507341594208062,-0.0005216119946851823,0.0,0.03924,0.06729677617386776,9.794499671478398
4540000000.0,22.35,-0.014479299326342183,0.003917953386314652,0.0,0.03924,0.06867,9.709152406343524
4545000000.0,22.35,-0.01685867816265175,0.00522744522354771,0.0,0.030312811718828117,0.09545156484351566,9.74672594140586
4550000000.0,22.35,-0.018968257493553395,0.0014904728154449317,0.0,0.02943,0.10692908837829089,9.812943618648037
4555000000.0,22.35,-0.017286070773643046,0.00011710199082922454,0.0,0.020699011524590114,0.10791,9.88092691932787
4560000000.0,22.35,-0.015162703027004315,-0.006558316484931254,0.0,0.010987111427471113,0.09927711142747112,9.897112888572527
4565000000.0,22.35,-0.010273832526566164,-0.005600044191829636,0.0,0.04394915467859155,0.07249563399105634,9.81294211330352
4570000000.0,22.35,-0.010497466952644797,-0.002576426140994796,0.0,0.04905,0.06867,9.71582311233233
4575000000.0,22.35,-0.014266359882360642,0.002395512619061031,0.0,0.07406576659165766,0.08534717772777177,9.685412822272228
4580000000.0,22.35,-0.0149051118120315,0.007665534348158106,0.0,0.04551804415598044,0.0800495110389951,9.674229511038996
4585000000.0,22.35,-0.014021441946526953,0.009400876615236847,0.0,0.014812832825628328,0.11919194529061947,9.680802389058124
4590000000.0,22.35,-0.018219889664837622,0.004343717387804089,0.0,-0.006278578310485783,0.1436185783104858,9.730735734931457
4595000000.0,22.35,-0.0183187916097073,-0.00198030868711238,0.0,-0.025702378504723785,0.13125762149527623,9.773114757009449
4600000000.0,22.35,-0.013843902983654443,-0.006600874018402407,0.0,0.01765853609688536,0.15107426804844268,9.78057
4605000000.0,22.35,-0.018677185502239235,-0.00577038815818358,0.0,0.021680010553400103,0.13371003166020032,9.7573200316602
4610000000.0,22.35,-0.0202458193231342,-0.002831942090525729,0.0,0.03492377908743779,0.10457433136884332,9.705228662737687
4615000000.0,22.35,-0.02516456459186526,-0.0004897199311893661,0.0,0.024132420718324204,0.0754386310774863,9.684726210359162
4620000000.0,22.35,-0.029061157526107564,0.00566401066157302,0.0,0.0121643102620431,0.04630293078612931,9.675014310262043
4625000000.0,22.35,-0.029827676916583,0.005057062259032904,0.0,-0.004905179670151798,0.03924,9.731520718680606
4630000000.0,22.35,-0.028251974147722094,0.0003193464527137648,0.0,0.011968469796584696,0.0537589798643898,9.79469693959317
4635000000.0,22.35,-0.02458955568301653,-0.00961390459558343,0.0,0.012458609970686098,0.0731827800586278,9.895936680351767
4640000000.0,22.35,-0.01729473821423262,-0.0127758101245984,0.0,0.0309998703792987,0.0855432901264329,9.913593419747134
4645000000.0,22.35,-0.013393288030553254,-0.0127758101245984,0.0,0.07406595111775952,0.0813248097764481,9.87327404888224
4650000000.0,22.35,-0.015023823768580835,-0.008304217767546463,0.0,0.08829,0.03727745807597458,9.804113277434633
4655000000.0,22.35,-0.02259878600277188,-0.00124557279768515,0.0,0.10182798083557981,0.0331579808355798,9.726418076657682
4660000000.0,22.35,-0.02484510114466911,0.0061324576230507655,0.0,0.07455554742545548,0.012556437940364377,9.682077328455273
4665000000.0,22.35,-0.02664440039545224,0.012083836245485442,0.0,0.02599604693986047,0.026291162448111624,9.692378371836083
4670000000.0,22.35,-0.021374260617868415,0.010327063962047469,0.0,0.016284690709146905,0.09751221638232217,9.773311597800616
4675000000.0,22.35,-0.014645008317224775,0.0015968777161685212,0.0,0.025996590806265908,0.15941295403132955,9.892895680481457
4680000000.0,22.35,-0.0127758101245984,-0.0075803929311071515,0.0,0.035708490903384904,0.13890905457969055,9.92497301819323
4685000000.0,22.35,-0.01614050539859868,-0.009305028622041106,0.0,0.03924,0.049735698994457,9.856106089994961
4690000000.0,22.35,-0.024717451732351285,-0.0019162726530821761,0.0,0.03315770890237709,-0.038848328780983286,9.728575633535657
4695000000.0,22.35,-0.033958601367009664,0.0092732177168799,0.0,0.005493235221032355,-0.02678066163680661,9.654707426415776
4700000000.0,22.35,-0.03791903323646961,0.015128533933988844,0.0,0.001962182583721826,0.01765827387558274,9.70797700421047
4705000000.0,22.35,-0.026409959262815974,0.007810917435430597,0.0,-0.007553974166939741,0.02943,9.71641205166612
4710000000.0,22.35,-0.016881502799548028,-0.005280787329485323,0.0,-0.013930108513901085,0.14891772120807723,9.794698046749781
4715000000.0,22.35,-0.006267492685722433,-0.01733192709881398,0.0,0.02933254108252542,0.17393029258460294,9.902410749499309
4720000000.0,22.35,-0.007878565490517749,-0.017595631625386323,0.0,0.06435369168033692,0.08907415823764159,9.872783083196632
4725000000.0,22.35,-0.02662606977390508,-0.005642510026922723,0.0,0.06867,0.015695265780352657,9.71091698089597
4730000000.0,22.35,-0.03679050340537032,0.005664022255620833,0.0,0.04748003250170032,0.006867459372874592,9.6138
4735000000.0,22.35,-0.040665882394144356,0.01297675757365976,0.0,0.02423060802830608,0.02423060802830608,9.676192703660327
4740000000.0,22.35,-0.03148831240963451,0.010441855765417018,0.0,0.009417415862374157,0.01962,9.73152
4745000000.0,22.35,-0.019702837390337492,0.0004364168234126352,0.0,0.0,0.09466788248897882,9.81157107465491
4750000000.0,22.35,-0.015446093624712536,-0.009581957723861653,0.0,0.01962036905220369,0.10790889284338895,9.922815645841357
4755000000.0,22.35,-0.017979978802566868,-0.012296667127019333,0.0,0.03443300763983008,0.020208045838980462,9.93792203055932
4760000000.0,22.35,-0.030125889528158756,-0.003960390763290442,0.0,0.034138892457288926,-0.0051011075427110746,9.851985505597955
4765000000.0,22.35,-0.035214790096465914,0.0016289057462248293,0.0,0.03924,-0.036886340435263405,9.80362396277204
4770000000.0,22.35,-0.0340862802914492,0.003513398060271838,0.0024487472165553377,0.030214614696946144,-0.03786576613625766,9.81608192204542
4775000000.0,22.35,-0.027857942001067917,0.003992390335229472,0.0034068424369268994,0.010790814502708143,0.005395407251354072,9.786946221754063
4780000000.0,22.35,-0.01414820589152176,-0.0012776313938675742,0.0005961943961996939,0.012949478537294785,0.017265971383059714,9.783709478537295
4785000000.0,22.35,-0.008676954810397708,-0.004716413324485827,0.0,0.03786678588576786,0.04767678588576786,9.80019
4790000000.0,22.35,-0.0117111592808819,-0.0053232542185827,-0.00044716345172256293,0.04905,0.06298029304000292,9.80019
4795000000.0,22.35,-0.016083484834772982,-0.0022676355418045284,-0.0001916169360656172,0.04100561372575614,0.052581227451512266,9.80019
4800000000.0,22.35,-0.0236527323783523,0.00170343123150468,0.0006387803877881801,0.02550590676575907,0.02550590676575907,9.772721347360314
4805000000.0,22.35,-0.0255690735417169,-0.0001810210303770949,0.0004152239580311983,0.027271986662719863,0.031097979994079802,9.7506499666568
4810000000.0,22.35,-0.021927876400510058,-0.0009155693070307697,0.0006600733835824232,0.03924,0.04905,9.769386319714563
4815000000.0,22.35,-0.015586827101404188,0.002640374692664395,0.0,0.03924,0.052679793525597936,9.73299103237201
4820000000.0,22.35,-0.016444533021265317,0.00723967654028194,0.0007665689286796674,0.025113225509132253,0.07298677449086775,9.687963225509133
4825000000.0,22.35,-0.021044358311631234,0.009155956571394482,0.002129301687433,0.0,0.0981,9.66285
4830000000.0,22.35,-0.028124337383456342,0.004215956251025588,0.002129301687433,0.0033354938169549383,0.07808703709827038,9.672856481450864
4835000000.0,22.35,-0.03725900095905661,-0.0024594147945393497,0.0014266117461360617,0.00657260608592606,0.02952781825777818,9.705229575656295
4840000000.0,22.35,-0.039835343833708195,-0.0074525559060157,0.0,0.0,0.01608858802238588,9.747216470055966
4845000000.0,22.35,-0.03324511420519414,-0.0074525559060157,-0.000330051974854226,0.003041194108311941,0.035512388216623884,9.777528805891688
4850000000.0,22.35,-0.02503669700064782,-0.005536123044273014,-0.00010643441284518662,0.015696188410861883,0.04905,9.767816905794568
4855000000.0,22.35,-0.024398059957450646,-0.0010646508437165,0.001511783729313034,0.02943,0.03482502848725029,9.763794994302549
4860000000.0,22.35,-0.032851316047504714,-0.0022571007683680018,-0.0005962249623257227,0.026683105600331058,0.0,9.754278633601986
4865000000.0,22.35,-0.03601332908496298,-0.004460856268785426,-0.0012669037376357804,0.027566383490363833,0.0,9.722495177987152
4870000000.0,22.35,-0.038898522637052665,-0.0015756627166957633,0.0010646508437165,0.04905,0.002550694593906946,9.771545556751255
4875000000.0,22.35,-0.03754628249156191,0.0,0.0010646508437165,0.04169221592692216,0.007357405308974052,9.832072594691025
4880000000.0,22.35,-0.028507499583292125,-0.002810791385318223,0.0008091243541421247,0.026683484364434844,0.004708989576289895,9.865329442669594
4885000000.0,22.35,-0.026718855262440937,-0.012939573665361297,0.0,0.046793605114736056,0.010594420458944202,9.951852789770529
4890000000.0,22.35,-0.02414247233562422,-0.01470569196084252,0.0004684669875602642,0.050031474911914744,-0.01962,9.945377050176171
4895000000.0,22.35,-0.027751659364848497,-0.0019161651446388418,0.0023528886833160314,0.08210941476149414,-0.01962,9.842077463966474
4900000000.0,22.35,-0.0319569786040161,0.01618624562778272,0.003406893029135489,0.05101161929351619,-0.0235441903532419,9.735443714470136
4905000000.0,22.35,-0.03256386060428242,0.019486507870968305,0.003449427374511011,0.015892009452520093,-0.03364801417878014,9.72494796691618
4910000000.0,22.35,-0.033426103615440836,0.00845315174362381,0.0,-0.0035317907417179075,-0.01510768611257686,9.79822895370859
4915000000.0,22.35,-0.024664068520244244,-0.007835913096655446,0.0,-0.014616613596066134,-0.03423661359606613,9.887008977339889
4920000000.0,22.35,-0.020416173829531606,-0.013712630267249632,-0.0005110635191922246,0.011379695565096954,-0.008240304434903045,9.926150304434904
4925000000.0,22.35,-0.02067163813284956,-0.005695767812512561,-0.002235704480147882,0.02256319132443191,-0.002943191324431913,9.907608830364488
4930000000.0,22.35,-0.017648112834397253,0.004556726396072433,0.0031939525311496,0.03511951272199512,-0.01962,9.84099902544399
4935000000.0,22.35,-0.022556205281205097,0.005557414986062945,0.0029171225057375103,0.011085395856453958,-0.01706920828709208,9.780176833148369
4940000000.0,22.35,-0.030764559245490673,-0.0002555370296178334,0.0009368823289075832,0.023151887860718878,0.002354591907145919,9.70365892832499
4945000000.0,22.35,-0.029124944815112207,-0.0014265695859622181,0.0,0.04905,0.017461607898616078,9.641071607898617
4950000000.0,22.35,-0.022373271163825304,0.0044715544128954565,0.0,0.04708780770437808,0.004905480739054808,9.631458769182487
4955000000.0,22.35,-0.012967468166833513,0.005717101914476317,0.0,0.030312996244929964,0.05081599248985993,9.70827097371451
4960000000.0,22.35,-0.015843516002263164,-0.0019164760759208372,-0.00017036504644086104,0.03688531097385311,0.06239082926360829,9.775469378052293
4965000000.0,22.35,-0.02737908463866652,-0.011189407103618716,-0.002054765662109691,0.013243982195839821,-0.007749610682496107,9.81931805341248
4970000000.0,22.35,-0.03747190140487737,-0.0032363709360470707,-0.0009368717888641251,0.05768260692742607,0.018442606927426067,9.680115213854853
4975000000.0,22.35,-0.040048241117515954,0.013202627197380601,0.0012243799323037026,0.03727761346637613,0.0,9.64077701683297
4980000000.0,22.35,-0.0319569786040161,0.02075601695183816,0.0041308137799702625,-0.0015699869220998693,0.0015699869220998693,9.598497464035775
4985000000.0,22.35,-0.03186112850281163,0.006813555231319223,0.0010966008774513228,-0.038356809517068095,0.03865120634471206,9.70356198413822
4990000000.0,22.35,-0.028848240216217312,-0.013968631421633635,0.0020866946157575973,-0.00941740615047406,0.01922740615047406,9.75114
4995000000.0,22.35,-0.03303228648567328,-0.02011776016230723,1.0657037940579736e-05,0.01049737915317379,0.0,9.751434591065646
5000000000.0,22.35,-0.034086364611796864,-0.007452408345407286,0.0010646403036730417,0.0784793201669932,-5.827140058271401e-07,9.780570291357003
5005000000.0,22.35,-0.04251839937835219,0.00730365249606441,1.0635957853663298e-05,0.010496019487160196,-0.058271983296719836,9.80970599164836
5010000000.0,22.35,-0.04679406499284723,0.006409187518049985,0.0010433683879657151,0.00981,-0.030018308060283085,9.858069486566194
5015000000.0,22.35,-0.04791226559863629,-0.006004757618524309,0.0010646508437165,0.00981,-0.0674931896414319,9.849534202589641
5020000000.0,22.35,-0.03975083608061419,-0.011498282023156753,4.257545154502792e-05,0.038063092522430925,-0.05925230249252303,9.811569209970093
5025000000.0,22.35,-0.03232953225011116,-0.0036197281266868112,0.0010114288942743505,0.0765183904183839,-0.049540402395404026,9.76340201197702
5030000000.0,22.35,-0.02995541381126155,0.002810741847113961,0.002065433240093729,0.06003700459657005,-0.0859359908068599,9.81627898621029
5035000000.0,22.35,-0.028837541018102895,-0.0007665910627709226,0.002129301687433,0.04061320440233204,-0.05179640880466409,9.892797182390671
5040000000.0,22.35,-0.03757843067811374,-0.008900566048380663,-0.0017886559148989436,0.05729059579190596,-0.07612589368785894,9.89829
5045000000.0,22.35,-0.036407197860943576,-0.008613014690762935,-0.00019161588206127126,0.08564159397921593,-0.06062560401385604,9.907217197993072
5050000000.0,22.35,-0.03525738557409347,0.003939346512521806,0.0,0.05297360763923608,-0.10300549045095492,9.881612705729427
5055000000.0,22.35,-0.031360731507599125,0.013851203380607559,0.0,0.04031900181269002,-0.09044800362538002,9.896131996374619
5060000000.0,22.35,-0.02714471412432143,0.008346787949069739,0.002810710226983587,0.021974203431142033,-0.07965710171557101,9.881024203431142
5065000000.0,22.35,-0.02385495365214118,0.0009687575283338782,-0.0005110751132399996,0.002550403236904031,-0.06141040323690403,9.818926411329164
5070000000.0,22.35,-0.021608551027883203,-0.005493662479201711,-0.00014904043051624334,0.01687339695733397,-0.03354990456399905,9.77625320608533
5075000000.0,22.35,-0.02221543408215392,-0.001863085485783355,0.0,0.04463579572735796,-0.04610719715157197,9.745744204272642
5080000000.0,22.35,-0.025058073262785426,0.005195571078125763,0.002682952252218124,0.04080950132709501,-0.016088005308380053,9.74133
5085000000.0,22.35,-0.02822008630024366,0.008155246901317068,0.0005429397726228412,0.031097601229976013,-0.017952398770023987,9.74133
5090000000.0,22.35,-0.024397903964807486,0.005898133484896907,0.001746048843223541,0.02138570113285701,-0.011575701132857009,9.725241402265715
5095000000.0,22.35,-0.020852638083139773,0.0010113646000092938,0.0038540575348623785,0.02756619896426199,-0.01775619896426199,9.729656198964262
5100000000.0,22.35,-0.023652745026404392,-0.0008517314258175274,0.0008516776715959103,0.02943,0.011772396245523967,9.700127603754476
5105000000.0,22.35,-0.030392017193443376,0.0022996888679652017,0.0008410849279204059,0.021680000841500006,-0.011379996633999967,9.6690300025245
5110000000.0,22.35,-0.03444829389408603,0.004854829391196247,-0.0005962260163300686,0.004316201488762014,-0.004316201488762014,9.639894302233143
5115000000.0,22.35,-0.0367905149994181,0.0012242945579517325,0.0005749330205358256,0.0,-0.02266139805821398,9.63342
5120000000.0,22.35,-0.0372802328225988,-0.008900599776519757,0.00025550540948745875,0.0,-0.021974300550143006,9.700521295048713
5125000000.0,22.35,-0.04047422856792662,-0.01250965821721382,0.0,0.04414559728185597,-0.026977599546975997,9.75849799773488
5130000000.0,22.35,-0.041538836197465,-0.008048695493989464,0.0007878524384347981,0.05160050035590501,-0.05120849893228499,9.74172200142362
5135000000.0,22.35,-0.0392072183758519,0.0037157721646908885,0.0010646508437165,0.04905,-0.05886,9.753004199223641
5140000000.0,22.35,-0.04372336631303948,0.008219115348656327,0.0010646508437165,0.020796800646668008,-0.080049899514999,9.76095
5145000000.0,22.35,-0.0458148928648511,0.0009580773022977527,0.0010646508437165,-0.004120399870904,-0.067394400193644,9.76095
5150000000.0,22.35,-0.04431214248842325,-0.008091433262203776,0.0010646508437165,0.024525500162855,-0.065727100032571,9.740348699902286
5155000000.0,22.35,-0.0436681378848981,-0.008442648590317691,0.0017992707926656904,0.05277800025938,-0.08897700038907,9.765365000648451
5160000000.0,22.35,-0.041496217531741826,-0.00383268865075522,0.0006813547853288622,0.03217639909276399,-0.11811270068042701,9.833937201814472
5165000000.0,22.35,-0.03833420449428352,-0.0007026477811231053,0.0,0.03933840097178401,-0.10781159902821599,9.931350803563209
5170000000.0,22.35,-0.03657755236734097,-0.0035134022762892607,0.0014053609105156516,0.042575299578952994,-0.10457470042104701,9.941061198315813
5175000000.0,22.35,-0.03898371780832525,-0.0053232542185827,0.0007452337727115914,0.03924,-0.13979300259083002,9.908590198445502
5180000000.0,22.35,-0.041836960272675666,-0.0019163169212646587,0.0006813874594635827,0.05179700123057001,-0.14440299876942997,9.91084700123057
5185000000.0,22.35,-0.04059126415648205,0.0033537048078324315,0.0024061327668494854,0.04649919857519198,-0.14352040071240402,9.924090400712403
5190000000.0,22.35,-0.03676915665535442,0.004663159754913299,0.0025338580674801985,0.020993097571430974,-0.14715,9.921637699190477
5195000000.0,22.35,-0.029955347408987774,-0.0009369803513117666,0.0014798537216607819,0.01579420090664201,-0.12919739728007398,9.893973196373432
5200000000.0,22.35,-0.027272525853308555,-0.010646618053617305,0.0004258493758414034,0.03139220200752202,-0.129492202007522,9.902214404015043
5205000000.0,22.35,-0.026442065289193992,-0.011764336962141507,0.0,0.06239200440352004,-0.12576399779824,9.8889699944956
5210000000.0,22.35,-0.02742159895795952,-0.0003192305122357089,-0.0006175084720808535,0.07848,-0.11203009880200099,9.851790296406003
5215000000.0,22.35,-0.028156164098682768,0.013073335335274345,-0.00045778886953276804,0.06729639740976398,-0.10791,9.789103788343938
5220000000.0,22.35,-0.02889080618172322,0.013337019801206598,0.0005962154762866104,0.03688519443105195,-0.09692259721552597,9.718177791646578
5225000000.0,22.35,-0.02807096998141448,0.005482874744722213,0.0004790818653270111,0.030411202978712026,-0.07749879702128797,9.676093195531932
5230000000.0,22.35,-0.0220343445414943,-0.002470078156506046,0.0005749224804923673,0.044537501586475015,-0.04747999365409993,9.625767488894676
5235000000.0,22.35,-0.0181165176357011,-0.0018736972015371287,0.0005003748611212542,0.04905,-0.02943,9.599379401683594
5240000000.0,22.35,-0.02143829454388995,0.0065583375650182015,0.0,0.043948698219286986,-0.02432869821928698,9.644800414245704
5245000000.0,22.35,-0.027219337632005416,0.007388610516359231,0.0010859659736020054,0.019227192488671923,-0.01962,9.677466798122168
5250000000.0,22.35,-0.029827676916583,0.002129257419250525,0.0015969651985291188,0.0,-0.01962,9.643229388150294
5255000000.0,22.35,-0.03660964679967117,0.0005216899910067596,0.0015863408347232596,0.00480700207207002,-0.014812997927929977,9.59937899378379
5260000000.0,22.35,-0.04417918137800774,0.0005536073506068619,0.001618258194323362,0.00039219566162195657,-0.028645608676756085,9.607914510845944
5265000000.0,22.35,-0.044232391733402085,-0.001000793990425033,0.0015650478389290165,-0.023642406798924064,-0.053660802266308025,9.684138824929388
5270000000.0,22.35,-0.04317838738758266,-0.004578054174010067,0.00114980069280221,-0.021189190546291904,-0.04983459527314595,9.72779189290972
5275000000.0,22.35,-0.04452775720277955,-0.010806283901943749,0.0,0.0,-0.06572761476327615,9.716314602460546
5280000000.0,22.35,-0.0515641187237793,-0.016318163947767503,0.0,0.025899015345990154,-0.10241650255766503,9.760558523018986
5285000000.0,22.35,-0.058441674152981106,-0.015819957519160772,0.0,0.054641597345215974,-0.12900201327392014,9.85218402654784
5290000000.0,22.35,-0.05786669581025842,-0.006962671550148417,0.0,0.04905,-0.16520060550380605,9.92046090825571
5295000000.0,22.35,-0.056269786473959575,0.0023742048672059026,0.0,0.041005594301955946,-0.18864660854706608,9.941552202849023
5300000000.0,22.35,-0.057100180635800336,-0.0008518547443260478,0.0,0.02943,-0.20601,9.95126410294614
5305000000.0,22.35,-0.05687662631405205,-0.011008556821945643,0.0,0.048560015216300156,-0.22131401217304011,9.9762800152163
5310000000.0,22.35,-0.05185532051313686,-0.012477640727200888,0.0,0.09339161256151612,-0.2564337094211371,9.987560484298106
5315000000.0,22.35,-0.0426034870411815,-0.004971818603560479,0.0,0.10683059028750591,-0.2674203935250039,9.949890393525004
5320000000.0,22.35,-0.04030377393111635,0.001831221880404895,0.0,0.09182170333461703,-0.24799659333076593,9.944593406669235
5325000000.0,22.35,-0.033979747856199845,0.002821313510702507,0.0,0.0981,-0.23200639656826397,9.939981982841319
5330000000.0,22.35,-0.028017714303833253,0.0050252418678326275,0.0,0.09142899294228993,-0.21895899294228993,9.878080468240304
5335000000.0,22.35,-0.02380173064869467,0.011700546511123879,0.0,0.06876778912207789,-0.19629778912207788,9.800385578244155
5340000000.0,22.35,-0.021353022430300156,0.013499761441559274,0.0,0.045910696276906963,-0.16716208883072087,9.757810696276906
5345000000.0,22.35,-0.01620528051429922,0.011455598009164082,0.0,0.030116388539363884,-0.14410879617978797,9.745057592359576
5350000000.0,22.35,-0.0095818575934488,0.00915601981165523,0.0,0.00686689608266896,-0.1226244804133448,9.710918272578683
5355000000.0,22.35,-0.010199377659577485,0.007558908106521997,0.0,-0.00284500401445004,-0.0825999919710999,9.64862497992775
5360000000.0,22.35,-0.014100954669353547,-0.0014905676758360919,0.0,-0.007063095888430958,-0.06317619177686191,9.624787616446277
5365000000.0,22.35,-0.0202458193231342,-0.0035984519949621326,0.0,0.005297608417376084,-0.03580597895655979,9.65304
5370000000.0,22.35,-0.021629922019999075,0.003279215158700291,0.0,0.017069295694192955,0.0,9.647938591388387
5375000000.0,22.35,-0.02956168416385469,0.007984813344593694,0.0,0.002452186791221868,-0.009810417611704177,9.628514791194148
5380000000.0,22.35,-0.04204989128462246,0.00012762200820485214,0.0,-0.017265495499954955,-0.041594504500045044,9.62321801800018
5385000000.0,22.35,-0.044406795465314744,-0.009826738639130422,0.0,-0.005297190805671907,-0.05130640459716405,9.646270786208508
5390000000.0,22.35,-0.04805071644749004,-0.009241101150458467,0.0,0.014126609388566094,-0.06317660938856609,9.62361
5395000000.0,22.35,-0.0535443262264745,-0.0049293675245281905,0.0,0.02943,-0.08672081916560818,9.638031433539814
5400000000.0,22.35,-0.05880364454143983,-0.008517263665966914,0.0,0.03531631466556315,-0.12753052444260524,9.711901048885212
5405000000.0,22.35,-0.06026223899544548,-0.011562039800039682,0.0,0.05886,-0.16863400498564005,9.79597201495692
5410000000.0,22.35,-0.06361590058909979,-0.005429662281319205,0.0,0.057094094917240955,-0.1836436203310362,9.826873620331037
5415000000.0,22.35,-0.0671079097391819,-0.0012456529020153703,0.0,0.04738219482012195,-0.22082341553963417,9.86738902589939
5420000000.0,22.35,-0.06727826529958367,-0.0017885905666295025,0.0,0.04080970527699705,-0.25309852638498526,9.91280911583099
5425000000.0,22.35,-0.06737401527037533,0.0003194181250092543,0.0,0.04905,-0.2913567892517679,9.939001605374116
5430000000.0,22.35,-0.06180586841206321,0.0012349262997879526,0.0,0.04767649452876495,-0.2774270109424701,9.951460516413706
5435000000.0,22.35,-0.05442783799132727,-0.005227515841838827,0.0,0.03924,-0.2943,9.97677
5440000000.0,22.35,-0.04653663471224296,-0.010816772299189027,0.0,0.04512652832736528,-0.2990092226618922,9.97677
5445000000.0,22.35,-0.036332705049798436,-0.003087372665704657,0.0,0.08829,-0.3281439711870397,9.975690794237408
5450000000.0,22.35,-0.03738670939561783,0.0069202879273943165,0.0,0.08436557656115576,-0.2825277882805779,9.964016682420867
5455000000.0,22.35,-0.03719492276485258,0.011423669055516197,0.0,0.0446349702158497,-0.26487,9.93223196425902
5460000000.0,22.35,-0.025313522810042566,0.007920921709158842,0.0,0.003924530269745303,-0.2609454697302547,9.872390751568407
5465000000.0,22.35,-0.02215150977258432,0.0010646508437165,0.0,0.04767638769786388,-0.21582,9.79675596924466
5470000000.0,22.35,-0.018732887022823025,0.0009368696808554335,0.0,0.030018706248187064,-0.21346517500725176,9.749962587503626
5475000000.0,22.35,-0.011444938863214831,-0.0010646508437165,0.0,0.04022121269061212,-0.17461757461877572,9.729557574618775
5480000000.0,22.35,-0.006600892990480659,-0.0006812725729898764,0.0,0.05846749355757494,-0.13655498711514985,9.689532454903025
5485000000.0,22.35,-0.012031193946597192,0.00867696218842815,0.0,0.04787237384182374,-0.11624796730227968,9.62213796730228
5490000000.0,22.35,-0.022502948549619584,0.013670024249578618,0.0,0.00981,-0.06886630663666306,9.573774773453348
5495000000.0,22.35,-0.0287630260728665,0.005344570402472551,0.0,0.009711793266217931,-0.07828358653243586,9.535516413467565
5500000000.0,22.35,-0.02876310723120113,0.0074525559060157,0.0,-1.0683090106830901e-07,-0.05886,9.554940320492703
5505000000.0,22.35,-0.03614113765193707,0.0074525559060157,0.0,-0.00971200692802007,-0.05886,9.58407602078406
5510000000.0,22.35,-0.03934569030479258,0.0001489698122250768,0.0,-0.02903781405027814,-0.04924609297486093,9.661281256201113
5515000000.0,22.35,-0.04457314923039679,-0.014458121217021636,0.0,-0.01991419287774193,-0.08711322848903227,9.681881614244517
5520000000.0,22.35,-0.05803653788047742,-0.0149051118120315,0.0,0.008633121658131213,-0.10712541443875415,9.720140828877508
5525000000.0,22.35,-0.07072786236879443,-0.0068136722258016445,0.0,0.00981,-0.16382764389897644,9.786947251215473
5530000000.0,22.35,-0.0743688634651929,-0.0023847712607727124,0.0,0.037474522240845215,-0.21287753706807538,9.854930551895306
5535000000.0,22.35,-0.08051751911342407,-0.00014902778246409345,0.0,0.030116592489265924,-0.25231363004293633,9.849926592489266
5540000000.0,22.35,-0.07802735263625481,-0.005876942727524173,0.0,0.02040469239214692,-0.30921184564711846,9.894366538039264
5545000000.0,22.35,-0.06709870525745998,-0.015123383360326011,0.0,0.04640162311491623,-0.3228472077049721,9.951853246229833
5550000000.0,22.35,-0.05933587668391351,-0.019820005783440536,0.0,0.07553732340627323,-0.3502173234062732,9.95715
5555000000.0,22.35,-0.06143335587213759,-0.012649878013656376,0.0,0.13086604739526048,-0.40554604739526046,9.99207403159684
5560000000.0,22.35,-0.0571001332056048,-0.00046830572489540284,0.0,0.12007418400734185,-0.40338709200367096,9.98775709200367
5565000000.0,22.35,-0.052756369441609434,0.009400972529632365,0.0046312898255087935,0.09211557571965576,-0.40221,9.909766727158967
5570000000.0,22.35,-0.04211606176384683,0.0106465084371654,0.002576419816968721,0.08829,-0.3768998754282988,9.856106459047165
5575000000.0,22.35,-0.03413943056859588,0.008836578498550353,0.002129301687433,0.06327417513694175,-0.3561027834246278,9.84924
5580000000.0,22.35,-0.018712533905166362,0.010305843692553104,0.0003406647446122814,0.05886,-0.32019796646077964,9.84924
5585000000.0,22.35,-0.009787025707879822,0.0106465084371654,0.0,0.01000554910845549,-0.2732079575903796,9.792243140626532
5590000000.0,22.35,-0.012009308652196847,0.005408355583468456,0.0,0.0,-0.23269276568382766,9.716215531367656
5595000000.0,22.35,-0.01450056808003647,0.005120982352585176,-0.0008623789777189946,0.0,-0.20973758264767584,9.670305165295352
5600000000.0,22.35,-0.0149051118120315,0.006174986698404573,0.002342279075571072,0.015696217546562176,-0.1589213473603135,9.615761347360314
5605000000.0,22.35,-0.019965415998365866,0.005546819080374448,0.0006706945853752664,-0.011380035481600357,-0.13164998225919983,9.60399
5610000000.0,22.35,-0.018819151714767734,0.0053232542185827,0.00166087896805526,-0.02727190896751909,-0.10457427309744274,9.634597635870078
5615000000.0,22.35,-0.01729672464957059,-0.0004152966843310136,0.002129301687433,-0.02943,-0.0981,9.673445236258553
5620000000.0,22.35,-0.02433418518608531,-0.009411620081533787,0.002129301687433,-0.04434141832351418,-0.0981,9.697381418323515
5625000000.0,22.35,-0.04020822422115044,-0.018112249367348298,0.002129301687433,-0.012261953705619534,-0.0981,9.731520437035504
5630000000.0,22.35,-0.05735136023866498,-0.01867011233825584,0.001341448194993856,0.021778528067985282,-0.13439754677997548,9.75584901871199
5635000000.0,22.35,-0.06567069049330947,-0.008777292602925318,0.00339627182734264,0.050914228359342284,-0.19011845671868455,9.753788590546886
5640000000.0,22.35,-0.07094071222240654,-0.0037901332252928263,0.002725482381576226,0.05179669044976691,-0.2271999286506993,9.779393238200933
5645000000.0,22.35,-0.0724311639577646,-0.006973522524888639,0.002129301687433,0.06298041929470419,-0.24937041929470422,9.832171257884113
5650000000.0,22.35,-0.07019536145521256,-0.012243544253985729,0.0006387666857316846,0.06867,-0.2962626584668266,9.876708438977884
5655000000.0,22.35,-0.06997183242956853,-0.00869811394764004,0.0014692420059070723,0.10251504920795049,-0.34099603936636036,9.895249009841589
5660000000.0,22.35,-0.07102583677538798,0.0022997889983780474,0.0006813526773201707,0.1110490900612909,-0.3931854596322546,9.878277270183872
5665000000.0,22.35,-0.0677998730782515,0.009241217090936506,0.0014266560143185861,0.0881915698925157,-0.3988743799283438,9.835995949820859
5670000000.0,22.35,-0.06534057738620316,0.007835782400116582,0.002129301687433,0.07200528986705289,-0.4118241303988413,9.813335289867053
5675000000.0,22.35,-0.058058257938098046,0.00154365998274372,0.0007452316647029,0.0814232204601322,-0.42183,9.822753220460132
5680000000.0,22.35,-0.04410010160906464,0.0023422917236232063,0.0,0.06317595869125958,-0.4029944690184447,9.85473404130874
5685000000.0,22.35,-0.031637463510607075,0.00828305546829113,0.0006707420155708069,0.0366891791513918,-0.37385876872708773,9.837957947878479
5690000000.0,22.35,-0.026378184193802567,0.011966699472512771,0.0017247463613901852,0.011183068435730685,-0.3568876894785769,9.813727689478577
5695000000.0,22.35,-0.0255690735417169,0.014074708164151588,0.002778750707209625,-0.01795263185562632,-0.3411915787629158,9.798031578762917
5700000000.0,22.35,-0.0255690735417169,0.009155889115116339,0.001916347487390655,-0.02354388928433889,-0.30999555713735555,9.760949446421694
5705000000.0,22.35,-0.024940917517734522,0.0009261620507063362,0.00043649481973417924,-0.01383198918721989,-0.2711479567488796,9.723965967561659
5710000000.0,22.35,-0.022034384593659445,-0.003981830265688714,0.0,-0.00412008909010089,-0.2493700890901009,9.728969732729697
5715000000.0,22.35,-0.01842523023856991,-0.0053232542185827,0.0,0.00559181100701811,-0.22288275597192755,9.780472677049127
5720000000.0,22.35,-0.019436732913148482,-0.008900553400328548,0.0,0.01530371110413711,-0.2005162888958629,9.826481133312411
5725000000.0,22.35,-0.030094020652758548,-0.012882299345669625,0.0,0.03580683360376834,-0.21238683360376834,9.823243166396232
5730000000.0,22.35,-0.041304697564075954,-0.01039091976133456,0.001149847068993426,0.07024004519350045,-0.2203324887016249,9.815297511298375
5735000000.0,22.35,-0.04925625546463447,-0.002938339613218861,0.0026935787240326445,0.07789117720901176,-0.23141823418648236,9.799012354418025
5740000000.0,22.35,-0.05548197092567683,0.002171911921121492,0.0015330609150421381,0.058467377014773766,-0.25035131149261314,9.770367377014773
5745000000.0,22.35,-0.055354115982511554,-0.0011499197952933408,0.0,0.044046788410267886,-0.2750728463589285,9.76095
5750000000.0,22.35,-0.050605761056325665,-0.009049617018940389,0.0,0.05886044674740447,-0.2943,9.785475558434255
5755000000.0,22.35,-0.05055264977733982,-0.00964566385453167,-0.0005216910450111053,0.1073220707038207,-0.30391402356794023,9.80519298821603
5760000000.0,22.35,-0.05531162695932289,-0.0017885041382732008,-0.0005536062966025162,0.1137954405945544,-0.33275564752435643,9.80489891188109
5765000000.0,22.35,-0.06002804239181745,0.010207728466894408,0.0,0.08829,-0.3577708119782081,9.768502692196128
5770000000.0,22.35,-0.06578781567223434,0.020075523840980155,0.0014692546539592682,0.047675591322055906,-0.36297,9.712684575849346
5775000000.0,22.35,-0.06540437099923391,0.018534426401982534,0.0031939525311496,-0.004414612172446122,-0.37179922434489227,9.70209
5780000000.0,22.35,-0.055566960566102004,0.00775049974648331,0.0013201183090475654,-0.018443024539130243,-0.38259,9.736622098156522
5785000000.0,22.35,-0.04442321970401796,-0.003662496461027138,-0.0006068387860881238,-0.02943,-0.37837158763331585,9.789006824733368
5790000000.0,22.35,-0.03610905586765904,-0.007175710070538494,0.0,-0.017069062608590625,-0.36041906260859063,9.791949375072395
5795000000.0,22.35,-0.03258511038589853,-0.004450216094914393,0.0017460762473365731,0.00804442512184425,-0.34335,9.776547787439078
5800000000.0,22.35,-0.036641576807323425,-0.002342207403275537,0.002980985683055025,0.02746822531608225,-0.34335,9.751139436709794
5805000000.0,22.35,-0.04492062306770697,-0.00023419871163672006,0.001895102975796319,0.023935948979359488,-0.34717601275516013,9.73318803826548
5810000000.0,22.35,-0.0452545929840597,0.0006600712755737315,0.0019802138267212568,-0.0037279128522791287,-0.3457041742954417,9.773507477113675
5815000000.0,22.35,-0.040239888619707544,-0.003151464561965286,0.0003939330702456469,0.008339064746990647,-0.32628037410120375,9.835408690645787
5820000000.0,22.35,-0.03583229540653374,-0.010433639611474999,0.0006813642713679746,0.03570828695348287,-0.31745171304651715,9.899860278279103
5825000000.0,22.35,-0.035896211284068544,-0.015709770194251606,-0.0007452801489028076,0.03629722628727226,-0.3305972262872723,9.93753
5830000000.0,22.35,-0.0401821157559603,-0.018095187749754722,-0.0003193338046615548,0.06239205296302053,-0.34335,9.91751692055547
5835000000.0,22.35,-0.05038240488739436,-0.011413944137550019,0.0021399112951780846,0.09476482667574826,-0.3530622400136224,9.859245519972754
5840000000.0,22.35,-0.05863325209088595,0.0012777041201674877,0.0,0.10163137313001373,-0.37278,9.81981
5845000000.0,22.35,-0.05547123905342772,0.009177314915458167,0.0003300540828629176,0.08829,-0.3758212135321121,9.80460393233944
5850000000.0,22.35,-0.05167041084603786,0.008730062927370533,0.0007452432587507038,0.08534688637076886,-0.38847622725846226,9.785475568146156
5855000000.0,22.35,-0.04639532745977569,0.0042586033748661,0.0,0.07278997254729973,-0.3936749588209496,9.825500027452701
5860000000.0,22.35,-0.042305372452009944,0.0042586033748661,0.0,0.05336617235306172,-0.3782738276469383,9.831189258529593
5865000000.0,22.35,-0.04355582542804633,0.005121007648689421,-0.00028746809127443146,0.033942372158823716,-0.39504881392058816,9.799404744317648
5870000000.0,22.35,-0.0490088453960007,0.008559842279524991,-0.00078782925033919,0.01962,-0.40221,9.755455715893756
5875000000.0,22.35,-0.04767360639244431,0.010646458898961096,0.0005323501909603768,0.017167385885173858,-0.39485215765552156,9.714352614114826
5880000000.0,22.35,-0.04341260928731501,0.0056638557229341845,0.0016182444922668662,0.00981,-0.3798435426358354,9.717000971576109
5885000000.0,22.35,-0.041623958642437696,-0.0009795283987438042,0.0007346462990578588,0.005297171381871713,-0.39544075707280757,9.715628485854385
5890000000.0,22.35,-0.03787641246273773,-0.003087425365921959,0.002959716929360754,-0.00981,-0.37278,9.763108314406182
5895000000.0,22.35,-0.035991992874990573,0.0006174726359330956,0.0012349452718661911,-0.011870214503302143,-0.3707197854966979,9.760458927483489
5900000000.0,22.35,-0.037067414589117005,-0.0017034786617002619,-0.0012775312634546773,-0.015695770799157707,-0.35708365619873655,9.72171
5905000000.0,22.35,-0.04493840116635301,-0.004663195591061037,0.002129301687433,0.001864014697540147,-0.33540401469754016,9.72357401469754
5910000000.0,22.35,-0.046581491305652485,-0.007729452333701617,0.0017460024670323247,0.01687365917863659,-0.3468818295893183,9.738583659178635
5915000000.0,22.35,-0.04953048690280762,-0.012935445406798887,0.0003620062246064321,0.0523856297835563,-0.36297,9.774095629783556
5920000000.0,22.35,-0.047049900322973716,-0.007665423677701795,0.0019589450730269054,0.06710028501110285,-0.3614002850111029,9.796658859955588
5925000000.0,22.35,-0.04810390466879317,-0.003034242414640612,0.001224360960225473,0.06033161508601615,-0.35904646034406457,9.83403484525805
5930000000.0,22.35,-0.04960509987044814,-0.001831174450209297,0.001831174450209297,0.06592296963372969,-0.39102648481686486,9.857676484816865
5935000000.0,22.35,-0.05395953437444057,0.0,0.0,0.05287624584076246,-0.38896707640127076,9.847964584719746
5940000000.0,22.35,-0.058335161743814375,0.0006388531140880657,0.0002555412456352167,0.07730268462262684,-0.42928536924525373,9.837075369245253
5945000000.0,22.35,-0.05669564955185749,0.005089005968741715,0.0018950534375920263,0.06759078452550785,-0.41309921547449213,9.817651569051016
5950000000.0,22.35,-0.05763240434623927,0.003300430158172965,0.00010647762702336525,0.057878884428388844,-0.4257544622864446,9.804114462286446
5955000000.0,22.35,-0.0490088453960007,0.0040669411166136035,0.0010646508437165,0.04905,-0.4584209529938095,9.84119603133746
5960000000.0,22.35,-0.0490088453960007,0.0019589324249747555,0.0009794662124873778,0.047480168468301685,-0.4339947472975475,9.859834915765848
5965000000.0,22.35,-0.0489343072626687,0.00029815253332800946,7.453813333200063e-05,0.028743184137031842,-0.4596963682740637,9.865425920685158
5970000000.0,22.35,-0.047751472242119966,0.004578061552040507,0.0010007592082816208,0.020797431920174317,-0.4438048638403487,9.816277704239477
5975000000.0,22.35,-0.04478690673725954,0.009422122180835522,5.324513753775754e-05,0.037768151828381516,-0.4797087678855877,9.759968767885587
5980000000.0,22.35,-0.04564379996793379,0.006132313224455376,0.0010646508437165,0.009417483845674838,-0.46028496769134963,9.740937483845675
5985000000.0,22.35,-0.041251266921773354,-0.00022366499220460723,0.0010326987019729855,0.00117766500577665,-0.4408611674971117,9.731814416251444
5990000000.0,22.35,-0.03197828424786249,-0.0074525559060157,0.0,0.038454734605747345,-0.42202631634856314,9.741133683651437
5995000000.0,22.35,-0.03303228859368197,-0.0073992601762693415,-1.0659145949271375e-05,0.0002946493370464934,-0.4314435671086357,9.731618216445682
6000000000.0,22.35,-0.03408629293950135,-0.0021292637432765503,-0.00106463819566435,0.029430116542801168,-0.4120198834571988,9.741330466171204
6005000000.0,22.35,-0.035140297285320726,0.0010327492941815848,-1.0633849844971649e-05,0.03914201663992016,-0.40230798336007983,9.780178066559682
6010000000.0,22.35,-0.045601740529270456,2.128034774209319e-05,0.0,0.029626083262960835,-0.41182391673703916,9.770956083262961
6015000000.0,22.35,-0.048913064859083054,0.0,0.0,0.02943,-0.3929883663316837,9.77076
6020000000.0,22.35,-0.0490088453960007,-0.0010220775001801637,0.0,0.02943,-0.40181771693127716,9.780177716931277
6025000000.0,22.35,-0.045974552389151484,-0.003087512848282679,0.0,0.03874961702839617,-0.4208492340567923,9.761930765943207
6030000000.0,22.35,-0.04881724637800895,-0.00419473703553552,-0.0010007845043859206,0.03924,-0.4126084828744848,9.797836068502061
6035000000.0,22.35,-0.045032061599447185,-0.006238879387843791,-7.45128372277009e-05,0.07573366889053668,-0.42114341722263415,9.809313417222635
6040000000.0,22.35,-0.051605286526602345,-0.0054084135537075225,-0.0009794915085916775,0.060429365360493655,-0.43988063463950633,9.800974682680247
6045000000.0,22.35,-0.061891248034096305,0.0004898158455848168,-0.002033495854411056,0.06778721741687217,-0.4682316522506165,9.764481130332511
6050000000.0,22.35,-0.05901651231312588,0.007772040433298811,0.0017034923637567374,0.042182647458026475,-0.4620508824860088,9.805095587569957
6055000000.0,22.35,-0.0585907029894496,0.0056745507050312725,0.0011817496725326873,0.030508982388889827,-0.4698010176111102,9.81
6060000000.0,22.35,-0.053906175404433467,0.00251253766757295,0.0010646508437165,0.020797082291770824,-0.48814583541645834,9.827265835416458
6065000000.0,22.35,-0.04863615367533638,-0.005280770465415733,0.00013839182461043026,0.04522445341604454,-0.4990348178053482,9.82962
6070000000.0,22.35,-0.04243550938369899,-0.0036410674986722693,0.0,0.057486717902467184,-0.5087467179024672,9.804309846292599
6075000000.0,22.35,-0.04517353579929133,-0.00047905446121403487,0.0,0.050521382000413825,-0.5267972359991724,9.80019
6080000000.0,22.35,-0.04760353191568059,0.002682958576244199,0.0,0.040809481903294816,-0.4967779276131793,9.80019
6085000000.0,22.35,-0.04351134297162201,0.00496129858618485,0.0,0.03109758180617582,-0.5067848363876484,9.80019
6090000000.0,22.35,-0.0426034870411815,0.00270417462972115,0.0,0.013341363418113636,-0.5020756817090568,9.77605704512717
6095000000.0,22.35,-0.04087872697773482,0.000404541623986319,0.0,0.02570243677612437,-0.4764713448358135,9.77076
6100000000.0,22.35,-0.031105116481659693,-0.004258667669131255,0.0,0.045126236970362374,-0.4787281184851812,9.802152473940724
6105000000.0,22.35,-0.0296041131087956,-0.0053232542185827,0.0,0.025799944253099442,-0.4651899628353996,9.7944999628354
6110000000.0,22.35,-0.037301641758871094,-0.0053232542185827,0.0,0.027271918679419187,-0.4534180813205808,9.775076162641161
6115000000.0,22.35,-0.04268871067057147,-0.0036836661383129144,0.0,0.06719909388269094,-0.45126,9.778313818776539
6120000000.0,22.35,-0.046917992767656326,-0.0007665099044363256,0.0,0.04120140563171405,-0.4661714377473144,9.758202843379028
6125000000.0,22.35,-0.0479441945522842,0.00319400417736252,0.0,0.04414523794155238,-0.45616476205844764,9.758497618970775
6130000000.0,22.35,-0.043204151625320715,0.0018950397355355568,0.0,0.02001192372841924,-0.4730385572036856,9.811766633475266
6135000000.0,22.35,-0.04387046034310418,-0.0020441813504690452,0.0,0.024132838330028383,-0.48069,9.858265676660057
