#timestamp [ns], temperature [degC], w_RS_S_x [rad s^-1], w_RS_S_y [rad s^-1], w_RS_S_z [rad s^-1], a_RS_S_x [m s^-2], a_RS_S_y [m s^-2], a_RS_S_z [m s^-2]
0,21.34,0.0,0.0,0.0,0.59841,-0.14715,9.80019
5050505,21.34,0.0,0.0,0.0,0.59841,-0.17658,9.80019
10101010,21.34,0.0,0.0,0.0,0.60822,-0.14715,9.84924
15151515,21.34,0.0,0.0,0.0,0.6180300000000001,-0.17658,9.84924
20202020,21.34,0.0,0.0,0.0,0.59841,-0.16677000000000003,9.80019
25252525,21.34,0.0,0.0,0.0,0.5886,-0.16677000000000003,9.79038
30303030,21.34,0.0,0.0,0.0,0.59841,-0.17658,9.80019
35353535,21.34,0.0,0.0,0.0,0.59841,-0.15696000000000002,9.84924
40404040,21.34,0.0,0.0,0.0,0.60822,-0.15696000000000002,9.81
45454545,21.34,0.0,0.0,0.0,0.6180300000000001,-0.16677000000000003,9.78057
50505050,21.34,0.0,0.0,0.0,0.59841,-0.17658,9.80019
55555555,21.34,0.0,0.0,0.0,0.60822,-0.21582,9.819809999999999
60606060,21.34,0.0,0.0,0.0,0.6180300000000001,-0.14715,9.83943
65656565,21.34,0.0,0.0,0.0,0.60822,-0.15696000000000002,9.81
70707070,21.34,0.0,0.0,0.0,0.6180300000000001,-0.14715,9.81
75757575,21.34,0.0,0.0,0.0,0.60822,-0.16677000000000003,9.80019
80808080,21.34,0.0,0.0,0.0,0.60822,-0.16677000000000003,9.80019
85858585,21.34,0.0,0.0,0.0,0.57879,-0.14715,9.82962
90909090,21.34,0.0,0.0,0.0,0.6180300000000001,-0.17658,9.82962
95959595,21.34,0.0,0.0,0.0,0.60822,-0.17658,9.819809999999999
101010100,21.34,0.0,0.0,0.0,0.59841,-0.15696000000000002,9.81
106060605,21.34,0.0,0.0,0.0,0.6180300000000001,-0.15696000000000002,9.81
111111110,21.34,0.0,0.0,0.0,0.63765,-0.15696000000000002,9.82962
116161615,21.34,0.0,0.0,0.0,0.6180300000000001,-0.16677000000000003,9.81
121212120,21.34,0.0,0.0,0.0,0.60822,-0.15696000000000002,9.80019
126262625,21.34,0.0,0.0,0.0,0.60822,-0.15696000000000002,9.83943
131313130,21.34,0.0,0.0,0.0,0.60822,-0.13734000000000002,9.82962
136363635,21.34,0.0,0.0,0.0,0.6180300000000001,-0.15696000000000002,9.81
141414140,21.34,0.0,0.0,0.0,0.5886,-0.15696000000000002,9.760950000000001
146464645,21.34,0.0,0.0,0.0,0.5886,-0.14715,9.82962
151515150,21.34,0.0,0.0,0.0,0.60822,-0.16677000000000003,9.84924
156565655,21.34,0.0,0.0,0.0,0.6180300000000001,-0.12753,9.82962
161616160,21.34,0.0,0.0,0.0,0.5886,-0.12753,9.79038
166666665,21.34,0.0,0.0,0.0,0.60822,-0.14715,9.74133
171717170,21.34,0.0,0.0,0.0,0.6278400000000001,-0.15696000000000002,9.83943
176767675,21.34,0.0,0.0,0.0,0.6278400000000001,-0.14715,9.87867
181818180,21.34,0.0,0.0,0.0,0.6180300000000001,-0.18639,9.85905
186868685,21.34,0.0,0.0,0.0,0.63765,-0.16677000000000003,9.80019
191919190,21.34,0.0,0.0,0.0,0.60822,-0.17658,9.760950000000001
196969695,21.34,0.0,0.0,0.0,0.6180300000000001,-0.14715,9.81
202020200,21.34,0.0,0.0,0.0,0.6180300000000001,-0.15696000000000002,9.82962
207070705,21.34,0.0,0.0,0.0,0.60822,-0.14715,9.83943
212121210,21.34,0.0,0.0,0.0,0.59841,-0.16677000000000003,9.819809999999999
217171715,21.34,0.0,0.0,0.0,0.60822,-0.15696000000000002,9.751140000000001
222222220,21.34,0.0,0.0,0.0,0.6180300000000001,-0.16677000000000003,9.81
227272725,21.34,0.0,0.0,0.0,0.59841,-0.15696000000000002,9.84924
232323230,21.34,0.0,0.0,0.0,0.59841,-0.16677000000000003,9.85905
237373735,21.34,0.0,0.0,0.0,0.60822,-0.18639,9.79038
242424240,21.34,0.0,0.0,0.0,0.60822,-0.17658,9.79038
247474745,21.34,0.0,0.0,0.0,0.6180300000000001,-0.17658,9.78057
252525250,21.34,0.0,0.0,0.0,0.60822,-0.16677000000000003,9.84924
257575755,21.34,0.0,0.0,0.0,0.60822,-0.16677000000000003,9.83943
262626260,21.34,0.0,0.0,0.0,0.60822,-0.16677000000000003,9.80019
267676765,21.34,0.0,0.0,0.0,0.59841,-0.17658,9.78057
272727270,21.34,0.0,0.0,0.0,0.60822,-0.14715,9.79038
277777775,21.34,0.0,0.0,0.0,0.60822,-0.14715,9.81
282828280,21.34,0.0,0.0,0.0,0.6180300000000001,-0.17658,9.85905
287878785,21.34,0.0,0.0,0.0,0.60822,-0.15696000000000002,9.83943
292929290,21.34,0.0,0.0,0.0,0.60822,-0.16677000000000003,9.770760000000001
297979795,21.34,0.0,0.0,0.0,0.60822,-0.13734000000000002,9.819809999999999
303030300,21.34,0.0,0.0,0.0,0.6180300000000001,-0.16677000000000003,9.819809999999999
308080805,21.34,0.0,0.0,0.0,0.60822,-0.16677000000000003,9.81
313131310,21.34,0.0,0.0,0.0,0.6278400000000001,-0.13734000000000002,9.819809999999999
318181815,21.34,0.0,0.0,0.0,0.5886,-0.14715,9.81
323232320,21.34,0.0,0.0,0.0,0.59841,-0.18639,9.81
328282825,21.34,0.0,0.0,0.0,0.59841,-0.16677000000000003,9.79038
333333330,21.34,0.0,0.0,0.0,0.60822,-0.16677000000000003,9.80019
338383835,21.34,0.0,0.0,0.0,0.5886,-0.16677000000000003,9.819809999999999
343434340,21.34,0.0,0.0,0.0,0.5886,-0.15696000000000002,9.82962
348484845,21.34,0.0,0.0,0.0,0.60822,-0.16677000000000003,9.82962
353535350,21.34,0.0,0.0,0.0,0.60822,-0.13734000000000002,9.81
358585855,21.34,0.0,0.0,0.0,0.59841,-0.15696000000000002,9.79038
363636360,21.34,0.0,0.0,0.0,0.60822,-0.17658,9.82962
368686865,21.34,0.0,0.0,0.0,0.59841,-0.15696000000000002,9.819809999999999
373737370,21.34,0.0,0.0,0.0,0.6180300000000001,-0.17658,9.82962
378787875,21.34,0.0,0.0,0.0,0.60822,-0.15696000000000002,9.819809999999999
383838380,21.34,0.0,0.0,0.0,0.59841,-0.15696000000000002,9.770760000000001
388888885,21.34,0.0,0.0,0.0,0.5886,-0.17658,9.82962
393939390,21.34,0.0,0.0,0.0,0.60822,-0.16677000000000003,9.85905
398989895,21.34,0.0,0.0,0.0,0.59841,-0.17658,9.82962
404040400,21.34,0.0,0.0,0.0,0.59841,-0.17658,9.81
409090905,21.34,0.0,0.0,0.0,0.60822,-0.16677000000000003,9.770760000000001
414141410,21.34,0.0,0.0,0.0,0.60822,-0.15696000000000002,9.81
419191915,21.34,0.0,0.0,0.0,0.60822,-0.17658,9.84924
424242420,21.34,0.0,0.0,0.0,0.60822,-0.13734000000000002,9.819809999999999
429292925,21.34,0.0,0.0,0.0,0.60822,-0.16677000000000003,9.80019
434343430,21.34,0.0,0.0,0.0,0.6180300000000001,-0.14715,9.80019
439393935,21.34,0.0,0.0,0.0,0.6180300000000001,-0.14715,9.819809999999999
444444440,21.34,0.0,0.0,0.0,0.60822,-0.15696000000000002,9.82962
449494945,21.34,0.0,0.0,0.0,0.60822,-0.15696000000000002,9.81
454545450,21.34,0.0,0.0,0.0,0.60822,-0.16677000000000003,9.79038
459595955,21.34,0.0,0.0,0.0,0.63765,-0.17658,9.819809999999999
464646460,21.34,0.0,0.0,0.0,0.60822,-0.17658,9.85905
469696965,21.34,0.0,0.0,0.0,0.60822,-0.15696000000000002,9.83943
474747470,21.34,0.0,0.0,0.0,0.60822,-0.17658,9.78057
479797975,21.34,0.0,0.0,0.0,0.60822,-0.15696000000000002,9.760950000000001
484848480,21.34,0.0,0.0,0.0,0.60822,-0.16677000000000003,9.81
489898985,21.34,0.0,0.0,0.0,0.6180300000000001,-0.16677000000000003,9.888480000000001
494949490,21.34,0.0,0.0,0.0,0.60822,-0.13734000000000002,9.819809999999999
499999995,21.34,0.0,0.0,0.0,0.60822,-0.14715,9.79038
505050500,21.34,0.0,0.0,0.0,0.60822,-0.18639,9.760950000000001
510101005,21.34,0.0,0.0,0.0,0.60822,-0.15696000000000002,9.81
515151510,21.34,0.0,0.0,0.0,0.60822,-0.15696000000000002,9.86886
520202015,21.34,0.0,0.0,0.0,0.60822,-0.15696000000000002,9.83943
525252520,21.34,0.0,0.0,0.0,0.59841,-0.15696000000000002,9.80019
530303025,21.34,0.0,0.0,0.0,0.60822,-0.16677000000000003,9.80019
535353530,21.34,0.0,0.0,0.0,0.60822,-0.17658,9.78057
540404035,21.34,0.0,0.0,0.0,0.59841,-0.15696000000000002,9.82962
545454540,21.34,0.0,0.0,0.0,0.60822,-0.16677000000000003,9.84924
550505045,21.34,0.0,0.0,0.0,0.60822,-0.15696000000000002,9.80019
555555550,21.34,0.0,0.0,0.0,0.60822,-0.16677000000000003,9.80019
560606055,21.34,0.0,0.0,0.0,0.5886,-0.15696000000000002,9.81
565656560,21.34,0.0,0.0,0.0,0.6180300000000001,-0.16677000000000003,9.819809999999999
570707065,21.34,0.0,0.0,0.0,0.60822,-0.14715,9.81
575757570,21.34,0.0,0.0,0.0,0.6278400000000001,-0.12753,9.79038
580808075,21.34,0.0,0.0,0.0,0.59841,-0.12753,9.80019
585858580,21.34,0.0,0.0,0.0,0.60822,-0.15696000000000002,9.83943
590909085,21.34,0.0,0.0,0.0,0.6180300000000001,-0.14715,9.85905
595959590,21.34,0.0,0.0,0.0,0.59841,-0.16677000000000003,9.819809999999999
601010095,21.34,0.0,0.0,0.0,0.60822,-0.15696000000000002,9.78057
606060600,21.34,0.0,0.0,0.0,0.60822,-0.13734000000000002,9.770760000000001
611111105,21.34,0.0,0.0,0.0,0.60822,-0.16677000000000003,9.82962
616161610,21.34,0.0,0.0,0.0,0.6180300000000001,-0.15696000000000002,9.85905
621212115,21.34,0.0,0.0,0.0,0.60822,-0.16677000000000003,9.80019
626262620,21.34,0.0,0.0,0.0,0.57879,-0.16677000000000003,9.80019
631313125,21.34,0.0,0.0,0.0,0.6180300000000001,-0.15696000000000002,9.770760000000001
636363630,21.34,0.0,0.0,0.0,0.6180300000000001,-0.13734000000000002,9.82962
641414135,21.34,0.0,0.0,0.0,0.59841,-0.13734000000000002,9.84924
646464640,21.34,0.0,0.0,0.0,0.60822,-0.15696000000000002,9.81
651515145,21.34,0.0,0.0,0.0,0.59841,-0.16677000000000003,9.79038
656565650,21.34,0.0,0.0,0.0,0.60822,-0.16677000000000003,9.78057
661616155,21.34,0.0,0.0,0.0,0.60822,-0.16677000000000003,9.84924
666666660,21.34,0.0,0.0,0.0,0.6278400000000001,-0.17658,9.85905
671717165,21.34,0.0,0.0,0.0,0.60822,-0.12753,9.81
676767670,21.34,0.0,0.0,0.0,0.57879,-0.14715,9.760950000000001
681818175,21.34,0.0,0.0,0.0,0.60822,-0.16677000000000003,9.81
686868680,21.34,0.0,0.0,0.0,0.60822,-0.13734000000000002,9.83943
691919185,21.34,0.0,0.0,0.0,0.60822,-0.16677000000000003,9.85905
696969690,21.34,0.0,0.0,0.0,0.59841,-0.17658,9.80019
702020195,21.34,0.0,0.0,0.0,0.60822,-0.16677000000000003,9.760950000000001
707070700,21.34,0.0,0.0,0.0,0.5886,-0.13734000000000002,9.80019
712121205,21.34,0.0,0.0,0.0,0.6278400000000001,-0.16677000000000003,9.83943
717171710,21.34,0.0,0.0,0.0,0.57879,-0.14715,9.83943
722222215,21.34,0.0,0.0,0.0,0.59841,-0.13734000000000002,9.79038
727272720,21.34,0.0,0.0,0.0,0.59841,-0.15696000000000002,9.79038
732323225,21.34,0.0,0.0,0.0,0.59841,-0.14715,9.80019
737373730,21.34,0.0,0.0,0.0,0.6278400000000001,-0.15696000000000002,9.85905
742424235,21.34,0.0,0.0,0.0,0.5886,-0.18639,9.83943
747474740,21.34,0.0,0.0,0.0,0.59841,-0.16677000000000003,9.79038
752525245,21.34,0.0,0.0,0.0,0.6180300000000001,-0.17658,9.78057
757575750,21.34,0.0,0.0,0.0,0.59841,-0.16677000000000003,9.81
762626255,21.34,0.0,0.0,0.0,0.60822,-0.18639,9.86886
767676760,21.34,0.0,0.0,0.0,0.6180300000000001,-0.13734000000000002,9.85905
772727265,21.34,0.0,0.0,0.0,0.5886,-0.18639,9.79038
777777770,21.34,0.0,0.0,0.0,0.5886,-0.15696000000000002,9.80019
782828275,21.34,0.0,0.0,0.0,0.5886,-0.16677000000000003,9.79038
787878780,21.34,0.0,0.0,0.0,0.6180300000000001,-0.11772,9.83943
792929285,21.34,0.0,0.0,0.0,0.60822,-0.14715,9.83943
797979790,21.34,0.0,0.0,0.0,0.59841,-0.14715,9.79038
803030295,21.34,0.0,0.0,0.0,0.60822,-0.18639,9.770760000000001
808080800,21.34,0.0,0.0,0.0,0.59841,-0.16677000000000003,9.80019
813131305,21.34,0.0,0.0,0.0,0.60822,-0.18639,9.819809999999999
818181810,21.34,0.0,0.0,0.0,0.60822,-0.17658,9.85905
823232315,21.34,0.0,0.0,0.0,0.60822,-0.16677000000000003,9.81
828282820,21.34,0.0,0.0,0.0,0.5886,-0.12753,9.770760000000001
833333325,21.34,0.0,0.0,0.0,0.59841,-0.15696000000000002,9.80019
838383830,21.34,0.0,0.0,0.0,0.60822,-0.12753,9.84924
843434335,21.34,0.0,0.0,0.0,0.63765,-0.18639,9.83943
848484840,21.34,0.0,0.0,0.0,0.6180300000000001,-0.14715,9.79038
853535345,21.34,0.0,0.0,0.0,0.6180300000000001,-0.14715,9.78057
858585850,21.34,0.0,0.0,0.0,0.60822,-0.16677000000000003,9.81
863636355,21.34,0.0,0.0,0.0,0.59841,-0.16677000000000003,9.83943
868686860,21.34,0.0,0.0,0.0,0.6278400000000001,-0.15696000000000002,9.819809999999999
873737365,21.34,0.0,0.0,0.0,0.60822,-0.16677000000000003,9.81
878787870,21.34,0.0,0.0,0.0,0.5886,-0.16677000000000003,9.81
883838375,21.34,0.0,0.0,0.0,0.60822,-0.17658,9.81
888888880,21.34,0.0,0.0,0.0,0.60822,-0.15696000000000002,9.81
893939385,21.34,0.0,0.0,0.0,0.59841,-0.17658,9.81
898989890,21.34,0.0,0.0,0.0,0.57879,-0.18639,9.81
904040395,21.34,0.0,0.0,0.0,0.60822,-0.16677000000000003,9.81
909090900,21.34,0.0,0.0,0.0,0.60822,-0.15696000000000002,9.819809999999999
914141405,21.34,0.0,0.0,0.0,0.60822,-0.1962,9.80019
919191910,21.34,0.0,0.0,0.0,0.60822,-0.13734000000000002,9.81
924242415,21.34,0.0,0.0,0.0,0.60822,-0.14715,9.81
929292920,21.34,0.0,0.0,0.0,0.60822,-0.15696000000000002,9.84924
934343425,21.34,0.0,0.0,0.0,0.60822,-0.15696000000000002,9.82962
939393930,21.34,0.0,0.0,0.0,0.63765,-0.16677000000000003,9.80019
944444435,21.34,0.0,0.0,0.0,0.60822,-0.12753,9.80019
949494940,21.34,0.0,0.0,0.0,0.60822,-0.15696000000000002,9.80019
954545445,21.34,0.0,0.0,0.0,0.5886,-0.16677000000000003,9.819809999999999
959595950,21.34,0.0,0.0,0.0,0.6180300000000001,-0.17658,9.81
964646455,21.34,0.0,0.0,0.0,0.60822,-0.15696000000000002,9.819809999999999
969696960,21.34,0.0,0.0,0.0,0.60822,-0.15696000000000002,9.81
974747465,21.34,0.0,0.0,0.0,0.60822,-0.15696000000000002,9.81
979797970,21.34,0.0,0.0,0.0,0.6180300000000001,-0.14715,9.81
984848475,21.34,0.0,0.0,0.0,0.59841,-0.13734000000000002,9.79038
989898980,21.34,0.0,0.0,0.0,0.59841,-0.16677000000000003,9.82962
994949485,21.34,0.0,0.0,0.0,0.60822,-0.14715,9.85905
999999990,21.34,0.0,0.0,0.0,0.60822,-0.16677000000000003,9.819809999999999
1005050495,21.34,0.0,0.0,0.0,0.60822,-0.14715,9.819809999999999
1010101000,21.34,0.0,0.0,0.0,0.6180300000000001,-0.17658,9.80019
1015151505,21.34,0.0,0.0,0.0,0.60822,-0.16677000000000003,9.81
1020202010,21.34,0.0,0.0,0.0,0.63765,-0.16677000000000003,9.819809999999999
1025252515,21.34,0.0,0.0,0.0,0.6180300000000001,-0.14715,9.83943
1030303020,21.34,0.0,0.0,0.0,0.60822,-0.17658,9.81
1035353525,21.34,0.0,0.0,0.0,0.59841,-0.15696000000000002,9.79038
1040404030,21.34,0.0,0.0,0.0,0.5886,-0.15696000000000002,9.751140000000001
1045454535,21.34,0.0,0.0,0.0,0.60822,-0.13734000000000002,9.819809999999999
1050505040,21.34,0.0,0.0,0.0,0.6180300000000001,-0.16677000000000003,9.82962
1055555545,21.34,0.0,0.0,0.0,0.59841,-0.15696000000000002,9.83943
1060606050,21.34,0.0,0.0,0.0,0.57879,-0.17658,9.81
1065656555,21.34,0.0,0.0,0.0,0.60822,-0.14715,9.79038
1070707060,21.34,0.0,0.0,0.0,0.59841,-0.16677000000000003,9.819809999999999
1075757565,21.34,0.0,0.0,0.0,0.56898,-0.16677000000000003,9.84924
1080808070,21.34,0.0,0.0,0.0,0.59841,-0.17658,9.819809999999999
1085858575,21.34,0.0,0.0,0.0,0.60822,-0.17658,9.78057
1090909080,21.34,0.0,0.0,0.0,0.6180300000000001,-0.16677000000000003,9.760950000000001
1095959585,21.34,0.0,0.0,0.0,0.60822,-0.14715,9.83943
1101010090,21.34,0.0,0.0,0.0,0.60822,-0.16677000000000003,9.86886
1106060595,21.34,0.0,0.0,0.0,0.5886,-0.14715,9.81
1111111100,21.34,0.0,0.0,0.0,0.60822,-0.16677000000000003,9.78057
1116161605,21.34,0.0,0.0,0.0,0.5886,-0.14715,9.79038
1121212110,21.34,0.0,0.0,0.0,0.6180300000000001,-0.17658,9.80019
1126262615,21.34,0.0,0.0,0.0,0.60822,-0.16677000000000003,9.84924
1131313120,21.34,0.0,0.0,0.0,0.60822,-0.16677000000000003,9.81
1136363625,21.34,0.0,0.0,0.0,0.60822,-0.14715,9.80019
1141414130,21.34,0.0,0.0,0.0,0.6278400000000001,-0.16677000000000003,9.81
1146464635,21.34,0.0,0.0,0.0,0.59841,-0.17658,9.819809999999999
1151515140,21.34,0.0,0.0,0.0,0.59841,-0.16677000000000003,9.83943
1156565645,21.34,0.0,0.0,0.0,0.5886,-0.16677000000000003,9.81
1161616150,21.34,0.0,0.0,0.0,0.60822,-0.15696000000000002,9.78057
1166666655,21.34,0.0,0.0,0.0,0.60822,-0.15696000000000002,9.82962
1171717160,21.34,0.0,0.0,0.0,0.59841,-0.18639,9.84924
1176767665,21.34,0.0,0.0,0.0,0.59841,-0.18639,9.819809999999999
1181818170,21.34,0.0,0.0,0.0,0.59841,-0.15696000000000002,9.80019
1186868675,21.34,0.0,0.0,0.0,0.60822,-0.16677000000000003,9.79038
1191919180,21.34,0.0,0.0,0.0,0.59841,-0.16677000000000003,9.819809999999999
1196969685,21.34,0.0,0.0,0.0,0.60822,-0.17658,9.83943
1202020190,21.34,0.0,0.0,0.0,0.60822,-0.14715,9.80019
1207070695,21.34,0.0,0.0,0.0,0.5886,-0.16677000000000003,9.78057
1212121200,21.34,0.0,0.0,0.0,0.6180300000000001,-0.15696000000000002,9.82962
1217171705,21.34,0.0,0.0,0.0,0.57879,-0.15696000000000002,9.83943
1222222210,21.34,0.0,0.0,0.0,0.60822,-0.14715,9.82962
1227272715,21.34,0.0,0.0,0.0,0.6180300000000001,-0.15696000000000002,9.751140000000001
1232323220,21.34,0.0,0.0,0.0,0.6180300000000001,-0.17658,9.760950000000001
1237373725,21.34,0.0,0.0,0.0,0.6180300000000001,-0.16677000000000003,9.83943
1242424230,21.34,0.0,0.0,0.0,0.6180300000000001,-0.16677000000000003,9.888480000000001
1247474735,21.34,0.0,0.0,0.0,0.5886,-0.16677000000000003,9.82962
1252525240,21.34,0.0,0.0,0.0,0.60822,-0.16677000000000003,9.72171
1257575745,21.34,0.0,0.0,0.0,0.6180300000000001,-0.15696000000000002,9.74133
1262626250,21.34,0.0,0.0,0.0,0.6180300000000001,-0.15696000000000002,9.85905
1267676755,21.34,0.0,0.0,0.0,0.60822,-0.14715,9.92772
1272727260,21.34,0.0,0.0,0.0,0.59841,-0.14715,9.84924
1277777765,21.34,0.0,0.0,0.0,0.60822,-0.12753,9.751140000000001
1282828270,21.34,0.0,0.0,0.0,0.59841,-0.15696000000000002,9.72171
1287878775,21.34,0.0,0.0,0.0,0.60822,-0.12753,9.819809999999999
1292929280,21.34,0.0,0.0,0.0,0.60822,-0.15696000000000002,9.89829
1297979785,21.34,0.0,0.0,0.0,0.59841,-0.15696000000000002,9.86886
1303030290,21.34,0.0,0.0,0.0,0.60822,-0.15696000000000002,9.78057
1308080795,21.34,0.0,0.0,0.0,0.5886,-0.16677000000000003,9.74133
1313131300,21.34,0.0,0.0,0.0,0.5886,-0.16677000000000003,9.81
1318181805,21.34,0.0,0.0,0.0,0.5886,-0.14715,9.89829
1323232310,21.34,0.0,0.0,0.0,0.60822,-0.16677000000000003,9.85905
1328282815,21.34,0.0,0.0,0.0,0.60822,-0.17658,9.819809999999999
1333333320,21.34,0.0,0.0,0.0,0.60822,-0.15696000000000002,9.79038
1338383825,21.34,0.0,0.0,0.0,0.60822,-0.18639,9.79038
1343434330,21.34,0.0,0.0,0.0,0.59841,-0.17658,9.82962
1348484835,21.34,0.0,0.0,0.0,0.6278400000000001,-0.18639,9.85905
1353535340,21.34,0.0,0.0,0.0,0.60822,-0.14715,9.78057
1358585845,21.34,0.0,0.0,0.0,0.60822,-0.14715,9.78057
1363636350,21.34,0.0,0.0,0.0,0.60822,-0.15696000000000002,9.80019
1368686855,21.34,0.0,0.0,0.0,0.60822,-0.15696000000000002,9.83943
1373737360,21.34,0.0,0.0,0.0,0.60822,-0.15696000000000002,9.80019
1378787865,21.34,0.0,0.0,0.0,0.59841,-0.14715,9.79038
1383838370,21.34,0.0,0.0,0.0,0.60822,-0.18639,9.79038
1388888875,21.34,0.0,0.0,0.0,0.60822,-0.15696000000000002,9.82962
1393939380,21.34,0.0,0.0,0.0,0.59841,-0.16677000000000003,9.84924
1398989885,21.34,0.0,0.0,0.0,0.6180300000000001,-0.13734000000000002,9.80019
1404040390,21.34,0.0,0.0,0.0,0.5886,-0.16677000000000003,9.81
1409090895,21.34,0.0,0.0,0.0,0.5886,-0.16677000000000003,9.81
1414141400,21.34,0.0,0.0,0.0,0.60822,-0.15696000000000002,9.83943
1419191905,21.34,0.0,0.0,0.0,0.6180300000000001,-0.16677000000000003,9.82962
1424242410,21.34,0.0,0.0,0.0,0.60822,-0.15696000000000002,9.770760000000001
1429292915,21.34,0.0,0.0,0.0,0.57879,-0.14715,9.79038
1434343420,21.34,0.0,0.0,0.0,0.57879,-0.14715,9.82962
1439393925,21.34,0.0,0.0,0.0,0.59841,-0.17658,9.85905
1444444430,21.34,0.0,0.0,0.0,0.6180300000000001,-0.16677000000000003,9.819809999999999
1449494935,21.34,0.0,0.0,0.0,0.59841,-0.16677000000000003,9.770760000000001
1454545440,21.34,0.0,0.0,0.0,0.5886,-0.18639,9.79038
1459595945,21.34,0.0,0.0,0.0,0.6180300000000001,-0.15696000000000002,9.82962
1464646450,21.34,0.0,0.0,0.0,0.60822,-0.15696000000000002,9.85905
1469696955,21.34,0.0,0.0,0.0,0.60822,-0.16677000000000003,9.82962
1474747460,21.34,0.0,0.0,0.0,0.59841,-0.17658,9.770760000000001
1479797965,21.34,0.0,0.0,0.0,0.60822,-0.16677000000000003,9.80019
1484848470,21.34,0.0,0.0,0.0,0.60822,-0.14715,9.819809999999999
1489898975,21.34,0.0,0.0,0.0,0.59841,-0.16677000000000003,9.84924
1494949480,21.34,0.0,0.0,0.0,0.60822,-0.16677000000000003,9.81
1499999985,21.34,0.0,0.0,0.0,0.5886,-0.17658,9.770760000000001
1505050490,21.34,0.0,0.0,0.0,0.60822,-0.17658,9.79038
1510100995,21.34,0.0,0.0,0.0,0.60822,-0.16677000000000003,9.888480000000001
1515151500,21.34,0.0,0.0,0.0,0.60822,-0.16677000000000003,9.85905
1520202005,21.34,0.0,0.0,0.0,0.6180300000000001,-0.15696000000000002,9.80019
1525252510,21.34,0.0,0.0,0.0,0.60822,-0.13734000000000002,9.751140000000001
1530303015,21.34,0.0,0.0,0.0,0.60822,-0.15696000000000002,9.760950000000001
1535353520,21.34,0.0,0.0,0.0,0.6180300000000001,-0.15696000000000002,9.85905
1540404025,21.34,0.0,0.0,0.0,0.6180300000000001,-0.15696000000000002,9.86886
1545454530,21.34,0.0,0.0,0.0,0.6180300000000001,-0.16677000000000003,9.82962
1550505035,21.34,0.0,0.0,0.0,0.60822,-0.16677000000000003,9.770760000000001
1555555540,21.34,0.0,0.0,0.0,0.60822,-0.16677000000000003,9.770760000000001
1560606045,21.34,0.0,0.0,0.0,0.59841,-0.14715,9.82962
1565656550,21.34,0.0,0.0,0.0,0.6180300000000001,-0.15696000000000002,9.87867
1570707055,21.34,0.0,0.0,0.0,0.6278400000000001,-0.14715,9.819809999999999
1575757560,21.34,0.0,0.0,0.0,0.5886,-0.13734000000000002,9.760950000000001
1580808065,21.34,0.0,0.0,0.0,0.57879,-0.15696000000000002,9.770760000000001
1585858570,21.34,0.0,0.0,0.0,0.60822,-0.15696000000000002,9.819809999999999
1590909075,21.34,0.0,0.0,0.0,0.60822,-0.16677000000000003,9.85905
1595959580,21.34,0.0,0.0,0.0,0.60822,-0.15696000000000002,9.819809999999999
1601010085,21.34,0.0,0.0,0.0,0.60822,-0.14715,9.80019
1606060590,21.34,0.0,0.0,0.0,0.59841,-0.14715,9.760950000000001
1611111095,21.34,0.0,0.0,0.0,0.60822,-0.17658,9.78057
1616161600,21.34,0.0,0.0,0.0,0.60822,-0.15696000000000002,9.83943
1621212105,21.34,0.0,0.0,0.0,0.5886,-0.16677000000000003,9.86886
1626262610,21.34,0.0,0.0,0.0,0.59841,-0.13734000000000002,9.81
1631313115,21.34,0.0,0.0,0.0,0.5886,-0.14715,9.760950000000001
1636363620,21.34,0.0,0.0,0.0,0.60822,-0.14715,9.81
1641414125,21.34,0.0,0.0,0.0,0.60822,-0.13734000000000002,9.819809999999999
1646464630,21.34,0.0,0.0,0.0,0.6180300000000001,-0.16677000000000003,9.82962
1651515135,21.34,0.0,0.0,0.0,0.60822,-0.15696000000000002,9.82962
1656565640,21.34,0.0,0.0,0.0,0.6278400000000001,-0.13734000000000002,9.80019
1661616145,21.34,0.0,0.0,0.0,0.5886,-0.14715,9.751140000000001
1666666650,21.34,0.0,0.0,0.0,0.60822,-0.16677000000000003,9.770760000000001
1671717155,21.34,0.0,0.0,0.0,0.60822,-0.16677000000000003,9.86886
1676767660,21.34,0.0,0.0,0.0,0.60822,-0.17658,9.85905
1681818165,21.34,0.0,0.0,0.0,0.6278400000000001,-0.16677000000000003,9.80019
1686868670,21.34,0.0,0.0,0.0,0.60822,-0.16677000000000003,9.751140000000001
1691919175,21.34,0.0,0.0,0.0,0.60822,-0.14715,9.78057
1696969680,21.34,0.0,0.0,0.0,0.60822,-0.12753,9.82962
1702020185,21.34,0.0,0.0,0.0,0.60822,-0.14715,9.86886
1707070690,21.34,0.0,0.0,0.0,0.60822,-0.14715,9.81
1712121195,21.34,0.0,0.0,0.0,0.59841,-0.15696000000000002,9.760950000000001
1717171700,21.34,0.0,0.0,0.0,0.5886,-0.17658,9.770760000000001
1722222205,21.34,0.0,0.0,0.0,0.5886,-0.15696000000000002,9.82962
1727272710,21.34,0.0,0.0,0.0,0.60822,-0.15696000000000002,9.888480000000001
1732323215,21.34,0.0,0.0,0.0,0.59841,-0.13734000000000002,9.819809999999999
1737373720,21.34,0.0,0.0,0.0,0.5886,-0.18639,9.78057
1742424225,21.34,0.0,0.0,0.0,0.60822,-0.16677000000000003,9.751140000000001
1747474730,21.34,0.0,0.0,0.0,0.60822,-0.15696000000000002,9.819809999999999
1752525235,21.34,0.0,0.0,0.0,0.60822,-0.14715,9.888480000000001
1757575740,21.34,0.0,0.0,0.0,0.60822,-0.15696000000000002,9.888480000000001
1762626245,21.34,0.0,0.0,0.0,0.57879,-0.17658,9.79038
1767676750,21.34,0.0,0.0,0.0,0.59841,-0.14715,9.74133
1772727255,21.34,0.0,0.0,0.0,0.59841,-0.13734000000000002,9.78057
1777777760,21.34,0.0,0.0,0.0,0.60822,-0.16677000000000003,9.89829
1782828265,21.34,0.0,0.0,0.0,0.5886,-0.16677000000000003,9.87867
1787878770,21.34,0.0,0.0,0.0,0.59841,-0.15696000000000002,9.81
1792929275,21.34,0.0,0.0,0.0,0.59841,-0.16677000000000003,9.74133
1797979780,21.34,0.0,0.0,0.0,0.59841,-0.12753,9.760950000000001
1803030285,21.34,0.0,0.0,0.0,0.60822,-0.14715,9.83943
1808080790,21.34,0.0,0.0,0.0,0.6180300000000001,-0.16677000000000003,9.89829
1813131295,21.34,0.0,0.0,0.0,0.60822,-0.13734000000000002,9.819809999999999
1818181800,21.34,0.0,0.0,0.0,0.6180300000000001,-0.17658,9.751140000000001
1823232305,21.34,0.0,0.0,0.0,0.60822,-0.17658,9.770760000000001
1828282810,21.34,0.0,0.0,0.0,0.5886,-0.15696000000000002,9.82962
1833333315,21.34,0.0,0.0,0.0,0.6180300000000001,-0.16677000000000003,9.87867
1838383820,21.34,0.0,0.0,0.0,0.60822,-0.17658,9.83943
1843434325,21.34,0.0,0.0,0.0,0.59841,-0.16677000000000003,9.78057
1848484830,21.34,0.0,0.0,0.0,0.57879,-0.16677000000000003,9.760950000000001
1853535335,21.34,0.0,0.0,0.0,0.60822,-0.16677000000000003,9.81
1858585840,21.34,0.0,0.0,0.0,0.60822,-0.13734000000000002,9.83943
1863636345,21.34,0.0,0.0,0.0,0.5886,-0.14715,9.81
1868686850,21.34,0.0,0.0,0.0,0.60822,-0.18639,9.80019
1873737355,21.34,0.0,0.0,0.0,0.60822,-0.13734000000000002,9.80019
1878787860,21.34,0.0,0.0,0.0,0.60822,-0.16677000000000003,9.80019
1883838365,21.34,0.0,0.0,0.0,0.60822,-0.14715,9.760950000000001
1888888870,21.34,0.0,0.0,0.0,0.6180300000000001,-0.15696000000000002,9.81
1893939375,21.34,0.0,0.0,0.0,0.6180300000000001,-0.16677000000000003,9.81
1898989880,21.34,0.0,0.0,0.0,0.60822,-0.15696000000000002,9.82962
1904040385,21.34,0.0,0.0,0.0,0.60822,-0.16677000000000003,9.82962
1909090890,21.34,0.0,0.0,0.0,0.60822,-0.17658,9.81
1914141395,21.34,0.0,0.0,0.0,0.60822,-0.16677000000000003,9.79038
1919191900,21.34,0.0,0.0,0.0,0.59841,-0.16677000000000003,9.80019
1924242405,21.34,0.0,0.0,0.0,0.5886,-0.16677000000000003,9.82962
1929292910,21.34,0.0,0.0,0.0,0.60822,-0.14715,9.81
1934343415,21.34,0.0,0.0,0.0,0.57879,-0.15696000000000002,9.78057
1939393920,21.34,0.0,0.0,0.0,0.5886,-0.15696000000000002,9.80019
1944444425,21.34,0.0,0.0,0.0,0.57879,-0.17658,9.83943
1949494930,21.34,0.0,0.0,0.0,0.6180300000000001,-0.14715,9.83943
1954545435,21.34,0.0,0.0,0.0,0.60822,-0.17658,9.79038
1959595940,21.34,0.0,0.0,0.0,0.6180300000000001,-0.16677000000000003,9.79038
1964646445,21.34,0.0,0.0,0.0,0.6180300000000001,-0.14715,9.80019
1969696950,21.34,0.0,0.0,0.0,0.6180300000000001,-0.12753,9.82962
1974747455,21.34,0.0,0.0,0.0,0.60822,-0.16677000000000003,9.84924
1979797960,21.34,0.0,0.0,0.0,0.60822,-0.14715,9.85905
1984848465,21.34,0.0,0.0,0.0,0.60822,-0.1962,9.78057
1989898970,21.34,0.0,0.0,0.0,0.6278400000000001,-0.15696000000000002,9.78057
1994949475,21.34,0.0,0.0,0.0,0.60822,-0.16677000000000003,9.80019
1999999980,21.34,0.0,0.0,0.0,0.60822,-0.15696000000000002,9.85905
2005050485,21.34,0.0,0.0,0.0,0.60822,-0.15696000000000002,9.85905
2010100990,21.34,0.0,0.0,0.0,0.60822,-0.17658,9.81
2015151495,21.34,0.0,0.0,0.0,0.60822,-0.13734000000000002,9.78057
2020202000,21.34,0.0,0.0,0.0,0.60822,-0.16677000000000003,9.770760000000001
2025252505,21.34,0.0,0.0,0.0,0.59841,-0.16677000000000003,9.83943
2030303010,21.34,0.0,0.0,0.0,0.59841,-0.16677000000000003,9.85905
2035353515,21.34,0.0,0.0,0.0,0.6180300000000001,-0.16677000000000003,9.80019
2040404020,21.34,0.0,0.0,0.0,0.5886,-0.17658,9.74133
2045454525,21.34,0.0,0.0,0.0,0.6180300000000001,-0.16677000000000003,9.80019
2050505030,21.34,0.0,0.0,0.0,0.6180300000000001,-0.16677000000000003,9.85905
2055555535,21.34,0.0,0.0,0.0,0.5886,-0.15696000000000002,9.83943
2060606040,21.34,0.0,0.0,0.0,0.60822,-0.15696000000000002,9.81
2065656545,21.34,0.0,0.0,0.0,0.6180300000000001,-0.16677000000000003,9.751140000000001
2070707050,21.34,0.0,0.0,0.0,0.6180300000000001,-0.16677000000000003,9.770760000000001
2075757555,21.34,0.0,0.0,0.0,0.6180300000000001,-0.14715,9.82962
2080808060,21.34,0.0,0.0,0.0,0.6278400000000001,-0.15696000000000002,9.87867
2085858565,21.34,0.0,0.0,0.0,0.60822,-0.11772,9.84924
2090909070,21.34,0.0,0.0,0.0,0.6278400000000001,-0.14715,9.770760000000001
2095959575,21.34,0.0,0.0,0.0,0.59841,-0.14715,9.770760000000001
2101010080,21.34,0.0,0.0,0.0,0.57879,-0.14715,9.819809999999999
2106060585,21.34,0.0,0.0,0.0,0.60822,-0.15696000000000002,9.83943
2111111090,21.34,0.0,0.0,0.0,0.60822,-0.16677000000000003,9.83943
2116161595,21.34,0.0,0.0,0.0,0.60822,-0.15696000000000002,9.82962
2121212100,21.34,0.0,0.0,0.0,0.59841,-0.18639,9.760950000000001
2126262605,21.34,0.0,0.0,0.0,0.59841,-0.13734000000000002,9.79038
2131313110,21.34,0.0,0.0,0.0,0.5886,-0.15696000000000002,9.82962
2136363615,21.34,0.0,0.0,0.0,0.60822,-0.15696000000000002,9.86886
2141414120,21.34,0.0,0.0,0.0,0.60822,-0.13734000000000002,9.81
2146464625,21.34,0.0,0.0,0.0,0.59841,-0.17658,9.760950000000001
2151515130,21.34,0.0,0.0,0.0,0.60822,-0.16677000000000003,9.760950000000001
2156565635,21.34,0.0,0.0,0.0,0.63765,-0.14715,9.81
2161616140,21.34,0.0,0.0,0.0,0.59841,-0.13734000000000002,9.86886
2166666645,21.34,0.0,0.0,0.0,0.63765,-0.15696000000000002,9.82962
2171717150,21.34,0.0,0.0,0.0,0.6278400000000001,-0.15696000000000002,9.78057
2176767655,21.34,0.0,0.0,0.0,0.60822,-0.14715,9.79038
2181818160,21.34,0.0,0.0,0.0,0.60822,-0.13734000000000002,9.79038
2186868665,21.34,0.0,0.0,0.0,0.5886,-0.17658,9.819809999999999
2191919170,21.34,0.0,0.0,0.0,0.59841,-0.15696000000000002,9.85905
2196969675,21.34,0.0,0.0,0.0,0.60822,-0.14715,9.80019
2202020180,21.34,0.0,0.0,0.0,0.57879,-0.14715,9.78057
2207070685,21.34,0.0,0.0,0.0,0.6180300000000001,-0.15696000000000002,9.819809999999999
2212121190,21.34,0.0,0.0,0.0,0.60822,-0.13734000000000002,9.82962
2217171695,21.34,0.0,0.0,0.0,0.6180300000000001,-0.15696000000000002,9.82962
2222222200,21.34,0.0,0.0,0.0,0.60822,-0.16677000000000003,9.79038
2227272705,21.34,0.0,0.0,0.0,0.64746,-0.17658,9.81
2232323210,21.34,0.0,0.0,0.0,0.60822,-0.15696000000000002,9.79038
2237373715,21.34,0.0,0.0,0.0,0.60822,-0.16677000000000003,9.84924
2242424220,21.34,0.0,0.0,0.0,0.6278400000000001,-0.16677000000000003,9.819809999999999
2247474725,21.34,0.0,0.0,0.0,0.60822,-0.17658,9.80019
2252525230,21.34,0.0,0.0,0.0,0.5886,-0.13734000000000002,9.78057
2257575735,21.34,0.0,0.0,0.0,0.60822,-0.16677000000000003,9.81
2262626240,21.34,0.0,0.0,0.0,0.60822,-0.13734000000000002,9.83943
2267676745,21.34,0.0,0.0,0.0,0.6278400000000001,-0.15696000000000002,9.82962
2272727250,21.34,0.0,0.0,0.0,0.60822,-0.16677000000000003,9.78057
2277777755,21.34,0.0,0.0,0.0,0.5886,-0.14715,9.80019
2282828260,21.34,0.0,0.0,0.0,0.60822,-0.17658,9.84924
2287878765,21.34,0.0,0.0,0.0,0.60822,-0.16677000000000003,9.84924
2292929270,21.34,0.0,0.0,0.0,0.59841,-0.16677000000000003,9.81
2297979775,21.34,0.0,0.0,0.0,0.60822,-0.15696000000000002,9.79038
2303030280,21.34,0.0,0.0,0.0,0.6180300000000001,-0.13734000000000002,9.79038
2308080785,21.34,0.0,0.0,0.0,0.59841,-0.13734000000000002,9.81
2313131290,21.34,0.0,0.0,0.0,0.5886,-0.15696000000000002,9.85905
2318181795,21.34,0.0,0.0,0.0,0.60822,-0.16677000000000003,9.819809999999999
2323232300,21.34,0.0,0.0,0.0,0.6180300000000001,-0.17658,9.81
2328282805,21.34,0.0,0.0,0.0,0.60822,-0.16677000000000003,9.819809999999999
2333333310,21.34,0.0,0.0,0.0,0.60822,-0.17658,9.770760000000001
2338383815,21.34,0.0,0.0,0.0,0.6180300000000001,-0.16677000000000003,9.82962
2343434320,21.34,0.0,0.0,0.0,0.6180300000000001,-0.18639,9.81
2348484825,21.34,0.0,0.0,0.0,0.60822,-0.13734000000000002,9.83943
2353535330,21.34,0.0,0.0,0.0,0.59841,-0.15696000000000002,9.78057
2358585835,21.34,0.0,0.0,0.0,0.6180300000000001,-0.14715,9.79038
2363636340,21.34,0.0,0.0,0.0,0.60822,-0.13734000000000002,9.82962
2368686845,21.34,0.0,0.0,0.0,0.59841,-0.13734000000000002,9.81
2373737350,21.34,0.0,0.0,0.0,0.6180300000000001,-0.13734000000000002,9.79038
2378787855,21.34,0.0,0.0,0.0,0.5886,-0.17658,9.81
2383838360,21.34,0.0,0.0,0.0,0.59841,-0.17658,9.84924
2388888865,21.34,0.0,0.0,0.0,0.59841,-0.15696000000000002,9.81
2393939370,21.34,0.0,0.0,0.0,0.60822,-0.16677000000000003,9.760950000000001
2398989875,21.34,0.0,0.0,0.0,0.60822,-0.14715,9.80019
2404040380,21.34,0.0,0.0,0.0,0.60822,-0.14715,9.83943
2409090885,21.34,0.0,0.0,0.0,0.6180300000000001,-0.13734000000000002,9.84924
2414141390,21.34,0.0,0.0,0.0,0.6180300000000001,-0.16677000000000003,9.83943
2419191895,21.34,0.0,0.0,0.0,0.60822,-0.14715,9.78057
2424242400,21.34,0.0,0.0,0.0,0.60822,-0.14715,9.81
2429292905,21.34,0.0,0.0,0.0,0.60822,-0.16677000000000003,9.85905
2434343410,21.34,0.0,0.0,0.0,0.60822,-0.15696000000000002,9.84924
2439393915,21.34,0.0,0.0,0.0,0.6180300000000001,-0.15696000000000002,9.80019
2444444420,21.34,0.0,0.0,0.0,0.5886,-0.15696000000000002,9.760950000000001
2449494925,21.34,0.0,0.0,0.0,0.6180300000000001,-0.14715,9.770760000000001
2454545430,21.34,0.0,0.0,0.0,0.59841,-0.15696000000000002,9.84924
2459595935,21.34,0.0,0.0,0.0,0.60822,-0.16677000000000003,9.83943
2464646440,21.34,0.0,0.0,0.0,0.60822,-0.15696000000000002,9.78057
2469696945,21.34,0.0,0.0,0.0,0.60822,-0.15696000000000002,9.770760000000001
2474747450,21.34,0.0,0.0,0.0,0.60822,-0.14715,9.80019
2479797955,21.34,0.0,0.0,0.0,0.60822,-0.15696000000000002,9.82962
2484848460,21.34,0.0,0.0,0.0,0.60822,-0.13734000000000002,9.82962
2489898965,21.34,0.0,0.0,0.0,0.60822,-0.16677000000000003,9.79038
2494949470,21.34,0.0,0.0,0.0,0.5886,-0.15696000000000002,9.770760000000001
2499999975,21.34,0.0,0.0,0.0,0.59841,-0.15696000000000002,9.81
2505050480,21.34,0.0,0.0,0.0,0.60822,-0.15696000000000002,9.82962
2510100985,21.34,0.0,0.0,0.0,0.59841,-0.16677000000000003,9.86886
2515151490,21.34,0.0,0.0,0.0,0.60822,-0.15696000000000002,9.80019
2520201995,21.34,0.0,0.0,0.0,0.60822,-0.15696000000000002,9.770760000000001
2525252500,21.34,0.0,0.0,0.0,0.59841,-0.17658,9.79038
2530303005,21.34,0.0,0.0,0.0,0.6180300000000001,-0.1962,9.82962
2535353510,21.34,0.0,0.0,0.0,0.57879,-0.17658,9.83943
2540404015,21.34,0.0,0.0,0.0,0.57879,-0.16677000000000003,9.81
2545454520,21.34,0.0,0.0,0.0,0.6278400000000001,-0.16677000000000003,9.78057
2550505025,21.34,0.0,0.0,0.0,0.59841,-0.18639,9.80019
2555555530,21.34,0.0,0.0,0.0,0.60822,-0.16677000000000003,9.82962
2560606035,21.34,0.0,0.0,0.0,0.59841,-0.14715,9.819809999999999
2565656540,21.34,0.0,0.0,0.0,0.60822,-0.12753,9.82962
2570707045,21.34,0.0,0.0,0.0,0.60822,-0.17658,9.81
2575757550,21.34,0.0,0.0,0.0,0.59841,-0.13734000000000002,9.81
2580808055,21.34,0.0,0.0,0.0,0.60822,-0.16677000000000003,9.81
2585858560,21.34,0.0,0.0,0.0,0.60822,-0.14715,9.81
2590909065,21.34,0.0,0.0,0.0,0.60822,-0.15696000000000002,9.819809999999999
2595959570,21.34,0.0,0.0,0.0,0.5886,-0.17658,9.80019
2601010075,21.34,0.0,0.0,0.0,0.60822,-0.14715,9.80019
2606060580,21.34,0.0,0.0,0.0,0.59841,-0.14715,9.81
2611111085,21.34,0.0,0.0,0.0,0.60822,-0.17658,9.80019
2616161590,21.34,0.0,0.0,0.0,0.60822,-0.16677000000000003,9.819809999999999
2621212095,21.34,0.0,0.0,0.0,0.6180300000000001,-0.16677000000000003,9.85905
2626262600,21.34,0.0,0.0,0.0,0.6278400000000001,-0.15696000000000002,9.81
2631313105,21.34,0.0,0.0,0.0,0.59841,-0.13734000000000002,9.80019
2636363610,21.34,0.0,0.0,0.0,0.5886,-0.15696000000000002,9.79038
2641414115,21.34,0.0,0.0,0.0,0.60822,-0.13734000000000002,9.80019
2646464620,21.34,0.0,0.0,0.0,0.60822,-0.17658,9.84924
2651515125,21.34,0.0,0.0,0.0,0.5886,-0.15696000000000002,9.819809999999999
2656565630,21.34,0.0,0.0,0.0,0.6278400000000001,-0.15696000000000002,9.80019
2661616135,21.34,0.0,0.0,0.0,0.60822,-0.17658,9.770760000000001
2666666640,21.34,0.0,0.0,0.0,0.6180300000000001,-0.17658,9.81
2671717145,21.34,0.0,0.0,0.0,0.60822,-0.16677000000000003,9.84924
2676767650,21.34,0.0,0.0,0.0,0.5886,-0.15696000000000002,9.81
2681818155,21.34,0.0,0.0,0.0,0.5886,-0.16677000000000003,9.79038
2686868660,21.34,0.0,0.0,0.0,0.5886,-0.14715,9.770760000000001
2691919165,21.34,0.0,0.0,0.0,0.5886,-0.15696000000000002,9.78057
2696969670,21.34,0.0,0.0,0.0,0.6180300000000001,-0.17658,9.83943
2702020175,21.34,0.0,0.0,0.0,0.6278400000000001,-0.16677000000000003,9.83943
2707070680,21.34,0.0,0.0,0.0,0.6180300000000001,-0.14715,9.80019
2712121185,21.34,0.0,0.0,0.0,0.59841,-0.15696000000000002,9.80019
2717171690,21.34,0.0,0.0,0.0,0.60822,-0.15696000000000002,9.81
2722222195,21.34,0.0,0.0,0.0,0.6278400000000001,-0.15696000000000002,9.81
2727272700,21.34,0.0,0.0,0.0,0.60822,-0.18639,9.85905
2732323205,21.34,0.0,0.0,0.0,0.57879,-0.16677000000000003,9.79038
2737373710,21.34,0.0,0.0,0.0,0.60822,-0.13734000000000002,9.79038
2742424215,21.34,0.0,0.0,0.0,0.5886,-0.14715,9.80019
2747474720,21.34,0.0,0.0,0.0,0.59841,-0.17658,9.83943
2752525225,21.34,0.0,0.0,0.0,0.60822,-0.14715,9.819809999999999
2757575730,21.34,0.0,0.0,0.0,0.59841,-0.15696000000000002,9.81
2762626235,21.34,0.0,0.0,0.0,0.57879,-0.17658,9.770760000000001
2767676740,21.34,0.0,0.0,0.0,0.60822,-0.16677000000000003,9.81
2772727245,21.34,0.0,0.0,0.0,0.5886,-0.15696000000000002,9.82962
2777777750,21.34,0.0,0.0,0.0,0.60822,-0.16677000000000003,9.84924
2782828255,21.34,0.0,0.0,0.0,0.59841,-0.13734000000000002,9.79038
2787878760,21.34,0.0,0.0,0.0,0.60822,-0.13734000000000002,9.770760000000001
2792929265,21.34,0.0,0.0,0.0,0.6180300000000001,-0.16677000000000003,9.819809999999999
2797979770,21.34,0.0,0.0,0.0,0.5886,-0.16677000000000003,9.83943
2803030275,21.34,0.0,0.0,0.0,0.59841,-0.14715,9.83943
2808080780,21.34,0.0,0.0,0.0,0.5886,-0.12753,9.80019
2813131285,21.34,0.0,0.0,0.0,0.60822,-0.18639,9.81
2818181790,21.34,0.0,0.0,0.0,0.5886,-0.15696000000000002,9.770760000000001
2823232295,21.34,0.0,0.0,0.0,0.60822,-0.15696000000000002,9.819809999999999
2828282800,21.34,0.0,0.0,0.0,0.6180300000000001,-0.14715,9.84924
2833333305,21.34,0.0,0.0,0.0,0.59841,-0.15696000000000002,9.81
2838383810,21.34,0.0,0.0,0.0,0.6278400000000001,-0.15696000000000002,9.819809999999999
2843434315,21.34,0.0,0.0,0.0,0.6180300000000001,-0.17658,9.82962
2848484820,21.34,0.0,0.0,0.0,0.6278400000000001,-0.13734000000000002,9.80019
2853535325,21.34,0.0,0.0,0.0,0.60822,-0.13734000000000002,9.79038
2858585830,21.34,0.0,0.0,0.0,0.60822,-0.15696000000000002,9.80019
2863636335,21.34,0.0,0.0,0.0,0.60822,-0.15696000000000002,9.83943
2868686840,21.34,0.0,0.0,0.0,0.6278400000000001,-0.14715,9.82962
2873737345,21.34,0.0,0.0,0.0,0.5886,-0.15696000000000002,9.79038
2878787850,21.34,0.0,0.0,0.0,0.60822,-0.17658,9.770760000000001
2883838355,21.34,0.0,0.0,0.0,0.5886,-0.14715,9.770760000000001
2888888860,21.34,0.0,0.0,0.0,0.59841,-0.14715,9.82962
2893939365,21.34,0.0,0.0,0.0,0.60822,-0.15696000000000002,9.83943
2898989870,21.34,0.0,0.0,0.0,0.5886,-0.16677000000000003,9.82962
2904040375,21.34,0.0,0.0,0.0,0.59841,-0.14715,9.760950000000001
2909090880,21.34,0.0,0.0,0.0,0.56898,-0.16677000000000003,9.78057
2914141385,21.34,0.0,0.0,0.0,0.5886,-0.12753,9.82962
2919191890,21.34,0.0,0.0,0.0,0.59841,-0.16677000000000003,9.82962
2924242395,21.34,0.0,0.0,0.0,0.59841,-0.16677000000000003,9.819809999999999
2929292900,21.34,0.0,0.0,0.0,0.57879,-0.15696000000000002,9.770760000000001
2934343405,21.34,0.0,0.0,0.0,0.60822,-0.15696000000000002,9.79038
2939393910,21.34,0.0,0.0,0.0,0.6180300000000001,-0.16677000000000003,9.84924
2944444415,21.34,0.0,0.0,0.0,0.59841,-0.16677000000000003,9.819809999999999
2949494920,21.65,0.0,0.0,0.0,0.6278400000000001,-0.16677000000000003,9.819809999999999
2954545425,21.65,0.0,0.0,0.0,0.57879,-0.15696000000000002,9.80019
2959595930,21.65,0.0,0.0,0.0,0.5886,-0.15696000000000002,9.79038
2964646435,21.65,0.0,0.0,0.0,0.59841,-0.14715,9.819809999999999
2969696940,21.65,0.0,0.0,0.0,0.60822,-0.15696000000000002,9.82962
2974747445,21.65,0.0,0.0,0.0,0.6278400000000001,-0.15696000000000002,9.83943
2979797950,21.65,0.0,0.0,0.0,0.60822,-0.17658,9.80019
2984848455,21.65,0.0,0.0,0.0,0.6278400000000001,-0.15696000000000002,9.79038
2989898960,21.65,0.0,0.0,0.0,0.60822,-0.15696000000000002,9.81
2994949465,21.65,0.0,0.0,0.0,0.60822,-0.15696000000000002,9.83943
2999999970,21.65,0.0,0.0,0.0,0.59841,-0.15696000000000002,9.83943
3005050475,21.65,0.0,0.0,0.0,0.60822,-0.15696000000000002,9.80019
3010100980,21.65,0.0,0.0,0.0,0.6180300000000001,-0.14715,9.79038
3015151485,21.65,0.0,0.0,0.0,0.60822,-0.16677000000000003,9.79038
3020201990,21.65,0.0,0.0,0.0,0.60822,-0.14715,9.79038
3025252495,21.65,0.0,0.0,0.0,0.59841,-0.17658,9.83943
3030303000,21.65,0.0,0.0,0.0,0.59841,-0.17658,9.80019
3035353505,21.65,0.0,0.0,0.0,0.60822,-0.16677000000000003,9.80019
3040404010,21.65,0.0,0.0,0.0,0.6180300000000001,-0.14715,9.85905
3045454515,21.65,0.0,0.0,0.0,0.6180300000000001,-0.15696000000000002,9.80019
3050505020,21.65,0.0,0.0,0.0,0.60822,-0.17658,9.819809999999999
3055555525,21.65,0.0,0.0,0.0,0.60822,-0.16677000000000003,9.78057
3060606030,21.65,0.0,0.0,0.0,0.60822,-0.13734000000000002,9.81
3065656535,21.65,0.0,0.0,0.0,0.60822,-0.14715,9.82962
3070707040,21.65,0.0,0.0,0.0,0.60822,-0.13734000000000002,9.81
3075757545,21.65,0.0,0.0,0.0,0.60822,-0.17658,9.80019
3080808050,21.65,0.0,0.0,0.0,0.59841,-0.15696000000000002,9.80019
3085858555,21.65,0.0,0.0,0.0,0.6180300000000001,-0.14715,9.81
3090909060,21.65,0.0,0.0,0.0,0.59841,-0.14715,9.84924
3095959565,21.65,0.0,0.0,0.0,0.5886,-0.18639,9.82962
3101010070,21.65,0.0,0.0,0.0,0.57879,-0.14715,9.78057
3106060575,21.65,0.0,0.0,0.0,0.59841,-0.18639,9.80019
3111111080,21.65,0.0,0.0,0.0,0.60822,-0.16677000000000003,9.819809999999999
3116161585,21.65,0.0,0.0,0.0,0.59841,-0.18639,9.82962
3121212090,21.65,0.0,0.0,0.0,0.60822,-0.17658,9.81
3126262595,21.65,0.0,0.0,0.0,0.6278400000000001,-0.16677000000000003,9.81
3131313100,21.65,0.0,0.0,0.0,0.6278400000000001,-0.14715,9.79038
3136363605,21.65,0.0,0.0,0.0,0.59841,-0.1962,9.83943
3141414110,21.65,0.0,0.0,0.0,0.60822,-0.18639,9.85905
3146464615,21.65,0.0,0.0,0.0,0.5886,-0.13734000000000002,9.80019
3151515120,21.65,0.0,0.0,0.0,0.60822,-0.16677000000000003,9.78057
3156565625,21.65,0.0,0.0,0.0,0.6180300000000001,-0.16677000000000003,9.81
3161616130,21.65,0.0,0.0,0.0,0.60822,-0.14715,9.82962
3166666635,21.65,0.0,0.0,0.0,0.60822,-0.14715,9.819809999999999
3171717140,21.65,0.0,0.0,0.0,0.59841,-0.16677000000000003,9.79038
3176767645,21.65,0.0,0.0,0.0,0.60822,-0.15696000000000002,9.819809999999999
3181818150,21.65,0.0,0.0,0.0,0.60822,-0.16677000000000003,9.81
3186868655,21.65,0.0,0.0,0.0,0.6278400000000001,-0.16677000000000003,9.819809999999999
3191919160,21.65,0.0,0.0,0.0,0.59841,-0.14715,9.81
3196969665,21.65,0.0,0.0,0.0,0.60822,-0.16677000000000003,9.81
3202020170,21.65,0.0,0.0,0.0,0.60822,-0.14715,9.80019
3207070675,21.65,0.0,0.0,0.0,0.59841,-0.15696000000000002,9.819809999999999
3212121180,21.65,0.0,0.0,0.0,0.6180300000000001,-0.17658,9.819809999999999
3217171685,21.65,0.0,0.0,0.0,0.5886,-0.16677000000000003,9.81
3222222190,21.65,0.0,0.0,0.0,0.59841,-0.16677000000000003,9.79038
3227272695,21.65,0.0,0.0,0.0,0.59841,-0.13734000000000002,9.81
3232323200,21.65,0.0,0.0,0.0,0.5886,-0.15696000000000002,9.819809999999999
3237373705,21.65,0.0,0.0,0.0,0.6180300000000001,-0.16677000000000003,9.819809999999999
3242424210,21.65,0.0,0.0,0.0,0.59841,-0.17658,9.82962
3247474715,21.65,0.0,0.0,0.0,0.59841,-0.15696000000000002,9.80019
3252525220,21.65,0.0,0.0,0.0,0.60822,-0.15696000000000002,9.82962
3257575725,21.65,0.0,0.0,0.0,0.59841,-0.18639,9.819809999999999
3262626230,21.65,0.0,0.0,0.0,0.60822,-0.15696000000000002,9.81
3267676735,21.65,0.0,0.0,0.0,0.59841,-0.16677000000000003,9.80019
3272727240,21.65,0.0,0.0,0.0,0.59841,-0.14715,9.81
3277777745,21.65,0.0,0.0,0.0,0.59841,-0.17658,9.84924
3282828250,21.65,0.0,0.0,0.0,0.60822,-0.14715,9.82962
3287878755,21.65,0.0,0.0,0.0,0.60822,-0.15696000000000002,9.81
3292929260,21.65,0.0,0.0,0.0,0.5886,-0.15696000000000002,9.79038
3297979765,21.65,0.0,0.0,0.0,0.59841,-0.15696000000000002,9.819809999999999
3303030270,21.65,0.0,0.0,0.0,0.60822,-0.18639,9.83943
3308080775,21.65,0.0,0.0,0.0,0.60822,-0.16677000000000003,9.82962
3313131280,21.65,0.0,0.0,0.0,0.5886,-0.15696000000000002,9.79038
3318181785,21.65,0.0,0.0,0.0,0.5886,-0.15696000000000002,9.80019
3323232290,21.65,0.0,0.0,0.0,0.60822,-0.17658,9.79038
3328282795,21.65,0.0,0.0,0.0,0.60822,-0.14715,9.82962
3333333300,21.65,0.0,0.0,0.0,0.6180300000000001,-0.18639,9.819809999999999
3338383805,21.65,0.0,0.0,0.0,0.6278400000000001,-0.14715,9.80019
3343434310,21.65,0.0,0.0,0.0,0.60822,-0.15696000000000002,9.81
3348484815,21.65,0.0,0.0,0.0,0.5886,-0.15696000000000002,9.79038
3353535320,21.65,0.0,0.0,0.0,0.6180300000000001,-0.17658,9.82962
3358585825,21.65,0.0,0.0,0.0,0.6180300000000001,-0.15696000000000002,9.80019
3363636330,21.65,0.0,0.0,0.0,0.5886,-0.14715,9.80019
3368686835,21.65,0.0,0.0,0.0,0.6278400000000001,-0.14715,9.79038
3373737340,21.65,0.0,0.0,0.0,0.59841,-0.14715,9.81
3378787845,21.65,0.0,0.0,0.0,0.6278400000000001,-0.14715,9.82962
3383838350,21.65,0.0,0.0,0.0,0.60822,-0.13734000000000002,9.819809999999999
3388888855,21.65,0.0,0.0,0.0,0.60822,-0.16677000000000003,9.78057
3393939360,21.65,0.0,0.0,0.0,0.6180300000000001,-0.17658,9.78057
3398989865,21.65,0.0,0.0,0.0,0.60822,-0.16677000000000003,9.819809999999999
3404040370,21.65,0.0,0.0,0.0,0.60822,-0.15696000000000002,9.83943
3409090875,21.65,0.0,0.0,0.0,0.57879,-0.15696000000000002,9.84924
3414141380,21.65,0.0,0.0,0.0,0.59841,-0.18639,9.819809999999999
3419191885,21.65,0.0,0.0,0.0,0.5886,-0.16677000000000003,9.81
3424242390,21.65,0.0,0.0,0.0,0.60822,-0.14715,9.79038
3429292895,21.65,0.0,0.0,0.0,0.5886,-0.15696000000000002,9.79038
3434343400,21.65,0.0,0.0,0.0,0.6180300000000001,-0.16677000000000003,9.819809999999999
3439393905,21.65,0.0,0.0,0.0,0.63765,-0.14715,9.83943
3444444410,21.65,0.0,0.0,0.0,0.60822,-0.15696000000000002,9.84924
3449494915,21.65,0.0,0.0,0.0,0.5886,-0.13734000000000002,9.80019
3454545420,21.65,0.0,0.0,0.0,0.59841,-0.15696000000000002,9.79038
3459595925,21.65,0.0,0.0,0.0,0.6180300000000001,-0.16677000000000003,9.80019
3464646430,21.65,0.0,0.0,0.0,0.56898,-0.15696000000000002,9.819809999999999
3469696935,21.65,0.0,0.0,0.0,0.59841,-0.15696000000000002,9.83943
3474747440,21.65,0.0,0.0,0.0,0.5886,-0.16677000000000003,9.82962
3479797945,21.65,0.0,0.0,0.0,0.60822,-0.16677000000000003,9.81
3484848450,21.65,0.0,0.0,0.0,0.5886,-0.15696000000000002,9.78057
3489898955,21.65,0.0,0.0,0.0,0.60822,-0.16677000000000003,9.819809999999999
3494949460,21.65,0.0,0.0,0.0,0.6180300000000001,-0.16677000000000003,9.83943
3499999965,21.65,0.0,0.0,0.0,0.6180300000000001,-0.16677000000000003,9.819809999999999
3505050470,21.65,0.0,0.0,0.0,0.59841,-0.15696000000000002,9.79038
3510100975,21.65,0.0,0.0,0.0,0.5886,-0.15696000000000002,9.770760000000001
3515151480,21.65,0.0,0.0,0.0,0.59841,-0.14715,9.819809999999999
3520201985,21.65,0.0,0.0,0.0,0.6180300000000001,-0.16677000000000003,9.84924
3525252490,21.65,0.0,0.0,0.0,0.6180300000000001,-0.16677000000000003,9.83943
3530302995,21.65,0.0,0.0,0.0,0.59841,-0.16677000000000003,9.770760000000001
3535353500,21.65,0.0,0.0,0.0,0.59841,-0.14715,9.760950000000001
3540404005,21.65,0.0,0.0,0.0,0.59841,-0.15696000000000002,9.81
3545454510,21.65,0.0,0.0,0.0,0.6180300000000001,-0.16677000000000003,9.85905
3550505015,21.65,0.0,0.0,0.0,0.59841,-0.16677000000000003,9.85905
3555555520,21.65,0.0,0.0,0.0,0.60822,-0.17658,9.80019
3560606025,21.65,0.0,0.0,0.0,0.60822,-0.14715,9.74133
3565656530,21.65,0.0,0.0,0.0,0.6278400000000001,-0.17658,9.79038
3570707035,21.65,0.0,0.0,0.0,0.60822,-0.14715,9.84924
3575757540,21.65,0.0,0.0,0.0,0.59841,-0.14715,9.86886
3580808045,21.65,0.0,0.0,0.0,0.60822,-0.14715,9.82962
3585858550,21.65,0.0,0.0,0.0,0.59841,-0.15696000000000002,9.760950000000001
3590909055,21.65,0.0,0.0,0.0,0.60822,-0.17658,9.751140000000001
3595959560,21.65,0.0,0.0,0.0,0.59841,-0.15696000000000002,9.819809999999999
3601010065,21.65,0.0,0.0,0.0,0.59841,-0.15696000000000002,9.83943
3606060570,21.65,0.0,0.0,0.0,0.60822,-0.15696000000000002,9.83943
3611111075,21.65,0.0,0.0,0.0,0.6180300000000001,-0.14715,9.770760000000001
3616161580,21.65,0.0,0.0,0.0,0.60822,-0.17658,9.81
3621212085,21.65,0.0,0.0,0.0,0.59841,-0.15696000000000002,9.82962
3626262590,21.65,0.0,0.0,0.0,0.60822,-0.16677000000000003,9.819809999999999
3631313095,21.65,0.0,0.0,0.0,0.5886,-0.16677000000000003,9.82962
3636363600,21.65,0.0,0.0,0.0,0.60822,-0.14715,9.81
3641414105,21.65,0.0,0.0,0.0,0.60822,-0.16677000000000003,9.82962
3646464610,21.65,0.0,0.0,0.0,0.60822,-0.13734000000000002,9.819809999999999
3651515115,21.65,0.0,0.0,0.0,0.59841,-0.15696000000000002,9.81
3656565620,21.65,0.0,0.0,0.0,0.5591700000000001,-0.15696000000000002,9.78057
3661616125,21.65,0.0,0.0,0.0,0.5886,-0.14715,9.81
3666666630,21.65,0.0,0.0,0.0,0.60822,-0.15696000000000002,9.83943
3671717135,21.65,0.0,0.0,0.0,0.59841,-0.18639,9.819809999999999
3676767640,21.65,0.0,0.0,0.0,0.57879,-0.16677000000000003,9.79038
3681818145,21.65,0.0,0.0,0.0,0.5886,-0.15696000000000002,9.80019
3686868650,21.65,0.0,0.0,0.0,0.60822,-0.12753,9.819809999999999
3691919155,21.65,0.0,0.0,0.0,0.60822,-0.17658,9.83943
3696969660,21.65,0.0,0.0,0.0,0.59841,-0.17658,9.80019
3702020165,21.65,0.0,0.0,0.0,0.59841,-0.15696000000000002,9.79038
3707070670,21.65,0.0,0.0,0.0,0.60822,-0.15696000000000002,9.80019
3712121175,21.65,0.0,0.0,0.0,0.6180300000000001,-0.17658,9.819809999999999
3717171680,21.65,0.0,0.0,0.0,0.60822,-0.15696000000000002,9.83943
3722222185,21.65,0.0,0.0,0.0,0.60822,-0.17658,9.81
3727272690,21.65,0.0,0.0,0.0,0.59841,-0.15696000000000002,9.78057
3732323195,21.65,0.0,0.0,0.0,0.60822,-0.17658,9.770760000000001
3737373700,21.65,0.0,0.0,0.0,0.60822,-0.16677000000000003,9.82962
3742424205,21.65,0.0,0.0,0.0,0.60822,-0.15696000000000002,9.84924
3747474710,21.65,0.0,0.0,0.0,0.60822,-0.14715,9.81
3752525215,21.65,0.0,0.0,0.0,0.6180300000000001,-0.17658,9.79038
3757575720,21.65,0.0,0.0,0.0,0.60822,-0.16677000000000003,9.78057
3762626225,21.65,0.0,0.0,0.0,0.63765,-0.17658,9.819809999999999
3767676730,21.65,0.0,0.0,0.0,0.5886,-0.15696000000000002,9.85905
3772727235,21.65,0.0,0.0,0.0,0.60822,-0.20601000000000003,9.819809999999999
3777777740,21.65,0.0,0.0,0.0,0.6180300000000001,-0.15696000000000002,9.819809999999999
3782828245,21.65,0.0,0.0,0.0,0.59841,-0.16677000000000003,9.79038
3787878750,21.65,0.0,0.0,0.0,0.59841,-0.16677000000000003,9.819809999999999
3792929255,21.65,0.0,0.0,0.0,0.5886,-0.13734000000000002,9.85905
3797979760,21.65,0.0,0.0,0.0,0.60822,-0.15696000000000002,9.81
3803030265,21.65,0.0,0.0,0.0,0.6278400000000001,-0.14715,9.81
3808080770,21.65,0.0,0.0,0.0,0.6180300000000001,-0.17658,9.78057
3813131275,21.65,0.0,0.0,0.0,0.60822,-0.16677000000000003,9.80019
3818181780,21.65,0.0,0.0,0.0,0.6180300000000001,-0.16677000000000003,9.82962
3823232285,21.65,0.0,0.0,0.0,0.6180300000000001,-0.14715,9.83943
3828282790,21.65,0.0,0.0,0.0,0.59841,-0.17658,9.78057
3833333295,21.65,0.0,0.0,0.0,0.6180300000000001,-0.16677000000000003,9.751140000000001
3838383800,21.65,0.0,0.0,0.0,0.60822,-0.15696000000000002,9.80019
3843434305,21.65,0.0,0.0,0.0,0.60822,-0.15696000000000002,9.82962
3848484810,21.65,0.0,0.0,0.0,0.5886,-0.16677000000000003,9.819809999999999
3853535315,21.65,0.0,0.0,0.0,0.5886,-0.15696000000000002,9.81
3858585820,21.65,0.0,0.0,0.0,0.57879,-0.15696000000000002,9.79038
3863636325,21.65,0.0,0.0,0.0,0.6180300000000001,-0.17658,9.819809999999999
3868686830,21.65,0.0,0.0,0.0,0.60822,-0.15696000000000002,9.81
3873737335,21.65,0.0,0.0,0.0,0.59841,-0.16677000000000003,9.84924
3878787840,21.65,0.0,0.0,0.0,0.59841,-0.14715,9.80019
3883838345,21.65,0.0,0.0,0.0,0.60822,-0.14715,9.80019
3888888850,21.65,0.0,0.0,0.0,0.5886,-0.17658,9.81
3893939355,21.65,0.0,0.0,0.0,0.5886,-0.15696000000000002,9.80019
3898989860,21.65,0.0,0.0,0.0,0.59841,-0.1962,9.79038
3904040365,21.65,0.0,0.0,0.0,0.6278400000000001,-0.14715,9.81
3909090870,21.65,0.0,0.0,0.0,0.5886,-0.17658,9.82962
3914141375,21.65,0.0,0.0,0.0,0.59841,-0.14715,9.80019
3919191880,21.65,0.0,0.0,0.0,0.59841,-0.15696000000000002,9.819809999999999
3924242385,21.65,0.0,0.0,0.0,0.60822,-0.14715,9.79038
3929292890,21.65,0.0,0.0,0.0,0.60822,-0.17658,9.819809999999999
3934343395,21.65,0.0,0.0,0.0,0.6278400000000001,-0.14715,9.83943
3939393900,21.65,0.0,0.0,0.0,0.59841,-0.14715,9.819809999999999
3944444405,21.65,0.0,0.0,0.0,0.59841,-0.17658,9.760950000000001
3949494910,21.65,0.0,0.0,0.0,0.5886,-0.16677000000000003,9.79038
3954545415,21.65,0.0,0.0,0.0,0.59841,-0.17658,9.84924
3959595920,21.65,0.0,0.0,0.0,0.59841,-0.14715,9.83943
3964646425,21.65,0.0,0.0,0.0,0.60822,-0.16677000000000003,9.80019
3969696930,21.65,0.0,0.0,0.0,0.60822,-0.13734000000000002,9.751140000000001
3974747435,21.65,0.0,0.0,0.0,0.59841,-0.15696000000000002,9.81
3979797940,21.65,0.0,0.0,0.0,0.60822,-0.14715,9.819809999999999
3984848445,21.65,0.0,0.0,0.0,0.60822,-0.16677000000000003,9.85905
3989898950,21.65,0.0,0.0,0.0,0.60822,-0.14715,9.81
3994949455,21.65,0.0,0.0,0.0,0.59841,-0.13734000000000002,9.760950000000001
3999999960,21.65,0.0,0.0,0.0,0.59841,-0.15696000000000002,9.80019
4005050465,21.65,0.0,0.0,0.0,0.60822,-0.16677000000000003,9.82962
4010100970,21.65,0.0,0.0,0.0,0.6180300000000001,-0.16677000000000003,9.86886
4015151475,21.65,0.0,0.0,0.0,0.60822,-0.14715,9.84924
4020201980,21.65,0.0,0.0,0.0,0.60822,-0.17658,9.79038
4025252485,21.65,0.0,0.0,0.0,0.60822,-0.18639,9.78057
4030302990,21.65,0.0,0.0,0.0,0.6180300000000001,-0.14715,9.80019
4035353495,21.65,0.0,0.0,0.0,0.59841,-0.15696000000000002,9.85905
4040404000,21.65,0.0,0.0,0.0,0.60822,-0.17658,9.82962
4045454505,21.65,0.0,0.0,0.0,0.5886,-0.17658,9.81
4050505010,21.65,0.0,0.0,0.0,0.60822,-0.13734000000000002,9.80019
4055555515,21.65,0.0,0.0,0.0,0.60822,-0.16677000000000003,9.81
4060606020,21.65,0.0,0.0,0.0,0.57879,-0.15696000000000002,9.83943
4065656525,21.65,0.0,0.0,0.0,0.60822,-0.13734000000000002,9.79038
4070707030,21.65,0.0,0.0,0.0,0.59841,-0.13734000000000002,9.80019
4075757535,21.65,0.0,0.0,0.0,0.60822,-0.13734000000000002,9.81
4080808040,21.65,0.0,0.0,0.0,0.5886,-0.15696000000000002,9.82962
4085858545,21.65,0.0,0.0,0.0,0.59841,-0.17658,9.819809999999999
4090909050,21.65,0.0,0.0,0.0,0.60822,-0.13734000000000002,9.79038
4095959555,21.65,0.0,0.0,0.0,0.59841,-0.16677000000000003,9.81
4101010060,21.65,0.0,0.0,0.0,0.5886,-0.17658,9.819809999999999
4106060565,21.65,0.0,0.0,0.0,0.60822,-0.17658,9.80019
4111111070,21.65,0.0,0.0,0.0,0.60822,-0.15696000000000002,9.79038
4116161575,21.65,0.0,0.0,0.0,0.5886,-0.17658,9.81
4121212080,21.65,0.0,0.0,0.0,0.6180300000000001,-0.18639,9.82962
4126262585,21.65,0.0,0.0,0.0,0.57879,-0.16677000000000003,9.82962
4131313090,21.65,0.0,0.0,0.0,0.59841,-0.16677000000000003,9.80019
4136363595,21.65,0.0,0.0,0.0,0.60822,-0.15696000000000002,9.770760000000001
4141414100,21.65,0.0,0.0,0.0,0.5886,-0.14715,9.770760000000001
4146464605,21.65,0.0,0.0,0.0,0.59841,-0.14715,9.83943
4151515110,21.65,0.0,0.0,0.0,0.60822,-0.14715,9.85905
4156565615,21.65,0.0,0.0,0.0,0.60822,-0.16677000000000003,9.81
4161616120,21.65,0.0,0.0,0.0,0.59841,-0.15696000000000002,9.770760000000001
4166666625,21.65,0.0,0.0,0.0,0.59841,-0.15696000000000002,9.751140000000001
4171717130,21.65,0.0,0.0,0.0,0.5886,-0.16677000000000003,9.81
4176767635,21.65,0.0,0.0,0.0,0.60822,-0.17658,9.86886
4181818140,21.65,0.0,0.0,0.0,0.60822,-0.13734000000000002,9.82962
4186868645,21.65,0.0,0.0,0.0,0.60822,-0.1962,9.770760000000001
4191919150,21.65,0.0,0.0,0.0,0.60822,-0.15696000000000002,9.78057
4196969655,21.65,0.0,0.0,0.0,0.6180300000000001,-0.14715,9.81
4202020160,21.65,0.0,0.0,0.0,0.60822,-0.17658,9.84924
4207070665,21.65,0.0,0.0,0.0,0.60822,-0.16677000000000003,9.82962
4212121170,21.65,0.0,0.0,0.0,0.59841,-0.13734000000000002,9.770760000000001
4217171675,21.65,0.0,0.0,0.0,0.5886,-0.13734000000000002,9.78057
4222222180,21.65,0.0,0.0,0.0,0.60822,-0.14715,9.84924
4227272685,21.65,0.0,0.0,0.0,0.59841,-0.16677000000000003,9.85905
4232323190,21.65,0.0,0.0,0.0,0.59841,-0.17658,9.82962
4237373695,21.65,0.0,0.0,0.0,0.59841,-0.16677000000000003,9.760950000000001
4242424200,21.65,0.0,0.0,0.0,0.60822,-0.15696000000000002,9.770760000000001
4247474705,21.65,0.0,0.0,0.0,0.6180300000000001,-0.15696000000000002,9.81
4252525210,21.65,0.0,0.0,0.0,0.59841,-0.14715,9.85905
4257575715,21.65,0.0,0.0,0.0,0.6180300000000001,-0.16677000000000003,9.83943
4262626220,21.65,0.0,0.0,0.0,0.60822,-0.15696000000000002,9.80019
4267676725,21.65,0.0,0.0,0.0,0.60822,-0.15696000000000002,9.78057
4272727230,21.65,0.0,0.0,0.0,0.6180300000000001,-0.15696000000000002,9.819809999999999
4277777735,21.65,0.0,0.0,0.0,0.60822,-0.13734000000000002,9.819809999999999
4282828240,21.65,0.0,0.0,0.0,0.60822,-0.14715,9.82962
4287878745,21.65,0.0,0.0,0.0,0.60822,-0.17658,9.80019
4292929250,21.65,0.0,0.0,0.0,0.60822,-0.16677000000000003,9.80019
4297979755,21.65,0.0,0.0,0.0,0.6180300000000001,-0.16677000000000003,9.80019
4303030260,21.65,0.0,0.0,0.0,0.6278400000000001,-0.15696000000000002,9.82962
4308080765,21.65,0.0,0.0,0.0,0.5886,-0.17658,9.82962
4313131270,21.65,0.0,0.0,0.0,0.59841,-0.16677000000000003,9.819809999999999
4318181775,21.65,0.0,0.0,0.0,0.59841,-0.16677000000000003,9.81
4323232280,21.65,0.0,0.0,0.0,0.60822,-0.16677000000000003,9.80019
4328282785,21.65,0.0,0.0,0.0,0.6180300000000001,-0.16677000000000003,9.79038
4333333290,21.65,0.0,0.0,0.0,0.5886,-0.13734000000000002,9.81
4338383795,21.65,0.0,0.0,0.0,0.60822,-0.16677000000000003,9.83943
4343434300,21.65,0.0,0.0,0.0,0.57879,-0.14715,9.82962
4348484805,21.65,0.0,0.0,0.0,0.60822,-0.17658,9.79038
4353535310,21.65,0.0,0.0,0.0,0.59841,-0.16677000000000003,9.770760000000001
4358585815,21.65,0.0,0.0,0.0,0.59841,-0.15696000000000002,9.78057
4363636320,21.65,0.0,0.0,0.0,0.60822,-0.16677000000000003,9.819809999999999
4368686825,21.65,0.0,0.0,0.0,0.60822,-0.16677000000000003,9.82962
4373737330,21.65,0.0,0.0,0.0,0.60822,-0.16677000000000003,9.81
4378787835,21.65,0.0,0.0,0.0,0.59841,-0.16677000000000003,9.78057
4383838340,21.65,0.0,0.0,0.0,0.60822,-0.16677000000000003,9.770760000000001
4388888845,21.65,0.0,0.0,0.0,0.60822,-0.15696000000000002,9.83943
4393939350,21.65,0.0,0.0,0.0,0.6180300000000001,-0.14715,9.84924
4398989855,21.65,0.0,0.0,0.0,0.59841,-0.15696000000000002,9.81
4404040360,21.65,0.0,0.0,0.0,0.60822,-0.18639,9.74133
4409090865,21.65,0.0,0.0,0.0,0.60822,-0.14715,9.78057
4414141370,21.65,0.0,0.0,0.0,0.60822,-0.15696000000000002,9.81
4419191875,21.65,0.0,0.0,0.0,0.6278400000000001,-0.14715,9.84924
4424242380,21.65,0.0,0.0,0.0,0.6180300000000001,-0.16677000000000003,9.82962
4429292885,21.65,0.0,0.0,0.0,0.60822,-0.14715,9.79038
4434343390,21.65,0.0,0.0,0.0,0.5886,-0.16677000000000003,9.760950000000001
4439393895,21.65,0.0,0.0,0.0,0.59841,-0.15696000000000002,9.81
4444444400,21.65,0.0,0.0,0.0,0.59841,-0.17658,9.84924
4449494905,21.65,0.0,0.0,0.0,0.59841,-0.16677000000000003,9.83943
4454545410,21.65,0.0,0.0,0.0,0.5886,-0.15696000000000002,9.78057
4459595915,21.65,0.0,0.0,0.0,0.60822,-0.17658,9.760950000000001
4464646420,21.65,0.0,0.0,0.0,0.60822,-0.18639,9.81
4469696925,21.65,0.0,0.0,0.0,0.60822,-0.16677000000000003,9.83943
4474747430,21.65,0.0,0.0,0.0,0.6180300000000001,-0.15696000000000002,9.82962
4479797935,21.65,0.0,0.0,0.0,0.6180300000000001,-0.14715,9.79038
4484848440,21.65,0.0,0.0,0.0,0.60822,-0.18639,9.79038
4489898945,21.65,0.0,0.0,0.0,0.59841,-0.14715,9.819809999999999
4494949450,21.65,0.0,0.0,0.0,0.6180300000000001,-0.15696000000000002,9.82962
4499999955,21.65,0.0,0.0,0.0,0.59841,-0.15696000000000002,9.819809999999999
4505050460,21.65,0.0,0.0,0.0,0.60822,-0.18639,9.80019
4510100965,21.65,0.0,0.0,0.0,0.59841,-0.14715,9.81
4515151470,21.65,0.0,0.0,0.0,0.59841,-0.15696000000000002,9.84924
4520201975,21.65,0.0,0.0,0.0,0.59841,-0.14715,9.82962
4525252480,21.65,0.0,0.0,0.0,0.6278400000000001,-0.16677000000000003,9.80019
4530302985,21.65,0.0,0.0,0.0,0.5886,-0.16677000000000003,9.79038
4535353490,21.65,0.0,0.0,0.0,0.59841,-0.17658,9.819809999999999
4540403995,21.65,0.0,0.0,0.0,0.5886,-0.17658,9.84924
4545454500,21.65,0.0,0.0,0.0,0.5886,-0.16677000000000003,9.80019
4550505005,21.65,0.0,0.0,0.0,0.60822,-0.14715,9.819809999999999
4555555510,21.65,0.0,0.0,0.0,0.59841,-0.17658,9.81
4560606015,21.65,0.0,0.0,0.0,0.6180300000000001,-0.14715,9.819809999999999
4565656520,21.65,0.0,0.0,0.0,0.60822,-0.17658,9.83943
4570707025,21.65,0.0,0.0,0.0,0.60822,-0.14715,9.80019
4575757530,21.65,0.0,0.0,0.0,0.59841,-0.14715,9.78057
4580808035,21.65,0.0,0.0,0.0,0.60822,-0.14715,9.81
4585858540,21.65,0.0,0.0,0.0,0.5886,-0.14715,9.82962
4590909045,21.65,0.0,0.0,0.0,0.6180300000000001,-0.15696000000000002,9.81
4595959550,21.65,0.0,0.0,0.0,0.59841,-0.16677000000000003,9.80019
4601010055,21.65,0.0,0.0,0.0,0.5886,-0.15696000000000002,9.78057
4606060560,21.65,0.0,0.0,0.0,0.59841,-0.13734000000000002,9.81
4611111065,21.65,0.0,0.0,0.0,0.6278400000000001,-0.15696000000000002,9.82962
4616161570,21.65,0.0,0.0,0.0,0.6180300000000001,-0.15696000000000002,9.83943
4621212075,21.65,0.0,0.0,0.0,0.60822,-0.18639,9.80019
4626262580,21.65,0.0,0.0,0.0,0.60822,-0.13734000000000002,9.74133
4631313085,21.65,0.0,0.0,0.0,0.6180300000000001,-0.16677000000000003,9.819809999999999
4636363590,21.65,0.0,0.0,0.0,0.59841,-0.15696000000000002,9.83943
4641414095,21.65,0.0,0.0,0.0,0.60822,-0.17658,9.82962
4646464600,21.65,0.0,0.0,0.0,0.59841,-0.16677000000000003,9.78057
4651515105,21.65,0.0,0.0,0.0,0.5886,-0.17658,9.80019
4656565610,21.65,0.0,0.0,0.0,0.59841,-0.15696000000000002,9.819809999999999
4661616115,21.65,0.0,0.0,0.0,0.56898,-0.18639,9.86886
4666666620,21.65,0.0,0.0,0.0,0.57879,-0.16677000000000003,9.81
4671717125,21.65,0.0,0.0,0.0,0.60822,-0.17658,9.78057
4676767630,21.65,0.0,0.0,0.0,0.60822,-0.12753,9.79038
4681818135,21.65,0.0,0.0,0.0,0.59841,-0.16677000000000003,9.819809999999999
4686868640,21.65,0.0,0.0,0.0,0.5886,-0.15696000000000002,9.83943
4691919145,21.65,0.0,0.0,0.0,0.59841,-0.17658,9.81
4696969650,21.65,0.0,0.0,0.0,0.6278400000000001,-0.15696000000000002,9.78057
4702020155,21.65,0.0,0.0,0.0,0.60822,-0.15696000000000002,9.78057
4707070660,21.65,0.0,0.0,0.0,0.59841,-0.15696000000000002,9.81
4712121165,21.65,0.0,0.0,0.0,0.5886,-0.14715,9.85905
4717171670,21.65,0.0,0.0,0.0,0.59841,-0.15696000000000002,9.819809999999999
4722222175,21.65,0.0,0.0,0.0,0.59841,-0.15696000000000002,9.770760000000001
4727272680,21.65,0.0,0.0,0.0,0.59841,-0.16677000000000003,9.79038
4732323185,21.65,0.0,0.0,0.0,0.6180300000000001,-0.13734000000000002,9.819809999999999
4737373690,21.65,0.0,0.0,0.0,0.6278400000000001,-0.12753,9.86886
4742424195,21.65,0.0,0.0,0.0,0.5886,-0.14715,9.81
4747474700,21.65,0.0,0.0,0.0,0.60822,-0.15696000000000002,9.770760000000001
4752525205,21.65,0.0,0.0,0.0,0.59841,-0.15696000000000002,9.751140000000001
4757575710,21.65,0.0,0.0,0.0,0.5886,-0.15696000000000002,9.819809999999999
4762626215,21.65,0.0,0.0,0.0,0.57879,-0.17658,9.87867
4767676720,21.65,0.0,0.0,0.0,0.59841,-0.15696000000000002,9.819809999999999
4772727225,21.65,0.0,0.0,0.0,0.60822,-0.15696000000000002,9.770760000000001
4777777730,21.65,0.0,0.0,0.0,0.59841,-0.15696000000000002,9.79038
4782828235,21.65,0.0,0.0,0.0,0.59841,-0.15696000000000002,9.819809999999999
4787878740,21.65,0.0,0.0,0.0,0.6278400000000001,-0.15696000000000002,9.84924
4792929245,21.65,0.0,0.0,0.0,0.59841,-0.15696000000000002,9.81
4797979750,21.65,0.0,0.0,0.0,0.59841,-0.15696000000000002,9.79038
4803030255,21.65,0.0,0.0,0.0,0.6180300000000001,-0.16677000000000003,9.80019
4808080760,21.65,0.0,0.0,0.0,0.60822,-0.15696000000000002,9.82962
4813131265,21.65,0.0,0.0,0.0,0.60822,-0.14715,9.84924
4818181770,21.65,0.0,0.0,0.0,0.60822,-0.17658,9.819809999999999
4823232275,21.65,0.0,0.0,0.0,0.60822,-0.17658,9.80019
4828282780,21.65,0.0,0.0,0.0,0.60822,-0.17658,9.80019
4833333285,21.65,0.0,0.0,0.0,0.6180300000000001,-0.17658,9.81
4838383790,21.65,0.0,0.0,0.0,0.59841,-0.18639,9.81
4843434295,21.65,0.0,0.0,0.0,0.6180300000000001,-0.14715,9.80019
4848484800,21.65,0.0,0.0,0.0,0.59841,-0.13734000000000002,9.79038
4853535305,21.65,0.0,0.0,0.0,0.64746,-0.18639,9.82962
4858585810,21.65,0.0,0.0,0.0,0.59841,-0.17658,9.81
4863636315,21.65,0.0,0.0,0.0,0.59841,-0.14715,9.81
4868686820,21.65,0.0,0.0,0.0,0.60822,-0.16677000000000003,9.78057
4873737325,21.65,0.0,0.0,0.0,0.60822,-0.16677000000000003,9.81
4878787830,21.65,0.0,0.0,0.0,0.60822,-0.12753,9.83943
4883838335,21.65,0.0,0.0,0.0,0.60822,-0.14715,9.84924
4888888840,21.65,0.0,0.0,0.0,0.5886,-0.15696000000000002,9.770760000000001
4893939345,21.65,0.0,0.0,0.0,0.59841,-0.15696000000000002,9.78057
4898989850,21.65,0.0,0.0,0.0,0.60822,-0.17658,9.81
4904040355,21.65,0.0,0.0,0.0,0.60822,-0.16677000000000003,9.86886
4909090860,21.65,0.0,0.0,0.0,0.6278400000000001,-0.14715,9.84924
4914141365,21.65,0.0,0.0,0.0,0.60822,-0.15696000000000002,9.80019
4919191870,21.65,0.0,0.0,0.0,0.59841,-0.14715,9.760950000000001
4924242375,21.65,0.0,0.0,0.0,0.6180300000000001,-0.15696000000000002,9.80019
4929292880,21.65,0.0,0.0,0.0,0.5886,-0.15696000000000002,9.89829
4934343385,21.65,0.0,0.0,0.0,0.60822,-0.14715,9.84924
4939393890,21.65,0.0,0.0,0.0,0.5886,-0.15696000000000002,9.74133
4944444395,21.65,0.0,0.0,0.0,0.6180300000000001,-0.15696000000000002,9.73152
4949494900,21.65,0.0,0.0,0.0,0.5886,-0.13734000000000002,9.81
4954545405,21.65,0.0,0.0,0.0,0.60822,-0.16677000000000003,9.87867
4959595910,21.65,0.0,0.0,0.0,0.60822,-0.12753,9.83943
4964646415,21.65,0.0,0.0,0.0,0.60822,-0.17658,9.770760000000001
4969696920,21.65,0.0,0.0,0.0,0.60822,-0.16677000000000003,9.74133
4974747425,21.65,0.0,0.0,0.0,0.60822,-0.18639,9.78057
4979797930,21.65,0.0,0.0,0.0,0.60822,-0.14715,9.87867
4984848435,21.65,0.0,0.0,0.0,0.59841,-0.17658,9.85905
4989898940,21.65,0.0,0.0,0.0,0.59841,-0.15696000000000002,9.81
4994949445,21.65,0.0,0.0,0.0,0.60822,-0.16677000000000003,9.770760000000001
4999999950,21.65,0.0,0.0,0.0,0.59841,-0.13734000000000002,9.79038
5005050455,21.65,0.0,0.0,0.0,0.6180300000000001,-0.13734000000000002,9.84924
5010100960,21.65,0.0,0.0,0.0,0.60822,-0.15696000000000002,9.83943
5015151465,21.65,0.0,0.0,0.0,0.60822,-0.17658,9.81
5020201970,21.65,0.0,0.0,0.0,0.6278400000000001,-0.17658,9.78057
5025252475,21.65,0.0,0.0,0.0,0.60822,-0.18639,9.80019
5030302980,21.65,0.0,0.0,0.0,0.6278400000000001,-0.17658,9.86886
5035353485,21.65,0.0,0.0,0.0,0.5886,-0.17658,9.82962
5040403990,21.65,0.0,0.0,0.0,0.63765,-0.14715,9.79038
5045454495,21.65,0.0,0.0,0.0,0.60822,-0.13734000000000002,9.78057
5050505000,21.65,0.0,0.0,0.0,0.60822,-0.16677000000000003,9.819809999999999
5055555505,21.65,0.0,0.0,0.0,0.60822,-0.17658,9.82962
5060606010,21.65,0.0,0.0,0.0,0.6180300000000001,-0.16677000000000003,9.81
5065656515,21.65,0.0,0.0,0.0,0.60822,-0.16677000000000003,9.80019
5070707020,21.65,0.0,0.0,0.0,0.59841,-0.14715,9.770760000000001
5075757525,21.65,0.0,0.0,0.0,0.60822,-0.15696000000000002,9.819809999999999
5080808030,21.65,0.0,0.0,0.0,0.6278400000000001,-0.15696000000000002,9.81
5085858535,21.65,0.0,0.0,0.0,0.6278400000000001,-0.14715,9.80019
5090909040,21.65,0.0,0.0,0.0,0.60822,-0.15696000000000002,9.79038
5095959545,21.65,0.0,0.0,0.0,0.60822,-0.14715,9.78057
5101010050,21.65,0.0,0.0,0.0,0.6278400000000001,-0.12753,9.81
5106060555,21.65,0.0,0.0,0.0,0.60822,-0.14715,9.81
5111111060,21.65,0.0,0.0,0.0,0.6180300000000001,-0.15696000000000002,9.82962
5116161565,21.65,0.0,0.0,0.0,0.57879,-0.16677000000000003,9.81
5121212070,21.65,0.0,0.0,0.0,0.60822,-0.13734000000000002,9.81
5126262575,21.65,0.0,0.0,0.0,0.60822,-0.16677000000000003,9.819809999999999
5131313080,21.65,0.0,0.0,0.0,0.6180300000000001,-0.16677000000000003,9.819809999999999
5136363585,21.65,0.0,0.0,0.0,0.60822,-0.14715,9.81
5141414090,21.65,0.0,0.0,0.0,0.6180300000000001,-0.17658,9.81
5146464595,21.65,0.0,0.0,0.0,0.59841,-0.14715,9.82962
5151515100,21.65,0.0,0.0,0.0,0.59841,-0.14715,9.83943
5156565605,21.65,0.0,0.0,0.0,0.60822,-0.17658,9.80019
5161616110,21.65,0.0,0.0,0.0,0.60822,-0.14715,9.770760000000001
5166666615,21.65,0.0,0.0,0.0,0.60822,-0.17658,9.81
5171717120,21.65,0.0,0.0,0.0,0.60822,-0.14715,9.82962
5176767625,21.65,0.0,0.0,0.0,0.5886,-0.18639,9.79038
5181818130,21.65,0.0,0.0,0.0,0.60822,-0.15696000000000002,9.83943
5186868635,21.65,0.0,0.0,0.0,0.5886,-0.18639,9.83943
5191919140,21.65,0.0,0.0,0.0,0.60822,-0.15696000000000002,9.770760000000001
5196969645,21.65,0.0,0.0,0.0,0.6278400000000001,-0.17658,9.79038
5202020150,21.65,0.0,0.0,0.0,0.59841,-0.16677000000000003,9.85905
5207070655,21.65,0.0,0.0,0.0,0.60822,-0.16677000000000003,9.87867
5212121160,21.65,0.0,0.0,0.0,0.60822,-0.15696000000000002,9.78057
5217171665,21.65,0.0,0.0,0.0,0.5886,-0.16677000000000003,9.770760000000001
5222222170,21.65,0.0,0.0,0.0,0.60822,-0.15696000000000002,9.79038
5227272675,21.65,-0.007452555906015787,0.015987215948268057,0.0,0.65727,-0.24525000000000002,9.81
5232323180,21.65,-0.002129301687433082,0.06817256058289851,0.0,0.57879,-0.23544,9.79038
5237373685,21.65,-0.008517206749732328,0.09693558665576507,0.005323254218582705,0.5493600000000001,-0.12753,10.1043
5242424190,21.65,0.012775810124598492,0.16084954386379738,0.004258603374866164,0.30411,0.019620000000000002,9.80019
5247474695,21.65,-0.002129301687433082,0.12356931104119852,0.003193952531149623,0.12753,-0.11772,9.6138
5252525200,21.65,-0.001064650843716541,0.10545279340549739,0.007452555906015787,0.0,-0.10791,9.95715
5257575705,21.65,-0.021310470166850764,0.01918116847941768,-0.001064650843716541,-0.05886,-0.13734000000000002,10.006200000000002
5262626210,21.65,-0.01811651763570114,-0.028763026072866547,0.011711159280881954,0.12753,-0.17658,10.03563
5267676715,21.65,-0.02982767691658309,-0.11611675513518273,-0.00958185759344887,0.15696000000000002,-0.35316,9.98658
5272727220,21.65,-0.028763026072866547,-0.21731094516581398,-0.011711159280881954,0.44145,-0.51012,9.623610000000001
5277777725,21.65,-0.001064650843716541,-0.2279749068954993,-0.011711159280881954,0.6278400000000001,-0.49050000000000005,9.6138
5282828230,21.65,0.015987215948268057,-0.2599318854995155,-0.01064650843716541,0.8829,-0.45126,9.888480000000001
5287878735,21.65,0.04260348704118158,-0.18748326824923087,-0.002129301687433082,1.1477700000000002,-0.34335000000000004,9.770760000000001
5292929240,21.65,0.05220279792715039,-0.1288925652597812,-0.003193952531149623,1.16739,-0.30411,9.751140000000001
5297979745,21.65,0.06391395720803235,-0.046879543708567686,0.007452555906015787,1.16739,-0.0981,9.57456
5303030250,21.65,0.06817256058289851,0.008517206749732328,0.002129301687433082,0.9908100000000001,0.019620000000000002,9.53532
5308080755,21.65,0.06391395720803235,0.020245819323134222,0.001064650843716541,1.13796,0.23544,9.74133
5313131260,21.65,0.05220279792715039,0.039409534510031964,0.0,1.05948,0.36297,9.97677
5318181765,21.65,0.023439771854283843,0.0,0.0,1.00062,0.23544,10.06506
5323232270,21.65,-0.003193952531149623,0.01918116847941768,0.001064650843716541,1.00062,0.13734000000000002,10.045440000000001
5328282775,21.65,-0.03728023282259888,0.013840460968315033,-0.005323254218582705,0.8829,0.019620000000000002,9.48627
5333333280,21.65,-0.06178465552059926,0.05326744877086694,0.005323254218582705,0.94176,0.0,9.58437
5338383785,21.65,-0.05965535383316618,0.10012953918691468,-0.001064650843716541,0.7848,-0.13734000000000002,9.57456
5343434290,21.65,-0.05965535383316618,0.12037535851004891,0.003193952531149623,0.80442,-0.1962,10.06506
5348484795,21.65,-0.05646140130201656,0.16084954386379738,0.008517206749732328,0.6867000000000001,-0.25506,10.17297
5353535300,21.65,-0.06391395720803235,0.14913838458291545,-0.004258603374866164,0.51012,-0.33354000000000006,9.81
5358585805,21.65,-0.049008845396000776,0.17151350559348277,0.008517206749732328,0.41202000000000005,-0.41202000000000005,9.78057
5363636310,21.65,-0.04581489286485115,0.16831955306233315,0.00958185759344887,0.23544,-0.45126,9.80019
5368686815,21.65,-0.022375121010567305,0.15872024217636432,0.003193952531149623,0.11772,-0.41202000000000005,9.67266
5373737320,21.65,-0.011711159280881954,0.12037535851004891,0.007452555906015787,0.0,-0.38259000000000004,9.96696
5378787825,21.65,0.0170518667919846,0.10653489754173388,0.0,-0.009810000000000001,-0.32373,9.98658
5383838330,21.65,0.021310470166850764,0.028763026072866547,0.0,-0.06867000000000001,-0.20601000000000003,9.908100000000001
5388888835,21.65,0.031956978604016174,0.004258603374866164,0.0,-0.05886,-0.18639,9.57456
5393939340,21.65,0.023439771854283843,-0.06604325889546543,-0.003193952531149623,-0.04905,-0.11772,9.82962
5398989845,21.65,0.024504422698000388,-0.11185815176031658,0.003193952531149623,0.10791,-0.0981,9.760950000000001
5404040350,21.65,0.02769837522915001,-0.15659094048893124,-0.007452555906015787,0.15696000000000002,-0.10791,9.92772
5409090855,21.65,0.015987215948268057,-0.20985838925979816,-0.006387905062299246,0.3924,-0.11772,9.87867
5414141360,21.65,0.02663372438543347,-0.2183755960095305,-0.00958185759344887,0.56898,-0.16677000000000003,9.751140000000001
5419191865,21.65,0.023439771854283843,-0.23649211364523165,-0.01064650843716541,0.73575,-0.18639,9.74133
5424242370,21.65,0.02769837522915001,-0.20347048419749894,-0.002129301687433082,0.9319500000000001,-0.20601000000000003,9.74133
5429292875,21.65,0.022375121010567305,-0.18428931571808121,-0.01064650843716541,1.05948,-0.17658,9.91791
5434343380,21.65,0.021310470166850764,-0.13102186694721432,-0.003193952531149623,1.16739,-0.14715,9.82962
5439393885,21.65,0.024504422698000388,-0.08096582400001695,-0.006387905062299246,1.22625,-0.14715,9.69228
5444444390,21.65,0.031956978604016174,-0.028763026072866547,0.002129301687433082,1.20663,-0.06867000000000001,9.65304
5449494895,21.65,0.031956978604016174,0.02982767691658309,0.003193952531149623,1.19682,0.019620000000000002,9.7119
5454545400,21.65,0.0170518667919846,0.07030186227033158,0.002129301687433082,1.1281500000000002,0.039240000000000004,9.83943
5459595905,21.65,0.005323254218582705,0.12250466019748199,0.004258603374866164,0.9810000000000001,0.05886,9.79038
5464646410,21.65,-0.015987215948268057,0.13849187614575004,0.001064650843716541,0.84366,0.04905,9.760950000000001
5469696915,21.65,-0.02769837522915001,0.1555262896452147,0.00958185759344887,0.7651800000000001,0.05886,9.83943
5474747420,21.65,-0.04366813788489812,0.15446163880149816,0.004258603374866164,0.5886,-0.019620000000000002,9.86886
5479797925,21.65,-0.05113814708343386,0.1374272253020335,0.002129301687433082,0.5395500000000001,-0.08829,9.908100000000001
5484848430,21.65,-0.05326744877086694,0.12356931104119852,0.002129301687433082,0.40221,-0.21582,9.74133
5489898935,21.65,-0.05539675045830002,0.08841837990603273,0.001064650843716541,0.34335000000000004,-0.28449,9.70209
5494949440,21.65,-0.05220279792715039,0.06710790973918197,0.004258603374866164,0.31392000000000003,-0.38259000000000004,9.819809999999999
5499999945,21.65,-0.044732788728614664,0.0404741853537485,0.0,0.31392000000000003,-0.43164,9.97677
5505050450,21.65,-0.02556907354171693,0.005323254218582705,0.002129301687433082,0.30411,-0.47088,9.91791
5510100955,21.65,-0.005323254218582705,-0.014905111812031574,0.0,0.34335000000000004,-0.43164,9.84924
5515151460,21.65,0.013840460968315033,-0.03728023282259888,-0.003193952531149623,0.36297,-0.37278,9.67266
5520201965,21.65,0.03515093113516579,-0.054332099614583476,0.0,0.43164,-0.27468000000000004,9.69228
5525252470,21.65,0.046879543708567686,-0.044732788728614664,-0.001064650843716541,0.46107000000000004,-0.16677000000000003,9.91791
5530302975,21.65,0.04581489286485115,-0.04153883619746504,0.002129301687433082,0.51993,-0.11772,9.95715
5535353480,21.65,0.039409534510031964,-0.02556907354171693,0.0,0.51993,-0.02943,9.85905
5540403985,21.65,0.03621558197888234,-0.012775810124598492,0.0,0.49050000000000005,0.02943,9.67266
5545454490,21.65,0.03089232776029963,-0.011711159280881954,0.002129301687433082,0.48069000000000006,0.05886,9.633420000000001
5550504995,21.65,0.024504422698000388,0.0,0.001064650843716541,0.48069000000000006,0.08829,9.84924
5555555500,21.65,0.006387905062299246,-0.01064650843716541,0.001064650843716541,0.48069000000000006,0.04905,10.025820000000001
5560606005,21.65,-0.013840460968315033,-0.013840460968315033,0.0,0.50031,-0.009810000000000001,9.819809999999999
5565656510,21.65,-0.02982767691658309,-0.024504422698000388,-0.003193952531149623,0.51012,-0.08829,9.69228
5570707015,21.65,-0.03728023282259888,-0.03515093113516579,0.0,0.59841,-0.21582,9.74133
5575757520,21.65,-0.03621558197888234,-0.0404741853537485,0.001064650843716541,0.6278400000000001,-0.27468000000000004,9.86886
5580808025,21.65,-0.02982767691658309,-0.05326744877086694,-0.001064650843716541,0.6768900000000001,-0.34335000000000004,9.99639
5585858530,21.65,-0.01811651763570114,-0.05539675045830002,0.0,0.73575,-0.37278,9.83943
5590909035,21.65,-0.006387905062299246,-0.05965535383316618,-0.004258603374866164,0.7749900000000001,-0.38259000000000004,9.760950000000001
5595959540,21.65,0.005323254218582705,-0.05220279792715039,-0.001064650843716541,0.8240400000000001,-0.36297,9.760950000000001
5601010045,21.65,0.015987215948268057,-0.03728023282259888,0.0,0.87309,-0.28449,9.89829
5606060550,21.65,0.02982767691658309,-0.013840460968315033,-0.001064650843716541,0.85347,-0.20601000000000003,9.86886
5611111055,21.65,0.03621558197888234,0.008517206749732328,0.0,0.8338500000000001,-0.13734000000000002,9.74133
5616161560,21.65,0.04260348704118158,0.03089232776029963,0.002129301687433082,0.80442,-0.04905,9.60399
5621212065,21.65,0.0404741853537485,0.05113814708343386,0.0,0.73575,0.009810000000000001,9.67266
5626262570,21.65,0.02769837522915001,0.06923721142661506,0.006387905062299246,0.6867000000000001,0.12753,9.91791
5631313075,21.65,0.013840460968315033,0.07990117315630041,0.003193952531149623,0.5886,0.12753,9.95715
5636363580,21.65,-0.004258603374866164,0.08735372906231618,0.003193952531149623,0.48069000000000006,0.08829,9.80019
5641414085,21.65,-0.021310470166850764,0.08203047484373349,0.001064650843716541,0.43164,0.039240000000000004,9.58437
5646464590,21.65,-0.03408628029144926,0.07243116395776468,0.003193952531149623,0.38259000000000004,-0.02943,9.633420000000001
5651515095,21.65,-0.04260348704118158,0.05326744877086694,0.0,0.37278,-0.11772,9.86886
5656565600,21.65,-0.046879543708567686,0.03621558197888234,0.001064650843716541,0.34335000000000004,-0.23544,9.96696
5661616105,21.65,-0.046879543708567686,0.007452555906015787,0.0,0.35316,-0.33354000000000006,9.94734
5666666610,21.65,-0.044732788728614664,-0.014905111812031574,-0.001064650843716541,0.36297,-0.38259000000000004,9.73152
5671717115,21.65,-0.028763026072866547,-0.031956978604016174,0.0,0.43164,-0.42183,9.79038
5676767620,21.65,-0.01064650843716541,-0.05007349623971732,-0.001064650843716541,0.49050000000000005,-0.46107000000000004,9.91791
5681818125,21.65,0.004258603374866164,-0.06710790973918197,0.0,0.5493600000000001,-0.40221,9.95715
5686868630,21.65,0.022375121010567305,-0.07456046564519776,-0.001064650843716541,0.60822,-0.35316,9.81
5691919135,21.65,0.03089232776029963,-0.07990117315630041,-0.001064650843716541,0.63765,-0.30411,9.74133
5696969640,21.65,0.04581489286485115,-0.06923721142661506,0.0,0.73575,-0.21582,9.81
5702020145,21.65,0.05220279792715039,-0.06178465552059926,-0.001064650843716541,0.7749900000000001,-0.10791,9.91791
5707070650,21.65,0.049008845396000776,-0.0404741853537485,0.0,0.80442,-0.04905,9.92772
5712121155,21.65,0.04366813788489812,-0.01918116847941768,0.0,0.7749900000000001,0.019620000000000002,9.78057
5717171660,21.65,0.03515093113516579,-0.002129301687433082,0.001064650843716541,0.75537,0.07848000000000001,9.6138
5722222165,21.65,0.023439771854283843,0.01918116847941768,0.004258603374866164,0.73575,0.11772,9.7119
5727272670,21.65,0.008517206749732328,0.03408628029144926,0.001064650843716541,0.6867000000000001,0.10791,9.83943
5732323175,21.65,-0.01064650843716541,0.05113814708343386,0.002129301687433082,0.63765,0.05886,9.819809999999999
5737373680,21.65,-0.02663372438543347,0.054332099614583476,-0.001064650843716541,0.60822,0.0,9.74133
5742424185,21.65,-0.03515093113516579,0.05007349623971732,0.002129301687433082,0.57879,-0.07848000000000001,9.66285
5747474690,21.65,-0.039409534510031964,0.04153883619746504,0.004258603374866164,0.56898,-0.14715,9.81
5752525195,21.65,-0.04260348704118158,0.022375121010567305,0.001064650843716541,0.52974,-0.24525000000000002,9.98658
5757575700,21.65,-0.04153883619746504,0.008517206749732328,0.0,0.5591700000000001,-0.31392000000000003,9.92772
5762626205,21.65,-0.03728023282259888,-0.007452555906015787,0.0,0.56898,-0.40221,9.74133
5767676710,21.65,-0.01918116847941768,-0.015987215948268057,0.0,0.57879,-0.42183,9.70209
5772727215,21.65,-0.002129301687433082,-0.022375121010567305,-0.002129301687433082,0.60822,-0.38259000000000004,9.770760000000001
5777777720,21.65,0.00958185759344887,-0.022375121010567305,0.002129301687433082,0.65727,-0.36297,9.908100000000001
5782828225,21.65,0.022375121010567305,-0.01811651763570114,-0.001064650843716541,0.63765,-0.26487,9.937529999999999
5787878730,21.65,0.031956978604016174,-0.008517206749732328,-0.003193952531149623,0.63765,-0.18639,9.751140000000001
5792929235,21.65,0.0404741853537485,0.003193952531149623,0.0,0.63765,-0.08829,9.73152
5797979740,21.65,0.0404741853537485,0.020245819323134222,0.003193952531149623,0.60822,0.0,9.80019
5803030245,21.65,0.03089232776029963,0.02982767691658309,0.003193952531149623,0.57879,0.04905,9.937529999999999
5808080750,21.65,0.015987215948268057,0.03834488366631542,0.003193952531149623,0.50031,0.04905,9.80019
5813131255,21.65,0.001064650843716541,0.039409534510031964,0.0,0.46107000000000004,0.04905,9.64323
5818181760,21.65,-0.006387905062299246,0.0404741853537485,0.003193952531149623,0.45126,0.0,9.70209
5823232265,21.65,-0.015987215948268057,0.03621558197888234,0.002129301687433082,0.43164,-0.02943,9.908100000000001
5828282770,21.65,-0.02556907354171693,0.023439771854283843,0.002129301687433082,0.42183,-0.0981,10.025820000000001
5833333275,21.65,-0.031956978604016174,0.01064650843716541,0.0,0.41202000000000005,-0.1962,9.86886
5838383780,21.65,-0.03408628029144926,-0.01064650843716541,-0.002129301687433082,0.40221,-0.30411,9.67266
5843434285,21.65,-0.028763026072866547,-0.02556907354171693,0.0,0.44145,-0.33354000000000006,9.70209
5848484790,21.65,-0.020245819323134222,-0.044732788728614664,-0.002129301687433082,0.5395500000000001,-0.36297,9.89829
5853535295,21.65,-0.007452555906015787,-0.060720004676882725,0.0,0.57879,-0.40221,10.01601
5858585800,21.65,0.005323254218582705,-0.07349581480148122,-0.005323254218582705,0.65727,-0.35316,9.87867
5863636305,21.65,0.020245819323134222,-0.08309512568745003,-0.005323254218582705,0.70632,-0.31392000000000003,9.65304
5868686810,21.65,0.03089232776029963,-0.0756251164889143,0.0,0.73575,-0.24525000000000002,9.68247
5873737315,21.65,0.0404741853537485,-0.06497860805174888,0.0,0.8338500000000001,-0.15696000000000002,9.888480000000001
5878787820,21.65,0.04366813788489812,-0.05113814708343386,0.001064650843716541,0.86328,-0.08829,9.95715
5883838325,21.65,0.0404741853537485,-0.03515093113516579,-0.001064650843716541,0.85347,-0.04905,9.83943
5888888830,21.65,0.033021629447732716,-0.01918116847941768,0.0,0.8142300000000001,0.0,9.65304
5893939335,21.65,0.028763026072866547,0.001064650843716541,-0.001064650843716541,0.8142300000000001,0.04905,9.60399
5898989840,21.65,0.01918116847941768,0.02663372438543347,0.001064650843716541,0.79461,0.0981,9.760950000000001
5904040345,21.65,0.006387905062299246,0.05007349623971732,0.003193952531149623,0.7749900000000001,0.07848000000000001,9.98658
5909090850,21.65,-0.012775810124598492,0.07456046564519776,0.001064650843716541,0.69651,0.0,9.84924
5914141355,21.65,-0.02769837522915001,0.08415977653116657,-0.001064650843716541,0.60822,-0.009810000000000001,9.6138
5919191860,21.65,-0.03621558197888234,0.08415977653116657,0.005323254218582705,0.52974,-0.039240000000000004,9.69228
5924242365,21.65,-0.044732788728614664,0.08203047484373349,0.006387905062299246,0.49050000000000005,-0.13734000000000002,9.89829
5929292870,21.65,-0.04581489286485115,0.06710790973918197,0.005323254218582705,0.48069000000000006,-0.23544,10.045440000000001
5934343375,21.65,-0.04581489286485115,0.044732788728614664,0.0,0.41202000000000005,-0.34335000000000004,9.888480000000001
5939393880,21.65,-0.04153883619746504,0.022375121010567305,0.0,0.3924,-0.38259000000000004,9.70209
5944444385,21.65,-0.02769837522915001,0.003193952531149623,0.0,0.43164,-0.43164,9.73152
5949494890,21.65,-0.008517206749732328,-0.00958185759344887,0.0,0.45126,-0.40221,9.94734
5954545395,21.65,0.008517206749732328,-0.013840460968315033,0.002129301687433082,0.51012,-0.38259000000000004,10.06506
5959595900,21.65,0.014905111812031574,-0.021310470166850764,-0.002129301687433082,0.49050000000000005,-0.32373,9.888480000000001
5964646405,21.65,0.028763026072866547,-0.02982767691658309,-0.001064650843716541,0.50031,-0.23544,9.6138
5969696910,21.65,0.03621558197888234,-0.031956978604016174,0.001064650843716541,0.49050000000000005,-0.13734000000000002,9.64323
5974747415,21.65,0.03834488366631542,-0.02556907354171693,0.002129301687433082,0.5493600000000001,-0.05886,9.908100000000001
5979797920,21.65,0.03728023282259888,-0.01811651763570114,-0.001064650843716541,0.5493600000000001,-0.009810000000000001,9.97677
5984848425,21.65,0.02663372438543347,-0.011711159280881954,-0.002129301687433082,0.5493600000000001,-0.019620000000000002,9.81
5989898930,21.65,0.0170518667919846,-0.005323254218582705,-0.001064650843716541,0.52974,0.009810000000000001,9.623610000000001
5994949435,21.65,0.006387905062299246,0.0,0.0,0.51012,0.02943,9.58437
5999999940,21.65,-0.001064650843716541,0.0,0.005323254218582705,0.5395500000000001,0.009810000000000001,9.84924
6005050445,21.65,-0.01064650843716541,-0.003193952531149623,0.003193952531149623,0.5493600000000001,-0.04905,10.01601
6010100950,21.65,-0.022375121010567305,-0.020245819323134222,-0.001064650843716541,0.5493600000000001,-0.13734000000000002,9.888480000000001
6015151455,21.65,-0.02556907354171693,-0.03515093113516579,0.0,0.59841,-0.21582,9.64323
6020201960,21.65,-0.02663372438543347,-0.05539675045830002,0.0,0.60822,-0.28449,9.68247
6025252465,21.65,-0.01918116847941768,-0.06604325889546543,0.0,0.72594,-0.32373,9.85905
6030302970,21.65,-0.01064650843716541,-0.07136651311404815,0.0,0.8240400000000001,-0.36297,9.99639
6035353475,21.65,-0.003193952531149623,-0.06391395720803235,-0.002129301687433082,0.85347,-0.36297,9.89829
6040403980,21.65,0.008517206749732328,-0.05007349623971732,-0.004258603374866164,0.89271,-0.2943,9.751140000000001
6045454485,21.65,0.024504422698000388,-0.03728023282259888,0.0,0.9123300000000001,-0.23544,9.68247
6050504990,21.65,0.033021629447732716,-0.014905111812031574,0.0,0.9221400000000001,-0.17658,9.78057
6055555495,21.65,0.033021629447732716,0.01064650843716541,0.002129301687433082,0.9123300000000001,-0.0981,9.94734
6060606000,21.65,0.02982767691658309,0.03728023282259888,0.0,0.8338500000000001,-0.039240000000000004,9.87867
6065656505,21.65,0.02769837522915001,0.06284930636431581,0.0,0.7749900000000001,0.009810000000000001,9.67266
6070707010,21.65,0.01811651763570114,0.09054768159346581,0.003193952531149623,0.6768900000000001,0.06867000000000001,9.623610000000001
6075757515,21.65,0.004258603374866164,0.11292280260403312,0.003193952531149623,0.57879,0.11772,9.73152
6080808020,21.65,-0.01064650843716541,0.12676326357234816,0.004258603374866164,0.47088,0.10791,9.888480000000001
6085858525,21.65,-0.028763026072866547,0.12356931104119852,0.004258603374866164,0.3924,0.02943,9.908100000000001
6090909030,21.65,-0.04260348704118158,0.1097288500728835,0.001064650843716541,0.30411,-0.06867000000000001,9.81
6095959535,21.65,-0.05007349623971732,0.08309512568745003,0.004258603374866164,0.20601000000000003,-0.17658,9.74133
6101010040,21.65,-0.05326744877086694,0.049008845396000776,0.001064650843716541,0.18639,-0.27468000000000004,9.81
6106060545,21.65,-0.049008845396000776,0.01064650843716541,0.0,0.17658,-0.35316,9.85905
6111111050,21.65,-0.0404741853537485,-0.02556907354171693,-0.001064650843716541,0.21582,-0.43164,9.888480000000001
6116161555,21.65,-0.024504422698000388,-0.05646140130201656,-0.003193952531149623,0.32373,-0.47088,9.86886
6121212060,21.65,-0.008517206749732328,-0.08096582400001695,-0.005323254218582705,0.40221,-0.45126,9.83943
6126262565,21.65,0.01064650843716541,-0.09693558665576507,-0.003193952531149623,0.51012,-0.41202000000000005,9.86886
6131313070,21.65,0.031956978604016174,-0.10225884087434776,-0.002129301687433082,0.5886,-0.35316,9.84924
6136363575,21.65,0.04581489286485115,-0.10438814256178083,-0.002129301687433082,0.6670800000000001,-0.25506,9.819809999999999
6141414080,21.65,0.05539675045830002,-0.10119419003063122,-0.001064650843716541,0.70632,-0.18639,9.78057
6146464585,21.65,0.05539675045830002,-0.08948303074974927,-0.002129301687433082,0.7848,-0.0981,9.81
6151515090,21.65,0.05646140130201656,-0.06923721142661506,-0.002129301687433082,0.8338500000000001,0.0,9.819809999999999
6156565595,21.65,0.046879543708567686,-0.049008845396000776,-0.001064650843716541,0.86328,0.019620000000000002,9.81
6161616100,21.65,0.03408628029144926,-0.023439771854283843,-0.001064650843716541,0.87309,0.07848000000000001,9.74133
6166666605,21.65,0.0170518667919846,-0.002129301687433082,0.0,0.8338500000000001,0.08829,9.7119
6171717110,21.65,0.004258603374866164,0.01811651763570114,0.0,0.8240400000000001,0.11772,9.74133
6176767615,21.65,-0.01064650843716541,0.03408628029144926,-0.001064650843716541,0.7749900000000001,0.039240000000000004,9.819809999999999
6181818120,21.65,-0.02663372438543347,0.044732788728614664,0.003193952531149623,0.7651800000000001,-0.019620000000000002,9.82962
6186868625,21.65,-0.04153883619746504,0.05326744877086694,0.0,0.71613,-0.06867000000000001,9.78057
6191919130,21.65,-0.04366813788489812,0.05220279792715039,0.0,0.63765,-0.17658,9.72171
6196969635,21.65,-0.04260348704118158,0.04581489286485115,0.001064650843716541,0.65727,-0.25506,9.751140000000001
6202020140,21.65,-0.04153883619746504,0.044732788728614664,0.0,0.6180300000000001,-0.32373,9.89829
6207070645,21.65,-0.03728023282259888,0.039409534510031964,0.0,0.59841,-0.37278,9.937529999999999
6212121150,21.65,-0.02556907354171693,0.03728023282259888,0.0,0.59841,-0.36297,9.81
6217171655,21.65,-0.008517206749732328,0.02982767691658309,0.001064650843716541,0.5493600000000001,-0.34335000000000004,9.72171
6222222160,21.65,0.004258603374866164,0.03089232776029963,0.0,0.51993,-0.2943,9.80019
6227272665,21.65,0.012775810124598492,0.02663372438543347,0.001064650843716541,0.52974,-0.24525000000000002,9.82962
6232323170,21.65,0.0170518667919846,0.01918116847941768,0.0,0.46107000000000004,-0.17658,9.87867
6237373675,21.65,0.02663372438543347,0.020245819323134222,0.0,0.46107000000000004,-0.08829,9.85905
6242424180,21.65,0.02982767691658309,0.013840460968315033,0.0,0.41202000000000005,-0.05886,9.760950000000001
6247474685,21.65,0.021310470166850764,0.012775810124598492,0.0,0.44145,-0.039240000000000004,9.770760000000001
6252525190,21.65,0.01064650843716541,0.00958185759344887,0.0,0.41202000000000005,-0.009810000000000001,9.85905
6257575695,21.65,0.003193952531149623,0.0,-0.002129301687433082,0.38259000000000004,-0.039240000000000004,9.888480000000001
6262626200,21.65,-0.005323254218582705,-0.0,-0.001064650843716541,0.40221,-0.07848000000000001,9.79038
6267676705,21.65,-0.01064650843716541,-0.01064650843716541,0.001064650843716541,0.3924,-0.12753,9.751140000000001
6272727210,21.65,-0.015987215948268057,-0.02769837522915001,0.0,0.45126,-0.17658,9.770760000000001
6277777715,21.65,-0.020245819323134222,-0.046879543708567686,-0.001064650843716541,0.49050000000000005,-0.21582,9.908100000000001
6282828220,21.65,-0.012775810124598492,-0.06284930636431581,-0.001064650843716541,0.57879,-0.27468000000000004,9.95715
6287878725,21.65,-0.01064650843716541,-0.07777187146886733,0.0,0.6278400000000001,-0.35316,9.85905
6292929230,21.65,-0.004258603374866164,-0.08735372906231618,-0.002129301687433082,0.70632,-0.35316,9.760950000000001
6297979735,21.65,0.002129301687433082,-0.09054768159346581,-0.005323254218582705,0.79461,-0.34335000000000004,9.770760000000001
6303030240,21.65,0.015987215948268057,-0.07883652231258387,-0.001064650843716541,0.8829,-0.26487,9.82962
6308080745,21.65,0.02663372438543347,-0.05539675045830002,-0.002129301687433082,0.9221400000000001,-0.22563,9.82962
6313131250,21.65,0.03408628029144926,-0.033021629447732716,-0.001064650843716541,0.9221400000000001,-0.15696000000000002,9.79038
6318181755,21.65,0.03515093113516579,-0.003193952531149623,0.0,0.9221400000000001,-0.08829,9.751140000000001
6323232260,21.65,0.03408628029144926,0.028763026072866547,0.002129301687433082,0.89271,-0.009810000000000001,9.73152
6328282765,21.65,0.02769837522915001,0.05965535383316618,0.001064650843716541,0.8142300000000001,0.04905,9.770760000000001
6333333270,21.65,0.0170518667919846,0.0852244273748831,0.004258603374866164,0.69651,0.10791,9.78057
6338383775,21.65,0.0,0.10866419922916695,0.005323254218582705,0.60822,0.07848000000000001,9.83943
6343434280,21.65,-0.01811651763570114,0.12037535851004891,0.005323254218582705,0.49050000000000005,0.05886,9.70209
6348484785,21.65,-0.02769837522915001,0.11931070766633237,0.001064650843716541,0.41202000000000005,0.009810000000000001,9.7119
6353535290,21.65,-0.04153883619746504,0.10438814256178083,0.003193952531149623,0.33354000000000006,-0.04905,9.87867
6358585795,21.65,-0.05113814708343386,0.0852244273748831,0.003193952531149623,0.27468000000000004,-0.17658,9.97677
6363636300,21.65,-0.05539675045830002,0.05646140130201656,0.004258603374866164,0.24525000000000002,-0.28449,9.87867
6368686805,21.65,-0.05007349623971732,0.007452555906015787,0.0,0.25506,-0.38259000000000004,9.81
6373737310,21.65,-0.0404741853537485,-0.04260348704118158,0.0,0.32373,-0.45126,9.80019
6378787815,21.65,-0.02663372438543347,-0.07777187146886733,-0.001064650843716541,0.37278,-0.50031,9.83943
6383838320,21.65,-0.01064650843716541,-0.10653489754173388,-0.005323254218582705,0.51012,-0.50031,9.92772
6388888825,21.65,0.011711159280881954,-0.11931070766633237,-0.005323254218582705,0.60822,-0.46107000000000004,9.95715
6393939330,21.65,0.03408628029144926,-0.1288925652597812,-0.004258603374866164,0.6670800000000001,-0.42183,9.81
6398989835,21.65,0.049008845396000776,-0.12144000935376545,-0.003193952531149623,0.8142300000000001,-0.27468000000000004,9.74133
6404040340,21.65,0.060720004676882725,-0.09480628496833199,-0.002129301687433082,0.89271,-0.17658,9.81
6409090845,21.65,0.06391395720803235,-0.06604325889546543,0.0,0.9123300000000001,-0.02943,9.86886
6414141350,21.65,0.06391395720803235,-0.02663372438543347,0.002129301687433082,0.9123300000000001,0.04905,9.82962
6419191855,21.65,0.054332099614583476,0.011711159280881954,0.0,0.87309,0.14715,9.70209
6424242360,21.65,0.03834488366631542,0.05539675045830002,0.0,0.80442,0.20601000000000003,9.66285
6429292865,21.65,0.014905111812031574,0.08841837990603273,0.004258603374866164,0.70632,0.22563,9.72171
6434343370,21.65,-0.002129301687433082,0.11292280260403312,0.006387905062299246,0.60822,0.1962,9.770760000000001
6439393875,21.65,-0.02556907354171693,0.11398745344774965,0.002129301687433082,0.52974,0.13734000000000002,9.83943
6444444380,21.65,-0.04794419455228423,0.10759954838545042,0.003193952531149623,0.42183,0.04905,9.83943
6449494885,21.65,-0.06710790973918197,0.08841837990603273,0.002129301687433082,0.35316,-0.0981,9.751140000000001
6454545390,21.65,-0.07456046564519776,0.060720004676882725,0.001064650843716541,0.34335000000000004,-0.21582,9.751140000000001
6459595895,21.65,-0.07456046564519776,0.021310470166850764,0.001064650843716541,0.30411,-0.41202000000000005,9.85905
6464646400,21.65,-0.06604325889546543,-0.01811651763570114,0.002129301687433082,0.40221,-0.51993,9.86886
6469696905,21.65,-0.049008845396000776,-0.04366813788489812,-0.002129301687433082,0.43164,-0.57879,9.82962
6474747410,21.65,-0.022375121010567305,-0.06817256058289851,-0.004258603374866164,0.52974,-0.57879,9.888480000000001
6479797915,21.65,0.008517206749732328,-0.08415977653116657,-0.001064650843716541,0.5886,-0.51012,9.84924
6484848420,21.65,0.02982767691658309,-0.09161233243718235,-0.003193952531149623,0.64746,-0.43164,9.79038
6489898925,21.65,0.05220279792715039,-0.09054768159346581,-0.002129301687433082,0.73575,-0.33354000000000006,9.84924
6494949430,21.65,0.06178465552059926,-0.08203047484373349,-0.002129301687433082,0.7749900000000001,-0.20601000000000003,9.86886
6499999935,21.65,0.06923721142661506,-0.06497860805174888,0.0,0.86328,-0.0981,9.82962
6505050440,21.65,0.07136651311404815,-0.04366813788489812,0.0,0.8240400000000001,0.039240000000000004,9.78057
6510100945,21.65,0.05859070298944965,-0.01064650843716541,0.0,0.8240400000000001,0.12753,9.7119
6515151450,21.65,0.04153883619746504,0.024504422698000388,0.002129301687433082,0.8142300000000001,0.1962,9.72171
6520201955,21.65,0.023439771854283843,0.05646140130201656,0.005323254218582705,0.72594,0.21582,9.751140000000001
6525252460,21.65,0.003193952531149623,0.08096582400001695,0.004258603374866164,0.64746,0.20601000000000003,9.770760000000001
6530302965,21.65,-0.01918116847941768,0.09906488834319814,0.002129301687433082,0.5591700000000001,0.13734000000000002,9.82962
6535353470,21.65,-0.046879543708567686,0.10119419003063122,0.001064650843716541,0.49050000000000005,0.06867000000000001,9.80019
6540403975,21.65,-0.06178465552059926,0.08948303074974927,0.001064650843716541,0.40221,-0.05886,9.73152
6545454480,21.65,-0.06710790973918197,0.06497860805174888,0.001064650843716541,0.3924,-0.21582,9.79038
6550504985,21.65,-0.06923721142661506,0.03728023282259888,0.005323254218582705,0.37278,-0.34335000000000004,9.86886
6555555490,21.65,-0.06391395720803235,0.013840460968315033,0.0,0.38259000000000004,-0.47088,9.85905
6560605995,21.65,-0.05007349623971732,-0.011711159280881954,-0.003193952531149623,0.43164,-0.51012,9.91791
6565656500,21.65,-0.02769837522915001,-0.03728023282259888,-0.002129301687433082,0.45126,-0.56898,9.86886
6570707005,21.65,0.0,-0.05646140130201656,0.0,0.51993,-0.51993,9.78057
6575757510,21.65,0.020245819323134222,-0.07243116395776468,-0.006387905062299246,0.5886,-0.44145,9.82962
6580808015,21.65,0.04153883619746504,-0.08415977653116657,-0.001064650843716541,0.64746,-0.36297,9.86886
6585858520,21.65,0.05646140130201656,-0.07990117315630041,-0.002129301687433082,0.70632,-0.22563,9.80019
6590909025,21.65,0.06817256058289851,-0.06604325889546543,-0.003193952531149623,0.7749900000000001,-0.07848000000000001,9.81
6595959530,21.65,0.06604325889546543,-0.039409534510031964,-0.002129301687433082,0.7651800000000001,0.009810000000000001,9.82962
6601010035,21.65,0.054332099614583476,-0.013840460968315033,0.002129301687433082,0.7651800000000001,0.10791,9.81
6606060540,21.65,0.04260348704118158,0.014905111812031574,0.0,0.71613,0.16677000000000003,9.68247
6611111045,21.65,0.02556907354171693,0.033021629447732716,0.001064650843716541,0.6867000000000001,0.1962,9.73152
6616161550,21.65,0.003193952531149623,0.04366813788489812,0.002129301687433082,0.59841,0.17658,9.80019
6621212055,21.65,-0.0170518667919846,0.04581489286485115,0.003193952531149623,0.57879,0.10791,9.82962
6626262560,21.65,-0.03834488366631542,0.04260348704118158,0.001064650843716541,0.52974,0.0,9.86886
6631313065,21.65,-0.05220279792715039,0.02769837522915001,0.0,0.5395500000000001,-0.11772,9.81
6636363570,21.65,-0.05859070298944965,0.013840460968315033,0.002129301687433082,0.5591700000000001,-0.21582,9.751140000000001
6641414075,21.65,-0.05859070298944965,-0.0,-0.001064650843716541,0.5591700000000001,-0.35316,9.78057
6646464580,21.65,-0.05007349623971732,-0.006387905062299246,-0.002129301687433082,0.59841,-0.44145,9.92772
6651515085,21.65,-0.03515093113516579,-0.005323254218582705,0.0,0.6180300000000001,-0.48069000000000006,9.908100000000001
6656565590,21.65,-0.012775810124598492,-0.004258603374866164,-0.001064650843716541,0.6180300000000001,-0.44145,9.80019
6661616095,21.65,0.003193952531149623,-0.007452555906015787,0.0,0.6278400000000001,-0.41202000000000005,9.751140000000001
6666666600,21.65,0.01811651763570114,-0.004258603374866164,0.001064650843716541,0.6278400000000001,-0.30411,9.770760000000001
6671717105,21.65,0.03408628029144926,-0.005323254218582705,0.002129301687433082,0.65727,-0.22563,9.87867
6676767610,21.65,0.04366813788489812,0.0,-0.001064650843716541,0.63765,-0.14715,9.89829
6681818115,21.65,0.046879543708567686,0.004258603374866164,0.001064650843716541,0.5886,-0.04905,9.81
6686868620,21.65,0.03728023282259888,0.008517206749732328,-0.002129301687433082,0.5886,0.019620000000000002,9.73152
6691919125,21.65,0.02982767691658309,0.0170518667919846,0.002129301687433082,0.56898,0.06867000000000001,9.74133
6696969630,21.65,0.01918116847941768,0.015987215948268057,0.002129301687433082,0.52974,0.06867000000000001,9.79038
6702020135,21.65,0.003193952531149623,0.015987215948268057,0.002129301687433082,0.52974,0.039240000000000004,9.86886
6707070640,21.65,-0.014905111812031574,0.003193952531149623,0.001064650843716541,0.50031,0.0,9.80019
6712121145,21.65,-0.02769837522915001,-0.007452555906015787,0.0,0.51993,-0.07848000000000001,9.760950000000001
6717171650,21.65,-0.02982767691658309,-0.020245819323134222,0.001064650843716541,0.5591700000000001,-0.15696000000000002,9.80019
6722222155,21.65,-0.033021629447732716,-0.031956978604016174,0.0,0.60822,-0.26487,9.89829
6727272660,21.65,-0.028763026072866547,-0.02982767691658309,0.0,0.65727,-0.31392000000000003,9.819809999999999
6732323165,21.65,-0.02663372438543347,-0.02769837522915001,0.0,0.6768900000000001,-0.35316,9.83943
6737373670,21.65,-0.012775810124598492,-0.011711159280881954,-0.002129301687433082,0.6867000000000001,-0.35316,9.770760000000001
6742424175,21.65,0.001064650843716541,-0.001064650843716541,0.002129301687433082,0.70632,-0.32373,9.81
6747474680,21.65,0.013840460968315033,0.00958185759344887,0.004258603374866164,0.69651,-0.25506,9.81
6752525185,21.65,0.01918116847941768,0.0170518667919846,0.0,0.6670800000000001,-0.18639,9.83943
6757575690,21.65,0.021310470166850764,0.023439771854283843,0.0,0.6180300000000001,-0.11772,9.81
6762626195,21.65,0.024504422698000388,0.031956978604016174,0.001064650843716541,0.60822,-0.05886,9.760950000000001
6767676700,21.65,0.021310470166850764,0.03728023282259888,0.0,0.56898,-0.02943,9.819809999999999
6772727205,21.65,0.012775810124598492,0.03621558197888234,0.001064650843716541,0.51012,-0.009810000000000001,9.84924
6777777710,21.65,0.001064650843716541,0.033021629447732716,0.001064650843716541,0.47088,0.0,9.73152
6782828215,21.65,-0.006387905062299246,0.014905111812031574,0.002129301687433082,0.46107000000000004,-0.05886,9.78057
6787878720,21.65,-0.011711159280881954,-0.001064650843716541,0.001064650843716541,0.44145,-0.0981,9.82962
6792929225,21.65,-0.01811651763570114,-0.02982767691658309,-0.001064650843716541,0.45126,-0.15696000000000002,9.85905
6797979730,21.65,-0.022375121010567305,-0.05007349623971732,-0.003193952531149623,0.5395500000000001,-0.21582,9.84924
6803030235,21.65,-0.021310470166850764,-0.06817256058289851,-0.003193952531149623,0.6278400000000001,-0.26487,9.81
6808080740,21.65,-0.01811651763570114,-0.07243116395776468,-0.002129301687433082,0.69651,-0.35316,9.74133
6813131245,21.65,-0.003193952531149623,-0.07136651311404815,0.002129301687433082,0.7848,-0.33354000000000006,9.819809999999999
6818181750,21.65,0.005323254218582705,-0.054332099614583476,0.0,0.8142300000000001,-0.2943,9.908100000000001
6823232255,21.65,0.0170518667919846,-0.028763026072866547,-0.002129301687433082,0.8338500000000001,-0.24525000000000002,9.83943
6828282760,21.65,0.02769837522915001,0.0,0.0,0.8338500000000001,-0.17658,9.72171
6833333265,21.65,0.03089232776029963,0.02556907354171693,0.0,0.7749900000000001,-0.0981,9.72171
6838383770,21.65,0.028763026072866547,0.05326744877086694,0.001064650843716541,0.75537,-0.019620000000000002,9.770760000000001
6843434275,21.65,0.01811651763570114,0.06817256058289851,0.003193952531149623,0.6768900000000001,0.019620000000000002,9.85905
6848484780,21.65,0.01064650843716541,0.07883652231258387,0.002129301687433082,0.57879,0.04905,9.87867
6853535285,21.65,-0.002129301687433082,0.08628907821859966,0.004258603374866164,0.50031,0.039240000000000004,9.770760000000001
6858585790,21.65,-0.012775810124598492,0.08309512568745003,0.001064650843716541,0.41202000000000005,0.019620000000000002,9.68247
6863636295,21.65,-0.023439771854283843,0.07136651311404815,0.001064650843716541,0.38259000000000004,-0.039240000000000004,9.751140000000001
6868686800,21.65,-0.031956978604016174,0.05113814708343386,0.001064650843716541,0.32373,-0.10791,9.89829
6873737305,21.65,-0.04153883619746504,0.024504422698000388,0.002129301687433082,0.33354000000000006,-0.22563,9.92772
6878787810,21.65,-0.04366813788489812,-0.008517206749732328,0.002129301687433082,0.34335000000000004,-0.30411,9.86886
6883838315,21.65,-0.03515093113516579,-0.04153883619746504,-0.002129301687433082,0.36297,-0.35316,9.78057
6888888820,21.65,-0.022375121010567305,-0.0756251164889143,-0.001064650843716541,0.45126,-0.44145,9.760950000000001
6893939325,21.65,-0.007452555906015787,-0.09800023749948161,-0.004258603374866164,0.5591700000000001,-0.43164,9.85905
6898989830,21.65,0.007452555906015787,-0.11185815176031658,-0.003193952531149623,0.6867000000000001,-0.3924,9.92772
6904040335,21.65,0.022375121010567305,-0.10653489754173388,-0.004258603374866164,0.80442,-0.34335000000000004,9.87867
6909090840,21.65,0.03834488366631542,-0.08203047484373349,-0.003193952531149623,0.86328,-0.25506,9.79038
6914141345,21.65,0.05007349623971732,-0.05752605214573309,0.0,0.84366,-0.15696000000000002,9.70209
6919191850,21.65,0.05752605214573309,-0.021310470166850764,-0.001064650843716541,0.89271,-0.039240000000000004,9.7119
6924242355,21.65,0.05113814708343386,0.006387905062299246,-0.001064650843716541,0.84366,0.05886,9.81
6929292860,21.65,0.04260348704118158,0.03834488366631542,0.003193952531149623,0.8142300000000001,0.10791,9.86886
6934343365,21.65,0.02556907354171693,0.06817256058289851,0.004258603374866164,0.69651,0.14715,9.751140000000001
6939393870,21.65,0.004258603374866164,0.08415977653116657,0.0,0.63765,0.16677000000000003,9.70209
6944444375,21.65,-0.011711159280881954,0.09267698328089889,0.004258603374866164,0.5395500000000001,0.12753,9.760950000000001
6949494880,21.65,-0.031956978604016174,0.09267698328089889,0.003193952531149623,0.46107000000000004,0.06867000000000001,9.82962
6954545385,21.65,-0.04581489286485115,0.08096582400001695,0.001064650843716541,0.41202000000000005,-0.039240000000000004,9.819809999999999
6959595890,21.65,-0.05752605214573309,0.060720004676882725,0.002129301687433082,0.38259000000000004,-0.14715,9.82962
6964646395,21.65,-0.06284930636431581,0.033021629447732716,0.001064650843716541,0.36297,-0.31392000000000003,9.81
6969696900,21.65,-0.06178465552059926,-0.002129301687433082,0.0,0.37278,-0.43164,9.83943
6974747405,21.65,-0.044732788728614664,-0.03728023282259888,-0.002129301687433082,0.47088,-0.50031,9.85905
6979797910,21.65,-0.02556907354171693,-0.06923721142661506,-0.004258603374866164,0.49050000000000005,-0.5493600000000001,9.86886
6984848415,21.65,-0.007452555906015787,-0.09054768159346581,-0.001064650843716541,0.57879,-0.51993,9.84924
6989898920,21.65,0.014905111812031574,-0.10119419003063122,-0.001064650843716541,0.6867000000000001,-0.47088,9.82962
6994949425,21.65,0.03408628029144926,-0.09267698328089889,-0.005323254218582705,0.7749900000000001,-0.37278,9.80019
6999999930,21.65,0.054332099614583476,-0.07243116395776468,-0.002129301687433082,0.85347,-0.23544,9.86886
7005050435,21.65,0.06284930636431581,-0.0404741853537485,0.001064650843716541,0.8142300000000001,-0.11772,9.819809999999999
7010100940,21.65,0.06391395720803235,-0.008517206749732328,0.0,0.8338500000000001,0.0,9.72171
7015151445,21.65,0.054332099614583476,0.023439771854283843,0.002129301687433082,0.7848,0.11772,9.760950000000001
7020201950,21.65,0.0404741853537485,0.05326744877086694,0.004258603374866164,0.69651,0.16677000000000003,9.80019
7025252455,21.65,0.02556907354171693,0.07243116395776468,0.003193952531149623,0.63765,0.22563,9.78057
7030302960,21.65,0.003193952531149623,0.08735372906231618,0.005323254218582705,0.56898,0.1962,9.79038
7035353465,21.65,-0.01918116847941768,0.09161233243718235,0.002129301687433082,0.47088,0.12753,9.82962
7040403970,21.65,-0.044732788728614664,0.08415977653116657,0.004258603374866164,0.41202000000000005,0.04905,9.751140000000001
7045454475,21.65,-0.05646140130201656,0.07243116395776468,0.003193952531149623,0.36297,-0.08829,9.751140000000001
7050504980,21.65,-0.06923721142661506,0.046879543708567686,0.002129301687433082,0.37278,-0.25506,9.86886
7055555485,21.65,-0.06817256058289851,0.020245819323134222,-0.001064650843716541,0.33354000000000006,-0.33354000000000006,9.87867
7060605990,21.65,-0.06284930636431581,-0.022375121010567305,0.002129301687433082,0.38259000000000004,-0.47088,9.86886
7065656495,21.65,-0.04366813788489812,-0.05859070298944965,-0.001064650843716541,0.46107000000000004,-0.5493600000000001,9.86886
7070707000,21.65,-0.022375121010567305,-0.09054768159346581,-0.003193952531149623,0.5395500000000001,-0.5493600000000001,9.87867
7075757505,21.65,0.005323254218582705,-0.11185815176031658,-0.001064650843716541,0.6768900000000001,-0.52974,9.83943
7080808010,21.65,0.02663372438543347,-0.11292280260403312,-0.004258603374866164,0.79461,-0.47088,9.819809999999999
7085858515,21.65,0.049008845396000776,-0.10012953918691468,-0.005323254218582705,0.8338500000000001,-0.33354000000000006,9.81
7090909020,21.65,0.06604325889546543,-0.07349581480148122,-0.001064650843716541,0.90252,-0.1962,9.79038
7095959525,21.65,0.07349581480148122,-0.04153883619746504,0.0,0.90252,-0.05886,9.80019
7101010030,21.65,0.07136651311404815,0.0,0.003193952531149623,0.87309,0.039240000000000004,9.770760000000001
7106060535,21.65,0.05965535383316618,0.03089232776029963,0.0,0.8338500000000001,0.18639,9.79038
7111111040,21.65,0.039409534510031964,0.07243116395776468,0.002129301687433082,0.73575,0.22563,9.770760000000001
7116161545,21.65,0.020245819323134222,0.09800023749948161,0.003193952531149623,0.64746,0.24525000000000002,9.72171
7121212050,21.65,-0.006387905062299246,0.11292280260403312,0.002129301687433082,0.52974,0.21582,9.751140000000001
7126262555,21.65,-0.033021629447732716,0.1171814059788993,0.003193952531149623,0.43164,0.17658,9.73152
7131313060,21.65,-0.05965535383316618,0.10545279340549739,0.003193952531149623,0.35316,0.039240000000000004,9.78057
7136363565,21.65,-0.07243116395776468,0.0852244273748831,0.003193952531149623,0.28449,-0.10791,9.85905
7141414070,21.65,-0.08203047484373349,0.046879543708567686,0.001064650843716541,0.28449,-0.27468000000000004,9.908100000000001
7146464575,21.65,-0.07777187146886733,0.0,0.001064650843716541,0.28449,-0.44145,9.87867
7151515080,21.65,-0.06604325889546543,-0.04794419455228423,-0.003193952531149623,0.34335000000000004,-0.57879,9.83943
7156565585,21.65,-0.044732788728614664,-0.09587093581204853,-0.002129301687433082,0.48069000000000006,-0.6670800000000001,9.82962
7161616090,21.65,-0.020245819323134222,-0.12569861272863161,-0.006387905062299246,0.59841,-0.64746,9.83943
7166666595,21.65,0.01064650843716541,-0.14275047952061623,-0.003193952531149623,0.70632,-0.60822,9.87867
7171717100,21.65,0.04260348704118158,-0.13421581947836395,-0.003193952531149623,0.8240400000000001,-0.50031,9.85905
7176767605,21.65,0.06604325889546543,-0.11292280260403312,-0.002129301687433082,0.9319500000000001,-0.33354000000000006,9.81
7181818110,21.65,0.08203047484373349,-0.07456046564519776,-0.001064650843716541,0.9711900000000001,-0.15696000000000002,9.78057
7186868615,21.65,0.08841837990603273,-0.031956978604016174,0.0,0.9711900000000001,-0.009810000000000001,9.78057
7191919120,21.65,0.08096582400001695,0.01811651763570114,0.001064650843716541,0.94176,0.16677000000000003,9.80019
7196969625,21.65,0.06817256058289851,0.07136651311404815,0.001064650843716541,0.84366,0.27468000000000004,9.770760000000001
7202020130,21.65,0.044732788728614664,0.11079350091660004,0.006387905062299246,0.71613,0.34335000000000004,9.7119
7207070635,21.65,0.013840460968315033,0.13955652698946658,0.005323254218582705,0.57879,0.35316,9.68247
7212121140,21.65,-0.015987215948268057,0.14275047952061623,0.005323254218582705,0.47088,0.27468000000000004,9.68247
7217171645,21.65,-0.04794419455228423,0.13955652698946658,0.004258603374866164,0.37278,0.20601000000000003,9.87867
7222222150,21.65,-0.0756251164889143,0.11292280260403312,0.004258603374866164,0.27468000000000004,0.009810000000000001,9.89829
7227272655,21.65,-0.08948303074974927,0.06923721142661506,0.0,0.21582,-0.17658,9.82962
7232323160,21.65,-0.10225884087434776,0.0170518667919846,0.0,0.1962,-0.37278,9.79038
7237373665,21.65,-0.09587093581204853,-0.03728023282259888,-0.002129301687433082,0.28449,-0.57879,9.819809999999999
7242424170,21.65,-0.07243116395776468,-0.08309512568745003,-0.002129301687433082,0.3924,-0.69651,9.89829
7247474675,21.65,-0.044732788728614664,-0.12144000935376545,-0.005323254218582705,0.5395500000000001,-0.7749900000000001,9.92772
7252525180,21.65,-0.007452555906015787,-0.14062117783318315,-0.005323254218582705,0.6670800000000001,-0.70632,9.84924
7257575685,21.65,0.02982767691658309,-0.14594443205176583,-0.005323254218582705,0.8240400000000001,-0.6278400000000001,9.819809999999999
7262626190,21.65,0.06391395720803235,-0.12569861272863161,-0.002129301687433082,0.90252,-0.49050000000000005,9.78057
7267676695,21.65,0.08096582400001695,-0.09693558665576507,-0.003193952531149623,0.9810000000000001,-0.2943,9.81
7272727200,21.65,0.09906488834319814,-0.054332099614583476,0.0,1.01043,-0.08829,9.87867
7277777705,21.65,0.09800023749948161,-0.004258603374866164,0.0,0.9908100000000001,0.07848000000000001,9.86886
7282828210,21.65,0.08948303074974927,0.04366813788489812,0.001064650843716541,0.86328,0.24525000000000002,9.74133
7287878715,21.65,0.06710790973918197,0.09480628496833199,0.003193952531149623,0.74556,0.34335000000000004,9.59418
7292929220,21.65,0.03728023282259888,0.12995721610349775,0.005323254218582705,0.60822,0.3924,9.64323
7297979725,21.65,0.004258603374866164,0.14700908289548237,0.007452555906015787,0.49050000000000005,0.40221,9.78057
7303030230,21.65,-0.03408628029144926,0.1480737337391989,0.003193952531149623,0.38259000000000004,0.30411,9.89829
7308080735,21.65,-0.06391395720803235,0.13102186694721432,0.006387905062299246,0.30411,0.15696000000000002,9.83943
7313131240,21.65,-0.09374163412461543,0.09693558665576507,-0.001064650843716541,0.21582,-0.019620000000000002,9.80019
7318181745,21.65,-0.10653489754173388,0.05007349623971732,0.0,0.18639,-0.27468000000000004,9.770760000000001
7323232250,21.65,-0.11079350091660004,-0.005323254218582705,-0.003193952531149623,0.22563,-0.51993,9.770760000000001
7328282755,21.65,-0.09587093581204853,-0.05859070298944965,0.0,0.34335000000000004,-0.6867000000000001,9.94734
7333333260,21.65,-0.06817256058289851,-0.09800023749948161,-0.006387905062299246,0.46107000000000004,-0.7749900000000001,10.006200000000002
7338383765,21.65,-0.031956978604016174,-0.12995721610349775,-0.002129301687433082,0.57879,-0.7848,9.888480000000001
7343434270,21.65,0.006387905062299246,-0.14594443205176583,-0.004258603374866164,0.71613,-0.73575,9.770760000000001
7348484775,21.65,0.04260348704118158,-0.14700908289548237,-0.005323254218582705,0.8338500000000001,-0.59841,9.760950000000001
7353535280,21.65,0.07349581480148122,-0.13102186694721432,-0.001064650843716541,0.95157,-0.40221,9.83943
7358585785,21.65,0.09693558665576507,-0.09693558665576507,-0.004258603374866164,1.01043,-0.1962,9.888480000000001
7363636290,21.65,0.10653489754173388,-0.054332099614583476,0.0,1.03005,-0.009810000000000001,9.84924
7368686795,21.65,0.10012953918691468,-0.003193952531149623,0.002129301687433082,0.9711900000000001,0.13734000000000002,9.70209
7373737300,21.65,0.08628907821859966,0.046879543708567686,0.0,0.90252,0.30411,9.69228
7378787805,21.65,0.06391395720803235,0.09480628496833199,0.003193952531149623,0.7749900000000001,0.42183,9.70209
7383838310,21.65,0.031956978604016174,0.1288925652597812,0.00958185759344887,0.65727,0.44145,9.760950000000001
7388888815,21.65,-0.005323254218582705,0.14487978120804929,0.008517206749732328,0.51993,0.38259000000000004,9.80019
7393939320,21.65,-0.049008845396000776,0.14275047952061623,0.001064650843716541,0.41202000000000005,0.2943,9.81
7398989825,21.65,-0.07990117315630041,0.12250466019748199,0.002129301687433082,0.31392000000000003,0.12753,9.79038
7404040330,21.65,-0.10012953918691468,0.08735372906231618,0.001064650843716541,0.25506,-0.08829,9.81
7409090835,21.65,-0.11185815176031658,0.04153883619746504,0.0,0.25506,-0.33354000000000006,9.82962
7414141340,21.65,-0.11292280260403312,-0.003193952531149623,0.0,0.28449,-0.5395500000000001,9.89829
7419191845,21.65,-0.09587093581204853,-0.04260348704118158,-0.003193952531149623,0.37278,-0.6867000000000001,9.89829
7424242350,21.65,-0.06497860805174888,-0.07777187146886733,-0.002129301687433082,0.46107000000000004,-0.7848,9.888480000000001
7429292855,21.65,-0.020245819323134222,-0.10332349171806432,-0.002129301687433082,0.56898,-0.75537,9.81
7434343360,21.65,0.01811651763570114,-0.11505210429146619,-0.002129301687433082,0.6768900000000001,-0.6670800000000001,9.82962
7439393865,21.65,0.05007349623971732,-0.11398745344774965,-0.002129301687433082,0.7651800000000001,-0.52974,9.82962
7444444370,21.65,0.07670722062515077,-0.10759954838545042,-0.003193952531149623,0.84366,-0.34335000000000004,9.86886
7449494875,21.65,0.09587093581204853,-0.08203047484373349,0.0,0.89271,-0.13734000000000002,9.86886
7454545380,21.65,0.10225884087434776,-0.04260348704118158,0.0,0.8829,0.009810000000000001,9.83943
7459595885,21.65,0.09800023749948161,0.0,0.002129301687433082,0.8338500000000001,0.18639,9.72171
7464646390,21.65,0.07670722062515077,0.049008845396000776,0.003193952531149623,0.7848,0.31392000000000003,9.7119
7469696895,21.65,0.05113814708343386,0.08309512568745003,0.0,0.6768900000000001,0.38259000000000004,9.69228
7474747400,21.65,0.0170518667919846,0.10332349171806432,0.006387905062299246,0.59841,0.3924,9.760950000000001
7479797905,21.65,-0.01918116847941768,0.11185815176031658,0.004258603374866164,0.47088,0.32373,9.79038
7484848410,21.65,-0.049008845396000776,0.09906488834319814,0.003193952531149623,0.41202000000000005,0.20601000000000003,9.83943
7489898915,21.65,-0.07883652231258387,0.07349581480148122,0.001064650843716541,0.35316,0.02943,9.80019
7494949420,21.65,-0.09267698328089889,0.0404741853537485,0.001064650843716541,0.34335000000000004,-0.17658,9.751140000000001
7499999925,21.65,-0.10225884087434776,0.002129301687433082,-0.002129301687433082,0.37278,-0.41202000000000005,9.79038
7505050430,21.65,-0.09587093581204853,-0.02982767691658309,0.0,0.46107000000000004,-0.5886,9.95715
7510100935,21.65,-0.07456046564519776,-0.05220279792715039,-0.002129301687433082,0.52974,-0.6768900000000001,9.89829
7515151440,21.65,-0.04260348704118158,-0.07136651311404815,-0.003193952531149623,0.6180300000000001,-0.70632,9.85905
7520201945,21.65,-0.007452555906015787,-0.08309512568745003,-0.002129301687433082,0.6768900000000001,-0.6867000000000001,9.770760000000001
7525252450,21.65,0.02556907354171693,-0.08948303074974927,-0.003193952531149623,0.73575,-0.57879,9.751140000000001
7530302955,21.65,0.05646140130201656,-0.08309512568745003,-0.002129301687433082,0.8240400000000001,-0.41202000000000005,9.82962
7535353460,21.65,0.07883652231258387,-0.06604325889546543,-0.001064650843716541,0.86328,-0.23544,9.908100000000001
7540403965,21.65,0.08628907821859966,-0.04153883619746504,0.0,0.89271,-0.07848000000000001,9.819809999999999
7545454470,21.65,0.08735372906231618,-0.00958185759344887,0.0,0.84366,0.04905,9.78057
7550504975,21.65,0.07243116395776468,0.022375121010567305,0.0,0.7749900000000001,0.20601000000000003,9.760950000000001
7555555480,21.65,0.05752605214573309,0.06178465552059926,0.004258603374866164,0.73575,0.25506,9.73152
7560605985,21.65,0.033021629447732716,0.08096582400001695,0.005323254218582705,0.6278400000000001,0.33354000000000006,9.69228
7565656490,21.65,0.002129301687433082,0.08735372906231618,0.006387905062299246,0.5395500000000001,0.2943,9.760950000000001
7570706995,21.65,-0.02982767691658309,0.08309512568745003,0.003193952531149623,0.45126,0.20601000000000003,9.908100000000001
7575757500,21.65,-0.05752605214573309,0.06497860805174888,0.002129301687433082,0.43164,0.06867000000000001,9.84924
7580808005,21.65,-0.07456046564519776,0.04581489286485115,0.002129301687433082,0.40221,-0.10791,9.770760000000001
7585858510,21.65,-0.08628907821859966,0.01918116847941768,-0.003193952531149623,0.41202000000000005,-0.28449,9.770760000000001
7590909015,21.65,-0.08628907821859966,0.001064650843716541,0.0,0.46107000000000004,-0.46107000000000004,9.79038
7595959520,21.65,-0.07349581480148122,-0.01811651763570114,-0.003193952531149623,0.50031,-0.57879,9.83943
7601010025,21.65,-0.049008845396000776,-0.02556907354171693,0.0,0.56898,-0.6180300000000001,9.98658
7606060530,21.65,-0.021310470166850764,-0.03408628029144926,0.001064650843716541,0.60822,-0.60822,9.91791
7611111035,21.65,0.006387905062299246,-0.039409534510031964,0.0,0.5886,-0.51993,9.73152
7616161540,21.65,0.033021629447732716,-0.044732788728614664,-0.003193952531149623,0.64746,-0.43164,9.751140000000001
7621212045,21.65,0.05326744877086694,-0.03834488366631542,0.0,0.69651,-0.26487,9.82962
7626262550,21.65,0.06604325889546543,-0.024504422698000388,-0.001064650843716541,0.69651,-0.14715,9.908100000000001
7631313055,21.65,0.06710790973918197,-0.008517206749732328,0.0,0.6670800000000001,-0.039240000000000004,9.85905
