#timestamp [ns], temperature [degC], w_RS_S_x [rad s^-1], w_RS_S_y [rad s^-1], w_RS_S_z [rad s^-1], a_RS_S_x [m s^-2], a_RS_S_y [m s^-2], a_RS_S_z [m s^-2]
0.0,21.78,0.0,0.0,0.0,0.75537,0.48069,9.82962
5000000.0,21.78,0.0,0.0,0.0,0.784505700291357,0.47097809990288103,9.810196199805763
10000000.0,21.78,0.0,0.0,0.0,0.7655723996115241,0.480493800194238,9.800386199805763
15000000.0,21.78,0.0,0.0,0.0,0.7651800000000001,0.471174299708643,9.819221400582714
20000000.0,21.78,0.0,0.0,0.0,0.793432801165428,0.489715200776952,9.838645200776952
25000000.0,21.78,0.0,0.0,0.0,0.7759709990288101,0.46254149854321497,9.83943
30000000.0,21.78,0.0,0.0,0.0,0.7842114005827141,0.49795560233085606,9.83943
35000000.0,21.78,0.0,0.0,0.0,0.748306797280668,0.50031,9.793813496600835
40000000.0,21.78,0.0,0.0,0.0,0.736534799223048,0.473234397669144,9.808430401553904
45000000.0,21.78,0.0,0.0,0.0,0.753604201748142,0.45302579825185796,9.818927100874072
50000000.0,21.78,0.0,0.0,0.0,0.74654099902881,0.46891800194238004,9.872784005827139
55000000.0,21.78,0.0,0.0,0.0,0.7630218021366181,0.44468729679507296,9.826284593590147
60000000.0,21.78,0.0,0.0,0.0,0.756547198834572,0.46734840349628404,9.802544397669145
65000000.0,21.78,0.0,0.0,0.0,0.7639047012625471,0.487949402525094,9.808724701262548
70000000.0,21.78,0.0,0.0,0.0,0.7651800000000001,0.4651901959210019,9.81
75000000.0,21.78,0.0,0.0,0.0,0.756841498543215,0.46940850145678503,9.82667700291357
80000000.0,21.78,0.0,0.0,0.0,0.763610401553904,0.479120401553904,9.821379598446097
85000000.0,21.78,0.0,0.0,0.0,0.7651800000000001,0.47254769834897703,9.811667698348977
90000000.0,21.78,0.0,0.0,0.0,0.757135798251858,0.454791596503716,9.81
95000000.0,21.78,0.0,0.0,0.0,0.7712622036905221,0.46715220369052207,9.825892203690522
100000000.0,21.78,0.0,0.0,0.0,0.75929399611524,0.47088,9.82962
105000000.0,21.78,0.0,0.0,0.0,0.75537,0.455380195921002,9.8373699020395
110000000.0,21.78,0.0,0.0,0.0,0.7706736042732361,0.45126,9.816474593590147
115000000.0,21.78,0.0,0.0,0.0,0.7598825955325259,0.458813702233737,9.779785191065052
120000000.0,21.78,0.0,0.0,0.0,0.7628256023308561,0.46107,9.815493613985137
125000000.0,21.78,0.0,0.0,0.0,0.7725375024279751,0.46842750242797504,9.84433500485595
130000000.0,21.78,0.0,0.0,0.0,0.7749900000000001,0.48539880505018806,9.878277610100376
135000000.0,21.78,0.0,0.0,0.0,0.760667394755574,0.48333869737778695,9.831189579022295
140000000.0,21.78,0.0,0.0,0.0,0.7341803918420039,0.48069,9.788810391842004
145000000.0,21.78,0.0,0.0,0.0,0.7677306168987063,0.48069,9.787535102816452
150000000.0,21.78,0.0,0.0,0.0,0.77106599417286,0.47382299708643,9.81784801165428
155000000.0,21.78,0.0,0.0,0.0,0.7651800000000001,0.47088,9.849926709032067
160000000.0,21.78,0.0,0.0,0.0,0.758509196892192,0.47755080310780806,9.845708393784385
165000000.0,21.78,0.0,0.0,0.0,0.748797296795073,0.474117296795073,9.813139187180292
170000000.0,21.78,0.0,0.0,0.0,0.7585092066040922,0.4579307933959079,9.78724079339591
175000000.0,21.78,0.0,0.0,0.0,0.75242699320167,0.4640130067983301,9.80607601359666
180000000.0,21.78,0.0,0.0,0.0,0.7581168069925681,0.45832319300743196,9.838645210488853
185000000.0,21.78,0.0,0.0,0.0,0.7651800000000001,0.44507969640659695,9.843059696406597
190000000.0,21.78,0.0,0.0,0.0,0.7590977963094779,0.46577881476208816,9.83943
195000000.0,21.78,0.0,0.0,0.0,0.7673382075752821,0.4687217924247179,9.821477688637078
200000000.0,21.78,0.0,0.0,0.0,0.76910399611524,0.46107,9.81
205000000.0,21.78,0.0,0.0,0.0,0.759392096018121,0.48422161592751617,9.82157580796376
210000000.0,21.78,0.0,0.0,0.0,0.7610598040789981,0.494620195921002,9.812550587763006
215000000.0,21.78,0.0,0.0,0.0,0.759588295823883,0.4793165916477659,9.833740225056703
220000000.0,21.78,0.0,0.0,0.0,0.75537,0.47637360427323605,9.842569187180292
225000000.0,21.78,0.0,0.0,0.0,0.7661610087407101,0.4698989912592899,9.80803798251858
230000000.0,21.78,0.0,0.0,0.0,0.7855848089349481,0.46107,9.806272213402423
235000000.0,21.78,0.0,0.0,0.0,0.7790120863062209,0.46626930456459303,9.825009304564594
240000000.0,21.78,0.0,0.0,0.0,0.7702812046617121,0.46067759067657593,9.824518795338289
245000000.0,21.78,0.0,0.0,0.0,0.7599806857235069,0.46626931427649315,9.81981
250000000.0,21.78,0.0,0.0,0.0,0.74556,0.4708799902880999,9.8099999902881
255000000.0,21.78,0.0,0.0,0.0,0.740753095046931,0.46587690495306905,9.809803809906139
260000000.0,21.78,0.0,0.0,0.0,0.7451676101003761,0.4755888050501881,9.833936415150564
265000000.0,21.78,0.0,0.0,0.0,0.750759294852693,0.48069,9.853850705147307
270000000.0,21.78,0.0,0.0,0.0,0.74556,0.4716647895111479,9.827461763289017
275000000.0,21.78,0.0,0.0,0.0,0.74556,0.46107,9.799209010683091
280000000.0,21.78,0.0,0.0,0.0,0.7585092163159922,0.46107,9.818632810877329
285000000.0,21.78,0.0,0.0,0.0,0.7749900000000001,0.47372491660734917,9.838056611071567
290000000.0,21.78,0.0,0.0,0.0,0.766749588734196,0.48637979436709794,9.840999588734196
295000000.0,21.78,0.0,0.0,0.0,0.759392105730021,0.48069,9.82962
300000000.0,21.78,0.0,0.0,0.0,0.7573319883457199,0.47676599417286,9.81784798251858
305000000.0,21.78,0.0,0.0,0.0,0.749385905924259,0.47088,9.80401590592426
310000000.0,21.78,0.0,0.0,0.0,0.751642193978622,0.4634243879572439,9.82863903010689
315000000.0,21.78,0.0,0.0,0.0,0.7491897061184971,0.45488970611849705,9.844531175526011
320000000.0,21.78,0.0,0.0,0.0,0.7659648186468482,0.4681332124312321,9.823341606215616
325000000.0,21.78,0.0,0.0,0.0,0.781366493687265,0.48412350631273504,9.819319481061795
330000000.0,21.78,0.0,0.0,0.0,0.771654593590146,0.4905,9.810196219229562
335000000.0,21.78,0.0,0.0,0.0,0.7651800000000001,0.4807880804790808,9.819908080479081
340000000.0,21.78,0.0,0.0,0.0,0.7651800000000001,0.4673484132081841,9.809607619812276
345000000.0,21.78,0.0,0.0,0.0,0.7712622134024222,0.48069,9.835702213402422
350000000.0,21.78,0.0,0.0,0.0,0.7759709796050098,0.48069,9.84335398640334
355000000.0,21.78,0.0,0.0,0.0,0.752525093104551,0.47500018620910184,9.826775093104551
360000000.0,21.78,0.0,0.0,0.0,0.748306806992568,0.46381680699256805,9.82255680699257
365000000.0,21.78,0.0,0.0,0.0,0.7527212929103129,0.4655825858206259,9.82962
370000000.0,21.78,0.0,0.0,0.0,0.7506612143736122,0.4589118215604182,9.824518785626388
375000000.0,21.78,0.0,0.0,0.0,0.7725375218517753,0.47578498543214987,9.81
380000000.0,21.78,0.0,0.0,0.0,0.7851923704758237,0.46342440738104407,9.817063222143133
385000000.0,21.78,0.0,0.0,0.0,0.7598826149563261,0.4731363074781631,9.834917385043674
390000000.0,21.78,0.0,0.0,0.0,0.7771482075752821,0.48500641515056414,9.828442830301128
395000000.0,21.78,0.0,0.0,0.0,0.782739892327599,0.4941296769827968,9.854929784655198
400000000.0,21.78,0.0,0.0,0.0,0.7749900000000001,0.46695598446095987,9.83943
405000000.0,21.78,0.0,0.0,0.0,0.7712621842667219,0.45126,9.835702184266722
410000000.0,21.78,0.0,0.0,0.0,0.7518383840724838,0.4583232318550323,9.81981
415000000.0,21.78,0.0,0.0,0.0,0.7390854161217542,0.4905,9.821477708060877
420000000.0,21.78,0.0,0.0,0.0,0.75537,0.4873607836840078,9.82962
425000000.0,21.78,0.0,0.0,0.0,0.75537,0.4723515082551151,9.828148491744885
430000000.0,21.78,0.0,0.0,0.0,0.7567434083522341,0.4765697749432978,9.822556816704468
435000000.0,21.78,0.0,0.0,0.0,0.7664553084493532,0.45381061689870617,9.838154691550647
440000000.0,21.78,0.0,0.0,0.0,0.7714583743605838,0.47323441709294417,9.827265582907057
445000000.0,21.78,0.0,0.0,0.0,0.7487973259307733,0.49157910864359106,9.812158217287182
450000000.0,21.78,0.0,0.0,0.0,0.7749900000000001,0.49834798251857987,9.82765798251858
455000000.0,21.78,0.0,0.0,0.0,0.774107091162171,0.48069,9.81
460000000.0,21.78,0.0,0.0,0.0,0.7651800000000001,0.4814748089349481,9.81078480893495
465000000.0,21.78,0.0,0.0,0.0,0.7651800000000001,0.48912658193586583,9.821183418064134
470000000.0,21.78,0.0,0.0,0.0,0.764591390870814,0.47088,9.838252781741629
475000000.0,21.78,0.0,0.0,0.0,0.75537,0.47137050922630513,9.819319490773696
480000000.0,21.78,0.0,0.0,0.0,0.7561548186468482,0.48069,9.809215181353153
485000000.0,21.78,0.0,0.0,0.0,0.7741070717383708,0.4798070717383707,9.790968618841086
490000000.0,21.78,0.0,0.0,0.0,0.7459524190353242,0.4520448380706484,9.81
495000000.0,21.78,0.0,0.0,0.0,0.7652781096147812,0.4904018903852189,9.80990189038522
500000000.0,21.78,0.0,0.0,0.0,0.7749899708642998,0.4806899805761998,9.800190048559502
505000000.0,21.78,0.0,0.0,0.0,0.7458542705729427,0.46126618038196177,9.848749549045095
510000000.0,21.78,0.0,0.0,0.0,0.7551738099061381,0.4514561900938619,9.820398570281586
515000000.0,21.78,0.0,0.0,0.0,0.7744014200065142,0.4702914200065142,9.810294289996744
520000000.0,21.78,0.0,0.0,0.0,0.7373195595984956,0.4802976101003761,9.781747169698873
525000000.0,21.78,0.0,0.0,0.0,0.7823475509874755,0.48069,9.81784804078998
530000000.0,21.78,0.0,0.0,0.0,0.7663571794107719,0.48069,9.829031410294615
535000000.0,21.78,0.0,0.0,0.0,0.7560566896082669,0.4624433792165338,9.820496689608268
540000000.0,21.78,0.0,0.0,0.0,0.7373195790222958,0.4700952104888521,9.810784789511148
545000000.0,21.78,0.0,0.0,0.0,0.73575,0.4887342211719422,9.792145778828058
550000000.0,21.78,0.0,0.0,0.0,0.7534080213661802,0.4816709893169099,9.79038
555000000.0,21.78,0.0,0.0,0.0,0.7728318215604183,0.4719590892197909,9.816572732340628
560000000.0,21.78,0.0,0.0,0.0,0.7663571891226719,0.4622471891226719,9.854341243509312
565000000.0,21.78,0.0,0.0,0.0,0.7651800000000001,0.47813942194889425,9.850515289025553
570000000.0,21.78,0.0,0.0,0.0,0.7398701667853017,0.46381677785686776,9.832366777856867
575000000.0,21.78,0.0,0.0,0.0,0.7691040446747405,0.46940851116868515,9.81294297766263
580000000.0,21.78,0.0,0.0,0.0,0.7502687662025876,0.4791204112658041,9.82648082253161
585000000.0,21.78,0.0,0.0,0.0,0.7699869340887694,0.4725476886370769,9.82962
590000000.0,21.78,0.0,0.0,0.0,0.7589015770799158,0.4628357885399579,9.82962
595000000.0,21.78,0.0,0.0,0.0,0.7315316653285167,0.4690161115571611,9.813727776885678
600000000.0,21.78,0.0,0.0,0.0,0.7651800582714007,0.46303198834571985,9.833544034962841
605000000.0,21.78,0.0,0.0,0.0,0.767240088248601,0.47656982350279825,9.831680088248602
610000000.0,21.78,0.0,0.0,0.0,0.7651800000000001,0.46538637630296376,9.821968188151482
615000000.0,21.78,0.0,0.0,0.0,0.7651800000000001,0.46107,9.81981
620000000.0,21.78,0.0,0.0,0.0,0.7875468361282684,0.4685256120427561,9.812354387957244
625000000.0,21.78,0.0,0.0,0.0,0.79461,0.4561649757202498,9.832072536419625
630000000.0,21.78,0.0,0.0,0.0,0.7728317632890177,0.4730382367109824,9.832170587763006
635000000.0,21.78,0.0,0.0,0.0,0.7723413123341132,0.48069,9.851103937002339
640000000.0,21.78,0.0,0.0,0.0,0.767926787568768,0.4877532124312321,9.844923575137535
645000000.0,21.78,0.0,0.0,0.0,0.7512497749432978,0.48353488747164886,9.83943
650000000.0,21.78,0.0,0.0,0.0,0.7386929873745299,0.4738229873745299,9.81882896212359
655000000.0,21.78,0.0,0.0,0.0,0.7560567381677674,0.47764891272258914,9.81
660000000.0,21.78,0.0,0.0,0.0,0.7785216256394163,0.4740191871802919,9.823341625639417
665000000.0,21.78,0.0,0.0,0.0,0.7782272870831729,0.46430728708317287,9.836192712916827
670000000.0,21.78,0.0,0.0,0.0,0.7685153869860539,0.47401922602789226,9.845904613013946
675000000.0,21.78,0.0,0.0,0.0,0.7588034868889348,0.4743134868889349,9.842863486888936
680000000.0,21.78,0.0,0.0,0.0,0.75537,0.47088,9.820594760375448
685000000.0,21.78,0.0,0.0,0.0,0.7430093733893938,0.46469968669469686,9.81
690000000.0,21.78,0.0,0.0,0.0,0.7539966402072664,0.4793166402072664,9.822164426804845
695000000.0,21.78,0.0,0.0,0.0,0.7711641134995412,0.47254765950137656,9.841588226999082
700000000.0,21.78,0.0,0.0,0.0,0.7867620271933203,0.4492979728066797,9.83746797280668
705000000.0,21.78,0.0,0.0,0.0,0.7830341726124418,0.46460165477511656,9.823832086306222
710000000.0,21.78,0.0,0.0,0.0,0.7636103724182037,0.4750001862091019,9.81981
715000000.0,21.78,0.0,0.0,0.0,0.7665534277760343,0.4764717138880171,9.81981
720000000.0,21.78,0.0,0.0,0.0,0.7694963860148639,0.47519638601486386,9.825303613985136
725000000.0,21.78,0.0,0.0,0.0,0.7543889718354898,0.4816710281645103,9.824224485917744
730000000.0,21.78,0.0,0.0,0.0,0.74556,0.48520258582062586,9.825107414179374
735000000.0,21.78,0.0,0.0,0.0,0.7507593142764931,0.4702913714470137,9.82962
740000000.0,21.78,0.0,0.0,0.0,0.7604712143736122,0.46107,9.834721214373612
745000000.0,21.78,0.0,0.0,0.0,0.7701831144707312,0.45606688552926883,9.829423771058538
750000000.0,21.78,0.0,0.0,0.0,0.7798950145678502,0.44635498543214985,9.81490498543215
755000000.0,21.78,0.0,0.0,0.0,0.7751861706700618,0.4606776586598766,9.81480691466497
760000000.0,21.78,0.0,0.0,0.0,0.7557623704758237,0.4712723704758237,9.824518814762088
765000000.0,21.78,0.0,0.0,0.0,0.7547814297184143,0.4702914297184143,9.834230714859208
770000000.0,21.78,0.0,0.0,0.0,0.7651800000000001,0.47617738504367385,9.830404770087348
775000000.0,21.78,0.0,0.0,0.0,0.7519364548396646,0.46205096989310973,9.815395484946555
780000000.0,21.78,0.0,0.0,0.0,0.7400664151505641,0.46420924545169245,9.797050754548309
785000000.0,21.78,0.0,0.0,0.0,0.7497783152476831,0.48069,9.8058798914861
790000000.0,21.78,0.0,0.0,0.0,0.7512497846551979,0.4848102153448022,9.851790646034406
795000000.0,21.78,0.0,0.0,0.0,0.7415378845580789,0.4784336536742365,9.860815769116158
800000000.0,21.78,0.0,0.0,0.0,0.73575,0.4689180310780803,9.833543937843839
805000000.0,21.78,0.0,0.0,0.0,0.7319240843638408,0.47686408436384087,9.80617408436384
810000000.0,21.78,0.0,0.0,0.0,0.7371234471998345,0.47460781573327815,9.792734368533445
815000000.0,21.78,0.0,0.0,0.0,0.7589997158303972,0.47343056833920566,9.791459147491192
820000000.0,21.78,0.0,0.0,0.0,0.7687116159275162,0.46107,9.820594847782548
825000000.0,21.78,0.0,0.0,0.0,0.7749900000000001,0.4679370320492703,9.835996483975364
830000000.0,21.78,0.0,0.0,0.0,0.7649837516347375,0.47735458387824586,9.82962
835000000.0,21.78,0.0,0.0,0.0,0.74556,0.47411731621887315,9.819908051343381
840000000.0,21.78,0.0,0.0,0.0,0.7486992163159921,0.47755078368400783,9.803329216315992
845000000.0,21.78,0.0,0.0,0.0,0.7614522328262223,0.46783888358688885,9.816082232826222
850000000.0,21.78,0.0,0.0,0.0,0.7749900000000001,0.4698990495306905,9.82962
855000000.0,21.78,0.0,0.0,0.0,0.7693001667853017,0.48765508339265085,9.835309833214698
860000000.0,21.78,0.0,0.0,0.0,0.7691040835223408,0.4751963665910637,9.838252733182127
865000000.0,21.78,0.0,0.0,0.0,0.7964738495952385,0.46371871680158716,9.812648716801588
870000000.0,21.78,0.0,0.0,0.0,0.7698887662025877,0.46832938310129385,9.822360616898706
875000000.0,21.78,0.0,0.0,0.0,0.7529174830041748,0.47333258497912584,9.836977550987475
880000000.0,21.78,0.0,0.0,0.0,0.7502688341858884,0.5007023316282233,9.851986748721167
885000000.0,21.78,0.0,0.0,0.0,0.7629236828099369,0.4663673656198737,9.82962
890000000.0,21.78,0.0,0.0,0.0,0.7618446518615465,0.4534182172871822,9.823145348138453
895000000.0,21.78,0.0,0.0,0.0,0.7806797652313977,0.4672503521529035,9.808430469537205
900000000.0,21.78,0.0,0.0,0.0,0.7592939475557395,0.48657596503715966,9.83746798251858
905000000.0,21.78,0.0,0.0,0.0,0.7413417527356175,0.47088,9.82775608242146
910000000.0,21.78,0.0,0.0,0.0,0.7581167292973674,0.47088,9.81981
915000000.0,21.78,0.0,0.0,0.0,0.7292754355455544,0.46754456445444564,9.813139128908892
920000000.0,21.78,0.0,0.0,0.0,0.7534080893494809,0.45596885360968853,9.789987707219378
925000000.0,21.78,0.0,0.0,0.0,0.7887239281319394,0.48363303593403034,9.837958482032985
930000000.0,21.78,0.0,0.0,0.0,0.7567434180641341,0.4961897458075975,9.830993418064134
935000000.0,21.78,0.0,0.0,0.0,0.7651800000000001,0.47088,9.841980636322507
940000000.0,21.78,0.0,0.0,0.0,0.7628255634832557,0.4720572182583722,9.854341126966512
945000000.0,21.78,0.0,0.0,0.0,0.74556,0.4796108816445088,9.817651763289017
950000000.0,21.78,0.0,0.0,0.0,0.7465410184526102,0.4718610184526102,9.80117101845261
955000000.0,21.78,0.0,0.0,0.0,0.7544870814502708,0.48069,9.81176583709946
960000000.0,21.78,0.0,0.0,0.0,0.7479144559405446,0.48069,9.831189637293697
965000000.0,21.78,0.0,0.0,0.0,0.7743032812560329,0.48069,9.849926718743967
970000000.0,21.78,0.0,0.0,0.0,0.7651800000000001,0.47951276231782763,9.856106905794569
975000000.0,21.78,0.0,0.0,0.0,0.7656705189382053,0.46107,9.81
980000000.0,21.78,0.0,0.0,0.0,0.7742051619293517,0.46224725710597253,9.810392419035324
985000000.0,21.78,0.0,0.0,0.0,0.7562529573973296,0.4902056808675568,9.819515680867557
990000000.0,21.78,0.0,0.0,0.0,0.7840151230817513,0.4810824384591244,9.810392438459125
995000000.0,21.78,0.0,0.0,0.0,0.7458543579800436,0.5000156420199564,9.829521880673319
1000000000.0,21.78,0.0,0.0,0.0,0.7749900000000001,0.47088,9.8198100194238
1005000000.0,21.78,0.0,0.0,0.0,0.7749900000000001,0.47088,9.82952191952092
1010000000.0,21.78,0.0,0.0,0.0,0.7557623607639236,0.46126618038196177,9.810392360763924
1015000000.0,21.78,0.0,0.0,0.0,0.75537,0.4801014394303144,9.819515719715158
1020000000.0,21.78,0.0,0.0,0.0,0.7836228594368286,0.4712723801877238,9.810392380187725
1025000000.0,21.78,0.0,0.0,0.0,0.7661609601812097,0.47088,9.837958559728186
1030000000.0,21.78,0.0,0.0,0.0,0.7651800000000001,0.4893228400130284,9.83943
1035000000.0,21.78,0.0,0.0,0.0,0.7743033201036332,0.4813766798963668,9.8120600396891
1040000000.0,21.78,0.0,0.0,0.0,0.7749900000000001,0.46263955959849556,9.791949559598496
1045000000.0,21.78,0.0,0.0,0.0,0.7482086391063864,0.46107,9.808234240595743
1050000000.0,21.78,0.0,0.0,0.0,0.7543890203949902,0.46107,9.83648706118497
1055000000.0,21.78,0.0,0.0,0.0,0.7728318409842184,0.48726276147632763,9.813237238523673
1060000000.0,21.78,0.0,0.0,0.0,0.7749900000000001,0.46460153823231537,9.835898461767684
1065000000.0,21.78,0.0,0.0,0.0,0.7579205586273056,0.47813944137269443,9.830895279313653
1070000000.0,21.78,0.0,0.0,0.0,0.7722432415669325,0.4638167584330676,9.821183379216533
1075000000.0,21.78,0.0,0.0,0.0,0.7583129582388296,0.4527314791194148,9.81981
1080000000.0,21.78,0.0,0.0,0.0,0.7636104209777043,0.4842216839108168,9.836290841955408
1085000000.0,21.78,0.0,0.0,0.0,0.7651800000000001,0.47421535785035357,9.83943
1090000000.0,21.78,0.0,0.0,0.0,0.7651800000000001,0.4950126635158267,9.83943
1095000000.0,21.78,0.0,0.0,0.0,0.7413416361928163,0.46852551492375516,9.847376121269061
1100000000.0,21.78,0.0,0.0,0.0,0.767142085464721,0.44537395726763956,9.81784791453528
1105000000.0,21.78,0.0,0.0,0.0,0.7517402356101024,0.47244968585319685,9.794500157073402
1110000000.0,21.78,0.0,0.0,0.0,0.7608636431208365,0.4730381784395818,9.805683643120837
1115000000.0,21.78,0.0,0.0,0.0,0.7651800000000001,0.4784337216575372,9.840214886630148
1120000000.0,21.78,0.0,0.0,0.0,0.7875468652639687,0.4881456217546562,9.84924
1125000000.0,21.78,0.0,0.0,0.0,0.7798949562964497,0.4831424781482248,9.827167434444675
1130000000.0,21.78,0.0,0.0,0.0,0.7677305780511059,0.4734305780511058,9.805291156102212
1135000000.0,21.78,0.0,0.0,0.0,0.7651800000000001,0.47804132204601324,9.793028677953988
1140000000.0,21.78,0.0,0.0,0.0,0.7510535557137356,0.46656355571373553,9.846885777145058
1145000000.0,21.78,0.0,0.0,0.0,0.7803856112012562,0.46803512224025123,9.861894877759749
1150000000.0,21.78,0.0,0.0,0.0,0.7602748883131489,0.4914810670121107,9.82471488831315
1155000000.0,21.78,0.0,0.0,0.0,0.7590978448689785,0.48000323269653233,9.81
1160000000.0,21.78,0.0,0.0,0.0,0.7585091774683917,0.46420917746839174,9.796658354936785
1165000000.0,21.78,0.0,0.0,0.0,0.75537,0.47421544525745446,9.829816335772364
1170000000.0,21.78,0.0,0.0,0.0,0.7812684909033849,0.48069,9.84924
1175000000.0,21.78,0.0,0.0,0.0,0.7818569543540697,0.4679369543540695,9.855616522822965
1180000000.0,21.78,0.0,0.0,0.0,0.7687115770799159,0.46107,9.82765788539958
1185000000.0,21.78,0.0,0.0,0.0,0.7342783849139839,0.46107,9.766737738879577
1190000000.0,21.78,0.0,0.0,0.0,0.7343766693429667,0.4793166693429667,9.777823338685934
1195000000.0,21.78,0.0,0.0,0.0,0.74556,0.49648412321144125,9.830110616057206
1200000000.0,21.78,0.0,0.0,0.0,0.74556,0.48265193007431934,9.8786701165428
1205000000.0,21.78,0.0,0.0,0.0,0.7571358468113585,0.45930415318864154,9.869350382971604
1210000000.0,21.78,0.0,0.0,0.0,0.7424207059888072,0.4683294705083947,9.803721411977614
1215000000.0,21.78,0.0,0.0,0.0,0.7371234471998345,0.4695065528001655,9.781943447199835
1220000000.0,21.78,0.0,0.0,0.0,0.7620408710911087,0.4775508710911087,9.812354494788146
1225000000.0,21.78,0.0,0.0,0.0,0.7695944762058449,0.47970895241168954,9.845806571382466
1230000000.0,21.78,0.0,0.0,0.0,0.7704774238912743,0.47088,9.85905
1235000000.0,21.78,0.0,0.0,0.0,0.7593920280348203,0.47088,9.833053380058034
1240000000.0,21.78,0.0,0.0,0.0,0.74556,0.47598122408551224,9.794696327743464
1245000000.0,21.78,0.0,0.0,0.0,0.7405568758173687,0.45567437908684383,9.785573124182632
1250000000.0,21.78,0.0,0.0,0.0,0.7406550242797503,0.4561651213987512,9.824715169958251
1255000000.0,21.78,0.0,0.0,0.0,0.7551738487537385,0.48549692437686925,9.854243075623131
1260000000.0,21.78,0.0,0.0,0.0,0.7651800000000001,0.48579117552601175,9.835113526578036
1265000000.0,21.78,0.0,0.0,0.0,0.7697907245711073,0.48069,9.815199275428894
1270000000.0,21.78,0.0,0.0,0.0,0.7795026246682263,0.48069,9.814512624668227
1275000000.0,21.78,0.0,0.0,0.0,0.7803854752346548,0.4674464257039643,9.824224524765345
1280000000.0,21.78,0.0,0.0,0.0,0.7663571502750716,0.47284212431232125,9.83825284972493
1285000000.0,21.78,0.0,0.0,0.0,0.7511516750404167,0.48765502512125025,9.83658502512125
1290000000.0,21.78,0.0,0.0,0.0,0.7538004501134046,0.47088,9.811569549886595
1295000000.0,21.78,0.0,0.0,0.0,0.7611578748461788,0.47490212515382124,9.804212125153821
1300000000.0,21.78,0.0,0.0,0.0,0.75537,0.47676597474905974,9.817848050501881
1305000000.0,21.78,0.0,0.0,0.0,0.7591959253480592,0.4632281493038815,9.841097776044178
1310000000.0,21.78,0.0,0.0,0.0,0.7577243491096436,0.45498782544517824,9.855322174554821
1315000000.0,21.78,0.0,0.0,0.0,0.7491897255422972,0.46469972554229727,9.834721097830812
1320000000.0,21.78,0.0,0.0,0.0,0.75537,0.47441162563941625,9.806468374360584
1325000000.0,21.78,0.0,0.0,0.0,0.7656705772096057,0.47725647426346474,9.80019
1330000000.0,21.78,0.0,0.0,0.0,0.7814645741663458,0.46754457416634576,9.80686085166731
1335000000.0,21.78,0.0,0.0,0.0,0.7685153481384536,0.46430732593077323,9.826284651861547
1340000000.0,21.78,0.0,0.0,0.0,0.7585092260278923,0.47088,9.842569226027893
1345000000.0,21.78,0.0,0.0,0.0,0.7651800000000001,0.47088,9.84924
1350000000.0,21.78,0.0,0.0,0.0,0.7651800000000001,0.4649939475557395,9.825695790222957
1355000000.0,21.78,0.0,0.0,0.0,0.7623350736807508,0.4569498526384985,9.782139705276997
1360000000.0,21.78,0.0,0.0,0.0,0.75537,0.47088,9.81
1365000000.0,21.78,0.0,0.0,0.0,0.7500725469730255,0.4655825469730255,9.815297453026975
1370000000.0,21.78,0.0,0.0,0.0,0.7510537596636376,0.4563612532212125,9.834721253221213
1375000000.0,21.78,0.0,0.0,0.0,0.7897049465845495,0.47088,9.846787473292276
1380000000.0,21.78,0.0,0.0,0.0,0.765572292780623,0.47088,9.830012292780623
1385000000.0,21.78,0.0,0.0,0.0,0.7425189807058898,0.46862367309803676,9.80019
1390000000.0,21.78,0.0,0.0,0.0,0.7694964539981646,0.46538645399816453,9.813139361994494
1395000000.0,21.78,0.0,0.0,0.0,0.7806797458075975,0.4786298729037987,9.8569898729038
1400000000.0,21.78,0.0,0.0,0.0,0.7651800000000001,0.46891797280667974,9.84335391842004
1405000000.0,21.78,0.0,0.0,0.0,0.757724290838243,0.46852570916175706,9.823537854580879
1410000000.0,21.78,0.0,0.0,0.0,0.7312374821626748,0.49324669044976693,9.835898345224884
1415000000.0,21.78,0.0,0.0,0.0,0.75537,0.46107,9.813139090061291
1420000000.0,21.78,0.0,0.0,0.0,0.7538003724182037,0.4626396275817963,9.783709255163593
1425000000.0,21.78,0.0,0.0,0.0,0.7499745830367458,0.4738230553578306,9.803133055357831
1430000000.0,21.78,0.0,0.0,0.0,0.7708697166718972,0.4891265722239657,9.828050566656206
1435000000.0,21.78,0.0,0.0,0.0,0.7468353278731533,0.48069,9.877394672126846
1440000000.0,21.78,0.0,0.0,0.0,0.75537,0.47951277202972775,9.860619404208094
1445000000.0,21.78,0.0,0.0,0.0,0.7542908719326087,0.47088,9.801269128067393
1450000000.0,21.78,0.0,0.0,0.0,0.7465410281645103,0.4728420563290206,9.80803794367098
1455000000.0,21.78,0.0,0.0,0.0,0.7562529282616293,0.48785121521511216,9.79302878478489
1460000000.0,21.78,0.0,0.0,0.0,0.7667496567174966,0.4626396567174966,9.821379656717497
1465000000.0,21.78,0.0,0.0,0.0,0.7834265430882655,0.48137672845586726,9.840116728455868
1470000000.0,21.78,0.0,0.0,0.0,0.7645913714470138,0.48873411434104114,9.848062742894028
1475000000.0,21.78,0.0,0.0,0.0,0.75537,0.4615605286501053,9.82863894269979
1480000000.0,21.78,0.0,0.0,0.0,0.7557624287472243,0.4716648574944486,9.810392428747225
1485000000.0,21.78,0.0,0.0,0.0,0.7657686576886866,0.4896170134669701,9.819221342311314
1490000000.0,21.78,0.0,0.0,0.0,0.7842113131756132,0.4612662289414623,9.800582457882925
1495000000.0,21.78,0.0,0.0,0.0,0.75537,0.47097812903858133,9.819908129038582
1500000000.0,21.78,0.0,0.0,0.0,0.7553700582714006,0.4806899708642997,9.8296200291357
1505000000.0,21.78,0.0,0.0,0.0,0.7747938584656386,0.47097807076718073,9.83933192923282
1510000000.0,21.78,0.0,0.0,0.0,0.7653761706700618,0.4804938293299383,9.810588512010186
1515000000.0,21.78,0.0,0.0,0.0,0.7461485411458855,0.4902057294270573,9.838547188281172
1520000000.0,21.78,0.0,0.0,0.0,0.74556,0.4622471114274711,9.820594740951648
1525000000.0,21.78,0.0,0.0,0.0,0.7641990592425907,0.4890285888638859,9.810490470378705
1530000000.0,21.78,0.0,0.0,0.0,0.7744014297184144,0.4812785702815857,9.837664289155242
1535000000.0,21.78,0.0,0.0,0.0,0.7658666701844667,0.47156667018446674,9.821183340368934
1540000000.0,21.78,0.0,0.0,0.0,0.7561547700873477,0.47088,9.828835229912652
1545000000.0,21.78,0.0,0.0,0.0,0.75537,0.4798071300097713,9.847474260019542
1550000000.0,21.78,0.0,0.0,0.0,0.7465409698931097,0.4542029096793291,9.83158193978622
1555000000.0,21.78,0.0,0.0,0.0,0.7368290697959907,0.4774527906120279,9.82088906979599
1560000000.0,21.78,0.0,0.0,0.0,0.7616484909033849,0.48069,9.785278678795487
1565000000.0,21.78,0.0,0.0,0.0,0.7737147303982473,0.4721552696017527,9.81470892159299
1570000000.0,21.78,0.0,0.0,0.0,0.7581167390092673,0.46244336950463366,9.853556521981465
1575000000.0,21.78,0.0,0.0,0.0,0.7720470611849707,0.4777470611849706,9.867388530592486
1580000000.0,21.78,0.0,0.0,0.0,0.7667495693103957,0.48069,9.844138707931187
1585000000.0,21.78,0.0,0.0,0.0,0.7570376692132766,0.47254766921327673,9.815003007639831
1590000000.0,21.78,0.0,0.0,0.0,0.7634142308838424,0.47892423088384234,9.77782307646463
1595000000.0,21.78,0.0,0.0,0.0,0.7572338690190387,0.4727438690190387,9.802544523923846
1600000000.0,21.78,0.0,0.0,0.0,0.7475219689219197,0.45518393784383937,9.833544093234242
1605000000.0,21.78,0.0,0.0,0.0,0.7610598623503987,0.4667598623503986,9.8471799311752
1610000000.0,21.78,0.0,0.0,0.0,0.7728318312723184,0.4632281687276817,9.826284506183045
1615000000.0,21.78,0.0,0.0,0.0,0.7372213431528135,0.46107,9.827363731369438
1620000000.0,21.78,0.0,0.0,0.0,0.7408512629331127,0.46852563146655635,9.82962
1625000000.0,21.78,0.0,0.0,0.0,0.767632594691026,0.45616493687264936,9.822262468436325
1630000000.0,21.78,0.0,0.0,0.0,0.7749900000000001,0.48029772664317727,9.863366589964766
1635000000.0,21.78,0.0,0.0,0.0,0.7678286682420867,0.4905,9.83570200945252
1640000000.0,21.78,0.0,0.0,0.0,0.7581167681449676,0.4905,9.812746768144969
1645000000.0,21.78,0.0,0.0,0.0,0.75537,0.46960460414354604,9.796069736095697
1650000000.0,21.78,0.0,0.0,0.0,0.7622370320492704,0.46793703204927034,9.804114064098542
1655000000.0,21.78,0.0,0.0,0.0,0.7584110678536107,0.47088,9.830306796439169
1660000000.0,21.78,0.0,0.0,0.0,0.75537,0.48422166448701665,9.852771664487017
1665000000.0,21.78,0.0,0.0,0.0,0.7487972676593727,0.48392726765937266,9.832759070637492
1670000000.0,21.78,0.0,0.0,0.0,0.7390853675622537,0.48069,9.813335367562255
1675000000.0,21.78,0.0,0.0,0.0,0.754879597604596,0.4743134674651347,9.816376532534866
1680000000.0,21.78,0.0,0.0,0.0,0.7526231347360314,0.46460156736801567,9.81981
1685000000.0,21.78,0.0,0.0,0.0,0.74556,0.4672503327291033,9.81981
1690000000.0,21.78,0.0,0.0,0.0,0.7577244656524447,0.47696223282622235,9.807645534347555
1695000000.0,21.78,0.0,0.0,0.0,0.7591958670766586,0.48667413292334133,9.806174132923342
1700000000.0,21.78,0.0,0.0,0.0,0.7612560330204604,0.4905,9.821772066040921
1705000000.0,21.78,0.0,0.0,0.0,0.7709679331175794,0.4847120668824207,9.841195866235159
1710000000.0,21.78,0.0,0.0,0.0,0.7749900000000001,0.4693103335706033,9.826480667141206
1715000000.0,21.78,0.0,0.0,0.0,0.758214800064548,0.4666617333118173,9.81
1720000000.0,21.78,0.0,0.0,0.0,0.7565472668178728,0.45439909977319104,9.804506366591065
1725000000.0,21.78,0.0,0.0,0.0,0.7597844664939447,0.46303213402422133,9.794794466493945
1730000000.0,21.78,0.0,0.0,0.0,0.7606674336031743,0.4753925663968257,9.822164601619047
1735000000.0,21.78,0.0,0.0,0.0,0.7599806662997067,0.46568066629970667,9.844040666299707
1740000000.0,21.78,0.0,0.0,0.0,0.7655724675948247,0.4661712337974123,9.83943
1745000000.0,21.78,0.0,0.0,0.0,0.7649837322109373,0.47588313389453135,9.829423732210937
1750000000.0,21.78,0.0,0.0,0.0,0.7455599320166993,0.4708799320166993,9.814904966008351
1755000000.0,21.78,0.0,0.0,0.0,0.7501708022663081,0.46107,9.81
1760000000.0,21.78,0.0,0.0,0.0,0.7651800000000001,0.4704876683717767,9.814708834185888
1765000000.0,21.78,0.0,0.0,0.0,0.7559585314339854,0.48069,9.824420734283008
1770000000.0,21.78,0.0,0.0,0.0,0.7545852687602528,0.48069,9.825107365619873
1775000000.0,21.78,0.0,0.0,0.0,0.7607654655227547,0.4718609310455093,9.824224534477246
1780000000.0,21.78,0.0,0.0,0.0,0.7640028691487287,0.46970286914872866,9.82962
1785000000.0,21.78,0.0,0.0,0.0,0.7707716653285167,0.4722533306570333,9.825401665328517
1790000000.0,21.78,0.0,0.0,0.0,0.7651800000000001,0.4528295304627953,9.832170704305808
1795000000.0,21.78,0.0,0.0,0.0,0.7692021348657214,0.4494942697314427,9.841195730268558
1800000000.0,21.78,0.0,0.0,0.0,0.7710659650371597,0.4689180699256807,9.817847895111479
1805000000.0,21.78,0.0,0.0,0.0,0.7651800000000001,0.4768640649400407,9.811667805179878
1810000000.0,21.78,0.0,0.0,0.0,0.7651800000000001,0.48206350547123505,9.825892164842921
1815000000.0,21.78,0.0,0.0,0.0,0.7651800000000001,0.489420794237408,9.823439735254198
1820000000.0,21.78,0.0,0.0,0.0,0.7616483646486837,0.4673483646486837,9.82962
1825000000.0,21.78,0.0,0.0,0.0,0.75537,0.46450353544843537,9.82962
1830000000.0,21.78,0.0,0.0,0.0,0.7520345644544456,0.46754456445444564,9.816278257817784
1835000000.0,21.78,0.0,0.0,0.0,0.7585093425706935,0.46430733564267335,9.80009200692802
1840000000.0,21.78,0.0,0.0,0.0,0.7785215285204153,0.47088,9.826088471479585
1845000000.0,21.78,0.0,0.0,0.0,0.7651800000000001,0.4678388641630887,9.83943
1850000000.0,21.78,0.0,0.0,0.0,0.7651800000000001,0.46107,9.83648696406597
1855000000.0,21.78,0.0,0.0,0.0,0.7651800000000001,0.46107,9.838154808093448
1860000000.0,21.78,0.0,0.0,0.0,0.7651800000000001,0.46381683612826835,9.845315819358659
1865000000.0,21.78,0.0,0.0,0.0,0.757233791323838,0.47088,9.815297472450775
1870000000.0,21.78,0.0,0.0,0.0,0.7408512726450127,0.4785319089675191,9.82962
1875000000.0,21.78,0.0,0.0,0.0,0.7602750728392508,0.49785746358037464,9.83452507283925
1880000000.0,21.78,0.0,0.0,0.0,0.7702811269665113,0.4857911269665113,9.846885563483255
1885000000.0,21.78,0.0,0.0,0.0,0.75537,0.4641109901584099,9.83266099015841
1890000000.0,21.78,0.0,0.0,0.0,0.7596864734219647,0.4479247101329471,9.81
1895000000.0,21.78,0.0,0.0,0.0,0.7749900000000001,0.4729401368081014,9.812060136808102
1900000000.0,21.78,0.0,0.0,0.0,0.7691038892843389,0.48069,9.821772036905221
1905000000.0,21.78,0.0,0.0,0.0,0.7511518110070181,0.48069,9.825892125995322
1910000000.0,21.78,0.0,0.0,0.0,0.7679266516021666,0.47892416290054163,9.813531674198916
1915000000.0,21.78,0.0,0.0,0.0,0.7407532115897322,0.4725477371965774,9.832955474393154
1920000000.0,21.78,0.0,0.0,0.0,0.760471088118911,0.47912036270630365,9.84924
1925000000.0,21.78,0.0,0.0,0.0,0.7416361495632615,0.47235153739081537,9.84629692521837
1930000000.0,21.78,0.0,0.0,0.0,0.7763634374879345,0.4779431250241313,9.825499687536198
1935000000.0,21.78,0.0,0.0,0.0,0.7809739872448399,0.46362067517010674,9.805291350340214
1940000000.0,21.78,0.0,0.0,0.0,0.7565472376821724,0.47951276231782763,9.835898286953483
1945000000.0,21.78,0.0,0.0,0.0,0.7662591377792914,0.46980086222070866,9.814316551117166
1950000000.0,21.78,0.0,0.0,0.0,0.7700848106179482,0.46107,9.84924
1955000000.0,21.78,0.0,0.0,0.0,0.7285888139205882,0.46107,9.845708248105883
1960000000.0,21.78,0.0,0.0,0.0,0.7561548380706484,0.46263967614129675,9.808430323858703
1965000000.0,21.78,0.0,0.0,0.0,0.7644932618322327,0.48000326183223263,9.791753476335536
1970000000.0,21.78,0.0,0.0,0.0,0.7565472765297727,0.47088,9.81353182958932
1975000000.0,21.78,0.0,0.0,0.0,0.7749900000000001,0.46989892327598926,9.868369461637995
1980000000.0,21.78,0.0,0.0,0.0,0.7745975615408757,0.4516524384591244,9.85826512308175
1985000000.0,21.78,0.0,0.0,0.0,0.7648856614437567,0.46165867711248676,9.837958307218782
1990000000.0,21.78,0.0,0.0,0.0,0.7555662386533624,0.48069,9.790772477306726
1995000000.0,21.78,0.0,0.0,0.0,0.7650818612495187,0.4804937224990372,9.809803722499037
2000000000.0,21.78,0.0,0.0,0.0,0.7553700776952008,0.46107011654280117,9.790380194238002
2005000000.0,21.78,0.0,0.0,0.0,0.7747938778894389,0.49020581683415815,9.838939694723598
2010000000.0,21.78,0.0,0.0,0.0,0.7557623219163232,0.4616584828744848,9.83943
2015000000.0,21.78,0.0,0.0,0.0,0.7648857391389575,0.46107,9.858461478277915
2020000000.0,21.78,0.0,0.0,0.0,0.7369270822917708,0.4799052784721528,9.811961803819619
2025000000.0,21.78,0.0,0.0,0.0,0.7543890786663908,0.4713704606668046,9.772721842667218
2030000000.0,21.78,0.0,0.0,0.0,0.7738128788606289,0.46165856056968557,9.78920287886063
2035000000.0,21.78,0.0,0.0,0.0,0.7567433209451332,0.4884400185823002,9.8451200371646
2040000000.0,21.78,0.0,0.0,0.0,0.7643952396245525,0.4814747603754476,9.858265239624552
2045000000.0,21.78,0.0,0.0,0.0,0.7651800000000001,0.48069,9.805487161669973
2050000000.0,21.78,0.0,0.0,0.0,0.7651800000000001,0.4895190398187904,9.809019039818791
2055000000.0,21.78,0.0,0.0,0.0,0.7651800000000001,0.4643071802522718,9.82746187983182
2060000000.0,21.78,0.0,0.0,0.0,0.7479143199739432,0.49560136005211364,9.82962
2065000000.0,21.78,0.0,0.0,0.0,0.74556,0.46617103955941036,9.821085259889854
2070000000.0,21.78,0.0,0.0,0.0,0.7708699206217993,0.4779432804145328,9.802936719585468
2075000000.0,21.78,0.0,0.0,0.0,0.7583129193912292,0.4723514596956146,9.816867080608771
2080000000.0,21.78,0.0,0.0,0.0,0.7636104404015045,0.45439911919699116,9.828050440401505
2085000000.0,21.78,0.0,0.0,0.0,0.7570376595013766,0.4594023404986234,9.845904680997247
2090000000.0,21.78,0.0,0.0,0.0,0.7473257594042576,0.48520272178722723,9.84924
2095000000.0,21.78,0.0,0.0,0.0,0.7376138593071386,0.4905,9.825401577921417
2100000000.0,21.78,0.0,0.0,0.0,0.7592941223699413,0.4905,9.80411391842004
2105000000.0,21.78,0.0,0.0,0.0,0.7341802364516024,0.4905,9.823439822661298
2110000000.0,21.78,0.0,0.0,0.0,0.7641992049210921,0.4751963180315632,9.82962
2115000000.0,21.78,0.0,0.0,0.0,0.7674362589186626,0.4633262589186626,9.844727482162675
2120000000.0,21.78,0.0,0.0,0.0,0.7428130764646308,0.4536143588215436,9.841784358821544
2125000000.0,21.78,0.0,0.0,0.0,0.7651801651023017,0.4586175412755754,9.809999834897699
2130000000.0,21.78,0.0,0.0,0.0,0.7604711172546111,0.47558888274538885,9.792930558627306
2135000000.0,21.78,0.0,0.0,0.0,0.7696926829396269,0.4735286585301866,9.811864024409441
2140000000.0,21.78,0.0,0.0,0.0,0.7467370337322704,0.4779432415669324,9.812746758433068
2145000000.0,21.78,0.0,0.0,0.0,0.7705757083202571,0.49462028332810287,9.816965141664053
2150000000.0,21.78,0.0,0.0,0.0,0.7779329582388297,0.47970887471648876,9.83354408352234
2155000000.0,21.78,0.0,0.0,0.0,0.7682210581417107,0.47088,9.812354232566843
2160000000.0,21.78,0.0,0.0,0.0,0.7451674741337748,0.46420915804459156,9.806860841955409
2165000000.0,21.78,0.0,0.0,0.0,0.7488954841050548,0.46107,9.823145484105055
2170000000.0,21.78,0.0,0.0,0.0,0.7683192842992929,0.4675446421496464,9.823145357850354
2175000000.0,21.78,0.0,0.0,0.0,0.7686134577532346,0.4836330844935308,9.826186542246766
2180000000.0,21.78,0.0,0.0,0.0,0.7714584423438845,0.47794311531223116,9.810784672968348
2185000000.0,21.78,0.0,0.0,0.0,0.7502686302359863,0.47088,9.806370342441005
2190000000.0,21.78,0.0,0.0,0.0,0.73575,0.46479775746187757,9.816082242538123
2195000000.0,21.78,0.0,0.0,0.0,0.7477182852704829,0.4670541426352414,9.813825857364758
2200000000.0,21.78,0.0,0.0,0.0,0.7789141709294417,0.47676604273236045,9.81588604273236
2205000000.0,21.78,0.0,0.0,0.0,0.7714582286820822,0.4749020571705206,9.831385885658959
2210000000.0,21.78,0.0,0.0,0.0,0.7610598429265985,0.47656984292659843,9.83943
2215000000.0,21.78,0.0,0.0,0.0,0.7484047709288477,0.4750982569762826,9.822654770928848
2220000000.0,21.78,0.0,0.0,0.0,0.7302563568791636,0.48186728624167285,9.793519070637492
2225000000.0,21.78,0.0,0.0,0.0,0.7421266296538663,0.46891782712817826,9.796756629653867
2230000000.0,21.78,0.0,0.0,0.0,0.7606674433150745,0.4618548866301489,9.815297443315075
2235000000.0,21.78,0.0,0.0,0.0,0.7807780302365803,0.48127868682438685,9.81981
2240000000.0,21.78,0.0,0.0,0.0,0.7742050259627503,0.4905,9.845316217546562
2245000000.0,21.78,0.0,0.0,0.0,0.7653762872128629,0.4905,9.843844281967844
2250000000.0,21.78,0.0,0.0,0.0,0.7700849562964497,0.4806899125928991,9.805094868889348
2255000000.0,21.78,0.0,0.0,0.0,0.7555661123986611,0.4612661123986611,9.799993887601339
2260000000.0,21.78,0.0,0.0,0.0,0.754977687795577,0.4653865316933653,9.819417687795577
2265000000.0,21.78,0.0,0.0,0.0,0.7651800000000001,0.4760792560050926,9.843452231984722
2270000000.0,21.78,0.0,0.0,0.0,0.7606673559079736,0.4753926440920265,9.854537355907974
2275000000.0,21.78,0.0,0.0,0.0,0.7465409116217091,0.47627545581085456,9.831581823243418
2280000000.0,21.78,0.0,0.0,0.0,0.7573322214313223,0.47088,9.797050667141207
2285000000.0,21.78,0.0,0.0,0.0,0.7721449668498497,0.47088,9.79322503315015
2290000000.0,21.78,0.0,0.0,0.0,0.7594902444805025,0.47088,9.830601222402512
2295000000.0,21.78,0.0,0.0,0.0,0.7611578554223786,0.46685785542237856,9.846983566267136
2300000000.0,21.78,0.0,0.0,0.0,0.7592940446747405,0.4728421340242213,9.813923821301039
2305000000.0,21.78,0.0,0.0,0.0,0.7690059447718596,0.4943259447718595,9.79803188954372
2310000000.0,21.78,0.0,0.0,0.0,0.7712621551310216,0.50031,9.817455689737958
2315000000.0,21.78,0.0,0.0,0.0,0.7579205100678051,0.4821612751695128,9.825990255033902
2320000000.0,21.78,0.0,0.0,0.0,0.7490916450632165,0.4583232901264329,9.83040493518965
2325000000.0,21.78,0.0,0.0,0.0,0.75537,0.47088,9.832072274198323
2330000000.0,21.78,0.0,0.0,0.0,0.7587054452574544,0.47088,9.796854554742547
2335000000.0,21.78,0.0,0.0,0.0,0.7489932732271328,0.48059203606372036,9.80009203606372
2340000000.0,21.78,0.0,0.0,0.0,0.7255477363550774,0.4877530181932302,9.822949245451692
2345000000.0,21.78,0.0,0.0,0.0,0.7516422910976229,0.4671522910976229,9.838743436646434
2350000000.0,21.78,0.0,0.0,0.0,0.7651800000000001,0.47774695435406955,9.847277817416279
2355000000.0,21.78,0.0,0.0,0.0,0.7623350542569506,0.4680350542569506,9.81981
2360000000.0,21.78,0.0,0.0,0.0,0.760863691680337,0.46381684584016847,9.817063154159833
2365000000.0,21.78,0.0,0.0,0.0,0.7670437621881376,0.4735287459372875,9.81
2370000000.0,21.78,0.0,0.0,0.0,0.7532119381032194,0.4832406460344065,9.812550646034406
2375000000.0,21.78,0.0,0.0,0.0,0.7749900000000001,0.4831423616054236,9.827167638394577
2380000000.0,21.78,0.0,0.0,0.0,0.7679266613140666,0.46577889245728893,9.846885553771356
2385000000.0,21.78,0.0,0.0,0.0,0.7410473073484731,0.48294634632576344,9.83266096102271
2390000000.0,21.78,0.0,0.0,0.0,0.7345729856915298,0.4861835071542351,9.81
2395000000.0,21.78,0.0,0.0,0.0,0.7631198534799986,0.4667597069599971,9.807939853479999
2400000000.0,21.78,0.0,0.0,0.0,0.7612561398513614,0.4551840932342409,9.806076139851362
2405000000.0,21.78,0.0,0.0,0.0,0.7810721065715212,0.47088,9.82962
2410000000.0,21.78,0.0,0.0,0.0,0.7651800000000001,0.47264584681135846,9.834917540434075
2415000000.0,21.78,0.0,0.0,0.0,0.7618445061830451,0.4823577469084775,9.849043518549136
2420000000.0,21.78,0.0,0.0,0.0,0.7471296470055965,0.4889303529944035,9.795481058983212
2425000000.0,21.78,0.0,0.0,0.0,0.75537,0.48069,9.772231547102715
2430000000.0,21.78,0.0,0.0,0.0,0.7581168943996689,0.48069,9.787437235999173
2435000000.0,21.78,0.0,0.0,0.0,0.7737146527030466,0.47941465270304656,9.834721389187814
2440000000.0,21.78,0.0,0.0,0.0,0.7651800000000001,0.46970275260592753,9.865328257817783
2445000000.0,21.78,0.0,0.0,0.0,0.7651800000000001,0.46214914749119146,9.835113410035234
2450000000.0,21.78,0.0,0.0,0.0,0.7651800000000001,0.46989895241168955,9.79822790482338
2455000000.0,21.78,0.0,0.0,0.0,0.7642970523145706,0.4637188430562884,9.784101790741719
2460000000.0,21.78,0.0,0.0,0.0,0.7561548477825485,0.48893030443490304,9.81981
2465000000.0,21.78,0.0,0.0,0.0,0.7658667478796676,0.47225349575933495,9.821870243639003
2470000000.0,21.78,0.0,0.0,0.0,0.7744013520232136,0.4910886479767865,9.846885408092854
2475000000.0,21.78,0.0,0.0,0.0,0.7641989038521891,0.4983478077043781,9.80901890385219
2480000000.0,21.78,0.0,0.0,0.0,0.74556,0.4606775518289755,9.79116489634205
2485000000.0,21.78,0.0,0.0,0.0,0.74556,0.4515543482681435,9.811766089608861
2490000000.0,21.78,0.0,0.0,0.0,0.745952496730525,0.4612662483652625,9.869056248365263
2495000000.0,21.78,0.0,0.0,0.0,0.7648855546128557,0.47088,9.87798296076333
2500000000.0,21.78,0.0,0.0,0.0,0.7357499514404995,0.4708800485595005,9.809999805761999
2505000000.0,21.78,0.0,0.0,0.0,0.7260380513433805,0.48059194865661947,9.771152205373522
2510000000.0,21.78,0.0,0.0,0.0,0.764395395014954,0.4710761512462615,9.789987697507478
2515000000.0,21.78,0.0,0.0,0.0,0.7746957488508576,0.47088,9.809411497701715
2520000000.0,21.78,0.0,0.0,0.0,0.7655723510520236,0.47088,9.828835297895953
2525000000.0,21.78,0.0,0.0,0.0,0.7744995490450955,0.4615604509549045,9.84825909809019
2530000000.0,21.78,0.0,0.0,0.0,0.7657685508577856,0.4702914491422145,9.840018550857785
2535000000.0,21.78,0.0,0.0,0.0,0.746933301521333,0.48912669847866697,9.76644320608533
2540000000.0,21.78,0.0,0.0,0.0,0.74556,0.4634242519906425,9.815101496018714
2545000000.0,21.78,0.0,0.0,0.0,0.7366328505664285,0.46107,9.81088285056643
2550000000.0,21.78,0.0,0.0,0.0,0.7622371485920716,0.4698990495306905,9.82765809906138
2555000000.0,21.78,0.0,0.0,0.0,0.7651800000000001,0.47088,9.847081899255619
2560000000.0,21.78,0.0,0.0,0.0,0.747914300550143,0.47088,9.823341450825215
2565000000.0,21.78,0.0,0.0,0.0,0.7540947498220475,0.4794147498220475,9.802740500355906
2570000000.0,21.78,0.0,0.0,0.0,0.7300600502425005,0.48069,9.80019
2575000000.0,21.78,0.0,0.0,0.0,0.7342785500162855,0.48069,9.816867100032571
2580000000.0,21.78,0.0,0.0,0.0,0.7604713503402136,0.48069,9.852771800453619
2585000000.0,21.78,0.0,0.0,0.0,0.7651800000000001,0.464405299578953,9.842765299578954
2590000000.0,21.78,0.0,0.0,0.0,0.7571357496923575,0.47715850061528503,9.831385749692357
2595000000.0,21.78,0.0,0.0,0.0,0.739477699190477,0.464797699190477,9.82167384959524
2600000000.0,21.78,0.0,0.0,0.0,0.73575,0.4846141515056415,9.81981
2605000000.0,21.78,0.0,0.0,0.0,0.751249901197999,0.475000098802001,9.850809802395998
2610000000.0,21.78,0.0,0.0,0.0,0.7477181493038815,0.47853185069611853,9.828442597215526
2615000000.0,21.78,0.0,0.0,0.0,0.7606675015864751,0.4731362492067625,9.827363750793237
2620000000.0,21.78,0.0,0.0,0.0,0.750268698219287,0.4634243491096435,9.822164349109643
2625000000.0,21.78,0.0,0.0,0.0,0.7602751019749511,0.46107,9.812452449012525
2630000000.0,21.78,0.0,0.0,0.0,0.7651800000000001,0.4683294510845945,9.824518902169189
2635000000.0,21.78,0.0,0.0,0.0,0.7580186488182865,0.47088,9.822458648818287
2640000000.0,21.78,0.0,0.0,0.0,0.7483067487211675,0.45675349744233495,9.833936502557664
2645000000.0,21.78,0.0,0.0,0.0,0.7664554541278545,0.47912060550380603,9.804604243120243
2650000000.0,21.78,0.0,0.0,0.0,0.7681229485269295,0.46303179410771794,9.80411410294614
2655000000.0,21.78,0.0,0.0,0.0,0.7651800000000001,0.45126,9.81676895157019
2660000000.0,21.78,0.0,0.0,0.0,0.751838296665383,0.4579308516673085,9.839822555001925
2665000000.0,21.78,0.0,0.0,0.0,0.7587055035288551,0.46107,9.842667248235573
2670000000.0,21.78,0.0,0.0,0.0,0.7651800000000001,0.46754465186154653,9.845904651861547
2675000000.0,21.78,0.0,0.0,0.0,0.752426896082669,0.4772565519586655,9.823733792165338
2680000000.0,21.78,0.0,0.0,0.0,0.74556,0.4932469041115691,9.82255690411157
2685000000.0,21.78,0.0,0.0,0.0,0.7517403521529035,0.47558859138838594,9.82962
2690000000.0,21.78,0.0,0.0,0.0,0.75537,0.46715225225002255,9.835702252250023
2695000000.0,21.78,0.0,0.0,0.0,0.7493858476528584,0.47088,9.827461695305717
2700000000.0,21.78,0.0,0.0,0.0,0.74556,0.47088,9.81981
2705000000.0,21.78,0.0,0.0,0.0,0.7513479525413795,0.47666795254137956,9.814022047458622
2710000000.0,21.78,0.0,0.0,0.0,0.766749705276997,0.48637985263849853,9.821379705276998
2715000000.0,21.78,0.0,0.0,0.0,0.7861735054712351,0.47931649452876496,9.840803505471236
2720000000.0,21.78,0.0,0.0,0.0,0.79461,0.47088,9.854733652832737
2725000000.0,21.78,0.0,0.0,0.0,0.7784233412104334,0.46548444707014447,9.842863341210434
2730000000.0,21.78,0.0,0.0,0.0,0.7704774530269746,0.46107,9.81902509394605
2735000000.0,21.78,0.0,0.0,0.0,0.7697906468759066,0.47146870624818704,9.81
2740000000.0,21.78,0.0,0.0,0.0,0.7549774935575749,0.4755887467787875,9.815101253221213
2745000000.0,21.78,0.0,0.0,0.0,0.7505631533183316,0.47088,9.834819459954995
2750000000.0,21.78,0.0,0.0,0.0,0.7602750534154505,0.4757850534154505,9.859050106830901
2755000000.0,21.78,0.0,0.0,0.0,0.7651800000000001,0.47588304648743046,9.854439139462292
2760000000.0,21.78,0.0,0.0,0.0,0.755762292780623,0.47558885360968856,9.815885731951557
2765000000.0,21.78,0.0,0.0,0.0,0.7593922611204227,0.4760792462931925,9.79038
2770000000.0,21.78,0.0,0.0,0.0,0.7659646923921469,0.4844179614117796,9.799405307607854
2775000000.0,21.78,0.0,0.0,0.0,0.7686136617031366,0.49148089219790897,9.832072769505228
2780000000.0,21.78,0.0,0.0,0.0,0.7675341840073419,0.4720570920036709,9.854733546001835
2785000000.0,21.78,0.0,0.0,0.0,0.7497783540952835,0.4737250622858506,9.83658493771415
2790000000.0,21.78,0.0,0.0,0.0,0.7347687290379873,0.48225949161519494,9.823930254192403
2795000000.0,21.78,0.0,0.0,0.0,0.7143643085790431,0.47088,9.82962
2800000000.0,21.78,0.0,0.0,0.0,0.7416362175465623,0.4748040543866406,9.82962
2805000000.0,21.78,0.0,0.0,0.0,0.7690059544837596,0.4883419089675191,9.825794045516242
2810000000.0,21.78,0.0,0.0,0.0,0.7712621454191215,0.4891264362573644,9.81981
2815000000.0,21.78,0.0,0.0,0.0,0.7615502453220026,0.47088,9.823439754677997
2820000000.0,21.78,0.0,0.0,0.0,0.75537,0.4602850356746504,9.836683309550233
2825000000.0,21.78,0.0,0.0,0.0,0.7588035548722356,0.4483171097444711,9.838939335383294
2830000000.0,21.78,0.0,0.0,0.0,0.7718509099387092,0.46440545496935454,9.823145454969355
2835000000.0,21.78,0.0,0.0,0.0,0.7750879348005794,0.47088,9.826382644933526
2840000000.0,21.78,0.0,0.0,0.0,0.7522307448364074,0.47401925516359256,9.81981
2845000000.0,21.78,0.0,0.0,0.0,0.7516423105214232,0.48373115526071153,9.828933465782136
2850000000.0,21.78,0.0,0.0,0.0,0.7622369446421695,0.47872777856867776,9.84629694464217
2855000000.0,21.78,0.0,0.0,0.0,0.7582149554549495,0.45410495545494955,9.83089513363515
2860000000.0,21.78,0.0,0.0,0.0,0.7651800000000001,0.46107,9.807253144447932
2865000000.0,21.78,0.0,0.0,0.0,0.7625312443508125,0.46107,9.794892488701626
2870000000.0,21.78,0.0,0.0,0.0,0.7604713114926132,0.4661713114926131,9.793323278731533
2875000000.0,21.78,0.0,0.0,0.0,0.7798951116868512,0.47823744415657443,9.839430223373702
2880000000.0,21.78,0.0,0.0,0.0,0.7875466321783664,0.4732344559405446,9.864151088118911
2885000000.0,21.78,0.0,0.0,0.0,0.7651800000000001,0.47843364396233645,9.840214575849346
2890000000.0,21.78,0.0,0.0,0.0,0.7630217438652175,0.4687217438652175,9.803525231595653
2895000000.0,21.78,0.0,0.0,0.0,0.7574301562319016,0.46107,9.788810624927606
2900000000.0,21.78,0.0,0.0,0.0,0.7632179436709795,0.46303205632902056,9.825696168987061
2905000000.0,21.78,0.0,0.0,0.0,0.7572339564261396,0.4727439564261396,9.843648130721581
2910000000.0,21.78,0.0,0.0,0.0,0.7634141434767415,0.47539243043022433,9.81981
2915000000.0,21.78,0.0,0.0,0.0,0.75537,0.45793102648151024,9.824813269861133
2920000000.0,21.78,0.0,0.0,0.0,0.75537,0.48579102984751027,9.846100686565007
2925000000.0,21.78,0.0,0.0,0.0,0.7568415568146156,0.4595984431853844,9.828148443185384
2930000000.0,21.78,0.0,0.0,0.0,0.7651800000000001,0.45400691382346914,9.817063086176532
2935000000.0,21.78,0.0,0.0,0.0,0.7651800000000001,0.4721553570088536,9.804016071026561
2940000000.0,21.78,0.0,0.0,0.0,0.7675345142119452,0.4771582286820823,9.827265485788056
2945000000.0,21.78,0.0,0.0,0.0,0.7848,0.45557662881236627,9.812158314406183
2950000000.0,21.78,0.0,0.0,0.0,0.7838189426997895,0.4885378853995789,9.83060105730021
2955000000.0,21.78,0.0,0.0,0.0,0.7732240852053409,0.4717629573973296,9.83854704260267
2960000000.0,21.78,0.0,0.0,0.0,0.7569397149888971,0.47833542751665425,9.82962
2965000000.0,21.78,0.0,0.0,0.0,0.7743032424084325,0.4533202727747027,9.828246484816866
2970000000.0,21.78,0.0,0.0,0.0,0.7651800000000001,0.47951268462262686,9.810588657688687
2975000000.0,21.78,0.0,0.0,0.0,0.7656705577858056,0.46205111557161116,9.821281673357417
2980000000.0,21.78,0.0,0.0,0.0,0.7749900000000001,0.48069,9.848062626351226
2985000000.0,21.78,0.0,0.0,0.0,0.7752843579800437,0.48069,9.820104357980044
2990000000.0,21.78,0.0,0.0,0.0,0.7842112257685123,0.48069,9.829031225768512
2995000000.0,21.78,0.0,0.0,0.0,0.7555663163485632,0.4802973673028737,9.800484474522845
3000000000.0,21.78,0.0,0.0,0.0,0.7749898834571989,0.44145023308560233,9.8296198834572
3005000000.0,21.78,0.0,0.0,0.0,0.7555660832629608,0.48029783347407834,9.81019608326296
3010000000.0,21.78,0.0,0.0,0.0,0.7361422830687229,0.48069,9.858069292328192
3015000000.0,21.78,0.0,0.0,0.0,0.7738130342510304,0.48069,9.830502724311728
3020000000.0,21.78,0.0,0.0,0.0,0.7561546826802468,0.4901076586598766,9.820202341340124
3025000000.0,21.78,0.0,0.0,0.0,0.75537,0.4811804412430044,9.801170882486009
3030000000.0,21.78,0.0,0.0,0.0,0.7738129177082292,0.48069,9.81863291770823
3035000000.0,21.78,0.0,0.0,0.0,0.7658666410487664,0.4624432820975328,9.810686641048767
3040000000.0,21.78,0.0,0.0,0.0,0.7561547409516474,0.4700952590483526,9.837075777145058
3045000000.0,21.78,0.0,0.0,0.0,0.7642971591454717,0.4798071591454716,9.821575681709056
3050000000.0,21.78,0.0,0.0,0.0,0.7563509407574094,0.4718609407574094,9.837468118485182
3055000000.0,21.78,0.0,0.0,0.0,0.7466390406602904,0.4796109593397096,9.82196808132058
3060000000.0,21.78,0.0,0.0,0.0,0.74556,0.48069,9.811177140563172
3065000000.0,21.78,0.0,0.0,0.0,0.7711642786018429,0.4721552404660524,9.835604278601844
3070000000.0,21.78,0.0,0.0,0.0,0.7749900000000001,0.5046266385242664,9.847866659631066
3075000000.0,21.78,0.0,0.0,0.0,0.7666514402718145,0.4851043208154432,9.824224320815443
3080000000.0,21.78,0.0,0.0,0.0,0.7486990803493908,0.4889304598253046,9.81981
3085000000.0,21.78,0.0,0.0,0.0,0.7292752801551529,0.4742152801551528,9.811667640077577
3090000000.0,21.78,0.0,0.0,0.0,0.7581170400781705,0.4547914799609148,9.801955739980459
3095000000.0,21.78,0.0,0.0,0.0,0.7731261601166617,0.4592061601166616,9.816082320233324
3100000000.0,21.78,0.0,0.0,0.0,0.7592938795724388,0.46891806021378063,9.835506120427562
3105000000.0,21.78,0.0,0.0,0.0,0.75537,0.4863799206217992,9.8471799603109
3110000000.0,21.78,0.0,0.0,0.0,0.75537,0.4828481395919814,9.841588139591982
3115000000.0,21.78,0.0,0.0,0.0,0.7780312815154129,0.4882437605051376,9.816768718484587
3120000000.0,21.78,0.0,0.0,0.0,0.7624330181932302,0.4830443393977434,9.802544339397745
3125000000.0,21.78,0.0,0.0,0.0,0.7627275606993756,0.4733324393006244,9.807547560699376
3130000000.0,21.78,0.0,0.0,0.0,0.7579205392035054,0.4563610784070108,9.82451892159299
3135000000.0,21.78,0.0,0.0,0.0,0.7768540826808409,0.45842136089361357,9.815297278212773
3140000000.0,21.78,0.0,0.0,0.0,0.7706734780185348,0.46107,9.824126521981466
3145000000.0,21.78,0.0,0.0,0.0,0.7721451610878517,0.4819654832635548,9.822654838912149
3150000000.0,21.78,0.0,0.0,0.0,0.7681229388150295,0.4767658776300588,9.81981
3155000000.0,21.78,0.0,0.0,0.0,0.7584110387179104,0.47088,9.81981
3160000000.0,21.78,0.0,0.0,0.0,0.7687117227584173,0.4775508613792086,9.813139138620793
3165000000.0,21.78,0.0,0.0,0.0,0.7618444770473448,0.46754447704734475,9.829718284428983
3170000000.0,21.78,0.0,0.0,0.0,0.7877433078672331,0.4675446615734466,9.820006015279661
3175000000.0,21.78,0.0,0.0,0.0,0.7661606299766063,0.4900096850116969,9.816376561670566
3180000000.0,21.78,0.0,0.0,0.0,0.7330030764646308,0.47519615292926154,9.81981
3185000000.0,21.78,0.0,0.0,0.0,0.7506614474592146,0.47343072372960726,9.832170723729607
3190000000.0,21.78,0.0,0.0,0.0,0.7590977380380775,0.45636095215230954,9.833347738038077
3195000000.0,21.78,0.0,0.0,0.0,0.75537,0.45940248617712487,9.82962
3200000000.0,21.78,0.0,0.0,0.0,0.7730281864684819,0.47088,9.82962
3205000000.0,21.78,0.0,0.0,0.0,0.7674361132401611,0.46509203774672037,9.82962
3210000000.0,21.78,0.0,0.0,0.0,0.7383004129488041,0.4667598623503986,9.8353098623504
3215000000.0,21.78,0.0,0.0,0.0,0.7371235248950353,0.47647176244751765,9.83943
3220000000.0,21.78,0.0,0.0,0.0,0.7565473250892732,0.4751963374553634,9.82294901236609
3225000000.0,21.78,0.0,0.0,0.0,0.7597844373582444,0.48167112528351125,9.820791125283511
3230000000.0,21.78,0.0,0.0,0.0,0.75537,0.46931014904450147,9.819025074522251
3235000000.0,21.78,0.0,0.0,0.0,0.7657687256719873,0.4616587256719873,9.815199362835994
3240000000.0,21.78,0.0,0.0,0.0,0.7698887370668874,0.48108252586622524,9.81981
3245000000.0,21.78,0.0,0.0,0.0,0.7701831630302317,0.4905,9.839822652120926
3250000000.0,21.78,0.0,0.0,0.0,0.7700849368726495,0.4757848106179481,9.849239873745299
3255000000.0,21.78,0.0,0.0,0.0,0.7603730367755304,0.47549088967340886,9.83943
3260000000.0,21.78,0.0,0.0,0.0,0.7600788633215887,0.48579113667841134,9.825303410035234
3265000000.0,21.78,0.0,0.0,0.0,0.7559584731625848,0.4714684731625847,9.814610763418708
3270000000.0,21.78,0.0,0.0,0.0,0.7500726635158266,0.46107,9.810784672968348
3275000000.0,21.78,0.0,0.0,0.0,0.7597845636129457,0.4787282544517826,9.82226281806473
3280000000.0,21.78,0.0,0.0,0.0,0.7651800000000001,0.49167707257987076,9.84924
3285000000.0,21.78,0.0,0.0,0.0,0.7651800000000001,0.4680349085784491,9.840803272385633
3290000000.0,21.78,0.0,0.0,0.0,0.7610597360956974,0.45126,9.817259208287092
3295000000.0,21.78,0.0,0.0,0.0,0.7513478359985784,0.45528216400142163,9.80019
3300000000.0,21.78,0.0,0.0,0.0,0.74556,0.46499406409854066,9.808038128197081
3305000000.0,21.78,0.0,0.0,0.0,0.7608638567826386,0.46705403580434035,9.82363596419566
3310000000.0,21.78,0.0,0.0,0.0,0.7698885428288854,0.4722535928783359,9.837075728585557
3315000000.0,21.78,0.0,0.0,0.0,0.74556,0.4905,9.83472094244041
3320000000.0,21.78,0.0,0.0,0.0,0.74556,0.48696833551298335,9.81
3325000000.0,21.78,0.0,0.0,0.0,0.7558606937524069,0.47038930624759306,9.813433564584136
3330000000.0,21.78,0.0,0.0,0.0,0.7716545353187454,0.4545954646812546,9.836487323406274
3335000000.0,21.78,0.0,0.0,0.0,0.7587052704432528,0.46107,9.855910540886505
3340000000.0,21.78,0.0,0.0,0.0,0.7486992648754927,0.46107,9.820202205373523
3345000000.0,21.78,0.0,0.0,0.0,0.7584111649726116,0.4732346598904466,9.803231164972612
3350000000.0,21.78,0.0,0.0,0.0,0.7710661301394613,0.49736693493026934,9.81
3355000000.0,21.78,0.0,0.0,0.0,0.7734201393326015,0.481965104499451,9.827069791001097
3360000000.0,21.78,0.0,0.0,0.0,0.753800595791906,0.46107,9.857872538944125
3365000000.0,21.78,0.0,0.0,0.0,0.7749900000000001,0.46371876536108764,9.821673703916737
3370000000.0,21.78,0.0,0.0,0.0,0.7647873381671735,0.47343066545820667,9.795088669083587
3375000000.0,21.78,0.0,0.0,0.0,0.7455602622213027,0.48559513111065133,9.783022565555326
3380000000.0,21.78,0.0,0.0,0.0,0.7726355343475554,0.4956010686951107,9.799797862609779
3385000000.0,21.78,0.0,0.0,0.0,0.7674363657495638,0.47843363425043633,9.834132731499128
3390000000.0,21.78,0.0,0.0,0.0,0.7749900000000001,0.46872173415331736,9.84924
3395000000.0,21.78,0.0,0.0,0.0,0.7729298340561984,0.46313016594380163,9.840999336224794
3400000000.0,21.78,0.0,0.0,0.0,0.7553696697953968,0.4689179339590793,9.80803793395908
3405000000.0,21.78,0.0,0.0,0.0,0.721721898414119,0.46293396613803967,9.80205396613804
3410000000.0,21.78,0.0,0.0,0.0,0.7543893311757933,0.47088,9.818829331175793
3415000000.0,21.78,0.0,0.0,0.0,0.79461,0.47088,9.855714467335444
3420000000.0,21.78,0.0,0.0,0.0,0.78990100071181,0.47088,9.840999666429397
3425000000.0,21.78,0.0,0.0,0.0,0.7637084334734844,0.4679368669469687,9.843353733893938
3430000000.0,21.78,0.0,0.0,0.0,0.7539965333763653,0.455380399870904,9.81274693324727
3435000000.0,21.78,0.0,0.0,0.0,0.7442846332792463,0.47813926655849265,9.827069266558492
3440000000.0,21.78,0.0,0.0,0.0,0.7369272668178727,0.46577906727149065,9.808822733182128
3445000000.0,21.78,0.0,0.0,0.0,0.74556,0.497072499255025,9.801269166914992
3450000000.0,21.78,0.0,0.0,0.0,0.7475221340242213,0.46891786597577867,9.812943201036333
3455000000.0,21.78,0.0,0.0,0.0,0.7634140657815407,0.4530259342184593,9.83943
3460000000.0,21.78,0.0,0.0,0.0,0.747914601619046,0.4724497344126974,9.840214867206349
3465000000.0,21.78,0.0,0.0,0.0,0.7736164653930647,0.48706616348266163,9.847866465393064
3470000000.0,21.78,0.0,0.0,0.0,0.7559586674005867,0.4443933370029334,9.827265330397653
3475000000.0,21.78,0.0,0.0,0.0,0.7651800000000001,0.49000943250229434,9.791361134995412
3480000000.0,21.78,0.0,0.0,0.0,0.7655724675948248,0.4810824675948247,9.811177402784475
3485000000.0,21.78,0.0,0.0,0.0,0.774106896924169,0.4899112646161126,9.83854689692417
3490000000.0,21.78,0.0,0.0,0.0,0.7457562677890627,0.470291196632812,9.810981338945314
3495000000.0,21.78,0.0,0.0,0.0,0.7554681678861817,0.44174450365854506,9.858559160569092
3500000000.0,21.78,0.0,0.0,0.0,0.7651798640333988,0.47088,9.810000135966602
3505000000.0,21.78,0.0,0.0,0.0,0.7457560638391606,0.47088,9.82942393616084
3510000000.0,21.78,0.0,0.0,0.0,0.7647877363550775,0.4804938681775387,9.820006131822462
3515000000.0,21.78,0.0,0.0,0.0,0.7651800000000001,0.47117423172534234,9.81981
3520000000.0,21.78,0.0,0.0,0.0,0.7745976683717768,0.4991330051153301,9.838645336743554
3525000000.0,21.78,0.0,0.0,0.0,0.7563508630622087,0.4537121576555216,9.830110431531105
3530000000.0,21.78,0.0,0.0,0.0,0.75537,0.4420385314339853,9.811177062867971
3535000000.0,21.78,0.0,0.0,0.0,0.75537,0.4779434746525347,9.819123368663135
3540000000.0,21.78,0.0,0.0,0.0,0.7643952687602528,0.4897152687602527,9.828835268760253
3545000000.0,21.78,0.0,0.0,0.0,0.7651800000000001,0.4726456622852566,9.82962
3550000000.0,21.78,0.0,0.0,0.0,0.7475218620910187,0.47088,9.81196186209102
3555000000.0,21.78,0.0,0.0,0.0,0.7630219381032195,0.45341806189678063,9.82746193810322
3560000000.0,21.78,0.0,0.0,0.0,0.7565471308512713,0.4685257382974574,9.838252869148729
3565000000.0,21.78,0.0,0.0,0.0,0.75537,0.4623452307541523,9.796756153770762
3570000000.0,21.78,0.0,0.0,0.0,0.7722433386859334,0.46107,9.807253338685934
3575000000.0,21.78,0.0,0.0,0.0,0.7583128611198287,0.46107,9.818338569440087
3580000000.0,21.78,0.0,0.0,0.0,0.7471295304627953,0.46107,9.786848121851182
3585000000.0,21.78,0.0,0.0,0.0,0.7537023696343237,0.4854971089029711,9.821281848171619
3590000000.0,21.78,0.0,0.0,0.0,0.7634142697314428,0.4663671908056719,9.82962
3595000000.0,21.78,0.0,0.0,0.0,0.7651800000000001,0.4690161698285617,9.845512339657123
3600000000.0,21.78,0.0,0.0,0.0,0.7573319300743193,0.47088,9.825695790222959
3605000000.0,21.78,0.0,0.0,0.0,0.7476200299772003,0.47088,9.81981
3610000000.0,21.78,0.0,0.0,0.0,0.74556,0.4861837402398374,9.827461870119919
3615000000.0,21.78,0.0,0.0,0.0,0.7757750808681508,0.4829462297829623,9.814512459565925
3620000000.0,21.78,0.0,0.0,0.0,0.7773443296858433,0.48069,9.862189692199097
3625000000.0,21.78,0.0,0.0,0.0,0.7676324295887244,0.4659748591774486,9.849239718354896
3630000000.0,21.78,0.0,0.0,0.0,0.7579205294916053,0.4538105294916053,9.832170529491606
3635000000.0,21.78,0.0,0.0,0.0,0.7482086293944863,0.47990548242205483,9.80813588818346
3640000000.0,21.78,0.0,0.0,0.0,0.7596865414052655,0.4763734585947346,9.80019
3645000000.0,21.78,0.0,0.0,0.0,0.7721451707997518,0.47088,9.828050683199008
3650000000.0,21.78,0.0,0.0,0.0,0.7681229291031294,0.47774707089687074,9.85316414179374
3655000000.0,21.78,0.0,0.0,0.0,0.7719489709939897,0.48069,9.872587941987979
3660000000.0,21.78,0.0,0.0,0.0,0.7683191289088913,0.46734825781778255,9.838644773453348
3665000000.0,21.78,0.0,0.0,0.0,0.7454616864353169,0.4807883135646831,9.81981
3670000000.0,21.78,0.0,0.0,0.0,0.7422246712853467,0.4840253287146533,9.780961972287919
3675000000.0,21.78,0.0,0.0,0.0,0.74556,0.4743134286175343,9.811962571059725
3680000000.0,21.78,0.0,0.0,0.0,0.7706738859183389,0.47715847147958473,9.83943
3685000000.0,21.78,0.0,0.0,0.0,0.7662588852698888,0.4868703715767037,9.845610371576704
3690000000.0,21.78,0.0,0.0,0.0,0.7614522716738228,0.4844177283261773,9.830993184978531
3695000000.0,21.78,0.0,0.0,0.0,0.7532116564581166,0.4866741717709417,9.807841656458118
3700000000.0,21.78,0.0,0.0,0.0,0.74556,0.4728417843958178,9.811962143736121
3705000000.0,21.78,0.0,0.0,0.0,0.7687118878607189,0.46685797196517975,9.82559797196518
3710000000.0,21.78,0.0,0.0,0.0,0.7620405117508051,0.46519012793770126,9.82962
3715000000.0,21.78,0.0,0.0,0.0,0.7567435443188355,0.4722535443188354,9.824028227840582
3720000000.0,21.78,0.0,0.0,0.0,0.7596863277434633,0.48618367225653675,9.814316327743464
3725000000.0,21.78,0.0,0.0,0.0,0.7607655723536557,0.4635221382317214,9.81
3730000000.0,21.78,0.0,0.0,0.0,0.7598825275492254,0.45734241735232417,9.82059494490155
3735000000.0,21.78,0.0,0.0,0.0,0.75537,0.48127874509578744,9.824420627452106
3740000000.0,21.78,0.0,0.0,0.0,0.7655725452900255,0.48029745470997454,9.81981
3745000000.0,21.78,0.0,0.0,0.0,0.7599804817736049,0.47588317274213177,9.824813172742132
3750000000.0,21.78,0.0,0.0,0.0,0.7553701456785015,0.47087985432149854,9.82471492716075
3755000000.0,21.78,0.0,0.0,0.0,0.7651800000000001,0.47068394587273943,9.82461697293637
3760000000.0,21.78,0.0,0.0,0.0,0.7698888730334889,0.48069,9.82962
3765000000.0,21.78,0.0,0.0,0.0,0.7703792268693923,0.4668576806081768,9.82962
3770000000.0,21.78,0.0,0.0,0.0,0.7606673267722733,0.45577267322772674,9.811569307089094
3775000000.0,21.78,0.0,0.0,0.0,0.75537,0.4654845733248457,9.799209146649693
3780000000.0,21.78,0.0,0.0,0.0,0.7640029468439294,0.48814589368785893,9.814316473421965
3785000000.0,21.78,0.0,0.0,0.0,0.7749900000000001,0.4932465059236651,9.828246747038168
3790000000.0,21.78,0.0,0.0,0.0,0.7585089055351891,0.47088,9.83943
3795000000.0,21.78,0.0,0.0,0.0,0.7478165211399652,0.47088,9.831385652573356
3800000000.0,21.78,0.0,0.0,0.0,0.7612559261895593,0.47480407381044076,9.811961852379119
3805000000.0,21.78,0.0,0.0,0.0,0.7630219478151195,0.4768640260924403,9.80401597390756
3810000000.0,21.78,0.0,0.0,0.0,0.7638063779859638,0.46715212599532124,9.832367244028072
3815000000.0,21.78,0.0,0.0,0.0,0.7528195482035955,0.4792188705089887,9.861600451796404
3820000000.0,21.78,0.0,0.0,0.0,0.7545849774032498,0.4995249774032498,9.842176651602166
3825000000.0,21.78,0.0,0.0,0.0,0.7323164257039643,0.4738228514079285,9.815885702815857
3830000000.0,21.78,0.0,0.0,0.0,0.7359464231794642,0.4644054743931547,9.787044525606847
3835000000.0,21.78,0.0,0.0,0.0,0.7586073744902737,0.47088,9.799994246941644
3840000000.0,21.78,0.0,0.0,0.0,0.7651800000000001,0.46774072541260725,9.83943
3845000000.0,21.78,0.0,0.0,0.0,0.7682211746845118,0.47323469873804697,9.833347650630976
3850000000.0,21.78,0.0,0.0,0.0,0.7720469252183694,0.49442385043673853,9.81686692521837
3855000000.0,21.78,0.0,0.0,0.0,0.7651800000000001,0.4863799497574995,9.81284497487875
3860000000.0,21.78,0.0,0.0,0.0,0.7734206249276063,0.4920693750723938,9.817063125024132
3865000000.0,21.78,0.0,0.0,0.0,0.7813661246350613,0.4655824498540245,9.82324387536494
3870000000.0,21.78,0.0,0.0,0.0,0.7481106751701068,0.45381067517010676,9.853948649659786
3875000000.0,21.78,0.0,0.0,0.0,0.75537,0.46107,9.829619698931097
3880000000.0,21.78,0.0,0.0,0.0,0.75537,0.4634244753643447,9.802544475364344
3885000000.0,21.78,0.0,0.0,0.0,0.7621391263843913,0.47539275092292754,9.816769126384392
3890000000.0,21.78,0.0,0.0,0.0,0.7783251733242518,0.4883417244414172,9.843746551117166
3895000000.0,21.78,0.0,0.0,0.0,0.7574301756557018,0.47862982434429824,9.84668894606579
3900000000.0,21.78,0.0,0.0,0.0,0.7691041515056416,0.47088,9.802152075752822
3905000000.0,21.78,0.0,0.0,0.0,0.7829360241500603,0.47088,9.81
3910000000.0,21.78,0.0,0.0,0.0,0.767926496211765,0.47088,9.81176587594706
3915000000.0,21.78,0.0,0.0,0.0,0.7390855520883556,0.46921222395582224,9.81981
3920000000.0,21.78,0.0,0.0,0.0,0.7538003238587032,0.4642093522825935,9.824519028423891
3925000000.0,21.78,0.0,0.0,0.0,0.7440884237615842,0.4777468475231685,9.847768423761584
3930000000.0,21.78,0.0,0.0,0.0,0.7439908580132086,0.46107,9.83668304732893
3935000000.0,21.78,0.0,0.0,0.0,0.7869577414040775,0.46107,9.81981
3940000000.0,21.78,0.0,0.0,0.0,0.7392818295893183,0.46224727652977277,9.818632723470227
3945000000.0,21.78,0.0,0.0,0.0,0.7641008233731083,0.4719591766268918,9.813237529880675
3950000000.0,21.78,0.0,0.0,0.0,0.75537,0.47970892327598924,9.837467846551979
3955000000.0,21.78,0.0,0.0,0.0,0.7571359536422595,0.47264595364225953,9.82157595364226
3960000000.0,21.78,0.0,0.0,0.0,0.7742051230817513,0.48971512308175125,9.837075369245253
3965000000.0,21.78,0.0,0.0,0.0,0.7665535540307357,0.4793164459692645,9.810686777015368
3970000000.0,21.78,0.0,0.0,0.0,0.7842113228875133,0.46107,9.821576031337461
3975000000.0,21.78,0.0,0.0,0.0,0.7744994227903943,0.46156057720960575,9.848258845580789
3980000000.0,21.78,0.0,0.0,0.0,0.7647875226932753,0.47088,9.828835045386551
3985000000.0,21.78,0.0,0.0,0.0,0.75537,0.4714687548076876,9.810294377403844
3990000000.0,21.78,0.0,0.0,0.0,0.7557625550019256,0.49010744499807446,9.81981
3995000000.0,21.78,0.0,0.0,0.0,0.7748918224019183,0.4710763551961636,9.819613644803837
4000000000.0,21.78,0.0,0.0,0.0,0.7651798446095985,0.4904999223047992,9.800190310780804
4005000000.0,21.78,0.0,0.0,0.0,0.7457560444153605,0.48078802220768024,9.83903791116928
4010000000.0,21.78,0.0,0.0,0.0,0.7551738778894388,0.48069,9.82981612211056
4015000000.0,21.78,0.0,0.0,0.0,0.7648857779865579,0.4902057779865578,9.82962
4020000000.0,21.78,0.0,0.0,0.0,0.7557623219163232,0.47166464383264645,9.810784643832648
4025000000.0,21.78,0.0,0.0,0.0,0.7367308436384085,0.4801995781807958,9.800680421819205
4030000000.0,21.78,0.0,0.0,0.0,0.7634144348337444,0.4622470434441704,9.83707591311166
4035000000.0,21.78,0.0,0.0,0.0,0.7834267567500677,0.4701933783750338,9.830306621624967
4040000000.0,21.78,0.0,0.0,0.0,0.7577241645835416,0.44380416458354166,9.820594721527847
4045000000.0,21.78,0.0,0.0,0.0,0.7642971785692718,0.47715871427708717,9.846591535707816
4050000000.0,21.78,0.0,0.0,0.0,0.7563509213336093,0.47186092133360924,9.822752764000828
4055000000.0,21.78,0.0,0.0,0.0,0.7641009787635099,0.4534180424729804,9.811079021236491
4060000000.0,21.78,0.0,0.0,0.0,0.7651800000000001,0.494424394303144,9.801367121139371
4065000000.0,21.78,0.0,0.0,0.0,0.7566452210422522,0.47470566312675666,9.808724778957748
4070000000.0,21.78,0.0,0.0,0.0,0.7638066790548669,0.4624433209451332,9.8353100371646
4075000000.0,21.78,0.0,0.0,0.0,0.7651800000000001,0.46107,9.83943
4080000000.0,21.78,0.0,0.0,0.0,0.7569395207508952,0.4693104792491048,9.82294904150179
4085000000.0,21.78,0.0,0.0,0.0,0.7635123793462238,0.4871647586924476,9.803525241307552
4090000000.0,21.78,0.0,0.0,0.0,0.7732242794433428,0.4744114411133144,9.80019
4095000000.0,21.78,0.0,0.0,0.0,0.7511514613786147,0.4629338204595382,9.863759436323694
4100000000.0,21.78,0.0,0.0,0.0,0.7612561592751617,0.46107,9.862973840724838
4105000000.0,21.78,0.0,0.0,0.0,0.7574300202653003,0.46107,9.8203001013265
4110000000.0,21.78,0.0,0.0,0.0,0.7630218798318189,0.4687218798318188,9.81
4115000000.0,21.78,0.0,0.0,0.0,0.7425186602131866,0.46332622007106217,9.802446220071063
4120000000.0,21.78,0.0,0.0,0.0,0.7506613600521136,0.49089272010422724,9.80019
4125000000.0,21.78,0.0,0.0,0.0,0.7700851602463517,0.4708796795072968,9.807547580123176
4130000000.0,21.78,0.0,0.0,0.0,0.7532115593391157,0.46107,9.846297401101474
4135000000.0,21.78,0.0,0.0,0.0,0.7598827606348276,0.4682313803174138,9.837565859047759
4140000000.0,21.78,0.0,0.0,0.0,0.7651800000000001,0.4779432804145328,9.815493439170934
4145000000.0,21.78,0.0,0.0,0.0,0.7582148194883482,0.48069,9.789104458465046
4150000000.0,21.78,0.0,0.0,0.0,0.7622370806087708,0.4738229193912292,9.794304161217543
4155000000.0,21.78,0.0,0.0,0.0,0.7584110192941103,0.4641110192941102,9.83403490352945
4160000000.0,21.78,0.0,0.0,0.0,0.75537,0.48108264240902643,9.829227357590973
4165000000.0,21.78,0.0,0.0,0.0,0.7685155618002557,0.4905,9.81981
4170000000.0,21.78,0.0,0.0,0.0,0.7814646809972469,0.47107595700825955,9.813335319002753
4175000000.0,21.78,0.0,0.0,0.0,0.7848,0.4674465810943658,9.816376581094366
4180000000.0,21.78,0.0,0.0,0.0,0.7722430376170304,0.47715848119148485,9.813531518808515
4185000000.0,21.78,0.0,0.0,0.0,0.7651800000000001,0.48069,9.828541143865811
4190000000.0,21.78,0.0,0.0,0.0,0.7712622813857228,0.48069,9.821183155842832
4195000000.0,21.78,0.0,0.0,0.0,0.7690058185171582,0.4747058185171582,9.815984181482841
4200000000.0,21.78,0.0,0.0,0.0,0.7592939184200392,0.45322175526011754,9.825696081579961
4205000000.0,21.78,0.0,0.0,0.0,0.7669459633541597,0.4646019267083193,9.823832018322921
4210000000.0,21.78,0.0,0.0,0.0,0.7636102364516024,0.46362035467740353,9.848259408870994
4215000000.0,21.78,0.0,0.0,0.0,0.7609617818713179,0.4792189093565891,9.824125745029457
4220000000.0,21.78,0.0,0.0,0.0,0.7596863180315632,0.48932263606312637,9.812354727873748
4225000000.0,21.78,0.0,0.0,0.0,0.75537,0.4752944179344442,9.835015582065555
4230000000.0,21.78,0.0,0.0,0.0,0.7712624464880244,0.47088,9.83943
4235000000.0,21.78,0.0,0.0,0.0,0.7692018532206185,0.4656806177402062,9.82383185322062
4240000000.0,21.78,0.0,0.0,0.0,0.7706738470707385,0.4712725647138256,9.820202564713826
4245000000.0,21.78,0.0,0.0,0.0,0.7697904526379046,0.47068363509193634,9.824616817545968
4250000000.0,21.78,0.0,0.0,0.0,0.75537,0.46597508255115083,9.81490491744885
4255000000.0,21.78,0.0,0.0,0.0,0.7601769826482698,0.47088,9.81961396529654
4260000000.0,21.78,0.0,0.0,0.0,0.7698888827453889,0.46146223450922236,9.82962
4265000000.0,21.78,0.0,0.0,0.0,0.7703792171574922,0.46048156568501564,9.843452348527524
4270000000.0,21.78,0.0,0.0,0.0,0.7651800000000001,0.47990536587925364,9.840999268241493
4275000000.0,21.78,0.0,0.0,0.0,0.7563508339265084,0.48167083392650833,9.815395416963254
4280000000.0,21.78,0.0,0.0,0.0,0.7541929662677297,0.4665635168661352,9.81
4285000000.0,21.78,0.0,0.0,0.0,0.7693983832309839,0.46107,9.814218383230985
4290000000.0,21.78,0.0,0.0,0.0,0.7626291500156915,0.46107,9.823930283328103
4295000000.0,21.78,0.0,0.0,0.0,0.74556,0.47715873370088735,9.837664366850444
4300000000.0,21.78,0.0,0.0,0.0,0.7534081670446817,0.4963859164776592,9.829619582388297
4305000000.0,21.78,0.0,0.0,0.0,0.7575280327610804,0.48667401638054014,9.78871204914162
4310000000.0,21.78,0.0,0.0,0.0,0.7492878837165788,0.48069,9.793127302299473
4315000000.0,21.78,0.0,0.0,0.0,0.7481104323726043,0.48069,9.82962
4320000000.0,21.78,0.0,0.0,0.0,0.7463450517324506,0.4771583160891832,9.822556632178367
4325000000.0,21.78,0.0,0.0,0.0,0.7651800000000001,0.48118075202380756,9.816867168015872
4330000000.0,21.78,0.0,0.0,0.0,0.7685154841050549,0.49030354768483553,9.822949031789891
4335000000.0,21.78,0.0,0.0,0.0,0.7620404631913047,0.4773547684043477,9.816474768404348
4340000000.0,21.78,0.0,0.0,0.0,0.7388892842992929,0.48736071570070716,9.82962
4345000000.0,21.78,0.0,0.0,0.0,0.74556,0.4715664468107645,9.82962
4350000000.0,21.78,0.0,0.0,0.0,0.7514461689870617,0.4571461689870617,9.82373383101294
4355000000.0,21.78,0.0,0.0,0.0,0.7651800000000001,0.4737249845906499,9.812844984590651
4360000000.0,21.78,0.0,0.0,0.0,0.7706737693755378,0.48343688468776885,9.817063115312232
4365000000.0,21.78,0.0,0.0,0.0,0.7821512152151122,0.4852024304302243,9.825892708709327
4370000000.0,21.78,0.0,0.0,0.0,0.7647872604719727,0.47343068488200685,9.861207945353978
4375000000.0,21.78,0.0,0.0,0.0,0.7431077549373776,0.47823741502087413,9.829619660083496
4380000000.0,21.78,0.0,0.0,0.0,0.7581165447712656,0.46381654477126544,9.802544485076245
4385000000.0,21.78,0.0,0.0,0.0,0.7447755406934554,0.45273192586681926,9.80323084447991
4390000000.0,21.78,0.0,0.0,0.0,0.7728317147295172,0.4905,9.791361426352415
4395000000.0,21.78,0.0,0.0,0.0,0.7734207414704075,0.4925601853676019,9.837860741470408
4400000000.0,21.78,0.0,0.0,0.0,0.7985337436058375,0.49638582907055834,9.86689791453528
4405000000.0,21.78,0.0,0.0,0.0,0.7749900000000001,0.48441797112367974,9.8497300721908
4410000000.0,21.78,0.0,0.0,0.0,0.7732241143410412,0.4932464573641646,9.804702343023123
4415000000.0,21.78,0.0,0.0,0.0,0.7635122142439222,0.46107,9.78057
4420000000.0,21.78,0.0,0.0,0.0,0.7600790575595906,0.46263968585319687,9.788418429265985
4425000000.0,21.78,0.0,0.0,0.0,0.7774420702484207,0.46940841404968414,9.834034757850947
4430000000.0,21.78,0.0,0.0,0.0,0.7384969720948698,0.4638169720948697,9.852182569762826
4435000000.0,21.78,0.0,0.0,0.0,0.75537,0.4781392277108923,9.811275386144555
4440000000.0,21.78,0.0,0.0,0.0,0.75537,0.45989271375832713,9.817455427516654
4445000000.0,21.78,0.0,0.0,0.0,0.7564491863387919,0.45233918633879183,9.80558593169396
4450000000.0,21.78,0.0,0.0,0.0,0.766161086435911,0.46205108643591086,9.847277827128178
4455000000.0,21.78,0.0,0.0,0.0,0.7741070134669702,0.47264597306605977,9.83403493266515
4460000000.0,21.78,0.0,0.0,0.0,0.7643951133698512,0.4905,9.873175793588958
4465000000.0,21.78,0.0,0.0,0.0,0.75537,0.48912642654546423,9.808626426545464
4470000000.0,21.78,0.0,0.0,0.0,0.7547813131756131,0.47088,9.792146060473161
4475000000.0,21.78,0.0,0.0,0.0,0.7460505869215058,0.4698988261569883,9.822753521529036
4480000000.0,21.78,0.0,0.0,0.0,0.7557624870186248,0.45204497403724975,9.8771000519255
4485000000.0,21.78,0.0,0.0,0.0,0.765474387115744,0.4711743871157439,9.837958064421281
4490000000.0,21.78,0.0,0.0,0.0,0.7745974255742744,0.48069,9.790576287212863
4495000000.0,21.78,0.0,0.0,0.0,0.7551736253800363,0.48069,9.800288187309983
4500000000.0,21.78,0.0,0.0,0.0,0.7357500874071009,0.48069,9.8100000874071
4505000000.0,21.78,0.0,0.0,0.0,0.7454619875042199,0.48069,9.81971198750422
4510000000.0,21.78,0.0,0.0,0.0,0.7647877752026778,0.46146222479732224,9.848651662804016
4515000000.0,21.78,0.0,0.0,0.0,0.7461484246030843,0.4705857876984579,9.830208424603084
4520000000.0,21.78,0.0,0.0,0.0,0.7832307511823076,0.46146231220442313,9.810784624408846
4525000000.0,21.78,0.0,0.0,0.0,0.7754804121073042,0.4703895878926959,9.81
4530000000.0,21.78,0.0,0.0,0.0,0.7657685120101853,0.47088,9.819221487989815
4535000000.0,21.78,0.0,0.0,0.0,0.7834267761738678,0.47088,9.828933388086934
4540000000.0,21.78,0.0,0.0,0.0,0.7757747118159471,0.47088,9.838645288184052
4545000000.0,21.78,0.0,0.0,0.0,0.7749900000000001,0.48873437656234375,9.830502811718828
4550000000.0,21.78,0.0,0.0,0.0,0.7573318232434182,0.46401273486512734,9.83844908837829
4555000000.0,21.78,0.0,0.0,0.0,0.75537,0.4698009884754099,9.83069901152459
4560000000.0,21.78,0.0,0.0,0.0,0.75537,0.45361422285494224,9.803721334282415
4565000000.0,21.78,0.0,0.0,0.0,0.7468352113303521,0.4853991546785915,9.808724788669648
4570000000.0,21.78,0.0,0.0,0.0,0.7624333775335338,0.4651899336996993,9.826873377533534
4575000000.0,21.78,0.0,0.0,0.0,0.7651800000000001,0.46107,9.821281411136114
4580000000.0,21.78,0.0,0.0,0.0,0.7404585331169854,0.4775509779220098,9.85277195584402
4585000000.0,21.78,0.0,0.0,0.0,0.73575,0.48069,9.81833805470938
4590000000.0,21.78,0.0,0.0,0.0,0.7759714457762145,0.48873428915524286,9.818044289155242
4595000000.0,21.78,0.0,0.0,0.0,0.7689076214952763,0.4984461892523619,9.811863810747639
4600000000.0,21.78,0.0,0.0,0.0,0.7494838213010382,0.4689176426020764,9.817848089349482
4605000000.0,21.78,0.0,0.0,0.0,0.74556,0.4688199894465999,9.81981
4610000000.0,21.78,0.0,0.0,0.0,0.7608637790874379,0.47088,9.835113779087438
4615000000.0,21.78,0.0,0.0,0.0,0.7576262103591621,0.4859875792816758,9.831876210359162
4620000000.0,21.78,0.0,0.0,0.0,0.75537,0.4681329307861293,9.814708620524087
4625000000.0,21.78,0.0,0.0,0.0,0.7627275898350759,0.47578517967015177,9.817357589835076
4630000000.0,21.78,0.0,0.0,0.0,0.7579205100678051,0.48069,9.812550510067805
4635000000.0,21.78,0.0,0.0,0.0,0.75537,0.47352860997068613,9.802838609970687
4640000000.0,21.78,0.0,0.0,0.0,0.7765598703792987,0.47088,9.814316580252866
4645000000.0,21.78,0.0,0.0,0.0,0.7708696195528962,0.4848103804471038,9.826775190223552
4650000000.0,21.78,0.0,0.0,0.0,0.7651800000000001,0.4905,9.836487090320672
4655000000.0,21.78,0.0,0.0,0.0,0.7651800000000001,0.4769620191644202,9.83266100958221
4660000000.0,21.78,0.0,0.0,0.0,0.771850890514909,0.4775508905149089,9.82962
4665000000.0,21.78,0.0,0.0,0.0,0.7355532563278326,0.48726279061202793,9.836192790612028
4670000000.0,21.78,0.0,0.0,0.0,0.7420287628365876,0.4840253092908531,9.82000592787256
4675000000.0,21.78,0.0,0.0,0.0,0.75537,0.48069,9.816376590806266
4680000000.0,21.78,0.0,0.0,0.0,0.75537,0.48069,9.83236698180677
4685000000.0,21.78,0.0,0.0,0.0,0.7615503910005039,0.48069,9.82088882699849
4690000000.0,21.78,0.0,0.0,0.0,0.7530154178047542,0.48677229109762293,9.81
4695000000.0,21.78,0.0,0.0,0.0,0.7575283823894838,0.4845158088052581,9.81
4700000000.0,21.78,0.0,0.0,0.0,0.7592939087081391,0.4748039087081391,9.821772182583722
4705000000.0,21.78,0.0,0.0,0.0,0.75537,0.47088,9.818044017222041
4710000000.0,21.78,0.0,0.0,0.0,0.75537,0.47088,9.827069674458297
4715000000.0,21.78,0.0,0.0,0.0,0.7441864168335641,0.4820635831664358,9.83943
4720000000.0,21.78,0.0,0.0,0.0,0.7577247667213477,0.47401892495898923,9.833936308319663
4725000000.0,21.78,0.0,0.0,0.0,0.7534076328901763,0.47186118355491186,9.81882881644509
4730000000.0,21.78,0.0,0.0,0.0,0.7463449837491498,0.4753925081254251,9.82059498374915
4735000000.0,21.78,0.0,0.0,0.0,0.75537,0.4760793919716939,9.808822432113224
4740000000.0,21.78,0.0,0.0,0.0,0.7604712920688129,0.4602848317247483,9.810785168275252
4745000000.0,21.78,0.0,0.0,0.0,0.7651800000000001,0.45145638433186386,9.844629576497796
4750000000.0,21.78,0.0,0.0,0.0,0.770085092263051,0.47088018452610186,9.849239815473899
4755000000.0,21.78,0.0,0.0,0.0,0.7605690229194902,0.4758830076398301,9.83462300763983
4760000000.0,21.78,0.0,0.0,0.0,0.7502688924572889,0.4755888924572889,9.824911107542711
4765000000.0,21.78,0.0,0.0,0.0,0.75537,0.46685762233677625,9.824420792554408
4770000000.0,21.78,0.0,0.0,0.0,0.759882692651527,0.4557726926515269,9.834132692651528
4775000000.0,21.78,0.0,0.0,0.0,0.7607654072513541,0.46989918549729187,9.843844592748646
4780000000.0,21.78,0.0,0.0,0.0,0.751053507154235,0.48069,9.84060701430847
4785000000.0,21.78,0.0,0.0,0.0,0.749778392942884,0.4764716070571161,9.821183214114232
4790000000.0,21.78,0.0,0.0,0.0,0.751249706959997,0.47500029304000296,9.818240586080007
4795000000.0,21.78,0.0,0.0,0.0,0.7536043862742439,0.4766678068628781,9.821575613725756
4800000000.0,21.78,0.0,0.0,0.0,0.7612559067657592,0.4669559067657591,9.813924093234242
4805000000.0,21.78,0.0,0.0,0.0,0.7515440066686401,0.46489599333135995,9.82746198666272
4810000000.0,21.78,0.0,0.0,0.0,0.7492878934284789,0.4783357868569579,9.831974213143042
4815000000.0,21.78,0.0,0.0,0.0,0.758999793525598,0.4905,9.816180206474403
4820000000.0,21.78,0.0,0.0,0.0,0.768711693622717,0.4905,9.817063387245435
4825000000.0,21.78,0.0,0.0,0.0,0.7681228125603282,0.48706640628016407,9.826186406280165
4830000000.0,21.78,0.0,0.0,0.0,0.758705493816955,0.4706835185491352,9.823145493816956
4835000000.0,21.78,0.0,0.0,0.0,0.7619426060859261,0.45773478782814786,9.819907818257779
4840000000.0,21.78,0.0,0.0,0.0,0.752230705988807,0.47401929401119297,9.803329294011194
4845000000.0,21.78,0.0,0.0,0.0,0.7425188058916881,0.47764880589168807,9.813041194108312
4850000000.0,21.78,0.0,0.0,0.0,0.7445792826162929,0.47088,9.81981
4855000000.0,21.78,0.0,0.0,0.0,0.7594900113949001,0.47372499430254994,9.81981
4860000000.0,21.78,0.0,0.0,0.0,0.7510537887993379,0.48069,9.81981
4865000000.0,21.78,0.0,0.0,0.0,0.767828794496788,0.48069,9.825107588993577
4870000000.0,21.78,0.0,0.0,0.0,0.7724393054060932,0.4755886108121861,9.836879305406093
4875000000.0,21.78,0.0,0.0,0.0,0.7676325946910261,0.45861740530897405,9.827167405308975
4880000000.0,21.78,0.0,0.0,0.0,0.7702810104237101,0.4583234843644348,9.817455505211855
4885000000.0,21.78,0.0,0.0,0.0,0.757626394885264,0.48069,9.812256394885264
4890000000.0,21.78,0.0,0.0,0.0,0.7651800000000001,0.4763734100352341,9.81981
4895000000.0,21.78,0.0,0.0,0.0,0.7610596098409962,0.4672505852385058,9.81981
4900000000.0,21.78,0.0,0.0,0.0,0.7475220951766209,0.4865758096467581,9.829620475883106
4905000000.0,21.78,0.0,0.0,0.0,0.7535060047262601,0.47088,9.8595400236313
4910000000.0,21.78,0.0,0.0,0.0,0.7473258953708589,0.472645895370859,9.816278209258282
4915000000.0,21.78,0.0,0.0,0.0,0.7587055909359559,0.48235779546797797,9.80019
4920000000.0,21.78,0.0,0.0,0.0,0.7765596955650971,0.4905,9.80019
4925000000.0,21.78,0.0,0.0,0.0,0.7803852130133522,0.4860852130133521,9.804604786986648
4930000000.0,21.78,0.0,0.0,0.0,0.753996504240665,0.4651904872780048,9.83236699151867
4935000000.0,21.78,0.0,0.0,0.0,0.743009208287092,0.4866738124306381,9.844138416574184
4940000000.0,21.78,0.0,0.0,0.0,0.72594,0.4634245919071459,9.812354591907146
4945000000.0,21.78,0.0,0.0,0.0,0.727019196050692,0.4828483921013839,9.827461607898616
4950000000.0,21.78,0.0,0.0,0.0,0.738693288443433,0.49736671155656714,9.81
4955000000.0,21.78,0.0,0.0,0.0,0.7642970037550701,0.46999700375507003,9.810882996244931
4960000000.0,21.78,0.0,0.0,0.0,0.756939792684098,0.46185489634204896,9.822949585368196
4965000000.0,21.78,0.0,0.0,0.0,0.7743032035608322,0.47088,9.854929221364992
4970000000.0,21.78,0.0,0.0,0.0,0.7657686965362871,0.47088,9.800778696536288
4975000000.0,21.78,0.0,0.0,0.0,0.7740088067331882,0.47137059663340597,9.810490596633407
4980000000.0,21.78,0.0,0.0,0.0,0.75537,0.48069,9.8213799869221
4985000000.0,21.78,0.0,0.0,0.0,0.75537,0.4801012063447121,9.85757801586178
4990000000.0,21.78,0.0,0.0,0.0,0.755566296924763,0.4614625938495259,9.810196296924763
4995000000.0,21.78,0.0,0.0,0.0,0.7651800000000001,0.48078819702188197,9.819613605956237
5000000000.0,21.78,0.0,0.0,0.0,0.7651800000000001,0.49049980576199803,9.800190097119001
5005000000.0,21.78,0.0,0.0,0.0,0.7651800000000001,0.4710760055677601,9.809901997216121
5010000000.0,21.78,0.0,0.0,0.0,0.7651800000000001,0.480493897313239,9.858069486566194
5015000000.0,21.78,0.0,0.0,0.0,0.7556642025896421,0.48069,9.840018405179284
5020000000.0,21.78,0.0,0.0,0.0,0.75537,0.47127230249252305,9.83943
5025000000.0,21.78,0.0,0.0,0.0,0.746050402395404,0.47088,9.811471207186212
5030000000.0,21.78,0.0,0.0,0.0,0.74556,0.461658502298285,9.819221497701715
5035000000.0,21.78,0.0,0.0,0.0,0.754683397798834,0.47931679559766793,9.838056795597668
5040000000.0,21.78,0.0,0.0,0.0,0.773420595791906,0.47166470210404704,9.866505893687858
5045000000.0,21.78,0.0,0.0,0.0,0.7660628020069281,0.47088,9.833151208027711
5050000000.0,21.78,0.0,0.0,0.0,0.774009098090191,0.48853819618038197,9.811961803819619
5055000000.0,21.78,0.0,0.0,0.0,0.75752800362538,0.4905,9.80126900181269
5060000000.0,21.78,0.0,0.0,0.0,0.764002898284429,0.45596840686228407,9.817455796568858
5065000000.0,21.78,0.0,0.0,0.0,0.7651800000000001,0.468329596763096,9.871018790289288
5070000000.0,21.78,0.0,0.0,0.0,0.7736166984786671,0.45400660304266605,9.844923206085332
5075000000.0,21.78,0.0,0.0,0.0,0.749974204272642,0.49295299287892996,9.83943
5080000000.0,21.78,0.0,0.0,0.0,0.74556,0.49206950132709504,9.831189501327096
5085000000.0,21.78,0.0,0.0,0.0,0.753702398770024,0.4905,9.813335202459953
5090000000.0,21.78,0.0,0.0,0.0,0.7634142988671431,0.47441140226571404,9.83413289660143
5095000000.0,21.78,0.0,0.0,0.0,0.773126198964262,0.462933801035738,9.847376198964263
5100000000.0,21.78,0.0,0.0,0.0,0.782838099061381,0.46107,9.84139190093862
5105000000.0,21.78,0.0,0.0,0.0,0.7615500025245,0.4688199991585,9.8006800042075
5110000000.0,21.78,0.0,0.0,0.0,0.763021899255619,0.493835697766857,9.805683798511238
5115000000.0,21.78,0.0,0.0,0.0,0.7651800000000001,0.470094802589048,9.81
5120000000.0,21.78,0.0,0.0,0.0,0.742812901650429,0.453614300550143,9.824911398899713
5125000000.0,21.78,0.0,0.0,0.0,0.757822798640928,0.458617599546976,9.844335199093951
5130000000.0,21.78,0.0,0.0,0.0,0.757920500355905,0.44655100071181003,9.82020200142362
5135000000.0,21.78,0.0,0.0,0.0,0.741047200517572,0.462934199223642,9.81
5140000000.0,21.78,0.0,0.0,0.0,0.728686700161667,0.477943299838333,9.824126599676667
5145000000.0,21.78,0.0,0.0,0.0,0.7468355998063559,0.466759600129096,9.82962
5150000000.0,21.78,0.0,0.0,0.0,0.7622371000325711,0.474804200065142,9.82962
5155000000.0,21.78,0.0,0.0,0.0,0.7651800000000001,0.46715199974062,9.82285099987031
5160000000.0,21.78,0.0,0.0,0.0,0.785192700680427,0.474411800453618,9.813139099773192
5165000000.0,21.78,0.0,0.0,0.0,0.774891599028216,0.474117199676072,9.823145600647857
5170000000.0,21.78,0.0,0.0,0.0,0.745755898736859,0.47088,9.82962
5175000000.0,21.78,0.0,0.0,0.0,0.73575,0.47088,9.823243399481834
5180000000.0,21.78,0.0,0.0,0.0,0.74830700123057,0.47088,9.80725299876943
5185000000.0,21.78,0.0,0.0,0.0,0.75537,0.483240801424808,9.812550801424809
5190000000.0,21.78,0.0,0.0,0.0,0.7614523008095231,0.47225309757143097,9.825892300809523
5195000000.0,21.78,0.0,0.0,0.0,0.777148401813284,0.473038401813284,9.841588401813285
5200000000.0,21.78,0.0,0.0,0.0,0.7789138989962391,0.498348303011283,9.831581696988717
5205000000.0,21.78,0.0,0.0,0.0,0.75183799559648,0.48117999449559995,9.7908699944956
5210000000.0,21.78,0.0,0.0,0.0,0.7528197035939971,0.46675990119799904,9.799209505989994
5215000000.0,21.78,0.0,0.0,0.0,0.7651800000000001,0.476471801295118,9.825401801295119
5220000000.0,21.78,0.0,0.0,0.0,0.7706737013922371,0.469702597215526,9.82962
5225000000.0,21.78,0.0,0.0,0.0,0.753407594042576,0.466465601489356,9.82962
5230000000.0,21.78,0.0,0.0,0.0,0.741047501586475,0.47617750158647504,9.813727495240576
5235000000.0,21.78,0.0,0.0,0.0,0.750759401683594,0.47029119663281194,9.810588803367189
5240000000.0,21.78,0.0,0.0,0.0,0.7604713017807131,0.46617130178071303,9.814708698219288
5245000000.0,21.78,0.0,0.0,0.0,0.755173596244336,0.47088,9.835016009389161
5250000000.0,21.78,0.0,0.0,0.0,0.7553702039499021,0.465974898025049,9.844334694075147
5255000000.0,21.78,0.0,0.0,0.0,0.7651800000000001,0.47068400414414,9.83442700207207
5260000000.0,21.78,0.0,0.0,0.0,0.760471097830811,0.475981097830811,9.830012195661622
5265000000.0,21.78,0.0,0.0,0.0,0.759980802266308,0.47088,9.81981
5270000000.0,21.78,0.0,0.0,0.0,0.751641892909719,0.47088,9.81981
5275000000.0,21.78,0.0,0.0,0.0,0.7489938073816381,0.466465397539454,9.810980795078908
5280000000.0,21.78,0.0,0.0,0.0,0.7608634974423351,0.47401950767299506,9.804506502557665
5285000000.0,21.78,0.0,0.0,0.0,0.75537,0.4736263893808639,9.814218402654785
5290000000.0,21.78,0.0,0.0,0.0,0.7636106055038061,0.46362090825570906,9.823930302751902
5295000000.0,21.78,0.0,0.0,0.0,0.766945594301956,0.48069,9.833642202849022
5300000000.0,21.78,0.0,0.0,0.0,0.7435976911615769,0.4728417941077179,9.83943
5305000000.0,21.78,0.0,0.0,0.0,0.7335920060865201,0.46107,9.83177799391348
5310000000.0,21.78,0.0,0.0,0.0,0.74556,0.4722537094211371,9.81981
5315000000.0,21.78,0.0,0.0,0.0,0.74556,0.47598078705000785,9.81981
5320000000.0,21.78,0.0,0.0,0.0,0.7526234066692341,0.45832340666923405,9.823341703334618
5325000000.0,21.78,0.0,0.0,0.0,0.7686136034317361,0.47774720686347205,9.836487206863472
5330000000.0,21.78,0.0,0.0,0.0,0.76831899294229,0.4838289929422899,9.839233489413434
5335000000.0,21.78,0.0,0.0,0.0,0.7650822108779222,0.47088,9.826284807251948
5340000000.0,21.78,0.0,0.0,0.0,0.7848,0.46774069627690695,9.83001208883072
5345000000.0,21.78,0.0,0.0,0.0,0.7726351847191519,0.46715240764042404,9.81
5350000000.0,21.78,0.0,0.0,0.0,0.748503103917331,0.47774689608266896,9.81
5355000000.0,21.78,0.0,0.0,0.0,0.75252499598555,0.46803499598555,9.8156900080289
5360000000.0,21.78,0.0,0.0,0.0,0.751053808223138,0.463816904111569,9.82962
5365000000.0,21.78,0.0,0.0,0.0,0.7598823915826239,0.46823119579131195,9.840215216834752
5370000000.0,21.78,0.0,0.0,0.0,0.7481107043058071,0.46107,9.848454365553543
5375000000.0,21.78,0.0,0.0,0.0,0.7504647911941479,0.46107,9.787927395597075
5380000000.0,21.78,0.0,0.0,0.0,0.7451680180001802,0.46107,9.792342522500226
5385000000.0,21.78,0.0,0.0,0.0,0.7749900000000001,0.45881359540283595,9.838645618388655
5390000000.0,21.78,0.0,0.0,0.0,0.772831695305717,0.45773491408284916,9.866701695305716
5395000000.0,21.78,0.0,0.0,0.0,0.7589993856257939,0.47450938562579387,9.84874897604299
5400000000.0,21.78,0.0,0.0,0.0,0.737712104888521,0.45714631466556316,9.804113685334437
5405000000.0,21.78,0.0,0.0,0.0,0.7492880099712801,0.4769619900287199,9.78616201495692
5410000000.0,21.78,0.0,0.0,0.0,0.761648189834482,0.4646018101655181,9.813531810165518
5415000000.0,21.78,0.0,0.0,0.0,0.7505634155396341,0.4773543896402439,9.834623415539633
5420000000.0,21.78,0.0,0.0,0.0,0.7718505894460059,0.46263970527699705,9.851201473615015
5425000000.0,21.78,0.0,0.0,0.0,0.75537,0.47382321074823214,9.81
5430000000.0,21.78,0.0,0.0,0.0,0.7581170109424701,0.4877529890575299,9.80450597811506
5435000000.0,21.78,0.0,0.0,0.0,0.772439188863292,0.47343081113670815,9.77713702784177
5440000000.0,21.78,0.0,0.0,0.0,0.756547305665473,0.4881453886690539,9.824519222661893
5445000000.0,21.78,0.0,0.0,0.0,0.7641007942374081,0.4719592057625921,9.861208411525183
5450000000.0,21.78,0.0,0.0,0.0,0.7563511058597111,0.48167110585971107,9.872783364841734
5455000000.0,21.78,0.0,0.0,0.0,0.7660630059568302,0.4905,9.81716098212951
5460000000.0,21.78,0.0,0.0,0.0,0.7726352818381529,0.48971509394605095,9.789595093946051
5465000000.0,21.78,0.0,0.0,0.0,0.7476204184532041,0.4800031938489319,9.784690836906409
5470000000.0,21.78,0.0,0.0,0.0,0.774401293751813,0.47029129375181294,9.83943
5475000000.0,21.78,0.0,0.0,0.0,0.7656706063453061,0.4605793936546939,9.83943
5480000000.0,21.78,0.0,0.0,0.0,0.7738124806727249,0.4520450128848501,9.839037493557575
5485000000.0,21.78,0.0,0.0,0.0,0.74556,0.47088,9.829325593460457
5490000000.0,21.78,0.0,0.0,0.0,0.745756306636663,0.47088,9.819613693363337
5495000000.0,21.78,0.0,0.0,0.0,0.755468206733782,0.47068358653243586,9.810294620201347
5500000000.0,21.78,0.0,0.0,0.0,0.7651800000000001,0.45126021366180213,9.83943
5505000000.0,21.78,0.0,0.0,0.0,0.7651800000000001,0.47068401385604014,9.83943
5510000000.0,21.78,0.0,0.0,0.0,0.7555660929748609,0.46126609297486093,9.82981609297486
5515000000.0,21.78,0.0,0.0,0.0,0.7648858071222582,0.4515541928777419,9.839135807122258
5520000000.0,21.78,0.0,0.0,0.0,0.7651800000000001,0.46067770721937706,9.81117687834187
5525000000.0,21.78,0.0,0.0,0.0,0.7465407853670079,0.4703896073164961,9.856598036582481
5530000000.0,21.78,0.0,0.0,0.0,0.7824460296544603,0.47088,9.849828492586385
5535000000.0,21.78,0.0,0.0,0.0,0.7574297774677977,0.48000340751073406,9.830993184978531
5540000000.0,21.78,0.0,0.0,0.0,0.75537,0.4445887695685877,9.811569384784294
5545000000.0,21.78,0.0,0.0,0.0,0.7642972077049721,0.44145,9.81
5550000000.0,21.78,0.0,0.0,0.0,0.756350892197909,0.46793732340627325,9.827658215604183
5555000000.0,21.78,0.0,0.0,0.0,0.7641010078992102,0.4796110078992101,9.83835100789921
5560000000.0,21.78,0.0,0.0,0.0,0.7479141840073419,0.48069,9.830797092003671
5565000000.0,21.78,0.0,0.0,0.0,0.7540948080934481,0.4892248080934481,9.812550383813104
5570000000.0,21.78,0.0,0.0,0.0,0.7638067081905672,0.47362658361886584,9.81
5575000000.0,21.78,0.0,0.0,0.0,0.7401641751369418,0.47088,9.81
5580000000.0,21.78,0.0,0.0,0.0,0.7522310167696101,0.4873610167696102,9.82648101676961
5585000000.0,21.78,0.0,0.0,0.0,0.7797972254457723,0.48235759151807595,9.813335183036152
5590000000.0,21.78,0.0,0.0,0.0,0.7687113828419139,0.4726456914209569,9.826088617158087
5595000000.0,21.78,0.0,0.0,0.0,0.7651800000000001,0.4788262086761621,9.813727582647676
5600000000.0,21.78,0.0,0.0,0.0,0.7494837824534378,0.4649937824534378,9.825696217546563
5605000000.0,21.78,0.0,0.0,0.0,0.7533100088704001,0.47657001774080016,9.821869991129601
5610000000.0,21.78,0.0,0.0,0.0,0.7706738179350382,0.4730380910324809,9.812158091032481
5615000000.0,21.78,0.0,0.0,0.0,0.7749900000000001,0.46332619093536187,9.817553809064638
5620000000.0,21.78,0.0,0.0,0.0,0.7526228725147287,0.4759814183235142,9.857088545808786
5625000000.0,21.78,0.0,0.0,0.0,0.7749904370355044,0.48069,9.824714344446743
5630000000.0,21.78,0.0,0.0,0.0,0.7702809812880099,0.47343049064400494,9.79548098128801
5635000000.0,21.78,0.0,0.0,0.0,0.7651800000000001,0.4852028189062282,9.811864228359342
5640000000.0,21.78,0.0,0.0,0.0,0.7369267617990677,0.4834366904497669,9.812746690449767
5645000000.0,21.78,0.0,0.0,0.0,0.7398704192947042,0.4528291614105916,9.830895628942056
5650000000.0,21.78,0.0,0.0,0.0,0.7592942194889423,0.4689184389778844,9.832562890255529
5655000000.0,21.78,0.0,0.0,0.0,0.75841099015841,0.4671519803168198,9.80931297047523
5660000000.0,21.78,0.0,0.0,0.0,0.7620409099387091,0.46107,9.80686090993871
5665000000.0,21.78,0.0,0.0,0.0,0.7586071899641719,0.4807884301074843,9.823145620071656
5670000000.0,21.78,0.0,0.0,0.0,0.7747941303988414,0.4775505797341058,9.823145289867053
5675000000.0,21.78,0.0,0.0,0.0,0.778423389769934,0.47088,9.832563220460132
5680000000.0,21.78,0.0,0.0,0.0,0.768711489672815,0.4834370206543702,9.82687297934563
5685000000.0,21.78,0.0,0.0,0.0,0.7466387687270877,0.4719587687270877,9.81981
5690000000.0,21.78,0.0,0.0,0.0,0.7479146210428462,0.4732346210428462,9.81981
5695000000.0,21.78,0.0,0.0,0.0,0.75537,0.48069,9.81981
5700000000.0,21.78,0.0,0.0,0.0,0.7730283321469833,0.4748038892843389,9.81981
5705000000.0,21.78,0.0,0.0,0.0,0.7732239783744399,0.4650919891872199,9.81402198918722
5710000000.0,21.78,0.0,0.0,0.0,0.7651800000000001,0.47813973272969734,9.827069732729697
5715000000.0,21.78,0.0,0.0,0.0,0.7651800000000001,0.47931637798596377,9.833838188992981
5720000000.0,21.78,0.0,0.0,0.0,0.7541925777917258,0.45989257779172577,9.818632577791726
5725000000.0,21.78,0.0,0.0,0.0,0.7509556112012561,0.47823805600628055,9.804604388798744
5730000000.0,21.78,0.0,0.0,0.0,0.7447749774032498,0.47911995480649955,9.805487511298375
5735000000.0,21.78,0.0,0.0,0.0,0.7461488227909883,0.47146882279098823,9.820398822790988
5740000000.0,21.78,0.0,0.0,0.0,0.7706739344778394,0.4857913114926131,9.82962
5745000000.0,21.78,0.0,0.0,0.0,0.7797967884102679,0.4905,9.839626423179464
5750000000.0,21.78,0.0,0.0,0.0,0.7651797766262978,0.47578466493944666,9.824714441565744
5755000000.0,21.78,0.0,0.0,0.0,0.75537,0.46107,9.80980402356794
5760000000.0,21.78,0.0,0.0,0.0,0.75537,0.45636108811891085,9.81981
5765000000.0,21.78,0.0,0.0,0.0,0.7599808119782081,0.4743140598910406,9.833642435934625
5770000000.0,21.78,0.0,0.0,0.0,0.7787181362259814,0.49128457584934576,9.84924
5775000000.0,21.78,0.0,0.0,0.0,0.7769515513102155,0.48069,9.835996163482662
5780000000.0,21.78,0.0,0.0,0.0,0.75537,0.47637348773043486,9.81117697546087
5785000000.0,21.78,0.0,0.0,0.0,0.75537,0.4666615876333159,9.787534762899949
5790000000.0,21.78,0.0,0.0,0.0,0.7594903124638032,0.4693106249276062,9.807842812174227
5795000000.0,21.78,0.0,0.0,0.0,0.7692022125609222,0.4766677874390779,9.855027787439077
5800000000.0,21.78,0.0,0.0,0.0,0.7592935493678356,0.47088,9.84924
5805000000.0,21.78,0.0,0.0,0.0,0.7434020255103203,0.4632279744896798,9.84158797448968
5810000000.0,21.78,0.0,0.0,0.0,0.7516420871477208,0.45871582570455827,9.814708348590884
5815000000.0,21.78,0.0,0.0,0.0,0.7564494388481944,0.47088,9.7940098129494
5820000000.0,21.78,0.0,0.0,0.0,0.7643948608604486,0.46734828695348285,9.817848565232586
5825000000.0,21.78,0.0,0.0,0.0,0.7524272262872723,0.4713708394309084,9.852673613143637
5830000000.0,21.78,0.0,0.0,0.0,0.7651800000000001,0.4905,9.842372433796225
5835000000.0,21.78,0.0,0.0,0.0,0.7587051733242518,0.49697482667574827,9.81647482667575
5840000000.0,21.78,0.0,0.0,0.0,0.7549779403049794,0.4975627462600275,9.82962
5845000000.0,21.78,0.0,0.0,0.0,0.7658663594036637,0.47392121353211214,9.835702427064225
5850000000.0,21.78,0.0,0.0,0.0,0.7573324545169245,0.48069,9.85218311362923
5855000000.0,21.78,0.0,0.0,0.0,0.7791099725472997,0.48353501372635016,9.85051495882095
5860000000.0,21.78,0.0,0.0,0.0,0.7624330861765309,0.4905,9.821379258529593
5865000000.0,21.78,0.0,0.0,0.0,0.7527211860794119,0.48785118607941186,9.808136441761764
5870000000.0,21.78,0.0,0.0,0.0,0.7430092859822929,0.48324071401770713,9.824518571964585
5875000000.0,21.78,0.0,0.0,0.0,0.7406552282296522,0.4905,9.814905228229653
5880000000.0,21.78,0.0,0.0,0.0,0.75537,0.48814548578805483,9.827265485788056
5885000000.0,21.78,0.0,0.0,0.0,0.7598828286181283,0.47843358569093586,9.815297171381872
5890000000.0,21.78,0.0,0.0,0.0,0.7728316855938169,0.47088,9.802348314406183
5895000000.0,21.78,0.0,0.0,0.0,0.7651800000000001,0.4688197854966979,9.814120429006605
5900000000.0,21.78,0.0,0.0,0.0,0.7671421146004213,0.45910788539957886,9.83158211460042
5905000000.0,21.78,0.0,0.0,0.0,0.7712619706049197,0.4568520440926204,9.83756598530246
5910000000.0,21.78,0.0,0.0,0.0,0.7500722556160225,0.48245591479465916,9.82962
5915000000.0,21.78,0.0,0.0,0.0,0.7276078148917782,0.4871643702164437,9.824616555324665
5920000000.0,21.78,0.0,0.0,0.0,0.7388894299777943,0.4677405700222057,9.803329429977795
5925000000.0,21.78,0.0,0.0,0.0,0.75537,0.4542032301720323,9.821281615086017
5930000000.0,21.78,0.0,0.0,0.0,0.7567435151831351,0.47500054554940546,9.830993515183135
5935000000.0,21.78,0.0,0.0,0.0,0.7626291694394918,0.4952083388789834,9.838154584719746
5940000000.0,21.78,0.0,0.0,0.0,0.74556,0.46107,9.826088053867881
5945000000.0,21.78,0.0,0.0,0.0,0.7487976464234765,0.46430764642347644,9.801269215474493
5950000000.0,21.78,0.0,0.0,0.0,0.7720466532851666,0.4905,9.81
5955000000.0,21.78,0.0,0.0,0.0,0.7482090470061905,0.4896169843312698,9.812649047006191
5960000000.0,21.78,0.0,0.0,0.0,0.7757749157658492,0.4791201684683017,9.841784747297547
5965000000.0,21.78,0.0,0.0,0.0,0.7827395524110956,0.4624436317259363,9.865425920685158
5970000000.0,21.78,0.0,0.0,0.0,0.7547812840399128,0.4795125680798257,9.818632568079826
5975000000.0,21.78,0.0,0.0,0.0,0.7465412321144124,0.46156061605720616,9.801171232114413
5980000000.0,21.78,0.0,0.0,0.0,0.7643949676913497,0.47166503230865037,9.82059503230865
5985000000.0,21.78,0.0,0.0,0.0,0.7467376650057767,0.48991116749711167,9.839724416251444
5990000000.0,21.78,0.0,0.0,0.0,0.7844073673028737,0.47088,9.849043683651438
5995000000.0,21.78,0.0,0.0,0.0,0.7651800000000001,0.4707817835543179,9.839135350662954
6000000000.0,21.78,0.0,0.0,0.0,0.7651800000000001,0.4610698834571988,9.81
6005000000.0,21.78,0.0,0.0,0.0,0.7651800000000001,0.4513579833600798,9.81
6010000000.0,21.78,0.0,0.0,0.0,0.7267243330518434,0.4801017502111175,9.81
6015000000.0,21.78,0.0,0.0,0.0,0.7735190841707908,0.46165836633168367,9.848063267336633
6020000000.0,21.78,0.0,0.0,0.0,0.7467368492061685,0.46107,9.858657716931278
6025000000.0,21.78,0.0,0.0,0.0,0.7735188510851886,0.4703896170283962,9.831091148914812
6030000000.0,21.78,0.0,0.0,0.0,0.7565469657489696,0.48932303425103035,9.81117696574897
6035000000.0,21.78,0.0,0.0,0.0,0.7736168344452684,0.4905,9.81
6040000000.0,21.78,0.0,0.0,0.0,0.7569393653604937,0.4995253173197532,9.800974682680247
6045000000.0,21.78,0.0,0.0,0.0,0.75537,0.48245556516625565,9.826971652250617
6050000000.0,21.78,0.0,0.0,0.0,0.7465408824860088,0.4895191175139912,9.82962
6055000000.0,21.78,0.0,0.0,0.0,0.7542910176111102,0.4905,9.82088898238889
6060000000.0,21.78,0.0,0.0,0.0,0.7467370822917708,0.47323416458354167,9.81117708229177
6065000000.0,21.78,0.0,0.0,0.0,0.74556,0.47941481780534817,9.844139271221392
6070000000.0,21.78,0.0,0.0,0.0,0.7708701537074016,0.4891267179024672,9.832366564195066
6075000000.0,21.78,0.0,0.0,0.0,0.7499741460012415,0.45714552800165525,9.82962
6080000000.0,21.78,0.0,0.0,0.0,0.7620410361934105,0.45126,9.788417409516475
6085000000.0,21.78,0.0,0.0,0.0,0.7651800000000001,0.4675448363876484,9.804997254581473
6090000000.0,21.78,0.0,0.0,0.0,0.7651800000000001,0.4869686365818864,9.81
6095000000.0,21.78,0.0,0.0,0.0,0.7651800000000001,0.47460756322387565,9.849731091940312
6100000000.0,21.78,0.0,0.0,0.0,0.7730281184851813,0.47088,9.835505644544456
6105000000.0,21.78,0.0,0.0,0.0,0.7594899628353996,0.4631299814176998,9.82962
6110000000.0,21.78,0.0,0.0,0.0,0.7477180813205808,0.4687219186794192,9.814316162641163
6115000000.0,21.78,0.0,0.0,0.0,0.7380061812234618,0.45577236244692365,9.81
6120000000.0,21.78,0.0,0.0,0.0,0.7506614377473144,0.4661714377473144,9.824911437747314
6125000000.0,21.78,0.0,0.0,0.0,0.7627276189707762,0.47088,9.836977618970776
6130000000.0,21.78,0.0,0.0,0.0,0.7796990381357904,0.4563609618642096,9.83943
6135000000.0,21.78,0.0,0.0,0.0,0.7633157425049575,0.45842141916501417,9.832268580834986
6140000000.0,21.78,0.0,0.0,0.0,0.7483066807378668,0.47519663852426636,9.815493361475735
6145000000.0,21.78,0.0,0.0,0.0,0.7525252193592522,0.48069,9.81
6150000000.0,21.78,0.0,0.0,0.0,0.7416357610872576,0.4738228805436288,9.81
6155000000.0,21.78,0.0,0.0,0.0,0.7492880391069804,0.4776490195534902,9.830307058660471
6160000000.0,21.78,0.0,0.0,0.0,0.75537,0.4940318393012184,9.83943
6165000000.0,21.78,0.0,0.0,0.0,0.75537,0.4805915407568154,9.832857180252272
6170000000.0,21.78,0.0,0.0,0.0,0.7618447198448473,0.47088,9.816670560310307
6175000000.0,21.78,0.0,0.0,0.0,0.7396735202321353,0.47088,9.816376619941966
6180000000.0,21.78,0.0,0.0,0.0,0.757332600195426,0.4520444398827444,9.807252959921831
6185000000.0,21.78,0.0,0.0,0.0,0.7626291597275916,0.46617168054481684,9.83109210068102
6190000000.0,21.78,0.0,0.0,0.0,0.75537,0.4928546404666464,9.84924
6195000000.0,21.78,0.0,0.0,0.0,0.7673384406608844,0.4943257796695578,9.825303118678232
6200000000.0,21.78,0.0,0.0,0.0,0.7573316387173165,0.4905,9.804113879572439
6205000000.0,21.78,0.0,0.0,0.0,0.7513480205246802,0.47313593842595936,9.80597802052468
6210000000.0,21.78,0.0,0.0,0.0,0.75537,0.4667599206217992,9.827069761865397
6215000000.0,21.78,0.0,0.0,0.0,0.7665536414378364,0.47088,9.833838179281083
6220000000.0,21.78,0.0,0.0,0.0,0.7859774416320745,0.47088,9.82962
6225000000.0,21.78,0.0,0.0,0.0,0.7838187581736876,0.48706686273946864,9.824224379086845
6230000000.0,21.78,0.0,0.0,0.0,0.7749900000000001,0.4844174369691744,9.814512478989725
6235000000.0,21.78,0.0,0.0,0.0,0.7645911577852116,0.47088,9.82039884221479
6240000000.0,21.78,0.0,0.0,0.0,0.7451673575909735,0.4657786787954868,9.824518678795487
6245000000.0,21.78,0.0,0.0,0.0,0.7507596639048967,0.46107,9.814806778698369
6250000000.0,21.78,0.0,0.0,0.0,0.7602748786012489,0.4659751213987512,9.814905121398752
6255000000.0,21.78,0.0,0.0,0.0,0.75537,0.47088,9.82461702149587
6260000000.0,21.78,0.0,0.0,0.0,0.75537,0.4755889215929892,9.843746764778968
6265000000.0,21.78,0.0,0.0,0.0,0.7599808216901083,0.47146835661978354,9.845217534929676
6270000000.0,21.78,0.0,0.0,0.0,0.7516418346383184,0.4655827217872272,9.820594556425545
6275000000.0,21.78,0.0,0.0,0.0,0.7534084875373849,0.47529462188434624,9.805585378115655
6280000000.0,21.78,0.0,0.0,0.0,0.7620404340556044,0.4763734780185348,9.804506521981466
6285000000.0,21.78,0.0,0.0,0.0,0.7539968441571685,0.47931684415716846,9.814218422078584
6290000000.0,21.78,0.0,0.0,0.0,0.7528190334728904,0.48225935564859357,9.828050644351407
6295000000.0,21.78,0.0,0.0,0.0,0.7558611113641112,0.47088,9.831385555454355
6300000000.0,21.78,0.0,0.0,0.0,0.7769517552601176,0.47088,9.815885877630059
6305000000.0,21.78,0.0,0.0,0.0,0.7651800000000001,0.46705397753293976,9.81
6310000000.0,21.78,0.0,0.0,0.0,0.7577241548716416,0.46479792256417923,9.821183767692538
6315000000.0,21.78,0.0,0.0,0.0,0.7491898226612982,0.47088,9.843059822661298
6320000000.0,21.78,0.0,0.0,0.0,0.7589017227584173,0.48500689103366895,9.84924
6325000000.0,21.78,0.0,0.0,0.0,0.7651800000000001,0.4895182628667826,9.838939131433392
6330000000.0,21.78,0.0,0.0,0.0,0.7718510459053105,0.4545955229526552,9.816474477047345
6335000000.0,21.78,0.0,0.0,0.0,0.7783251539004516,0.46430742304977424,9.819712269149322
6340000000.0,21.78,0.0,0.0,0.0,0.7589013537062136,0.47401932314689327,9.83943
6345000000.0,21.78,0.0,0.0,0.0,0.74556,0.47764877675598777,9.833347553511976
6350000000.0,21.78,0.0,0.0,0.0,0.74556,0.47088,9.81686687665887
6355000000.0,21.78,0.0,0.0,0.0,0.74556,0.47088,9.81
6360000000.0,21.78,0.0,0.0,0.0,0.7592946176768461,0.4763738470707385,9.820987694141477
6365000000.0,21.78,0.0,0.0,0.0,0.7813658818375588,0.4825535291025353,9.84924
6370000000.0,21.78,0.0,0.0,0.0,0.7506614474592145,0.4636207237296072,9.844138552540786
6375000000.0,21.78,0.0,0.0,0.0,0.7651800000000001,0.47088,9.82962
6380000000.0,21.78,0.0,0.0,0.0,0.7581164282284644,0.47088,9.82491095215231
6385000000.0,21.78,0.0,0.0,0.0,0.7402628480419284,0.46862357597903576,9.814512848041929
6390000000.0,21.78,0.0,0.0,0.0,0.7575283241180832,0.4653866482361665,9.833936648236167
6395000000.0,21.78,0.0,0.0,0.0,0.7651800000000001,0.47862977578479776,9.845119551569596
6400000000.0,21.78,0.0,0.0,0.0,0.7632178756876788,0.4767663729369638,9.82765787568768
6405000000.0,21.78,0.0,0.0,0.0,0.7590980488188805,0.4947179267716793,9.81794597559056
6410000000.0,21.78,0.0,0.0,0.0,0.7679263019737631,0.46734815098688154,9.81176592450656
6415000000.0,21.78,0.0,0.0,0.0,0.7407534738110347,0.4545956492073565,9.818142175396321
6420000000.0,21.78,0.0,0.0,0.0,0.7636102752992028,0.47088,9.811569724700798
6425000000.0,21.78,0.0,0.0,0.0,0.7524267504041675,0.47088,9.822753249595833
6430000000.0,21.78,0.0,0.0,0.0,0.7398705746851058,0.47225352489503525,9.83668295020993
6435000000.0,21.78,0.0,0.0,0.0,0.7626291500156915,0.47941457500784573,9.818534575007845
6440000000.0,21.78,0.0,0.0,0.0,0.7490919752678198,0.47088,9.811177325089274
6445000000.0,21.78,0.0,0.0,0.0,0.7739107748136078,0.4730384503727845,9.820889225186393
6450000000.0,21.78,0.0,0.0,0.0,0.7651800000000001,0.49148112528351123,9.82962
6455000000.0,21.78,0.0,0.0,0.0,0.7651800000000001,0.4994269746193698,9.82873697461937
6460000000.0,21.78,0.0,0.0,0.0,0.7651800000000001,0.487360298089003,9.819025074522251
6465000000.0,21.78,0.0,0.0,0.0,0.7644931744251319,0.45194682557486826,9.81
6470000000.0,21.78,0.0,0.0,0.0,0.7565474513439745,0.46165872567198724,9.809411274328014
6475000000.0,21.78,0.0,0.0,0.0,0.7735181226926813,0.4703893742308938,9.80166187730732
6480000000.0,21.78,0.0,0.0,0.0,0.74556,0.46067747413377474,9.830012525866225
6485000000.0,21.78,0.0,0.0,0.0,0.7458544259633443,0.4521432778900328,9.839135574036655
6490000000.0,21.78,0.0,0.0,0.0,0.7555663260604633,0.48069,9.829423673939537
6495000000.0,21.78,0.0,0.0,0.0,0.7651800000000001,0.48059177384241775,9.819711773842418
6500000000.0,21.78,0.0,0.0,0.0,0.7651802525094026,0.47088012625470127,9.810000252509402
6505000000.0,21.78,0.0,0.0,0.0,0.7846040527036405,0.48059202635182025,9.82942405270364
6510000000.0,21.78,0.0,0.0,0.0,0.7751860735510608,0.48069,9.82962
6515000000.0,21.78,0.0,0.0,0.0,0.7654741734539419,0.4521425203618252,9.810588346907885
6520000000.0,21.78,0.0,0.0,0.0,0.7463445467136455,0.48893090657270905,9.828835453286354
6525000000.0,21.78,0.0,0.0,0.0,0.74556,0.48118037325970375,9.810980746519409
6530000000.0,21.78,0.0,0.0,0.0,0.7363384731625847,0.4714684731625848,9.81
6535000000.0,21.78,0.0,0.0,0.0,0.7722437077381371,0.47088,9.828246853869068
6540000000.0,21.78,0.0,0.0,0.0,0.7659646729683468,0.4618546729683467,9.811569345936693
6545000000.0,21.78,0.0,0.0,0.0,0.7651800000000001,0.46107,9.81
6550000000.0,21.78,0.0,0.0,0.0,0.7475217455482175,0.45224087277410874,9.81
6555000000.0,21.78,0.0,0.0,0.0,0.7630220546460206,0.46872205464602057,9.78380691803097
6560000000.0,21.78,0.0,0.0,0.0,0.7479141451597414,0.47088,9.815101709680517
6565000000.0,21.78,0.0,0.0,0.0,0.7711644825517449,0.47088,9.836879655034497
6570000000.0,21.78,0.0,0.0,0.0,0.7834267276143674,0.4793167276143673,9.856303455228735
6575000000.0,21.78,0.0,0.0,0.0,0.7597841168655411,0.48902862771148625,9.842372744577027
6580000000.0,21.78,0.0,0.0,0.0,0.7306484165741842,0.4575378887655789,9.814708416574184
6585000000.0,21.78,0.0,0.0,0.0,0.7585097116228972,0.46754485581144856,9.785572716282829
6590000000.0,21.78,0.0,0.0,0.0,0.7732243280028434,0.4628356719971567,9.80470298400853
6595000000.0,21.78,0.0,0.0,0.0,0.7670437719000378,0.4690162280999623,9.825892456199925
6600000000.0,21.78,0.0,0.0,0.0,0.7730281281970813,0.47088,9.853164384591244
6605000000.0,21.78,0.0,0.0,0.0,0.7517399151173991,0.4941300848826009,9.820299858529
6610000000.0,21.78,0.0,0.0,0.0,0.7379080716086808,0.4773542148260422,9.817651928391319
6615000000.0,21.78,0.0,0.0,0.0,0.7584114854653149,0.4784338284884383,9.812256171511562
6620000000.0,21.78,0.0,0.0,0.0,0.7428128142433281,0.48069,9.817455728585557
6625000000.0,21.78,0.0,0.0,0.0,0.7431076286826763,0.4954052573653526,9.81981
6630000000.0,21.78,0.0,0.0,0.0,0.7600790575595906,0.47127188488081884,9.848848115119182
6635000000.0,21.78,0.0,0.0,0.0,0.7508571422461714,0.4682314288769143,9.82324285561543
6640000000.0,21.78,0.0,0.0,0.0,0.7526233289740333,0.4638166710259667,9.824126657948067
6645000000.0,21.78,0.0,0.0,0.0,0.75537,0.4680352290711523,9.815689541857695
6650000000.0,21.78,0.0,0.0,0.0,0.75537,0.4640128708317287,9.823734258336543
6655000000.0,21.78,0.0,0.0,0.0,0.75537,0.4678390292653903,9.82285097073461
6660000000.0,21.78,0.0,0.0,0.0,0.7753827880875279,0.4642090706374907,9.81981
6665000000.0,21.78,0.0,0.0,0.0,0.7782271705403717,0.46107,9.813237170540372
6670000000.0,21.78,0.0,0.0,0.0,0.7555658113297581,0.4740194591134946,9.829424188670242
6675000000.0,21.78,0.0,0.0,0.0,0.7583132593077326,0.48706662965386627,9.833053370346134
6680000000.0,21.78,0.0,0.0,0.0,0.7589014702490148,0.47166441074704407,9.823341470249016
6685000000.0,21.78,0.0,0.0,0.0,0.7677308596962087,0.46725042984810433,9.813629570151896
6690000000.0,21.78,0.0,0.0,0.0,0.7749900000000001,0.4587153401095534,9.816082329945223
6695000000.0,21.78,0.0,0.0,0.0,0.7809742300423423,0.46921269012702693,9.813825769957658
6700000000.0,21.78,0.0,0.0,0.0,0.7730277397210774,0.4748038698605387,9.827658390418383
6705000000.0,21.78,0.0,0.0,0.0,0.7593919697634197,0.4593039395268394,9.83943
6710000000.0,21.78,0.0,0.0,0.0,0.7667498606673986,0.4683297910010979,9.845119930333698
6715000000.0,21.78,0.0,0.0,0.0,0.7470308478459086,0.4750981695691817,9.832464508707545
6720000000.0,21.78,0.0,0.0,0.0,0.7314337305279374,0.47088,9.803328808416188
6725000000.0,21.78,0.0,0.0,0.0,0.7465412612501127,0.4654843693749437,9.801171261250113
6730000000.0,21.78,0.0,0.0,0.0,0.7712625921665259,0.4769625921665259,9.815297530722177
6735000000.0,21.78,0.0,0.0,0.0,0.7848,0.4801011383614114,9.840607723277177
6740000000.0,21.78,0.0,0.0,0.0,0.7745973381671735,0.47088,9.853948669083586
6745000000.0,21.78,0.0,0.0,0.0,0.7601767689864677,0.49089292405412926,9.834230306959403
6750000000.0,21.78,0.0,0.0,0.0,0.7602751311106514,0.49049947555739476,9.800189475557396
6755000000.0,21.78,0.0,0.0,0.0,0.7603729687922297,0.47088,9.790184062415541
6760000000.0,21.78,0.0,0.0,0.0,0.769496793914668,0.48500679391466794,9.80489893130489
6765000000.0,21.78,0.0,0.0,0.0,0.7709675057939751,0.4864775057939751,9.842275819814057
6770000000.0,21.78,0.0,0.0,0.0,0.7598827314991273,0.4753927314991273,9.883182731499128
6775000000.0,21.78,0.0,0.0,0.0,0.7563507368075074,0.46744610521126106,9.853162947230029
6780000000.0,21.78,0.0,0.0,0.0,0.7498765316933653,0.45989306338673064,9.797050404919904
6785000000.0,21.78,0.0,0.0,0.0,0.7680252953714529,0.47509843179048433,9.78057
6790000000.0,21.78,0.0,0.0,0.0,0.7765593362247935,0.46832900433719005,9.801171659438017
6795000000.0,21.78,0.0,0.0,0.0,0.7732244639694447,0.4552822319847223,9.841686695954166
6800000000.0,21.78,0.0,0.0,0.0,0.7769517358363174,0.4649941320818413,9.855125867918158
6805000000.0,21.78,0.0,0.0,0.0,0.7651800000000001,0.47088,9.83776190346312
6810000000.0,21.78,0.0,0.0,0.0,0.7577241354478415,0.47088,9.812354135447842
6815000000.0,21.78,0.0,0.0,0.0,0.74556,0.47088,9.80019
6820000000.0,21.78,0.0,0.0,0.0,0.7526234649406347,0.46734826752968267,9.81431692988127
6825000000.0,21.78,0.0,0.0,0.0,0.7583127348651274,0.450769102297691,9.842863632567436
6830000000.0,21.78,0.0,0.0,0.0,0.7488955326645553,0.44498213065822134,9.835897869341778
6835000000.0,21.78,0.0,0.0,0.0,0.75537,0.48059229828502303,9.813237432761674
6840000000.0,21.78,0.0,0.0,0.0,0.7679273314351733,0.4877526685648267,9.813531334282414
6845000000.0,21.78,0.0,0.0,0.0,0.785486301132263,0.46411123295591233,9.803231232955913
6850000000.0,21.78,0.0,0.0,0.0,0.7622368669469687,0.46499373389393733,9.815886266106062
6855000000.0,21.78,0.0,0.0,0.0,0.75537,0.45695006630030066,9.82962
6860000000.0,21.78,0.0,0.0,0.0,0.75537,0.47912079974180805,9.82962
6865000000.0,21.78,0.0,0.0,0.0,0.7527211666556116,0.48971466662244667,9.824322333311224
6870000000.0,21.78,0.0,0.0,0.0,0.7481107334415074,0.46362073344150734,9.817652200324522
6875000000.0,21.78,0.0,0.0,0.0,0.7578226335386263,0.47088,9.83207209938412
6880000000.0,21.78,0.0,0.0,0.0,0.7651800000000001,0.47323453363574536,9.817063600907236
6885000000.0,21.78,0.0,0.0,0.0,0.7584106988014071,0.48294643373286433,9.83943
6890000000.0,21.78,0.0,0.0,0.0,0.7443833353199334,0.4861833323400333,9.83295499851005
6895000000.0,21.78,0.0,0.0,0.0,0.7708695321457953,0.4750004678542047,9.807939766072899
6900000000.0,21.78,0.0,0.0,0.0,0.7573321340242214,0.48853786597577864,9.802152134024222
6905000000.0,21.78,0.0,0.0,0.0,0.7689080682426808,0.4769619317573193,9.817456136485362
6910000000.0,21.78,0.0,0.0,0.0,0.7812681315630814,0.46460186843691864,9.84570813156308
6915000000.0,21.78,0.0,0.0,0.0,0.7635121656844217,0.4790221656844217,9.831287834315578
6920000000.0,21.78,0.0,0.0,0.0,0.7569397344126974,0.47088,9.834720796761909
6925000000.0,21.78,0.0,0.0,0.0,0.760765096470551,0.4723516345098164,9.812943269019634
6930000000.0,21.78,0.0,0.0,0.0,0.7426176730346767,0.47931646539306466,9.830993534606936
6935000000.0,21.78,0.0,0.0,0.0,0.780973695887837,0.4683291305918913,9.83687913059189
6940000000.0,21.78,0.0,0.0,0.0,0.7541926651988267,0.4524373348011733,9.824519339204693
6945000000.0,21.78,0.0,0.0,0.0,0.74556,0.46107,9.852574590610246
6950000000.0,21.78,0.0,0.0,0.0,0.74556,0.4630322699908227,9.803133404986234
6955000000.0,21.78,0.0,0.0,0.0,0.7464430350925304,0.48069,9.827853929814939
6960000000.0,21.78,0.0,0.0,0.0,0.75537,0.48069,9.8115698703793
6965000000.0,21.78,0.0,0.0,0.0,0.7567436705735366,0.48069,9.82962
6970000000.0,21.78,0.0,0.0,0.0,0.7738125292322253,0.48010126461611263,9.830797470767775
6975000000.0,21.78,0.0,0.0,0.0,0.7563512709620127,0.47186127096201275,9.847277458075975
6980000000.0,21.78,0.0,0.0,0.0,0.7742049288437494,0.48932239326562393,9.80921492884375
6985000000.0,21.78,0.0,0.0,0.0,0.7556644356752443,0.4616588713504887,9.791263307025734
6990000000.0,21.78,0.0,0.0,0.0,0.7653763357723634,0.4802973284552733,9.820006335772364
6995000000.0,21.78,0.0,0.0,0.0,0.7750882358694824,0.4612664717389647,9.829914707608447
7000000000.0,21.78,0.0,0.0,0.0,0.784799592100196,0.4806897280667973,9.859049456133594
7005000000.0,21.78,0.0,0.0,0.0,0.7556638918088389,0.46126592787255927,9.820201855745118
7010000000.0,21.78,0.0,0.0,0.0,0.75537,0.47068393616083937,9.790968191517482
7015000000.0,21.78,0.0,0.0,0.0,0.75537,0.47088,9.79038
7020000000.0,21.78,0.0,0.0,0.0,0.75537,0.47088,9.82805094542031
7025000000.0,21.78,0.0,0.0,0.0,0.7833289093565892,0.4801996364521964,9.848259272904393
7030000000.0,21.78,0.0,0.0,0.0,0.7571353903520539,0.47146846345068466,9.840018463450685
7035000000.0,21.78,0.0,0.0,0.0,0.7644934366464344,0.48000343664643436,9.812059690060698
7040000000.0,21.78,0.0,0.0,0.0,0.7471293265128933,0.48069,9.81
7045000000.0,21.78,0.0,0.0,0.0,0.7544872368406723,0.47176276315932764,9.81
7050000000.0,21.78,0.0,0.0,0.0,0.7641991369377914,0.48853827387558274,9.81
7055000000.0,21.78,0.0,0.0,0.0,0.7564489629650897,0.4905,9.853655185174551
7060000000.0,21.78,0.0,0.0,0.0,0.7640029371320295,0.46460118860391186,9.815885314339853
7065000000.0,21.78,0.0,0.0,0.0,0.7737148372291485,0.46960483722914836,9.835604511687444
7070000000.0,21.78,0.0,0.0,0.0,0.7665532626737327,0.49619021197880214,9.814119788021198
7075000000.0,21.78,0.0,0.0,0.0,0.7651800000000001,0.48363272515322725,9.818338637423388
7080000000.0,21.78,0.0,0.0,0.0,0.7569394624794946,0.46420892495898924,9.83629107504101
7085000000.0,21.78,0.0,0.0,0.0,0.75537,0.45292756238237564,9.83943
7090000000.0,21.78,0.0,0.0,0.0,0.7714586754294868,0.46734867542948677,9.847474337714743
7095000000.0,21.78,0.0,0.0,0.0,0.7670437621881377,0.47088,9.817455048752551
7100000000.0,21.78,0.0,0.0,0.0,0.7337874483640745,0.48657627581796276,9.825696275817963
7105000000.0,21.78,0.0,0.0,0.0,0.764690190030502,0.48274996199389963,9.8218699619939
7110000000.0,21.78,0.0,0.0,0.0,0.7673380618967807,0.45773418569034185,9.804506123793562
7115000000.0,21.78,0.0,0.0,0.0,0.7651800000000001,0.47392151460101517,9.80774383820034
7120000000.0,21.78,0.0,0.0,0.0,0.7428127851076278,0.46577852340508524,9.817455738297458
7125000000.0,21.78,0.0,0.0,0.0,0.7431076383945764,0.4684276383945764,9.834525276789153
7130000000.0,21.78,0.0,0.0,0.0,0.7600790769833908,0.47088,9.817651384524915
7135000000.0,21.78,0.0,0.0,0.0,0.7508571228223713,0.47804143858881437,9.802838561411185
7140000000.0,21.78,0.0,0.0,0.0,0.7526233386859333,0.48069,9.814316677371867
7145000000.0,21.78,0.0,0.0,0.0,0.7623352387830524,0.4737247612169476,9.826775238783053
7150000000.0,21.78,0.0,0.0,0.0,0.7514457222396572,0.4777471388801714,9.82962
7155000000.0,21.78,0.0,0.0,0.0,0.74556,0.48745903897729037,9.82285096102271
7160000000.0,21.78,0.0,0.0,0.0,0.74556,0.4771581218511812,9.82648093907441
7165000000.0,21.78,0.0,0.0,0.0,0.7521328391715284,0.48402567834305676,9.816474321656944
7170000000.0,21.78,0.0,0.0,0.0,0.7618447392686475,0.4775505214627052,9.81
7175000000.0,21.78,0.0,0.0,0.0,0.7651800000000001,0.47088,9.841883196828832
7180000000.0,21.78,0.0,0.0,0.0,0.7651800000000001,0.47088,9.840214381611345
7185000000.0,21.78,0.0,0.0,0.0,0.7589995604399956,0.4646995604399956,9.823439560439995
7190000000.0,21.78,0.0,0.0,0.0,0.75537,0.4671523396571234,9.807645320685754
7195000000.0,21.78,0.0,0.0,0.0,0.7493857602457576,0.46489576024575757,9.806174239754244
7200000000.0,21.78,0.0,0.0,0.0,0.74556,0.4728422797027228,9.815886139851361
7205000000.0,21.78,0.0,0.0,0.0,0.7629241198454413,0.4691139201030392,9.83138607989696
7210000000.0,21.78,0.0,0.0,0.0,0.7749900000000001,0.45538005995440056,9.845119940045599
7215000000.0,21.78,0.0,0.0,0.0,0.7749900000000001,0.4736273605708736,9.832464479571845
7220000000.0,21.78,0.0,0.0,0.0,0.7420275585609757,0.4850062597601626,9.808822519520326
7225000000.0,21.78,0.0,0.0,0.0,0.7323169210108692,0.4860856403369564,9.794794359663044
7230000000.0,21.78,0.0,0.0,0.0,0.7402624595659246,0.47460737869777375,9.811570161736302
7235000000.0,21.78,0.0,0.0,0.0,0.7409494405311944,0.4714688810623888,9.840018881062388
7240000000.0,21.78,0.0,0.0,0.0,0.7608640218849403,0.48069,9.844138659371687
7245000000.0,21.78,0.0,0.0,0.0,0.7699867592745677,0.4706835185491352,9.83943
7250000000.0,21.78,0.0,0.0,0.0,0.7700851408225515,0.4659751408225514,9.829619718354897
7255000000.0,21.78,0.0,0.0,0.0,0.7653759181606592,0.4660729590803296,9.829424081839342
7260000000.0,21.78,0.0,0.0,0.0,0.7600789410167894,0.4751968230503682,9.834721058983211
7265000000.0,21.78,0.0,0.0,0.0,0.7513474766582748,0.4858891588860916,9.838841682227818
7270000000.0,21.78,0.0,0.0,0.0,0.7447754824220548,0.48069,9.835701776366918
7275000000.0,21.78,0.0,0.0,0.0,0.7597846413081465,0.4762753586918536,9.815395358691854
7280000000.0,21.78,0.0,0.0,0.0,0.7694965414052655,0.4665634585947346,9.814316541405265
7285000000.0,21.78,0.0,0.0,0.0,0.7707715584976157,0.45685155849761555,9.811373116995231
7290000000.0,21.78,0.0,0.0,0.0,0.7651800000000001,0.4553803415995034,9.81255102479851
7295000000.0,21.78,0.0,0.0,0.0,0.7571355166067553,0.4691144833932448,9.821575516606755
7300000000.0,21.78,0.0,0.0,0.0,0.7534082835874829,0.48069,9.81
7305000000.0,21.78,0.0,0.0,0.0,0.7651800000000001,0.46921187432741873,9.821478125672582
7310000000.0,21.78,0.0,0.0,0.0,0.7614520580120206,0.46617176795191767,9.843157941987979
7315000000.0,21.78,0.0,0.0,0.0,0.7626296841701968,0.48324031582980315,9.84924
7320000000.0,21.78,0.0,0.0,0.0,0.7643947734533478,0.4673482578177826,9.838644773453348
7325000000.0,21.78,0.0,0.0,0.0,0.7386927154413272,0.46450364227933644,9.816376357720664
