#timestamp [ns], temperature [degC], w_RS_S_x [rad s^-1], w_RS_S_y [rad s^-1], w_RS_S_z [rad s^-1], a_RS_S_x [m s^-2], a_RS_S_y [m s^-2], a_RS_S_z [m s^-2]
0.0,21.78,0.0,0.0,0.0,0.72594,0.46107,9.83943
5000000.0,21.78,0.0,0.0,0.0,0.764787600388476,0.44164619980576203,9.83943
10000000.0,21.78,0.0,0.0,0.0,0.736338599417286,0.470291400582714,9.810588599417287
15000000.0,21.78,0.0,0.0,0.0,0.754781400582714,0.48039570029135703,9.819515700291358
20000000.0,21.78,0.0,0.0,0.0,0.764787600388476,0.46185479922304795,9.838645200776952
25000000.0,21.78,0.0,0.0,0.0,0.7651800000000001,0.46107,9.830110499514404
30000000.0,21.78,0.0,0.0,0.0,0.7282943976691441,0.488734201748142,9.811177198834573
35000000.0,21.78,0.0,0.0,0.0,0.72594,0.481376699320167,9.791753398640335
40000000.0,21.78,0.0,0.0,0.0,0.7439904015539041,0.471664799223048,9.799405200776953
45000000.0,21.78,0.0,0.0,0.0,0.754487100874071,0.46195289912592896,9.818044201748142
50000000.0,21.78,0.0,0.0,0.0,0.73771199805762,0.46107,9.83746800194238
55000000.0,21.78,0.0,0.0,0.0,0.753211802136618,0.48726270320492704,9.83943
60000000.0,21.78,0.0,0.0,0.0,0.746737198834572,0.473234397669144,9.83943
65000000.0,21.78,0.0,0.0,0.0,0.7626294025250941,0.47088,9.813825896212359
70000000.0,21.78,0.0,0.0,0.0,0.748306797280668,0.45400679728066795,9.826873202719332
75000000.0,21.78,0.0,0.0,0.0,0.737221498543215,0.48461400582714004,9.804604495629645
80000000.0,21.78,0.0,0.0,0.0,0.73575,0.482259598446096,9.841392007769521
85000000.0,21.78,0.0,0.0,0.0,0.7764615082551152,0.47254769834897703,9.84924
90000000.0,21.78,0.0,0.0,0.0,0.74457899125929,0.47088,9.841195798251858
95000000.0,21.78,0.0,0.0,0.0,0.743696101845261,0.46293389815473895,9.83943
100000000.0,21.78,0.0,0.0,0.0,0.75340800194238,0.47676600388476004,9.8001899902881
105000000.0,21.78,0.0,0.0,0.0,0.747620097960501,0.472940097960501,9.813629706118498
110000000.0,21.78,0.0,0.0,0.0,0.753211802136618,0.49383540640985407,9.804506395726765
115000000.0,21.78,0.0,0.0,0.0,0.747816297766263,0.49275629776626295,9.837958511168685
120000000.0,21.78,0.0,0.0,0.0,0.7679268069925681,0.4681331930074319,9.84924
125000000.0,21.78,0.0,0.0,0.0,0.767632497572025,0.47578500485595004,9.8198099902881
130000000.0,21.78,0.0,0.0,0.0,0.736142389899624,0.473430597474906,9.81
135000000.0,21.78,0.0,0.0,0.0,0.747423907866639,0.47088,9.81
140000000.0,21.78,0.0,0.0,0.0,0.748306797280668,0.47794320271933205,9.831189608157997
145000000.0,21.78,0.0,0.0,0.0,0.74556,0.473724897183549,9.832464897183549
150000000.0,21.78,0.0,0.0,0.0,0.75242700291357,0.47088,9.82962
155000000.0,21.78,0.0,0.0,0.0,0.748601096989311,0.45734219397862197,9.82285109698931
160000000.0,21.78,0.0,0.0,0.0,0.752230803107808,0.47127240932342407,9.81981
165000000.0,21.78,0.0,0.0,0.0,0.7356518903852189,0.48069,9.813237296795073
170000000.0,21.78,0.0,0.0,0.0,0.7324146033020461,0.474215396697954,9.822949206604092
175000000.0,21.78,0.0,0.0,0.0,0.73575,0.4963860135966602,9.823243496600835
180000000.0,21.78,0.0,0.0,0.0,0.729471596503716,0.4850063860148639,9.826088403496284
185000000.0,21.78,0.0,0.0,0.0,0.7444809107802091,0.4585193928131939,9.817259392813193
190000000.0,21.78,0.0,0.0,0.0,0.7614522036905221,0.45734220369052203,9.828246611071567
195000000.0,21.78,0.0,0.0,0.0,0.7651800000000001,0.46107,9.857382311362922
200000000.0,21.78,0.0,0.0,0.0,0.7475219883457199,0.47284200776952007,9.83354397669144
205000000.0,21.78,0.0,0.0,0.0,0.73575,0.486477903981879,9.792636288054364
210000000.0,21.78,0.0,0.0,0.0,0.73575,0.48481019592100194,9.791949608157998
215000000.0,21.78,0.0,0.0,0.0,0.7469334083522341,0.47509829582388297,9.811373408352235
220000000.0,21.78,0.0,0.0,0.0,0.7608636042732361,0.4598927914535279,9.847278021366181
225000000.0,21.78,0.0,0.0,0.0,0.748993486888935,0.4674465131110651,9.86886
230000000.0,21.78,0.0,0.0,0.0,0.7410474044674741,0.48069,9.831778168727682
235000000.0,21.78,0.0,0.0,0.0,0.740360695435407,0.48069,9.774193477177034
240000000.0,21.78,0.0,0.0,0.0,0.73575,0.4704875906765759,9.771544818646849
245000000.0,21.78,0.0,0.0,0.0,0.7557624190353243,0.4710762095176621,9.810392419035324
250000000.0,21.78,0.0,0.0,0.0,0.7651799902880999,0.47578499514405,9.8492400194238
255000000.0,21.78,0.0,0.0,0.0,0.75537,0.47088,9.849632380187725
260000000.0,21.78,0.0,0.0,0.0,0.750661194949812,0.47088,9.81078477979925
265000000.0,21.78,0.0,0.0,0.0,0.7363385897053859,0.4801014102946141,9.785769294852694
270000000.0,21.78,0.0,0.0,0.0,0.7439904209777043,0.4814747895111479,9.807645631466556
275000000.0,21.78,0.0,0.0,0.0,0.7651800000000001,0.46646549465845494,9.852673516024636
280000000.0,21.78,0.0,0.0,0.0,0.760863594561336,0.4697028108773281,9.855910783684008
285000000.0,21.78,0.0,0.0,0.0,0.759588305535783,0.4680350833926508,9.830993388928434
290000000.0,21.78,0.0,0.0,0.0,0.756939588734196,0.46362061689870615,9.815689794367099
295000000.0,21.78,0.0,0.0,0.0,0.7536042114600422,0.48471210573002105,9.822066317190064
300000000.0,21.78,0.0,0.0,0.0,0.7691040058271401,0.48657599417285996,9.84727801165428
305000000.0,21.78,0.0,0.0,0.0,0.7673381881514819,0.4845159059242591,9.836094564454445
310000000.0,21.78,0.0,0.0,0.0,0.75537,0.4867721939786219,9.803917806021378
315000000.0,21.78,0.0,0.0,0.0,0.751740293881503,0.4734305877630059,9.806370293881503
320000000.0,21.78,0.0,0.0,0.0,0.7490916062156161,0.4681332124312321,9.821379637293697
325000000.0,21.78,0.0,0.0,0.0,0.7588035063127351,0.48412350631273504,9.862483506312735
330000000.0,21.78,0.0,0.0,0.0,0.761844593590146,0.4871645935901459,9.855518374360583
335000000.0,21.78,0.0,0.0,0.0,0.7521326934930269,0.48069,9.819908080479081
340000000.0,21.78,0.0,0.0,0.0,0.7392815867918159,0.48069,9.803329206604092
345000000.0,21.78,0.0,0.0,0.0,0.7320222134024221,0.48373110670121106,9.81
350000000.0,21.78,0.0,0.0,0.0,0.74850300679833,0.48755699320166995,9.82177202719332
355000000.0,21.78,0.0,0.0,0.0,0.7496801862091018,0.4778450931045509,9.852084906895449
360000000.0,21.78,0.0,0.0,0.0,0.738496806992568,0.4736268069925681,9.845315965037159
365000000.0,21.78,0.0,0.0,0.0,0.74556,0.47804129291031294,9.807351292910313
370000000.0,21.78,0.0,0.0,0.0,0.7506612143736122,0.47088,9.802740607186808
375000000.0,21.78,0.0,0.0,0.0,0.7529174635803747,0.4659749854321499,9.812452507283925
380000000.0,21.78,0.0,0.0,0.0,0.7255476295241763,0.4630320369052204,9.829227629524176
385000000.0,21.78,0.0,0.0,0.0,0.7508573850436738,0.4935410775655108,9.854537385043674
390000000.0,21.78,0.0,0.0,0.0,0.7400664151505641,0.4730382075752821,9.832955377274153
395000000.0,21.78,0.0,0.0,0.0,0.7615503230172033,0.47862989232759895,9.812060107672401
400000000.0,21.78,0.0,0.0,0.0,0.7749899611523997,0.4689179922304799,9.81588598446096
405000000.0,21.78,0.0,0.0,0.0,0.737613907866639,0.46293390786663907,9.80205390786664
410000000.0,21.78,0.0,0.0,0.0,0.74556,0.4744116159275162,9.824126463710066
415000000.0,21.78,0.0,0.0,0.0,0.74556,0.4905,9.875138335512982
420000000.0,21.78,0.0,0.0,0.0,0.7471296081579961,0.49206960815799605,9.81
425000000.0,21.78,0.0,0.0,0.0,0.7524269834897698,0.4973669834897699,9.81
430000000.0,21.78,0.0,0.0,0.0,0.7371234083522341,0.48069,9.81
435000000.0,21.78,0.0,0.0,0.0,0.7481106168987062,0.48069,9.816376542246767
440000000.0,21.78,0.0,0.0,0.0,0.764002791453528,0.48304441709294416,9.857872791453527
445000000.0,21.78,0.0,0.0,0.0,0.75537,0.49923089135640897,9.847081782712818
450000000.0,21.78,0.0,0.0,0.0,0.75537,0.4885379825185798,9.82667697377787
455000000.0,21.78,0.0,0.0,0.0,0.7527212734865127,0.47088,9.799307091162172
460000000.0,21.78,0.0,0.0,0.0,0.7290792357397924,0.47088,9.792734426804845
465000000.0,21.78,0.0,0.0,0.0,0.7638065819358659,0.4722534180641342,9.82255683612827
470000000.0,21.78,0.0,0.0,0.0,0.74556,0.4899113908708139,9.857872781741628
475000000.0,21.78,0.0,0.0,0.0,0.7450694907736949,0.47970898154738983,9.837958472321084
480000000.0,21.78,0.0,0.0,0.0,0.7353575906765759,0.4618548186468482,9.81
485000000.0,21.78,0.0,0.0,0.0,0.7265286188410862,0.4803956905794569,9.81
490000000.0,21.78,0.0,0.0,0.0,0.7453637904823379,0.4712724190353242,9.81078483807065
495000000.0,21.78,0.0,0.0,0.0,0.7359462192295622,0.4903037807704378,9.84914189038522
500000000.0,21.78,0.0,0.0,0.0,0.7553699514404995,0.4708799902880999,9.839429951440499
505000000.0,21.78,0.0,0.0,0.0,0.7068104509549045,0.4611680901909809,9.790870450954905
510000000.0,21.78,0.0,0.0,0.0,0.7640028594368287,0.46107,9.771152380187724
515000000.0,21.78,0.0,0.0,0.0,0.7651800000000001,0.4801014200065142,9.827854260019542
520000000.0,21.78,0.0,0.0,0.0,0.7651800000000001,0.47127238989962394,9.839037610100377
525000000.0,21.78,0.0,0.0,0.0,0.7651800000000001,0.47088,9.848749510197495
530000000.0,21.78,0.0,0.0,0.0,0.7559585897053859,0.49854423088384237,9.830797179410773
535000000.0,21.78,0.0,0.0,0.0,0.7371233792165338,0.4546934480413345,9.784003448041336
540000000.0,21.78,0.0,0.0,0.0,0.7538004209777042,0.46931042097770426,9.798620420977706
545000000.0,21.78,0.0,0.0,0.0,0.7375157788280577,0.4619528894140289,9.809117110585971
550000000.0,21.78,0.0,0.0,0.0,0.7622370320492704,0.45224098931690987,9.87180307478163
555000000.0,21.78,0.0,0.0,0.0,0.7564490892197909,0.46872182156041825,9.826284535318745
560000000.0,21.78,0.0,0.0,0.0,0.7381043782453438,0.4795128108773281,9.81981
565000000.0,21.78,0.0,0.0,0.0,0.73575,0.48069,9.811275289025554
570000000.0,21.78,0.0,0.0,0.0,0.73575,0.4553801667853017,9.826873222143133
575000000.0,21.78,0.0,0.0,0.0,0.73575,0.4595985111686851,9.854635533506055
580000000.0,21.78,0.0,0.0,0.0,0.7522308225316082,0.46931041126580414,9.834328766202589
585000000.0,21.78,0.0,0.0,0.0,0.75537,0.4790223113629231,9.813335377274154
590000000.0,21.78,0.0,0.0,0.0,0.75537,0.4726457885399579,9.818044211460043
595000000.0,21.78,0.0,0.0,0.0,0.7474238884428389,0.4867722231143222,9.81186388844284
600000000.0,21.78,0.0,0.0,0.0,0.74556,0.4748039766914398,9.833544034962841
605000000.0,21.78,0.0,0.0,0.0,0.7300601764972018,0.45538017649720175,9.862679735254197
610000000.0,21.78,0.0,0.0,0.0,0.7412436236970362,0.47421543554555434,9.822949128908892
615000000.0,21.78,0.0,0.0,0.0,0.7304525761087258,0.48069,9.81
620000000.0,21.78,0.0,0.0,0.0,0.7483068361282683,0.48814561204275614,9.817455612042757
625000000.0,21.78,0.0,0.0,0.0,0.75537,0.47578497572024975,9.827167512139875
630000000.0,21.78,0.0,0.0,0.0,0.7481105877630059,0.47813941223699413,9.82962
635000000.0,21.78,0.0,0.0,0.0,0.74556,0.48069,9.822458687665888
640000000.0,21.78,0.0,0.0,0.0,0.7384967875687679,0.5018796372936963,9.805683575137536
645000000.0,21.78,0.0,0.0,0.0,0.73575,0.4892246624149466,9.79322488747165
650000000.0,21.78,0.0,0.0,0.0,0.73575,0.49442402525094026,9.810981037876411
655000000.0,21.78,0.0,0.0,0.0,0.7425189127225892,0.49354108727741086,9.833347825445179
660000000.0,21.78,0.0,0.0,0.0,0.7322183743605838,0.4704875615408756,9.832759187180292
665000000.0,21.78,0.0,0.0,0.0,0.7325127129168272,0.46107,9.842765425833655
670000000.0,21.78,0.0,0.0,0.0,0.73575,0.45459538698605384,9.823341547944215
675000000.0,21.78,0.0,0.0,0.0,0.7421265131110651,0.4703895393331954,9.816376513111065
680000000.0,21.78,0.0,0.0,0.0,0.74556,0.4869684132081841,9.826088413208184
685000000.0,21.78,0.0,0.0,0.0,0.7517403133053031,0.4719590600840906,9.82962
690000000.0,21.78,0.0,0.0,0.0,0.7736166402072664,0.46107,9.805291146390312
695000000.0,21.78,0.0,0.0,0.0,0.7668476595013766,0.46107,9.808332340498623
700000000.0,21.78,0.0,0.0,0.0,0.7494839864033399,0.47284202719332025,9.81981
705000000.0,21.78,0.0,0.0,0.0,0.7513479136937792,0.4633262589186626,9.814022086306222
710000000.0,21.78,0.0,0.0,0.0,0.7383005586273056,0.4626396275817963,9.821379627581797
715000000.0,21.78,0.0,0.0,0.0,0.7315317138880172,0.4764717138880171,9.818436572223966
720000000.0,21.78,0.0,0.0,0.0,0.73575,0.46420915804459156,9.81
725000000.0,21.78,0.0,0.0,0.0,0.7519365422467654,0.4674465422467654,9.79920897183549
730000000.0,21.78,0.0,0.0,0.0,0.7545851716412517,0.4753925858206259,9.822164485076245
735000000.0,21.78,0.0,0.0,0.0,0.7507593142764931,0.46568068572350685,9.828442742894028
740000000.0,21.78,0.0,0.0,0.0,0.75537,0.4763736431208364,9.820202428747224
745000000.0,21.78,0.0,0.0,0.0,0.75537,0.4905,9.814610656587806
750000000.0,21.78,0.0,0.0,0.0,0.7406549562964496,0.4905,9.80019
755000000.0,21.78,0.0,0.0,0.0,0.7499745733248457,0.48088617067006173,9.809803829329939
760000000.0,21.78,0.0,0.0,0.0,0.7702811852379119,0.47088,9.833936444286264
765000000.0,21.78,0.0,0.0,0.0,0.7559585702815858,0.46626928514079286,9.84924
770000000.0,21.78,0.0,0.0,0.0,0.7365347700873477,0.46558261495632614,9.835702155131022
775000000.0,21.78,0.0,0.0,0.0,0.7347690301068903,0.47529451505344517,9.815395484946555
780000000.0,21.78,0.0,0.0,0.0,0.7498764151505641,0.48069,9.797050754548309
785000000.0,21.78,0.0,0.0,0.0,0.75537,0.4764716847523169,9.797443260990732
790000000.0,21.78,0.0,0.0,0.0,0.7594902153448022,0.47088,9.836290861379208
795000000.0,21.78,0.0,0.0,0.0,0.7651800000000001,0.47088,9.851005769116158
800000000.0,21.78,0.0,0.0,0.0,0.7612559844609599,0.49050007769520076,9.83158196892192
805000000.0,21.78,0.0,0.0,0.0,0.7515440843638408,0.49697450618304506,9.81598408436384
810000000.0,21.78,0.0,0.0,0.0,0.74556,0.4685256314665563,9.817455631466556
815000000.0,21.78,0.0,0.0,0.0,0.7528194316607943,0.48069,9.82962
820000000.0,21.78,0.0,0.0,0.0,0.7581167681449678,0.4736267681449677,9.82962
825000000.0,21.78,0.0,0.0,0.0,0.74556,0.47480406409854065,9.83648703204927
830000000.0,21.78,0.0,0.0,0.0,0.7388891677564917,0.49030375163473755,9.835898335512983
835000000.0,21.78,0.0,0.0,0.0,0.7356519486566195,0.47411731621887315,9.806762683781127
840000000.0,21.78,0.0,0.0,0.0,0.7459523510520235,0.48069,9.809607648947978
845000000.0,21.78,0.0,0.0,0.0,0.7289811164131111,0.4837311164131112,9.832661116413112
850000000.0,21.78,0.0,0.0,0.0,0.7386930165102302,0.4846139669795397,9.83354396697954
855000000.0,21.78,0.0,0.0,0.0,0.7398701667853017,0.47088,9.82265491660735
860000000.0,21.78,0.0,0.0,0.0,0.7314336334089363,0.47362681670446816,9.824126366591065
865000000.0,21.78,0.0,0.0,0.0,0.74556,0.4780412831984128,9.812648716801588
870000000.0,21.78,0.0,0.0,0.0,0.74556,0.47598123379741236,9.822360616898706
875000000.0,21.78,0.0,0.0,0.0,0.74556,0.48559496600834967,9.832072516995826
880000000.0,21.78,0.0,0.0,0.0,0.7479144170929442,0.4755888341858884,9.830012331628224
885000000.0,21.78,0.0,0.0,0.0,0.7508573656198736,0.48373104842981046,9.80019
890000000.0,21.78,0.0,0.0,0.0,0.7400664345743644,0.4589117827128178,9.80019
895000000.0,21.78,0.0,0.0,0.0,0.7533098826156989,0.4574403521529035,9.808430469537205
900000000.0,21.78,0.0,0.0,0.0,0.7435979825185798,0.48069,9.84139201748142
905000000.0,21.78,0.0,0.0,0.0,0.7376139175785392,0.48069,9.841784329685844
910000000.0,21.78,0.0,0.0,0.0,0.7437941823243418,0.4789241823243418,9.811765817675658
915000000.0,21.78,0.0,0.0,0.0,0.7374177177727772,0.4725477177727772,9.821477717772778
920000000.0,21.78,0.0,0.0,0.0,0.7471296178698962,0.47912038213010383,9.831189617869896
925000000.0,21.78,0.0,0.0,0.0,0.75537,0.46940848203298485,9.83648696406597
930000000.0,21.78,0.0,0.0,0.0,0.7581168361282684,0.4624434180641342,9.818436581935867
935000000.0,21.78,0.0,0.0,0.0,0.7698887273549874,0.4721553181612532,9.81
940000000.0,21.78,0.0,0.0,0.0,0.73575,0.4795127817416278,9.807645563483256
945000000.0,21.78,0.0,0.0,0.0,0.7389873550664736,0.4730382367109824,9.792538236710984
950000000.0,21.78,0.0,0.0,0.0,0.7632179630947797,0.49148101845261016,9.81098101845261
955000000.0,21.78,0.0,0.0,0.0,0.7464429185497292,0.49854416290054165,9.823341674198916
960000000.0,21.78,0.0,0.0,0.0,0.7561548186468482,0.48069,9.857480362706303
965000000.0,21.78,0.0,0.0,0.0,0.7638065625120657,0.48069,9.837369843768098
970000000.0,21.78,0.0,0.0,0.0,0.7449713811589138,0.4801013811589138,9.811177237682173
975000000.0,21.78,0.0,0.0,0.0,0.73575,0.46940844318538444,9.828148443185384
980000000.0,21.78,0.0,0.0,0.0,0.73575,0.4430196761412968,9.80097483807065
985000000.0,21.78,0.0,0.0,0.0,0.7366329573973296,0.4809843191324432,9.820104319132444
990000000.0,21.78,0.0,0.0,0.0,0.7651800000000001,0.4905,9.82962
995000000.0,21.78,0.0,0.0,0.0,0.7650818806733188,0.4905,9.829423761346638
1000000000.0,21.78,0.0,0.0,0.0,0.75537,0.4905,9.8100000194238
1005000000.0,21.78,0.0,0.0,0.0,0.75537,0.4905,9.81971191952092
1010000000.0,21.78,0.0,0.0,0.0,0.75537,0.47127236076392365,9.829423819618038
1015000000.0,21.78,0.0,0.0,0.0,0.75537,0.4613642802848428,9.820104280284843
1020000000.0,21.78,0.0,0.0,0.0,0.75537,0.4704876198122762,9.81981
1025000000.0,21.78,0.0,0.0,0.0,0.7460504800906048,0.4895190398187904,9.83844903981879
1030000000.0,21.78,0.0,0.0,0.0,0.74556,0.4812785799934858,9.83943
1035000000.0,21.78,0.0,0.0,0.0,0.7546833201036331,0.4898133201036332,9.821183359792734
1040000000.0,21.78,0.0,0.0,0.0,0.75537,0.46342433939774336,9.81981
1045000000.0,21.78,0.0,0.0,0.0,0.7375157594042576,0.4521428797021288,9.81088287970213
1050000000.0,21.78,0.0,0.0,0.0,0.7269209796050098,0.4865760815799608,9.81
1055000000.0,21.78,0.0,0.0,0.0,0.7695946024605461,0.4905,9.81873092049211
1060000000.0,21.78,0.0,0.0,0.0,0.7490915382323153,0.4818671794107718,9.837075641178457
1065000000.0,21.78,0.0,0.0,0.0,0.7540947206863472,0.48069,9.813825837940959
1070000000.0,21.78,0.0,0.0,0.0,0.7300601376496014,0.48069,9.81
1075000000.0,21.78,0.0,0.0,0.0,0.72594,0.47235147911941483,9.818338520880586
1080000000.0,21.78,0.0,0.0,0.0,0.7424208419554085,0.47912042097770424,9.811569579022295
1085000000.0,21.78,0.0,0.0,0.0,0.7618446421496465,0.49697464214964643,9.826284642149647
1090000000.0,21.78,0.0,0.0,0.0,0.7490915576561156,0.4842215576561156,9.845708442343884
1095000000.0,21.78,0.0,0.0,0.0,0.7376138787309388,0.4886361212690612,9.84924
1100000000.0,21.78,0.0,0.0,0.0,0.7435980213661803,0.4748039572676396,9.809999893169099
1105000000.0,21.78,0.0,0.0,0.0,0.74556,0.47088,9.8079399214633
1110000000.0,21.78,0.0,0.0,0.0,0.7379081784395818,0.47088,9.802348178439582
1115000000.0,21.78,0.0,0.0,0.0,0.765964886630149,0.46332627834246276,9.807743721657538
1120000000.0,21.78,0.0,0.0,0.0,0.7526231347360314,0.4834368652639686,9.839822487018624
1125000000.0,21.78,0.0,0.0,0.0,0.7529175218517752,0.47578495629644957,9.84924
1130000000.0,21.78,0.0,0.0,0.0,0.7481105780511058,0.47088,9.84924
1135000000.0,21.78,0.0,0.0,0.0,0.7527213220460132,0.48520264409202646,9.820594711815948
1140000000.0,21.78,0.0,0.0,0.0,0.7412435557137356,0.4693103335706033,9.788810333570604
1145000000.0,21.78,0.0,0.0,0.0,0.73575,0.4541048777597488,9.794500244480503
1150000000.0,21.78,0.0,0.0,0.0,0.7563510670121107,0.47186106701211067,9.820791067012111
1155000000.0,21.78,0.0,0.0,0.0,0.7448732326965324,0.48069,9.83638892243449
1160000000.0,21.78,0.0,0.0,0.0,0.7290791774683918,0.5007024675948247,9.832759177468391
1165000000.0,21.78,0.0,0.0,0.0,0.7390854452574545,0.4904018321138183,9.82962
1170000000.0,21.78,0.0,0.0,0.0,0.7520346227258462,0.48069,9.810196131822462
1175000000.0,21.78,0.0,0.0,0.0,0.75537,0.48069,9.819319568468895
1180000000.0,21.78,0.0,0.0,0.0,0.7490915770799158,0.48696842292008424,9.823341577079916
1185000000.0,21.78,0.0,0.0,0.0,0.7579206460344066,0.47813935396559354,9.832170646034406
1190000000.0,21.78,0.0,0.0,0.0,0.7469333306570334,0.47696222311432224,9.827265553771356
1195000000.0,21.78,0.0,0.0,0.0,0.73575,0.4866741232114412,9.801857630365676
1200000000.0,21.78,0.0,0.0,0.0,0.7651801165428012,0.47872795338287955,9.80215204661712
1205000000.0,21.78,0.0,0.0,0.0,0.7558603829716039,0.47088,9.821575846811358
1210000000.0,21.78,0.0,0.0,0.0,0.7414398235027982,0.47088,9.840999647005596
1215000000.0,21.78,0.0,0.0,0.0,0.7511517235999172,0.47647172359991724,9.832464829200248
1220000000.0,21.78,0.0,0.0,0.0,0.7608636236970363,0.4916772473940725,9.814316376302964
1225000000.0,21.78,0.0,0.0,0.0,0.7489934286175344,0.4949144762058448,9.799208952411691
1230000000.0,21.78,0.0,0.0,0.0,0.7410474238912742,0.49579742389127424,9.816867119456372
1235000000.0,21.78,0.0,0.0,0.0,0.7559586479767866,0.48991135202321356,9.83943
1240000000.0,21.78,0.0,0.0,0.0,0.7600787759144878,0.48069,9.83943
1245000000.0,21.78,0.0,0.0,0.0,0.7453637516347376,0.4756868758173688,9.84443312418263
1250000000.0,21.78,0.0,0.0,0.0,0.716129902880999,0.48559507283925074,9.83452492716075
1255000000.0,21.78,0.0,0.0,0.0,0.715737697507477,0.50031,9.815003075623132
1260000000.0,21.78,0.0,0.0,0.0,0.73575,0.49089235105202356,9.819417648947978
1265000000.0,21.78,0.0,0.0,0.0,0.7403607245711072,0.48069,9.82962
1270000000.0,21.78,0.0,0.0,0.0,0.74556,0.4761773753317738,9.82962
1275000000.0,21.78,0.0,0.0,0.0,0.7499745247653452,0.4752945247653453,9.82079095046931
1280000000.0,21.78,0.0,0.0,0.0,0.7510535751375358,0.4720571502750715,9.805683575137536
1285000000.0,21.78,0.0,0.0,0.0,0.7497783249595833,0.477943299838333,9.81284497487875
1290000000.0,21.78,0.0,0.0,0.0,0.7471295498865955,0.49618977494329775,9.825499774943298
1295000000.0,21.78,0.0,0.0,0.0,0.7397721251538213,0.48647787484617877,9.835898500615285
1300000000.0,21.78,0.0,0.0,0.0,0.7494840252509403,0.47676597474905974,9.85512597474906
1305000000.0,21.78,0.0,0.0,0.0,0.7515440746519407,0.47088,9.837762223955822
1310000000.0,21.78,0.0,0.0,0.0,0.7492878254451782,0.4671521745548218,9.816082174554822
1315000000.0,21.78,0.0,0.0,0.0,0.7517402744577028,0.4683294510845945,9.813629725542297
1320000000.0,21.78,0.0,0.0,0.0,0.7561548769182488,0.4912848769182488,9.83040487691825
1325000000.0,21.78,0.0,0.0,0.0,0.7578223713173238,0.49981942279039426,9.845806474263465
1330000000.0,21.78,0.0,0.0,0.0,0.7192691483326915,0.48402542583365427,9.829423722499037
1335000000.0,21.78,0.0,0.0,0.0,0.7225066296538663,0.4807880222076802,9.803525348138454
1340000000.0,21.78,0.0,0.0,0.0,0.7490915479442155,0.45793077397210774,9.796658452055786
1345000000.0,21.78,0.0,0.0,0.0,0.7448733783750339,0.4573422522500225,9.825205630625057
1350000000.0,21.78,0.0,0.0,0.0,0.753407895111479,0.46793697377786975,9.85905
1355000000.0,21.78,0.0,0.0,0.0,0.7287849263192493,0.46960477895774777,9.844825368403754
1360000000.0,21.78,0.0,0.0,0.0,0.7384968264163683,0.4850063471672635,9.807253173583632
1365000000.0,21.78,0.0,0.0,0.0,0.7482087265134872,0.4682312734865127,9.80019
1370000000.0,21.78,0.0,0.0,0.0,0.7579206266106063,0.4661712532212125,9.810392506442426
1375000000.0,21.78,0.0,0.0,0.0,0.7627274732922747,0.48069,9.846787580123175
1380000000.0,21.78,0.0,0.0,0.0,0.75537,0.47833557319515574,9.857087865975778
1385000000.0,21.78,0.0,0.0,0.0,0.7531136730980367,0.4731363269019633,9.822066326901963
1390000000.0,21.78,0.0,0.0,0.0,0.74556,0.48069,9.825303546001836
1395000000.0,21.78,0.0,0.0,0.0,0.7434998729037987,0.4786298729037987,9.812060127096201
1400000000.0,21.78,0.0,0.0,0.0,0.7337879728066797,0.4748040543866406,9.831582163159922
1405000000.0,21.78,0.0,0.0,0.0,0.7333957091617571,0.4886360727095607,9.871214290838243
1410000000.0,21.78,0.0,0.0,0.0,0.7598825178373253,0.48245582738755827,9.83943
1415000000.0,21.78,0.0,0.0,0.0,0.7407531824540319,0.4905,9.831091362576613
1420000000.0,21.78,0.0,0.0,0.0,0.7636103724182038,0.4905,9.793519255163593
1425000000.0,21.78,0.0,0.0,0.0,0.7568415276789153,0.4919715276789153,9.811471527678917
1430000000.0,21.78,0.0,0.0,0.0,0.7651800000000001,0.4920694333437944,9.823930283328103
1435000000.0,21.78,0.0,0.0,0.0,0.7613540163805402,0.44527598361945986,9.847964672126846
1440000000.0,21.78,0.0,0.0,0.0,0.7369272279702723,0.4732344559405446,9.834721088118911
1445000000.0,21.78,0.0,0.0,0.0,0.74556,0.4905,9.801269128067393
1450000000.0,21.78,0.0,0.0,0.0,0.7445789718354897,0.4895189718354897,9.81
1455000000.0,21.78,0.0,0.0,0.0,0.7366329282616293,0.47892414347674145,9.81
1460000000.0,21.78,0.0,0.0,0.0,0.7447751716412517,0.46185482835874825,9.811569656717497
1465000000.0,21.78,0.0,0.0,0.0,0.7378101853676019,0.4715667284558673,9.828933271544132
1470000000.0,21.78,0.0,0.0,0.0,0.7640027428940275,0.47951274289402745,9.81981
1475000000.0,21.78,0.0,0.0,0.0,0.7450694713498948,0.46107,9.820300528650106
1480000000.0,21.78,0.0,0.0,0.0,0.7361424287472244,0.46107,9.830404857494448
1485000000.0,21.78,0.0,0.0,0.0,0.7458543288443433,0.46136432884434325,9.848945671155656
1490000000.0,21.78,0.0,0.0,0.0,0.7547813131756131,0.4706837710585377,9.839037542117076
1495000000.0,21.78,0.0,0.0,0.0,0.7260381290385813,0.46136438711574385,9.819613741922838
1500000000.0,21.78,0.0,0.0,0.0,0.73575,0.4904999417285994,9.8001899417286
1505000000.0,21.78,0.0,0.0,0.0,0.73575,0.47107614153436145,9.780766141534363
1510000000.0,21.78,0.0,0.0,0.0,0.7645914879898149,0.4612661706700617,9.828639146649692
1515000000.0,21.78,0.0,0.0,0.0,0.7461485411458855,0.47058572942705734,9.839135729427058
1520000000.0,21.78,0.0,0.0,0.0,0.7267247409516474,0.48971525904835256,9.858265259048352
1525000000.0,21.78,0.0,0.0,0.0,0.7632181184851813,0.4811804703787047,9.812452351893524
1530000000.0,21.78,0.0,0.0,0.0,0.7559585702815856,0.47146857028158573,9.819221429718414
1535000000.0,21.78,0.0,0.0,0.0,0.7188766807378668,0.47088,9.810686670184467
1540000000.0,21.78,0.0,0.0,0.0,0.7432056897379569,0.47088,9.837075689737958
1545000000.0,21.78,0.0,0.0,0.0,0.74556,0.47088,9.830502869990228
1550000000.0,21.78,0.0,0.0,0.0,0.7543890301068903,0.4797090301068903,9.81196193978622
1555000000.0,21.78,0.0,0.0,0.0,0.7379081395919814,0.48069,9.80126906979599
1560000000.0,21.78,0.0,0.0,0.0,0.73575,0.48069,9.817455660602256
1565000000.0,21.78,0.0,0.0,0.0,0.73575,0.4636205392035054,9.828344730398248
1570000000.0,21.78,0.0,0.0,0.0,0.73575,0.46950663049536634,9.82962
1575000000.0,21.78,0.0,0.0,0.0,0.73575,0.4792185305924853,9.81294293881503
1580000000.0,21.78,0.0,0.0,0.0,0.7439904306896044,0.48069,9.801759569310397
1585000000.0,21.78,0.0,0.0,0.0,0.74556,0.47254766921327673,9.808332330786724
1590000000.0,21.78,0.0,0.0,0.0,0.7616484617676846,0.47088,9.826088461767684
1595000000.0,21.78,0.0,0.0,0.0,0.7572338690190387,0.47882613098096133,9.853458392942883
1600000000.0,21.78,0.0,0.0,0.0,0.7396739378438394,0.48069,9.843353937843839
1605000000.0,21.78,0.0,0.0,0.0,0.7434999311751993,0.48069,9.800680344124004
1610000000.0,21.78,0.0,0.0,0.0,0.74556,0.47303816872768173,9.805683662544638
1615000000.0,21.78,0.0,0.0,0.0,0.74556,0.4859874627388746,9.81
1620000000.0,21.78,0.0,0.0,0.0,0.7530156314665563,0.4905,9.817455631466556
1625000000.0,21.78,0.0,0.0,0.0,0.75537,0.4757849368726494,9.827167531563676
1630000000.0,21.78,0.0,0.0,0.0,0.7481105683392056,0.4636205683392057,9.858657726643177
1635000000.0,21.78,0.0,0.0,0.0,0.7383986682420867,0.4682313317579133,9.82589200945252
1640000000.0,21.78,0.0,0.0,0.0,0.73575,0.47794323185503235,9.802936768144969
1645000000.0,21.78,0.0,0.0,0.0,0.7636105278086053,0.4737248680478487,9.814120263904304
1650000000.0,21.78,0.0,0.0,0.0,0.7475218718029187,0.46401296795072966,9.80607593590146
1655000000.0,21.78,0.0,0.0,0.0,0.756056796439168,0.4746078642927786,9.80019
1660000000.0,21.78,0.0,0.0,0.0,0.7651800000000001,0.48736083224350835,9.820202496730525
1665000000.0,21.78,0.0,0.0,0.0,0.7717527323406274,0.4905,9.82962
1670000000.0,21.78,0.0,0.0,0.0,0.755566102686761,0.47755073512450735,9.836094632437746
1675000000.0,21.78,0.0,0.0,0.0,0.7328069349302694,0.47725653253486533,9.833053467465135
1680000000.0,21.78,0.0,0.0,0.0,0.72594,0.4869684326319843,9.82962
1685000000.0,21.78,0.0,0.0,0.0,0.7321203327291034,0.47813933454179336,9.804898669083586
1690000000.0,21.78,0.0,0.0,0.0,0.73575,0.4647977671737777,9.802544465652446
1695000000.0,21.78,0.0,0.0,0.0,0.7417341329233413,0.4730382658466826,9.821968265846683
1700000000.0,21.78,0.0,0.0,0.0,0.7514460330204603,0.4748039669795397,9.853164132081842
1705000000.0,21.78,0.0,0.0,0.0,0.7437941337648414,0.4824558662351587,9.839920334412103
1710000000.0,21.78,0.0,0.0,0.0,0.7414398332146983,0.48481016678530164,9.831189666429397
1715000000.0,21.78,0.0,0.0,0.0,0.7511517333118173,0.47509826668818267,9.81706306675273
1720000000.0,21.78,0.0,0.0,0.0,0.7388890997731911,0.47088,9.794696366591065
1725000000.0,21.78,0.0,0.0,0.0,0.742126600518166,0.47627553350605534,9.795775533506056
1730000000.0,21.78,0.0,0.0,0.0,0.7447751327936514,0.4753925663968257,9.842569468825396
1735000000.0,21.78,0.0,0.0,0.0,0.7461486674005867,0.48127866740058667,9.857872665198826
1740000000.0,21.78,0.0,0.0,0.0,0.7502687662025876,0.48539876620258765,9.824126298607764
1745000000.0,21.78,0.0,0.0,0.0,0.74556,0.4756868661054687,9.80499686610547
1750000000.0,21.78,0.0,0.0,0.0,0.7357499320166994,0.47088,9.80019
1755000000.0,21.78,0.0,0.0,0.0,0.7211330659112307,0.46126613182246134,9.80980386817754
1760000000.0,21.78,0.0,0.0,0.0,0.730256502557665,0.465386502557665,9.829227668371777
1765000000.0,21.78,0.0,0.0,0.0,0.7409492657169927,0.47607926571699266,9.848651468566015
1770000000.0,21.78,0.0,0.0,0.0,0.73575,0.47088,9.836486828099368
1775000000.0,21.78,0.0,0.0,0.0,0.722506396568264,0.47529453447724535,9.796756396568265
1780000000.0,21.78,0.0,0.0,0.0,0.7192693037230931,0.48069,9.793519303723095
1785000000.0,21.78,0.0,0.0,0.0,0.73575,0.4722533306570333,9.826873338685933
1790000000.0,21.78,0.0,0.0,0.0,0.73575,0.4693104695372047,9.853360234768603
1795000000.0,21.78,0.0,0.0,0.0,0.7437942697314427,0.48069,9.846983595402836
1800000000.0,21.78,0.0,0.0,0.0,0.7514459650371597,0.49246210488852105,9.82569596503716
1805000000.0,21.78,0.0,0.0,0.0,0.7379081298800814,0.5062940649400407,9.804506259760164
1810000000.0,21.78,0.0,0.0,0.0,0.7333956703141568,0.4928543296858433,9.795481340628314
1815000000.0,21.78,0.0,0.0,0.0,0.7491897352541973,0.4734305294916053,9.827069470508395
1820000000.0,21.78,0.0,0.0,0.0,0.7518383646486836,0.4646016353513163,9.846493270702632
1825000000.0,21.78,0.0,0.0,0.0,0.7489935354484354,0.47774707089687074,9.84531585820626
1830000000.0,21.78,0.0,0.0,0.0,0.745363693363337,0.4871645644544456,9.81981
1835000000.0,21.78,0.0,0.0,0.0,0.7324146712853468,0.47745266435732664,9.826284671285347
1840000000.0,21.78,0.0,0.0,0.0,0.7424207642602076,0.47715847147958473,9.836290764260207
1845000000.0,21.78,0.0,0.0,0.0,0.7387911358369114,0.4844177283261773,9.835702271673822
1850000000.0,21.78,0.0,0.0,0.0,0.7426169640659697,0.4797091078020911,9.840410892197909
1855000000.0,21.78,0.0,0.0,0.0,0.7329050639688507,0.49177519190655195,9.816965063968851
1860000000.0,21.78,0.0,0.0,0.0,0.7314336722565368,0.46813316387173165,9.81274683612827
1865000000.0,21.78,0.0,0.0,0.0,0.74556,0.4663674724507747,9.81981
1870000000.0,21.78,0.0,0.0,0.0,0.7430093636774936,0.48069,9.817259363677493
1875000000.0,21.78,0.0,0.0,0.0,0.73575,0.47578492716074927,9.81490507283925
1880000000.0,21.78,0.0,0.0,0.0,0.7333955634832556,0.46342443651674436,9.827265563483255
1885000000.0,21.78,0.0,0.0,0.0,0.7327090098415902,0.46636732677227327,9.822066336613863
1890000000.0,21.78,0.0,0.0,0.0,0.75537,0.45341823671098236,9.82962
1895000000.0,21.78,0.0,0.0,0.0,0.7491895895756959,0.46519027361620274,9.823439589575695
1900000000.0,21.78,0.0,0.0,0.0,0.7298640738104407,0.48069,9.806076110715662
1905000000.0,21.78,0.0,0.0,0.0,0.7492878740046788,0.48069,9.820300314988303
1910000000.0,21.78,0.0,0.0,0.0,0.7581166516021666,0.48069,9.789399185497293
1915000000.0,21.78,0.0,0.0,0.0,0.7342786859828869,0.48069,9.82962
1920000000.0,21.78,0.0,0.0,0.0,0.7687114508252145,0.48069,9.828050362706303
1925000000.0,21.78,0.0,0.0,0.0,0.73575,0.47921846260918466,9.818338462609185
1930000000.0,21.78,0.0,0.0,0.0,0.7371234374879344,0.47088,9.81
1935000000.0,21.78,0.0,0.0,0.0,0.74556,0.4734306751701068,9.811275337585053
1940000000.0,21.78,0.0,0.0,0.0,0.74556,0.48814552463565525,9.81981
1945000000.0,21.78,0.0,0.0,0.0,0.7444808622207086,0.47088,9.81981
1950000000.0,21.78,0.0,0.0,0.0,0.7367310378764104,0.4728420757528208,9.81981
1955000000.0,21.78,0.0,0.0,0.0,0.7473258759470588,0.48873412405294125,9.81981
1960000000.0,21.78,0.0,0.0,0.0,0.7612558096467582,0.47088,9.819025161929352
1965000000.0,21.78,0.0,0.0,0.0,0.7175034763355348,0.4715667381677674,9.81274695267107
1970000000.0,21.78,0.0,0.0,0.0,0.73575,0.48127863826488637,9.846885446940455
1975000000.0,21.78,0.0,0.0,0.0,0.7362405383620054,0.48853784655197846,9.809018923275989
1980000000.0,21.78,0.0,0.0,0.0,0.7451675615408756,0.45243731537737314,9.791557315377373
1985000000.0,21.78,0.0,0.0,0.0,0.7363386771124868,0.48069,9.819515661443758
1990000000.0,21.78,0.0,0.0,0.0,0.7549775226932752,0.4804937613466376,9.81078495461345
1995000000.0,21.78,0.0,0.0,0.0,0.73575,0.4710762775009628,9.848847444998075
2000000000.0,21.78,0.0,0.0,0.0,0.73575,0.4904999223047992,9.81
2005000000.0,21.78,0.0,0.0,0.0,0.73575,0.47107612211056127,9.81
2010000000.0,21.78,0.0,0.0,0.0,0.7261361609581617,0.4804938390418384,9.81
2015000000.0,21.78,0.0,0.0,0.0,0.7354557391389575,0.47117426086104264,9.829031478277916
2020000000.0,21.78,0.0,0.0,0.0,0.7545852784721527,0.47088,9.867290556944305
2025000000.0,21.78,0.0,0.0,0.0,0.7740090786663909,0.4895190786663908,9.850220921333609
2030000000.0,21.78,0.0,0.0,0.0,0.7565471211393712,0.4720571211393712,9.812354242278744
2035000000.0,21.78,0.0,0.0,0.0,0.7279999814176998,0.4800033395274334,9.800876660472568
2040000000.0,21.78,0.0,0.0,0.0,0.7349652396245524,0.47166476037544763,9.818240479249106
2045000000.0,21.78,0.0,0.0,0.0,0.73575,0.4798071397216714,9.828737139721671
2050000000.0,21.78,0.0,0.0,0.0,0.73575,0.4718609601812096,9.82962
2055000000.0,21.78,0.0,0.0,0.0,0.7532118798318188,0.4796109399159094,9.820889060084092
2060000000.0,21.78,0.0,0.0,0.0,0.7381043199739432,0.4893228400130284,9.793911479960915
2065000000.0,21.78,0.0,0.0,0.0,0.7442847401101474,0.47343051977970524,9.82451896044059
2070000000.0,21.78,0.0,0.0,0.0,0.74556,0.4793166402072664,9.846493280414533
2075000000.0,21.78,0.0,0.0,0.0,0.7372214596956146,0.4640129193912292,9.840901459695615
2080000000.0,21.78,0.0,0.0,0.0,0.7604713212045133,0.46931044040150444,9.814708678795487
2085000000.0,21.78,0.0,0.0,0.0,0.7488953190027532,0.4871646809972468,9.83442702149587
2090000000.0,21.78,0.0,0.0,0.0,0.7375157594042576,0.4905,9.83943
2095000000.0,21.78,0.0,0.0,0.0,0.7436961406928614,0.4746077186142772,9.823537718614277
2100000000.0,21.78,0.0,0.0,0.0,0.74556,0.4865760815799608,9.835506081579961
2105000000.0,21.78,0.0,0.0,0.0,0.7223101773387018,0.4827500591129006,9.823930118225801
2110000000.0,21.78,0.0,0.0,0.0,0.7237818409842185,0.4883418409842184,9.81981
2115000000.0,21.78,0.0,0.0,0.0,0.7334937410813375,0.4829462589186626,9.812256258918664
2120000000.0,21.78,0.0,0.0,0.0,0.7432056411784564,0.48069,9.847278205892282
2125000000.0,21.78,0.0,0.0,0.0,0.7676326238267263,0.48069,9.836977376173273
2130000000.0,21.78,0.0,0.0,0.0,0.7459522345092223,0.46617111725461113,9.836879441372695
2135000000.0,21.78,0.0,0.0,0.0,0.7429113414698134,0.46107,9.83943
2140000000.0,21.78,0.0,0.0,0.0,0.7243702752992028,0.4751964831338648,9.83943
2145000000.0,21.78,0.0,0.0,0.0,0.7370254249921543,0.48069,9.804604291679743
2150000000.0,21.78,0.0,0.0,0.0,0.7386929582388296,0.4738229582388296,9.79038
2155000000.0,21.78,0.0,0.0,0.0,0.7425189418582894,0.47088,9.80391788371658
2160000000.0,21.78,0.0,0.0,0.0,0.74556,0.4842216839108168,9.81
2165000000.0,21.78,0.0,0.0,0.0,0.7521327420525274,0.47735451589494515,9.816572742052529
2170000000.0,21.78,0.0,0.0,0.0,0.7488953578503535,0.47088,9.806860715700708
2175000000.0,21.78,0.0,0.0,0.0,0.74556,0.47088,9.812943084493531
2180000000.0,21.78,0.0,0.0,0.0,0.74556,0.48343688468776885,9.813531557656116
2185000000.0,21.78,0.0,0.0,0.0,0.74556,0.4719589726769897,9.828541027323011
2190000000.0,21.78,0.0,0.0,0.0,0.7394777574618776,0.46715224253812243,9.83943
2195000000.0,21.78,0.0,0.0,0.0,0.7297658573647586,0.48284828527048285,9.821477572094276
2200000000.0,21.78,0.0,0.0,0.0,0.7377120854647209,0.4728418718029187,9.80411395726764
2205000000.0,21.78,0.0,0.0,0.0,0.74556,0.46685794282947946,9.817553828488439
2210000000.0,21.78,0.0,0.0,0.0,0.7512498429265985,0.4879495287797953,9.840999685853197
2215000000.0,21.78,0.0,0.0,0.0,0.7497782569762825,0.4835347709288477,9.82687302790513
2220000000.0,21.78,0.0,0.0,0.0,0.7345727137583271,0.48186728624167285,9.81
2225000000.0,21.78,0.0,0.0,0.0,0.7421266296538663,0.48510445678204456,9.815395543217956
2230000000.0,21.78,0.0,0.0,0.0,0.7447751133698511,0.4753925566849256,9.814512556684926
2235000000.0,21.78,0.0,0.0,0.0,0.7461486868243868,0.47088,9.82559803023658
2240000000.0,21.78,0.0,0.0,0.0,0.7451675129813752,0.46067751298137516,9.834328756490688
2245000000.0,21.78,0.0,0.0,0.0,0.7407531436064314,0.4612662872128629,9.819613712787138
2250000000.0,21.78,0.0,0.0,0.0,0.7357499125928991,0.4806900874071009,9.81490504370355
2255000000.0,21.78,0.0,0.0,0.0,0.7307469438006695,0.48569305619933056,9.81500305619933
2260000000.0,21.78,0.0,0.0,0.0,0.73575,0.4853988438977884,9.81
2265000000.0,21.78,0.0,0.0,0.0,0.7449714879898148,0.4812785120101851,9.819221487989815
2270000000.0,21.78,0.0,0.0,0.0,0.7598826440920264,0.4753926440920265,9.820594711815948
2275000000.0,21.78,0.0,0.0,0.0,0.7651800000000001,0.48069,9.823243632567436
2280000000.0,21.78,0.0,0.0,0.0,0.7651800000000001,0.48069,9.830797111427472
2285000000.0,21.78,0.0,0.0,0.0,0.7609616556166166,0.4680349668498497,9.815591655616617
2290000000.0,21.78,0.0,0.0,0.0,0.7512497555194976,0.46774097792200975,9.81
2295000000.0,21.78,0.0,0.0,0.0,0.74556,0.48647785542237854,9.822066433732864
2300000000.0,21.78,0.0,0.0,0.0,0.74556,0.48069,9.83943
2305000000.0,21.78,0.0,0.0,0.0,0.7493859447718595,0.47686405522814057,9.850907834315578
2310000000.0,21.78,0.0,0.0,0.0,0.7479143102620431,0.4783356897379569,9.857676465393064
2315000000.0,21.78,0.0,0.0,0.0,0.7538987248304873,0.4832405100678051,9.832170510067805
2320000000.0,21.78,0.0,0.0,0.0,0.760078484557485,0.46734835493678356,9.81981
2325000000.0,21.78,0.0,0.0,0.0,0.7298641806413418,0.46107,9.81981
2330000000.0,21.78,0.0,0.0,0.0,0.75537,0.4644054452574544,9.809803664227637
2335000000.0,21.78,0.0,0.0,0.0,0.7521326546454266,0.47411734535457345,9.803329381418294
2340000000.0,21.78,0.0,0.0,0.0,0.74556,0.48069,9.835898490903386
2345000000.0,21.78,0.0,0.0,0.0,0.7425188544511886,0.48373114554881147,9.846198854451188
2350000000.0,21.78,0.0,0.0,0.0,0.7445791369377914,0.4905,9.83648695435407
2355000000.0,21.78,0.0,0.0,0.0,0.7538002170278022,0.48765505425695055,9.8239301085139
2360000000.0,21.78,0.0,0.0,0.0,0.7341805375205054,0.48343684584016844,9.815493691680338
2365000000.0,21.78,0.0,0.0,0.0,0.75537,0.4852025081254251,9.824322508125425
2370000000.0,21.78,0.0,0.0,0.0,0.7528193539655935,0.47088,9.825303876206439
2375000000.0,21.78,0.0,0.0,0.0,0.7431074538684745,0.4733325461315255,9.859049815473899
2380000000.0,21.78,0.0,0.0,0.0,0.7333955537713556,0.48539889245728896,9.817847768856778
2385000000.0,21.78,0.0,0.0,0.0,0.7304526926515269,0.4957973073484731,9.787339038977292
2390000000.0,21.78,0.0,0.0,0.0,0.74556,0.4785317535771175,9.81
2395000000.0,21.78,0.0,0.0,0.0,0.74556,0.47088,9.820300732600007
2400000000.0,21.78,0.0,0.0,0.0,0.74556,0.4728420466171205,9.85905
2405000000.0,21.78,0.0,0.0,0.0,0.7474239467142395,0.47882605328576056,9.851594213143041
2410000000.0,21.78,0.0,0.0,0.0,0.7518383063772831,0.47088,9.818044153188643
2415000000.0,21.78,0.0,0.0,0.0,0.7340822530915225,0.4758832407254324,9.808332253091523
2420000000.0,21.78,0.0,0.0,0.0,0.7322185880223859,0.49874035299440356,9.80960788203358
2425000000.0,21.78,0.0,0.0,0.0,0.7607653586918537,0.48755690579456906,9.857578452897284
2430000000.0,21.78,0.0,0.0,0.0,0.7371234471998345,0.4722534471998345,9.847866552800166
2435000000.0,21.78,0.0,0.0,0.0,0.7442846527030466,0.47813930540609306,9.830502568921325
2440000000.0,21.78,0.0,0.0,0.0,0.738104494788145,0.46224724739407247,9.774291742182216
2445000000.0,21.78,0.0,0.0,0.0,0.753211705017617,0.46980085250880854,9.802348294982384
2450000000.0,21.78,0.0,0.0,0.0,0.7386931427649315,0.4640131427649314,9.821772095176621
2455000000.0,21.78,0.0,0.0,0.0,0.7634141046291412,0.4905,9.84031294768543
2460000000.0,21.78,0.0,0.0,0.0,0.7479145433476454,0.48893030443490304,9.846100608869806
2465000000.0,21.78,0.0,0.0,0.0,0.7729297563609976,0.4701932521203325,9.807939756360998
2470000000.0,21.78,0.0,0.0,0.0,0.744382704046427,0.46224729595357295,9.78233594393036
2475000000.0,21.78,0.0,0.0,0.0,0.7279021922956219,0.48019945192609453,9.810981096147811
2480000000.0,21.78,0.0,0.0,0.0,0.7647875518289756,0.471664896342049,9.83040489634205
2485000000.0,21.78,0.0,0.0,0.0,0.7550756517318565,0.4896169551955695,9.848062606927426
2490000000.0,21.78,0.0,0.0,0.0,0.745167503269475,0.4618549934610499,9.81
2495000000.0,21.78,0.0,0.0,0.0,0.726136296924763,0.5000155546128556,9.81
2500000000.0,21.78,0.0,0.0,0.0,0.74556,0.47088,9.810000097119001
2505000000.0,21.78,0.0,0.0,0.0,0.74556,0.47088,9.829423897313239
2510000000.0,21.78,0.0,0.0,0.0,0.7167184537387846,0.4804938487537385,9.82962
2515000000.0,21.78,0.0,0.0,0.0,0.75419299540343,0.461658502298285,9.839135748850858
2520000000.0,21.78,0.0,0.0,0.0,0.736534702104047,0.48932294684392946,9.801759404208095
2525000000.0,21.78,0.0,0.0,0.0,0.754389098090191,0.4905,9.818829098090191
2530000000.0,21.78,0.0,0.0,0.0,0.7645914491422146,0.48127855085778554,9.81981
2535000000.0,21.78,0.0,0.0,0.0,0.7560566507606665,0.48069,9.856303396957333
2540000000.0,21.78,0.0,0.0,0.0,0.737319501327095,0.4897152493364525,9.85905
2545000000.0,21.78,0.0,0.0,0.0,0.7268228505664285,0.4905,9.832268551699286
2550000000.0,21.78,0.0,0.0,0.0,0.7347690495306906,0.47284190093861905,9.81196190093862
2555000000.0,21.78,0.0,0.0,0.0,0.7444809496278095,0.488341899255619,9.81873094962781
2560000000.0,21.78,0.0,0.0,0.0,0.7541928497249285,0.4646014508252145,9.845708549174786
2565000000.0,21.78,0.0,0.0,0.0,0.7468352501779525,0.48667424946614246,9.866309499644094
2570000000.0,21.78,0.0,0.0,0.0,0.7539966499191665,0.4651900502425005,9.8435500502425
2575000000.0,21.78,0.0,0.0,0.0,0.7470314499837145,0.4360543499511435,9.82275289996743
2580000000.0,21.78,0.0,0.0,0.0,0.7373195498865955,0.48932315079383154,9.811569549886595
2585000000.0,21.78,0.0,0.0,0.0,0.73575,0.484025299578953,9.81
2590000000.0,21.78,0.0,0.0,0.0,0.7679270012305701,0.49677850061528506,9.834132750922928
2595000000.0,21.78,0.0,0.0,0.0,0.743205398380954,0.4764715487857155,9.871214601619046
2600000000.0,21.78,0.0,0.0,0.0,0.7592941515056416,0.47088,9.847277797992477
2605000000.0,21.78,0.0,0.0,0.0,0.7651800000000001,0.4786299505989995,9.816180148203001
2610000000.0,21.78,0.0,0.0,0.0,0.7575281493038815,0.48069,9.794696298607764
2615000000.0,21.78,0.0,0.0,0.0,0.75537,0.45802874762028745,9.797933750793238
2620000000.0,21.78,0.0,0.0,0.0,0.7479143491096435,0.4587156508903565,9.830012603561427
2625000000.0,21.78,0.0,0.0,0.0,0.7602751019749511,0.475785101974951,9.83943
2630000000.0,21.78,0.0,0.0,0.0,0.750661097830811,0.4734305489154055,9.832170548915405
2635000000.0,21.78,0.0,0.0,0.0,0.7742054047268541,0.485202702363427,9.815297297636574
2640000000.0,21.78,0.0,0.0,0.0,0.7636102461635025,0.4905,9.795873497442336
2645000000.0,21.78,0.0,0.0,0.0,0.7484048486240484,0.49746515137595154,9.825205756879758
2650000000.0,21.78,0.0,0.0,0.0,0.7524270514730705,0.4728417941077179,9.82569589705386
2655000000.0,21.78,0.0,0.0,0.0,0.7418320968596209,0.4678389515701895,9.813041048429811
2660000000.0,21.78,0.0,0.0,0.0,0.7557625550019256,0.48422170333461706,9.81
2665000000.0,21.78,0.0,0.0,0.0,0.7454617447067174,0.477354496471145,9.829718255293283
2670000000.0,21.78,0.0,0.0,0.0,0.7422246518615465,0.46440534813845347,9.826480696276906
2675000000.0,21.78,0.0,0.0,0.0,0.74556,0.473823103917331,9.813433448041335
2680000000.0,21.78,0.0,0.0,0.0,0.7392815479442155,0.4744115479442155,9.82255690411157
2685000000.0,21.78,0.0,0.0,0.0,0.73575,0.4894210564587106,9.81107894354129
2690000000.0,21.78,0.0,0.0,0.0,0.73575,0.48206324324993244,9.82451900900009
2695000000.0,21.78,0.0,0.0,0.0,0.7417341523471416,0.482848304694283,9.821477542958576
2700000000.0,21.78,0.0,0.0,0.0,0.7396739475557395,0.4846139475557395,9.821772104888522
2705000000.0,21.78,0.0,0.0,0.0,0.7415379525413796,0.48647795254137954,9.823832047458621
2710000000.0,21.78,0.0,0.0,0.0,0.74556,0.48481014736150146,9.81981
2715000000.0,21.78,0.0,0.0,0.0,0.7511517527356175,0.4695064945287649,9.81981
2720000000.0,21.78,0.0,0.0,0.0,0.7498763471672635,0.46656365283273654,9.81981
2725000000.0,21.78,0.0,0.0,0.0,0.7401644470701445,0.4762755529298555,9.814414447070146
2730000000.0,21.78,0.0,0.0,0.0,0.7410474530269745,0.48069,9.831189812107898
2735000000.0,21.78,0.0,0.0,0.0,0.7403606468759065,0.4754906468759065,9.84924
2740000000.0,21.78,0.0,0.0,0.0,0.7306487467787874,0.48108250644242506,9.818632480672726
2745000000.0,21.78,0.0,0.0,0.0,0.735946306636663,0.4804936933633369,9.805389459954995
2750000000.0,21.78,0.0,0.0,0.0,0.7406549465845494,0.47088,9.824715053415451
2755000000.0,21.78,0.0,0.0,0.0,0.73575,0.47568695351256957,9.83923390702514
2760000000.0,21.78,0.0,0.0,0.0,0.7404588536096885,0.48069,9.839822292780623
2765000000.0,21.78,0.0,0.0,0.0,0.7409492462931925,0.4760792462931925,9.815787738879578
2770000000.0,21.78,0.0,0.0,0.0,0.73575,0.47088,9.804702653803927
2775000000.0,21.78,0.0,0.0,0.0,0.7401645539010455,0.47088,9.823243661703136
2780000000.0,21.78,0.0,0.0,0.0,0.74556,0.48814581599265816,9.835113546001836
2785000000.0,21.78,0.0,0.0,0.0,0.7497783540952835,0.5016832918094329,9.81696493771415
2790000000.0,21.78,0.0,0.0,0.0,0.7388889832303899,0.47813923742279235,9.80019
2795000000.0,21.78,0.0,0.0,0.0,0.7322186171580862,0.45704784571047846,9.79616784571048
2800000000.0,21.78,0.0,0.0,0.0,0.75537,0.46303216315992163,9.813924326319844
2805000000.0,21.78,0.0,0.0,0.0,0.7438921365487213,0.47686404551624045,9.845414045516241
2810000000.0,21.78,0.0,0.0,0.0,0.7408514183235142,0.47460785458087856,9.835702145419122
2815000000.0,21.78,0.0,0.0,0.0,0.7579204906440049,0.4770602453220025,9.818730735966009
2820000000.0,21.78,0.0,0.0,0.0,0.7420283452248835,0.47441165477511654,9.803721654775117
2825000000.0,21.78,0.0,0.0,0.0,0.7426171097444711,0.47725644512776444,9.823734219488943
2830000000.0,21.78,0.0,0.0,0.0,0.7520345450306455,0.4742154549693546,9.84924
2835000000.0,21.78,0.0,0.0,0.0,0.74556,0.48069,9.839527934800579
2840000000.0,21.78,0.0,0.0,0.0,0.74556,0.47755074483640747,9.80725297934563
2845000000.0,21.78,0.0,0.0,0.0,0.74556,0.47392115526071155,9.786652310521424
2850000000.0,21.78,0.0,0.0,0.0,0.7426169446421694,0.47480388928433886,9.803133055357831
2855000000.0,21.78,0.0,0.0,0.0,0.7442848663648487,0.46960486636484866,9.827069732729697
2860000000.0,21.78,0.0,0.0,0.0,0.7541925777917259,0.49324685555206854,9.857872577791726
2865000000.0,21.78,0.0,0.0,0.0,0.7312375112983751,0.49236373305243736,9.821673733052437
2870000000.0,21.78,0.0,0.0,0.0,0.7481106557463065,0.47343065574630655,9.802740655746307
2875000000.0,21.78,0.0,0.0,0.0,0.7578225558434256,0.47823744415657443,9.812452555843427
2880000000.0,21.78,0.0,0.0,0.0,0.7651800000000001,0.4661710881189109,9.829227823762178
2885000000.0,21.78,0.0,0.0,0.0,0.760667287924673,0.45802906811299066,9.854537287924673
2890000000.0,21.78,0.0,0.0,0.0,0.74556,0.48500651226956515,9.83943
2895000000.0,21.78,0.0,0.0,0.0,0.7496803124638032,0.4941295313042953,9.831189375072395
2900000000.0,21.78,0.0,0.0,0.0,0.7592938310129383,0.46891794367097944,9.802152056329021
2905000000.0,21.78,0.0,0.0,0.0,0.7394779128522792,0.4647979128522791,9.81
2910000000.0,21.78,0.0,0.0,0.0,0.7536041434767414,0.47892414347674145,9.815297569569776
2915000000.0,21.78,0.0,0.0,0.0,0.7505632698611328,0.4692122433796225,9.841097756620378
2920000000.0,21.78,0.0,0.0,0.0,0.7734203432825035,0.46107,9.844531029847511
2925000000.0,21.78,0.0,0.0,0.0,0.7666515568146156,0.46107,9.821281556814617
2930000000.0,21.78,0.0,0.0,0.0,0.7708696292647963,0.4638169138234691,9.826873086176532
2935000000.0,21.78,0.0,0.0,0.0,0.7468353570088536,0.47941464299114644,9.81
2940000000.0,21.78,0.0,0.0,0.0,0.75537,0.4732345142119452,9.814709028423891
2945000000.0,21.78,0.0,0.0,0.0,0.7532116855938168,0.4894208427969084,9.850319157203092
2950000000.0,21.78,0.0,0.0,0.0,0.7367310573002106,0.48069,9.856106828099367
2955000000.0,21.78,0.0,0.0,0.0,0.74556,0.48069,9.82873704260267
2960000000.0,21.78,0.0,0.0,0.0,0.7463448574944486,0.48147485749444857,9.818240285011104
2965000000.0,21.78,0.0,0.0,0.0,0.7560567575915675,0.4891264848168648,9.802250272774703
2970000000.0,21.78,0.0,0.0,0.0,0.7640026846226269,0.46852536924525373,9.830797315377373
2975000000.0,21.78,0.0,0.0,0.0,0.7460505577858055,0.4336022311432223,9.847768326642584
2980000000.0,21.78,0.0,0.0,0.0,0.75537,0.47048754211707544,9.820202457882925
2985000000.0,21.78,0.0,0.0,0.0,0.7550756420199564,0.46136435798004355,9.829031284039914
2990000000.0,21.78,0.0,0.0,0.0,0.74556,0.4712725161543252,9.810196258077163
2995000000.0,21.78,0.0,0.0,0.0,0.7454618418257184,0.4904018418257184,9.81981
3000000000.0,21.78,0.0,0.0,0.0,0.7357498834571988,0.4806899417285994,9.8198100582714
3005000000.0,21.78,0.0,0.0,0.0,0.7163260832629609,0.47097804163148044,9.82952195836852
3010000000.0,21.78,0.0,0.0,0.0,0.7449715753969157,0.4997215753969158,9.810392283068722
3015000000.0,21.78,0.0,0.0,0.0,0.7550757585627575,0.4812784828744848,9.81
3020000000.0,21.78,0.0,0.0,0.0,0.7459523413401234,0.4901076586598766,9.83825297597963
3025000000.0,21.78,0.0,0.0,0.0,0.7641991175139913,0.4718608824860088,9.802151764972018
3030000000.0,21.78,0.0,0.0,0.0,0.7559585411458855,0.4801014588541146,9.827854376562344
3035000000.0,21.78,0.0,0.0,0.0,0.75537,0.4624432820975328,9.820496641048766
3040000000.0,21.78,0.0,0.0,0.0,0.7734205180967052,0.4971710361934104,9.810784740951648
3045000000.0,21.78,0.0,0.0,0.0,0.7392813634181137,0.46460136341811364,9.818927159145472
3050000000.0,21.78,0.0,0.0,0.0,0.7445790592425906,0.4522409407574094,9.81098094075741
3055000000.0,21.78,0.0,0.0,0.0,0.7280980813205808,0.45999095933970957,9.836192878019128
3060000000.0,21.78,0.0,0.0,0.0,0.7518385783104857,0.4524371405631714,9.813531421689515
3065000000.0,21.78,0.0,0.0,0.0,0.7468352404660524,0.4768642786018428,9.827069519067896
3070000000.0,21.78,0.0,0.0,0.0,0.74556,0.4722533403689334,9.821183340368934
3075000000.0,21.78,0.0,0.0,0.0,0.7538985597281855,0.4625414402718144,9.836487119456372
3080000000.0,21.78,0.0,0.0,0.0,0.7636104598253046,0.4528295401746954,9.831189540174696
3085000000.0,21.78,0.0,0.0,0.0,0.7570376400775765,0.4675447198448472,9.821477640077577
3090000000.0,21.78,0.0,0.0,0.0,0.75537,0.4950127800586278,9.787632959921831
3095000000.0,21.78,0.0,0.0,0.0,0.7394776797666768,0.4923638398833384,9.820300800583308
3100000000.0,21.78,0.0,0.0,0.0,0.73575,0.45910775914487756,9.82962
3105000000.0,21.78,0.0,0.0,0.0,0.7512499206217992,0.4745098809326988,9.8218700396891
3110000000.0,21.78,0.0,0.0,0.0,0.7630218604080187,0.48069,9.81981
3115000000.0,21.78,0.0,0.0,0.0,0.7576262394948624,0.4731362394948624,9.827363760505138
3120000000.0,21.78,0.0,0.0,0.0,0.75537,0.47088,9.822164339397744
3125000000.0,21.78,0.0,0.0,0.0,0.7627275606993756,0.47088,9.81981
3130000000.0,21.78,0.0,0.0,0.0,0.7651800000000001,0.4781394607964946,9.812550539203507
3135000000.0,21.78,0.0,0.0,0.0,0.7436959173191592,0.4878513608936136,9.817161360893614
3140000000.0,21.78,0.0,0.0,0.0,0.7569397829721979,0.4905,9.826873260990732
3145000000.0,21.78,0.0,0.0,0.0,0.7373193556485936,0.47656967782429677,9.815689677824297
3150000000.0,21.78,0.0,0.0,0.0,0.7190729388150294,0.4914811835549119,9.823734122369942
3155000000.0,21.78,0.0,0.0,0.0,0.7296679225641792,0.4800031161537312,9.809313116153731
3160000000.0,21.78,0.0,0.0,0.0,0.7490917227584172,0.4775508613792086,9.80019
3165000000.0,21.78,0.0,0.0,0.0,0.7422244770473447,0.46754447704734475,9.813335522952656
3170000000.0,21.78,0.0,0.0,0.0,0.7486993231468932,0.4675446615734466,9.832759323146893
3175000000.0,21.78,0.0,0.0,0.0,0.7489934383294343,0.46450343832943436,9.83943
3180000000.0,21.78,0.0,0.0,0.0,0.7518384617676847,0.4861838470707385,9.83943
3185000000.0,21.78,0.0,0.0,0.0,0.7306485525407855,0.48176891440558917,9.808528190675982
3190000000.0,21.78,0.0,0.0,0.0,0.7404590478476905,0.4830445239238452,9.796462261961924
3195000000.0,21.78,0.0,0.0,0.0,0.7493858379409584,0.4905,9.812158324118084
3200000000.0,21.78,0.0,0.0,0.0,0.7337878756876788,0.4905,9.831582124312321
3205000000.0,21.78,0.0,0.0,0.0,0.7490918490131185,0.49628796225327965,9.83364203774672
3210000000.0,21.78,0.0,0.0,0.0,0.7481104129488042,0.4946201376496014,9.840999724700797
3215000000.0,21.78,0.0,0.0,0.0,0.752525287342553,0.5016835248950352,9.821281187762413
3220000000.0,21.78,0.0,0.0,0.0,0.7486990123660902,0.4771580247321803,9.805683662544638
3225000000.0,21.78,0.0,0.0,0.0,0.7519366879252669,0.45126,9.81
3230000000.0,21.78,0.0,0.0,0.0,0.7545850745222508,0.46185492547774926,9.825892388216625
3235000000.0,21.78,0.0,0.0,0.0,0.7403606371640064,0.48127872567198726,9.83943
3240000000.0,21.78,0.0,0.0,0.0,0.7459525258662253,0.4905,9.829227474133775
3245000000.0,21.78,0.0,0.0,0.0,0.7503668369697684,0.48549683696976836,9.81981
3250000000.0,21.78,0.0,0.0,0.0,0.7406549368726494,0.48069,9.814904936872649
3255000000.0,21.78,0.0,0.0,0.0,0.73575,0.4758830367755304,9.83403481612235
3260000000.0,21.78,0.0,0.0,0.0,0.7451677266431773,0.4755888633215887,9.840214546713646
3265000000.0,21.78,0.0,0.0,0.0,0.7507592365812924,0.48069,9.81981
3270000000.0,21.78,0.0,0.0,0.0,0.7365346729683467,0.48069,9.824322663515828
3275000000.0,21.78,0.0,0.0,0.0,0.7347691272258913,0.4762754363870544,9.825205436387055
3280000000.0,21.78,0.0,0.0,0.0,0.7412435362899353,0.47519646371006463,9.824126463710066
3285000000.0,21.78,0.0,0.0,0.0,0.7399683638071837,0.4891267276143673,9.833838363807184
3290000000.0,21.78,0.0,0.0,0.0,0.7331992082870921,0.49206947219139474,9.83943
3295000000.0,21.78,0.0,0.0,0.0,0.7201521640014217,0.48069,9.827363507995736
3300000000.0,21.78,0.0,0.0,0.0,0.7377121922956219,0.48069,9.813924064098542
3305000000.0,21.78,0.0,0.0,0.0,0.7515440358043404,0.4730380716086807,9.812158071608682
3310000000.0,21.78,0.0,0.0,0.0,0.7530157285855573,0.46479786429277864,9.811373592878336
3315000000.0,21.78,0.0,0.0,0.0,0.7615502356101024,0.4781395287797953,9.82962
3320000000.0,21.78,0.0,0.0,0.0,0.7518383355129833,0.48696833551298335,9.822556671025968
3325000000.0,21.78,0.0,0.0,0.0,0.74556,0.4738228708317287,9.813433564584136
3330000000.0,21.78,0.0,0.0,0.0,0.7488954646812547,0.47107639404376395,9.813139070637492
3335000000.0,21.78,0.0,0.0,0.0,0.7521326352216263,0.4905,9.809902094335122
3340000000.0,21.78,0.0,0.0,0.0,0.7424207351245073,0.48736073512450734,9.826480735124507
3345000000.0,21.78,0.0,0.0,0.0,0.7327088350273884,0.4867723299452233,9.822851164972612
3350000000.0,21.78,0.0,0.0,0.0,0.7347691952091919,0.4914808047908081,9.82373386986054
3355000000.0,21.78,0.0,0.0,0.0,0.7439901393326014,0.47088,9.81
3360000000.0,21.78,0.0,0.0,0.0,0.7298643263198433,0.4736268652639687,9.807253134736031
3365000000.0,21.78,0.0,0.0,0.0,0.757233703916737,0.4753924692778247,9.818731357527614
3370000000.0,21.78,0.0,0.0,0.0,0.7331993345417933,0.4661713309164133,9.86886
3375000000.0,21.78,0.0,0.0,0.0,0.7382028277766283,0.48069,9.854144606668045
3380000000.0,21.78,0.0,0.0,0.0,0.7655721373902215,0.48069,9.81470893130489
3385000000.0,21.78,0.0,0.0,0.0,0.7380063657495637,0.47843363425043633,9.827363634250437
3390000000.0,21.78,0.0,0.0,0.0,0.74556,0.47088,9.824126531693366
3395000000.0,21.78,0.0,0.0,0.0,0.74556,0.47294016594380167,9.83943
3400000000.0,21.78,0.0,0.0,0.0,0.74556,0.47872793395907937,9.841392066040921
3405000000.0,21.78,0.0,0.0,0.0,0.7436960338619604,0.4727439661380397,9.841784135447842
3410000000.0,21.78,0.0,0.0,0.0,0.7375158662351586,0.48069,9.804702401294525
3415000000.0,21.78,0.0,0.0,0.0,0.7488955326645553,0.48069,9.790576597993667
3420000000.0,21.78,0.0,0.0,0.0,0.7620406671412068,0.4838293328587933,9.833151334282414
3425000000.0,21.78,0.0,0.0,0.0,0.7440884334734843,0.4929521673674217,9.81049096568561
3430000000.0,21.78,0.0,0.0,0.0,0.73575,0.4540069332472693,9.863366133505462
3435000000.0,21.78,0.0,0.0,0.0,0.7331992665584927,0.47088,9.827069266558492
3440000000.0,21.78,0.0,0.0,0.0,0.719661800453618,0.47088,9.81
3445000000.0,21.78,0.0,0.0,0.0,0.748797500744975,0.46980083308500836,9.811079166914991
3450000000.0,21.78,0.0,0.0,0.0,0.7730278659757788,0.464013201036332,9.822753201036333
3455000000.0,21.78,0.0,0.0,0.0,0.7544870328907703,0.48873406578154066,9.846591098672311
3460000000.0,21.78,0.0,0.0,0.0,0.7463448672063486,0.4716648672063487,9.82059486720635
3465000000.0,21.78,0.0,0.0,0.0,0.7539964653930646,0.47931646539306466,9.82962
3470000000.0,21.78,0.0,0.0,0.0,0.7351613325994133,0.4622473348011733,9.830208667400587
3475000000.0,21.78,0.0,0.0,0.0,0.7254494325022943,0.47970886500458865,9.838939432502295
3480000000.0,21.78,0.0,0.0,0.0,0.7176998703792987,0.4618549351896493,9.82962
3485000000.0,21.78,0.0,0.0,0.0,0.7547812646161126,0.48069,9.829325632308057
3490000000.0,21.78,0.0,0.0,0.0,0.7359462677890627,0.48049373221093733,9.820202535578126
3495000000.0,21.78,0.0,0.0,0.0,0.7456581678861817,0.47107633577236335,9.83933183211382
3500000000.0,21.78,0.0,0.0,0.0,0.7553697280667973,0.4904998640333986,9.8296199320167
3505000000.0,21.78,0.0,0.0,0.0,0.7165221276783214,0.4710760638391607,9.819908031919582
3510000000.0,21.78,0.0,0.0,0.0,0.744971604532616,0.4804938681775387,9.829423868177539
3515000000.0,21.78,0.0,0.0,0.0,0.7360442317253423,0.4616584634506846,9.782041158626713
3520000000.0,21.78,0.0,0.0,0.0,0.7451676683717767,0.4704876683717767,9.818240673487107
3525000000.0,21.78,0.0,0.0,0.0,0.74556,0.47088,9.81981
3530000000.0,21.78,0.0,0.0,0.0,0.7547814685660147,0.4616585314339853,9.856695874264059
3535000000.0,21.78,0.0,0.0,0.0,0.7736167373262675,0.46107,9.831679894010598
3540000000.0,21.78,0.0,0.0,0.0,0.747914193719242,0.46107,9.847670537520505
3545000000.0,21.78,0.0,0.0,0.0,0.74556,0.48785150657211507,9.822458493427884
3550000000.0,21.78,0.0,0.0,0.0,0.74556,0.4905,9.80215186209102
3555000000.0,21.78,0.0,0.0,0.0,0.7542909690516096,0.4643070928451709,9.84384484525805
3560000000.0,21.78,0.0,0.0,0.0,0.75537,0.4697028691487287,9.831974261702543
3565000000.0,21.78,0.0,0.0,0.0,0.7468352307541523,0.48794953849169537,9.846689538491695
3570000000.0,21.78,0.0,0.0,0.0,0.7708700080289002,0.48206333065703333,9.832366661314067
3575000000.0,21.78,0.0,0.0,0.0,0.7249585833594859,0.45567429167974294,9.82962
3580000000.0,21.78,0.0,0.0,0.0,0.7326109390744094,0.4677409390744094,9.804898591388387
3585000000.0,21.78,0.0,0.0,0.0,0.7520347392686474,0.47088,9.840901848171619
3590000000.0,21.78,0.0,0.0,0.0,0.7392814605371146,0.47088,9.833151460537115
3595000000.0,21.78,0.0,0.0,0.0,0.7516423396571233,0.4788261698285617,9.813727660342877
3600000000.0,21.78,0.0,0.0,0.0,0.75537,0.4885380699256807,9.825696139851361
3605000000.0,21.78,0.0,0.0,0.0,0.7398700599544006,0.4750000599544006,9.814120059954401
3610000000.0,21.78,0.0,0.0,0.0,0.7204462597601626,0.4632281298800813,9.802348129880082
3615000000.0,21.78,0.0,0.0,0.0,0.7387913106511131,0.4837313106511131,9.815297540434075
3620000000.0,21.78,0.0,0.0,0.0,0.7530156703141567,0.4755886593716866,9.81981
3625000000.0,21.78,0.0,0.0,0.0,0.7627275704112758,0.47088,9.827167570411277
3630000000.0,21.78,0.0,0.0,0.0,0.7579205294916053,0.48539894101678943,9.815101058983212
3635000000.0,21.78,0.0,0.0,0.0,0.7482086293944863,0.4833386293944863,9.817161370605515
3640000000.0,21.78,0.0,0.0,0.0,0.74556,0.48069,9.812746729297368
3645000000.0,21.78,0.0,0.0,0.0,0.7385948292002483,0.47372482920024833,9.823930341599503
3650000000.0,21.78,0.0,0.0,0.0,0.73575,0.47088,9.843354141793741
3655000000.0,21.78,0.0,0.0,0.0,0.7425189709939897,0.47764897099398973,9.822164116024041
3660000000.0,21.78,0.0,0.0,0.0,0.7522308710911088,0.4740191289088913,9.803329128908892
3665000000.0,21.78,0.0,0.0,0.0,0.7422244576235446,0.48402554237645545,9.813335542376455
3670000000.0,21.78,0.0,0.0,0.0,0.7551740138560402,0.4840253287146533,9.826284671285347
3675000000.0,21.78,0.0,0.0,0.0,0.7651800000000001,0.48069,9.848749714147397
3680000000.0,21.78,0.0,0.0,0.0,0.7651800000000001,0.48069,9.827657642602077
3685000000.0,21.78,0.0,0.0,0.0,0.7466388852698889,0.4745096284232963,9.803819628423296
3690000000.0,21.78,0.0,0.0,0.0,0.7479145433476454,0.48912681502146815,9.830601358369114
3695000000.0,21.78,0.0,0.0,0.0,0.75537,0.4943258282290583,9.843255828229058
3700000000.0,21.78,0.0,0.0,0.0,0.75537,0.4963860718680607,9.83354392813194
3705000000.0,21.78,0.0,0.0,0.0,0.7495820280348203,0.4887340560696406,9.818044056069642
3710000000.0,21.78,0.0,0.0,0.0,0.74556,0.46931025587540254,9.821379744124597
3715000000.0,21.78,0.0,0.0,0.0,0.74556,0.4554782278405823,9.818436455681164
3720000000.0,21.78,0.0,0.0,0.0,0.7565473445130735,0.46774101676961016,9.82648101676961
3725000000.0,21.78,0.0,0.0,0.0,0.7543888552926886,0.48069,9.83943
3730000000.0,21.78,0.0,0.0,0.0,0.7561549449015494,0.4859874724507747,9.818240110196902
3735000000.0,21.78,0.0,0.0,0.0,0.7495818823563188,0.4749018823563188,9.805389372547895
3740000000.0,21.78,0.0,0.0,0.0,0.73575,0.46617127264501274,9.81
3745000000.0,21.78,0.0,0.0,0.0,0.7407531727421317,0.47088,9.820006345484265
3750000000.0,21.78,0.0,0.0,0.0,0.7406549271607493,0.48069014567850143,9.82962
3755000000.0,21.78,0.0,0.0,0.0,0.7453639458727395,0.4905,9.82962
3760000000.0,21.78,0.0,0.0,0.0,0.7459522539330226,0.4857911269665113,9.820202253933022
3765000000.0,21.78,0.0,0.0,0.0,0.7449715462612154,0.4760792268693923,9.81
3770000000.0,21.78,0.0,0.0,0.0,0.7463446535445465,0.47088,9.828050692910907
3775000000.0,21.78,0.0,0.0,0.0,0.7445791466496915,0.47088,9.844825426675154
3780000000.0,21.78,0.0,0.0,0.0,0.7510535265780353,0.4795129468439295,9.835113526578036
3785000000.0,21.78,0.0,0.0,0.0,0.7497783735190837,0.4862816264809163,9.82962
3790000000.0,21.78,0.0,0.0,0.0,0.7430091791513918,0.4848102736162027,9.821379452767594
3795000000.0,21.78,0.0,0.0,0.0,0.7380065211399652,0.48647782628667824,9.818044347426644
3800000000.0,21.78,0.0,0.0,0.0,0.7514459261895593,0.4728418523791185,9.82569592618956
3805000000.0,21.78,0.0,0.0,0.0,0.7570379217226793,0.4648959739075597,9.81981
3810000000.0,21.78,0.0,0.0,0.0,0.7638063779859638,0.47460787400467874,9.816082125995322
3815000000.0,21.78,0.0,0.0,0.0,0.7528195482035955,0.4770602258982023,9.81
3820000000.0,21.78,0.0,0.0,0.0,0.7616483258010833,0.485006696795667,9.817063348397834
3825000000.0,21.78,0.0,0.0,0.0,0.7485028514079285,0.5066864257039643,9.836487148592072
3830000000.0,21.78,0.0,0.0,0.0,0.7424209487863095,0.48696810242738103,9.84256905121369
3835000000.0,21.78,0.0,0.0,0.0,0.742420502038905,0.45783262550972625,9.823145251019453
3840000000.0,21.78,0.0,0.0,0.0,0.7255478237621783,0.46067782376217825,9.813139274587392
3845000000.0,21.78,0.0,0.0,0.0,0.7394776506309765,0.47764882531548825,9.81981
3850000000.0,21.78,0.0,0.0,0.0,0.7347692243448922,0.47382307478163077,9.81981
3855000000.0,21.78,0.0,0.0,0.0,0.7496800502425005,0.48069,9.82265497487875
3860000000.0,21.78,0.0,0.0,0.0,0.7384968749758688,0.48343687497586874,9.82962
3865000000.0,21.78,0.0,0.0,0.0,0.7429112249270122,0.4905,9.82962
3870000000.0,21.78,0.0,0.0,0.0,0.7408513503402135,0.4905,9.82962
3875000000.0,21.78,0.0,0.0,0.0,0.7480122741983227,0.4855948494655485,9.827167424732774
3880000000.0,21.78,0.0,0.0,0.0,0.7282944753643448,0.4755889507286895,9.817455524635657
3885000000.0,21.78,0.0,0.0,0.0,0.7380063754614637,0.4927563754614638,9.81
3890000000.0,21.78,0.0,0.0,0.0,0.7390851733242517,0.49599344888283453,9.81647482667575
3895000000.0,21.78,0.0,0.0,0.0,0.724370702622807,0.47862982434429824,9.835309648688597
3900000000.0,21.78,0.0,0.0,0.0,0.7534079242471793,0.47088,9.821772075752822
3905000000.0,21.78,0.0,0.0,0.0,0.7474239758499398,0.4671520483001205,9.82775602415006
3910000000.0,21.78,0.0,0.0,0.0,0.7536041240529412,0.45655762784117626,9.82157587594706
3915000000.0,21.78,0.0,0.0,0.0,0.7422244479116444,0.4756866718674667,9.832955552088356
3920000000.0,21.78,0.0,0.0,0.0,0.7290793522825936,0.457538704565187,9.846100647717407
3925000000.0,21.78,0.0,0.0,0.0,0.7440884237615842,0.48755684752316847,9.828148423761585
3930000000.0,21.78,0.0,0.0,0.0,0.7398704290066043,0.47225347633553477,9.81981
3935000000.0,21.78,0.0,0.0,0.0,0.760078494269385,0.47686387070203873,9.821085376432654
3940000000.0,21.78,0.0,0.0,0.0,0.7294718295893183,0.4524372765297728,9.830797276529774
3945000000.0,21.78,0.0,0.0,0.0,0.7499741168655412,0.46107,9.838350823373109
3950000000.0,21.78,0.0,0.0,0.0,0.7112253836200538,0.4630321534480215,9.826676769827968
3955000000.0,21.78,0.0,0.0,0.0,0.7544870231788702,0.48069,9.799307023178871
3960000000.0,21.78,0.0,0.0,0.0,0.7439902461635025,0.47990512308175126,9.791949753836498
3965000000.0,21.78,0.0,0.0,0.0,0.7266267770153678,0.47225355403073555,9.81
3970000000.0,21.78,0.0,0.0,0.0,0.7351613228875132,0.48932264577502643,9.812354708449947
3975000000.0,21.78,0.0,0.0,0.0,0.7264305772096058,0.47186115441921156,9.84678711395197
3980000000.0,21.78,0.0,0.0,0.0,0.73575,0.4905,9.80019
3985000000.0,21.78,0.0,0.0,0.0,0.73575,0.48991124519231244,9.800778754807688
3990000000.0,21.78,0.0,0.0,0.0,0.7361425550019256,0.4710762775009628,9.820202555001925
3995000000.0,21.78,0.0,0.0,0.0,0.7552718224019183,0.4807881775980818,9.83943
4000000000.0,21.78,0.0,0.0,0.0,0.7455600776952008,0.4904999223047992,9.839429766914398
4005000000.0,21.78,0.0,0.0,0.0,0.7552719777923198,0.48078802220768024,9.810294066623042
4010000000.0,21.78,0.0,0.0,0.0,0.7457561221105612,0.47107612211056127,9.838841633668316
4015000000.0,21.78,0.0,0.0,0.0,0.7360442220134422,0.44233266604032667,9.810882666040326
4020000000.0,21.78,0.0,0.0,0.0,0.7640030342510304,0.4697030342510304,9.828835356167353
4025000000.0,21.78,0.0,0.0,0.0,0.7558604218192042,0.48951915636159155,9.81098084363841
4030000000.0,21.78,0.0,0.0,0.0,0.7645914782779148,0.48127852172208524,9.791557043444172
4035000000.0,21.78,0.0,0.0,0.0,0.7651800000000001,0.4715666216249662,9.817750135125102
4040000000.0,21.78,0.0,0.0,0.0,0.7381041645835417,0.47088,9.837860556944305
4045000000.0,21.78,0.0,0.0,0.0,0.7446771785692717,0.4798071785692718,9.866211535707816
4050000000.0,21.78,0.0,0.0,0.0,0.7279018426672185,0.4630318426672184,9.815885528001656
4055000000.0,21.78,0.0,0.0,0.0,0.72594,0.46107,9.792538042472982
4060000000.0,21.78,0.0,0.0,0.0,0.7432057577212576,0.4783357577212576,9.79901287886063
4065000000.0,21.78,0.0,0.0,0.0,0.7540947789577478,0.4721552210422522,9.834329115830991
4070000000.0,21.78,0.0,0.0,0.0,0.7638066790548669,0.47088,9.847866679054867
4075000000.0,21.78,0.0,0.0,0.0,0.7318256833920569,0.47088,9.840901420848015
4080000000.0,21.78,0.0,0.0,0.0,0.7094590415017904,0.4873609584982096,9.789987124505371
4085000000.0,21.78,0.0,0.0,0.0,0.7226047586924476,0.4823576206537762,9.796854758692449
4090000000.0,21.78,0.0,0.0,0.0,0.7339842794433428,0.4646014411133144,9.808234279443344
4095000000.0,21.78,0.0,0.0,0.0,0.7516423590809236,0.4769623590809236,9.841784718161847
4100000000.0,21.78,0.0,0.0,0.0,0.75537,0.4963861592751616,9.864936159275162
4105000000.0,21.78,0.0,0.0,0.0,0.7631199797346998,0.4693100810612008,9.837860081061201
4110000000.0,21.78,0.0,0.0,0.0,0.7498762403363625,0.4687218798318188,9.821968120168181
4115000000.0,21.78,0.0,0.0,0.0,0.7380062200710622,0.47088,9.812256220071063
4120000000.0,21.78,0.0,0.0,0.0,0.7282943199739432,0.4783356800260568,9.81
4125000000.0,21.78,0.0,0.0,0.0,0.7406551602463516,0.48069,9.817357580123176
4130000000.0,21.78,0.0,0.0,0.0,0.7528194802202948,0.47343051977970524,9.81981
4135000000.0,21.78,0.0,0.0,0.0,0.75537,0.47804138031741383,9.834132760634828
4140000000.0,21.78,0.0,0.0,0.0,0.7483067195854672,0.4877532804145328,9.825303439170934
4145000000.0,21.78,0.0,0.0,0.0,0.7316296389766964,0.4905,9.840705541534955
4150000000.0,21.78,0.0,0.0,0.0,0.7328070806087709,0.46989875817368754,9.835505838782458
4155000000.0,21.78,0.0,0.0,0.0,0.73575,0.46107,9.81608203858822
4160000000.0,21.78,0.0,0.0,0.0,0.7424208808030088,0.4677408808030088,9.81
4165000000.0,21.78,0.0,0.0,0.0,0.74556,0.4774527809001278,9.823145561800256
4170000000.0,21.78,0.0,0.0,0.0,0.7520346809972468,0.49363936199449365,9.855518723988988
4175000000.0,21.78,0.0,0.0,0.0,0.7426168378112684,0.48118025671690257,9.849730256716903
4180000000.0,21.78,0.0,0.0,0.0,0.7420284811914848,0.47088,9.820594556425545
4185000000.0,21.78,0.0,0.0,0.0,0.74556,0.4585192374227924,9.797639237422793
4190000000.0,21.78,0.0,0.0,0.0,0.7212308744571088,0.4695068441571684,9.820791406928615
4195000000.0,21.78,0.0,0.0,0.0,0.7182883629656837,0.48069,9.827461637034316
4200000000.0,21.78,0.0,0.0,0.0,0.7494843263198433,0.4865760815799608,9.825696081579961
4205000000.0,21.78,0.0,0.0,0.0,0.7478160549687606,0.48471201832292016,9.823832018322921
4210000000.0,21.78,0.0,0.0,0.0,0.7471297635483977,0.48069,9.8254998817742
4215000000.0,21.78,0.0,0.0,0.0,0.7609617818713179,0.4695064362573644,9.82962
4220000000.0,21.78,0.0,0.0,0.0,0.7596863180315632,0.4830447278737473,9.824126318031563
4225000000.0,21.78,0.0,0.0,0.0,0.7499744179344442,0.4895188358688884,9.81981
4230000000.0,21.78,0.0,0.0,0.0,0.7508574821626748,0.48069,9.814512517837326
4235000000.0,21.78,0.0,0.0,0.0,0.75537,0.4754906177402062,9.815199382259793
4240000000.0,21.78,0.0,0.0,0.0,0.7604712823569129,0.47598128235691284,9.830012564713826
4245000000.0,21.78,0.0,0.0,0.0,0.7601768175459682,0.47068363509193634,9.829423635091937
4250000000.0,21.78,0.0,0.0,0.0,0.7455598348976984,0.46107,9.809999834897699
4255000000.0,21.78,0.0,0.0,0.0,0.73575,0.4658769826482698,9.80019
4260000000.0,21.78,0.0,0.0,0.0,0.7498766482361665,0.4661711172546112,9.814316648236167
4265000000.0,21.78,0.0,0.0,0.0,0.742126085787461,0.4702915656850156,9.843452348527524
4270000000.0,21.78,0.0,0.0,0.0,0.7251553658792537,0.4761773170603732,9.85905
4275000000.0,21.78,0.0,0.0,0.0,0.73575,0.4752945830367458,9.832562501779526
4280000000.0,21.78,0.0,0.0,0.0,0.7486994494015945,0.4634240674645407,9.804506483133865
4285000000.0,21.78,0.0,0.0,0.0,0.7567432335380324,0.4541051496929515,9.793126467076064
4290000000.0,21.78,0.0,0.0,0.0,0.7496802833281029,0.4667597166718972,9.803722266624822
4295000000.0,21.78,0.0,0.0,0.0,0.75537,0.46911436685044366,9.841195633149557
4300000000.0,21.78,0.0,0.0,0.0,0.75537,0.4846140835223408,9.817847749432978
4305000000.0,21.78,0.0,0.0,0.0,0.7438920491416205,0.48667401638054014,9.80784196723892
4310000000.0,21.78,0.0,0.0,0.0,0.7296678837165789,0.4732342325668423,9.816082116283422
4315000000.0,21.78,0.0,0.0,0.0,0.73575,0.4646997838136978,9.817259567627396
4320000000.0,21.78,0.0,0.0,0.0,0.7392816839108168,0.47088,9.826088316089184
4325000000.0,21.78,0.0,0.0,0.0,0.7524271680158717,0.4777471680158717,9.816376415992064
4330000000.0,21.78,0.0,0.0,0.0,0.7618445158949452,0.48716451589494514,9.81
4335000000.0,21.78,0.0,0.0,0.0,0.7456578473934785,0.4871647684043477,9.822949536808697
4340000000.0,21.78,0.0,0.0,0.0,0.7353578528978786,0.4908921471021215,9.846100715700707
4345000000.0,21.78,0.0,0.0,0.0,0.7584111843964119,0.4617564468107645,9.830306446810765
4350000000.0,21.78,0.0,0.0,0.0,0.7622369155064692,0.45027925348059256,9.801170746519409
4355000000.0,21.78,0.0,0.0,0.0,0.75537,0.4737249845906499,9.78910495377195
4360000000.0,21.78,0.0,0.0,0.0,0.7526231153122311,0.48343688468776885,9.820987538751076
4365000000.0,21.78,0.0,0.0,0.0,0.74556,0.4905,9.84924
4370000000.0,21.78,0.0,0.0,0.0,0.7430093151179932,0.48794931511799317,9.844138630235987
4375000000.0,21.78,0.0,0.0,0.0,0.7382025849791258,0.48069,9.822262245062623
4380000000.0,21.78,0.0,0.0,0.0,0.7432055149237552,0.4736265447712654,9.80489897015249
4385000000.0,21.78,0.0,0.0,0.0,0.7402627703467277,0.45126,9.826579155520092
4390000000.0,21.78,0.0,0.0,0.0,0.75537,0.45557657054096573,9.844923429459035
4395000000.0,21.78,0.0,0.0,0.0,0.7574301853676019,0.47500037073520374,9.833740370735203
4400000000.0,21.78,0.0,0.0,0.0,0.7651800000000001,0.4905,9.841391658141116
4405000000.0,21.78,0.0,0.0,0.0,0.7595880433144805,0.4886360144381601,9.81372797112368
4410000000.0,21.78,0.0,0.0,0.0,0.7410476569768766,0.48069,9.833151771317917
4415000000.0,21.78,0.0,0.0,0.0,0.7651800000000001,0.47735442848784426,9.847572214243922
4420000000.0,21.78,0.0,0.0,0.0,0.7604709424404095,0.46263968585319687,9.837860314146804
4425000000.0,21.78,0.0,0.0,0.0,0.7342784140496842,0.47088,9.826676828099368
4430000000.0,21.78,0.0,0.0,0.0,0.7328074302371743,0.47362697209486976,9.811373486047435
4435000000.0,21.78,0.0,0.0,0.0,0.7749900000000001,0.4866738415663384,9.818534613855446
4440000000.0,21.78,0.0,0.0,0.0,0.7691035687916358,0.46342457248334573,9.81
4445000000.0,21.78,0.0,0.0,0.0,0.7302567453551675,0.4785316273224163,9.814316745355168
4450000000.0,21.78,0.0,0.0,0.0,0.7602745678204458,0.46205108643591086,9.845315654256357
4455000000.0,21.78,0.0,0.0,0.0,0.7187789595990897,0.4717629865330299,9.80823402693394
4460000000.0,21.78,0.0,0.0,0.0,0.74556,0.4791202267397023,9.793519546520596
4465000000.0,21.78,0.0,0.0,0.0,0.7462467867272679,0.4651907203636072,9.830306786727268
4470000000.0,21.78,0.0,0.0,0.0,0.75537,0.5169865658780657,9.840018686824386
4475000000.0,21.78,0.0,0.0,0.0,0.7563511738430118,0.47088,9.848258826156988
4480000000.0,21.78,0.0,0.0,0.0,0.7734200519255006,0.47088,9.828442538944126
4485000000.0,21.78,0.0,0.0,0.0,0.73575,0.4711743871157439,9.799895612884256
4490000000.0,21.78,0.0,0.0,0.0,0.7361425744257257,0.4801011383614114,9.790772574425727
4495000000.0,21.78,0.0,0.0,0.0,0.7552718126900181,0.45135818730998184,9.810196374619965
4500000000.0,21.78,0.0,0.0,0.0,0.74556,0.46107008740710087,9.829620174814202
4505000000.0,21.78,0.0,0.0,0.0,0.74556,0.4707819875042199,9.84904397500844
4510000000.0,21.78,0.0,0.0,0.0,0.74556,0.49010777520267773,9.810784449594644
4515000000.0,21.78,0.0,0.0,0.0,0.7550757876984578,0.4905,9.819515787698458
4520000000.0,21.78,0.0,0.0,0.0,0.7459523122044232,0.4810823122044231,9.81981
4525000000.0,21.78,0.0,0.0,0.0,0.7362404121073042,0.46205082421460825,9.86640793946348
4530000000.0,21.78,0.0,0.0,0.0,0.7541929759796298,0.4795129759796298,9.841195536030556
4535000000.0,21.78,0.0,0.0,0.0,0.7462466119130661,0.47156661191306615,9.821183223826132
4540000000.0,21.78,0.0,0.0,0.0,0.7545852881840529,0.4889305763681058,9.810784711815948
4545000000.0,21.78,0.0,0.0,0.0,0.75537,0.4905,9.818927188281172
4550000000.0,21.78,0.0,0.0,0.0,0.764199088378291,0.4728418232434182,9.81981
4555000000.0,21.78,0.0,0.0,0.0,0.7389870345737704,0.47088,9.83727197695082
4560000000.0,21.78,0.0,0.0,0.0,0.73575,0.4622471114274711,9.822164222854942
4565000000.0,21.78,0.0,0.0,0.0,0.73575,0.48667436600894365,9.802740422660705
4570000000.0,21.78,0.0,0.0,0.0,0.7610600663003008,0.4989366887667669,9.80019
4575000000.0,21.78,0.0,0.0,0.0,0.7485028222722282,0.4919714111361141,9.833544355455544
4580000000.0,21.78,0.0,0.0,0.0,0.74556,0.4657785331169853,9.83943
4585000000.0,21.78,0.0,0.0,0.0,0.74556,0.46107,9.847572389058124
4590000000.0,21.78,0.0,0.0,0.0,0.7536042891552429,0.48520286746572866,9.825107132534272
4595000000.0,21.78,0.0,0.0,0.0,0.7474238107476381,0.4825538107476381,9.811863810747639
4600000000.0,21.78,0.0,0.0,0.0,0.7534080893494809,0.4728419106505191,9.81
4605000000.0,21.78,0.0,0.0,0.0,0.7631199894466,0.4786299894465999,9.81
4610000000.0,21.78,0.0,0.0,0.0,0.7575281104562811,0.4653862209125622,9.848259447718595
4615000000.0,21.78,0.0,0.0,0.0,0.7478162103591621,0.4912851585633516,9.836388631077487
4620000000.0,21.78,0.0,0.0,0.0,0.7381043102620432,0.4853986205240862,9.82962
4625000000.0,21.78,0.0,0.0,0.0,0.7431075898350759,0.4659748203298482,9.814904820329849
4630000000.0,21.78,0.0,0.0,0.0,0.7310410201356102,0.4755889798643898,9.795481020135611
4635000000.0,21.78,0.0,0.0,0.0,0.733101390029314,0.4878513900293139,9.82618695014657
4640000000.0,21.78,0.0,0.0,0.0,0.7569398703792988,0.4763734197471342,9.83943
4645000000.0,21.78,0.0,0.0,0.0,0.7582148097764481,0.4639148097764481,9.832464809776448
4650000000.0,21.78,0.0,0.0,0.0,0.75537,0.4748041806413418,9.809018729037987
4655000000.0,21.78,0.0,0.0,0.0,0.7486010095822101,0.4603830287466303,9.80019
4660000000.0,21.78,0.0,0.0,0.0,0.7388891094850911,0.47127267154472674,9.80686089051491
4665000000.0,21.78,0.0,0.0,0.0,0.7488955812240559,0.48069,9.81
4670000000.0,21.78,0.0,0.0,0.0,0.7488953092908531,0.4871646907091469,9.835898762836587
4675000000.0,21.78,0.0,0.0,0.0,0.7583131816125319,0.4841234091937341,9.823733636774937
4680000000.0,21.78,0.0,0.0,0.0,0.7400660363864604,0.46813301819323017,9.828835472710155
4685000000.0,21.78,0.0,0.0,0.0,0.7383007820010078,0.4548896089994961,9.833249608999497
4690000000.0,21.78,0.0,0.0,0.0,0.7273131267071313,0.47558916439049165,9.823537708902377
4695000000.0,21.78,0.0,0.0,0.0,0.7400667647789676,0.4964841911947419,9.813825808805259
4700000000.0,21.78,0.0,0.0,0.0,0.75537,0.49442390870813907,9.815886091291862
4705000000.0,21.78,0.0,0.0,0.0,0.7495820086110201,0.4847120086110201,9.82559799138898
4710000000.0,21.78,0.0,0.0,0.0,0.7398701085139011,0.4693102170278022,9.82962
4715000000.0,21.78,0.0,0.0,0.0,0.7469335831664359,0.47225358316643584,9.82962
4720000000.0,21.78,0.0,0.0,0.0,0.7498763083196631,0.4861836916803369,9.82962
4725000000.0,21.78,0.0,0.0,0.0,0.74556,0.47970881644508817,9.835015591777456
4730000000.0,21.78,0.0,0.0,0.0,0.740262508125425,0.4761774918745749,9.834132508125425
4735000000.0,21.78,0.0,0.0,0.0,0.7305506080283061,0.49108878394338784,9.814021824084918
4740000000.0,21.78,0.0,0.0,0.0,0.7412438762064387,0.49010741586237416,9.805291292068814
4745000000.0,21.78,0.0,0.0,0.0,0.7653763843318638,0.47068361566813616,9.820006384331863
4750000000.0,21.78,0.0,0.0,0.0,0.7651798154738981,0.47088018452610186,9.82962
4755000000.0,21.78,0.0,0.0,0.0,0.7505630076398301,0.4758830076398301,9.82481300763983
4760000000.0,21.78,0.0,0.0,0.0,0.7549777849145779,0.47088,9.82451889245729
4765000000.0,21.78,0.0,0.0,0.0,0.7513476223367763,0.47549079255440796,9.820398414891185
4770000000.0,21.78,0.0,0.0,0.0,0.73575,0.4761773073484731,9.81
4775000000.0,21.78,0.0,0.0,0.0,0.73575,0.47529459274864594,9.827658370994584
4780000000.0,21.78,0.0,0.0,0.0,0.7443829856915298,0.47205701430847014,9.84060701430847
4785000000.0,21.78,0.0,0.0,0.0,0.751151607057116,0.46950678588576783,9.821183214114232
4790000000.0,21.78,0.0,0.0,0.0,0.7373194139199941,0.48481029304000295,9.818240586080007
4795000000.0,21.78,0.0,0.0,0.0,0.7339843862742439,0.4824556137257561,9.817553420588634
4800000000.0,21.78,0.0,0.0,0.0,0.7494840932342409,0.47088,9.804114093234242
4805000000.0,21.78,0.0,0.0,0.0,0.7515440066686401,0.46705400666864005,9.82530397332544
4810000000.0,21.78,0.0,0.0,0.0,0.7492878934284789,0.46479789342847894,9.84551210657152
4815000000.0,21.78,0.0,0.0,0.0,0.7517402064744021,0.4672502064744021,9.835800206474403
4820000000.0,21.78,0.0,0.0,0.0,0.7526233872454339,0.45753830637728304,9.822556612754566
4825000000.0,21.78,0.0,0.0,0.0,0.7514456251206563,0.4581271874396719,9.81
4830000000.0,21.78,0.0,0.0,0.0,0.7359464814508648,0.46754450618304505,9.81
4835000000.0,21.78,0.0,0.0,0.0,0.7488952121718521,0.46754478782814785,9.813237393914074
4840000000.0,21.78,0.0,0.0,0.0,0.73575,0.48382929401119296,9.822949294011194
4845000000.0,21.78,0.0,0.0,0.0,0.738791194108312,0.4905,9.826578805891689
4850000000.0,21.78,0.0,0.0,0.0,0.7426169057945691,0.48167071738370715,9.825696188410863
4855000000.0,21.78,0.0,0.0,0.0,0.7471299772101998,0.46391499430254995,9.8337400113949
4860000000.0,21.78,0.0,0.0,0.0,0.7694962112006621,0.46813310560033106,9.811569316800993
4865000000.0,21.78,0.0,0.0,0.0,0.7527212055032121,0.4743139724839397,9.793028794496788
4870000000.0,21.78,0.0,0.0,0.0,0.7481106945939069,0.49991722162437224,9.807842083781722
4875000000.0,21.78,0.0,0.0,0.0,0.7504648106179481,0.4806903787641038,9.836977784073078
4880000000.0,21.78,0.0,0.0,0.0,0.7404589895762899,0.5007020208474202,9.851986515635565
4885000000.0,21.78,0.0,0.0,0.0,0.750857210229472,0.473136394885264,9.820594420458944
4890000000.0,21.78,0.0,0.0,0.0,0.7422248849471489,0.47853170501761705,9.786063410035235
4895000000.0,21.78,0.0,0.0,0.0,0.7631198049204981,0.47294019507950197,9.779000780318007
4900000000.0,21.78,0.0,0.0,0.0,0.7573320951766209,0.48069,9.813924190353243
4905000000.0,21.78,0.0,0.0,0.0,0.7614520094525201,0.4788260047262601,9.83334799054748
4910000000.0,21.78,0.0,0.0,0.0,0.7508576861125769,0.472645895370859,9.843942313887423
4915000000.0,21.78,0.0,0.0,0.0,0.7666510226601103,0.47902220453202204,9.816474409064044
4920000000.0,21.78,0.0,0.0,0.0,0.727509695565097,0.4740193911301939,9.801759695565098
4925000000.0,21.78,0.0,0.0,0.0,0.737221595662216,0.4875568086755681,9.814414786986648
4930000000.0,21.78,0.0,0.0,0.0,0.7496804872780048,0.47088,9.83668300848133
4935000000.0,21.78,0.0,0.0,0.0,0.7711638124306381,0.472155395856454,9.821085395856453
4940000000.0,21.78,0.0,0.0,0.0,0.744382704046427,0.47951270404642704,9.828442704046427
4945000000.0,21.78,0.0,0.0,0.0,0.7379083921013839,0.47088,9.81873080394931
4950000000.0,21.78,0.0,0.0,0.0,0.7514456154087561,0.4689178077043781,9.811962192295622
4955000000.0,21.78,0.0,0.0,0.0,0.7178959924898599,0.45479198497971984,9.82962
4960000000.0,21.78,0.0,0.0,0.0,0.7349651036579511,0.4889302073159021,9.828050207315902
4965000000.0,21.78,0.0,0.0,0.0,0.727313592878336,0.47088,9.81068679643917
4970000000.0,21.78,0.0,0.0,0.0,0.7443826069274261,0.471468696536287,9.820398696536287
4975000000.0,21.78,0.0,0.0,0.0,0.7274117899002179,0.48118059663340595,9.830601193266812
4980000000.0,21.78,0.0,0.0,0.0,0.75458500653895,0.490107503269475,9.84845500653895
4985000000.0,21.78,0.0,0.0,0.0,0.735455603172356,0.480395603172356,9.829031206344713
4990000000.0,21.78,0.0,0.0,0.0,0.726136296924763,0.471076296924763,9.809607406150475
4995000000.0,21.78,0.0,0.0,0.0,0.7359463940437639,0.48059180297811804,9.790478197021883
5000000000.0,21.78,0.0,0.0,0.0,0.7553701942380019,0.470880097119001,9.800190291357003
5005000000.0,21.78,0.0,0.0,0.0,0.7747939944322401,0.48059199721612,9.82932599164836
5010000000.0,21.78,0.0,0.0,0.0,0.7461483080602831,0.47107610268676103,9.868075589252955
5015000000.0,21.78,0.0,0.0,0.0,0.7550757974103579,0.480395797410358,9.840312607768926
5020000000.0,21.78,0.0,0.0,0.0,0.7176992099700922,0.47127230249252305,9.81117690747757
5025000000.0,21.78,0.0,0.0,0.0,0.7440887928137879,0.47088,9.800680402395404
5030000000.0,21.78,0.0,0.0,0.0,0.72711700459657,0.461658502298285,9.83707599080686
5035000000.0,21.78,0.0,0.0,0.0,0.744186795597668,0.47931679559766793,9.857676795597667
5040000000.0,21.78,0.0,0.0,0.0,0.754585297895953,0.47166470210404704,9.822948808416188
5045000000.0,21.78,0.0,0.0,0.0,0.75537,0.479807197993072,9.810882802006928
5050000000.0,21.78,0.0,0.0,0.0,0.75537,0.47186090190980906,9.81
5055000000.0,21.78,0.0,0.0,0.0,0.75537,0.47961099818731,9.83619299456193
5060000000.0,21.78,0.0,0.0,0.0,0.7467371017155711,0.472057101715571,9.813531305146714
5065000000.0,21.78,0.0,0.0,0.0,0.737025201618452,0.479414798381548,9.827069596763096
5070000000.0,21.78,0.0,0.0,0.0,0.7610600954360011,0.48069,9.838056698478667
5075000000.0,21.78,0.0,0.0,0.0,0.7485028028484281,0.48069,9.814414204272643
5080000000.0,21.78,0.0,0.0,0.0,0.753800498672905,0.488930498672905,9.834721496018716
5085000000.0,21.78,0.0,0.0,0.0,0.739085202459952,0.49864239877002403,9.815002803689929
5090000000.0,21.78,0.0,0.0,0.0,0.743794298867143,0.47617710339857106,9.818044298867143
5095000000.0,21.78,0.0,0.0,0.0,0.769398596892786,0.478826198964262,9.81981
5100000000.0,21.78,0.0,0.0,0.0,0.751445702815857,0.47284190093861905,9.81196190093862
5105000000.0,21.78,0.0,0.0,0.0,0.74556,0.47088,9.81
5110000000.0,21.78,0.0,0.0,0.0,0.7379081007443811,0.486183798511238,9.825303798511237
5115000000.0,21.78,0.0,0.0,0.0,0.73575,0.4905,9.814512401294525
5120000000.0,21.78,0.0,0.0,0.0,0.728294300550143,0.475588601100286,9.81
5125000000.0,21.78,0.0,0.0,0.0,0.740655199093952,0.463522400453024,9.832072798640928
5130000000.0,21.78,0.0,0.0,0.0,0.73104100071181,0.468329499644095,9.803132501779526
5135000000.0,21.78,0.0,0.0,0.0,0.740262799482428,0.47088,9.80470279948243
5140000000.0,21.78,0.0,0.0,0.0,0.74556,0.477943299838333,9.824126599676667
5145000000.0,21.78,0.0,0.0,0.0,0.74556,0.487655199935452,9.850515599806355
5150000000.0,21.78,0.0,0.0,0.0,0.7730284001302841,0.483632899967429,9.838448699902287
5155000000.0,21.78,0.0,0.0,0.0,0.75772399948124,0.48069,9.82285099987031
5160000000.0,21.78,0.0,0.0,0.0,0.7188763990927639,0.474019099773191,9.813139099773192
5165000000.0,21.78,0.0,0.0,0.0,0.726038400971784,0.47088,9.816572800323929
5170000000.0,21.78,0.0,0.0,0.0,0.748699400842094,0.483829400842094,9.832759400842095
5175000000.0,21.78,0.0,0.0,0.0,0.75537,0.477746798963668,9.83943
5180000000.0,21.78,0.0,0.0,0.0,0.736534498154145,0.464601499384715,9.820594498154145
5185000000.0,21.78,0.0,0.0,0.0,0.7506616028496161,0.47343080142480803,9.803819599287596
5190000000.0,21.78,0.0,0.0,0.0,0.746933097571431,0.468525398380954,9.806272300809523
5195000000.0,21.78,0.0,0.0,0.0,0.747718401813284,0.479022602719926,9.827952602719927
5200000000.0,21.78,0.0,0.0,0.0,0.749483898996239,0.478727797992478,9.821771696988717
5205000000.0,21.78,0.0,0.0,0.0,0.73398399779824,0.47666800110088003,9.82157600220176
5210000000.0,21.78,0.0,0.0,0.0,0.7600794071879942,0.48069,9.818240197604002
5215000000.0,21.78,0.0,0.0,0.0,0.768024596114646,0.48069,9.81
5220000000.0,21.78,0.0,0.0,0.0,0.749876298607763,0.48069,9.81
5225000000.0,21.78,0.0,0.0,0.0,0.750955601489356,0.48069,9.83697800744678
5230000000.0,21.78,0.0,0.0,0.0,0.75537,0.47009499682704997,9.84845499682705
5235000000.0,21.78,0.0,0.0,0.0,0.750170598316406,0.47146880336718805,9.844629401683594
5240000000.0,21.78,0.0,0.0,0.0,0.74556,0.47048739643857396,9.808429585754295
5245000000.0,21.78,0.0,0.0,0.0,0.735553596244336,0.46107,9.790772807511328
5250000000.0,21.78,0.0,0.0,0.0,0.7406553059248531,0.465975101974951,9.81490510197495
5255000000.0,21.78,0.0,0.0,0.0,0.75537,0.46607299792793,9.82942400414414
5260000000.0,21.78,0.0,0.0,0.0,0.7412432934924329,0.46577890216918905,9.844138902169188
5265000000.0,21.78,0.0,0.0,0.0,0.735161604532616,0.47088,9.82618598866846
5270000000.0,21.78,0.0,0.0,0.0,0.741047297636573,0.4844181070902811,9.782139190546292
5275000000.0,21.78,0.0,0.0,0.0,0.731335397539454,0.49148079507890796,9.778608409842183
5280000000.0,21.78,0.0,0.0,0.0,0.7388895076729951,0.48500650255766503,9.813139507672995
5285000000.0,21.78,0.0,0.0,0.0,0.7427147920356479,0.486281597345216,9.838056805309568
5290000000.0,21.78,0.0,0.0,0.0,0.738300908255709,0.47244939449619394,9.84924
5295000000.0,21.78,0.0,0.0,0.0,0.7433033914529339,0.46509220284902203,9.825106782905868
5300000000.0,21.78,0.0,0.0,0.0,0.7377123088384231,0.47088,9.79430410294614
5305000000.0,21.78,0.0,0.0,0.0,0.7477179939134799,0.4823580091297801,9.81549401217304
5310000000.0,21.78,0.0,0.0,0.0,0.743205806280758,0.50031,9.84315790314038
5315000000.0,21.78,0.0,0.0,0.0,0.7517401967625019,0.48942059028750595,9.84924
5320000000.0,21.78,0.0,0.0,0.0,0.74556,0.4744117033346171,9.838644889996148
5325000000.0,21.78,0.0,0.0,0.0,0.7386927931365279,0.4738227931365279,9.816376396568264
5330000000.0,21.78,0.0,0.0,0.0,0.7292755035288551,0.464405503528855,9.81667100705771
5335000000.0,21.78,0.0,0.0,0.0,0.7422248072519481,0.47088,9.826382596374026
5340000000.0,21.78,0.0,0.0,0.0,0.7585093037230931,0.47088,9.826088607446186
5345000000.0,21.78,0.0,0.0,0.0,0.756056388539364,0.46783879617978796,9.82422398089894
5350000000.0,21.78,0.0,0.0,0.0,0.738693103917331,0.4669562078346621,9.793323103917333
5355000000.0,21.78,0.0,0.0,0.0,0.7512500080289001,0.47784499598554997,9.80872501204335
5360000000.0,21.78,0.0,0.0,0.0,0.7651800000000001,0.47362690411156905,9.82687309588843
5365000000.0,21.78,0.0,0.0,0.0,0.762531195791312,0.48069,9.825107608417376
5370000000.0,21.78,0.0,0.0,0.0,0.75537,0.47558859138838594,9.831777887082579
5375000000.0,21.78,0.0,0.0,0.0,0.75537,0.4659752088058521,9.81
5380000000.0,21.78,0.0,0.0,0.0,0.75537,0.48304450450004505,9.812354504500046
5385000000.0,21.78,0.0,0.0,0.0,0.7463443816113439,0.48598719080567193,9.828835618388656
5390000000.0,21.78,0.0,0.0,0.0,0.7247632187771322,0.47303830469428304,9.854733390611434
5395000000.0,21.78,0.0,0.0,0.0,0.7512495904171959,0.48069,9.837369795208598
5400000000.0,21.78,0.0,0.0,0.0,0.73575,0.47872789511147895,9.821771580445915
5405000000.0,21.78,0.0,0.0,0.0,0.73575,0.47088,9.79410800997128
5410000000.0,21.78,0.0,0.0,0.0,0.7339840949172409,0.47088,9.81176590508276
5415000000.0,21.78,0.0,0.0,0.0,0.7309434155396342,0.47088,9.826481220719513
5420000000.0,21.78,0.0,0.0,0.0,0.7538002947230029,0.4724497052769971,9.854340884169009
5425000000.0,21.78,0.0,0.0,0.0,0.7440883946258839,0.48216160537411606,9.825205183877651
5430000000.0,21.78,0.0,0.0,0.0,0.734376494528765,0.4905,9.801563505471236
5435000000.0,21.78,0.0,0.0,0.0,0.7297662167050621,0.48794918886329186,9.807449188863293
5440000000.0,21.78,0.0,0.0,0.0,0.75537,0.4685253886690539,9.79391191699642
5445000000.0,21.78,0.0,0.0,0.0,0.75537,0.45341841152518414,9.821968411525184
5450000000.0,21.78,0.0,0.0,0.0,0.7534077882805779,0.46793668242086683,9.837467788280579
5455000000.0,21.78,0.0,0.0,0.0,0.73575,0.4432160119136601,9.818043988086341
5460000000.0,21.78,0.0,0.0,0.0,0.7373198121078981,0.46107,9.801759812107898
5465000000.0,21.78,0.0,0.0,0.0,0.7546831938489319,0.4631304184532042,9.820496806151068
5470000000.0,21.78,0.0,0.0,0.0,0.7467374124963742,0.4899112937518129,9.829031293751813
5475000000.0,21.78,0.0,0.0,0.0,0.7627269682734698,0.48069,9.820300606345306
5480000000.0,21.78,0.0,0.0,0.0,0.7180925322121253,0.48108250644242506,9.829227493557575
5485000000.0,21.78,0.0,0.0,0.0,0.7640023738418238,0.49020559346045595,9.820104406539544
5490000000.0,21.78,0.0,0.0,0.0,0.7265289199099892,0.48069,9.829227386726673
5495000000.0,21.78,0.0,0.0,0.0,0.7551735865324358,0.4805917932662179,9.810098206733782
5500000000.0,21.78,0.0,0.0,0.0,0.735750106830901,0.47087989316909895,9.81981
5505000000.0,21.78,0.0,0.0,0.0,0.7454620069280201,0.4611679930719799,9.81981
5510000000.0,21.78,0.0,0.0,0.0,0.7647878140502782,0.46107,9.81981
5515000000.0,21.78,0.0,0.0,0.0,0.7461483857554838,0.4896174213667742,9.81981
5520000000.0,21.78,0.0,0.0,0.0,0.74556,0.47166458556124585,9.81981
5525000000.0,21.78,0.0,0.0,0.0,0.7176011780505118,0.4801996073164961,9.838449214632993
5530000000.0,21.78,0.0,0.0,0.0,0.7437945222408452,0.47146849258638496,9.82098698517277
5535000000.0,21.78,0.0,0.0,0.0,0.7181897774677978,0.48912681502146815,9.810686592489267
5540000000.0,21.78,0.0,0.0,0.0,0.7432059228235592,0.49952530760785313,9.819025307607854
5545000000.0,21.78,0.0,0.0,0.0,0.736632792295028,0.4646011691801117,9.81981
5550000000.0,21.78,0.0,0.0,0.0,0.7622373234062733,0.47872821560418216,9.855126431208364
5555000000.0,21.78,0.0,0.0,0.0,0.7477179842015799,0.47195899210078995,9.85031899210079
5560000000.0,21.78,0.0,0.0,0.0,0.7282941840073419,0.47951290799632906,9.814708368014685
5565000000.0,21.78,0.0,0.0,0.0,0.7174051919065519,0.48069,9.81
5570000000.0,21.78,0.0,0.0,0.0,0.7414401245717013,0.48069,9.81
5575000000.0,21.78,0.0,0.0,0.0,0.7538986082876861,0.4890286082876861,9.81
5580000000.0,21.78,0.0,0.0,0.0,0.75537,0.4657784748455847,9.834721525154416
5585000000.0,21.78,0.0,0.0,0.0,0.75537,0.4773548169638482,9.831287591518077
5590000000.0,21.78,0.0,0.0,0.0,0.7312370742628708,0.4646013828419138,9.821575691420957
5595000000.0,21.78,0.0,0.0,0.0,0.7497786260284862,0.4769624173523242,9.803917582647676
5600000000.0,21.78,0.0,0.0,0.0,0.7396737824534378,0.48069,9.831582435093125
5605000000.0,21.78,0.0,0.0,0.0,0.7202499822591999,0.48844000887040007,9.8161799733888
5610000000.0,21.78,0.0,0.0,0.0,0.7390857269025572,0.47519618206496184,9.81
5615000000.0,21.78,0.0,0.0,0.0,0.7531138090646381,0.47088,9.825107618129277
5620000000.0,21.78,0.0,0.0,0.0,0.7479142908382429,0.4783357091617571,9.822164290838243
5625000000.0,21.78,0.0,0.0,0.0,0.7382023907411239,0.4880476092588761,9.812452390741125
5630000000.0,21.78,0.0,0.0,0.0,0.7430095093559951,0.4687214719320147,9.81
5635000000.0,21.78,0.0,0.0,0.0,0.7598828189062282,0.4682314094531141,9.824322818906229
5640000000.0,21.78,0.0,0.0,0.0,0.7510533808995339,0.48500661910046616,9.794303452248835
5645000000.0,21.78,0.0,0.0,0.0,0.7594904192947043,0.4835347903526479,9.822361257884113
5650000000.0,21.78,0.0,0.0,0.0,0.758312890255529,0.47382289025552893,9.853164219488942
5655000000.0,21.78,0.0,0.0,0.0,0.7486009901584099,0.4844180196831802,9.82520495079205
5660000000.0,21.78,0.0,0.0,0.0,0.7589018198774182,0.4838290900612909,9.81
5665000000.0,21.78,0.0,0.0,0.0,0.7651800000000001,0.4675443799283438,9.81657281003583
5670000000.0,21.78,0.0,0.0,0.0,0.7457558696011587,0.4740194202658942,9.826284710132947
5675000000.0,21.78,0.0,0.0,0.0,0.7485032204601322,0.4679367795398678,9.823243389769933
5680000000.0,21.78,0.0,0.0,0.0,0.7428129793456298,0.46107,9.826088510327185
5685000000.0,21.78,0.0,0.0,0.0,0.7481108208486082,0.4796112312729123,9.82962
5690000000.0,21.78,0.0,0.0,0.0,0.7432053789571538,0.4965823105214231,9.82962
5695000000.0,21.78,0.0,0.0,0.0,0.7417342106185422,0.50031,9.823635789381457
5700000000.0,21.78,0.0,0.0,0.0,0.7279016678530167,0.4767655571373556,9.790379446421694
5705000000.0,21.78,0.0,0.0,0.0,0.7334940324383403,0.4784340324383403,9.79391204325112
5710000000.0,21.78,0.0,0.0,0.0,0.74556,0.4961899109098991,9.827069732729697
5715000000.0,21.78,0.0,0.0,0.0,0.7399681889929819,0.4947181889929819,9.850613622014036
5720000000.0,21.78,0.0,0.0,0.0,0.7467374222082742,0.47401886668758864,9.848062577791726
5725000000.0,21.78,0.0,0.0,0.0,0.7445787775974878,0.4718612224025122,9.823243166396232
5730000000.0,21.78,0.0,0.0,0.0,0.73575,0.4859875112983751,9.79940497740325
5735000000.0,21.78,0.0,0.0,0.0,0.7253511772090118,0.46970235441802355,9.800778822790988
5740000000.0,21.78,0.0,0.0,0.0,0.7314339344778393,0.4614626229852262,9.825303934477839
5745000000.0,21.78,0.0,0.0,0.0,0.74556,0.48088642317946423,9.834426788410267
5750000000.0,21.78,0.0,0.0,0.0,0.7357497766262978,0.4905,9.839430223373702
5755000000.0,21.78,0.0,0.0,0.0,0.7307470117839702,0.4856929882160299,9.830011952864119
5760000000.0,21.78,0.0,0.0,0.0,0.7310410881189109,0.47127217623782175,9.81
5765000000.0,21.78,0.0,0.0,0.0,0.72594,0.4702916239564162,9.823832435934625
5770000000.0,21.78,0.0,0.0,0.0,0.7304527120753271,0.48069,9.834917287924673
5775000000.0,21.78,0.0,0.0,0.0,0.7313353878275539,0.47186077565510776,9.82962
5780000000.0,21.78,0.0,0.0,0.0,0.7345730245391303,0.4653865122695651,9.825303487730435
5785000000.0,21.78,0.0,0.0,0.0,0.7497784123666841,0.47088,9.815591587633316
5790000000.0,21.78,0.0,0.0,0.0,0.7430090626085907,0.47500031246380314,9.818240624927606
5795000000.0,21.78,0.0,0.0,0.0,0.7339844251218443,0.4686233623172336,9.837664425121844
5800000000.0,21.78,0.0,0.0,0.0,0.7534082253160823,0.4551841126580411,9.841391774683919
5805000000.0,21.78,0.0,0.0,0.0,0.7575279744896798,0.47254803826548036,9.82196797448968
5810000000.0,21.78,0.0,0.0,0.0,0.7381041742954417,0.48677208714772086,9.806272087147722
5815000000.0,21.78,0.0,0.0,0.0,0.7368294388481944,0.48431981294939813,9.8038198129494
5820000000.0,21.78,0.0,0.0,0.0,0.7483065739069658,0.4869682869534829,9.820595139139552
5825000000.0,21.78,0.0,0.0,0.0,0.7288827737127278,0.4772563868563639,9.83943
5830000000.0,21.78,0.0,0.0,0.0,0.7361430794445308,0.47088,9.829423460277734
5835000000.0,21.78,0.0,0.0,0.0,0.7652777599863776,0.4676425866621259,9.813237413337875
5840000000.0,21.78,0.0,0.0,0.0,0.7486993134349931,0.46734862686998624,9.81981
5845000000.0,21.78,0.0,0.0,0.0,0.7523287864678878,0.4837312135321121,9.81981
5850000000.0,21.78,0.0,0.0,0.0,0.7426168863707688,0.4846137727415377,9.828639340887694
5855000000.0,21.78,0.0,0.0,0.0,0.7385950137263502,0.47088,9.83501493136825
5860000000.0,21.78,0.0,0.0,0.0,0.7483069138234691,0.4681330861765309,9.80568382764694
5865000000.0,21.78,0.0,0.0,0.0,0.75537,0.45842118607941185,9.817161186079412
5870000000.0,21.78,0.0,0.0,0.0,0.75537,0.4589121420531214,9.817652142053122
5875000000.0,21.78,0.0,0.0,0.0,0.7480121576555215,0.47333215765552156,9.836977385885174
5880000000.0,21.78,0.0,0.0,0.0,0.7330035426358354,0.45361451421194515,9.827265485788056
5885000000.0,21.78,0.0,0.0,0.0,0.7531135856909359,0.46107,9.813040757072809
5890000000.0,21.78,0.0,0.0,0.0,0.7498766288123663,0.46538662881236625,9.794696628812368
5895000000.0,21.78,0.0,0.0,0.0,0.7631197854966979,0.4786297854966979,9.814120429006605
5900000000.0,21.78,0.0,0.0,0.0,0.7475215415983154,0.47088,9.83158211460042
5905000000.0,21.78,0.0,0.0,0.0,0.7179940146975402,0.46901598530245986,9.83570197060492
5910000000.0,21.78,0.0,0.0,0.0,0.72594,0.4646018295893183,9.818044085205342
5915000000.0,21.78,0.0,0.0,0.0,0.7292756297835563,0.48069,9.81
5920000000.0,21.78,0.0,0.0,0.0,0.74556,0.4791202850111029,9.81
5925000000.0,21.78,0.0,0.0,0.0,0.7470316150860161,0.4723516150860162,9.811471615086017
5930000000.0,21.78,0.0,0.0,0.0,0.7539964848168649,0.47931648481686484,9.822557030366271
5935000000.0,21.78,0.0,0.0,0.0,0.7468354152802541,0.46960458471974587,9.83943
5940000000.0,21.78,0.0,0.0,0.0,0.7530153692452537,0.46342463075474627,9.837075369245253
5945000000.0,21.78,0.0,0.0,0.0,0.7368292154744922,0.48069,9.818730784525508
5950000000.0,21.78,0.0,0.0,0.0,0.7465411155716112,0.4787277688567777,9.812943346714833
5955000000.0,21.78,0.0,0.0,0.0,0.75537,0.4628360313374603,9.83854698433127
5960000000.0,21.78,0.0,0.0,0.0,0.7530152527024525,0.47990508423415085,9.82962
5965000000.0,21.78,0.0,0.0,0.0,0.7273136317259363,0.47088,9.828933184137032
5970000000.0,21.78,0.0,0.0,0.0,0.74556,0.47088,9.819221284039914
5975000000.0,21.78,0.0,0.0,0.0,0.7460506160572061,0.47186123211441233,9.81147184817162
5980000000.0,21.78,0.0,0.0,0.0,0.75537,0.4905,9.84021503230865
5985000000.0,21.78,0.0,0.0,0.0,0.75537,0.48991116749711167,9.858166751245667
5990000000.0,21.78,0.0,0.0,0.0,0.7549773673028737,0.47088,9.829227367302874
5995000000.0,21.78,0.0,0.0,0.0,0.7358482164456822,0.47097821644568216,9.81
6000000000.0,21.78,0.0,0.0,0.0,0.7455602330856024,0.4806898834571988,9.810000349628403
6005000000.0,21.78,0.0,0.0,0.0,0.7649840332798404,0.47097798336007984,9.83913604991976
6010000000.0,21.78,0.0,0.0,0.0,0.7459521665259217,0.4804939167370392,9.82981608326296
6015000000.0,21.78,0.0,0.0,0.0,0.74556,0.48069,9.810588366331684
6020000000.0,21.78,0.0,0.0,0.0,0.7267245661374457,0.4712722830687229,9.819417716931278
6025000000.0,21.78,0.0,0.0,0.0,0.7538988510851885,0.49883885108518855,9.829129617028396
6030000000.0,21.78,0.0,0.0,0.0,0.75537,0.444980897246909,9.82962
6035000000.0,21.78,0.0,0.0,0.0,0.7644934172226342,0.4779436688905367,9.856990251667902
6040000000.0,21.78,0.0,0.0,0.0,0.7471293653604937,0.48971531731975315,9.822948730720988
6045000000.0,21.78,0.0,0.0,0.0,0.7366327825831278,0.48157278258312786,9.81981
6050000000.0,21.78,0.0,0.0,0.0,0.7445791175139912,0.48069,9.802151764972018
6055000000.0,21.78,0.0,0.0,0.0,0.7542910176111102,0.4632279647777796,9.83511407044444
6060000000.0,21.78,0.0,0.0,0.0,0.75537,0.4524370822917708,9.856695835416458
6065000000.0,21.78,0.0,0.0,0.0,0.75537,0.45126,9.824910728778608
6070000000.0,21.78,0.0,0.0,0.0,0.7384965641950656,0.4850068716098687,9.81981
6075000000.0,21.78,0.0,0.0,0.0,0.7190727640008276,0.46548414600124144,9.778116910002069
6080000000.0,21.78,0.0,0.0,0.0,0.7243705180967052,0.4775510361934104,9.82020310858023
6085000000.0,21.78,0.0,0.0,0.0,0.7503672545814726,0.47254758180617584,9.82962
6090000000.0,21.78,0.0,0.0,0.0,0.7473256817090568,0.47088,9.837664318290944
6095000000.0,21.78,0.0,0.0,0.0,0.7535062183880622,0.47088,9.823537563223876
6100000000.0,21.78,0.0,0.0,0.0,0.7396737630296376,0.4630318815148188,9.811961881514819
6105000000.0,21.78,0.0,0.0,0.0,0.73575,0.4688200185823002,9.81
6110000000.0,21.78,0.0,0.0,0.0,0.7434019186794192,0.4785319186794192,9.794696162641163
6115000000.0,21.78,0.0,0.0,0.0,0.7531138187765382,0.46558236244692364,9.820595275106154
6120000000.0,21.78,0.0,0.0,0.0,0.7702814377473144,0.48343715662097153,9.822164281126343
6125000000.0,21.78,0.0,0.0,0.0,0.7676323810292239,0.4757847620584476,9.827167618970776
6130000000.0,21.78,0.0,0.0,0.0,0.7651800000000001,0.47088,9.822360480932105
6135000000.0,21.78,0.0,0.0,0.0,0.7508571616699716,0.47088,9.805487161669973
6140000000.0,21.78,0.0,0.0,0.0,0.74556,0.47088,9.8213799577864
6145000000.0,21.78,0.0,0.0,0.0,0.7525252193592522,0.47088,9.815689561281497
6150000000.0,21.78,0.0,0.0,0.0,0.7416357610872576,0.4914813583691136,9.823734238912742
6155000000.0,21.78,0.0,0.0,0.0,0.7492880391069804,0.4867719608930196,9.84315803910698
6160000000.0,21.78,0.0,0.0,0.0,0.7486990803493908,0.4606772410481724,9.85591091965061
6165000000.0,21.78,0.0,0.0,0.0,0.7587056394954564,0.45126,9.839331540756815
6170000000.0,21.78,0.0,0.0,0.0,0.7522305603103057,0.4706841595345416,9.81019584046546
6175000000.0,21.78,0.0,0.0,0.0,0.7391833800580339,0.4743133800580338,9.80019
6180000000.0,21.78,0.0,0.0,0.0,0.7294714799609148,0.4646014799609148,9.81274704007817
6185000000.0,21.78,0.0,0.0,0.0,0.7444812604086126,0.4548895798637958,9.825990420136204
6190000000.0,21.78,0.0,0.0,0.0,0.7492876797666768,0.4755892809332928,9.841784640466647
6195000000.0,21.78,0.0,0.0,0.0,0.7395757796695578,0.47254733900867335,9.84924
6200000000.0,21.78,0.0,0.0,0.0,0.7416361204275612,0.4728422408551224,9.796264916151948
6205000000.0,21.78,0.0,0.0,0.0,0.7513480205246802,0.4749019794753198,9.789890102623401
6210000000.0,21.78,0.0,0.0,0.0,0.7496800793782008,0.48225984124359844,9.8213798412436
6215000000.0,21.78,0.0,0.0,0.0,0.7399681792810818,0.47372453784324536,9.818436358562163
6220000000.0,21.78,0.0,0.0,0.0,0.7467374416320745,0.46107,9.826481162448111
6225000000.0,21.78,0.0,0.0,0.0,0.7499743790868438,0.4718612418263124,9.834034379086845
6230000000.0,21.78,0.0,0.0,0.0,0.74556,0.4859875210102752,9.813727436969176
6235000000.0,21.78,0.0,0.0,0.0,0.7507594211073942,0.4749017366778174,9.81058884221479
6240000000.0,21.78,0.0,0.0,0.0,0.7349647151819472,0.4661713212045132,9.81981
6245000000.0,21.78,0.0,0.0,0.0,0.7411461065081612,0.47088,9.814806778698369
6250000000.0,21.78,0.0,0.0,0.0,0.7553697572024977,0.47578512139875123,9.814905121398752
6255000000.0,21.78,0.0,0.0,0.0,0.74556,0.47107595700825955,9.81500297850413
6260000000.0,21.78,0.0,0.0,0.0,0.7502689215929892,0.4657789215929892,9.828835686371956
6265000000.0,21.78,0.0,0.0,0.0,0.7461483566197835,0.4662691783098918,9.844629178309892
6270000000.0,21.78,0.0,0.0,0.0,0.73575,0.47460816536168166,9.83943
6275000000.0,21.78,0.0,0.0,0.0,0.7401646218843462,0.4905,9.835015378115655
6280000000.0,21.78,0.0,0.0,0.0,0.7412434780185347,0.4818669560370696,9.808037390092675
6285000000.0,21.78,0.0,0.0,0.0,0.73575,0.46666157792141577,9.793225266235753
6290000000.0,21.78,0.0,0.0,0.0,0.7481109665271097,0.47343096652710964,9.830601610878515
6295000000.0,21.78,0.0,0.0,0.0,0.7490911109087112,0.48647777772717776,9.85905
6300000000.0,21.78,0.0,0.0,0.0,0.7416364894797649,0.4846141223699412,9.839429388150293
6305000000.0,21.78,0.0,0.0,0.0,0.7613539775329399,0.4866739775329398,9.81
6310000000.0,21.78,0.0,0.0,0.0,0.7590979225641793,0.47323415487164155,9.81372792256418
6315000000.0,21.78,0.0,0.0,0.0,0.7579203546774036,0.46832964532259647,9.81981
6320000000.0,21.78,0.0,0.0,0.0,0.74556,0.48422172275841724,9.830405168275252
6325000000.0,21.78,0.0,0.0,0.0,0.7489936228555363,0.4905,9.842372754288927
6330000000.0,21.78,0.0,0.0,0.0,0.7486989540946896,0.4905,9.832955522952656
6335000000.0,21.78,0.0,0.0,0.0,0.7389874230497743,0.4775503078009031,9.829717730850678
6340000000.0,21.78,0.0,0.0,0.0,0.7424206768531068,0.4575386462937865,9.81941796944068
6345000000.0,21.78,0.0,0.0,0.0,0.73575,0.46479755351197555,9.830306330267964
6350000000.0,21.78,0.0,0.0,0.0,0.7416362466822625,0.4542031233411312,9.821772493364525
6355000000.0,21.78,0.0,0.0,0.0,0.75537,0.46676004687650047,9.84924
6360000000.0,21.78,0.0,0.0,0.0,0.75537,0.47519615292926154,9.843746152929262
6365000000.0,21.78,0.0,0.0,0.0,0.75537,0.46371882363248823,9.824322352735024
6370000000.0,21.78,0.0,0.0,0.0,0.75537,0.47343072372960726,9.802347828811179
6375000000.0,21.78,0.0,0.0,0.0,0.7504647523465475,0.48069,9.790380495306906
6380000000.0,21.78,0.0,0.0,0.0,0.7428135717715357,0.4736264282284643,9.81981
6385000000.0,21.78,0.0,0.0,0.0,0.7606671519580716,0.45577284804192847,9.828835696083857
6390000000.0,21.78,0.0,0.0,0.0,0.7434016758819167,0.47088,9.854733351763834
6395000000.0,21.78,0.0,0.0,0.0,0.7398704484304045,0.4688197757847978,9.831189103139192
6400000000.0,21.78,0.0,0.0,0.0,0.7573321243123212,0.4630321243123212,9.80019
6405000000.0,21.78,0.0,0.0,0.0,0.7651800000000001,0.47088,9.809510122047202
6410000000.0,21.78,0.0,0.0,0.0,0.7669459245065593,0.4726459245065593,9.854537773519677
6415000000.0,21.78,0.0,0.0,0.0,0.7666508769816088,0.48069,9.873666526188964
6420000000.0,21.78,0.0,0.0,0.0,0.7306491741023917,0.48225972470079725,9.844530825897609
6425000000.0,21.78,0.0,0.0,0.0,0.7524267504041675,0.48902837520208375,9.815395125606251
6430000000.0,21.78,0.0,0.0,0.0,0.7371235248950353,0.4793164751049648,9.794500574685106
6435000000.0,21.78,0.0,0.0,0.0,0.7430091500156915,0.47088,9.821085424992155
6440000000.0,21.78,0.0,0.0,0.0,0.7271173250892733,0.4720573250892733,9.831974650178546
6445000000.0,21.78,0.0,0.0,0.0,0.73575,0.48176922518639226,9.847081549627216
6450000000.0,21.78,0.0,0.0,0.0,0.7337877494329775,0.4905,9.826676624149467
6455000000.0,21.78,0.0,0.0,0.0,0.7187790761418908,0.48961697461936976,9.80195605076126
6460000000.0,21.78,0.0,0.0,0.0,0.7447750745222508,0.47990507452225073,9.822164776433247
6465000000.0,21.78,0.0,0.0,0.0,0.73575,0.47225365114973655,9.848553174425131
6470000000.0,21.78,0.0,0.0,0.0,0.7375161770159618,0.4893225486560255,9.840018725671987
6475000000.0,21.78,0.0,0.0,0.0,0.7646893742308938,0.47088,9.84678687115447
6480000000.0,21.78,0.0,0.0,0.0,0.75537,0.47088,9.80019
6485000000.0,21.78,0.0,0.0,0.0,0.7550755740366557,0.4714688519266885,9.800778851926689
6490000000.0,21.78,0.0,0.0,0.0,0.7457563260604633,0.4903036739395367,9.820398978181391
6495000000.0,21.78,0.0,0.0,0.0,0.75537,0.48059177384241775,9.84924
6500000000.0,21.78,0.0,0.0,0.0,0.7553698737452987,0.4708802525094025,9.849239494981195
6505000000.0,21.78,0.0,0.0,0.0,0.7456579736481798,0.4903040527036405,9.810391894592719
6510000000.0,21.78,0.0,0.0,0.0,0.74556,0.4616582206531822,9.81961392644894
6515000000.0,21.78,0.0,0.0,0.0,0.7170125203618253,0.4705858265460583,9.838841653092116
6520000000.0,21.78,0.0,0.0,0.0,0.7632186332158865,0.48029772664317727,9.83943
6525000000.0,21.78,0.0,0.0,0.0,0.7651800000000001,0.49000962674029624,9.858069253480592
6530000000.0,21.78,0.0,0.0,0.0,0.7190723658129237,0.4905,9.849828473162585
6535000000.0,21.78,0.0,0.0,0.0,0.7617471346726714,0.46312971919639717,9.812746292261863
6540000000.0,21.78,0.0,0.0,0.0,0.7561546729683467,0.4881459810949598,9.819025327031653
6545000000.0,21.78,0.0,0.0,0.0,0.7375155457424555,0.4726455457424555,9.81981
6550000000.0,21.78,0.0,0.0,0.0,0.73575,0.47088,9.828639127225891
6555000000.0,21.78,0.0,0.0,0.0,0.7270189726769898,0.45341794535397945,9.82088897267699
6560000000.0,21.78,0.0,0.0,0.0,0.7604717096805171,0.46852585484025855,9.83707585484026
6565000000.0,21.78,0.0,0.0,0.0,0.7481103449655034,0.44527551744825516,9.813825517448256
6570000000.0,21.78,0.0,0.0,0.0,0.7371232723856327,0.48363363807183635,9.826873455228736
6575000000.0,21.78,0.0,0.0,0.0,0.7274113722885137,0.47382274457702744,9.82962
6580000000.0,21.78,0.0,0.0,0.0,0.7506615834258158,0.46263947219139473,9.81313894438279
6585000000.0,21.78,0.0,0.0,0.0,0.75537,0.47735485581144854,9.82628485581145
6590000000.0,21.78,0.0,0.0,0.0,0.75537,0.47264567199715674,9.813531343994313
6595000000.0,21.78,0.0,0.0,0.0,0.75537,0.4629337719000377,9.825892456199925
6600000000.0,21.78,0.0,0.0,0.0,0.75537,0.4689181281970813,9.82177187180292
6605000000.0,21.78,0.0,0.0,0.0,0.7476199717057997,0.47088,9.81981
6610000000.0,21.78,0.0,0.0,0.0,0.7302561432173614,0.4632280716086807,9.812158071608682
6615000000.0,21.78,0.0,0.0,0.0,0.7486014854653148,0.48373148546531486,9.832661485465316
6620000000.0,21.78,0.0,0.0,0.0,0.7479142714144427,0.4830442714144427,9.831974271414444
6625000000.0,21.78,0.0,0.0,0.0,0.7602752573653526,0.48804762868267626,9.814904742634647
6630000000.0,21.78,0.0,0.0,0.0,0.7579204712202047,0.4832404712202047,9.79548094244041
6635000000.0,21.78,0.0,0.0,0.0,0.75537,0.4878514288769143,9.80470285775383
6640000000.0,21.78,0.0,0.0,0.0,0.7412433420519334,0.4834366710259667,9.838253315896134
6645000000.0,21.78,0.0,0.0,0.0,0.7427152290711523,0.47372477092884774,9.856205229071152
6650000000.0,21.78,0.0,0.0,0.0,0.7386928708317287,0.47088,9.831581483326914
6655000000.0,21.78,0.0,0.0,0.0,0.7222119414692194,0.48441805853078057,9.80627194146922
6660000000.0,21.78,0.0,0.0,0.0,0.71613,0.4771581412749814,9.806860929362509
6665000000.0,21.78,0.0,0.0,0.0,0.735848488378885,0.4774528294596283,9.836291317838514
6670000000.0,21.78,0.0,0.0,0.0,0.74556,0.47421527044325273,9.855714729556746
6675000000.0,21.78,0.0,0.0,0.0,0.7391833703461337,0.4836332593077326,9.833543481384535
6680000000.0,21.78,0.0,0.0,0.0,0.7420285297509853,0.4842214702490147,9.800974410747045
6685000000.0,21.78,0.0,0.0,0.0,0.7331991403037914,0.4930508596962086,9.796560429848105
6690000000.0,21.78,0.0,0.0,0.0,0.7502693197808933,0.4881453401095534,9.812354659890447
6695000000.0,21.78,0.0,0.0,0.0,0.7532115399153154,0.47470576995765773,9.84374692016937
6700000000.0,21.78,0.0,0.0,0.0,0.7514461301394613,0.4885383904183839,9.85905
6705000000.0,21.78,0.0,0.0,0.0,0.7264298488170985,0.4887339395268394,9.841685909290259
6710000000.0,21.78,0.0,0.0,0.0,0.7290797213347971,0.4750000696663007,9.812550208998903
6715000000.0,21.78,0.0,0.0,0.0,0.7567436608616367,0.47088,9.805781830430819
6720000000.0,21.78,0.0,0.0,0.0,0.7651800000000001,0.48186746105587464,9.820987461055875
6725000000.0,21.78,0.0,0.0,0.0,0.7597843693749438,0.4958956306250563,9.840411261250113
6730000000.0,21.78,0.0,0.0,0.0,0.7447749385556494,0.4897149385556494,9.843942469277824
6735000000.0,21.78,0.0,0.0,0.0,0.7305505691807057,0.4650917075421171,9.823831707542118
6740000000.0,21.78,0.0,0.0,0.0,0.7412439927492399,0.46146266183282664,9.81
6745000000.0,21.78,0.0,0.0,0.0,0.740360306959403,0.47088,9.820006462027065
6750000000.0,21.78,0.0,0.0,0.0,0.740655393331954,0.47578513111065135,9.824714868889348
6755000000.0,21.78,0.0,0.0,0.0,0.75537,0.48069,9.82461703120777
6760000000.0,21.78,0.0,0.0,0.0,0.7459521373902214,0.48069,9.820202137390222
6765000000.0,21.78,0.0,0.0,0.0,0.749582494206025,0.48069,9.814610831402009
6770000000.0,21.78,0.0,0.0,0.0,0.7606672685008727,0.4716645370017454,9.81981
6775000000.0,21.78,0.0,0.0,0.0,0.7465407368075073,0.46107,9.837468526384985
6780000000.0,21.78,0.0,0.0,0.0,0.7314334683066347,0.4697030633867306,9.837467341533173
6785000000.0,21.78,0.0,0.0,0.0,0.738595295371453,0.4722531364190314,9.822655295371453
6790000000.0,21.78,0.0,0.0,0.0,0.7594903318876034,0.46931066377520664,9.822948672449588
6795000000.0,21.78,0.0,0.0,0.0,0.7450688400763885,0.48069,9.804212231984723
6800000000.0,21.78,0.0,0.0,0.0,0.7318265283273653,0.48069,9.825696528327365
6805000000.0,21.78,0.0,0.0,0.0,0.75537,0.4768639678210397,9.85306603217896
6810000000.0,21.78,0.0,0.0,0.0,0.7590979322760794,0.47088,9.840410338619604
6815000000.0,21.78,0.0,0.0,0.0,0.7615501676268017,0.47088,9.802740335253604
6820000000.0,21.78,0.0,0.0,0.0,0.7412430701187307,0.46734826752968267,9.783316535059365
6825000000.0,21.78,0.0,0.0,0.0,0.726430897702309,0.4645036325674363,9.787928162837181
6830000000.0,21.78,0.0,0.0,0.0,0.7488955326645553,0.47421553266455535,9.829816597993666
6835000000.0,21.78,0.0,0.0,0.0,0.745657701714977,0.4774525672383257,9.852477432761674
6840000000.0,21.78,0.0,0.0,0.0,0.7290793328587933,0.4834373314351733,9.846492668564826
6845000000.0,21.78,0.0,0.0,0.0,0.7327087670440877,0.500996301132263,9.80764506817635
6850000000.0,21.78,0.0,0.0,0.0,0.7288831330530313,0.4748037338939373,9.789399399159095
6855000000.0,21.78,0.0,0.0,0.0,0.7414400663003007,0.469605099450451,9.821380132600602
6860000000.0,21.78,0.0,0.0,0.0,0.7608638664945386,0.47951226701092264,9.84649306675273
6865000000.0,21.78,0.0,0.0,0.0,0.7643946666224467,0.4539088333443883,9.834132333311224
6870000000.0,21.78,0.0,0.0,0.0,0.7434022003245221,0.46617146688301464,9.827462200324522
6875000000.0,21.78,0.0,0.0,0.0,0.7553694658454947,0.48069,9.839429465845495
6880000000.0,21.78,0.0,0.0,0.0,0.7353581345429814,0.47598093272850933,9.81
6885000000.0,21.78,0.0,0.0,0.0,0.7584106988014071,0.46558286746572863,9.821282168664322
6890000000.0,21.78,0.0,0.0,0.0,0.7379083338299833,0.4850066676599667,9.856891666170016
6895000000.0,21.78,0.0,0.0,0.0,0.74556,0.49824976607289767,9.845119532145794
6900000000.0,21.78,0.0,0.0,0.0,0.74556,0.4905,9.825695731951557
6905000000.0,21.78,0.0,0.0,0.0,0.7492880682426807,0.4867719317573193,9.81186403412134
6910000000.0,21.78,0.0,0.0,0.0,0.7651800000000001,0.4691140657815407,9.81804406578154
6915000000.0,21.78,0.0,0.0,0.0,0.7635121656844217,0.46273783431557836,9.811667834315578
6920000000.0,21.78,0.0,0.0,0.0,0.750660796761908,0.47558920323809206,9.821379734412698
6925000000.0,21.78,0.0,0.0,0.0,0.7303549035294491,0.50031,9.826676730980367
6930000000.0,21.78,0.0,0.0,0.0,0.7539964653930646,0.49756293078612934,9.808626465393065
6935000000.0,21.78,0.0,0.0,0.0,0.7468354347040543,0.48196543470405434,9.801465434704054
6940000000.0,21.78,0.0,0.0,0.0,0.7541926651988267,0.4857906607953066,9.812354669602348
6945000000.0,21.78,0.0,0.0,0.0,0.742322295305123,0.45233923489829236,9.827461530203415
6950000000.0,21.78,0.0,0.0,0.0,0.7200545399816455,0.46205113499541134,9.811962269990824
6955000000.0,21.78,0.0,0.0,0.0,0.75537,0.4691139298149393,9.82697089472241
6960000000.0,21.78,0.0,0.0,0.0,0.75537,0.45204493518964933,9.80254480556895
6965000000.0,21.78,0.0,0.0,0.0,0.7539963294264633,0.46038316471323165,9.82962
6970000000.0,21.78,0.0,0.0,0.0,0.7345725292322253,0.45302620615166206,9.82962
6975000000.0,21.78,0.0,0.0,0.0,0.7180925419240255,0.4797087290379873,9.830601270962013
6980000000.0,21.78,0.0,0.0,0.0,0.7549774644218746,0.4618550711562507,9.848454928843749
6985000000.0,21.78,0.0,0.0,0.0,0.7458544356752443,0.48069,9.829031128649511
6990000000.0,21.78,0.0,0.0,0.0,0.7555663357723633,0.4804936642276367,9.81117801463418
6995000000.0,21.78,0.0,0.0,0.0,0.7650817641305178,0.47078176413051764,9.868761764130518
7000000000.0,21.78,0.0,0.0,0.0,0.75537,0.4610704078998041,9.859049728066797
7005000000.0,21.78,0.0,0.0,0.0,0.75537,0.49020610819116106,9.839625927872559
7010000000.0,21.78,0.0,0.0,0.0,0.7649839361608395,0.4712721276783213,9.810588191517482
7015000000.0,21.78,0.0,0.0,0.0,0.7556641637420416,0.47088,9.81
7020000000.0,21.78,0.0,0.0,0.0,0.7647877363550775,0.47088,9.828835472710155
7025000000.0,21.78,0.0,0.0,0.0,0.7465407270956073,0.4615603635478036,9.857578909356588
7030000000.0,21.78,0.0,0.0,0.0,0.7363384634506847,0.4702915365493154,9.849828463450685
7035000000.0,21.78,0.0,0.0,0.0,0.7266265633535657,0.47088,9.840116563353567
7040000000.0,21.78,0.0,0.0,0.0,0.7349653367435534,0.47088,9.794303316282233
7045000000.0,21.78,0.0,0.0,0.0,0.7536044736813448,0.4798072368406724,9.79038
7050000000.0,21.78,0.0,0.0,0.0,0.7641991369377914,0.47186086306220865,9.808038273875583
7055000000.0,21.78,0.0,0.0,0.0,0.7651800000000001,0.47961103703491037,9.853655185174551
7060000000.0,21.78,0.0,0.0,0.0,0.7392811886039119,0.48069,9.833151188603912
7065000000.0,21.78,0.0,0.0,0.0,0.73575,0.48069,9.804015488312556
7070000000.0,21.78,0.0,0.0,0.0,0.7526234746525348,0.4891267373262674,9.80019
7075000000.0,21.78,0.0,0.0,0.0,0.7303540877298409,0.4988386374233864,9.833544549693546
7080000000.0,21.78,0.0,0.0,0.0,0.72594,0.45910731239747316,9.82294892495899
7085000000.0,21.78,0.0,0.0,0.0,0.7340824376176244,0.47568731285287313,9.81981
7090000000.0,21.78,0.0,0.0,0.0,0.7518386754294868,0.4887343377147434,9.803721324570514
7095000000.0,21.78,0.0,0.0,0.0,0.7633162378118624,0.4984462378118624,9.808136237811864
7100000000.0,21.78,0.0,0.0,0.0,0.7651800000000001,0.4767655862730559,9.81
7105000000.0,21.78,0.0,0.0,0.0,0.7574299619938997,0.4631299619938996,9.841000152024401
7110000000.0,21.78,0.0,0.0,0.0,0.7477180618967806,0.4687219381032194,9.826284185690342
7115000000.0,21.78,0.0,0.0,0.0,0.7228984853989849,0.47088,9.81981
7120000000.0,21.78,0.0,0.0,0.0,0.7310414765949148,0.4634242617025426,9.81981
7125000000.0,21.78,0.0,0.0,0.0,0.73575,0.4684276383945764,9.81981
7130000000.0,21.78,0.0,0.0,0.0,0.7575286154750862,0.47088,9.841588615475086
7135000000.0,21.78,0.0,0.0,0.0,0.7436956842335569,0.4852028771776288,9.813432807055928
7140000000.0,21.78,0.0,0.0,0.0,0.7145599839421998,0.5116900160578002,9.771936645256266
7145000000.0,21.78,0.0,0.0,0.0,0.7132852387830524,0.45724285095252853,9.767915238783052
7150000000.0,21.78,0.0,0.0,0.0,0.6749271667189717,0.4591085555206856,9.811962833281028
7155000000.0,21.78,-0.027193137122862046,0.07791833356285105,-0.005142369154766155,1.0295671437509715,0.3558063373860634,9.931155584659356
7160000000.0,21.78,-0.0147824253433242,0.13031013510004602,-0.004556645237737824,0.2161919560618195,0.2774262437023624,10.123530659637005
7165000000.0,21.78,-0.013192282853155593,0.2391300407670175,-0.008900601884528445,0.4054610779813108,0.33717123088681233,10.23202703502917
7170000000.0,21.78,0.0486846038188086,0.22400184413169802,-0.003981627896854337,-0.9639669491169696,0.6058706136713061,10.154328910970289
7175000000.0,21.78,0.0020812798498580365,0.1747489979045957,-0.007612419907159222,-1.4199884412251844,0.5027576221981762,9.128674177037741
7180000000.0,21.78,0.002773963419470969,0.12049721511448208,-0.0028530674996290854,-1.4479615785154158,0.38259,9.7209500243936
7185000000.0,21.78,0.009577259611802193,-0.07364971700846956,0.0034707920426007514,-2.009489890080299,0.5618227472401276,9.94164098903971
7190000000.0,21.78,-0.017577939125716157,-0.12765898234900758,0.007559096773299839,-0.8147855012617551,0.6184212827430129,9.86023083108521
7195000000.0,21.78,0.0047955273744883335,-0.31132925935348543,0.010880761957028064,-0.7092811680515119,0.5646630409830304,10.32817286476303
7200000000.0,21.78,0.010227264903970705,-0.3939370201528661,0.008517130861419381,0.9006080667873806,0.5199293007431931,9.199785554484155
7205000000.0,21.78,0.005653432673958401,-0.3709420960681995,0.011413178550262242,1.6223612860793128,1.6926462293869624,9.614911148202014
7210000000.0,21.78,0.020089696449940547,-0.3637946528045701,0.0118175483715402,3.9927400227997003,1.0531654682353546,10.222993297492033
7215000000.0,21.78,-0.049423374056738925,-0.060537104650496,0.004120061881638592,3.8831360246252604,-0.17756520428155204,9.672063271722333
7220000000.0,21.78,-0.07955767466052865,0.09894116212512175,-0.0005962196923039936,2.9387012702195126,-0.16127275376422753,9.097785585609756
7225000000.0,21.78,-0.030570486081887796,0.1589412122176867,0.0001064955450972441,2.705577791478278,-0.09221512269565123,9.043844332804342
7230000000.0,21.78,0.0162140662279995,0.2534722407718162,-0.004109689424871417,1.2805764753227646,0.2009175069126751,9.963840741638707
7235000000.0,21.78,0.0513964882829743,0.2718456792238899,-0.011338607742795551,0.5770233568128336,0.7458614670909147,10.490222308313722
7240000000.0,21.78,0.06502122460946337,0.263967948573929,-0.014394094669030508,-0.24644913801689128,0.955493296858433,10.526526196964463
7245000000.0,21.78,0.05137370298981399,0.1852237988048013,-0.011647188595121082,-0.9509805556474056,1.0019953701560538,9.698041021442412
7250000000.0,21.78,-0.009059589195958902,0.13155432991663968,-0.006387843930047142,-1.0104325348059253,0.9908077468391775,9.216507533207077
7255000000.0,21.78,-0.04860617340293629,0.03247665978369113,-8.50497186728593e-05,-1.242931227590112,0.7729258133295581,9.460758363213184
7260000000.0,21.78,-0.07478207078461416,-0.07921082828410074,0.007835937338755393,-1.0068868366232684,0.4818628284795283,9.524340696940207
7265000000.0,21.78,-0.09326305192646334,-0.14818009634151846,0.013720967424346326,-0.487161495494015,0.22690233660792336,10.234197382479573
7270000000.0,21.78,-0.05830538992237215,-0.2656715590380088,0.013530413615811697,0.11910879200198798,0.11320725878897259,10.455293750971437
7275000000.0,21.78,-0.03232934569134202,-0.297789193286826,0.011604724868036712,1.0717545111924451,0.09025143476741435,10.056227891220779
7280000000.0,21.78,-0.013466668677047237,-0.27986234879583166,0.0099650398193671,1.8454675225843753,0.25859782183167823,9.62673901882089
7285000000.0,21.78,-0.003502747346357327,-0.21707173777368957,0.004556644183733459,2.938314406391044,0.32313545689985457,9.539156229674063
7290000000.0,21.78,-0.009347772714281454,-0.0228977035704674,-0.0010008793647771283,3.377370374457604,0.10477136639801365,9.955580683199008
7295000000.0,21.78,-0.004428578439699038,0.15411565691597884,-0.006196298666277042,2.713347758303378,0.224063800718938,9.7336699815959
7300000000.0,21.78,0.018745128799494505,0.2496987528151215,-0.006174928728165514,1.899186790489268,0.5434805225121053,9.684442350943124
7305000000.0,21.78,0.03545984926888196,0.2782290491646705,-0.005919520287077888,0.357660397386004,0.8371862513451626,10.091153748654838
