#timestamp [ns], temperature [degC], w_RS_S_x [rad s^-1], w_RS_S_y [rad s^-1], w_RS_S_z [rad s^-1], a_RS_S_x [m s^-2], a_RS_S_y [m s^-2], a_RS_S_z [m s^-2]
0,21.9,0.0,0.0,0.0,0.35316,0.28449,9.86886
5050505,21.9,0.0,0.0,0.0,0.32373,0.23544,9.86886
10101010,21.9,0.0,0.0,0.0,0.31392000000000003,0.23544,9.888480000000001
15151515,21.9,0.0,0.0,0.0,0.30411,0.21582,9.89829
20202020,21.9,0.0,0.0,0.0,0.2943,0.22563,9.84924
25252525,21.9,0.0,0.0,0.0,0.36297,0.23544,9.83943
30303030,21.9,0.0,0.0,0.0,0.36297,0.27468000000000004,9.86886
35353535,21.9,0.0,0.0,0.0,0.34335000000000004,0.27468000000000004,9.83943
40404040,21.9,0.0,0.0,0.0,0.32373,0.24525000000000002,9.86886
45454545,21.9,0.0,0.0,0.0,0.32373,0.18639,9.86886
50505050,21.9,0.0,0.0,0.0,0.32373,0.22563,9.84924
55555555,21.9,0.0,0.0,0.0,0.35316,0.23544,9.87867
60606060,21.9,0.0,0.0,0.0,0.34335000000000004,0.27468000000000004,9.86886
65656565,21.9,0.0,0.0,0.0,0.33354000000000006,0.30411,9.84924
70707070,21.9,0.0,0.0,0.0,0.31392000000000003,0.24525000000000002,9.84924
75757575,21.9,0.0,0.0,0.0,0.34335000000000004,0.24525000000000002,9.84924
80808080,21.9,0.0,0.0,0.0,0.36297,0.20601000000000003,9.86886
85858585,21.9,0.0,0.0,0.0,0.33354000000000006,0.22563,9.83943
90909090,21.9,0.0,0.0,0.0,0.33354000000000006,0.24525000000000002,9.84924
95959595,21.9,0.0,0.0,0.0,0.34335000000000004,0.27468000000000004,9.84924
101010100,21.9,0.0,0.0,0.0,0.34335000000000004,0.25506,9.83943
106060605,21.9,0.0,0.0,0.0,0.32373,0.27468000000000004,9.85905
111111110,21.9,0.0,0.0,0.0,0.33354000000000006,0.23544,9.85905
116161615,21.9,0.0,0.0,0.0,0.2943,0.23544,9.87867
121212120,21.9,0.0,0.0,0.0,0.31392000000000003,0.22563,9.86886
126262625,21.9,0.0,0.0,0.0,0.35316,0.24525000000000002,9.888480000000001
131313130,21.9,0.0,0.0,0.0,0.34335000000000004,0.26487,9.87867
136363635,21.9,0.0,0.0,0.0,0.33354000000000006,0.27468000000000004,9.86886
141414140,21.9,0.0,0.0,0.0,0.33354000000000006,0.25506,9.86886
146464645,21.9,0.0,0.0,0.0,0.2943,0.20601000000000003,9.85905
151515150,21.9,0.0,0.0,0.0,0.31392000000000003,0.22563,9.86886
156565655,21.9,0.0,0.0,0.0,0.31392000000000003,0.26487,9.86886
161616160,21.9,0.0,0.0,0.0,0.35316,0.27468000000000004,9.86886
166666665,21.9,0.0,0.0,0.0,0.36297,0.30411,9.82962
171717170,21.9,0.0,0.0,0.0,0.34335000000000004,0.24525000000000002,9.82962
176767675,21.9,0.0,0.0,0.0,0.2943,0.21582,9.85905
181818180,21.9,0.0,0.0,0.0,0.35316,0.21582,9.888480000000001
186868685,21.9,0.0,0.0,0.0,0.34335000000000004,0.24525000000000002,9.84924
191919190,21.9,0.0,0.0,0.0,0.32373,0.28449,9.87867
196969695,21.9,0.0,0.0,0.0,0.32373,0.26487,9.86886
202020200,21.9,0.0,0.0,0.0,0.31392000000000003,0.26487,9.83943
207070705,21.9,0.0,0.0,0.0,0.32373,0.24525000000000002,9.85905
212121210,21.9,0.0,0.0,0.0,0.32373,0.20601000000000003,9.85905
217171715,21.9,0.0,0.0,0.0,0.31392000000000003,0.21582,9.888480000000001
222222220,21.9,0.0,0.0,0.0,0.34335000000000004,0.25506,9.86886
227272725,21.9,0.0,0.0,0.0,0.37278,0.2943,9.89829
232323230,21.9,0.0,0.0,0.0,0.38259000000000004,0.2943,9.85905
237373735,21.9,0.0,0.0,0.0,0.32373,0.23544,9.85905
242424240,21.9,0.0,0.0,0.0,0.30411,0.21582,9.84924
247474745,21.9,0.0,0.0,0.0,0.28449,0.21582,9.86886
252525250,21.9,0.0,0.0,0.0,0.31392000000000003,0.24525000000000002,9.89829
257575755,21.9,0.0,0.0,0.0,0.35316,0.27468000000000004,9.86886
262626260,21.9,0.0,0.0,0.0,0.37278,0.27468000000000004,9.89829
267676765,21.9,0.0,0.0,0.0,0.33354000000000006,0.27468000000000004,9.85905
272727270,21.9,0.0,0.0,0.0,0.31392000000000003,0.23544,9.888480000000001
277777775,21.9,0.0,0.0,0.0,0.30411,0.23544,9.82962
282828280,21.9,0.0,0.0,0.0,0.32373,0.23544,9.84924
287878785,21.9,0.0,0.0,0.0,0.33354000000000006,0.24525000000000002,9.86886
292929290,21.9,0.0,0.0,0.0,0.34335000000000004,0.27468000000000004,9.86886
297979795,21.9,0.0,0.0,0.0,0.31392000000000003,0.28449,9.84924
303030300,21.9,0.0,0.0,0.0,0.33354000000000006,0.28449,9.86886
308080805,21.9,0.0,0.0,0.0,0.33354000000000006,0.26487,9.888480000000001
313131310,21.9,0.0,0.0,0.0,0.33354000000000006,0.20601000000000003,9.85905
318181815,21.9,0.0,0.0,0.0,0.35316,0.23544,9.87867
323232320,21.9,0.0,0.0,0.0,0.35316,0.26487,9.85905
328282825,21.9,0.0,0.0,0.0,0.35316,0.30411,9.87867
333333330,21.9,0.0,0.0,0.0,0.33354000000000006,0.27468000000000004,9.85905
338383835,21.9,0.0,0.0,0.0,0.31392000000000003,0.21582,9.84924
343434340,21.9,0.0,0.0,0.0,0.32373,0.22563,9.87867
348484845,21.9,0.0,0.0,0.0,0.31392000000000003,0.20601000000000003,9.85905
353535350,21.9,0.0,0.0,0.0,0.30411,0.26487,9.87867
358585855,21.9,0.0,0.0,0.0,0.35316,0.26487,9.86886
363636360,21.9,0.0,0.0,0.0,0.36297,0.27468000000000004,9.86886
368686865,21.9,0.0,0.0,0.0,0.36297,0.23544,9.87867
373737370,21.9,0.0,0.0,0.0,0.34335000000000004,0.25506,9.84924
378787875,21.9,0.0,0.0,0.0,0.31392000000000003,0.21582,9.84924
383838380,21.9,0.0,0.0,0.0,0.32373,0.22563,9.84924
388888885,21.9,0.0,0.0,0.0,0.33354000000000006,0.27468000000000004,9.908100000000001
393939390,21.9,0.0,0.0,0.0,0.37278,0.27468000000000004,9.85905
398989895,21.9,0.0,0.0,0.0,0.33354000000000006,0.26487,9.85905
404040400,21.9,0.0,0.0,0.0,0.35316,0.25506,9.87867
409090905,21.9,0.0,0.0,0.0,0.33354000000000006,0.24525000000000002,9.87867
414141410,21.9,0.0,0.0,0.0,0.34335000000000004,0.23544,9.86886
419191915,21.9,0.0,0.0,0.0,0.35316,0.23544,9.888480000000001
424242420,21.9,0.0,0.0,0.0,0.34335000000000004,0.27468000000000004,9.87867
429292925,21.9,0.0,0.0,0.0,0.35316,0.27468000000000004,9.87867
434343430,21.9,0.0,0.0,0.0,0.33354000000000006,0.23544,9.87867
439393935,21.9,0.0,0.0,0.0,0.35316,0.22563,9.85905
444444440,21.9,0.0,0.0,0.0,0.30411,0.23544,9.888480000000001
449494945,21.9,0.0,0.0,0.0,0.30411,0.26487,9.87867
454545450,21.9,0.0,0.0,0.0,0.34335000000000004,0.24525000000000002,9.86886
459595955,21.9,0.0,0.0,0.0,0.33354000000000006,0.26487,9.84924
464646460,21.9,0.0,0.0,0.0,0.33354000000000006,0.24525000000000002,9.83943
469696965,21.9,0.0,0.0,0.0,0.35316,0.25506,9.85905
474747470,21.9,0.0,0.0,0.0,0.34335000000000004,0.28449,9.87867
479797975,21.9,0.0,0.0,0.0,0.31392000000000003,0.26487,9.87867
484848480,21.9,0.0,0.0,0.0,0.32373,0.26487,9.888480000000001
489898985,21.9,0.0,0.0,0.0,0.31392000000000003,0.25506,9.85905
494949490,21.9,0.0,0.0,0.0,0.2943,0.24525000000000002,9.87867
499999995,21.9,0.0,0.0,0.0,0.31392000000000003,0.26487,9.84924
505050500,21.9,0.0,0.0,0.0,0.34335000000000004,0.23544,9.86886
510101005,21.9,0.0,0.0,0.0,0.34335000000000004,0.24525000000000002,9.888480000000001
515151510,21.9,0.0,0.0,0.0,0.34335000000000004,0.24525000000000002,9.85905
520202015,21.9,0.0,0.0,0.0,0.33354000000000006,0.23544,9.86886
525252520,21.9,0.0,0.0,0.0,0.36297,0.26487,9.86886
530303025,21.9,0.0,0.0,0.0,0.34335000000000004,0.25506,9.86886
535353530,21.9,0.0,0.0,0.0,0.31392000000000003,0.27468000000000004,9.82962
540404035,21.9,0.0,0.0,0.0,0.31392000000000003,0.20601000000000003,9.888480000000001
545454540,21.9,0.0,0.0,0.0,0.32373,0.23544,9.84924
550505045,21.9,0.0,0.0,0.0,0.2943,0.23544,9.85905
555555550,21.9,0.0,0.0,0.0,0.35316,0.24525000000000002,9.87867
560606055,21.9,0.0,0.0,0.0,0.34335000000000004,0.25506,9.85905
565656560,21.9,0.0,0.0,0.0,0.35316,0.22563,9.87867
570707065,21.9,0.0,0.0,0.0,0.33354000000000006,0.23544,9.86886
575757570,21.9,0.0,0.0,0.0,0.2943,0.24525000000000002,9.87867
580808075,21.9,0.0,0.0,0.0,0.31392000000000003,0.24525000000000002,9.86886
585858580,21.9,0.0,0.0,0.0,0.33354000000000006,0.24525000000000002,9.86886
590909085,21.9,0.0,0.0,0.0,0.32373,0.26487,9.85905
595959590,21.9,0.0,0.0,0.0,0.34335000000000004,0.23544,9.89829
601010095,21.9,0.0,0.0,0.0,0.33354000000000006,0.24525000000000002,9.87867
606060600,21.9,0.0,0.0,0.0,0.30411,0.27468000000000004,9.85905
611111105,21.9,0.0,0.0,0.0,0.32373,0.23544,9.86886
616161610,21.9,0.0,0.0,0.0,0.31392000000000003,0.24525000000000002,9.86886
621212115,21.9,0.0,0.0,0.0,0.32373,0.25506,9.85905
626262620,21.9,0.0,0.0,0.0,0.30411,0.26487,9.87867
631313125,21.9,0.0,0.0,0.0,0.30411,0.25506,9.86886
636363630,21.9,0.0,0.0,0.0,0.33354000000000006,0.27468000000000004,9.87867
641414135,21.9,0.0,0.0,0.0,0.36297,0.26487,9.86886
646464640,21.9,0.0,0.0,0.0,0.33354000000000006,0.25506,9.888480000000001
651515145,21.9,0.0,0.0,0.0,0.31392000000000003,0.25506,9.87867
656565650,21.9,0.0,0.0,0.0,0.31392000000000003,0.24525000000000002,9.888480000000001
661616155,21.9,0.0,0.0,0.0,0.33354000000000006,0.26487,9.85905
666666660,21.9,0.0,0.0,0.0,0.36297,0.22563,9.85905
671717165,21.9,0.0,0.0,0.0,0.36297,0.25506,9.84924
676767670,21.9,0.0,0.0,0.0,0.33354000000000006,0.25506,9.87867
681818175,21.9,0.0,0.0,0.0,0.30411,0.22563,9.908100000000001
686868680,21.9,0.0,0.0,0.0,0.31392000000000003,0.23544,9.85905
691919185,21.9,0.0,0.0,0.0,0.36297,0.23544,9.89829
696969690,21.9,0.0,0.0,0.0,0.33354000000000006,0.24525000000000002,9.83943
702020195,21.9,0.0,0.0,0.0,0.32373,0.27468000000000004,9.86886
707070700,21.9,0.0,0.0,0.0,0.32373,0.24525000000000002,9.86886
712121205,21.9,0.0,0.0,0.0,0.35316,0.23544,9.86886
717171710,21.9,0.0,0.0,0.0,0.30411,0.24525000000000002,9.86886
722222215,21.9,0.0,0.0,0.0,0.31392000000000003,0.22563,9.86886
727272720,21.9,0.0,0.0,0.0,0.34335000000000004,0.25506,9.888480000000001
732323225,21.9,0.0,0.0,0.0,0.32373,0.27468000000000004,9.888480000000001
737373730,21.9,0.0,0.0,0.0,0.34335000000000004,0.26487,9.85905
742424235,21.9,0.0,0.0,0.0,0.36297,0.24525000000000002,9.86886
747474740,21.9,0.0,0.0,0.0,0.32373,0.23544,9.85905
752525245,21.9,0.0,0.0,0.0,0.34335000000000004,0.22563,9.888480000000001
757575750,21.9,0.0,0.0,0.0,0.32373,0.24525000000000002,9.84924
762626255,21.9,0.0,0.0,0.0,0.33354000000000006,0.24525000000000002,9.888480000000001
767676760,21.9,0.0,0.0,0.0,0.35316,0.26487,9.85905
772727265,21.9,0.0,0.0,0.0,0.31392000000000003,0.30411,9.87867
777777770,21.9,0.0,0.0,0.0,0.30411,0.26487,9.87867
782828275,21.9,0.0,0.0,0.0,0.31392000000000003,0.23544,9.888480000000001
787878780,21.9,0.0,0.0,0.0,0.36297,0.21582,9.84924
792929285,21.9,0.0,0.0,0.0,0.36297,0.22563,9.86886
797979790,21.9,0.0,0.0,0.0,0.35316,0.20601000000000003,9.87867
803030295,21.9,0.0,0.0,0.0,0.33354000000000006,0.27468000000000004,9.84924
808080800,21.9,0.0,0.0,0.0,0.31392000000000003,0.28449,9.908100000000001
813131305,21.9,0.0,0.0,0.0,0.2943,0.25506,9.87867
818181810,21.9,0.0,0.0,0.0,0.28449,0.22563,9.84924
823232315,21.9,0.0,0.0,0.0,0.28449,0.21582,9.85905
828282820,21.9,0.0,0.0,0.0,0.32373,0.23544,9.888480000000001
833333325,21.9,0.0,0.0,0.0,0.33354000000000006,0.28449,9.86886
838383830,21.9,0.0,0.0,0.0,0.33354000000000006,0.26487,9.85905
843434335,21.9,0.0,0.0,0.0,0.32373,0.24525000000000002,9.85905
848484840,21.9,0.0,0.0,0.0,0.34335000000000004,0.24525000000000002,9.87867
853535345,21.9,0.0,0.0,0.0,0.32373,0.22563,9.85905
858585850,21.9,0.0,0.0,0.0,0.31392000000000003,0.23544,9.85905
863636355,21.9,0.0,0.0,0.0,0.32373,0.26487,9.85905
868686860,21.9,0.0,0.0,0.0,0.35316,0.27468000000000004,9.888480000000001
873737365,21.9,0.0,0.0,0.0,0.31392000000000003,0.28449,9.85905
878787870,21.9,0.0,0.0,0.0,0.32373,0.24525000000000002,9.84924
883838375,21.9,0.0,0.0,0.0,0.34335000000000004,0.22563,9.86886
888888880,21.9,0.0,0.0,0.0,0.32373,0.22563,9.85905
893939385,21.9,0.0,0.0,0.0,0.34335000000000004,0.21582,9.888480000000001
898989890,21.9,0.0,0.0,0.0,0.31392000000000003,0.26487,9.85905
904040395,21.9,0.0,0.0,0.0,0.2943,0.27468000000000004,9.85905
909090900,21.9,0.0,0.0,0.0,0.35316,0.27468000000000004,9.85905
914141405,21.9,0.0,0.0,0.0,0.32373,0.23544,9.86886
919191910,21.9,0.0,0.0,0.0,0.31392000000000003,0.22563,9.87867
924242415,21.9,0.0,0.0,0.0,0.30411,0.22563,9.89829
929292920,21.9,0.0,0.0,0.0,0.33354000000000006,0.25506,9.87867
934343425,21.9,0.0,0.0,0.0,0.33354000000000006,0.28449,9.87867
939393930,21.9,0.0,0.0,0.0,0.33354000000000006,0.27468000000000004,9.85905
944444435,21.9,0.0,0.0,0.0,0.34335000000000004,0.24525000000000002,9.84924
949494940,21.9,0.0,0.0,0.0,0.31392000000000003,0.20601000000000003,9.85905
954545445,21.9,0.0,0.0,0.0,0.31392000000000003,0.25506,9.86886
959595950,21.9,0.0,0.0,0.0,0.32373,0.26487,9.86886
964646455,21.9,0.0,0.0,0.0,0.35316,0.28449,9.89829
969696960,21.9,0.0,0.0,0.0,0.33354000000000006,0.27468000000000004,9.86886
974747465,21.9,0.0,0.0,0.0,0.33354000000000006,0.24525000000000002,9.84924
979797970,21.9,0.0,0.0,0.0,0.33354000000000006,0.23544,9.87867
984848475,21.9,0.0,0.0,0.0,0.33354000000000006,0.23544,9.85905
989898980,21.9,0.0,0.0,0.0,0.33354000000000006,0.24525000000000002,9.83943
994949485,21.9,0.0,0.0,0.0,0.31392000000000003,0.23544,9.84924
999999990,21.9,0.0,0.0,0.0,0.32373,0.24525000000000002,9.86886
1005050495,21.9,0.0,0.0,0.0,0.34335000000000004,0.25506,9.85905
1010101000,21.9,0.0,0.0,0.0,0.34335000000000004,0.21582,9.86886
1015151505,21.9,0.0,0.0,0.0,0.30411,0.24525000000000002,9.85905
1020202010,21.9,0.0,0.0,0.0,0.2943,0.22563,9.87867
1025252515,21.9,0.0,0.0,0.0,0.32373,0.25506,9.85905
1030303020,21.9,0.0,0.0,0.0,0.31392000000000003,0.24525000000000002,9.86886
1035353525,21.9,0.0,0.0,0.0,0.35316,0.27468000000000004,9.86886
1040404030,21.9,0.0,0.0,0.0,0.35316,0.22563,9.888480000000001
1045454535,21.9,0.0,0.0,0.0,0.30411,0.21582,9.82962
1050505040,21.9,0.0,0.0,0.0,0.31392000000000003,0.24525000000000002,9.85905
1055555545,21.9,0.0,0.0,0.0,0.30411,0.24525000000000002,9.84924
1060606050,21.9,0.0,0.0,0.0,0.33354000000000006,0.26487,9.86886
1065656555,21.9,0.0,0.0,0.0,0.33354000000000006,0.26487,9.86886
1070707060,21.9,0.0,0.0,0.0,0.32373,0.25506,9.85905
1075757565,21.9,0.0,0.0,0.0,0.33354000000000006,0.24525000000000002,9.84924
1080808070,21.9,0.0,0.0,0.0,0.33354000000000006,0.23544,9.86886
1085858575,21.9,0.0,0.0,0.0,0.33354000000000006,0.24525000000000002,9.85905
1090909080,21.9,0.0,0.0,0.0,0.31392000000000003,0.2943,9.85905
1095959585,21.9,0.0,0.0,0.0,0.33354000000000006,0.28449,9.87867
1101010090,21.9,0.0,0.0,0.0,0.30411,0.27468000000000004,9.84924
1106060595,21.9,0.0,0.0,0.0,0.32373,0.25506,9.85905
1111111100,21.9,0.0,0.0,0.0,0.32373,0.23544,9.84924
1116161605,21.9,0.0,0.0,0.0,0.34335000000000004,0.21582,9.87867
1121212110,21.9,0.0,0.0,0.0,0.34335000000000004,0.23544,9.87867
1126262615,21.9,0.0,0.0,0.0,0.34335000000000004,0.25506,9.86886
1131313120,21.9,0.0,0.0,0.0,0.33354000000000006,0.26487,9.87867
1136363625,21.9,0.0,0.0,0.0,0.35316,0.28449,9.86886
1141414130,21.9,0.0,0.0,0.0,0.31392000000000003,0.26487,9.888480000000001
1146464635,21.9,0.0,0.0,0.0,0.30411,0.24525000000000002,9.84924
1151515140,21.9,0.0,0.0,0.0,0.31392000000000003,0.20601000000000003,9.87867
1156565645,21.9,0.0,0.0,0.0,0.32373,0.20601000000000003,9.888480000000001
1161616150,21.9,0.0,0.0,0.0,0.34335000000000004,0.25506,9.83943
1166666655,21.9,0.0,0.0,0.0,0.35316,0.26487,9.89829
1171717160,21.9,0.0,0.0,0.0,0.34335000000000004,0.24525000000000002,9.86886
1176767665,21.9,0.0,0.0,0.0,0.35316,0.25506,9.87867
1181818170,21.9,0.0,0.0,0.0,0.2943,0.22563,9.86886
1186868675,21.9,0.0,0.0,0.0,0.32373,0.24525000000000002,9.83943
1191919180,21.9,0.0,0.0,0.0,0.33354000000000006,0.23544,9.85905
1196969685,21.9,0.0,0.0,0.0,0.35316,0.26487,9.84924
1202020190,21.9,0.0,0.0,0.0,0.32373,0.22563,9.85905
1207070695,21.9,0.0,0.0,0.0,0.35316,0.23544,9.86886
1212121200,21.9,0.0,0.0,0.0,0.34335000000000004,0.24525000000000002,9.86886
1217171705,21.9,0.0,0.0,0.0,0.33354000000000006,0.25506,9.86886
1222222210,21.9,0.0,0.0,0.0,0.33354000000000006,0.27468000000000004,9.888480000000001
1227272715,21.9,0.0,0.0,0.0,0.34335000000000004,0.26487,9.85905
1232323220,21.9,0.0,0.0,0.0,0.34335000000000004,0.27468000000000004,9.84924
1237373725,21.9,0.0,0.0,0.0,0.33354000000000006,0.23544,9.85905
1242424230,21.9,0.0,0.0,0.0,0.33354000000000006,0.24525000000000002,9.888480000000001
1247474735,21.9,0.0,0.0,0.0,0.36297,0.21582,9.84924
1252525240,21.9,0.0,0.0,0.0,0.33354000000000006,0.24525000000000002,9.89829
1257575745,21.9,0.0,0.0,0.0,0.32373,0.25506,9.86886
1262626250,21.9,0.0,0.0,0.0,0.34335000000000004,0.26487,9.83943
1267676755,21.9,0.0,0.0,0.0,0.32373,0.24525000000000002,9.84924
1272727260,21.9,0.0,0.0,0.0,0.35316,0.24525000000000002,9.87867
1277777765,21.9,0.0,0.0,0.0,0.31392000000000003,0.21582,9.84924
1282828270,21.9,0.0,0.0,0.0,0.35316,0.26487,9.86886
1287878775,21.9,0.0,0.0,0.0,0.32373,0.28449,9.85905
1292929280,21.9,0.0,0.0,0.0,0.31392000000000003,0.24525000000000002,9.888480000000001
1297979785,21.9,0.0,0.0,0.0,0.31392000000000003,0.26487,9.85905
1303030290,21.9,0.0,0.0,0.0,0.32373,0.25506,9.86886
1308080795,21.9,0.0,0.0,0.0,0.34335000000000004,0.25506,9.86886
1313131300,21.9,0.0,0.0,0.0,0.35316,0.26487,9.86886
1318181805,21.9,0.0,0.0,0.0,0.35316,0.23544,9.85905
1323232310,21.9,0.0,0.0,0.0,0.32373,0.26487,9.85905
1328282815,21.9,0.0,0.0,0.0,0.28449,0.22563,9.86886
1333333320,21.9,0.0,0.0,0.0,0.32373,0.22563,9.85905
1338383825,21.9,0.0,0.0,0.0,0.32373,0.24525000000000002,9.87867
1343434330,21.9,0.0,0.0,0.0,0.33354000000000006,0.28449,9.888480000000001
1348484835,21.9,0.0,0.0,0.0,0.34335000000000004,0.24525000000000002,9.86886
1353535340,21.9,0.0,0.0,0.0,0.32373,0.23544,9.87867
1358585845,21.9,0.0,0.0,0.0,0.33354000000000006,0.23544,9.83943
1363636350,21.9,0.0,0.0,0.0,0.34335000000000004,0.23544,9.819809999999999
1368686855,21.9,0.0,0.0,0.0,0.31392000000000003,0.24525000000000002,9.87867
1373737360,21.9,0.0,0.0,0.0,0.34335000000000004,0.25506,9.85905
1378787865,21.9,0.0,0.0,0.0,0.34335000000000004,0.2943,9.85905
1383838370,21.9,0.0,0.0,0.0,0.31392000000000003,0.24525000000000002,9.888480000000001
1388888875,21.9,0.0,0.0,0.0,0.2943,0.22563,9.85905
1393939380,21.9,0.0,0.0,0.0,0.33354000000000006,0.23544,9.86886
1398989885,21.9,0.0,0.0,0.0,0.34335000000000004,0.24525000000000002,9.83943
1404040390,21.9,0.0,0.0,0.0,0.34335000000000004,0.23544,9.84924
1409090895,21.9,0.0,0.0,0.0,0.32373,0.24525000000000002,9.84924
1414141400,21.9,0.0,0.0,0.0,0.32373,0.26487,9.87867
1419191905,21.9,0.0,0.0,0.0,0.32373,0.27468000000000004,9.87867
1424242410,21.9,0.0,0.0,0.0,0.2943,0.21582,9.87867
1429292915,21.9,0.0,0.0,0.0,0.31392000000000003,0.24525000000000002,9.87867
1434343420,21.9,0.0,0.0,0.0,0.32373,0.24525000000000002,9.85905
1439393925,21.9,0.0,0.0,0.0,0.36297,0.24525000000000002,9.86886
1444444430,21.9,0.0,0.0,0.0,0.32373,0.24525000000000002,9.85905
1449494935,21.9,0.0,0.0,0.0,0.31392000000000003,0.24525000000000002,9.85905
1454545440,21.9,0.0,0.0,0.0,0.35316,0.23544,9.87867
1459595945,21.9,0.0,0.0,0.0,0.32373,0.23544,9.85905
1464646450,21.9,0.0,0.0,0.0,0.35316,0.26487,9.85905
1469696955,21.9,0.0,0.0,0.0,0.33354000000000006,0.22563,9.84924
1474747460,21.9,0.0,0.0,0.0,0.33354000000000006,0.2943,9.86886
1479797965,21.9,0.0,0.0,0.0,0.32373,0.28449,9.85905
1484848470,21.9,0.0,0.0,0.0,0.32373,0.23544,9.87867
1489898975,21.9,0.0,0.0,0.0,0.30411,0.20601000000000003,9.888480000000001
1494949480,21.9,0.0,0.0,0.0,0.35316,0.23544,9.85905
1499999985,21.9,0.0,0.0,0.0,0.33354000000000006,0.24525000000000002,9.86886
1505050490,21.9,0.0,0.0,0.0,0.32373,0.25506,9.86886
1510100995,21.9,0.0,0.0,0.0,0.35316,0.28449,9.85905
1515151500,21.9,0.0,0.0,0.0,0.33354000000000006,0.25506,9.84924
1520202005,21.9,0.0,0.0,0.0,0.32373,0.23544,9.85905
1525252510,21.9,0.0,0.0,0.0,0.31392000000000003,0.20601000000000003,9.87867
1530303015,21.9,0.0,0.0,0.0,0.30411,0.24525000000000002,9.888480000000001
1535353520,21.9,0.0,0.0,0.0,0.34335000000000004,0.24525000000000002,9.85905
1540404025,21.9,0.0,0.0,0.0,0.34335000000000004,0.2943,9.87867
1545454530,21.9,0.0,0.0,0.0,0.36297,0.26487,9.84924
1550505035,21.9,0.0,0.0,0.0,0.32373,0.23544,9.86886
1555555540,21.9,0.0,0.0,0.0,0.30411,0.22563,9.888480000000001
1560606045,21.9,0.0,0.0,0.0,0.31392000000000003,0.22563,9.85905
1565656550,21.9,0.0,0.0,0.0,0.30411,0.23544,9.86886
1570707055,21.9,0.0,0.0,0.0,0.33354000000000006,0.25506,9.86886
1575757560,21.9,0.0,0.0,0.0,0.35316,0.26487,9.87867
1580808065,21.9,0.0,0.0,0.0,0.31392000000000003,0.26487,9.84924
1585858570,21.9,0.0,0.0,0.0,0.33354000000000006,0.22563,9.86886
1590909075,21.9,0.0,0.0,0.0,0.31392000000000003,0.23544,9.85905
1595959580,21.9,0.0,0.0,0.0,0.33354000000000006,0.22563,9.86886
1601010085,21.9,0.0,0.0,0.0,0.31392000000000003,0.25506,9.84924
1606060590,21.9,0.0,0.0,0.0,0.34335000000000004,0.26487,9.87867
1611111095,21.9,0.0,0.0,0.0,0.35316,0.24525000000000002,9.85905
1616161600,21.9,0.0,0.0,0.0,0.34335000000000004,0.25506,9.85905
1621212105,21.9,0.0,0.0,0.0,0.33354000000000006,0.22563,9.89829
1626262610,21.9,0.0,0.0,0.0,0.33354000000000006,0.25506,9.87867
1631313115,21.9,0.0,0.0,0.0,0.34335000000000004,0.24525000000000002,9.84924
1636363620,21.9,0.0,0.0,0.0,0.32373,0.25506,9.87867
1641414125,21.9,0.0,0.0,0.0,0.31392000000000003,0.26487,9.87867
1646464630,21.9,0.0,0.0,0.0,0.33354000000000006,0.23544,9.83943
1651515135,21.9,0.0,0.0,0.0,0.32373,0.21582,9.84924
1656565640,21.9,0.0,0.0,0.0,0.35316,0.21582,9.86886
1661616145,21.9,0.0,0.0,0.0,0.33354000000000006,0.25506,9.888480000000001
1666666650,21.9,0.0,0.0,0.0,0.34335000000000004,0.27468000000000004,9.888480000000001
1671717155,21.9,0.0,0.0,0.0,0.31392000000000003,0.25506,9.86886
1676767660,21.9,0.0,0.0,0.0,0.2943,0.26487,9.85905
1681818165,21.9,0.0,0.0,0.0,0.32373,0.23544,9.84924
1686868670,21.9,0.0,0.0,0.0,0.34335000000000004,0.22563,9.85905
1691919175,21.9,0.0,0.0,0.0,0.34335000000000004,0.24525000000000002,9.84924
1696969680,21.9,0.0,0.0,0.0,0.33354000000000006,0.22563,9.85905
1702020185,21.9,0.0,0.0,0.0,0.35316,0.25506,9.87867
1707070690,21.9,0.0,0.0,0.0,0.31392000000000003,0.30411,9.87867
1712121195,21.9,0.0,0.0,0.0,0.31392000000000003,0.30411,9.84924
1717171700,21.9,0.0,0.0,0.0,0.31392000000000003,0.24525000000000002,9.85905
1722222205,21.9,0.0,0.0,0.0,0.2943,0.20601000000000003,9.85905
1727272710,21.9,0.0,0.0,0.0,0.33354000000000006,0.21582,9.87867
1732323215,21.9,0.0,0.0,0.0,0.33354000000000006,0.23544,9.86886
1737373720,21.9,0.0,0.0,0.0,0.35316,0.25506,9.83943
1742424225,21.9,0.0,0.0,0.0,0.33354000000000006,0.26487,9.85905
1747474730,21.9,0.0,0.0,0.0,0.33354000000000006,0.25506,9.87867
1752525235,21.9,0.0,0.0,0.0,0.31392000000000003,0.26487,9.85905
1757575740,21.9,0.0,0.0,0.0,0.32373,0.24525000000000002,9.86886
1762626245,21.9,0.0,0.0,0.0,0.31392000000000003,0.22563,9.85905
1767676750,21.9,0.0,0.0,0.0,0.34335000000000004,0.25506,9.84924
1772727255,21.9,0.0,0.0,0.0,0.38259000000000004,0.26487,9.84924
1777777760,21.9,0.0,0.0,0.0,0.34335000000000004,0.26487,9.87867
1782828265,21.9,0.0,0.0,0.0,0.34335000000000004,0.24525000000000002,9.888480000000001
1787878770,21.9,0.0,0.0,0.0,0.32373,0.21582,9.89829
1792929275,21.9,0.0,0.0,0.0,0.34335000000000004,0.25506,9.87867
1797979780,21.9,0.0,0.0,0.0,0.34335000000000004,0.27468000000000004,9.87867
1803030285,21.9,0.0,0.0,0.0,0.34335000000000004,0.24525000000000002,9.84924
1808080790,21.9,0.0,0.0,0.0,0.31392000000000003,0.25506,9.86886
1813131295,21.9,0.0,0.0,0.0,0.37278,0.25506,9.85905
1818181800,21.9,0.0,0.0,0.0,0.32373,0.22563,9.86886
1823232305,21.9,0.0,0.0,0.0,0.32373,0.22563,9.85905
1828282810,21.9,0.0,0.0,0.0,0.34335000000000004,0.23544,9.85905
1833333315,21.9,0.0,0.0,0.0,0.31392000000000003,0.26487,9.908100000000001
1838383820,21.9,0.0,0.0,0.0,0.32373,0.24525000000000002,9.85905
1843434325,21.9,0.0,0.0,0.0,0.31392000000000003,0.25506,9.86886
1848484830,21.9,0.0,0.0,0.0,0.35316,0.25506,9.85905
1853535335,21.9,0.0,0.0,0.0,0.36297,0.25506,9.888480000000001
1858585840,21.9,0.0,0.0,0.0,0.34335000000000004,0.24525000000000002,9.86886
1863636345,21.9,0.0,0.0,0.0,0.33354000000000006,0.25506,9.87867
1868686850,21.9,0.0,0.0,0.0,0.34335000000000004,0.28449,9.85905
1873737355,21.9,0.0,0.0,0.0,0.32373,0.26487,9.89829
1878787860,21.9,0.0,0.0,0.0,0.32373,0.26487,9.86886
1883838365,21.9,0.0,0.0,0.0,0.32373,0.25506,9.85905
1888888870,21.9,0.0,0.0,0.0,0.32373,0.24525000000000002,9.85905
1893939375,21.9,0.0,0.0,0.0,0.33354000000000006,0.25506,9.84924
1898989880,21.9,0.0,0.0,0.0,0.36297,0.25506,9.87867
1904040385,21.9,0.0,0.0,0.0,0.36297,0.25506,9.85905
1909090890,21.9,0.0,0.0,0.0,0.34335000000000004,0.24525000000000002,9.87867
1914141395,21.9,0.0,0.0,0.0,0.34335000000000004,0.26487,9.888480000000001
1919191900,21.9,0.0,0.0,0.0,0.2943,0.24525000000000002,9.888480000000001
1924242405,21.9,0.0,0.0,0.0,0.34335000000000004,0.25506,9.83943
1929292910,21.9,0.0,0.0,0.0,0.34335000000000004,0.23544,9.87867
1934343415,21.9,0.0,0.0,0.0,0.33354000000000006,0.24525000000000002,9.84924
1939393920,21.9,0.0,0.0,0.0,0.32373,0.23544,9.86886
1944444425,21.9,0.0,0.0,0.0,0.32373,0.24525000000000002,9.83943
1949494930,21.9,0.0,0.0,0.0,0.33354000000000006,0.24525000000000002,9.86886
1954545435,21.9,0.0,0.0,0.0,0.33354000000000006,0.23544,9.85905
1959595940,21.9,0.0,0.0,0.0,0.32373,0.25506,9.85905
1964646445,21.9,0.0,0.0,0.0,0.33354000000000006,0.26487,9.89829
1969696950,21.9,0.0,0.0,0.0,0.33354000000000006,0.26487,9.82962
1974747455,21.9,0.0,0.0,0.0,0.35316,0.23544,9.888480000000001
1979797960,21.9,0.0,0.0,0.0,0.33354000000000006,0.23544,9.888480000000001
1984848465,21.9,0.0,0.0,0.0,0.32373,0.24525000000000002,9.86886
1989898970,21.9,0.0,0.0,0.0,0.32373,0.28449,9.87867
1994949475,21.9,0.0,0.0,0.0,0.33354000000000006,0.25506,9.83943
1999999980,21.9,0.0,0.0,0.0,0.34335000000000004,0.24525000000000002,9.85905
2005050485,21.9,0.0,0.0,0.0,0.32373,0.22563,9.86886
2010100990,21.9,0.0,0.0,0.0,0.32373,0.23544,9.86886
2015151495,21.9,0.0,0.0,0.0,0.34335000000000004,0.28449,9.82962
2020202000,21.9,0.0,0.0,0.0,0.34335000000000004,0.25506,9.85905
2025252505,21.9,0.0,0.0,0.0,0.33354000000000006,0.24525000000000002,9.82962
2030303010,21.9,0.0,0.0,0.0,0.33354000000000006,0.24525000000000002,9.87867
2035353515,21.9,0.0,0.0,0.0,0.32373,0.25506,9.89829
2040404020,21.9,0.0,0.0,0.0,0.33354000000000006,0.24525000000000002,9.86886
2045454525,21.9,0.0,0.0,0.0,0.31392000000000003,0.27468000000000004,9.83943
2050505030,21.9,0.0,0.0,0.0,0.32373,0.28449,9.82962
2055555535,21.9,0.0,0.0,0.0,0.27468000000000004,0.26487,9.79038
2060606040,21.9,-0.001064650843716541,0.014905111812031574,0.0,0.41202000000000005,0.07848000000000001,9.85905
2065656545,21.9,-0.0170518667919846,0.060720004676882725,0.0,0.26487,-0.56898,9.87867
2070707050,21.9,-0.005323254218582705,0.20772908757236508,0.0,-0.70632,-0.20601000000000003,9.888480000000001
2075757555,21.9,0.06391395720803235,0.15872024217636432,-0.00958185759344887,-2.6683200000000005,0.71613,10.17297
2080808060,21.9,0.04260348704118158,0.09693558665576507,0.0,-1.43226,1.01043,10.26126
2085858565,21.9,0.05113814708343386,-0.007452555906015787,0.002129301687433082,-3.63951,1.41264,9.819809999999999
2090909070,21.9,-0.060720004676882725,-0.20240583335378237,0.007452555906015787,-0.31392000000000003,0.7848,10.212209999999999
2095959575,21.9,-0.07349581480148122,-0.3014707216969805,0.003193952531149623,-1.72656,-0.5395500000000001,9.78057
2101010080,21.9,-0.1288925652597812,-0.3792425931658478,0.002129301687433082,2.2268700000000003,-1.5303600000000002,10.34955
2106060585,21.9,-0.046879543708567686,-0.16404349639494703,0.001064650843716541,1.9914300000000003,-0.59841,9.42741
2111111090,21.9,0.06923721142661506,-0.17151350559348277,-0.001064650843716541,2.86452,0.1962,10.604610000000001
2116161595,21.9,0.09906488834319814,0.11505210429146619,-0.007452555906015787,3.58065,1.46169,9.025200000000002
2121212100,21.9,0.09054768159346581,0.10225884087434776,0.004258603374866164,1.5794100000000002,1.3734000000000002,9.633420000000001
2126262605,21.9,-0.033021629447732716,0.2929535149472482,-0.005323254218582705,1.6677000000000002,0.9711900000000001,8.32869
2131313110,21.9,-0.060720004676882725,0.27803094984269666,0.0,-1.2851100000000002,-0.79461,9.496080000000001
2136363615,21.9,-0.05859070298944965,0.15233233711406508,-0.005323254218582705,-0.9613800000000001,-0.95157,10.42803
2141414120,21.9,0.012775810124598492,0.05007349623971732,0.0,-1.5794100000000002,-0.24525000000000002,10.36917
2146464625,21.9,0.05326744877086694,-0.11505210429146619,0.0,-1.1772,1.02024,10.82043
2151515130,21.9,0.05326744877086694,-0.14700908289548237,-0.001064650843716541,0.20601000000000003,1.29492,9.937529999999999
2156565635,21.9,-0.0170518667919846,-0.09693558665576507,0.002129301687433082,0.9221400000000001,0.5395500000000001,9.888480000000001
2161616140,21.9,-0.0404741853537485,-0.02556907354171693,0.001064650843716541,0.70632,-0.34335000000000004,9.52551
2166666645,21.9,-0.04153883619746504,0.05007349623971732,0.003193952531149623,-0.06867000000000001,-0.48069000000000006,9.42741
2171717150,21.9,-0.006387905062299246,0.04794419455228423,0.001064650843716541,-0.2943,0.32373,9.751140000000001
2176767655,21.9,0.03515093113516579,0.04581489286485115,0.0,0.43164,0.63765,9.59418
2181818160,21.9,0.01064650843716541,-0.02556907354171693,-0.001064650843716541,0.05886,0.59841,10.36917
2186868665,21.9,-0.0170518667919846,-0.10332349171806432,0.0,0.85347,0.04905,10.06506
2191919170,21.9,-0.03728023282259888,-0.0756251164889143,0.0,1.08891,-0.24525000000000002,10.045440000000001
2196969675,21.9,0.003193952531149623,-0.03621558197888234,-0.002129301687433082,1.15758,0.15696000000000002,9.83943
2202020180,21.9,0.023439771854283843,0.06604325889546543,-0.003193952531149623,1.3047300000000002,0.36297,9.48627
2207070685,21.9,0.01811651763570114,0.1171814059788993,-0.001064650843716541,0.28449,0.50031,9.60399
2212121190,21.9,0.02556907354171693,0.15765559133264778,0.0,-0.69651,0.49050000000000005,9.53532
2217171695,21.9,-0.002129301687433082,0.10119419003063122,0.0,-1.52055,0.41202000000000005,10.12392
2222222200,21.9,-0.011711159280881954,-0.03621558197888234,0.001064650843716541,-1.4813100000000001,0.10791,10.32993
2227272705,21.9,-0.02769837522915001,-0.12463396188491506,0.0,-0.65727,-0.10791,10.31031
2232323210,21.9,-0.022375121010567305,-0.18748326824923087,0.002129301687433082,0.35316,0.22563,10.26126
2237373715,21.9,0.00958185759344887,-0.17364280728091586,0.0,1.5794100000000002,0.15696000000000002,9.72171
2242424220,21.9,0.007452555906015787,-0.12250466019748199,0.001064650843716541,1.8442800000000001,0.48069000000000006,9.82962
2247474725,21.9,0.012775810124598492,-0.020245819323134222,0.0,2.28573,0.6278400000000001,9.32931
2252525230,21.9,-0.004258603374866164,0.09161233243718235,-0.002129301687433082,1.8246600000000002,0.3924,9.2214
2257575735,21.9,-0.023439771854283843,0.14700908289548237,0.0,1.3341600000000002,-0.20601000000000003,9.40779
2262626240,21.9,-0.031956978604016174,0.2130523417909478,0.0,0.04905,-0.44145,9.53532
2267676745,21.9,0.013840460968315033,0.14381513036433274,-0.004258603374866164,-0.9711900000000001,0.16677000000000003,10.56537
2272727250,21.9,0.06284930636431581,0.05326744877086694,-0.002129301687433082,-1.05948,0.6278400000000001,10.29069
2277777755,21.9,0.0404741853537485,-0.01064650843716541,0.0,-1.00062,1.04967,10.22202
2282828260,21.9,-0.012775810124598492,-0.08841837990603273,0.0,-0.31392000000000003,0.8142300000000001,10.01601
2287878765,21.9,-0.044732788728614664,-0.0852244273748831,0.002129301687433082,0.05886,-0.05886,9.6138
2292929270,21.9,-0.054332099614583476,-0.08735372906231618,0.003193952531149623,0.30411,-0.5395500000000001,9.770760000000001
2297979775,21.9,-0.022375121010567305,-0.039409534510031964,0.002129301687433082,0.5591700000000001,-0.3924,9.67266
2303030280,21.9,0.02556907354171693,0.007452555906015787,-0.001064650843716541,0.5493600000000001,0.26487,9.87867
2308080785,21.9,0.05007349623971732,0.021310470166850764,-0.001064650843716541,0.59841,0.6867000000000001,9.97677
2313131290,21.9,0.023439771854283843,0.054332099614583476,0.0,0.34335000000000004,0.6670800000000001,9.888480000000001
2318181795,21.9,-0.006387905062299246,0.023439771854283843,0.001064650843716541,0.0,0.50031,10.1043
2323232300,21.9,-0.01811651763570114,-0.028763026072866547,0.001064650843716541,0.13734000000000002,0.33354000000000006,9.92772
2328282805,21.9,-0.021310470166850764,-0.08948303074974927,0.001064650843716541,0.50031,0.1962,9.84924
2333333310,21.9,-0.021310470166850764,-0.1171814059788993,0.001064650843716541,1.19682,-0.019620000000000002,9.7119
2338383815,21.9,-0.01811651763570114,-0.06497860805174888,0.0,1.6775100000000003,-0.16677000000000003,9.633420000000001
2343434320,21.9,0.001064650843716541,0.012775810124598492,-0.003193952531149623,1.6284600000000002,-0.04905,9.73152
2348484825,21.9,0.02663372438543347,0.09693558665576507,-0.002129301687433082,1.34397,0.2943,9.78057
2353535330,21.9,0.033021629447732716,0.15126768627034853,-0.003193952531149623,0.48069000000000006,0.5591700000000001,9.888480000000001
2358585835,21.9,0.021310470166850764,0.15765559133264778,-0.003193952531149623,-0.50031,0.56898,9.92772
2363636340,21.9,-0.001064650843716541,0.11505210429146619,-0.002129301687433082,-1.15758,0.38259000000000004,9.91791
2368686845,21.9,-0.012775810124598492,0.02769837522915001,0.001064650843716541,-1.5696,0.28449,9.99639
2373737350,21.9,-0.011711159280881954,-0.06923721142661506,0.001064650843716541,-1.26549,0.32373,10.025820000000001
2378787855,21.9,-0.022375121010567305,-0.15233233711406508,0.002129301687433082,-0.51012,0.10791,10.06506
2383838360,21.9,-0.024504422698000388,-0.15872024217636432,0.002129301687433082,0.40221,-0.009810000000000001,9.87867
2388888865,21.9,-0.01064650843716541,-0.12676326357234816,0.001064650843716541,1.22625,0.10791,9.91791
2393939370,21.9,0.008517206749732328,-0.05326744877086694,0.0,1.6677000000000002,0.27468000000000004,9.751140000000001
2398989875,21.9,0.014905111812031574,0.04366813788489812,0.0,1.55979,0.31392000000000003,9.633420000000001
2404040380,21.9,0.008517206749732328,0.08309512568745003,0.0,0.94176,0.33354000000000006,9.72171
2409090885,21.9,0.008517206749732328,0.08841837990603273,-0.002129301687433082,0.26487,0.48069000000000006,9.623610000000001
2414141390,21.9,0.004258603374866164,0.03621558197888234,0.001064650843716541,-0.07848000000000001,0.45126,9.81
2419191895,21.9,-0.013840460968315033,-0.012775810124598492,-0.001064650843716541,0.0,0.26487,9.888480000000001
2424242400,21.9,-0.028763026072866547,-0.054332099614583476,0.0,0.35316,0.0,10.01601
2429292905,21.9,-0.0170518667919846,-0.09800023749948161,0.002129301687433082,0.85347,-0.04905,10.15335
2434343410,21.9,0.006387905062299246,-0.05646140130201656,0.0,1.3243500000000001,0.18639,9.85905
2439393915,21.9,0.015987215948268057,0.020245819323134222,0.0,1.43226,0.36297,9.80019
2444444420,21.9,0.013840460968315033,0.11505210429146619,-0.001064650843716541,1.05948,0.18639,9.57456
2449494925,21.9,0.005323254218582705,0.20453513504121545,-0.003193952531149623,-0.23544,0.07848000000000001,9.53532
2454545430,21.9,0.008517206749732328,0.19067722078038052,-0.001064650843716541,-1.44207,0.21582,9.87867
2459595935,21.9,0.021310470166850764,0.09693558665576507,-0.001064650843716541,-2.24649,0.49050000000000005,10.074869999999999
2464646440,21.9,0.00958185759344887,-0.039409534510031964,0.003193952531149623,-2.06991,0.69651,10.31031
2469696945,21.9,-0.01811651763570114,-0.16404349639494703,0.003193952531149623,-1.1183400000000001,0.49050000000000005,10.320120000000001
2474747450,21.9,-0.03728023282259888,-0.24181536786381436,0.006387905062299246,0.02943,0.13734000000000002,10.17297
2479797955,21.9,-0.03834488366631542,-0.27803094984269666,0.004258603374866164,1.4813100000000001,-0.41202000000000005,10.1043
2484848460,21.9,-0.020245819323134222,-0.23010420858293237,0.001064650843716541,2.36421,-0.10791,9.908100000000001
2489898965,21.9,0.011711159280881954,-0.1416858286768997,0.0,2.7566100000000002,0.20601000000000003,9.72171
2494949470,21.9,0.0404741853537485,-0.014905111812031574,-0.001064650843716541,2.85471,0.63765,9.162540000000002
2499999975,21.9,0.02556907354171693,0.1331511686346474,-0.003193952531149623,2.32497,0.8829,8.99577
2505050480,21.9,-0.006387905062299246,0.2482032729261136,-0.002129301687433082,1.58922,0.50031,8.86824
2510100985,21.9,-0.05113814708343386,0.3110525792904294,-0.004258603374866164,0.52974,-0.51012,9.29988
2515151490,21.9,-0.0170518667919846,0.2620611871869486,-0.003193952531149623,-1.39302,-0.70632,10.56537
2520201995,21.9,0.044732788728614664,0.11931070766633237,-0.001064650843716541,-2.08953,0.65727,10.928340000000002
2525252500,21.9,0.05326744877086694,-0.033021629447732716,-0.003193952531149623,-1.7658,1.2360600000000002,10.437840000000001
2530303005,21.9,0.02769837522915001,-0.14062117783318315,0.002129301687433082,-1.06929,0.8829,10.19259
2535353510,21.9,-0.049008845396000776,-0.16938420390604966,0.005323254218582705,-0.1962,-0.019620000000000002,9.86886
2540404015,21.9,-0.07883652231258387,-0.12995721610349775,0.002129301687433082,0.6180300000000001,-0.5395500000000001,9.60399
2545454520,21.9,-0.028763026072866547,-0.07030186227033158,0.004258603374866164,0.9613800000000001,-0.45126,9.68247
2550505025,21.9,0.03089232776029963,0.00958185759344887,0.0,0.9319500000000001,0.17658,9.7119
2555555530,21.9,0.04581489286485115,0.08096582400001695,0.0,0.89271,0.72594,9.78057
2560606035,21.9,0.02982767691658309,0.09374163412461543,-0.001064650843716541,0.24525000000000002,0.72594,9.87867
2565656540,21.9,0.0,0.02982767691658309,0.0,-0.22563,0.56898,10.03563
2570707045,21.9,-0.024504422698000388,-0.0404741853537485,0.0,-0.22563,0.25506,9.94734
2575757550,21.9,-0.03408628029144926,-0.10545279340549739,0.001064650843716541,0.33354000000000006,0.02943,9.91791
2580808055,21.9,-0.024504422698000388,-0.13421581947836395,0.001064650843716541,1.0987200000000001,-0.02943,9.81
2585858560,21.9,-0.004258603374866164,-0.10012953918691468,0.001064650843716541,1.6382700000000001,0.009810000000000001,9.69228
2590909065,21.9,0.013840460968315033,-0.02769837522915001,0.0,1.8639000000000001,0.2943,9.81
2595959570,21.9,0.023439771854283843,0.06817256058289851,-0.003193952531149623,1.7756100000000001,0.51012,9.6138
2601010075,21.9,0.003193952531149623,0.1555262896452147,-0.001064650843716541,1.08891,0.14715,9.48627
2606060580,21.9,-0.004258603374866164,0.19708257913519966,-0.002129301687433082,-0.039240000000000004,0.0,9.84924
2611111085,21.9,0.012775810124598492,0.15978489302008084,-0.002129301687433082,-1.22625,0.26487,10.03563
2616161590,21.9,0.0170518667919846,0.07243116395776468,-0.002129301687433082,-1.54017,0.72594,10.163160000000001
2621212095,21.9,0.007452555906015787,-0.04153883619746504,0.0,-1.3243500000000001,0.51993,10.22202
2626262600,21.9,-0.011711159280881954,-0.10225884087434776,0.003193952531149623,-1.03005,0.28449,10.006200000000002
2631313105,21.9,-0.03621558197888234,-0.15126768627034853,0.003193952531149623,-0.10791,0.12753,10.08468
2636363610,21.9,-0.02663372438543347,-0.14381513036433274,0.003193952531149623,0.6180300000000001,-0.0981,9.888480000000001
2641414115,21.9,-0.007452555906015787,-0.11079350091660004,0.001064650843716541,1.3537800000000002,-0.039240000000000004,9.92772
2646464620,21.9,0.013840460968315033,-0.03621558197888234,0.0,1.52055,0.18639,9.7119
2651515125,21.9,0.02556907354171693,0.0404741853537485,-0.002129301687433082,1.34397,0.44145,9.54513
2656565630,21.9,0.0170518667919846,0.07670722062515077,0.0,0.87309,0.51012,9.64323
2661616135,21.9,-0.001064650843716541,0.09374163412461543,-0.001064650843716541,0.37278,0.37278,9.6138
2666666640,21.9,-0.015987215948268057,0.05326744877086694,0.0,0.0,0.16677000000000003,9.87867
2671717145,21.9,-0.0170518667919846,0.006387905062299246,0.0,-0.0981,0.12753,10.025820000000001
2676767650,21.9,-0.001064650843716541,-0.044732788728614664,0.0,0.24525000000000002,0.27468000000000004,10.03563
2681818155,21.9,0.007452555906015787,-0.06284930636431581,0.001064650843716541,0.60822,0.35316,10.025820000000001
2686868660,21.9,0.0,-0.04581489286485115,-0.001064650843716541,0.9123300000000001,0.27468000000000004,9.83943
2691919165,21.9,-0.008517206749732328,-0.011711159280881954,-0.001064650843716541,1.04967,0.12753,9.82962
2696969670,21.9,-0.006387905062299246,0.03515093113516579,-0.001064650843716541,0.90252,0.07848000000000001,9.64323
2702020175,21.9,0.003193952531149623,0.07456046564519776,-0.001064650843716541,0.57879,0.0981,9.73152
2707070680,21.9,0.008517206749732328,0.12037535851004891,-0.002129301687433082,-0.05886,0.16677000000000003,9.68247
2712121185,21.9,0.011711159280881954,0.12569861272863161,-0.002129301687433082,-0.8142300000000001,0.26487,9.96696
2717171690,21.9,0.01064650843716541,0.08096582400001695,-0.001064650843716541,-1.44207,0.48069000000000006,10.05525
2722222195,21.9,0.007452555906015787,-0.01918116847941768,0.0,-1.42245,0.6670800000000001,10.300500000000001
2727272700,21.9,-0.002129301687433082,-0.11931070766633237,0.001064650843716541,-0.8829,0.51012,10.163160000000001
2732323205,21.9,-0.033021629447732716,-0.18854791909294744,0.005323254218582705,0.04905,0.11772,10.1043
2737373710,21.9,-0.039409534510031964,-0.20027653166634932,0.002129301687433082,1.1281500000000002,-0.16677000000000003,9.819809999999999
2742424215,21.9,-0.023439771854283843,-0.177901410655782,0.006387905062299246,1.85409,-0.11772,9.80019
2747474720,21.9,0.015987215948268057,-0.12995721610349775,0.001064650843716541,2.34459,0.24525000000000002,9.819809999999999
2752525225,21.9,0.033021629447732716,-0.04260348704118158,-0.003193952531149623,2.5996500000000005,0.60822,9.50589
2757575730,21.9,0.011711159280881954,0.0756251164889143,-0.003193952531149623,2.38383,0.57879,9.28026
2762626235,21.9,-0.014905111812031574,0.19921188082263275,-0.003193952531149623,1.71675,0.28449,9.09387
2767676740,21.9,-0.03089232776029963,0.286548156592429,-0.002129301687433082,0.59841,-0.32373,9.24102
2772727245,21.9,0.004258603374866164,0.258867234655799,-0.002129301687433082,-1.10853,-0.27468000000000004,10.32993
2777777750,21.9,0.0404741853537485,0.14594443205176583,-0.002129301687433082,-1.9914300000000003,0.5591700000000001,10.604610000000001
2782828255,21.9,0.02982767691658309,0.023439771854283843,-0.001064650843716541,-2.04048,1.00062,10.280880000000002
2787878760,21.9,0.015987215948268057,-0.09693558665576507,0.005323254218582705,-1.55979,0.6278400000000001,10.300500000000001
2792929265,21.9,-0.02982767691658309,-0.15339698795778162,0.002129301687433082,-1.0791000000000002,0.18639,9.96696
2797979770,21.9,-0.06817256058289851,-0.18748326824923087,0.005323254218582705,0.20601000000000003,-0.11772,9.97677
2803030275,21.9,-0.0404741853537485,-0.18748326824923087,0.002129301687433082,1.0791000000000002,-0.20601000000000003,9.86886
2808080780,21.9,0.003193952531149623,-0.1288925652597812,0.002129301687433082,1.81485,-0.009810000000000001,9.78057
2813131285,21.9,0.03621558197888234,-0.03834488366631542,-0.001064650843716541,1.7756100000000001,0.48069000000000006,9.79038
2818181790,21.9,0.028763026072866547,0.03408628029144926,0.0,1.8639000000000001,0.6768900000000001,9.67266
2823232295,21.9,0.0,0.10225884087434776,-0.002129301687433082,1.21644,0.37278,9.38817
2828282800,21.9,-0.02769837522915001,0.1278279144160647,0.0,0.56898,0.02943,9.54513
2833333305,21.9,-0.020245819323134222,0.09693558665576507,-0.001064650843716541,0.16677000000000003,-0.11772,9.83943
2838383810,21.9,0.006387905062299246,0.05646140130201656,-0.001064650843716541,-0.07848000000000001,0.14715,9.96696
2843434315,21.9,0.014905111812031574,0.014905111812031574,-0.001064650843716541,-0.10791,0.49050000000000005,10.15335
2848484820,21.9,0.01918116847941768,-0.006387905062299246,0.0,-0.23544,0.65727,9.97677
2853535325,21.9,-0.002129301687433082,-0.054332099614583476,0.002129301687433082,0.16677000000000003,0.49050000000000005,10.163160000000001
2858585830,21.9,-0.021310470166850764,-0.07456046564519776,0.001064650843716541,0.35316,0.05886,9.89829
2863636335,21.9,-0.03621558197888234,-0.05113814708343386,0.001064650843716541,0.7749900000000001,-0.28449,9.819809999999999
2868686840,21.9,-0.01918116847941768,0.0,0.0,0.86328,-0.16677000000000003,9.74133
2873737345,21.9,0.01811651763570114,0.049008845396000776,-0.001064650843716541,0.74556,0.1962,9.70209
2878787850,21.9,0.0404741853537485,0.10866419922916695,-0.003193952531149623,0.20601000000000003,0.6180300000000001,9.7119
2883838355,21.9,0.028763026072866547,0.11185815176031658,-0.003193952531149623,-0.59841,0.59841,9.92772
2888888860,21.9,-0.004258603374866164,0.07990117315630041,0.0,-1.03986,0.40221,9.97677
2893939365,21.9,-0.021310470166850764,0.006387905062299246,0.0,-1.22625,0.20601000000000003,10.163160000000001
2898989870,21.9,-0.01918116847941768,-0.09054768159346581,0.002129301687433082,-0.6670800000000001,0.17658,10.09449
2904040375,21.9,-0.006387905062299246,-0.16617279808238014,0.001064650843716541,-0.009810000000000001,0.27468000000000004,10.025820000000001
2909090880,21.9,-0.012775810124598492,-0.19708257913519966,0.002129301687433082,1.21644,0.14715,9.85905
2914141385,21.9,-0.013840460968315033,-0.14381513036433274,0.002129301687433082,1.71675,0.13734000000000002,9.623610000000001
2919191890,21.9,0.007452555906015787,-0.10545279340549739,0.0,2.14839,0.24525000000000002,9.87867
2924242395,21.9,0.01811651763570114,-0.013840460968315033,0.001064650843716541,2.11896,0.44145,9.45684
2929292900,21.9,0.0,0.0756251164889143,-0.001064650843716541,2.05029,0.44145,9.39798
2934343405,21.9,-0.0170518667919846,0.16084954386379738,-0.003193952531149623,1.55979,0.07848000000000001,9.30969
2939393910,21.9,-0.02663372438543347,0.23755676448894822,-0.002129301687433082,0.51993,-0.21582,9.4176
2944444415,21.9,0.007452555906015787,0.20453513504121545,-0.004258603374866164,-0.72594,-0.13734000000000002,10.26126
2949494920,21.9,0.04153883619746504,0.1352804703220805,-0.001064650843716541,-1.4813100000000001,0.42183,10.34955
2954545425,21.9,0.028763026072866547,0.046879543708567686,-0.002129301687433082,-1.88352,0.89271,10.29069
2959595930,21.9,0.0,-0.05646140130201656,0.0,-1.40283,0.73575,10.212209999999999
2964646435,21.9,-0.033021629447732716,-0.12250466019748199,0.004258603374866164,-0.7848,0.13734000000000002,10.11411
2969696940,21.9,-0.04581489286485115,-0.16084954386379738,0.004258603374866164,-0.02943,-0.27468000000000004,9.99639
2974747445,21.9,-0.033021629447732716,-0.14381513036433274,0.006387905062299246,0.65727,-0.13734000000000002,9.91791
2979797950,21.9,0.005323254218582705,-0.12676326357234816,0.0,1.2556800000000001,0.18639,9.84924
2984848455,21.9,0.02556907354171693,-0.060720004676882725,0.0,1.75599,0.52974,9.6138
2989898960,21.9,0.022375121010567305,-0.01064650843716541,-0.002129301687433082,1.6284600000000002,0.5886,9.760950000000001
2994949465,21.9,-0.008517206749732328,0.03408628029144926,0.0,1.60884,0.40221,9.58437
2999999970,21.9,-0.02769837522915001,0.07777187146886733,0.001064650843716541,1.20663,-0.06867000000000001,9.52551
3005050475,21.9,-0.01811651763570114,0.09161233243718235,-0.003193952531149623,0.65727,-0.14715,9.760950000000001
3010100980,21.9,0.011711159280881954,0.10119419003063122,-0.003193952531149623,0.08829,0.24525000000000002,9.83943
3015151485,21.9,0.022375121010567305,0.07136651311404815,0.0,0.0,0.43164,10.03563
3020201990,21.9,0.020245819323134222,0.05752605214573309,0.0,-0.46107000000000004,0.57879,9.95715
3025252495,21.9,0.002129301687433082,0.008517206749732328,0.0,-0.56898,0.49050000000000005,10.045440000000001
3030303000,21.9,-0.014905111812031574,-0.03728023282259888,0.001064650843716541,-0.63765,0.26487,9.97677
3035353505,21.9,-0.0170518667919846,-0.08203047484373349,0.002129301687433082,-0.32373,0.02943,9.92772
3040404010,21.9,-0.023439771854283843,-0.08735372906231618,0.002129301687433082,0.32373,0.039240000000000004,9.908100000000001
3045454515,21.9,-0.004258603374866164,-0.09054768159346581,0.0,0.8142300000000001,0.16677000000000003,9.84924
3050505020,21.9,0.00958185759344887,-0.06391395720803235,-0.001064650843716541,1.3047300000000002,0.2943,9.82962
3055555525,21.9,0.007452555906015787,-0.005323254218582705,0.0,1.24587,0.2943,9.751140000000001
3060606030,21.9,0.0,0.06284930636431581,0.0,0.95157,0.12753,9.67266
3065656535,21.9,-0.002129301687433082,0.08841837990603273,-0.001064650843716541,0.41202000000000005,0.18639,9.84924
3070707040,21.9,0.005323254218582705,0.08415977653116657,-0.001064650843716541,-0.009810000000000001,0.23544,9.819809999999999
3075757545,21.9,0.008517206749732328,0.05859070298944965,0.0,-0.37278,0.33354000000000006,9.96696
3080808050,21.9,0.004258603374866164,0.014905111812031574,0.0,-0.5493600000000001,0.35316,9.98658
3085858555,21.9,-0.005323254218582705,-0.03728023282259888,0.002129301687433082,-0.44145,0.30411,10.01601
3090909060,21.9,-0.00958185759344887,-0.06178465552059926,0.001064650843716541,-0.009810000000000001,0.2943,9.95715
3095959565,21.9,-0.01064650843716541,-0.09161233243718235,0.0,0.41202000000000005,0.20601000000000003,9.96696
3101010070,21.9,-0.013840460968315033,-0.07777187146886733,0.001064650843716541,0.9711900000000001,0.12753,9.79038
3106060575,21.9,-0.01064650843716541,-0.05007349623971732,0.001064650843716541,1.24587,0.04905,9.80019
3111111080,21.9,0.001064650843716541,-0.005323254218582705,0.0,1.22625,0.17658,9.66285
3116161585,21.9,0.0170518667919846,0.03408628029144926,0.0,1.03986,0.46107000000000004,9.7119
3121212090,21.9,0.01064650843716541,0.04581489286485115,-0.003193952531149623,0.7848,0.3924,9.82962
3126262595,21.9,-0.001064650843716541,0.06391395720803235,0.0,0.43164,0.26487,9.78057
3131313100,21.9,-0.00958185759344887,0.05007349623971732,-0.001064650843716541,0.18639,0.0981,9.92772
3136363605,21.9,-0.007452555906015787,0.04260348704118158,-0.002129301687433082,0.0,0.06867000000000001,9.908100000000001
3141414110,21.9,0.007452555906015787,0.03728023282259888,-0.001064650843716541,-0.23544,0.13734000000000002,9.86886
3146464615,21.9,0.005323254218582705,0.033021629447732716,0.0,-0.40221,0.30411,9.96696
3151515120,21.9,0.007452555906015787,0.012775810124598492,0.0,-0.51012,0.40221,9.89829
3156565625,21.9,0.003193952531149623,-0.0170518667919846,0.001064650843716541,-0.45126,0.43164,9.92772
3161616130,21.9,-0.007452555906015787,-0.044732788728614664,0.004258603374866164,-0.17658,0.33354000000000006,9.92772
3166666635,21.9,-0.021310470166850764,-0.06710790973918197,0.003193952531149623,0.11772,0.08829,9.94734
3171717140,21.9,-0.01918116847941768,-0.08096582400001695,0.0,0.5591700000000001,0.02943,9.937529999999999
3176767645,21.9,-0.007452555906015787,-0.07456046564519776,0.0,0.87309,0.16677000000000003,9.80019
3181818150,21.9,0.006387905062299246,-0.05965535383316618,0.002129301687433082,1.22625,0.37278,9.819809999999999
3186868655,21.9,0.008517206749732328,-0.02982767691658309,-0.001064650843716541,1.4715,0.41202000000000005,9.69228
3191919160,21.9,-0.007452555906015787,0.01918116847941768,0.0,1.40283,0.21582,9.64323
3196969665,21.9,-0.008517206749732328,0.060720004676882725,0.0,1.03986,0.0981,9.68247
3202020170,21.9,0.0,0.06710790973918197,0.0,0.6670800000000001,0.20601000000000003,9.87867
3207070675,21.9,0.008517206749732328,0.06284930636431581,0.0,0.35316,0.24525000000000002,9.89829
3212121180,21.9,0.002129301687433082,0.046879543708567686,-0.001064650843716541,0.11772,0.22563,9.94734
3217171685,21.9,-0.001064650843716541,0.03408628029144926,-0.001064650843716541,-0.07848000000000001,0.22563,9.96696
3222222190,21.9,0.002129301687433082,0.020245819323134222,0.0,-0.18639,0.21582,9.96696
3227272695,21.9,0.001064650843716541,0.02556907354171693,0.0,-0.20601000000000003,0.20601000000000003,9.92772
3232323200,21.9,0.003193952531149623,0.039409534510031964,0.0,-0.52974,0.25506,9.937529999999999
3237373705,21.9,0.0,0.008517206749732328,0.0,-0.5886,0.24525000000000002,10.045440000000001
3242424210,21.9,-0.002129301687433082,-0.022375121010567305,0.0,-0.6278400000000001,0.32373,9.97677
3247474715,21.9,-0.001064650843716541,-0.06604325889546543,0.002129301687433082,-0.33354000000000006,0.3924,9.91791
3252525220,21.9,-0.01064650843716541,-0.09267698328089889,0.0,0.12753,0.31392000000000003,9.908100000000001
3257575725,21.9,-0.020245819323134222,-0.11292280260403312,0.003193952531149623,0.8829,0.06867000000000001,9.85905
3262626230,21.9,-0.015987215948268057,-0.07670722062515077,0.002129301687433082,1.22625,0.07848000000000001,9.7119
3267676735,21.9,0.0,-0.049008845396000776,0.0,1.43226,0.24525000000000002,9.751140000000001
3272727240,21.9,0.005323254218582705,-0.002129301687433082,0.0,1.54017,0.44145,9.64323
3277777745,21.9,0.003193952531149623,0.02982767691658309,-0.001064650843716541,1.43226,0.33354000000000006,9.66285
3282828250,21.9,-0.006387905062299246,0.07456046564519776,-0.001064650843716541,1.1183400000000001,0.16677000000000003,9.5157
3287878755,21.9,-0.006387905062299246,0.09267698328089889,-0.001064650843716541,0.56898,0.12753,9.760950000000001
3292929260,21.9,0.001064650843716541,0.07136651311404815,-0.002129301687433082,0.25506,0.21582,9.97677
3297979765,21.9,0.005323254218582705,0.05007349623971732,-0.002129301687433082,0.02943,0.2943,9.98658
3303030270,21.9,0.004258603374866164,0.02982767691658309,-0.002129301687433082,-0.18639,0.22563,10.03563
3308080775,21.9,0.001064650843716541,0.015987215948268057,0.0,-0.35316,0.24525000000000002,9.98658
3313131280,21.9,0.0,0.003193952531149623,0.0,-0.2943,0.17658,10.01601
3318181785,21.9,-0.003193952531149623,0.014905111812031574,0.001064650843716541,-0.27468000000000004,0.14715,9.99639
3323232290,21.9,0.001064650843716541,0.006387905062299246,0.0,-0.51012,0.18639,10.05525
3328282795,21.9,0.001064650843716541,-0.015987215948268057,0.0,-0.43164,0.33354000000000006,9.98658
3333333300,21.9,0.002129301687433082,-0.049008845396000776,0.0,-0.21582,0.45126,9.96696
3338383805,21.9,-0.004258603374866164,-0.0756251164889143,0.001064650843716541,0.26487,0.28449,9.86886
3343434310,21.9,-0.01811651763570114,-0.07990117315630041,0.002129301687433082,0.59841,0.08829,9.80019
3348484815,21.9,-0.01811651763570114,-0.07243116395776468,0.002129301687433082,0.94176,0.02943,9.79038
3353535320,21.9,-0.004258603374866164,-0.039409534510031964,0.0,1.22625,0.20601000000000003,9.72171
3358585825,21.9,0.015987215948268057,-0.006387905062299246,0.0,1.3341600000000002,0.41202000000000005,9.72171
3363636330,21.9,0.00958185759344887,0.03089232776029963,-0.001064650843716541,1.2360600000000002,0.41202000000000005,9.65304
3368686835,21.9,-0.003193952531149623,0.05539675045830002,-0.001064650843716541,0.9319500000000001,0.27468000000000004,9.65304
3373737340,21.9,-0.00958185759344887,0.06497860805174888,0.0,0.5493600000000001,0.14715,9.73152
3378787845,21.9,-0.001064650843716541,0.05539675045830002,-0.001064650843716541,0.16677000000000003,0.18639,9.770760000000001
3383838350,21.9,0.002129301687433082,0.024504422698000388,0.0,0.07848000000000001,0.25506,9.91791
3388888855,21.9,0.002129301687433082,0.006387905062299246,-0.002129301687433082,0.07848000000000001,0.28449,9.94734
3393939360,21.9,0.001064650843716541,-0.001064650843716541,-0.002129301687433082,0.08829,0.23544,9.98658
3398989865,21.9,-0.001064650843716541,-0.001064650843716541,0.0,0.02943,0.23544,9.96696
3404040370,21.9,0.0,0.001064650843716541,0.0,0.08829,0.15696000000000002,10.025820000000001
3409090875,21.9,-0.003193952531149623,0.011711159280881954,0.0,0.039240000000000004,0.16677000000000003,9.94734
3414141380,21.9,0.003193952531149623,0.004258603374866164,0.0,-0.07848000000000001,0.20601000000000003,9.99639
3419191885,21.9,0.004258603374866164,-0.01064650843716541,0.0,-0.06867000000000001,0.2943,9.89829
3424242390,21.9,0.002129301687433082,-0.021310470166850764,0.001064650843716541,0.019620000000000002,0.31392000000000003,9.937529999999999
3429292895,21.9,-0.004258603374866164,-0.033021629447732716,-0.001064650843716541,0.25506,0.22563,9.888480000000001
3434343400,21.9,-0.00958185759344887,-0.044732788728614664,0.0,0.42183,0.20601000000000003,9.94734
3439393905,21.9,-0.005323254218582705,-0.05220279792715039,0.0,0.79461,0.21582,9.91791
3444444410,21.9,0.0,-0.028763026072866547,0.002129301687433082,0.87309,0.23544,9.79038
3449494915,21.9,0.0,-0.006387905062299246,0.001064650843716541,0.94176,0.24525000000000002,9.74133
3454545420,21.9,-0.004258603374866164,0.015987215948268057,-0.001064650843716541,0.95157,0.1962,9.73152
3459595925,21.9,0.001064650843716541,0.0404741853537485,-0.002129301687433082,0.7749900000000001,0.20601000000000003,9.66285
3464646430,21.9,0.003193952531149623,0.05539675045830002,-0.001064650843716541,0.43164,0.2943,9.73152
3469696935,21.9,0.004258603374866164,0.05220279792715039,-0.001064650843716541,0.04905,0.27468000000000004,9.81
3474747440,21.9,-0.001064650843716541,0.03408628029144926,-0.001064650843716541,-0.12753,0.27468000000000004,9.92772
3479797945,21.9,-0.002129301687433082,0.011711159280881954,0.0,-0.16677000000000003,0.25506,9.95715
3484848450,21.9,-0.004258603374866164,-0.005323254218582705,0.0,-0.0981,0.1962,9.94734
3489898955,21.9,-0.002129301687433082,-0.01811651763570114,0.0,-0.02943,0.18639,9.92772
3494949460,21.9,-0.003193952531149623,-0.021310470166850764,0.0,0.04905,0.1962,9.86886
3499999965,21.9,-0.001064650843716541,-0.022375121010567305,0.0,0.13734000000000002,0.31392000000000003,9.85905
3505050470,21.9,0.0,-0.039409534510031964,0.0,0.30411,0.35316,9.87867
3510100975,21.9,-0.003193952531149623,-0.03621558197888234,0.0,0.5886,0.24525000000000002,9.81
3515151480,21.9,-0.00958185759344887,-0.02663372438543347,0.0,0.71613,0.10791,9.89829
3520201985,21.9,-0.006387905062299246,-0.021310470166850764,0.0,0.79461,0.08829,9.937529999999999
3525252490,21.9,0.002129301687433082,-0.013840460968315033,0.0,0.8142300000000001,0.22563,9.87867
3530302995,21.9,0.00958185759344887,-0.004258603374866164,0.0,0.9123300000000001,0.38259000000000004,9.87867
3535353500,21.9,0.003193952531149623,0.0170518667919846,0.0,0.85347,0.27468000000000004,9.80019
3540404005,21.9,-0.004258603374866164,0.039409534510031964,0.0,0.6278400000000001,0.15696000000000002,9.78057
3545454510,21.9,-0.007452555906015787,0.04581489286485115,0.0,0.38259000000000004,0.16677000000000003,9.83943
3550505015,21.9,0.004258603374866164,0.039409534510031964,0.0,0.14715,0.22563,9.85905
3555555520,21.9,0.004258603374866164,0.023439771854283843,0.0,0.06867000000000001,0.2943,10.006200000000002
3560606025,21.9,0.0,0.005323254218582705,0.0,-0.019620000000000002,0.24525000000000002,9.98658
3565656530,21.9,-0.001064650843716541,0.003193952531149623,0.0,0.06867000000000001,0.13734000000000002,9.96696
3570707035,21.9,0.0,0.005323254218582705,0.0,-0.039240000000000004,0.18639,9.89829
3575757540,21.9,0.002129301687433082,0.006387905062299246,0.0,-0.02943,0.27468000000000004,9.86886
3580808045,21.9,0.001064650843716541,0.008517206749732328,0.0,-0.02943,0.32373,9.83943
3585858550,21.9,0.0,-0.007452555906015787,0.0,-0.12753,0.30411,9.819809999999999
3590909055,21.9,0.0,-0.03089232776029963,0.0,-0.039240000000000004,0.34335000000000004,9.87867
3595959560,21.9,-0.003193952531149623,-0.05965535383316618,0.0,0.23544,0.31392000000000003,9.91791
3601010065,21.9,-0.013840460968315033,-0.06710790973918197,0.0,0.6768900000000001,0.15696000000000002,9.86886
3606060570,21.9,-0.011711159280881954,-0.054332099614583476,0.0,0.9810000000000001,0.08829,9.85905
3611111075,21.9,-0.002129301687433082,-0.031956978604016174,0.0,1.1183400000000001,0.15696000000000002,9.760950000000001
3616161580,21.9,0.008517206749732328,0.007452555906015787,0.0,1.1477700000000002,0.28449,9.66285
3621212085,21.9,0.006387905062299246,0.04260348704118158,0.0,1.02024,0.33354000000000006,9.68247
3626262590,21.9,0.0,0.06817256058289851,0.0,0.65727,0.26487,9.72171
3631313095,21.9,0.001064650843716541,0.06710790973918197,0.0,0.1962,0.20601000000000003,9.84924
3636363600,21.9,-0.001064650843716541,0.05007349623971732,0.0,-0.08829,0.18639,10.006200000000002
3641414105,21.9,0.004258603374866164,0.014905111812031574,0.0,-0.18639,0.20601000000000003,10.074869999999999
3646464610,21.9,0.0,-0.006387905062299246,0.0,-0.05886,0.17658,10.09449
3651515115,21.9,-0.002129301687433082,-0.007452555906015787,0.0,-0.06867000000000001,0.14715,10.006200000000002
3656565620,21.9,0.001064650843716541,-0.007452555906015787,0.0,-0.019620000000000002,0.26487,9.95715
3661616125,21.9,0.005323254218582705,-0.011711159280881954,0.0,0.019620000000000002,0.38259000000000004,9.89829
3666666630,21.9,0.002129301687433082,-0.01811651763570114,0.0,0.0981,0.36297,9.87867
3671717135,21.9,-0.007452555906015787,-0.02663372438543347,0.0,0.17658,0.22563,9.888480000000001
3676767640,21.9,-0.011711159280881954,-0.04260348704118158,0.0,0.36297,0.11772,9.89829
3681818145,21.9,-0.00958185759344887,-0.05113814708343386,0.0,0.63765,0.08829,9.908100000000001
3686868650,21.9,0.0,-0.04366813788489812,0.0,0.89271,0.21582,9.82962
3691919155,21.9,0.004258603374866164,-0.01811651763570114,0.0,1.06929,0.2943,9.73152
3696969660,21.9,0.002129301687433082,0.020245819323134222,0.0,1.01043,0.33354000000000006,9.65304
3702020165,21.9,0.002129301687433082,0.04794419455228423,0.0,0.72594,0.35316,9.69228
3707070670,21.9,0.0,0.05646140130201656,0.0,0.38259000000000004,0.26487,9.73152
3712121175,21.9,-0.003193952531149623,0.04153883619746504,0.0,0.07848000000000001,0.24525000000000002,9.82962
3717171680,21.9,-0.007452555906015787,0.00958185759344887,0.0,0.02943,0.14715,9.937529999999999
3722222185,21.9,-0.004258603374866164,-0.0170518667919846,0.0,0.10791,0.13734000000000002,9.98658
3727272690,21.9,0.002129301687433082,-0.03089232776029963,0.0,0.31392000000000003,0.21582,9.96696
3732323195,21.9,0.006387905062299246,-0.022375121010567305,0.0,0.5395500000000001,0.24525000000000002,9.908100000000001
3737373700,21.9,0.003193952531149623,0.00958185759344887,0.0,0.52974,0.27468000000000004,9.81
3742424205,21.9,0.003193952531149623,0.02663372438543347,0.0,0.35316,0.31392000000000003,9.85905
3747474710,21.9,0.001064650843716541,0.028763026072866547,0.0,0.11772,0.27468000000000004,9.908100000000001
3752525215,21.9,-0.002129301687433082,0.007452555906015787,0.0,0.009810000000000001,0.18639,9.95715
3757575720,21.9,-0.006387905062299246,-0.012775810124598492,0.0,0.11772,0.08829,10.01601
3762626225,21.9,-0.002129301687433082,-0.013840460968315033,0.0,0.20601000000000003,0.06867000000000001,9.96696
3767676730,21.9,0.003193952531149623,-0.006387905062299246,0.0,0.21582,0.26487,9.937529999999999
3772727235,21.9,0.014905111812031574,-0.001064650843716541,0.0,0.2943,0.49050000000000005,9.85905
3777777740,21.9,0.008517206749732328,0.003193952531149623,0.0,0.33354000000000006,0.49050000000000005,9.80019
3782828245,21.9,-0.007452555906015787,0.006387905062299246,0.0,0.23544,0.28449,9.74133
3787878750,21.9,-0.020245819323134222,-0.003193952531149623,0.0,0.11772,0.039240000000000004,9.751140000000001
3792929255,21.9,-0.012775810124598492,-0.02556907354171693,0.0,0.1962,0.05886,9.85905
3797979760,21.9,0.0,-0.044732788728614664,0.0,0.51012,0.1962,9.888480000000001
3803030265,21.9,0.006387905062299246,-0.0404741853537485,0.0,0.73575,0.31392000000000003,9.85905
3808080770,21.9,0.004258603374866164,-0.01918116847941768,0.0,0.9908100000000001,0.37278,9.81
3813131275,21.9,0.0,0.01064650843716541,0.0,0.9319500000000001,0.26487,9.74133
3818181780,21.9,0.0,0.03728023282259888,0.0,0.74556,0.22563,9.760950000000001
3823232285,21.9,-0.003193952531149623,0.05326744877086694,0.0,0.43164,0.12753,9.80019
3828282790,21.9,-0.001064650843716541,0.05220279792715039,0.0,0.08829,0.07848000000000001,9.89829
3833333295,21.9,0.0,0.03834488366631542,0.0,-0.10791,0.15696000000000002,9.98658
3838383800,21.9,0.008517206749732328,0.01811651763570114,0.0,-0.28449,0.28449,10.03563
3843434305,21.9,0.008517206749732328,-0.012775810124598492,0.0,-0.21582,0.41202000000000005,10.074869999999999
3848484810,21.9,0.0,-0.039409534510031964,0.0,0.02943,0.38259000000000004,10.045440000000001
3853535315,21.9,-0.00958185759344887,-0.05326744877086694,0.0,0.28449,0.28449,9.937529999999999
3858585820,21.9,-0.011711159280881954,-0.06817256058289851,0.0,0.6180300000000001,0.12753,9.908100000000001
3863636325,21.9,-0.011711159280881954,-0.05113814708343386,0.0,0.9221400000000001,0.019620000000000002,9.81
3868686830,21.9,0.0,-0.013840460968315033,0.0,1.05948,0.05886,9.770760000000001
3873737335,21.9,0.007452555906015787,0.02982767691658309,0.0,0.90252,0.12753,9.78057
3878787840,21.9,0.013840460968315033,0.06710790973918197,0.0,0.6180300000000001,0.33354000000000006,9.78057
3883838345,21.9,0.015987215948268057,0.08841837990603273,0.0,0.14715,0.45126,9.770760000000001
3888888850,21.9,0.011711159280881954,0.07883652231258387,0.0,-0.35316,0.48069000000000006,9.82962
3893939355,21.9,-0.004258603374866164,0.031956978604016174,0.0,-0.65727,0.40221,9.83943
3898989860,21.9,-0.012775810124598492,-0.03515093113516579,0.0,-0.60822,0.24525000000000002,9.86886
3904040365,21.9,-0.023439771854283843,-0.10119419003063122,0.0,-0.04905,0.05886,9.94734
3909090870,21.9,-0.01811651763570114,-0.1288925652597812,0.0,0.65727,0.0,9.89829
3914141375,21.9,-0.008517206749732328,-0.09693558665576507,0.0,1.31454,-0.02943,9.83943
3919191880,21.9,0.004258603374866164,-0.01918116847941768,0.0,1.55979,0.10791,9.760950000000001
3924242385,21.9,0.022375121010567305,0.06391395720803235,0.0,1.2753,0.38259000000000004,9.7119
3929292890,21.9,0.02663372438543347,0.12250466019748199,0.0,0.65727,0.51993,9.751140000000001
3934343395,21.9,0.012775810124598492,0.14062117783318315,0.0,-0.20601000000000003,0.42183,9.81
3939393900,21.9,-0.005323254218582705,0.08309512568745003,0.0,-0.86328,0.28449,10.025820000000001
3944444405,21.9,-0.014905111812031574,-0.007452555906015787,0.0,-0.9908100000000001,0.11772,10.11411
3949494910,21.9,-0.01918116847941768,-0.08948303074974927,0.0,-0.5591700000000001,0.06867000000000001,10.143540000000002
3954545415,21.9,-0.00958185759344887,-0.14062117783318315,0.0,0.28449,0.20601000000000003,10.143540000000002
3959595920,21.9,0.001064650843716541,-0.12356931104119852,0.0,1.20663,0.22563,9.94734
3964646425,21.9,0.003193952531149623,-0.049008845396000776,0.0,1.6284600000000002,0.22563,9.73152
3969696930,21.9,0.008517206749732328,0.024504422698000388,0.0,1.3734000000000002,0.32373,9.74133
3974747435,21.9,0.015987215948268057,0.07456046564519776,0.0,0.7651800000000001,0.44145,9.57456
3979797940,21.9,0.001064650843716541,0.06284930636431581,0.0,0.40221,0.41202000000000005,9.69228
3984848445,21.9,-0.01064650843716541,0.006387905062299246,0.0,0.40221,0.10791,9.86886
3989898950,21.9,-0.0170518667919846,-0.00958185759344887,0.0,0.34335000000000004,-0.019620000000000002,9.79038
3994949455,21.9,-0.007452555906015787,-0.024504422698000388,0.0,0.64746,0.0,10.006200000000002
3999999960,21.9,0.014905111812031574,0.01918116847941768,0.0,0.5395500000000001,0.2943,9.86886
4005050465,21.9,0.021310470166850764,0.03834488366631542,0.0,0.65727,0.51993,9.97677
4010100970,21.9,0.013840460968315033,0.0852244273748831,0.0,0.14715,0.51993,9.65304
4015151475,21.9,0.001064650843716541,0.05539675045830002,0.0,-0.40221,0.32373,9.94734
4020201980,21.9,-0.012775810124598492,0.02769837522915001,0.0,-0.71613,0.10791,9.82962
4025252485,21.9,-0.011711159280881954,-0.02769837522915001,0.0,-0.7848,0.0,9.98658
4030302990,21.9,-0.008517206749732328,-0.07243116395776468,0.0,-0.13734000000000002,0.0981,10.12392
4035353495,21.9,0.006387905062299246,-0.08203047484373349,0.0,0.13734000000000002,0.25506,10.025820000000001
4040404000,21.9,0.012775810124598492,-0.07349581480148122,0.0,0.59841,0.38259000000000004,9.99639
4045454505,21.9,0.005323254218582705,-0.020245819323134222,0.0,0.86328,0.43164,9.751140000000001
4050505010,21.9,-0.005323254218582705,0.011711159280881954,0.0,0.8142300000000001,0.23544,9.7119
4055555515,21.9,-0.006387905062299246,0.02663372438543347,0.0,0.56898,0.17658,9.74133
4060606020,21.9,-0.003193952531149623,0.01811651763570114,0.0,0.35316,0.1962,9.751140000000001
4065656525,21.9,-0.005323254218582705,-0.01811651763570114,0.0,0.44145,0.27468000000000004,9.92772
4070707030,21.9,0.002129301687433082,-0.05007349623971732,0.0,0.6768900000000001,0.25506,9.888480000000001
4075757535,21.9,-0.005323254218582705,-0.04794419455228423,0.0,1.1183400000000001,0.16677000000000003,9.91791
4080808040,21.9,0.0,-0.006387905062299246,0.0,1.1870100000000001,0.16677000000000003,9.78057
4085858545,21.9,0.003193952531149623,0.03515093113516579,0.0,1.01043,0.17658,9.83943
4090909050,21.9,0.00958185759344887,0.07243116395776468,0.0,0.6867000000000001,0.25506,9.81
4095959555,21.9,0.012775810124598492,0.10225884087434776,0.0,0.019620000000000002,0.28449,9.760950000000001
4101010060,21.9,0.006387905062299246,0.07670722062515077,0.0,-0.3924,0.34335000000000004,10.03563
4106060565,21.9,-0.001064650843716541,0.028763026072866547,0.0,-0.5886,0.1962,9.98658
4111111070,21.9,-0.008517206749732328,-0.0170518667919846,0.0,-0.63765,0.0981,10.09449
4116161575,21.9,-0.004258603374866164,-0.05326744877086694,0.0,-0.28449,0.17658,10.08468
4121212080,21.9,0.0,-0.05965535383316618,0.0,0.039240000000000004,0.27468000000000004,9.91791
4126262585,21.9,0.003193952531149623,-0.06178465552059926,0.0,0.45126,0.36297,9.87867
4131313090,21.9,0.0,-0.02982767691658309,0.0,0.6278400000000001,0.31392000000000003,9.760950000000001
4136363595,21.9,-0.007452555906015787,-0.015987215948268057,0.0,0.6278400000000001,0.24525000000000002,9.760950000000001
4141414100,21.9,-0.007452555906015787,-0.022375121010567305,0.0,0.71613,0.18639,9.79038
4146464605,21.9,-0.003193952531149623,-0.0170518667919846,0.0,0.79461,0.12753,9.81
4151515110,21.9,0.0,-0.014905111812031574,0.0,0.8338500000000001,0.17658,9.819809999999999
4156565615,21.9,0.004258603374866164,0.01064650843716541,0.0,0.9123300000000001,0.25506,9.78057
4161616120,21.9,0.005323254218582705,0.0404741853537485,0.0,0.71613,0.33354000000000006,9.74133
4166666625,21.9,0.007452555906015787,0.05113814708343386,0.0,0.41202000000000005,0.40221,9.79038
4171717130,21.9,0.0,0.04366813788489812,0.0,0.14715,0.31392000000000003,9.86886
4176767635,21.9,-0.004258603374866164,0.022375121010567305,0.0,0.02943,0.17658,9.91791
4181818140,21.9,-0.005323254218582705,-0.002129301687433082,0.0,-0.009810000000000001,0.05886,9.94734
4186868645,21.9,-0.004258603374866164,-0.01811651763570114,0.0,0.06867000000000001,0.13734000000000002,10.03563
4191919150,21.9,0.005323254218582705,-0.03408628029144926,0.0,0.25506,0.1962,9.97677
4196969655,21.9,0.008517206749732328,-0.023439771854283843,0.0,0.41202000000000005,0.30411,9.87867
4202020160,21.9,0.003193952531149623,-0.003193952531149623,0.0,0.5395500000000001,0.30411,9.84924
4207070665,21.9,0.0,0.022375121010567305,0.0,0.34335000000000004,0.20601000000000003,9.81
4212121170,21.9,-0.001064650843716541,0.031956978604016174,0.0,0.20601000000000003,0.1962,9.87867
4217171675,21.9,0.0,0.02769837522915001,0.0,0.0,0.18639,9.937529999999999
4222222180,21.9,0.005323254218582705,-0.001064650843716541,0.0,-0.12753,0.26487,9.96696
4227272685,21.9,0.001064650843716541,-0.02663372438543347,0.0,0.05886,0.26487,9.97677
4232323190,21.9,-0.001064650843716541,-0.04366813788489812,0.0,0.22563,0.24525000000000002,9.83943
4237373695,21.9,-0.001064650843716541,-0.03834488366631542,0.0,0.49050000000000005,0.21582,9.82962
4242424200,21.9,-0.002129301687433082,-0.020245819323134222,0.0,0.69651,0.26487,9.760950000000001
4247474705,21.9,0.001064650843716541,-0.005323254218582705,0.0,0.70632,0.26487,9.72171
4252525210,21.9,0.0,0.004258603374866164,0.0,0.63765,0.23544,9.751140000000001
4257575715,21.9,-0.003193952531149623,0.00958185759344887,0.0,0.5493600000000001,0.18639,9.80019
4262626220,21.9,0.0,0.004258603374866164,0.0,0.50031,0.18639,9.83943
4267676725,21.9,0.002129301687433082,0.0,0.0,0.52974,0.24525000000000002,9.87867
4272727230,21.9,0.004258603374866164,0.003193952531149623,0.0,0.5591700000000001,0.27468000000000004,9.87867
4277777735,21.9,0.004258603374866164,0.013840460968315033,0.0,0.44145,0.25506,9.81
4282828240,21.9,0.0,0.01811651763570114,0.0,0.3924,0.23544,9.86886
4287878745,21.9,0.0,0.020245819323134222,0.0,0.25506,0.20601000000000003,9.82962
4292929250,21.9,0.001064650843716541,0.02663372438543347,0.0,0.11772,0.20601000000000003,9.89829
4297979755,21.9,0.0,0.005323254218582705,0.0,0.02943,0.1962,10.045440000000001
4303030260,21.9,0.001064650843716541,-0.012775810124598492,0.0,0.07848000000000001,0.21582,10.006200000000002
4308080765,21.9,0.004258603374866164,-0.022375121010567305,0.0,0.20601000000000003,0.26487,9.98658
4313131270,21.9,0.003193952531149623,-0.0170518667919846,0.0,0.33354000000000006,0.25506,9.89829
4318181775,21.9,-0.001064650843716541,-0.011711159280881954,0.0,0.31392000000000003,0.25506,9.86886
4323232280,21.9,-0.001064650843716541,-0.012775810124598492,0.0,0.44145,0.23544,9.85905
4328282785,21.9,0.001064650843716541,-0.003193952531149623,0.0,0.44145,0.20601000000000003,9.80019
4333333290,21.9,0.004258603374866164,0.007452555906015787,0.0,0.37278,0.22563,9.83943
4338383795,21.9,0.001064650843716541,0.008517206749732328,0.0,0.33354000000000006,0.1962,9.87867
4343434300,21.9,-0.001064650843716541,0.005323254218582705,0.0,0.30411,0.24525000000000002,9.908100000000001
4348484805,21.9,0.004258603374866164,-0.00958185759344887,0.0,0.26487,0.36297,9.91791
4353535310,21.9,0.002129301687433082,-0.02982767691658309,0.0,0.46107000000000004,0.30411,9.85905
4358585815,21.9,-0.003193952531149623,-0.02556907354171693,0.0,0.60822,0.16677000000000003,9.74133
4363636320,21.9,-0.007452555906015787,0.0,0.0,0.71613,0.0981,9.72171
4368686825,21.9,-0.001064650843716541,0.02982767691658309,0.0,0.46107000000000004,0.16677000000000003,9.770760000000001
4373737330,21.9,0.013840460968315033,0.02663372438543347,0.0,0.30411,0.37278,9.86886
4378787835,21.9,0.00958185759344887,0.02556907354171693,0.0,0.27468000000000004,0.34335000000000004,9.87867
4383838340,21.9,-0.001064650843716541,0.02663372438543347,0.0,0.0981,0.17658,9.888480000000001
4388888845,21.9,-0.004258603374866164,0.01811651763570114,0.0,-0.16677000000000003,0.16677000000000003,9.92772
4393939350,21.9,0.0,-0.0170518667919846,0.0,-0.10791,0.27468000000000004,9.96696
4398989855,21.9,0.004258603374866164,-0.03089232776029963,0.0,0.17658,0.3924,9.85905
4404040360,21.9,0.001064650843716541,-0.04581489286485115,0.0,0.41202000000000005,0.34335000000000004,9.888480000000001
4409090865,21.9,-0.008517206749732328,-0.05646140130201656,0.0,0.65727,0.0981,9.888480000000001
4414141370,21.9,-0.013840460968315033,-0.02663372438543347,0.0,0.7848,-0.019620000000000002,9.81
4419191875,21.9,0.002129301687433082,0.007452555906015787,0.0,0.7749900000000001,0.11772,9.87867
4424242380,21.9,0.013840460968315033,0.022375121010567305,0.0,0.74556,0.35316,9.92772
4429292885,21.9,0.014905111812031574,0.022375121010567305,0.0,0.6180300000000001,0.41202000000000005,9.87867
4434343390,21.9,0.002129301687433082,0.020245819323134222,0.0,0.50031,0.34335000000000004,9.89829
4439393895,21.9,-0.004258603374866164,0.023439771854283843,0.0,0.34335000000000004,0.21582,9.80019
4444444400,21.9,-0.007452555906015787,0.015987215948268057,0.0,0.1962,0.0981,9.908100000000001
4449494905,21.9,-0.002129301687433082,0.00958185759344887,0.0,0.18639,0.07848000000000001,9.91791
4454545410,21.9,0.004258603374866164,0.015987215948268057,0.0,0.06867000000000001,0.15696000000000002,9.89829
4459595915,21.9,0.011711159280881954,0.01811651763570114,0.0,-0.019620000000000002,0.34335000000000004,9.908100000000001
4464646420,21.9,0.014905111812031574,0.007452555906015787,0.0,0.0,0.3924,9.92772
4469696925,21.9,0.002129301687433082,0.011711159280881954,0.0,-0.06867000000000001,0.28449,9.82962
4474747430,21.9,-0.001064650843716541,0.004258603374866164,0.0,-0.38259000000000004,0.27468000000000004,9.84924
4479797935,21.9,-0.003193952531149623,-0.02982767691658309,0.0,-0.20601000000000003,0.27468000000000004,9.89829
4484848440,21.9,-0.006387905062299246,-0.060720004676882725,0.0,0.21582,0.31392000000000003,9.81
4489898945,21.9,-0.005323254218582705,-0.08415977653116657,0.0,0.63765,0.13734000000000002,9.86886
4494949450,21.9,-0.011711159280881954,-0.054332099614583476,0.0,0.9221400000000001,0.0981,9.74133
4499999955,21.9,-0.002129301687433082,-0.02982767691658309,0.0,1.1870100000000001,0.1962,9.79038
4505050460,21.9,0.006387905062299246,-0.002129301687433082,0.0,1.39302,0.34335000000000004,9.760950000000001
4510100965,21.9,0.015987215948268057,0.028763026072866547,0.0,1.05948,0.40221,9.74133
4515151470,21.9,0.0,0.031956978604016174,0.0,0.7651800000000001,0.25506,9.80019
4520201975,21.9,-0.00958185759344887,0.04366813788489812,0.0,0.57879,0.07848000000000001,9.79038
4525252480,21.9,-0.006387905062299246,0.05646140130201656,0.0,0.38259000000000004,0.039240000000000004,9.87867
4530302985,21.9,0.004258603374866164,0.05113814708343386,0.0,0.08829,0.13734000000000002,10.006200000000002
4535353490,21.9,0.012775810124598492,0.05007349623971732,0.0,-0.0981,0.20601000000000003,10.025820000000001
4540403995,21.9,0.012775810124598492,0.04153883619746504,0.0,-0.38259000000000004,0.30411,10.074869999999999
4545454500,21.9,0.01064650843716541,0.033021629447732716,0.0,-0.57879,0.41202000000000005,9.97677
4550505005,21.9,0.004258603374866164,0.0,0.0,-0.6670800000000001,0.32373,10.074869999999999
4555555510,21.9,-0.006387905062299246,-0.023439771854283843,0.0,-0.56898,0.23544,9.92772
4560606015,21.9,-0.011711159280881954,-0.054332099614583476,0.0,-0.36297,0.21582,9.937529999999999
4565656520,21.9,-0.00958185759344887,-0.09906488834319814,0.0,0.15696000000000002,0.21582,9.97677
4570707025,21.9,-0.001064650843716541,-0.11505210429146619,0.0,0.71613,0.26487,9.85905
4575757530,21.9,-0.001064650843716541,-0.10545279340549739,0.0,1.40283,0.22563,9.78057
4580808035,21.9,-0.005323254218582705,-0.04794419455228423,0.0,1.58922,0.0981,9.65304
4585858540,21.9,-0.001064650843716541,0.003193952531149623,0.0,1.4813100000000001,0.25506,9.66285
4590909045,21.9,0.00958185759344887,0.05539675045830002,0.0,1.43226,0.42183,9.57456
4595959550,21.9,0.008517206749732328,0.08203047484373349,0.0,1.03986,0.2943,9.56475
4601010055,21.9,-0.003193952531149623,0.08948303074974927,0.0,0.45126,0.20601000000000003,9.770760000000001
4606060560,21.9,-0.001064650843716541,0.07136651311404815,0.0,0.019620000000000002,0.08829,9.82962
4611111065,21.9,-0.001064650843716541,0.05539675045830002,0.0,-0.15696000000000002,0.15696000000000002,9.98658
4616161570,21.9,0.01064650843716541,0.031956978604016174,0.0,-0.3924,0.2943,9.98658
4621212075,21.9,0.008517206749732328,0.006387905062299246,0.0,-0.33354000000000006,0.32373,10.074869999999999
4626262580,21.9,0.001064650843716541,-0.001064650843716541,0.0,-0.40221,0.28449,9.98658
4631313085,21.9,-0.005323254218582705,-0.00958185759344887,0.0,-0.26487,0.21582,9.92772
4636363590,21.9,-0.003193952531149623,-0.02556907354171693,0.0,-0.33354000000000006,0.27468000000000004,9.96696
4641414095,21.9,0.0,-0.06178465552059926,0.0,-0.019620000000000002,0.1962,9.96696
4646464600,21.9,-0.005323254218582705,-0.054332099614583476,0.0,0.18639,0.1962,9.86886
4651515105,21.9,-0.002129301687433082,-0.06817256058289851,0.0,0.5591700000000001,0.21582,9.95715
4656565610,21.9,-0.003193952531149623,-0.054332099614583476,0.0,1.15758,0.28449,9.86886
4661616115,21.9,0.0,-0.039409534510031964,0.0,1.31454,0.26487,9.84924
4666666620,21.9,0.0,-0.007452555906015787,0.0,1.50093,0.16677000000000003,9.760950000000001
4671717125,21.9,0.005323254218582705,0.03728023282259888,0.0,1.00062,0.1962,9.66285
4676767630,21.9,0.008517206749732328,0.06604325889546543,0.0,0.7651800000000001,0.23544,9.7119
4681818135,21.9,0.006387905062299246,0.09693558665576507,0.0,0.44145,0.33354000000000006,9.74133
4686868640,21.9,0.011711159280881954,0.07670722062515077,0.0,-0.1962,0.28449,9.91791
4691919145,21.9,0.004258603374866164,0.04366813788489812,0.0,-0.5395500000000001,0.2943,10.006200000000002
4696969650,21.9,0.002129301687433082,-0.013840460968315033,0.0,-0.60822,0.27468000000000004,10.01601
4702020155,21.9,-0.008517206749732328,-0.046879543708567686,0.0,-0.16677000000000003,0.25506,9.96696
4707070660,21.9,-0.004258603374866164,-0.05859070298944965,0.0,0.0981,0.20601000000000003,9.82962
4712121165,21.9,-0.008517206749732328,-0.07030186227033158,0.0,0.45126,0.16677000000000003,9.89829
4717171670,21.9,-0.003193952531149623,-0.04794419455228423,0.0,0.6867000000000001,0.22563,9.72171
4722222175,21.9,0.001064650843716541,-0.02769837522915001,0.0,0.8240400000000001,0.26487,9.760950000000001
4727272680,21.9,0.0,0.003193952531149623,0.0,1.05948,0.27468000000000004,9.74133
4732323185,21.9,-0.002129301687433082,0.01918116847941768,0.0,0.9123300000000001,0.0981,9.82962
4737373690,21.9,0.001064650843716541,0.044732788728614664,0.0,0.6278400000000001,0.14715,9.82962
4742424195,21.9,0.014905111812031574,0.05007349623971732,0.0,0.16677000000000003,0.34335000000000004,9.888480000000001
4747474700,21.9,0.00958185759344887,0.04366813788489812,0.0,0.16677000000000003,0.38259000000000004,9.92772
4752525205,21.9,0.004258603374866164,0.02982767691658309,0.0,-0.039240000000000004,0.2943,9.87867
4757575710,21.9,-0.007452555906015787,0.014905111812031574,0.0,-0.04905,0.13734000000000002,9.91791
4762626215,21.9,-0.006387905062299246,0.020245819323134222,0.0,-0.30411,0.16677000000000003,9.888480000000001
4767676720,21.9,0.001064650843716541,-0.0170518667919846,0.0,-0.12753,0.25506,10.03563
4772727225,21.9,0.005323254218582705,-0.049008845396000776,0.0,-0.13734000000000002,0.40221,9.98658
4777777730,21.9,0.004258603374866164,-0.09693558665576507,0.0,0.35316,0.41202000000000005,9.99639
4782828235,21.9,-0.008517206749732328,-0.09374163412461543,0.0,0.87309,0.31392000000000003,9.84924
4787878740,21.9,-0.01064650843716541,-0.07990117315630041,0.0,1.39302,0.04905,9.81
4792929245,21.9,-0.013840460968315033,-0.01811651763570114,0.0,1.5303600000000002,0.0,9.72171
4797979750,21.9,0.004258603374866164,0.023439771854283843,0.0,1.39302,0.10791,9.760950000000001
4803030255,21.9,0.014905111812031574,0.08309512568745003,0.0,1.1183400000000001,0.30411,9.60399
4808080760,21.9,0.024504422698000388,0.11079350091660004,0.0,0.36297,0.33354000000000006,9.74133
4813131265,21.9,0.011711159280881954,0.13955652698946658,0.0,-0.13734000000000002,0.27468000000000004,9.80019
4818181770,21.9,0.004258603374866164,0.11931070766633237,0.0,-1.03005,0.20601000000000003,9.99639
4823232275,21.9,0.005323254218582705,0.05965535383316618,0.0,-1.39302,0.32373,10.1043
4828282780,21.9,0.005323254218582705,-0.021310470166850764,0.0,-1.45188,0.43164,10.2024
4833333285,21.9,-0.003193952531149623,-0.10119419003063122,0.0,-0.9613800000000001,0.41202000000000005,9.99639
4838383790,21.9,-0.024504422698000388,-0.1480737337391989,0.0,-0.02943,0.16677000000000003,9.98658
4843434295,21.9,-0.02769837522915001,-0.15126768627034853,0.005323254218582705,0.7848,0.009810000000000001,9.74133
4848484800,21.9,-0.01064650843716541,-0.12356931104119852,0.001064650843716541,1.3635900000000003,0.05886,9.78057
4853535305,21.9,0.006387905062299246,-0.06391395720803235,0.0,1.83447,0.21582,9.68247
4858585810,21.9,0.020245819323134222,-0.021310470166850764,-0.001064650843716541,1.75599,0.42183,9.82962
4863636315,21.9,0.0170518667919846,0.006387905062299246,0.0,1.74618,0.50031,9.74133
4868686820,21.9,-0.005323254218582705,0.049008845396000776,0.0,1.3734000000000002,0.31392000000000003,9.60399
4873737325,21.9,-0.020245819323134222,0.09374163412461543,-0.001064650843716541,1.2556800000000001,-0.13734000000000002,9.50589
4878787830,21.9,-0.008517206749732328,0.13955652698946658,-0.003193952531149623,0.44145,-0.21582,9.82962
4883838335,21.9,0.01811651763570114,0.13634512116579703,-0.001064650843716541,-0.15696000000000002,0.17658,10.01601
4888888840,21.9,0.033021629447732716,0.13102186694721432,-0.003193952531149623,-0.8829,0.56898,9.98658
4893939345,21.9,0.03089232776029963,0.07030186227033158,-0.001064650843716541,-1.26549,0.59841,10.212209999999999
4898989850,21.9,0.006387905062299246,0.003193952531149623,0.001064650843716541,-1.6186500000000001,0.51012,10.12392
4904040355,21.9,-0.024504422698000388,-0.07777187146886733,0.001064650843716541,-1.1870100000000001,0.20601000000000003,10.17297
4909090860,21.9,-0.03621558197888234,-0.13849187614575004,0.003193952531149623,-0.41202000000000005,0.0,10.17297
4914141365,21.9,-0.013840460968315033,-0.17257815643719931,0.003193952531149623,0.3924,0.07848000000000001,9.937529999999999
4919191870,21.9,-0.003193952531149623,-0.16404349639494703,0.003193952531149623,1.3832099999999998,0.13734000000000002,9.87867
4924242375,21.9,0.001064650843716541,-0.09054768159346581,0.0,1.71675,0.16677000000000003,9.57456
4929292880,21.9,0.007452555906015787,0.0,0.0,1.9620000000000002,0.31392000000000003,9.633420000000001
4934343385,21.9,0.013840460968315033,0.06604325889546543,-0.002129301687433082,1.5794100000000002,0.43164,9.46665
4939393890,21.9,-0.003193952531149623,0.1480737337391989,-0.002129301687433082,1.10853,0.1962,9.37836
4944444395,21.9,0.002129301687433082,0.15339698795778162,-0.003193952531149623,-0.08829,0.019620000000000002,9.81
4949494900,21.9,0.01064650843716541,0.12250466019748199,0.0,-0.80442,0.41202000000000005,10.01601
4954545405,21.9,0.013840460968315033,0.020245819323134222,0.0,-0.90252,0.59841,10.15335
4959595910,21.9,0.007452555906015787,-0.08628907821859966,0.0,-0.43164,0.49050000000000005,10.163160000000001
4964646415,21.9,-0.014905111812031574,-0.13421581947836395,0.0,0.08829,0.22563,9.92772
4969696920,21.9,-0.03621558197888234,-0.14062117783318315,0.002129301687433082,1.04967,-0.039240000000000004,9.819809999999999
4974747425,21.9,-0.022375121010567305,-0.09267698328089889,0.001064650843716541,1.4813100000000001,-0.1962,9.751140000000001
4979797930,21.9,0.00958185759344887,-0.005323254218582705,0.001064650843716541,1.78542,0.07848000000000001,9.66285
4984848435,21.9,0.02982767691658309,0.08948303074974927,-0.001064650843716541,1.40283,0.38259000000000004,9.64323
4989898940,21.9,0.02663372438543347,0.15659094048893124,0.0,0.71613,0.40221,9.69228
4994949445,21.9,0.008517206749732328,0.18109536318693162,-0.003193952531149623,-0.37278,0.21582,9.95715
4999999950,21.9,0.007452555906015787,0.15126768627034853,-0.003193952531149623,-1.3635900000000003,0.25506,10.025820000000001
5005050455,21.9,0.007452555906015787,0.05646140130201656,-0.001064650843716541,-1.73637,0.3924,10.31031
5010100960,21.9,0.006387905062299246,-0.05965535383316618,0.002129301687433082,-1.68732,0.47088,10.182780000000001
5015151465,21.9,-0.011711159280881954,-0.150203035426632,0.003193952531149623,-0.7651800000000001,0.43164,10.11411
5020201970,21.9,-0.021310470166850764,-0.19600047499896323,0.004258603374866164,0.20601000000000003,0.17658,9.95715
5025252475,21.9,-0.02556907354171693,-0.19280652246781357,0.004258603374866164,1.34397,-0.08829,9.85905
5030302980,21.9,-0.0170518667919846,-0.13849187614575004,0.002129301687433082,1.85409,-0.13734000000000002,9.80019
5035353485,21.9,0.014905111812031574,-0.046879543708567686,0.001064650843716541,2.14839,0.16677000000000003,9.7119
5040403990,21.9,0.03089232776029963,0.022375121010567305,-0.001064650843716541,2.1287700000000003,0.59841,9.6138
5045454495,21.9,0.0170518667919846,0.0852244273748831,-0.001064650843716541,1.6775100000000003,0.73575,9.34893
5050505000,21.9,-0.004258603374866164,0.1352804703220805,0.0,1.2556800000000001,0.08829,9.29007
5055555505,21.9,-0.02982767691658309,0.19280652246781357,-0.003193952531149623,-0.019620000000000002,-0.18639,9.60399
5060606010,21.9,-0.008517206749732328,0.14913838458291545,-0.004258603374866164,-0.75537,0.019620000000000002,10.15335
5065656515,21.9,0.03834488366631542,0.06497860805174888,-0.001064650843716541,-1.15758,0.38259000000000004,10.24164
5070707020,21.9,0.03515093113516579,-0.013840460968315033,0.0,-1.04967,0.7848,10.25145
5075757525,21.9,-0.003193952531149623,-0.07777187146886733,0.0,-0.59841,0.6180300000000001,10.06506
5080808030,21.9,-0.031956978604016174,-0.11398745344774965,0.001064650843716541,-0.019620000000000002,0.039240000000000004,9.937529999999999
5085858535,21.9,-0.03408628029144926,-0.10225884087434776,0.002129301687433082,0.43164,-0.21582,9.81
5090909040,21.9,-0.007452555906015787,-0.06604325889546543,0.002129301687433082,0.8829,0.0,9.81
5095959545,21.9,0.020245819323134222,-0.012775810124598492,-0.001064650843716541,1.05948,0.25506,9.760950000000001
5101010050,21.9,0.024504422698000388,0.03728023282259888,0.001064650843716541,0.8829,0.41202000000000005,9.72171
5106060555,21.9,0.006387905062299246,0.07777187146886733,0.001064650843716541,0.46107000000000004,0.32373,9.760950000000001
5111111060,21.9,0.0,0.07990117315630041,-0.001064650843716541,-0.039240000000000004,0.23544,9.87867
5116161565,21.9,-0.002129301687433082,0.03515093113516579,0.0,-0.35316,0.2943,10.025820000000001
5121212070,21.9,0.0,-0.02982767691658309,0.0,-0.20601000000000003,0.42183,10.06506
5126262575,21.9,-0.001064650843716541,-0.09267698328089889,0.001064650843716541,0.18639,0.3924,10.006200000000002
5131313080,21.9,-0.00958185759344887,-0.1288925652597812,0.004258603374866164,0.9123300000000001,0.2943,9.908100000000001
5136363585,21.9,-0.014905111812031574,-0.11931070766633237,0.002129301687433082,1.60884,-0.039240000000000004,9.79038
5141414090,21.9,-0.011711159280881954,-0.03834488366631542,0.0,1.7658,-0.039240000000000004,9.69228
5146464595,21.9,0.001064650843716541,0.04581489286485115,-0.001064650843716541,1.78542,0.039240000000000004,9.633420000000001
5151515100,21.9,0.015987215948268057,0.14913838458291545,-0.002129301687433082,1.1772,0.12753,9.33912
5156565605,21.9,0.033021629447732716,0.20772908757236508,-0.005323254218582705,0.07848000000000001,0.37278,9.751140000000001
5161616110,21.9,0.031956978604016174,0.20772908757236508,-0.005323254218582705,-1.15758,0.5395500000000001,9.91791
5166666615,21.9,0.01064650843716541,0.13208651779093086,-0.002129301687433082,-1.8639000000000001,0.59841,10.143540000000002
5171717120,21.9,0.0,0.005323254218582705,0.002129301687433082,-2.13858,0.5395500000000001,10.35936
5176767625,21.9,-0.008517206749732328,-0.13634512116579703,0.002129301687433082,-1.79523,0.40221,10.212209999999999
5181818130,21.9,-0.03408628029144926,-0.23862141533266473,0.003193952531149623,-0.41202000000000005,0.20601000000000003,10.1043
5186868635,21.9,-0.044732788728614664,-0.26738444140553125,0.005323254218582705,1.05948,-0.25506,9.85905
5191919140,21.9,-0.028763026072866547,-0.19493582415524666,0.002129301687433082,2.00124,-0.31392000000000003,9.64323
5196969645,21.9,0.020245819323134222,-0.09693558665576507,-0.001064650843716541,2.4426900000000002,0.0981,9.83943
5202020150,21.9,0.05326744877086694,0.020245819323134222,-0.001064650843716541,2.36421,0.75537,9.40779
5207070655,21.9,0.02769837522915001,0.15765559133264778,-0.004258603374866164,1.8442800000000001,1.02024,9.26064
5212121160,21.9,-0.013840460968315033,0.21198769094723127,-0.001064650843716541,0.9221400000000001,0.019620000000000002,9.30969
5217171665,21.9,-0.031956978604016174,0.20985838925979816,0.001064650843716541,-0.65727,-0.31392000000000003,9.819809999999999
5222222170,21.9,-0.00958185759344887,0.08841837990603273,0.001064650843716541,-1.0791000000000002,0.16677000000000003,10.48689
5227272675,21.9,0.03621558197888234,-0.02556907354171693,0.001064650843716541,-0.84366,0.44145,10.27107
5232323180,21.9,0.02556907354171693,-0.10332349171806432,0.0,-0.16677000000000003,0.5591700000000001,10.33974
5237373685,21.9,-0.01918116847941768,-0.12037535851004891,0.001064650843716541,0.5886,0.37278,9.937529999999999
5242424190,21.9,-0.031956978604016174,-0.08415977653116657,0.0,1.15758,-0.039240000000000004,9.68247
5247474695,21.9,-0.0170518667919846,-0.008517206749732328,0.0,1.21644,-0.25506,9.68247
5252525200,21.9,0.007452555906015787,0.09054768159346581,-0.002129301687433082,0.75537,-0.10791,9.58437
5257575705,21.9,0.02663372438543347,0.1480737337391989,0.0,0.13734000000000002,0.32373,9.751140000000001
5262626210,21.9,0.04366813788489812,0.14275047952061623,-0.001064650843716541,-0.9319500000000001,0.6768900000000001,9.94734
5267676715,21.9,0.024504422698000388,0.06710790973918197,0.0,-1.3734000000000002,0.84366,10.13373
5272727220,21.9,-0.01064650843716541,-0.05220279792715039,0.002129301687433082,-1.26549,0.5591700000000001,10.23183
5277777725,21.9,-0.04153883619746504,-0.15659094048893124,0.003193952531149623,-0.43164,-0.039240000000000004,10.05525
5282828230,21.9,-0.05007349623971732,-0.19493582415524666,0.004258603374866164,0.50031,-0.23544,9.91791
5287878735,21.9,-0.013840460968315033,-0.1800307123432151,0.001064650843716541,1.6186500000000001,-0.24525000000000002,9.770760000000001
5292929240,21.9,0.015987215948268057,-0.09161233243718235,0.0,1.9325700000000001,0.22563,9.69228
5297979745,21.9,0.03515093113516579,0.008517206749732328,-0.001064650843716541,2.05029,0.73575,9.64323
5303030250,21.9,0.023439771854283843,0.0852244273748831,-0.001064650843716541,1.6284600000000002,0.73575,9.40779
5308080755,21.9,-0.005323254218582705,0.14062117783318315,-0.001064650843716541,1.01043,0.17658,9.39798
5313131260,21.9,-0.028763026072866547,0.14487978120804929,-0.001064650843716541,0.23544,-0.18639,9.74133
5318181765,21.9,-0.013840460968315033,0.10332349171806432,0.0,-0.40221,-0.07848000000000001,10.11411
5323232270,21.9,0.021310470166850764,0.03408628029144926,-0.002129301687433082,-0.56898,0.22563,10.13373
5328282775,21.9,0.03621558197888234,-0.0170518667919846,0.0,-0.45126,0.71613,10.163160000000001
5333333280,21.9,0.012775810124598492,-0.054332099614583476,0.001064650843716541,-0.05886,0.75537,9.937529999999999
5338383785,21.9,-0.020245819323134222,-0.05539675045830002,0.002129301687433082,0.22563,0.18639,9.89829
5343434290,21.9,-0.03834488366631542,-0.01811651763570114,0.0,0.35316,-0.33354000000000006,9.81
5348484795,21.9,-0.020245819323134222,0.020245819323134222,0.0,0.2943,-0.31392000000000003,9.84924
5353535300,21.9,0.023439771854283843,0.05007349623971732,-0.001064650843716541,0.04905,0.26487,9.85905
5358585805,21.9,0.049008845396000776,0.039409534510031964,-0.001064650843716541,-0.31392000000000003,0.74556,9.99639
5363636310,21.9,0.024504422698000388,0.015987215948268057,0.001064650843716541,-0.50031,0.7749900000000001,9.95715
5368686815,21.9,-0.015987215948268057,-0.03728023282259888,0.002129301687433082,-0.31392000000000003,0.43164,9.98658
5373737320,21.9,-0.033021629447732716,-0.08735372906231618,0.003193952531149623,-0.019620000000000002,0.07848000000000001,9.95715
5378787825,21.9,-0.02663372438543347,-0.1278279144160647,0.002129301687433082,0.6278400000000001,-0.019620000000000002,9.95715
5383838330,21.9,-0.007452555906015787,-0.1288925652597812,0.001064650843716541,1.42245,0.0,9.888480000000001
5388888835,21.9,0.003193952531149623,-0.09054768159346581,0.001064650843716541,1.79523,0.21582,9.80019
5393939340,21.9,0.020245819323134222,-0.04366813788489812,0.0,2.1287700000000003,0.42183,9.83943
5398989845,21.9,0.02663372438543347,0.03515093113516579,-0.002129301687433082,1.8442800000000001,0.52974,9.496080000000001
5404040350,21.9,-0.005323254218582705,0.13955652698946658,-0.001064650843716541,1.4813100000000001,0.16677000000000003,9.29007
5409090855,21.9,-0.03089232776029963,0.22582815191554628,-0.001064650843716541,0.35316,-0.17658,9.32931
5414141360,21.9,0.003193952531149623,0.20985838925979816,-0.002129301687433082,-1.03005,0.11772,10.01601
5419191865,21.9,0.046879543708567686,0.11079350091660004,0.0,-1.68732,0.5886,10.25145
5424242370,21.9,0.03728023282259888,-0.002129301687433082,0.001064650843716541,-1.6775100000000003,0.87309,10.32993
5429292875,21.9,-0.01064650843716541,-0.09800023749948161,0.002129301687433082,-1.24587,0.5591700000000001,10.163160000000001
5434343380,21.9,-0.04366813788489812,-0.15126768627034853,0.005323254218582705,-0.5591700000000001,-0.04905,10.074869999999999
5439393885,21.9,-0.044732788728614664,-0.1629788455512305,0.001064650843716541,0.30411,-0.26487,9.908100000000001
5444444390,21.9,-0.014905111812031574,-0.13955652698946658,0.002129301687433082,1.1772,-0.10791,9.81
5449494895,21.9,0.013840460968315033,-0.054332099614583476,0.001064650843716541,1.5794100000000002,0.23544,9.59418
5454545400,21.9,0.022375121010567305,0.03408628029144926,0.0,1.54017,0.46107000000000004,9.53532
5459595905,21.9,0.01811651763570114,0.09267698328089889,0.0,0.95157,0.51012,9.623610000000001
5464646410,21.9,0.00958185759344887,0.09693558665576507,0.0,0.28449,0.47088,9.87867
5469696915,21.9,-0.008517206749732328,0.0404741853537485,0.0,-0.04905,0.32373,10.11411
5474747420,21.9,-0.01811651763570114,-0.03621558197888234,0.0,0.039240000000000004,0.14715,10.15335
5479797925,21.9,-0.013840460968315033,-0.11185815176031658,0.003193952531149623,0.59841,0.06867000000000001,10.143540000000002
5484848430,21.9,-0.005323254218582705,-0.10653489754173388,0.0,1.3243500000000001,0.20601000000000003,9.81
5489898935,21.9,0.0,-0.04260348704118158,0.0,1.9325700000000001,0.18639,9.72171
5494949440,21.9,0.006387905062299246,0.06284930636431581,-0.002129301687433082,1.50093,0.12753,9.50589
5499999945,21.9,0.006387905062299246,0.15339698795778162,-0.001064650843716541,0.7749900000000001,0.11772,9.57456
5505050450,21.9,0.01918116847941768,0.21092304010351473,-0.003193952531149623,-0.37278,0.30411,9.66285
5510100955,21.9,0.028763026072866547,0.1629788455512305,-0.001064650843716541,-1.4715,0.45126,10.08468
5515151460,21.9,0.014905111812031574,0.07243116395776468,0.0,-1.95219,0.5591700000000001,10.22202
5520201965,21.9,-0.007452555906015787,-0.05220279792715039,0.004258603374866164,-1.83447,0.46107000000000004,10.320120000000001
5525252470,21.9,-0.02663372438543347,-0.15339698795778162,0.006387905062299246,-1.00062,0.30411,10.12392
5530302975,21.9,-0.02663372438543347,-0.21198769094723127,0.004258603374866164,0.15696000000000002,0.0981,9.98658
5535353480,21.9,-0.02982767691658309,-0.18641861740551433,0.001064650843716541,1.2753,-0.02943,9.66285
5540403985,21.9,-0.014905111812031574,-0.09267698328089889,0.002129301687433082,1.9227600000000002,-0.08829,9.55494
5545454490,21.9,0.015987215948268057,0.001064650843716541,0.0,1.71675,0.18639,9.60399
5550504995,21.9,0.03089232776029963,0.08735372906231618,-0.002129301687433082,1.42245,0.59841,9.48627
5555555500,21.9,0.014905111812031574,0.12463396188491506,0.001064650843716541,0.8338500000000001,0.5395500000000001,9.69228
5560606005,21.9,0.0,0.10438814256178083,-0.001064650843716541,0.06867000000000001,0.31392000000000003,10.006200000000002
5565656510,21.9,-0.00958185759344887,0.01918116847941768,-0.001064650843716541,-0.25506,0.16677000000000003,10.182780000000001
5570707015,21.9,-0.011711159280881954,-0.05859070298944965,0.0,0.12753,0.30411,10.12392
5575757520,21.9,-0.007452555906015787,-0.10759954838545042,0.0,0.95157,0.26487,9.99639
5580808025,21.9,-0.002129301687433082,-0.07990117315630041,0.0,1.2360600000000002,0.02943,9.7119
5585858530,21.9,-0.007452555906015787,0.012775810124598492,-0.001064650843716541,1.31454,-0.039240000000000004,9.57456
5590909035,21.9,0.004258603374866164,0.10225884087434776,0.0,0.9123300000000001,0.11772,9.633420000000001
5595959540,21.9,0.031956978604016174,0.16831955306233315,-0.002129301687433082,-0.039240000000000004,0.3924,9.751140000000001
5601010045,21.9,0.031956978604016174,0.15659094048893124,-0.001064650843716541,-1.05948,0.51012,10.06506
5606060550,21.9,0.00958185759344887,0.07777187146886733,0.001064650843716541,-1.6284600000000002,0.46107000000000004,10.17297
5611111055,21.9,-0.01064650843716541,-0.022375121010567305,-0.001064650843716541,-1.5990300000000002,0.3924,10.22202
5616161560,21.9,-0.022375121010567305,-0.1331511686346474,0.002129301687433082,-0.9810000000000001,0.27468000000000004,10.163160000000001
5621212065,21.9,-0.022375121010567305,-0.18961256993666398,0.002129301687433082,0.02943,0.16677000000000003,9.87867
5626262570,21.9,-0.02556907354171693,-0.18428931571808121,0.003193952531149623,1.2360600000000002,-0.039240000000000004,9.819809999999999
5631313075,21.9,-0.012775810124598492,-0.10119419003063122,0.002129301687433082,1.6775100000000003,-0.16677000000000003,9.59418
5636363580,21.9,0.007452555906015787,0.008517206749732328,-0.002129301687433082,1.6775100000000003,0.23544,9.6138
5641414085,21.9,0.023439771854283843,0.08735372906231618,0.0,1.4813100000000001,0.44145,9.70209
5646464590,21.9,0.024504422698000388,0.12995721610349775,-0.001064650843716541,0.70632,0.41202000000000005,9.65304
5651515095,21.9,0.003193952531149623,0.10759954838545042,0.0,-0.02943,0.46107000000000004,9.98658
5656565600,21.9,-0.004258603374866164,0.01811651763570114,-0.002129301687433082,-0.32373,0.44145,9.98658
5661616105,21.9,-0.006387905062299246,-0.07990117315630041,0.001064650843716541,0.0981,0.28449,10.08468
5666666610,21.9,-0.0170518667919846,-0.10759954838545042,0.001064650843716541,0.44145,0.04905,9.80019
5671717115,21.9,-0.02663372438543347,-0.07030186227033158,0.001064650843716541,1.22625,0.0,9.760950000000001
5676767620,21.9,-0.008517206749732328,-0.015987215948268057,-0.001064650843716541,1.51074,-0.04905,9.78057
5681818125,21.9,0.015987215948268057,0.08415977653116657,-0.002129301687433082,1.22625,0.14715,9.58437
5686868630,21.9,0.02663372438543347,0.16191419470751395,-0.001064650843716541,0.36297,0.32373,9.74133
5691919135,21.9,0.023439771854283843,0.19493582415524666,-0.003193952531149623,-0.7749900000000001,0.40221,9.79038
5696969640,21.9,0.00958185759344887,0.1352804703220805,0.0,-1.6677000000000002,0.49050000000000005,10.12392
5702020145,21.9,0.002129301687433082,0.014905111812031574,0.001064650843716541,-1.9914300000000003,0.57879,10.19259
5707070650,21.9,-0.008517206749732328,-0.11292280260403312,0.002129301687433082,-1.58922,0.52974,10.17297
5712121155,21.9,-0.03408628029144926,-0.2183755960095305,0.005323254218582705,-0.32373,0.16677000000000003,10.13373
5717171660,21.9,-0.04794419455228423,-0.23329816111408203,0.004258603374866164,0.9711900000000001,-0.24525000000000002,9.89829
5722222165,21.9,-0.028763026072866547,-0.16831955306233315,0.003193952531149623,1.9914300000000003,-0.40221,9.84924
5727272670,21.9,0.01918116847941768,-0.06710790973918197,0.0,2.08953,0.07848000000000001,9.84924
5732323175,21.9,0.046879543708567686,0.033021629447732716,-0.001064650843716541,1.9227600000000002,0.74556,9.60399
5737373680,21.9,0.031956978604016174,0.11185815176031658,-0.001064650843716541,1.51074,0.87309,9.43722
5742424185,21.9,-0.004258603374866164,0.14594443205176583,-0.004258603374866164,0.87309,0.40221,9.43722
5747474690,21.9,-0.024504422698000388,0.10225884087434776,0.001064650843716541,0.15696000000000002,-0.13734000000000002,9.908100000000001
5752525195,21.9,-0.020245819323134222,0.04581489286485115,0.0,-0.50031,-0.0981,10.08468
5757575700,21.9,-0.008517206749732328,-0.002129301687433082,-0.001064650843716541,-0.15696000000000002,0.13734000000000002,10.045440000000001
5762626205,21.9,0.014905111812031574,-0.02769837522915001,-0.004258603374866164,0.20601000000000003,0.36297,10.08468
5767676710,21.9,0.0170518667919846,-0.0170518667919846,-0.001064650843716541,0.35316,0.50031,9.82962
5772727215,21.9,0.001064650843716541,0.02769837522915001,-0.001064650843716541,0.36297,0.38259000000000004,9.73152
5777777720,21.9,-0.014905111812031574,0.0756251164889143,0.0,-0.11772,0.039240000000000004,9.7119
5782828225,21.9,-0.011711159280881954,0.09480628496833199,-0.001064650843716541,-0.7651800000000001,0.06867000000000001,9.81
5787878730,21.9,0.01064650843716541,0.04153883619746504,0.0,-1.16739,0.3924,10.01601
5792929235,21.9,0.01918116847941768,-0.03515093113516579,0.0,-1.04967,0.59841,10.01601
5797979740,21.9,-0.004258603374866164,-0.12995721610349775,0.002129301687433082,-0.47088,0.45126,10.09449
5803030245,21.9,-0.03408628029144926,-0.15872024217636432,0.004258603374866164,0.50031,0.0981,9.908100000000001
5808080750,21.9,-0.03515093113516579,-0.15126768627034853,0.001064650843716541,1.3832099999999998,-0.16677000000000003,9.84924
5813131255,21.9,-0.006387905062299246,-0.09161233243718235,0.001064650843716541,1.9325700000000001,-0.10791,9.81
5818181760,21.9,0.024504422698000388,0.0,0.0,1.88352,0.36297,9.73152
5823232265,21.9,0.03089232776029963,0.05859070298944965,0.0,1.75599,0.6768900000000001,9.72171
5828282770,21.9,0.00958185759344887,0.11292280260403312,0.0,1.16739,0.37278,9.42741
5833333275,21.9,-0.01064650843716541,0.11931070766633237,0.0,0.34335000000000004,0.04905,9.80019
5838383780,21.9,-0.01064650843716541,0.08628907821859966,0.0,-0.23544,0.10791,10.01601
5843434285,21.9,0.0,0.044732788728614664,-0.001064650843716541,-0.21582,0.17658,10.074869999999999
5848484790,21.9,0.011711159280881954,-0.01064650843716541,0.0,-0.23544,0.36297,10.19259
5853535295,21.9,0.012775810124598492,-0.033021629447732716,0.0,-0.10791,0.49050000000000005,9.92772
5858585800,21.9,-0.002129301687433082,-0.023439771854283843,-0.001064650843716541,0.13734000000000002,0.31392000000000003,9.82962
5863636305,21.9,-0.015987215948268057,0.014905111812031574,0.001064650843716541,0.07848000000000001,0.019620000000000002,9.64323
5868686810,21.9,-0.015987215948268057,0.0404741853537485,0.002129301687433082,-0.13734000000000002,-0.06867000000000001,9.81
5873737315,21.9,0.002129301687433082,0.0404741853537485,0.0,-0.51012,0.1962,9.84924
5878787820,21.9,0.0170518667919846,0.020245819323134222,0.0,-0.63765,0.5886,9.84924
5883838325,21.9,0.013840460968315033,-0.03621558197888234,0.001064650843716541,-0.44145,0.6768900000000001,10.03563
5888888830,21.9,-0.01918116847941768,-0.08415977653116657,0.002129301687433082,0.0,0.33354000000000006,9.92772
5893939335,21.9,-0.03408628029144926,-0.11398745344774965,0.001064650843716541,0.51012,-0.009810000000000001,9.92772
5898989840,21.9,-0.02556907354171693,-0.11185815176031658,0.0,1.16739,-0.039240000000000004,9.82962
5904040345,21.9,0.0,-0.09054768159346581,0.0,1.6480800000000002,0.04905,9.82962
5909090850,21.9,0.01811651763570114,-0.054332099614583476,0.0,1.74618,0.37278,9.888480000000001
5914141355,21.9,0.01918116847941768,0.005323254218582705,0.0,1.9620000000000002,0.56898,9.70209
5919191860,21.9,0.007452555906015787,0.07990117315630041,-0.003193952531149623,1.6382700000000001,0.41202000000000005,9.48627
5924242365,21.9,-0.011711159280881954,0.15659094048893124,0.0,1.02024,-0.039240000000000004,9.42741
5929292870,21.9,-0.011711159280881954,0.18641861740551433,0.0,-0.05886,-0.2943,9.82962
5934343375,21.9,0.00958185759344887,0.16831955306233315,-0.002129301687433082,-1.05948,0.20601000000000003,10.09449
5939393880,21.9,0.033021629447732716,0.08841837990603273,-0.002129301687433082,-1.6382700000000001,0.72594,10.12392
5944444385,21.9,0.031956978604016174,-0.011711159280881954,0.0,-1.6284600000000002,0.8829,10.143540000000002
5949494890,21.9,-0.00958185759344887,-0.09480628496833199,0.002129301687433082,-1.1281500000000002,0.46107000000000004,10.074869999999999
5954545395,21.9,-0.05326744877086694,-0.1480737337391989,0.005323254218582705,-0.24525000000000002,-0.10791,9.98658
5959595900,21.9,-0.05007349623971732,-0.15765559133264778,0.004258603374866164,0.51012,-0.36297,9.94734
5964646405,21.9,-0.011711159280881954,-0.12356931104119852,0.0,1.2360600000000002,-0.14715,9.82962
5969696910,21.9,0.01811651763570114,-0.046879543708567686,0.0,1.69713,0.25506,9.68247
5974747415,21.9,0.033021629447732716,0.0404741853537485,-0.002129301687433082,1.45188,0.50031,9.58437
5979797920,21.9,0.015987215948268057,0.11505210429146619,-0.001064650843716541,0.87309,0.5886,9.59418
5984848425,21.9,0.004258603374866164,0.11505210429146619,-0.001064650843716541,0.18639,0.41202000000000005,9.84924
5989898930,21.9,-0.006387905062299246,0.06710790973918197,-0.001064650843716541,-0.31392000000000003,0.30411,10.01601
5994949435,21.9,-0.011711159280881954,-0.031956978604016174,0.0,-0.3924,0.21582,10.22202
5999999940,21.9,-0.01811651763570114,-0.10866419922916695,0.002129301687433082,0.27468000000000004,0.15696000000000002,10.13373
6005050445,21.9,-0.01064650843716541,-0.14381513036433274,0.001064650843716541,1.13796,0.04905,9.95715
6010100950,21.9,-0.003193952531149623,-0.09054768159346581,0.0,1.55979,0.039240000000000004,9.69228
6015151455,21.9,0.002129301687433082,0.007452555906015787,0.0,1.69713,0.26487,9.56475
6020201960,21.9,0.012775810124598492,0.10866419922916695,-0.002129301687433082,1.39302,0.21582,9.4176
6025252465,21.9,0.020245819323134222,0.20134118251006583,-0.003193952531149623,0.33354000000000006,0.18639,9.496080000000001
6030302970,21.9,0.013840460968315033,0.2236988502281132,-0.003193952531149623,-1.10853,0.35316,9.81
6035353475,21.9,0.011711159280881954,0.1480737337391989,-0.003193952531149623,-2.00124,0.49050000000000005,10.1043
6040403980,21.9,0.002129301687433082,0.014905111812031574,0.001064650843716541,-2.1582000000000003,0.5591700000000001,10.32993
6045454485,21.9,-0.011711159280881954,-0.13102186694721432,0.003193952531149623,-1.69713,0.52974,10.25145
6050504990,21.9,-0.031956978604016174,-0.2396860661763813,0.004258603374866164,-0.35316,0.25506,10.12392
6055555495,21.9,-0.044732788728614664,-0.2556558288321294,0.004258603374866164,1.08891,-0.11772,9.89829
6060606000,21.9,-0.031956978604016174,-0.177901410655782,0.0,2.10915,-0.33354000000000006,9.66285
6065656505,21.9,0.007452555906015787,-0.06497860805174888,0.0,2.2955400000000004,-0.019620000000000002,9.81
6070707010,21.9,0.039409534510031964,0.03728023282259888,-0.001064650843716541,2.1582000000000003,0.6278400000000001,9.52551
6075757515,21.9,0.033021629447732716,0.13102186694721432,-0.002129301687433082,1.60884,0.9221400000000001,9.42741
6080808020,21.9,-0.004258603374866164,0.16831955306233315,-0.001064650843716541,0.9613800000000001,0.26487,9.5157
6085858525,21.9,-0.023439771854283843,0.1555262896452147,0.0,-0.26487,-0.25506,9.98658
6090909030,21.9,-0.0170518667919846,0.07777187146886733,-0.001064650843716541,-0.6278400000000001,0.10791,10.40841
6095959535,21.9,0.011711159280881954,-0.014905111812031574,-0.002129301687433082,-0.52974,0.43164,10.2024
6101010040,21.9,0.023439771854283843,-0.07456046564519776,0.0,-0.15696000000000002,0.57879,10.074869999999999
6106060545,21.9,-0.007452555906015787,-0.0852244273748831,-0.001064650843716541,0.3924,0.38259000000000004,9.888480000000001
6111111050,21.9,-0.02982767691658309,-0.04153883619746504,0.001064650843716541,0.71613,0.019620000000000002,9.58437
6116161555,21.9,-0.021310470166850764,0.008517206749732328,0.001064650843716541,0.70632,-0.18639,9.73152
6121212060,21.9,0.008517206749732328,0.07883652231258387,0.0,0.23544,0.08829,9.67266
6126262565,21.9,0.024504422698000388,0.10225884087434776,-0.002129301687433082,-0.23544,0.43164,9.87867
6131313070,21.9,0.02663372438543347,0.07456046564519776,0.0,-0.79461,0.5591700000000001,9.97677
6136363575,21.9,0.002129301687433082,0.003193952531149623,0.001064650843716541,-1.1183400000000001,0.51012,10.01601
6141414080,21.9,-0.023439771854283843,-0.08203047484373349,0.002129301687433082,-0.65727,0.34335000000000004,10.08468
6146464585,21.9,-0.03515093113516579,-0.14381513036433274,0.002129301687433082,0.04905,0.0,9.937529999999999
6151515090,21.9,-0.02663372438543347,-0.14913838458291545,0.003193952531149623,0.94176,-0.009810000000000001,9.89829
6156565595,21.9,-0.006387905062299246,-0.11931070766633237,0.003193952531149623,1.60884,0.009810000000000001,9.85905
6161616100,21.9,0.006387905062299246,-0.05326744877086694,0.001064650843716541,1.80504,0.28449,9.78057
6166666605,21.9,0.01918116847941768,-0.011711159280881954,0.0,1.85409,0.44145,9.908100000000001
6171717110,21.9,0.008517206749732328,0.06178465552059926,-0.003193952531149623,1.6284600000000002,0.43164,9.46665
6176767615,21.9,-0.012775810124598492,0.1278279144160647,-0.002129301687433082,1.4715,-0.06867000000000001,9.52551
6181818120,21.9,-0.011711159280881954,0.17896606149949854,-0.001064650843716541,0.20601000000000003,-0.07848000000000001,9.60399
6186868625,21.9,0.008517206749732328,0.1555262896452147,-0.002129301687433082,-0.63765,0.37278,10.08468
6191919130,21.9,0.033021629447732716,0.10225884087434776,-0.001064650843716541,-1.20663,0.5493600000000001,10.06506
6196969635,21.9,0.022375121010567305,0.02556907354171693,-0.002129301687433082,-1.3734000000000002,0.64746,10.2024
6202020140,21.9,-0.012775810124598492,-0.05965535383316618,0.002129301687433082,-1.1477700000000002,0.45126,10.143540000000002
6207070645,21.9,-0.03621558197888234,-0.12676326357234816,0.003193952531149623,-0.64746,0.07848000000000001,10.03563
6212121150,21.9,-0.031956978604016174,-0.15126768627034853,0.004258603374866164,0.20601000000000003,-0.11772,9.99639
6217171655,21.9,-0.013840460968315033,-0.1352804703220805,0.004258603374866164,0.95157,-0.04905,9.80019
6222222160,21.9,0.007452555906015787,-0.06178465552059926,0.002129301687433082,1.5303600000000002,0.23544,9.59418
6227272665,21.9,0.014905111812031574,0.01064650843716541,0.0,1.54017,0.31392000000000003,9.633420000000001
6232323170,21.9,0.013840460968315033,0.09587093581204853,-0.002129301687433082,1.02024,0.3924,9.53532
6237373675,21.9,0.004258603374866164,0.11185815176031658,-0.001064650843716541,0.34335000000000004,0.26487,9.86886
6242424180,21.9,-0.002129301687433082,0.09480628496833199,0.0,-0.35316,0.27468000000000004,9.95715
6247474685,21.9,0.0,0.002129301687433082,0.001064650843716541,-0.60822,0.33354000000000006,10.182780000000001
6252525190,21.9,-0.005323254218582705,-0.06923721142661506,0.002129301687433082,-0.039240000000000004,0.45126,10.1043
6257575695,21.9,-0.00958185759344887,-0.1331511686346474,0.002129301687433082,0.63765,0.27468000000000004,10.1043
6262626200,21.9,-0.021310470166850764,-0.11931070766633237,0.0,1.46169,0.02943,9.78057
6267676705,21.9,-0.020245819323134222,-0.05965535383316618,0.0,1.72656,-0.14715,9.7119
6272727210,21.9,0.0,0.024504422698000388,-0.003193952531149623,1.6677000000000002,0.02943,9.52551
6277777715,21.9,0.013840460968315033,0.1278279144160647,-0.001064650843716541,1.15758,0.26487,9.37836
6282828220,21.9,0.02663372438543347,0.21198769094723127,-0.002129301687433082,0.18639,0.26487,9.54513
6287878725,21.9,0.02556907354171693,0.21944024685324706,-0.004258603374866164,-1.26549,0.32373,9.95715
6292929230,21.9,0.012775810124598492,0.14381513036433274,-0.001064650843716541,-2.06991,0.57879,10.143540000000002
6297979735,21.9,0.002129301687433082,0.013840460968315033,0.0,-2.14839,0.71613,10.418220000000002
6303030240,21.9,-0.006387905062299246,-0.14275047952061623,0.004258603374866164,-1.8246600000000002,0.43164,10.25145
6308080745,21.9,-0.046879543708567686,-0.24181536786381436,0.006387905062299246,-0.5395500000000001,0.039240000000000004,10.09449
6313131250,21.9,-0.05326744877086694,-0.27483699731154704,0.005323254218582705,1.15758,-0.41202000000000005,9.85905
6318181755,21.9,-0.02556907354171693,-0.20027653166634932,0.003193952531149623,2.09934,-0.22563,9.7119
6323232260,21.9,0.03408628029144926,-0.12569861272863161,0.001064650843716541,2.41326,0.22563,9.97677
6328282765,21.9,0.05007349623971732,-0.024504422698000388,-0.001064650843716541,2.65851,0.8829,9.59418
6333333270,21.9,0.021310470166850764,0.06284930636431581,-0.002129301687433082,2.4426900000000002,0.79461,9.6138
6338383775,21.9,-0.015987215948268057,0.15446163880149816,-0.001064650843716541,1.72656,0.32373,9.191970000000001
6343434280,21.9,-0.04794419455228423,0.2205048976969636,-0.001064650843716541,1.03005,-0.6768900000000001,9.34893
6348484785,21.9,-0.021310470166850764,0.2482032729261136,-0.003193952531149623,-0.42183,-0.6670800000000001,9.86886
6353535290,21.9,0.03515093113516579,0.19600047499896323,-0.003193952531149623,-1.52055,0.43164,10.29069
6358585795,21.9,0.07670722062515077,0.10866419922916695,-0.004258603374866164,-1.9325700000000001,1.06929,10.17297
6363636300,21.9,0.05859070298944965,-0.011711159280881954,0.002129301687433082,-2.10915,1.05948,10.38879
6368686805,21.9,-0.02556907354171693,-0.09054768159346581,0.004258603374866164,-1.8246600000000002,0.74556,9.96696
6373737310,21.9,-0.09161233243718235,-0.1757721089683489,0.007452555906015787,-0.85347,-0.15696000000000002,10.08468
6378787815,21.9,-0.07670722062515077,-0.2236988502281132,0.005323254218582705,0.31392000000000003,-0.65727,9.92772
6383838320,21.9,-0.023439771854283843,-0.21198769094723127,0.002129301687433082,1.52055,-0.46107000000000004,9.91791
6388888825,21.9,0.024504422698000388,-0.13208651779093086,-0.001064650843716541,2.03067,0.20601000000000003,9.623610000000001
6393939330,21.9,0.049008845396000776,-0.02556907354171693,-0.003193952531149623,2.32497,0.86328,9.623610000000001
6398989835,21.9,0.039409534510031964,0.07883652231258387,-0.002129301687433082,1.95219,0.95157,9.39798
6404040340,21.9,-0.013840460968315033,0.177901410655782,0.0,1.2753,0.13734000000000002,9.28026
6409090845,21.9,-0.05752605214573309,0.23223351027036546,-0.004258603374866164,-0.019620000000000002,-0.32373,9.54513
6414141350,21.9,-0.02556907354171693,0.1629788455512305,0.0,-0.9908100000000001,-0.33354000000000006,10.398600000000002
6419191855,21.9,0.03728023282259888,0.03728023282259888,0.0,-1.24587,0.30411,10.437840000000001
6424242360,21.9,0.044732788728614664,-0.08415977653116657,0.0,-0.7848,0.9613800000000001,10.437840000000001
6429292865,21.9,0.006387905062299246,-0.14275047952061623,0.002129301687433082,0.11772,0.9123300000000001,9.937529999999999
6434343370,21.9,-0.03408628029144926,-0.15872024217636432,0.002129301687433082,0.9123300000000001,0.10791,9.86886
6439393875,21.9,-0.054332099614583476,-0.10225884087434776,0.001064650843716541,1.4715,-0.46107000000000004,9.633420000000001
6444444380,21.9,-0.024504422698000388,-0.02556907354171693,0.001064650843716541,1.5303600000000002,-0.35316,9.56475
6449494885,21.9,0.01811651763570114,0.07136651311404815,-0.001064650843716541,1.40283,0.11772,9.60399
6454545390,21.9,0.04794419455228423,0.150203035426632,-0.004258603374866164,0.6768900000000001,0.60822,9.60399
6459595895,21.9,0.03089232776029963,0.17151350559348277,-0.003193952531149623,-0.07848000000000001,0.63765,9.84924
6464646400,21.9,0.004258603374866164,0.13955652698946658,-0.004258603374866164,-1.10853,0.47088,9.96696
6469696905,21.9,-0.0170518667919846,0.05113814708343386,0.0,-1.39302,0.31392000000000003,10.12392
6474747410,21.9,-0.01811651763570114,-0.046879543708567686,0.002129301687433082,-1.42245,0.20601000000000003,10.143540000000002
6479797915,21.9,-0.015987215948268057,-0.11824605682261582,0.003193952531149623,-0.72594,0.10791,9.91791
6484848420,21.9,-0.01811651763570114,-0.14700908289548237,0.002129301687433082,-0.039240000000000004,0.18639,9.94734
6489898925,21.9,-0.005323254218582705,-0.14381513036433274,0.002129301687433082,0.86328,0.18639,9.84924
6494949430,21.9,-0.002129301687433082,-0.09800023749948161,0.003193952531149623,1.39302,0.24525000000000002,9.888480000000001
6499999935,21.9,-0.001064650843716541,-0.05539675045830002,0.001064650843716541,1.81485,0.07848000000000001,9.85905
6505050440,21.9,-0.001064650843716541,-0.0,-0.001064650843716541,1.5990300000000002,0.15696000000000002,9.86886
6510100945,21.9,0.006387905062299246,0.006387905062299246,0.0,1.50093,0.34335000000000004,9.83943
6515151450,21.9,0.004258603374866164,0.06710790973918197,-0.001064650843716541,1.49112,0.33354000000000006,9.55494
6520201955,21.9,0.002129301687433082,0.08841837990603273,-0.001064650843716541,1.03005,0.1962,9.70209
6525252460,21.9,-0.005323254218582705,0.12037535851004891,-0.002129301687433082,0.45126,0.06867000000000001,9.73152
6530302965,21.9,0.006387905062299246,0.1288925652597812,-0.003193952531149623,-0.37278,0.20601000000000003,9.888480000000001
6535353470,21.9,0.014905111812031574,0.09693558665576507,-0.001064650843716541,-0.79461,0.35316,10.06506
6540403975,21.9,0.013840460968315033,0.07670722062515077,0.0,-1.1772,0.51012,9.97677
6545454480,21.9,0.0,-0.00958185759344887,0.001064650843716541,-1.31454,0.26487,10.182780000000001
6550504985,21.9,-0.00958185759344887,-0.05220279792715039,0.002129301687433082,-1.2753,0.22563,9.83943
6555555490,21.9,-0.020245819323134222,-0.1097288500728835,0.003193952531149623,-0.70632,0.26487,9.94734
6560605995,21.9,-0.020245819323134222,-0.1352804703220805,0.003193952531149623,0.25506,0.27468000000000004,9.82962
6565656500,21.9,-0.011711159280881954,-0.1374272253020335,0.0,0.8338500000000001,0.18639,9.78057
6570707005,21.9,-0.015987215948268057,-0.10759954838545042,0.004258603374866164,1.52055,0.039240000000000004,9.888480000000001
6575757510,21.9,-0.005323254218582705,-0.04366813788489812,-0.001064650843716541,1.6382700000000001,0.039240000000000004,9.74133
6580808015,21.9,0.006387905062299246,-0.008517206749732328,0.0,1.6284600000000002,0.16677000000000003,9.92772
6585858520,21.9,0.00958185759344887,0.05220279792715039,0.0,1.45188,0.38259000000000004,9.69228
6590909025,21.9,0.006387905062299246,0.07349581480148122,-0.002129301687433082,1.2851100000000002,0.3924,9.83943
6595959530,21.9,0.003193952531149623,0.0852244273748831,-0.002129301687433082,0.7848,0.26487,9.80019
6601010035,21.9,0.001064650843716541,0.09267698328089889,-0.002129301687433082,0.20601000000000003,0.21582,9.751140000000001
