#timestamp [ns], temperature [degC], w_RS_S_x [rad s^-1], w_RS_S_y [rad s^-1], w_RS_S_z [rad s^-1], a_RS_S_x [m s^-2], a_RS_S_y [m s^-2], a_RS_S_z [m s^-2]
0,,0.0,0.0,0.0,0.5886,-0.16677000000000003,9.86886
5050505,,0.0,0.0,0.0,0.60822,-0.13734000000000002,9.888480000000001
10101010,,0.0,0.0,0.0,0.57879,-0.14715,9.80019
15151515,,0.0,0.0,0.0,0.56898,-0.14715,9.751140000000001
20202020,,0.0,0.0,0.0,0.5886,-0.15696000000000002,9.81
25252525,,0.0,0.0,0.0,0.57879,-0.15696000000000002,9.85905
30303030,,0.0,0.0,0.0,0.59841,-0.15696000000000002,9.85905
35353535,,0.0,0.0,0.0,0.57879,-0.14715,9.80019
40404040,,0.0,0.0,0.0,0.5886,-0.15696000000000002,9.80019
45454545,,0.0,0.0,0.0,0.57879,-0.15696000000000002,9.79038
50505050,,0.0,0.0,0.0,0.5886,-0.14715,9.83943
55555555,,0.0,0.0,0.0,0.60822,-0.12753,9.81
60606060,,0.0,0.0,0.0,0.5886,-0.15696000000000002,9.819809999999999
65656565,,0.0,0.0,0.0,0.5591700000000001,-0.15696000000000002,9.84924
70707070,,0.0,0.0,0.0,0.5591700000000001,-0.14715,9.81
75757575,,0.0,0.0,0.0,0.60822,-0.12753,9.81
80808080,,0.0,0.0,0.0,0.5886,-0.13734000000000002,9.79038
85858585,,0.0,0.0,0.0,0.59841,-0.13734000000000002,9.81
90909090,,0.0,0.0,0.0,0.59841,-0.15696000000000002,9.819809999999999
95959595,,0.0,0.0,0.0,0.6180300000000001,-0.10791,9.81
101010100,,0.0,0.0,0.0,0.5886,-0.14715,9.79038
106060605,,0.0,0.0,0.0,0.56898,-0.15696000000000002,9.79038
111111110,,0.0,0.0,0.0,0.5591700000000001,-0.17658,9.79038
116161615,,0.0,0.0,0.0,0.56898,-0.15696000000000002,9.83943
121212120,,0.0,0.0,0.0,0.59841,-0.15696000000000002,9.819809999999999
126262625,,0.0,0.0,0.0,0.5886,-0.15696000000000002,9.81
131313130,,0.0,0.0,0.0,0.57879,-0.15696000000000002,9.751140000000001
136363635,,0.0,0.0,0.0,0.60822,-0.15696000000000002,9.819809999999999
141414140,,0.0,0.0,0.0,0.5493600000000001,-0.13734000000000002,9.86886
146464645,,0.0,0.0,0.0,0.56898,-0.16677000000000003,9.85905
151515150,,0.0,0.0,0.0,0.59841,-0.15696000000000002,9.79038
156565655,,0.0,0.0,0.0,0.59841,-0.16677000000000003,9.79038
161616160,,0.0,0.0,0.0,0.57879,-0.13734000000000002,9.82962
166666665,,0.0,0.0,0.0,0.59841,-0.13734000000000002,9.84924
171717170,,0.0,0.0,0.0,0.57879,-0.15696000000000002,9.81
176767675,,0.0,0.0,0.0,0.60822,-0.15696000000000002,9.79038
181818180,,0.0,0.0,0.0,0.56898,-0.13734000000000002,9.78057
186868685,,0.0,0.0,0.0,0.56898,-0.15696000000000002,9.819809999999999
191919190,,0.0,0.0,0.0,0.5886,-0.14715,9.84924
196969695,,0.0,0.0,0.0,0.59841,-0.16677000000000003,9.819809999999999
202020200,,0.0,0.0,0.0,0.57879,-0.13734000000000002,9.79038
207070705,,0.0,0.0,0.0,0.6180300000000001,-0.13734000000000002,9.78057
212121210,,0.0,0.0,0.0,0.56898,-0.17658,9.819809999999999
217171715,,0.0,0.0,0.0,0.60822,-0.13734000000000002,9.86886
222222220,,0.0,0.0,0.0,0.57879,-0.15696000000000002,9.78057
227272725,,0.0,0.0,0.0,0.5886,-0.13734000000000002,9.751140000000001
232323230,,0.0,0.0,0.0,0.56898,-0.13734000000000002,9.79038
237373735,,0.0,0.0,0.0,0.59841,-0.15696000000000002,9.83943
242424240,,0.0,0.0,0.0,0.56898,-0.14715,9.85905
247474745,,0.0,0.0,0.0,0.56898,-0.15696000000000002,9.79038
252525250,,0.0,0.0,0.0,0.57879,-0.15696000000000002,9.751140000000001
257575755,,0.0,0.0,0.0,0.5493600000000001,-0.13734000000000002,9.80019
262626260,,0.0,0.0,0.0,0.56898,-0.16677000000000003,9.82962
267676765,,0.0,0.0,0.0,0.60822,-0.13734000000000002,9.85905
272727270,,0.0,0.0,0.0,0.5886,-0.17658,9.81
277777775,,0.0,0.0,0.0,0.56898,-0.13734000000000002,9.78057
282828280,,0.0,0.0,0.0,0.57879,-0.15696000000000002,9.79038
287878785,,0.0,0.0,0.0,0.60822,-0.14715,9.83943
292929290,,0.0,0.0,0.0,0.57879,-0.14715,9.83943
297979795,,0.0,0.0,0.0,0.59841,-0.18639,9.78057
303030300,,0.0,0.0,0.0,0.5886,-0.12753,9.770760000000001
308080805,,0.0,0.0,0.0,0.59841,-0.14715,9.819809999999999
313131310,,0.0,0.0,0.0,0.59841,-0.14715,9.82962
318181815,,0.0,0.0,0.0,0.5886,-0.13734000000000002,9.819809999999999
323232320,,0.0,0.0,0.0,0.57879,-0.16677000000000003,9.78057
328282825,,0.0,0.0,0.0,0.59841,-0.14715,9.760950000000001
333333330,,0.0,0.0,0.0,0.57879,-0.15696000000000002,9.79038
338383835,,0.0,0.0,0.0,0.57879,-0.14715,9.86886
343434340,,0.0,0.0,0.0,0.59841,-0.14715,9.85905
348484845,,0.0,0.0,0.0,0.56898,-0.14715,9.79038
353535350,,0.0,0.0,0.0,0.56898,-0.15696000000000002,9.74133
358585855,,0.0,0.0,0.0,0.5886,-0.13734000000000002,9.770760000000001
363636360,,0.0,0.0,0.0,0.59841,-0.13734000000000002,9.84924
368686865,,0.0,0.0,0.0,0.5886,-0.14715,9.83943
373737370,,0.0,0.0,0.0,0.57879,-0.14715,9.81
378787875,,0.0,0.0,0.0,0.56898,-0.14715,9.770760000000001
383838380,,0.0,0.0,0.0,0.59841,-0.15696000000000002,9.80019
388888885,,0.0,0.0,0.0,0.59841,-0.14715,9.83943
393939390,,0.0,0.0,0.0,0.5886,-0.15696000000000002,9.86886
398989895,,0.0,0.0,0.0,0.57879,-0.15696000000000002,9.81
404040400,,0.0,0.0,0.0,0.5886,-0.15696000000000002,9.78057
409090905,,0.0,0.0,0.0,0.5886,-0.13734000000000002,9.80019
414141410,,0.0,0.0,0.0,0.59841,-0.13734000000000002,9.819809999999999
419191915,,0.0,0.0,0.0,0.5886,-0.16677000000000003,9.84924
424242420,,0.0,0.0,0.0,0.56898,-0.14715,9.81
429292925,,0.0,0.0,0.0,0.60822,-0.13734000000000002,9.79038
434343430,,0.0,0.0,0.0,0.59841,-0.14715,9.79038
439393935,,0.0,0.0,0.0,0.59841,-0.15696000000000002,9.82962
444444440,,0.0,0.0,0.0,0.59841,-0.15696000000000002,9.819809999999999
449494945,,0.0,0.0,0.0,0.6278400000000001,-0.14715,9.81
454545450,,0.0,0.0,0.0,0.59841,-0.16677000000000003,9.819809999999999
459595955,,0.0,0.0,0.0,0.5886,-0.15696000000000002,9.80019
464646460,,0.0,0.0,0.0,0.56898,-0.15696000000000002,9.79038
469696965,,0.0,0.0,0.0,0.59841,-0.17658,9.80019
474747470,,0.0,0.0,0.0,0.57879,-0.14715,9.82962
479797975,,0.0,0.0,0.0,0.59841,-0.15696000000000002,9.84924
484848480,,0.0,0.0,0.0,0.60822,-0.14715,9.81
489898985,,0.0,0.0,0.0,0.57879,-0.18639,9.80019
494949490,,0.0,0.0,0.0,0.59841,-0.15696000000000002,9.80019
499999995,,0.0,0.0,0.0,0.56898,-0.16677000000000003,9.83943
505050500,,0.0,0.0,0.0,0.5886,-0.16677000000000003,9.819809999999999
510101005,,0.0,0.0,0.0,0.5886,-0.13734000000000002,9.819809999999999
515151510,,0.0,0.0,0.0,0.60822,-0.15696000000000002,9.770760000000001
520202015,,0.0,0.0,0.0,0.60822,-0.14715,9.79038
525252520,,0.0,0.0,0.0,0.57879,-0.17658,9.83943
530303025,,0.0,0.0,0.0,0.59841,-0.11772,9.84924
535353530,,0.0,0.0,0.0,0.56898,-0.14715,9.79038
540404035,,0.0,0.0,0.0,0.5886,-0.14715,9.770760000000001
545454540,,0.0,0.0,0.0,0.56898,-0.12753,9.79038
550505045,,0.0,0.0,0.0,0.5886,-0.15696000000000002,9.82962
555555550,,0.0,0.0,0.0,0.56898,-0.16677000000000003,9.83943
560606055,,0.0,0.0,0.0,0.57879,-0.14715,9.81
565656560,,0.0,0.0,0.0,0.5886,-0.15696000000000002,9.79038
570707065,,0.0,0.0,0.0,0.5886,-0.14715,9.78057
575757570,,0.0,0.0,0.0,0.56898,-0.17658,9.83943
580808075,,0.0,0.0,0.0,0.5886,-0.16677000000000003,9.85905
585858580,,0.0,0.0,0.0,0.5886,-0.15696000000000002,9.78057
590909085,,0.0,0.0,0.0,0.56898,-0.16677000000000003,9.751140000000001
595959590,,0.0,0.0,0.0,0.60822,-0.12753,9.81
601010095,,0.0,0.0,0.0,0.57879,-0.12753,9.85905
606060600,,0.0,0.0,0.0,0.59841,-0.17658,9.82962
611111105,,0.0,0.0,0.0,0.59841,-0.15696000000000002,9.80019
616161610,,0.0,0.0,0.0,0.56898,-0.14715,9.770760000000001
621212115,,0.0,0.0,0.0,0.59841,-0.15696000000000002,9.79038
626262620,,0.0,0.0,0.0,0.5493600000000001,-0.13734000000000002,9.87867
631313125,,0.0,0.0,0.0,0.5886,-0.15696000000000002,9.83943
636363630,,0.0,0.0,0.0,0.57879,-0.13734000000000002,9.819809999999999
641414135,,0.0,0.0,0.0,0.57879,-0.15696000000000002,9.74133
646464640,,0.0,0.0,0.0,0.57879,-0.17658,9.81
651515145,,0.0,0.0,0.0,0.59841,-0.15696000000000002,9.84924
656565650,,0.0,0.0,0.0,0.59841,-0.14715,9.87867
661616155,,0.0,0.0,0.0,0.57879,-0.15696000000000002,9.80019
666666660,,0.0,0.0,0.0,0.5886,-0.12753,9.760950000000001
671717165,,0.0,0.0,0.0,0.5886,-0.15696000000000002,9.760950000000001
676767670,,0.0,0.0,0.0,0.57879,-0.16677000000000003,9.81
681818175,,0.0,0.0,0.0,0.57879,-0.10791,9.85905
686868680,,0.0,0.0,0.0,0.59841,-0.15696000000000002,9.81
691919185,,0.0,0.0,0.0,0.5886,-0.15696000000000002,9.79038
696969690,,0.0,0.0,0.0,0.57879,-0.16677000000000003,9.770760000000001
702020195,,0.0,0.0,0.0,0.56898,-0.12753,9.81
707070700,,0.0,0.0,0.0,0.56898,-0.15696000000000002,9.86886
712121205,,0.0,0.0,0.0,0.5591700000000001,-0.16677000000000003,9.83943
717171710,,0.0,0.0,0.0,0.5886,-0.15696000000000002,9.81
722222215,,0.0,0.0,0.0,0.57879,-0.14715,9.81
727272720,,0.0,0.0,0.0,0.5886,-0.15696000000000002,9.81
732323225,,0.0,0.0,0.0,0.59841,-0.16677000000000003,9.81
737373730,,0.0,0.0,0.0,0.59841,-0.13734000000000002,9.760950000000001
742424235,,0.0,0.0,0.0,0.5886,-0.15696000000000002,9.81
747474740,,0.0,0.0,0.0,0.57879,-0.15696000000000002,9.82962
752525245,,0.0,0.0,0.0,0.59841,-0.15696000000000002,9.819809999999999
757575750,,0.0,0.0,0.0,0.57879,-0.17658,9.770760000000001
762626255,,0.0,0.0,0.0,0.5886,-0.14715,9.78057
767676760,,0.0,0.0,0.0,0.60822,-0.14715,9.82962
772727265,,0.0,0.0,0.0,0.5886,-0.14715,9.82962
777777770,,0.0,0.0,0.0,0.60822,-0.15696000000000002,9.82962
782828275,,0.0,0.0,0.0,0.5886,-0.14715,9.80019
787878780,,0.0,0.0,0.0,0.57879,-0.13734000000000002,9.78057
792929285,,0.0,0.0,0.0,0.56898,-0.14715,9.81
797979790,,0.0,0.0,0.0,0.5886,-0.13734000000000002,9.84924
803030295,,0.0,0.0,0.0,0.60822,-0.14715,9.83943
808080800,,0.0,0.0,0.0,0.5886,-0.14715,9.80019
813131305,,0.0,0.0,0.0,0.57879,-0.13734000000000002,9.81
818181810,,0.0,0.0,0.0,0.57879,-0.13734000000000002,9.79038
823232315,,0.0,0.0,0.0,0.59841,-0.13734000000000002,9.81
828282820,,0.0,0.0,0.0,0.60822,-0.15696000000000002,9.82962
833333325,,0.0,0.0,0.0,0.59841,-0.15696000000000002,9.80019
838383830,,0.0,0.0,0.0,0.56898,-0.15696000000000002,9.81
843434335,,0.0,0.0,0.0,0.59841,-0.16677000000000003,9.82962
848484840,,0.0,0.0,0.0,0.57879,-0.13734000000000002,9.79038
853535345,,0.0,0.0,0.0,0.59841,-0.16677000000000003,9.78057
858585850,,0.0,0.0,0.0,0.5591700000000001,-0.16677000000000003,9.83943
863636355,,0.0,0.0,0.0,0.5886,-0.16677000000000003,9.86886
868686860,,0.0,0.0,0.0,0.56898,-0.14715,9.83943
873737365,,0.0,0.0,0.0,0.57879,-0.17658,9.79038
878787870,,0.0,0.0,0.0,0.57879,-0.12753,9.770760000000001
883838375,,0.0,0.0,0.0,0.5886,-0.15696000000000002,9.770760000000001
888888880,,0.0,0.0,0.0,0.5886,-0.16677000000000003,9.84924
893939385,,0.0,0.0,0.0,0.59841,-0.13734000000000002,9.85905
898989890,,0.0,0.0,0.0,0.59841,-0.15696000000000002,9.81
904040395,,0.0,0.0,0.0,0.5886,-0.10791,9.760950000000001
909090900,,0.0,0.0,0.0,0.59841,-0.15696000000000002,9.770760000000001
914141405,,0.0,0.0,0.0,0.60822,-0.14715,9.84924
919191910,,0.0,0.0,0.0,0.59841,-0.14715,9.87867
924242415,,0.0,0.0,0.0,0.5886,-0.17658,9.79038
929292920,,0.0,0.0,0.0,0.56898,-0.14715,9.751140000000001
934343425,,0.0,0.0,0.0,0.5886,-0.14715,9.79038
939393930,,0.0,0.0,0.0,0.59841,-0.14715,9.83943
944444435,,0.0,0.0,0.0,0.57879,-0.13734000000000002,9.86886
949494940,,0.0,0.0,0.0,0.5591700000000001,-0.17658,9.81
954545445,,0.0,0.0,0.0,0.60822,-0.14715,9.751140000000001
959595950,,0.0,0.0,0.0,0.57879,-0.13734000000000002,9.78057
964646455,,0.0,0.0,0.0,0.60822,-0.13734000000000002,9.85905
969696960,,0.0,0.0,0.0,0.59841,-0.16677000000000003,9.82962
974747465,,0.0,0.0,0.0,0.5886,-0.16677000000000003,9.81
979797970,,0.0,0.0,0.0,0.57879,-0.14715,9.770760000000001
984848475,,0.0,0.0,0.0,0.57879,-0.15696000000000002,9.770760000000001
989898980,,0.0,0.0,0.0,0.57879,-0.14715,9.819809999999999
994949485,,0.0,0.0,0.0,0.57879,-0.13734000000000002,9.83943
999999990,,0.0,0.0,0.0,0.5886,-0.15696000000000002,9.80019
1005050495,,0.0,0.0,0.0,0.57879,-0.14715,9.81
1010101000,,0.0,0.0,0.0,0.5886,-0.16677000000000003,9.819809999999999
1015151505,,0.0,0.0,0.0,0.60822,-0.15696000000000002,9.82962
1020202010,,0.0,0.0,0.0,0.59841,-0.14715,9.819809999999999
1025252515,,0.0,0.0,0.0,0.5886,-0.16677000000000003,9.78057
1030303020,,0.0,0.0,0.0,0.59841,-0.13734000000000002,9.770760000000001
1035353525,,0.0,0.0,0.0,0.5886,-0.16677000000000003,9.819809999999999
1040404030,,0.0,0.0,0.0,0.57879,-0.13734000000000002,9.85905
1045454535,,0.0,0.0,0.0,0.56898,-0.16677000000000003,9.82962
1050505040,,0.0,0.0,0.0,0.59841,-0.15696000000000002,9.751140000000001
1055555545,,0.0,0.0,0.0,0.5886,-0.14715,9.81
1060606050,,0.0,0.0,0.0,0.5886,-0.14715,9.84924
1065656555,,0.0,0.0,0.0,0.56898,-0.14715,9.82962
1070707060,,0.0,0.0,0.0,0.60822,-0.15696000000000002,9.81
1075757565,,0.0,0.0,0.0,0.57879,-0.15696000000000002,9.770760000000001
1080808070,,0.0,0.0,0.0,0.57879,-0.15696000000000002,9.79038
1085858575,,0.0,0.0,0.0,0.5886,-0.16677000000000003,9.82962
1090909080,,0.0,0.0,0.0,0.5886,-0.15696000000000002,9.82962
1095959585,,0.0,0.0,0.0,0.5886,-0.15696000000000002,9.80019
1101010090,,0.0,0.0,0.0,0.57879,-0.13734000000000002,9.79038
1106060595,,0.0,0.0,0.0,0.60822,-0.15696000000000002,9.81
1111111100,,0.0,0.0,0.0,0.5886,-0.16677000000000003,9.819809999999999
1116161605,,0.0,0.0,0.0,0.5886,-0.12753,9.819809999999999
1121212110,,0.0,0.0,0.0,0.5886,-0.16677000000000003,9.82962
1126262615,,0.0,0.0,0.0,0.56898,-0.16677000000000003,9.80019
1131313120,,0.0,0.0,0.0,0.60822,-0.16677000000000003,9.79038
1136363625,,0.0,0.0,0.0,0.60822,-0.15696000000000002,9.83943
1141414130,,0.0,0.0,0.0,0.60822,-0.14715,9.82962
1146464635,,0.0,0.0,0.0,0.5591700000000001,-0.15696000000000002,9.80019
1151515140,,0.0,0.0,0.0,0.56898,-0.14715,9.78057
1156565645,,0.0,0.0,0.0,0.56898,-0.16677000000000003,9.79038
1161616150,,0.0,0.0,0.0,0.5591700000000001,-0.14715,9.82962
1166666655,,0.0,0.0,0.0,0.5886,-0.16677000000000003,9.83943
1171717160,,0.0,0.0,0.0,0.57879,-0.14715,9.770760000000001
1176767665,,0.0,0.0,0.0,0.56898,-0.14715,9.79038
1181818170,,0.0,0.0,0.0,0.56898,-0.16677000000000003,9.82962
1186868675,,0.0,0.0,0.0,0.60822,-0.14715,9.84924
1191919180,,0.0,0.0,0.0,0.59841,-0.14715,9.819809999999999
1196969685,,0.0,0.0,0.0,0.56898,-0.13734000000000002,9.80019
1202020190,,0.0,0.0,0.0,0.60822,-0.15696000000000002,9.81
1207070695,,0.0,0.0,0.0,0.59841,-0.15696000000000002,9.81
1212121200,,0.0,0.0,0.0,0.60822,-0.16677000000000003,9.819809999999999
1217171705,,0.0,0.0,0.0,0.57879,-0.14715,9.80019
1222222210,,0.0,0.0,0.0,0.57879,-0.11772,9.770760000000001
1227272715,,0.0,0.0,0.0,0.5886,-0.16677000000000003,9.80019
1232323220,,0.0,0.0,0.0,0.5886,-0.13734000000000002,9.81
1237373725,,0.0,0.0,0.0,0.59841,-0.16677000000000003,9.80019
1242424230,,0.0,0.0,0.0,0.60822,-0.15696000000000002,9.81
1247474735,,0.0,0.0,0.0,0.56898,-0.13734000000000002,9.78057
1252525240,,0.0,0.0,0.0,0.56898,-0.14715,9.819809999999999
1257575745,,0.0,0.0,0.0,0.59841,-0.13734000000000002,9.81
1262626250,,0.0,0.0,0.0,0.5886,-0.14715,9.82962
1267676755,,0.0,0.0,0.0,0.5886,-0.15696000000000002,9.78057
1272727260,,0.0,0.0,0.0,0.59841,-0.16677000000000003,9.81
1277777765,,0.0,0.0,0.0,0.56898,-0.15696000000000002,9.83943
1282828270,,0.0,0.0,0.0,0.57879,-0.13734000000000002,9.83943
1287878775,,0.0,0.0,0.0,0.5886,-0.16677000000000003,9.80019
1292929280,,0.0,0.0,0.0,0.5886,-0.14715,9.760950000000001
1297979785,,0.0,0.0,0.0,0.5886,-0.14715,9.79038
1303030290,,0.0,0.0,0.0,0.59841,-0.16677000000000003,9.83943
1308080795,,0.0,0.0,0.0,0.5886,-0.15696000000000002,9.86886
1313131300,,0.0,0.0,0.0,0.5886,-0.13734000000000002,9.81
1318181805,,0.0,0.0,0.0,0.5591700000000001,-0.12753,9.760950000000001
1323232310,,0.0,0.0,0.0,0.60822,-0.12753,9.78057
1328282815,,0.0,0.0,0.0,0.5886,-0.14715,9.819809999999999
1333333320,,0.0,0.0,0.0,0.57879,-0.16677000000000003,9.86886
1338383825,,0.0,0.0,0.0,0.60822,-0.13734000000000002,9.80019
1343434330,,0.0,0.0,0.0,0.56898,-0.15696000000000002,9.760950000000001
1348484835,,0.0,0.0,0.0,0.5886,-0.15696000000000002,9.80019
1353535340,,0.0,0.0,0.0,0.56898,-0.15696000000000002,9.84924
1358585845,,0.0,0.0,0.0,0.5886,-0.15696000000000002,9.83943
1363636350,,0.0,0.0,0.0,0.57879,-0.17658,9.819809999999999
1368686855,,0.0,0.0,0.0,0.57879,-0.14715,9.751140000000001
1373737360,,0.0,0.0,0.0,0.5886,-0.13734000000000002,9.78057
1378787865,,0.0,0.0,0.0,0.60822,-0.15696000000000002,9.83943
1383838370,,0.0,0.0,0.0,0.59841,-0.13734000000000002,9.84924
1388888875,,0.0,0.0,0.0,0.57879,-0.13734000000000002,9.83943
1393939380,,0.0,0.0,0.0,0.56898,-0.15696000000000002,9.79038
1398989885,,0.0,0.0,0.0,0.5886,-0.15696000000000002,9.80019
1404040390,,0.0,0.0,0.0,0.60822,-0.16677000000000003,9.82962
1409090895,,0.0,0.0,0.0,0.5886,-0.13734000000000002,9.87867
1414141400,,0.0,0.0,0.0,0.5886,-0.15696000000000002,9.819809999999999
1419191905,,0.0,0.0,0.0,0.56898,-0.13734000000000002,9.79038
1424242410,,0.0,0.0,0.0,0.5886,-0.14715,9.80019
1429292915,,0.0,0.0,0.0,0.59841,-0.12753,9.82962
1434343420,,0.0,0.0,0.0,0.5886,-0.15696000000000002,9.83943
1439393925,,0.0,0.0,0.0,0.59841,-0.11772,9.819809999999999
1444444430,,0.0,0.0,0.0,0.60822,-0.14715,9.81
1449494935,,0.0,0.0,0.0,0.5886,-0.17658,9.78057
1454545440,,0.0,0.0,0.0,0.57879,-0.14715,9.819809999999999
1459595945,,0.0,0.0,0.0,0.56898,-0.16677000000000003,9.819809999999999
1464646450,,0.0,0.0,0.0,0.57879,-0.14715,9.819809999999999
1469696955,,0.0,0.0,0.0,0.57879,-0.14715,9.819809999999999
1474747460,,0.0,0.0,0.0,0.56898,-0.15696000000000002,9.81
1479797965,,0.0,0.0,0.0,0.57879,-0.16677000000000003,9.81
1484848470,,0.0,0.0,0.0,0.5886,-0.16677000000000003,9.81
1489898975,,0.0,0.0,0.0,0.57879,-0.16677000000000003,9.819809999999999
1494949480,,0.0,0.0,0.0,0.59841,-0.15696000000000002,9.80019
1499999985,,0.0,0.0,0.0,0.57879,-0.15696000000000002,9.819809999999999
1505050490,,0.0,0.0,0.0,0.5886,-0.16677000000000003,9.80019
1510100995,,0.0,0.0,0.0,0.59841,-0.13734000000000002,9.819809999999999
1515151500,,0.0,0.0,0.0,0.59841,-0.14715,9.819809999999999
1520202005,,0.0,0.0,0.0,0.56898,-0.15696000000000002,9.819809999999999
1525252510,,0.0,0.0,0.0,0.56898,-0.17658,9.770760000000001
1530303015,,0.0,0.0,0.0,0.5591700000000001,-0.15696000000000002,9.80019
1535353520,,0.0,0.0,0.0,0.56898,-0.15696000000000002,9.819809999999999
1540404025,,0.0,0.0,0.0,0.59841,-0.14715,9.82962
1545454530,,0.0,0.0,0.0,0.60822,-0.14715,9.819809999999999
1550505035,,0.0,0.0,0.0,0.6180300000000001,-0.15696000000000002,9.81
1555555540,,0.0,0.0,0.0,0.56898,-0.13734000000000002,9.79038
1560606045,,0.0,0.0,0.0,0.59841,-0.15696000000000002,9.78057
1565656550,,0.0,0.0,0.0,0.57879,-0.14715,9.81
1570707055,,0.0,0.0,0.0,0.60822,-0.15696000000000002,9.84924
1575757560,,0.0,0.0,0.0,0.57879,-0.17658,9.819809999999999
1580808065,,0.0,0.0,0.0,0.56898,-0.14715,9.80019
1585858570,,0.0,0.0,0.0,0.60822,-0.14715,9.79038
1590909075,,0.0,0.0,0.0,0.5886,-0.16677000000000003,9.819809999999999
1595959580,,0.0,0.0,0.0,0.59841,-0.12753,9.83943
1601010085,,0.0,0.0,0.0,0.56898,-0.12753,9.82962
1606060590,,0.0,0.0,0.0,0.57879,-0.17658,9.770760000000001
1611111095,,0.0,0.0,0.0,0.59841,-0.14715,9.81
1616161600,,0.0,0.0,0.0,0.59841,-0.15696000000000002,9.84924
1621212105,,0.0,0.0,0.0,0.57879,-0.15696000000000002,9.819809999999999
1626262610,,0.0,0.0,0.0,0.5886,-0.15696000000000002,9.819809999999999
1631313115,,0.0,0.0,0.0,0.5886,-0.13734000000000002,9.760950000000001
1636363620,,0.0,0.0,0.0,0.5591700000000001,-0.13734000000000002,9.760950000000001
1641414125,,0.0,0.0,0.0,0.57879,-0.13734000000000002,9.82962
1646464630,,0.0,0.0,0.0,0.5886,-0.14715,9.85905
1651515135,,0.0,0.0,0.0,0.5886,-0.13734000000000002,9.819809999999999
1656565640,,0.0,0.0,0.0,0.57879,-0.15696000000000002,9.770760000000001
1661616145,,0.0,0.0,0.0,0.5886,-0.14715,9.78057
1666666650,,0.0,0.0,0.0,0.59841,-0.16677000000000003,9.83943
1671717155,,0.0,0.0,0.0,0.5886,-0.14715,9.888480000000001
1676767660,,0.0,0.0,0.0,0.60822,-0.15696000000000002,9.81
1681818165,,0.0,0.0,0.0,0.57879,-0.15696000000000002,9.770760000000001
1686868670,,0.0,0.0,0.0,0.59841,-0.12753,9.770760000000001
1691919175,,0.0,0.0,0.0,0.57879,-0.16677000000000003,9.81
1696969680,,0.0,0.0,0.0,0.5886,-0.12753,9.84924
1702020185,,0.0,0.0,0.0,0.5886,-0.15696000000000002,9.83943
1707070690,,0.0,0.0,0.0,0.59841,-0.13734000000000002,9.770760000000001
1712121195,,0.0,0.0,0.0,0.59841,-0.16677000000000003,9.78057
1717171700,,0.0,0.0,0.0,0.59841,-0.15696000000000002,9.80019
1722222205,,0.0,0.0,0.0,0.56898,-0.14715,9.85905
1727272710,,0.0,0.0,0.0,0.5886,-0.15696000000000002,9.83943
1732323215,,0.0,0.0,0.0,0.57879,-0.12753,9.79038
1737373720,,0.0,0.0,0.0,0.57879,-0.14715,9.79038
1742424225,,0.0,0.0,0.0,0.59841,-0.13734000000000002,9.81
1747474730,,0.0,0.0,0.0,0.5886,-0.13734000000000002,9.84924
1752525235,,0.0,0.0,0.0,0.59841,-0.14715,9.819809999999999
1757575740,,0.0,0.0,0.0,0.5886,-0.12753,9.81
1762626245,,0.0,0.0,0.0,0.59841,-0.17658,9.81
1767676750,,0.0,0.0,0.0,0.60822,-0.14715,9.81
1772727255,,0.0,0.0,0.0,0.59841,-0.13734000000000002,9.82962
1777777760,,0.0,0.0,0.0,0.59841,-0.15696000000000002,9.80019
1782828265,,0.0,0.0,0.0,0.5886,-0.14715,9.78057
1787878770,,0.0,0.0,0.0,0.57879,-0.16677000000000003,9.819809999999999
1792929275,,0.0,0.0,0.0,0.59841,-0.14715,9.819809999999999
1797979780,,0.0,0.0,0.0,0.57879,-0.13734000000000002,9.81
1803030285,,0.0,0.0,0.0,0.59841,-0.14715,9.81
1808080790,,0.0,0.0,0.0,0.59841,-0.17658,9.819809999999999
1813131295,,0.0,0.0,0.0,0.60822,-0.15696000000000002,9.83943
1818181800,,0.0,0.0,0.0,0.5886,-0.16677000000000003,9.819809999999999
1823232305,,0.0,0.0,0.0,0.6180300000000001,-0.15696000000000002,9.80019
1828282810,,0.0,0.0,0.0,0.60822,-0.14715,9.78057
1833333315,,0.0,0.0,0.0,0.59841,-0.15696000000000002,9.80019
1838383820,,0.0,0.0,0.0,0.57879,-0.14715,9.82962
1843434325,,0.0,0.0,0.0,0.57879,-0.15696000000000002,9.82962
1848484830,,0.0,0.0,0.0,0.59841,-0.14715,9.81
1853535335,,0.0,0.0,0.0,0.59841,-0.15696000000000002,9.760950000000001
1858585840,,0.0,0.0,0.0,0.60822,-0.15696000000000002,9.80019
1863636345,,0.0,0.0,0.0,0.5886,-0.16677000000000003,9.82962
1868686850,,0.0,0.0,0.0,0.57879,-0.16677000000000003,9.84924
1873737355,,0.0,0.0,0.0,0.56898,-0.13734000000000002,9.819809999999999
1878787860,,0.0,0.0,0.0,0.57879,-0.16677000000000003,9.81
1883838365,,0.0,0.0,0.0,0.5886,-0.14715,9.80019
1888888870,,0.0,0.0,0.0,0.59841,-0.17658,9.82962
1893939375,,0.0,0.0,0.0,0.56898,-0.15696000000000002,9.819809999999999
1898989880,,0.0,0.0,0.0,0.57879,-0.12753,9.82962
1904040385,,0.0,0.0,0.0,0.59841,-0.14715,9.819809999999999
1909090890,,0.0,0.0,0.0,0.5886,-0.13734000000000002,9.819809999999999
1914141395,,0.0,0.0,0.0,0.57879,-0.15696000000000002,9.78057
1919191900,,0.0,0.0,0.0,0.57879,-0.13734000000000002,9.81
1924242405,,0.0,0.0,0.0,0.56898,-0.14715,9.84924
1929292910,,0.0,0.0,0.0,0.57879,-0.14715,9.819809999999999
1934343415,,0.0,0.0,0.0,0.57879,-0.14715,9.80019
1939393920,,0.0,0.0,0.0,0.5886,-0.14715,9.78057
1944444425,,0.0,0.0,0.0,0.5886,-0.15696000000000002,9.79038
1949494930,,0.0,0.0,0.0,0.5886,-0.15696000000000002,9.83943
1954545435,,0.0,0.0,0.0,0.57879,-0.15696000000000002,9.86886
1959595940,,0.0,0.0,0.0,0.5886,-0.16677000000000003,9.819809999999999
1964646445,,0.0,0.0,0.0,0.59841,-0.15696000000000002,9.770760000000001
1969696950,,0.0,0.0,0.0,0.60822,-0.14715,9.760950000000001
1974747455,,0.0,0.0,0.0,0.59841,-0.13734000000000002,9.819809999999999
1979797960,,0.0,0.0,0.0,0.59841,-0.16677000000000003,9.888480000000001
1984848465,,0.0,0.0,0.0,0.57879,-0.15696000000000002,9.84924
1989898970,,0.0,0.0,0.0,0.5493600000000001,-0.14715,9.80019
1994949475,,0.0,0.0,0.0,0.5886,-0.13734000000000002,9.751140000000001
1999999980,,0.0,0.0,0.0,0.56898,-0.13734000000000002,9.81
2005050485,,0.0,0.0,0.0,0.56898,-0.14715,9.84924
2010100990,,0.0,0.0,0.0,0.57879,-0.17658,9.85905
2015151495,,0.0,0.0,0.0,0.60822,-0.14715,9.80019
2020202000,,0.0,0.0,0.0,0.56898,-0.13734000000000002,9.751140000000001
2025252505,,0.0,0.0,0.0,0.60822,-0.15696000000000002,9.81
2030303010,,0.0,0.0,0.0,0.59841,-0.12753,9.85905
2035353515,,0.0,0.0,0.0,0.59841,-0.16677000000000003,9.85905
2040404020,,0.0,0.0,0.0,0.57879,-0.15696000000000002,9.79038
2045454525,,0.0,0.0,0.0,0.57879,-0.16677000000000003,9.770760000000001
2050505030,,0.0,0.0,0.0,0.56898,-0.14715,9.81
2055555535,,0.0,0.0,0.0,0.5886,-0.12753,9.86886
2060606040,,0.0,0.0,0.0,0.60822,-0.15696000000000002,9.82962
2065656545,,0.0,0.0,0.0,0.56898,-0.15696000000000002,9.78057
2070707050,,0.0,0.0,0.0,0.56898,-0.16677000000000003,9.760950000000001
2075757555,,0.0,0.0,0.0,0.5886,-0.15696000000000002,9.79038
2080808060,,0.0,0.0,0.0,0.56898,-0.14715,9.87867
2085858565,,0.0,0.0,0.0,0.57879,-0.15696000000000002,9.86886
2090909070,,0.0,0.0,0.0,0.60822,-0.17658,9.79038
2095959575,,0.0,0.0,0.0,0.5886,-0.17658,9.770760000000001
2101010080,,0.0,0.0,0.0,0.5886,-0.12753,9.81
2106060585,,0.0,0.0,0.0,0.57879,-0.16677000000000003,9.84924
2111111090,,0.0,0.0,0.0,0.5886,-0.11772,9.85905
2116161595,,0.0,0.0,0.0,0.5886,-0.14715,9.81
2121212100,,0.0,0.0,0.0,0.59841,-0.16677000000000003,9.78057
2126262605,,0.0,0.0,0.0,0.5886,-0.14715,9.79038
2131313110,,0.0,0.0,0.0,0.59841,-0.16677000000000003,9.819809999999999
2136363615,,0.0,0.0,0.0,0.57879,-0.14715,9.82962
2141414120,,0.0,0.0,0.0,0.5886,-0.17658,9.81
2146464625,,0.0,0.0,0.0,0.5886,-0.15696000000000002,9.80019
2151515130,,0.0,0.0,0.0,0.60822,-0.14715,9.81
2156565635,,0.0,0.0,0.0,0.5886,-0.14715,9.82962
2161616140,,0.0,0.0,0.0,0.5886,-0.15696000000000002,9.82962
2166666645,,0.0,0.0,0.0,0.5591700000000001,-0.15696000000000002,9.81
2171717150,,0.0,0.0,0.0,0.5886,-0.14715,9.79038
2176767655,,0.0,0.0,0.0,0.57879,-0.16677000000000003,9.80019
2181818160,,0.0,0.0,0.0,0.60822,-0.14715,9.819809999999999
2186868665,,0.0,0.0,0.0,0.56898,-0.13734000000000002,9.82962
2191919170,,0.0,0.0,0.0,0.57879,-0.14715,9.819809999999999
2196969675,,0.0,0.0,0.0,0.5886,-0.15696000000000002,9.80019
2202020180,,0.0,0.0,0.0,0.5886,-0.13734000000000002,9.81
2207070685,,0.0,0.0,0.0,0.56898,-0.14715,9.819809999999999
2212121190,,0.0,0.0,0.0,0.57879,-0.14715,9.81
2217171695,,0.0,0.0,0.0,0.5591700000000001,-0.16677000000000003,9.80019
2222222200,,0.0,0.0,0.0,0.6180300000000001,-0.15696000000000002,9.80019
2227272705,,0.0,0.0,0.0,0.60822,-0.13734000000000002,9.81
2232323210,,0.0,0.0,0.0,0.5886,-0.15696000000000002,9.80019
2237373715,,0.0,0.0,0.0,0.5886,-0.15696000000000002,9.81
2242424220,,0.0,0.0,0.0,0.59841,-0.12753,9.81
2247474725,,0.0,0.0,0.0,0.5886,-0.15696000000000002,9.87867
2252525230,,0.0,0.0,0.0,0.57879,-0.15696000000000002,9.84924
2257575735,,0.0,0.0,0.0,0.57879,-0.13734000000000002,9.80019
2262626240,,0.0,0.0,0.0,0.57879,-0.13734000000000002,9.74133
2267676745,,0.0,0.0,0.0,0.5886,-0.13734000000000002,9.81
2272727250,,0.0,0.0,0.0,0.59841,-0.15696000000000002,9.85905
2277777755,,0.0,0.0,0.0,0.60822,-0.14715,9.84924
2282828260,,0.0,0.0,0.0,0.60822,-0.15696000000000002,9.80019
2287878765,,0.0,0.0,0.0,0.57879,-0.14715,9.74133
2292929270,,0.0,0.0,0.0,0.56898,-0.13734000000000002,9.81
2297979775,,0.0,0.0,0.0,0.60822,-0.13734000000000002,9.86886
2303030280,,0.0,0.0,0.0,0.5886,-0.15696000000000002,9.84924
2308080785,,0.0,0.0,0.0,0.56898,-0.13734000000000002,9.79038
2313131290,,0.0,0.0,0.0,0.59841,-0.14715,9.760950000000001
2318181795,,0.0,0.0,0.0,0.57879,-0.14715,9.81
2323232300,,0.0,0.0,0.0,0.57879,-0.15696000000000002,9.84924
2328282805,,0.0,0.0,0.0,0.60822,-0.15696000000000002,9.83943
2333333310,,0.0,0.0,0.0,0.56898,-0.14715,9.80019
2338383815,,0.0,0.0,0.0,0.57879,-0.15696000000000002,9.760950000000001
2343434320,,0.0,0.0,0.0,0.56898,-0.12753,9.819809999999999
2348484825,,0.0,0.0,0.0,0.5886,-0.16677000000000003,9.87867
2353535330,,0.0,0.0,0.0,0.59841,-0.15696000000000002,9.85905
2358585835,,0.0,0.0,0.0,0.57879,-0.16677000000000003,9.770760000000001
2363636340,,0.0,0.0,0.0,0.5886,-0.14715,9.770760000000001
2368686845,,0.0,0.0,0.0,0.5886,-0.16677000000000003,9.819809999999999
2373737350,,0.0,0.0,0.0,0.59841,-0.14715,9.85905
2378787855,,0.0,0.0,0.0,0.5886,-0.15696000000000002,9.81
2383838360,,0.0,0.0,0.0,0.57879,-0.14715,9.78057
2388888865,,0.0,0.0,0.0,0.60822,-0.16677000000000003,9.79038
2393939370,,0.0,0.0,0.0,0.60822,-0.17658,9.82962
2398989875,,0.0,0.0,0.0,0.60822,-0.13734000000000002,9.85905
2404040380,,0.0,0.0,0.0,0.59841,-0.15696000000000002,9.82962
2409090885,,0.0,0.0,0.0,0.59841,-0.16677000000000003,9.79038
2414141390,,0.0,0.0,0.0,0.59841,-0.13734000000000002,9.78057
2419191895,,0.0,0.0,0.0,0.56898,-0.17658,9.86886
2424242400,,0.0,0.0,0.0,0.60822,-0.14715,9.86886
2429292905,,0.0,0.0,0.0,0.56898,-0.16677000000000003,9.80019
2434343410,,0.0,0.0,0.0,0.57879,-0.16677000000000003,9.751140000000001
2439393915,,0.0,0.0,0.0,0.60822,-0.15696000000000002,9.770760000000001
2444444420,,0.0,0.0,0.0,0.57879,-0.15696000000000002,9.81
2449494925,,0.0,0.0,0.0,0.5886,-0.16677000000000003,9.85905
2454545430,,0.0,0.0,0.0,0.57879,-0.14715,9.819809999999999
2459595935,,0.0,0.0,0.0,0.5886,-0.14715,9.760950000000001
2464646440,,0.0,0.0,0.0,0.60822,-0.16677000000000003,9.751140000000001
2469696945,,0.0,0.0,0.0,0.5886,-0.14715,9.85905
2474747450,,0.0,0.0,0.0,0.60822,-0.14715,9.86886
2479797955,,0.0,0.0,0.0,0.5886,-0.15696000000000002,9.81
2484848460,,0.0,0.0,0.0,0.56898,-0.12753,9.80019
2489898965,,0.0,0.0,0.0,0.6180300000000001,-0.12753,9.79038
2494949470,,0.0,0.0,0.0,0.5886,-0.16677000000000003,9.84924
2499999975,,0.0,0.0,0.0,0.59841,-0.14715,9.82962
2505050480,,0.0,0.0,0.0,0.57879,-0.16677000000000003,9.819809999999999
2510100985,,0.0,0.0,0.0,0.59841,-0.13734000000000002,9.80019
2515151490,,0.0,0.0,0.0,0.59841,-0.17658,9.80019
2520201995,,0.0,0.0,0.0,0.57879,-0.12753,9.83943
2525252500,,0.0,0.0,0.0,0.5886,-0.13734000000000002,9.82962
2530303005,,0.0,0.0,0.0,0.57879,-0.17658,9.80019
2535353510,,0.0,0.0,0.0,0.60822,-0.17658,9.770760000000001
2540404015,,0.0,0.0,0.0,0.5886,-0.16677000000000003,9.83943
2545454520,,0.0,0.0,0.0,0.60822,-0.17658,9.84924
2550505025,,0.0,0.0,0.0,0.59841,-0.13734000000000002,9.81
2555555530,,0.0,0.0,0.0,0.59841,-0.12753,9.80019
2560606035,,0.0,0.0,0.0,0.5591700000000001,-0.15696000000000002,9.770760000000001
2565656540,,0.0,0.0,0.0,0.60822,-0.16677000000000003,9.84924
2570707045,,0.0,0.0,0.0,0.57879,-0.14715,9.83943
2575757550,,0.0,0.0,0.0,0.5886,-0.15696000000000002,9.81
2580808055,,0.0,0.0,0.0,0.5886,-0.15696000000000002,9.78057
2585858560,,0.0,0.0,0.0,0.60822,-0.16677000000000003,9.81
2590909065,,0.0,0.0,0.0,0.5591700000000001,-0.12753,9.819809999999999
2595959570,,0.0,0.0,0.0,0.59841,-0.15696000000000002,9.819809999999999
2601010075,,0.0,0.0,0.0,0.57879,-0.14715,9.81
2606060580,,0.0,0.0,0.0,0.57879,-0.16677000000000003,9.79038
2611111085,,0.0,0.0,0.0,0.5493600000000001,-0.14715,9.770760000000001
2616161590,,0.0,0.0,0.0,0.57879,-0.17658,9.819809999999999
2621212095,,0.0,0.0,0.0,0.59841,-0.14715,9.84924
2626262600,,0.0,0.0,0.0,0.5886,-0.12753,9.80019
2631313105,,0.0,0.0,0.0,0.5886,-0.15696000000000002,9.80019
2636363610,,0.0,0.0,0.0,0.5886,-0.13734000000000002,9.78057
2641414115,,0.0,0.0,0.0,0.60822,-0.15696000000000002,9.82962
2646464620,,0.0,0.0,0.0,0.60822,-0.15696000000000002,9.84924
2651515125,,0.0,0.0,0.0,0.59841,-0.15696000000000002,9.81
2656565630,,0.0,0.0,0.0,0.56898,-0.16677000000000003,9.80019
2661616135,,0.0,0.0,0.0,0.5886,-0.15696000000000002,9.81
2666666640,,0.0,0.0,0.0,0.60822,-0.13734000000000002,9.81
2671717145,,0.0,0.0,0.0,0.5886,-0.13734000000000002,9.81
2676767650,,0.0,0.0,0.0,0.60822,-0.14715,9.78057
2681818155,,0.0,0.0,0.0,0.5886,-0.14715,9.78057
2686868660,,0.0,0.0,0.0,0.60822,-0.16677000000000003,9.85905
2691919165,,0.0,0.0,0.0,0.5886,-0.16677000000000003,9.83943
2696969670,,0.0,0.0,0.0,0.5493600000000001,-0.15696000000000002,9.80019
2702020175,,0.0,0.0,0.0,0.56898,-0.16677000000000003,9.770760000000001
2707070680,,0.0,0.0,0.0,0.57879,-0.16677000000000003,9.819809999999999
2712121185,,0.0,0.0,0.0,0.57879,-0.16677000000000003,9.84924
2717171690,,0.0,0.0,0.0,0.5886,-0.16677000000000003,9.84924
2722222195,,0.0,0.0,0.0,0.60822,-0.15696000000000002,9.79038
2727272700,,0.0,0.0,0.0,0.57879,-0.15696000000000002,9.79038
2732323205,,0.0,0.0,0.0,0.59841,-0.14715,9.819809999999999
2737373710,,0.0,0.0,0.0,0.60822,-0.14715,9.85905
2742424215,,0.0,0.0,0.0,0.57879,-0.14715,9.82962
2747474720,,0.0,0.0,0.0,0.5591700000000001,-0.15696000000000002,9.770760000000001
2752525225,,0.0,0.0,0.0,0.5886,-0.15696000000000002,9.751140000000001
2757575730,,0.0,0.0,0.0,0.56898,-0.16677000000000003,9.81
2762626235,,0.0,0.0,0.0,0.60822,-0.16677000000000003,9.87867
2767676740,,0.0,0.0,0.0,0.59841,-0.13734000000000002,9.81
2772727245,,0.0,0.0,0.0,0.57879,-0.15696000000000002,9.74133
2777777750,,0.0,0.0,0.0,0.5886,-0.14715,9.760950000000001
2782828255,,0.0,0.0,0.0,0.59841,-0.12753,9.819809999999999
2787878760,,0.0,0.0,0.0,0.59841,-0.14715,9.888480000000001
2792929265,,0.0,0.0,0.0,0.57879,-0.14715,9.819809999999999
2797979770,,0.0,0.0,0.0,0.5886,-0.14715,9.78057
2803030275,,0.0,0.0,0.0,0.5886,-0.16677000000000003,9.770760000000001
2808080780,,0.0,0.0,0.0,0.59841,-0.14715,9.83943
2813131285,,0.0,0.0,0.0,0.5886,-0.15696000000000002,9.85905
2818181790,,0.0,0.0,0.0,0.57879,-0.15696000000000002,9.819809999999999
2823232295,,0.0,0.0,0.0,0.59841,-0.15696000000000002,9.79038
2828282800,,0.0,0.0,0.0,0.59841,-0.17658,9.78057
2833333305,,0.0,0.0,0.0,0.59841,-0.12753,9.84924
2838383810,,0.0,0.0,0.0,0.57879,-0.15696000000000002,9.84924
2843434315,,0.0,0.0,0.0,0.60822,-0.15696000000000002,9.81
2848484820,,0.0,0.0,0.0,0.5886,-0.16677000000000003,9.78057
2853535325,,0.0,0.0,0.0,0.56898,-0.15696000000000002,9.81
2858585830,,0.0,0.0,0.0,0.56898,-0.14715,9.83943
2863636335,,0.0,0.0,0.0,0.56898,-0.15696000000000002,9.888480000000001
2868686840,,0.0,0.0,0.0,0.5886,-0.13734000000000002,9.819809999999999
2873737345,,0.0,0.0,0.0,0.56898,-0.15696000000000002,9.751140000000001
2878787850,,0.0,0.0,0.0,0.59841,-0.14715,9.770760000000001
2883838355,,0.0,0.0,0.0,0.5591700000000001,-0.15696000000000002,9.84924
2888888860,,0.0,0.0,0.0,0.60822,-0.14715,9.87867
2893939365,,0.0,0.0,0.0,0.56898,-0.17658,9.82962
2898989870,,0.0,0.0,0.0,0.59841,-0.15696000000000002,9.751140000000001
2904040375,,0.0,0.0,0.0,0.59841,-0.15696000000000002,9.751140000000001
2909090880,,0.0,0.0,0.0,0.5886,-0.14715,9.82962
2914141385,,0.0,0.0,0.0,0.5886,-0.15696000000000002,9.85905
2919191890,,0.0,0.0,0.0,0.59841,-0.14715,9.84924
2924242395,,0.0,0.0,0.0,0.56898,-0.17658,9.80019
2929292900,,0.0,0.0,0.0,0.56898,-0.16677000000000003,9.79038
2934343405,,0.0,0.0,0.0,0.5886,-0.14715,9.81
2939393910,,0.0,0.0,0.0,0.59841,-0.15696000000000002,9.84924
2944444415,,0.0,0.0,0.0,0.56898,-0.12753,9.84924
2949494920,,0.0,0.0,0.0,0.59841,-0.16677000000000003,9.80019
2954545425,,0.0,0.0,0.0,0.57879,-0.15696000000000002,9.819809999999999
2959595930,,0.0,0.0,0.0,0.59841,-0.13734000000000002,9.81
2964646435,,0.0,0.0,0.0,0.60822,-0.12753,9.82962
2969696940,,0.0,0.0,0.0,0.59841,-0.16677000000000003,9.819809999999999
2974747445,,0.0,0.0,0.0,0.57879,-0.13734000000000002,9.819809999999999
2979797950,,0.0,0.0,0.0,0.59841,-0.15696000000000002,9.80019
2984848455,,0.0,0.0,0.0,0.56898,-0.16677000000000003,9.81
2989898960,,0.0,0.0,0.0,0.5886,-0.14715,9.82962
2994949465,,0.0,0.0,0.0,0.5886,-0.12753,9.83943
2999999970,,0.0,0.0,0.0,0.5886,-0.15696000000000002,9.84924
3005050475,,0.0,0.0,0.0,0.57879,-0.17658,9.79038
3010100980,,0.0,0.0,0.0,0.57879,-0.17658,9.80019
3015151485,,0.0,0.0,0.0,0.5886,-0.15696000000000002,9.81
3020201990,,0.0,0.0,0.0,0.57879,-0.14715,9.84924
3025252495,,0.0,0.0,0.0,0.57879,-0.16677000000000003,9.84924
3030303000,,0.0,0.0,0.0,0.5591700000000001,-0.14715,9.81
3035353505,,0.0,0.0,0.0,0.59841,-0.13734000000000002,9.760950000000001
3040404010,,0.0,0.0,0.0,0.59841,-0.15696000000000002,9.751140000000001
3045454515,,0.0,0.0,0.0,0.5886,-0.12753,9.83943
3050505020,,0.0,0.0,0.0,0.59841,-0.16677000000000003,9.82962
3055555525,,0.0,0.0,0.0,0.5886,-0.15696000000000002,9.81
3060606030,,0.0,0.0,0.0,0.5886,-0.14715,9.78057
3065656535,,0.0,0.0,0.0,0.5886,-0.15696000000000002,9.770760000000001
3070707040,,0.0,0.0,0.0,0.5886,-0.14715,9.80019
3075757545,,0.0,0.0,0.0,0.59841,-0.16677000000000003,9.85905
3080808050,,0.0,0.0,0.0,0.57879,-0.12753,9.81
3085858555,,0.0,0.0,0.0,0.59841,-0.16677000000000003,9.78057
3090909060,,0.0,0.0,0.0,0.5886,-0.16677000000000003,9.770760000000001
3095959565,,0.0,0.0,0.0,0.56898,-0.16677000000000003,9.81
3101010070,,0.0,0.0,0.0,0.57879,-0.14715,9.84924
3106060575,,0.0,0.0,0.0,0.57879,-0.16677000000000003,9.82962
3111111080,,0.0,0.0,0.0,0.5886,-0.14715,9.760950000000001
3116161585,,0.0,0.0,0.0,0.57879,-0.12753,9.81
3121212090,,0.0,0.0,0.0,0.59841,-0.15696000000000002,9.83943
3126262595,,0.0,0.0,0.0,0.57879,-0.13734000000000002,9.82962
3131313100,,0.0,0.0,0.0,0.5886,-0.17658,9.80019
3136363605,,0.0,0.0,0.0,0.56898,-0.15696000000000002,9.760950000000001
3141414110,,0.0,0.0,0.0,0.59841,-0.14715,9.78057
3146464615,,0.0,0.0,0.0,0.5886,-0.15696000000000002,9.819809999999999
3151515120,,0.0,0.0,0.0,0.57879,-0.13734000000000002,9.82962
3156565625,,0.0,0.0,0.0,0.5886,-0.14715,9.81
3161616130,,0.0,0.0,0.0,0.56898,-0.14715,9.751140000000001
3166666635,,0.0,0.0,0.0,0.5886,-0.18639,9.80019
3171717140,,0.0,0.0,0.0,0.59841,-0.13734000000000002,9.83943
3176767645,,0.0,0.0,0.0,0.5886,-0.14715,9.84924
3181818150,,0.0,0.0,0.0,0.57879,-0.17658,9.79038
3186868655,,0.0,0.0,0.0,0.59841,-0.15696000000000002,9.770760000000001
3191919160,,0.0,0.0,0.0,0.60822,-0.15696000000000002,9.81
3196969665,,0.0,0.0,0.0,0.59841,-0.16677000000000003,9.85905
3202020170,,0.0,0.0,0.0,0.5886,-0.1962,9.82962
3207070675,,0.0,0.0,0.0,0.5886,-0.13734000000000002,9.770760000000001
3212121180,,0.0,0.0,0.0,0.57879,-0.13734000000000002,9.770760000000001
3217171685,,0.0,0.0,0.0,0.5886,-0.15696000000000002,9.819809999999999
3222222190,,0.0,0.0,0.0,0.5886,-0.14715,9.86886
3227272695,,0.0,0.0,0.0,0.5886,-0.14715,9.819809999999999
3232323200,,0.0,0.0,0.0,0.57879,-0.15696000000000002,9.78057
3237373705,,0.0,0.0,0.0,0.5886,-0.16677000000000003,9.760950000000001
3242424210,,0.0,0.0,0.0,0.59841,-0.14715,9.81
3247474715,,0.0,0.0,0.0,0.5886,-0.15696000000000002,9.84924
3252525220,,0.0,0.0,0.0,0.56898,-0.14715,9.84924
3257575725,,0.0,0.0,0.0,0.56898,-0.17658,9.760950000000001
3262626230,,0.0,0.0,0.0,0.59841,-0.14715,9.80019
3267676735,,0.0,0.0,0.0,0.60822,-0.15696000000000002,9.81
3272727240,,0.0,0.0,0.0,0.5886,-0.15696000000000002,9.819809999999999
3277777745,,0.0,0.0,0.0,0.56898,-0.16677000000000003,9.819809999999999
3282828250,,0.0,0.0,0.0,0.5886,-0.16677000000000003,9.770760000000001
3287878755,,0.0,0.0,0.0,0.60822,-0.14715,9.81
3292929260,,0.0,0.0,0.0,0.5886,-0.17658,9.82962
3297979765,,0.0,0.0,0.0,0.57879,-0.14715,9.83943
3303030270,,0.0,0.0,0.0,0.5886,-0.16677000000000003,9.82962
3308080775,,0.0,0.0,0.0,0.57879,-0.13734000000000002,9.79038
3313131280,,0.0,0.0,0.0,0.5886,-0.13734000000000002,9.81
3318181785,,0.0,0.0,0.0,0.5886,-0.13734000000000002,9.82962
3323232290,,0.0,0.0,0.0,0.60822,-0.13734000000000002,9.819809999999999
3328282795,,0.0,0.0,0.0,0.59841,-0.17658,9.80019
3333333300,,0.0,0.0,0.0,0.59841,-0.15696000000000002,9.81
3338383805,,0.0,0.0,0.0,0.57879,-0.15696000000000002,9.83943
3343434310,,0.0,0.0,0.0,0.56898,-0.15696000000000002,9.819809999999999
3348484815,,0.0,0.0,0.0,0.57879,-0.13734000000000002,9.81
3353535320,,0.0,0.0,0.0,0.59841,-0.15696000000000002,9.78057
3358585825,,0.0,0.0,0.0,0.57879,-0.14715,9.80019
3363636330,,0.0,0.0,0.0,0.59841,-0.12753,9.83943
3368686835,,0.0,0.0,0.0,0.60822,-0.16677000000000003,9.85905
3373737340,,0.0,0.0,0.0,0.59841,-0.13734000000000002,9.81
3378787845,,0.0,0.0,0.0,0.56898,-0.13734000000000002,9.770760000000001
3383838350,,0.0,0.0,0.0,0.5886,-0.11772,9.79038
3388888855,,0.0,0.0,0.0,0.5886,-0.16677000000000003,9.81
3393939360,,0.0,0.0,0.0,0.56898,-0.15696000000000002,9.85905
3398989865,,0.0,0.0,0.0,0.5886,-0.13734000000000002,9.83943
3404040370,,0.0,0.0,0.0,0.5886,-0.15696000000000002,9.78057
3409090875,,0.0,0.0,0.0,0.59841,-0.13734000000000002,9.80019
3414141380,,0.0,0.0,0.0,0.59841,-0.14715,9.81
3419191885,,0.0,0.0,0.0,0.57879,-0.13734000000000002,9.83943
3424242390,,0.0,0.0,0.0,0.5886,-0.16677000000000003,9.84924
3429292895,,0.0,0.0,0.0,0.5591700000000001,-0.16677000000000003,9.78057
3434343400,,0.0,0.0,0.0,0.56898,-0.13734000000000002,9.79038
3439393905,,0.0,0.0,0.0,0.59841,-0.14715,9.80019
3444444410,,0.0,0.0,0.0,0.56898,-0.14715,9.819809999999999
3449494915,,0.0,0.0,0.0,0.56898,-0.14715,9.819809999999999
3454545420,,0.0,0.0,0.0,0.60822,-0.14715,9.80019
3459595925,,0.0,0.0,0.0,0.59841,-0.13734000000000002,9.81
3464646430,,0.0,0.0,0.0,0.5886,-0.14715,9.82962
3469696935,,0.0,0.0,0.0,0.57879,-0.14715,9.82962
3474747440,,0.0,0.0,0.0,0.57879,-0.12753,9.80019
3479797945,,0.0,0.0,0.0,0.57879,-0.15696000000000002,9.80019
3484848450,,0.0,0.0,0.0,0.5591700000000001,-0.15696000000000002,9.82962
3489898955,,0.0,0.0,0.0,0.59841,-0.13734000000000002,9.83943
3494949460,,0.0,0.0,0.0,0.59841,-0.15696000000000002,9.81
3499999965,,0.0,0.0,0.0,0.5886,-0.14715,9.760950000000001
3505050470,,0.0,0.0,0.0,0.56898,-0.1962,9.80019
3510100975,,0.0,0.0,0.0,0.5886,-0.13734000000000002,9.819809999999999
3515151480,,0.0,0.0,0.0,0.5886,-0.12753,9.819809999999999
3520201985,,0.0,0.0,0.0,0.59841,-0.12753,9.81
3525252490,,0.0,0.0,0.0,0.5886,-0.14715,9.760950000000001
3530302995,,0.0,0.0,0.0,0.57879,-0.14715,9.770760000000001
3535353500,,0.0,0.0,0.0,0.59841,-0.18639,9.819809999999999
3540404005,,0.0,0.0,0.0,0.59841,-0.13734000000000002,9.82962
3545454510,,0.0,0.0,0.0,0.59841,-0.14715,9.770760000000001
3550505015,,0.0,0.0,0.0,0.59841,-0.15696000000000002,9.760950000000001
3555555520,,0.0,0.0,0.0,0.59841,-0.13734000000000002,9.80019
3560606025,,0.0,0.0,0.0,0.59841,-0.15696000000000002,9.83943
3565656530,,0.0,0.0,0.0,0.6180300000000001,-0.15696000000000002,9.86886
3570707035,,0.0,0.0,0.0,0.57879,-0.17658,9.79038
3575757540,,0.0,0.0,0.0,0.56898,-0.14715,9.760950000000001
3580808045,,0.0,0.0,0.0,0.57879,-0.18639,9.81
3585858550,,0.0,0.0,0.0,0.59841,-0.14715,9.84924
3590909055,,0.0,0.0,0.0,0.6180300000000001,-0.14715,9.85905
3595959560,,0.0,0.0,0.0,0.59841,-0.14715,9.79038
3601010065,,0.0,0.0,0.0,0.56898,-0.14715,9.760950000000001
3606060570,,0.0,0.0,0.0,0.5886,-0.13734000000000002,9.78057
3611111075,,0.0,0.0,0.0,0.5886,-0.13734000000000002,9.83943
3616161580,,0.0,0.0,0.0,0.59841,-0.13734000000000002,9.83943
3621212085,,0.0,0.0,0.0,0.5493600000000001,-0.12753,9.81
3626262590,,0.0,0.0,0.0,0.56898,-0.13734000000000002,9.770760000000001
3631313095,,0.0,0.0,0.0,0.57879,-0.14715,9.79038
3636363600,,0.0,0.0,0.0,0.5886,-0.12753,9.81
3641414105,,0.0,0.0,0.0,0.57879,-0.13734000000000002,9.819809999999999
3646464610,,0.0,0.0,0.0,0.5886,-0.14715,9.81
3651515115,,0.0,0.0,0.0,0.59841,-0.15696000000000002,9.81
3656565620,,0.0,0.0,0.0,0.57879,-0.15696000000000002,9.770760000000001
3661616125,,0.0,0.0,0.0,0.59841,-0.15696000000000002,9.81
3666666630,,0.0,0.0,0.0,0.5886,-0.13734000000000002,9.82962
3671717135,,0.0,0.0,0.0,0.56898,-0.14715,9.83943
3676767640,,0.0,0.0,0.0,0.60822,-0.18639,9.80019
3681818145,,0.0,0.0,0.0,0.60822,-0.15696000000000002,9.81
3686868650,,0.0,0.0,0.0,0.57879,-0.14715,9.81
3691919155,,0.0,0.0,0.0,0.5886,-0.14715,9.81
3696969660,,0.0,0.0,0.0,0.60822,-0.13734000000000002,9.81
3702020165,,0.0,0.0,0.0,0.57879,-0.15696000000000002,9.81
3707070670,,0.0,0.0,0.0,0.57879,-0.15696000000000002,9.79038
3712121175,,0.0,0.0,0.0,0.56898,-0.14715,9.79038
3717171680,,0.0,0.0,0.0,0.57879,-0.12753,9.78057
3722222185,,0.0,0.0,0.0,0.57879,-0.14715,9.79038
3727272690,,0.0,0.0,0.0,0.5886,-0.15696000000000002,9.819809999999999
3732323195,,0.0,0.0,0.0,0.5886,-0.14715,9.79038
3737373700,,0.0,0.0,0.0,0.57879,-0.14715,9.78057
3742424205,,0.0,0.0,0.0,0.56898,-0.14715,9.74133
3747474710,,0.0,0.0,0.0,0.59841,-0.15696000000000002,9.770760000000001
3752525215,,0.0,0.0,0.0,0.57879,-0.14715,9.82962
3757575720,,0.0,0.0,0.0,0.57879,-0.14715,9.819809999999999
3762626225,,-0.008517206749732328,0.004258603374866164,0.0,0.6180300000000001,-0.13734000000000002,9.751140000000001
3767676730,,-0.004258603374866164,0.002129301687433082,0.0,0.5886,-0.14715,9.7119
3772727235,,-0.003193952531149623,0.001064650843716541,0.0,0.6180300000000001,-0.11772,9.85905
3777777740,,-0.003193952531149623,0.002129301687433082,0.0,0.59841,-0.16677000000000003,9.86886
3782828245,,-0.007452555906015787,-0.002129301687433082,0.0,0.57879,-0.15696000000000002,9.81
3787878750,,-0.008517206749732328,0.0,0.0,0.59841,-0.18639,9.81
3792929255,,-0.007452555906015787,0.002129301687433082,0.0,0.60822,-0.16677000000000003,9.82962
3797979760,,-0.00958185759344887,0.004258603374866164,0.0,0.56898,-0.1962,9.908100000000001
3803030265,,0.0,0.007452555906015787,0.0,0.5493600000000001,-0.17658,9.79038
3808080770,,-0.004258603374866164,0.003193952531149623,0.0,0.5395500000000001,-0.17658,9.7119
3813131275,,-0.006387905062299246,0.0,0.005323254218582705,0.57879,-0.1962,9.74133
3818181780,,-0.003193952531149623,0.001064650843716541,-0.004258603374866164,0.56898,-0.16677000000000003,9.83943
3823232285,,-0.007452555906015787,-0.002129301687433082,0.0,0.5591700000000001,-0.17658,10.1043
3828282790,,-0.007452555906015787,0.006387905062299246,0.005323254218582705,0.5591700000000001,-0.17658,9.92772
3833333295,,-0.007452555906015787,-0.0,-0.003193952531149623,0.51993,-0.18639,9.68247
3838383800,,0.002129301687433082,-0.002129301687433082,-0.002129301687433082,0.56898,-0.20601000000000003,9.64323
3843434305,,0.0,-0.003193952531149623,0.0,0.6278400000000001,-0.1962,9.819809999999999
3848484810,,-0.002129301687433082,0.0,0.001064650843716541,0.60822,-0.14715,9.91791
3853535315,,-0.004258603374866164,0.006387905062299246,0.002129301687433082,0.5886,-0.14715,10.006200000000002
3858585820,,-0.006387905062299246,0.006387905062299246,0.0,0.5591700000000001,-0.18639,9.95715
3863636325,,-0.003193952531149623,0.001064650843716541,0.0,0.57879,-0.17658,9.73152
3868686830,,0.0,-0.005323254218582705,-0.003193952531149623,0.5886,-0.17658,9.633420000000001
3873737335,,0.005323254218582705,-0.003193952531149623,-0.004258603374866164,0.57879,-0.14715,9.72171
3878787840,,0.002129301687433082,0.0,0.002129301687433082,0.56898,-0.13734000000000002,9.937529999999999
3883838345,,0.001064650843716541,0.0,0.003193952531149623,0.60822,-0.14715,9.908100000000001
3888888850,,-0.003193952531149623,-0.003193952531149623,-0.001064650843716541,0.5886,-0.11772,9.81
3893939355,,-0.004258603374866164,-0.008517206749732328,-0.001064650843716541,0.59841,-0.13734000000000002,9.74133
3898989860,,0.002129301687433082,-0.004258603374866164,0.001064650843716541,0.57879,-0.13734000000000002,9.68247
3904040365,,0.006387905062299246,-0.003193952531149623,-0.001064650843716541,0.57879,-0.07848000000000001,9.760950000000001
3909090870,,0.004258603374866164,0.0,0.0,0.5886,-0.12753,9.81
3914141375,,-0.004258603374866164,0.0,0.0,0.60822,-0.11772,9.760950000000001
3919191880,,-0.006387905062299246,-0.003193952531149623,0.002129301687433082,0.6180300000000001,-0.14715,9.73152
3924242385,,-0.00958185759344887,-0.002129301687433082,0.002129301687433082,0.59841,-0.13734000000000002,9.82962
3929292890,,-0.004258603374866164,-0.003193952531149623,-0.001064650843716541,0.5886,-0.12753,9.80019
3934343395,,-0.003193952531149623,-0.001064650843716541,0.0,0.60822,-0.15696000000000002,9.79038
3939393900,,-0.005323254218582705,-0.002129301687433082,0.0,0.56898,-0.14715,9.70209
3944444405,,-0.003193952531149623,-0.004258603374866164,0.0,0.5886,-0.15696000000000002,9.70209
3949494910,,-0.00958185759344887,0.0,0.0,0.5886,-0.14715,9.751140000000001
3954545415,,-0.013840460968315033,0.003193952531149623,0.001064650843716541,0.60822,-0.14715,9.87867
3959595920,,-0.011711159280881954,0.008517206749732328,0.001064650843716541,0.6180300000000001,-0.17658,9.92772
3964646425,,-0.00958185759344887,0.007452555906015787,0.002129301687433082,0.57879,-0.18639,9.81
3969696930,,-0.005323254218582705,-0.001064650843716541,-0.001064650843716541,0.56898,-0.15696000000000002,9.64323
3974747435,,-0.004258603374866164,-0.004258603374866164,-0.001064650843716541,0.57879,-0.16677000000000003,9.67266
3979797940,,-0.007452555906015787,-0.002129301687433082,0.0,0.59841,-0.17658,9.96696
3984848445,,-0.01064650843716541,0.004258603374866164,0.002129301687433082,0.59841,-0.17658,10.01601
3989898950,,-0.013840460968315033,0.007452555906015787,0.002129301687433082,0.5886,-0.17658,9.937529999999999
3994949455,,-0.013840460968315033,0.006387905062299246,0.003193952531149623,0.57879,-0.1962,9.81
3999999960,,-0.00958185759344887,0.005323254218582705,-0.001064650843716541,0.56898,-0.20601000000000003,9.66285
4005050465,,-0.002129301687433082,0.004258603374866164,0.001064650843716541,0.5493600000000001,-0.21582,9.81
4010100970,,-0.002129301687433082,0.002129301687433082,0.002129301687433082,0.5886,-0.21582,10.01601
4015151475,,-0.003193952531149623,0.002129301687433082,0.0,0.5886,-0.20601000000000003,10.06506
4020201980,,-0.00958185759344887,0.001064650843716541,0.0,0.57879,-0.21582,9.87867
4025252485,,-0.00958185759344887,0.0,0.0,0.5591700000000001,-0.22563,9.69228
4030302990,,-0.003193952531149623,0.0,0.002129301687433082,0.5493600000000001,-0.21582,9.633420000000001
4035353495,,0.006387905062299246,0.0,0.003193952531149623,0.5886,-0.1962,9.89829
4040404000,,0.011711159280881954,-0.002129301687433082,0.002129301687433082,0.5886,-0.17658,9.97677
4045454505,,0.01064650843716541,0.0,-0.001064650843716541,0.56898,-0.12753,9.819809999999999
4050505010,,0.004258603374866164,0.0,0.0,0.5493600000000001,-0.14715,9.66285
4055555515,,0.003193952531149623,-0.003193952531149623,0.0,0.5493600000000001,-0.10791,9.623610000000001
4060606020,,0.003193952531149623,-0.002129301687433082,-0.001064650843716541,0.5493600000000001,-0.10791,9.770760000000001
4065656525,,0.006387905062299246,-0.004258603374866164,0.001064650843716541,0.56898,-0.10791,9.86886
4070707030,,0.001064650843716541,-0.00958185759344887,0.0,0.5591700000000001,-0.12753,9.72171
4075757535,,0.0,-0.013840460968315033,-0.003193952531149623,0.5886,-0.08829,9.59418
4080808040,,-0.002129301687433082,-0.012775810124598492,0.0,0.59841,-0.07848000000000001,9.60399
4085858545,,-0.006387905062299246,-0.00958185759344887,0.001064650843716541,0.59841,-0.08829,9.84924
4090909050,,-0.006387905062299246,-0.006387905062299246,0.0,0.6278400000000001,-0.06867000000000001,9.888480000000001
4095959555,,-0.011711159280881954,0.001064650843716541,0.0,0.59841,-0.12753,9.819809999999999
4101010060,,-0.014905111812031574,-0.003193952531149623,0.0,0.5886,-0.11772,9.57456
4106060565,,-0.015987215948268057,-0.005323254218582705,0.001064650843716541,0.6180300000000001,-0.15696000000000002,9.69228
4111111070,,-0.015987215948268057,-0.001064650843716541,0.001064650843716541,0.63765,-0.17658,9.937529999999999
4116161575,,-0.01811651763570114,0.0,0.003193952531149623,0.64746,-0.20601000000000003,10.08468
4121212080,,-0.022375121010567305,0.006387905062299246,0.004258603374866164,0.63765,-0.22563,9.99639
4126262585,,-0.02663372438543347,0.006387905062299246,-0.001064650843716541,0.60822,-0.26487,9.70209
4131313090,,-0.022375121010567305,0.00958185759344887,-0.001064650843716541,0.60822,-0.27468000000000004,9.7119
4136363595,,-0.013840460968315033,0.012775810124598492,0.002129301687433082,0.6180300000000001,-0.28449,9.89829
4141414100,,-0.007452555906015787,0.020245819323134222,0.003193952531149623,0.64746,-0.31392000000000003,10.13373
4146464605,,-0.007452555906015787,0.022375121010567305,0.0,0.60822,-0.2943,10.045440000000001
4151515110,,-0.004258603374866164,0.0170518667919846,0.001064650843716541,0.5493600000000001,-0.24525000000000002,9.79038
4156565615,,-0.001064650843716541,0.014905111812031574,0.003193952531149623,0.52974,-0.28449,9.68247
4161616120,,0.003193952531149623,0.012775810124598492,0.0,0.52974,-0.21582,9.819809999999999
4166666625,,0.006387905062299246,0.011711159280881954,0.0,0.52974,-0.20601000000000003,9.96696
4171717130,,0.01064650843716541,0.005323254218582705,0.001064650843716541,0.51012,-0.17658,9.84924
4176767635,,0.012775810124598492,-0.001064650843716541,0.001064650843716541,0.50031,-0.14715,9.6138
4181818140,,0.013840460968315033,-0.005323254218582705,0.0,0.48069000000000006,-0.10791,9.54513
4186868645,,0.012775810124598492,-0.007452555906015787,0.001064650843716541,0.52974,-0.039240000000000004,9.68247
4191919150,,0.011711159280881954,-0.008517206749732328,0.001064650843716541,0.5395500000000001,-0.05886,9.82962
4196969655,,0.005323254218582705,-0.013840460968315033,0.0,0.5395500000000001,-0.039240000000000004,9.819809999999999
4202020160,,0.001064650843716541,-0.021310470166850764,-0.001064650843716541,0.52974,-0.04905,9.633420000000001
4207070665,,-0.006387905062299246,-0.028763026072866547,0.0,0.5493600000000001,-0.04905,9.54513
4212121170,,-0.007452555906015787,-0.02769837522915001,0.0,0.60822,-0.04905,9.73152
4217171675,,-0.011711159280881954,-0.021310470166850764,0.0,0.6278400000000001,-0.07848000000000001,9.87867
4222222180,,-0.01918116847941768,-0.0170518667919846,0.002129301687433082,0.6180300000000001,-0.14715,9.83943
4227272685,,-0.02663372438543347,-0.014905111812031574,0.001064650843716541,0.63765,-0.18639,9.69228
4232323190,,-0.033021629447732716,-0.01064650843716541,-0.001064650843716541,0.6670800000000001,-0.22563,9.69228
4237373695,,-0.03089232776029963,-0.011711159280881954,-0.002129301687433082,0.70632,-0.21582,9.89829
4242424200,,-0.02982767691658309,0.001064650843716541,0.001064650843716541,0.69651,-0.28449,10.06506
4247474705,,-0.02663372438543347,0.007452555906015787,0.0,0.6867000000000001,-0.34335000000000004,9.98658
4252525210,,-0.022375121010567305,0.008517206749732328,0.0,0.70632,-0.34335000000000004,9.78057
4257575715,,-0.0170518667919846,0.0170518667919846,-0.001064650843716541,0.6670800000000001,-0.35316,9.73152
4262626220,,-0.01064650843716541,0.023439771854283843,0.002129301687433082,0.63765,-0.31392000000000003,9.83943
4267676725,,-0.003193952531149623,0.02769837522915001,0.003193952531149623,0.6670800000000001,-0.2943,10.01601
4272727230,,0.0,0.03408628029144926,0.0,0.59841,-0.24525000000000002,9.95715
4277777735,,0.007452555906015787,0.031956978604016174,0.0,0.5591700000000001,-0.18639,9.78057
4282828240,,0.01064650843716541,0.02556907354171693,0.003193952531149623,0.52974,-0.15696000000000002,9.68247
4287878745,,0.00958185759344887,0.01918116847941768,-0.002129301687433082,0.50031,-0.10791,9.74133
4292929250,,0.007452555906015787,0.0170518667919846,0.002129301687433082,0.50031,-0.0981,9.908100000000001
4297979755,,0.0,0.012775810124598492,0.002129301687433082,0.44145,-0.08829,9.86886
4303030260,,-0.003193952531149623,0.002129301687433082,0.003193952531149623,0.46107000000000004,-0.11772,9.73152
4308080765,,-0.00958185759344887,-0.004258603374866164,-0.002129301687433082,0.49050000000000005,-0.11772,9.73152
4313131270,,-0.012775810124598492,-0.013840460968315033,0.001064650843716541,0.50031,-0.15696000000000002,9.81
4318181775,,-0.015987215948268057,-0.014905111812031574,-0.003193952531149623,0.51012,-0.17658,9.81
4323232280,,-0.0170518667919846,-0.015987215948268057,-0.001064650843716541,0.51012,-0.18639,9.79038
4328282785,,-0.01811651763570114,-0.01918116847941768,0.0,0.52974,-0.24525000000000002,9.7119
4333333290,,-0.01811651763570114,-0.022375121010567305,0.0,0.56898,-0.25506,9.72171
4338383795,,-0.0170518667919846,-0.022375121010567305,0.0,0.57879,-0.23544,9.83943
4343434300,,-0.00958185759344887,-0.021310470166850764,0.0,0.63765,-0.25506,9.84924
4348484805,,-0.002129301687433082,-0.020245819323134222,0.0,0.6278400000000001,-0.20601000000000003,9.760950000000001
4353535310,,0.006387905062299246,-0.01811651763570114,0.0,0.6180300000000001,-0.18639,9.65304
4358585815,,0.005323254218582705,-0.012775810124598492,0.0,0.6670800000000001,-0.13734000000000002,9.66285
4363636320,,0.004258603374866164,-0.00958185759344887,0.0,0.65727,-0.11772,9.81
4368686825,,0.0,0.0,0.0,0.64746,-0.12753,9.91791
4373737330,,-0.006387905062299246,0.005323254218582705,0.0,0.6180300000000001,-0.0981,9.84924
4378787835,,-0.00958185759344887,0.008517206749732328,0.0,0.6278400000000001,-0.12753,9.72171
4383838340,,-0.012775810124598492,0.003193952531149623,0.0,0.60822,-0.12753,9.7119
4388888845,,-0.01918116847941768,0.006387905062299246,0.0,0.60822,-0.16677000000000003,9.888480000000001
4393939350,,-0.02556907354171693,0.007452555906015787,0.0,0.6278400000000001,-0.21582,9.99639
4398989855,,-0.031956978604016174,0.01064650843716541,0.0,0.60822,-0.22563,9.92772
4404040360,,-0.03621558197888234,0.014905111812031574,0.0,0.59841,-0.28449,9.79038
4409090865,,-0.02982767691658309,0.0170518667919846,0.0,0.6180300000000001,-0.30411,9.74133
4414141370,,-0.02556907354171693,0.01918116847941768,0.0,0.60822,-0.32373,9.81
4419191875,,-0.013840460968315033,0.01811651763570114,0.0,0.5886,-0.31392000000000003,9.84924
4424242380,,-0.004258603374866164,0.021310470166850764,0.0,0.5591700000000001,-0.28449,9.819809999999999
4429292885,,0.002129301687433082,0.014905111812031574,0.0,0.5395500000000001,-0.23544,9.78057
4434343390,,0.003193952531149623,0.013840460968315033,0.0,0.51993,-0.1962,9.80019
4439393895,,0.006387905062299246,0.008517206749732328,0.0,0.50031,-0.15696000000000002,9.81
4444444400,,0.003193952531149623,0.003193952531149623,0.0,0.48069000000000006,-0.12753,9.80019
4449494905,,0.001064650843716541,0.0,0.0,0.50031,-0.0981,9.80019
4454545410,,0.0,-0.003193952531149623,0.0,0.49050000000000005,-0.12753,9.73152
4459595915,,-0.003193952531149623,-0.01064650843716541,0.0,0.49050000000000005,-0.10791,9.79038
4464646420,,-0.012775810124598492,-0.012775810124598492,0.0,0.51993,-0.13734000000000002,9.81
4469696925,,-0.021310470166850764,-0.015987215948268057,0.0,0.52974,-0.18639,9.80019
4474747430,,-0.02556907354171693,-0.015987215948268057,0.0,0.60822,-0.21582,9.81
4479797935,,-0.023439771854283843,-0.01811651763570114,0.0,0.59841,-0.24525000000000002,9.79038
4484848440,,-0.021310470166850764,-0.013840460968315033,0.0,0.6180300000000001,-0.25506,9.751140000000001
4489898945,,-0.015987215948268057,-0.015987215948268057,0.0,0.6278400000000001,-0.28449,9.80019
4494949450,,-0.006387905062299246,-0.015987215948268057,0.0,0.6278400000000001,-0.25506,9.819809999999999
4499999955,,-0.005323254218582705,-0.00958185759344887,0.0,0.65727,-0.23544,9.770760000000001
4505050460,,-0.001064650843716541,-0.004258603374866164,0.0,0.63765,-0.20601000000000003,9.751140000000001
4510100965,,-0.002129301687433082,0.002129301687433082,0.0,0.6180300000000001,-0.18639,9.81
4515151470,,-0.006387905062299246,0.007452555906015787,0.0,0.64746,-0.17658,9.84924
4520201975,,-0.01064650843716541,0.004258603374866164,0.0,0.63765,-0.14715,9.87867
4525252480,,-0.012775810124598492,0.005323254218582705,0.0,0.60822,-0.17658,9.82962
4530302985,,-0.013840460968315033,0.006387905062299246,0.0,0.60822,-0.1962,9.78057
4535353490,,-0.0170518667919846,0.006387905062299246,0.0,0.60822,-0.20601000000000003,9.81
4540403995,,-0.01918116847941768,0.007452555906015787,0.0,0.59841,-0.22563,9.83943
4545454500,,-0.022375121010567305,0.011711159280881954,0.0,0.57879,-0.26487,9.908100000000001
4550505005,,-0.021310470166850764,0.012775810124598492,0.0,0.60822,-0.24525000000000002,9.89829
4555555510,,-0.015987215948268057,0.013840460968315033,0.0,0.56898,-0.24525000000000002,9.81
4560606015,,-0.00958185759344887,0.00958185759344887,0.0,0.56898,-0.24525000000000002,9.73152
4565656520,,-0.008517206749732328,0.007452555906015787,0.0,0.5395500000000001,-0.25506,9.751140000000001
4570707025,,-0.007452555906015787,0.005323254218582705,0.0,0.56898,-0.21582,9.87867
4575757530,,-0.008517206749732328,0.004258603374866164,0.0,0.5591700000000001,-0.22563,9.92772
4580808035,,-0.00958185759344887,0.001064650843716541,0.0,0.52974,-0.23544,9.87867
4585858540,,-0.00958185759344887,0.0,0.0,0.5395500000000001,-0.24525000000000002,9.72171
4590909045,,-0.008517206749732328,-0.004258603374866164,0.0,0.5591700000000001,-0.23544,9.70209
4595959550,,-0.006387905062299246,-0.006387905062299246,0.0,0.56898,-0.23544,9.81
4601010055,,-0.005323254218582705,-0.008517206749732328,0.0,0.56898,-0.21582,9.908100000000001
4606060560,,-0.006387905062299246,-0.002129301687433082,0.0,0.5886,-0.20601000000000003,9.81
4611111065,,-0.004258603374866164,-0.004258603374866164,0.0,0.5886,-0.1962,9.69228
4616161570,,-0.003193952531149623,-0.006387905062299246,0.0,0.5886,-0.18639,9.67266
4621212075,,-0.002129301687433082,-0.011711159280881954,0.0,0.59841,-0.15696000000000002,9.73152
4626262580,,-0.003193952531149623,-0.012775810124598492,0.0,0.56898,-0.15696000000000002,9.819809999999999
4631313085,,-0.003193952531149623,-0.00958185759344887,0.0,0.59841,-0.12753,9.82962
4636363590,,-0.00958185759344887,-0.007452555906015787,0.0,0.60822,-0.16677000000000003,9.760950000000001
4641414095,,-0.015987215948268057,-0.008517206749732328,0.0,0.59841,-0.16677000000000003,9.69228
4646464600,,-0.022375121010567305,-0.005323254218582705,0.0,0.6278400000000001,-0.22563,9.74133
4651515105,,-0.022375121010567305,-0.001064650843716541,0.0,0.6180300000000001,-0.22563,9.85905
4656565610,,-0.023439771854283843,0.0,0.0,0.6278400000000001,-0.26487,9.89829
4661616115,,-0.020245819323134222,0.005323254218582705,0.0,0.6278400000000001,-0.26487,9.79038
4666666620,,-0.0170518667919846,0.004258603374866164,0.0,0.63765,-0.26487,9.7119
4671717125,,-0.013840460968315033,0.002129301687433082,0.0,0.6278400000000001,-0.24525000000000002,9.79038
4676767630,,-0.01811651763570114,0.006387905062299246,0.0,0.60822,-0.24525000000000002,9.92772
4681818135,,-0.015987215948268057,0.01064650843716541,0.0,0.60822,-0.24525000000000002,9.888480000000001
4686868640,,-0.012775810124598492,0.013840460968315033,0.0,0.57879,-0.26487,9.81
4691919145,,-0.013840460968315033,0.013840460968315033,0.0,0.5493600000000001,-0.25506,9.80019
4696969650,,-0.012775810124598492,0.011711159280881954,0.0,0.5591700000000001,-0.24525000000000002,9.83943
4702020155,,-0.014905111812031574,0.01064650843716541,0.0,0.5591700000000001,-0.25506,9.89829
4707070660,,-0.015987215948268057,0.008517206749732328,0.0,0.5591700000000001,-0.28449,9.84924
4712121165,,-0.014905111812031574,0.007452555906015787,0.0,0.5493600000000001,-0.28449,9.78057
4717171670,,-0.013840460968315033,0.005323254218582705,0.0,0.5395500000000001,-0.24525000000000002,9.78057
4722222175,,-0.007452555906015787,0.004258603374866164,0.0,0.51993,-0.24525000000000002,9.81
4727272680,,-0.004258603374866164,0.0,0.0,0.5591700000000001,-0.22563,9.86886
4732323185,,-0.003193952531149623,-0.003193952531149623,0.0,0.5395500000000001,-0.18639,9.819809999999999
4737373690,,-0.004258603374866164,-0.004258603374866164,0.0,0.52974,-0.17658,9.7119
4742424195,,-0.005323254218582705,-0.006387905062299246,0.0,0.5493600000000001,-0.17658,9.68247
4747474700,,-0.012775810124598492,-0.005323254218582705,0.0,0.5395500000000001,-0.20601000000000003,9.78057
4752525205,,-0.013840460968315033,-0.007452555906015787,0.0,0.56898,-0.1962,9.888480000000001
4757575710,,-0.0170518667919846,-0.00958185759344887,0.0,0.5591700000000001,-0.23544,9.83943
4762626215,,-0.01811651763570114,-0.01064650843716541,0.0,0.60822,-0.22563,9.70209
4767676720,,-0.013840460968315033,-0.011711159280881954,0.0,0.57879,-0.25506,9.623610000000001
4772727225,,-0.01064650843716541,-0.01064650843716541,0.0,0.60822,-0.21582,9.74133
4777777730,,-0.007452555906015787,-0.00958185759344887,0.0,0.6180300000000001,-0.1962,9.87867
4782828235,,-0.011711159280881954,-0.002129301687433082,0.0,0.6180300000000001,-0.20601000000000003,9.86886
4787878740,,-0.015987215948268057,0.0,0.0,0.6180300000000001,-0.21582,9.74133
4792929245,,-0.0170518667919846,0.0,0.0,0.6180300000000001,-0.24525000000000002,9.69228
4797979750,,-0.020245819323134222,0.003193952531149623,0.0,0.6278400000000001,-0.21582,9.82962
4803030255,,-0.024504422698000388,0.003193952531149623,0.0,0.63765,-0.30411,9.96696
4808080760,,-0.023439771854283843,0.005323254218582705,0.0,0.6278400000000001,-0.2943,9.92772
4813131265,,-0.02556907354171693,0.004258603374866164,0.0,0.60822,-0.28449,9.78057
4818181770,,-0.01811651763570114,0.005323254218582705,0.0,0.59841,-0.31392000000000003,9.72171
4823232275,,-0.012775810124598492,0.00958185759344887,0.0,0.60822,-0.30411,9.80019
4828282780,,-0.012775810124598492,0.013840460968315033,0.0,0.6180300000000001,-0.28449,9.937529999999999
4833333285,,-0.011711159280881954,0.01064650843716541,0.0,0.57879,-0.24525000000000002,9.89829
4838383790,,-0.011711159280881954,0.01064650843716541,0.0,0.56898,-0.27468000000000004,9.770760000000001
4843434295,,-0.014905111812031574,0.007452555906015787,0.0,0.5395500000000001,-0.26487,9.7119
4848484800,,-0.012775810124598492,0.008517206749732328,0.0,0.51993,-0.25506,9.770760000000001
4853535305,,-0.012775810124598492,0.003193952531149623,0.0,0.5591700000000001,-0.24525000000000002,9.908100000000001
4858585810,,-0.011711159280881954,0.0,0.0,0.5493600000000001,-0.27468000000000004,9.91791
4863636315,,-0.011711159280881954,-0.002129301687433082,0.0,0.5591700000000001,-0.25506,9.79038
4868686820,,-0.008517206749732328,-0.005323254218582705,0.0,0.5591700000000001,-0.25506,9.66285
4873737325,,-0.007452555906015787,-0.005323254218582705,0.0,0.52974,-0.24525000000000002,9.72171
4878787830,,-0.005323254218582705,-0.004258603374866164,0.0,0.56898,-0.23544,9.86886
4883838335,,-0.011711159280881954,-0.004258603374866164,0.0,0.5591700000000001,-0.23544,9.908100000000001
4888888840,,-0.020245819323134222,-0.005323254218582705,0.0,0.56898,-0.25506,9.80019
4893939345,,-0.021310470166850764,-0.007452555906015787,0.0,0.5493600000000001,-0.27468000000000004,9.70209
4898989850,,-0.022375121010567305,-0.007452555906015787,0.0,0.5886,-0.2943,9.73152
4904040355,,-0.01918116847941768,-0.01064650843716541,0.0,0.60822,-0.30411,9.82962
4909090860,,-0.012775810124598492,-0.008517206749732328,0.0,0.60822,-0.27468000000000004,9.888480000000001
4914141365,,-0.011711159280881954,-0.006387905062299246,0.0,0.6278400000000001,-0.26487,9.819809999999999
4919191870,,-0.007452555906015787,-0.005323254218582705,0.0,0.60822,-0.27468000000000004,9.72171
4924242375,,-0.007452555906015787,0.001064650843716541,0.0,0.6180300000000001,-0.24525000000000002,9.73152
4929292880,,-0.008517206749732328,0.003193952531149623,0.0,0.6180300000000001,-0.22563,9.82962
4934343385,,-0.01064650843716541,0.003193952531149623,0.0,0.6180300000000001,-0.23544,9.82962
4939393890,,-0.011711159280881954,0.005323254218582705,0.0,0.60822,-0.23544,9.819809999999999
4944444395,,-0.015987215948268057,0.005323254218582705,0.0,0.59841,-0.23544,9.751140000000001
4949494900,,-0.0170518667919846,0.004258603374866164,0.0,0.57879,-0.21582,9.760950000000001
4954545405,,-0.01811651763570114,0.003193952531149623,0.0,0.57879,-0.23544,9.78057
4959595910,,-0.01811651763570114,0.002129301687433082,0.0,0.59841,-0.25506,9.81
4964646415,,-0.014905111812031574,0.005323254218582705,0.0,0.59841,-0.23544,9.81
4969696920,,-0.020245819323134222,0.003193952531149623,0.0,0.56898,-0.24525000000000002,9.80019
4974747425,,-0.01918116847941768,0.005323254218582705,0.0,0.57879,-0.27468000000000004,9.78057
4979797930,,-0.020245819323134222,0.006387905062299246,0.0,0.56898,-0.27468000000000004,9.79038
4984848435,,-0.023439771854283843,0.007452555906015787,0.0,0.5591700000000001,-0.30411,9.82962
4989898940,,-0.02663372438543347,0.004258603374866164,0.0,0.57879,-0.31392000000000003,9.84924
4994949445,,-0.02556907354171693,-0.001064650843716541,0.0,0.5395500000000001,-0.31392000000000003,9.83943
4999999950,,-0.021310470166850764,-0.001064650843716541,0.0,0.5395500000000001,-0.35316,9.81
5005050455,,-0.014905111812031574,-0.001064650843716541,0.0,0.5886,-0.32373,9.82962
5010100960,,-0.00958185759344887,0.0,0.0,0.5886,-0.32373,9.83943
5015151465,,-0.008517206749732328,0.0,0.0,0.57879,-0.28449,9.80019
5020201970,,-0.00958185759344887,0.001064650843716541,0.0,0.5591700000000001,-0.25506,9.760950000000001
5025252475,,-0.011711159280881954,0.002129301687433082,0.0,0.5395500000000001,-0.27468000000000004,9.78057
5030302980,,-0.012775810124598492,0.003193952531149623,0.0,0.57879,-0.25506,9.81
5035353485,,-0.012775810124598492,0.002129301687433082,0.0,0.5395500000000001,-0.24525000000000002,9.82962
5040403990,,-0.011711159280881954,-0.006387905062299246,0.0,0.5493600000000001,-0.23544,9.770760000000001
5045454495,,-0.011711159280881954,-0.006387905062299246,0.0,0.56898,-0.22563,9.70209
5050505000,,-0.008517206749732328,-0.007452555906015787,0.0,0.57879,-0.21582,9.760950000000001
5055555505,,-0.011711159280881954,-0.005323254218582705,0.0,0.60822,-0.20601000000000003,9.83943
5060606010,,-0.012775810124598492,-0.001064650843716541,0.0,0.5886,-0.27468000000000004,9.85905
5065656515,,-0.01811651763570114,-0.001064650843716541,0.0,0.57879,-0.27468000000000004,9.751140000000001
5070707020,,-0.024504422698000388,-0.001064650843716541,0.0,0.59841,-0.2943,9.69228
5075757525,,-0.028763026072866547,0.001064650843716541,0.0,0.59841,-0.28449,9.74133
5080808030,,-0.02556907354171693,0.002129301687433082,0.0,0.59841,-0.30411,9.84924
5085858535,,-0.01811651763570114,0.002129301687433082,0.0,0.60822,-0.2943,9.89829
5090909040,,-0.01918116847941768,-0.001064650843716541,0.0,0.60822,-0.2943,9.819809999999999
5095959545,,-0.015987215948268057,0.0,0.0,0.57879,-0.30411,9.7119
5101010050,,-0.014905111812031574,0.0,0.0,0.59841,-0.32373,9.74133
5106060555,,-0.0170518667919846,0.005323254218582705,0.0,0.60822,-0.30411,9.86886
5111111060,,-0.01811651763570114,0.005323254218582705,0.0,0.59841,-0.27468000000000004,9.91791
5116161565,,-0.023439771854283843,0.011711159280881954,0.0,0.56898,-0.31392000000000003,9.83943
5121212070,,-0.020245819323134222,0.008517206749732328,0.0,0.57879,-0.2943,9.760950000000001
5126262575,,-0.013840460968315033,0.001064650843716541,0.0,0.5591700000000001,-0.31392000000000003,9.760950000000001
5131313080,,-0.013840460968315033,0.004258603374866164,0.0,0.5591700000000001,-0.30411,9.86886
5136363585,,-0.011711159280881954,0.003193952531149623,0.0,0.5591700000000001,-0.27468000000000004,9.92772
5141414090,,-0.01811651763570114,0.004258603374866164,0.0,0.5395500000000001,-0.2943,9.87867
5146464595,,-0.021310470166850764,0.0,0.0,0.5493600000000001,-0.30411,9.78057
5151515100,,-0.023439771854283843,0.002129301687433082,0.0,0.5886,-0.32373,9.751140000000001
5156565605,,-0.022375121010567305,0.003193952531149623,0.0,0.56898,-0.33354000000000006,9.819809999999999
5161616110,,-0.01918116847941768,0.0,0.0,0.5493600000000001,-0.36297,9.86886
5166666615,,-0.013840460968315033,0.001064650843716541,0.0,0.57879,-0.36297,9.83943
5171717120,21.84,-0.006387905062299246,0.0,0.0,0.5591700000000001,-0.32373,9.78057
5176767625,21.84,-0.004258603374866164,-0.001064650843716541,0.0,0.5395500000000001,-0.30411,9.74133
5181818130,21.84,-0.005323254218582705,-0.003193952531149623,0.0,0.5591700000000001,-0.2943,9.770760000000001
5186868635,21.84,-0.004258603374866164,-0.004258603374866164,0.0,0.5493600000000001,-0.22563,9.79038
5191919140,21.84,-0.011711159280881954,-0.001064650843716541,0.0,0.5493600000000001,-0.28449,9.78057
5196969645,21.84,-0.015987215948268057,-0.005323254218582705,0.0,0.5591700000000001,-0.26487,9.7119
5202020150,21.84,-0.014905111812031574,-0.005323254218582705,0.0,0.5591700000000001,-0.27468000000000004,9.70209
5207070655,21.84,-0.013840460968315033,-0.004258603374866164,0.0,0.5886,-0.23544,9.74133
5212121160,21.84,-0.01064650843716541,-0.004258603374866164,0.0,0.59841,-0.24525000000000002,9.80019
5217171665,21.84,-0.011711159280881954,-0.001064650843716541,0.0,0.5886,-0.25506,9.79038
5222222170,21.84,-0.01811651763570114,0.0,0.0,0.59841,-0.24525000000000002,9.72171
5227272675,21.84,-0.021310470166850764,-0.002129301687433082,0.0,0.5886,-0.26487,9.74133
5232323180,21.84,-0.02982767691658309,0.0,0.0,0.60822,-0.32373,9.819809999999999
5237373685,21.84,-0.033021629447732716,0.0,0.0,0.6180300000000001,-0.33354000000000006,9.888480000000001
5242424190,21.84,-0.03515093113516579,0.0,0.0,0.59841,-0.37278,9.83943
5247474695,21.84,-0.03089232776029963,0.0,0.0,0.60822,-0.38259000000000004,9.770760000000001
5252525200,21.84,-0.023439771854283843,0.004258603374866164,0.0,0.6180300000000001,-0.40221,9.80019
5257575705,21.84,-0.015987215948268057,0.007452555906015787,0.0,0.60822,-0.3924,9.86886
5262626210,21.84,-0.012775810124598492,0.012775810124598492,0.0,0.60822,-0.35316,9.89829
5267676715,21.84,-0.0170518667919846,0.011711159280881954,0.0,0.59841,-0.34335000000000004,9.87867
5272727220,21.84,-0.020245819323134222,0.011711159280881954,0.0,0.5591700000000001,-0.37278,9.770760000000001
5277777725,21.84,-0.01918116847941768,0.006387905062299246,0.0,0.5493600000000001,-0.38259000000000004,9.760950000000001
5282828230,21.84,-0.015987215948268057,0.006387905062299246,0.0,0.57879,-0.37278,9.79038
5287878735,21.84,-0.011711159280881954,0.004258603374866164,0.0,0.57879,-0.35316,9.87867
5292929240,21.84,-0.002129301687433082,0.0,0.0,0.57879,-0.2943,9.85905
5297979745,21.84,-0.002129301687433082,0.0,0.0,0.5493600000000001,-0.26487,9.770760000000001
5303030250,21.84,-0.005323254218582705,0.001064650843716541,0.0,0.5395500000000001,-0.2943,9.74133
5308080755,21.84,-0.011711159280881954,0.0,0.0,0.5395500000000001,-0.26487,9.770760000000001
5313131260,21.84,-0.020245819323134222,0.0,0.0,0.5395500000000001,-0.28449,9.819809999999999
5318181765,21.84,-0.02663372438543347,-0.002129301687433082,0.0,0.5395500000000001,-0.31392000000000003,9.819809999999999
5323232270,21.84,-0.024504422698000388,-0.011711159280881954,0.0,0.52974,-0.34335000000000004,9.760950000000001
5328282775,21.84,-0.020245819323134222,-0.013840460968315033,0.0,0.5591700000000001,-0.31392000000000003,9.69228
5333333280,21.84,-0.014905111812031574,-0.014905111812031574,0.0,0.59841,-0.34335000000000004,9.73152
5338383785,21.84,-0.00958185759344887,-0.012775810124598492,0.0,0.59841,-0.33354000000000006,9.85905
5343434290,21.84,-0.012775810124598492,-0.001064650843716541,0.0,0.60822,-0.30411,9.84924
5348484795,21.84,-0.024504422698000388,0.002129301687433082,0.0,0.59841,-0.31392000000000003,9.74133
5353535300,21.84,-0.02663372438543347,0.0,0.0,0.5886,-0.35316,9.7119
5358585805,21.84,-0.02769837522915001,-0.001064650843716541,0.0,0.59841,-0.38259000000000004,9.79038
5363636310,21.84,-0.022375121010567305,0.0,0.0,0.6180300000000001,-0.37278,9.87867
5368686815,21.84,-0.015987215948268057,-0.001064650843716541,0.0,0.63765,-0.38259000000000004,9.908100000000001
5373737320,21.84,-0.011711159280881954,-0.002129301687433082,0.0,0.60822,-0.35316,9.82962
5378787825,21.84,-0.013840460968315033,0.002129301687433082,0.0,0.60822,-0.38259000000000004,9.770760000000001
5383838330,21.84,-0.01811651763570114,0.008517206749732328,0.0,0.60822,-0.35316,9.819809999999999
5388888835,21.84,-0.02556907354171693,0.013840460968315033,0.005323254218582705,0.59841,-0.37278,9.92772
5393939340,21.84,-0.02769837522915001,0.01811651763570114,0.001064650843716541,0.5886,-0.3924,9.91791
5398989845,21.84,-0.02663372438543347,0.011711159280881954,0.0,0.5886,-0.42183,9.81
5404040350,21.84,-0.01918116847941768,0.004258603374866164,-0.002129301687433082,0.56898,-0.41202000000000005,9.7119
5409090855,21.84,-0.013840460968315033,0.002129301687433082,0.001064650843716541,0.5493600000000001,-0.3924,9.751140000000001
5414141360,21.84,-0.008517206749732328,-0.0,-0.001064650843716541,0.57879,-0.37278,9.89829
5419191865,21.84,-0.006387905062299246,0.006387905062299246,0.001064650843716541,0.5886,-0.35316,9.89829
5424242370,21.84,-0.01064650843716541,0.008517206749732328,0.002129301687433082,0.5493600000000001,-0.33354000000000006,9.81
5429292875,21.84,-0.013840460968315033,0.007452555906015787,0.002129301687433082,0.51993,-0.32373,9.69228
5434343380,21.84,-0.013840460968315033,0.001064650843716541,0.003193952531149623,0.5395500000000001,-0.33354000000000006,9.7119
5439393885,21.84,-0.012775810124598492,-0.005323254218582705,-0.002129301687433082,0.5395500000000001,-0.31392000000000003,9.751140000000001
5444444390,21.84,-0.008517206749732328,-0.00958185759344887,-0.004258603374866164,0.5395500000000001,-0.31392000000000003,9.760950000000001
5449494895,21.84,-0.006387905062299246,-0.008517206749732328,0.0,0.56898,-0.28449,9.760950000000001
5454545400,21.84,-0.012775810124598492,-0.008517206749732328,0.0,0.5591700000000001,-0.2943,9.760950000000001
5459595905,21.84,-0.01811651763570114,-0.004258603374866164,0.001064650843716541,0.56898,-0.30411,9.770760000000001
5464646410,21.84,-0.022375121010567305,-0.003193952531149623,0.001064650843716541,0.5493600000000001,-0.31392000000000003,9.80019
5469696915,21.84,-0.024504422698000388,-0.003193952531149623,0.003193952531149623,0.5591700000000001,-0.35316,9.81
5474747420,21.84,-0.02769837522915001,-0.007452555906015787,-0.001064650843716541,0.57879,-0.36297,9.80019
5479797925,21.84,-0.02556907354171693,-0.00958185759344887,-0.002129301687433082,0.5886,-0.37278,9.72171
5484848430,21.84,-0.021310470166850764,-0.00958185759344887,-0.003193952531149623,0.6278400000000001,-0.41202000000000005,9.760950000000001
5489898935,21.84,-0.023439771854283843,-0.006387905062299246,0.0,0.6278400000000001,-0.38259000000000004,9.87867
5494949440,21.84,-0.021310470166850764,0.002129301687433082,0.001064650843716541,0.63765,-0.35316,9.908100000000001
5499999945,21.84,-0.024504422698000388,0.00958185759344887,0.002129301687433082,0.6278400000000001,-0.40221,9.85905
5505050450,21.84,-0.023439771854283843,0.012775810124598492,0.004258603374866164,0.5886,-0.41202000000000005,9.751140000000001
5510100955,21.84,-0.022375121010567305,0.01064650843716541,0.0,0.57879,-0.3924,9.760950000000001
5515151460,21.84,-0.021310470166850764,0.005323254218582705,-0.001064650843716541,0.5886,-0.40221,9.83943
5520201965,21.84,-0.01918116847941768,0.004258603374866164,-0.001064650843716541,0.60822,-0.3924,9.91791
5525252470,21.84,-0.013840460968315033,0.004258603374866164,-0.001064650843716541,0.5886,-0.38259000000000004,9.85905
5530302975,21.84,-0.013840460968315033,0.005323254218582705,0.0,0.56898,-0.38259000000000004,9.79038
5535353480,21.84,-0.015987215948268057,0.00958185759344887,0.0,0.56898,-0.38259000000000004,9.760950000000001
5540403985,21.84,-0.01918116847941768,0.013840460968315033,0.0,0.56898,-0.3924,9.81
5545454490,21.84,-0.022375121010567305,0.013840460968315033,0.004258603374866164,0.51993,-0.38259000000000004,9.89829
5550504995,21.84,-0.022375121010567305,0.01064650843716541,0.0,0.5395500000000001,-0.38259000000000004,9.82962
5555555500,21.84,-0.01811651763570114,0.003193952531149623,0.0,0.52974,-0.36297,9.760950000000001
5560606005,21.84,-0.013840460968315033,-0.004258603374866164,-0.003193952531149623,0.51993,-0.38259000000000004,9.7119
5565656510,21.84,-0.011711159280881954,-0.013840460968315033,-0.002129301687433082,0.5493600000000001,-0.38259000000000004,9.78057
5570707015,21.84,-0.012775810124598492,-0.011711159280881954,0.0,0.56898,-0.38259000000000004,9.82962
5575757520,21.84,-0.015987215948268057,-0.004258603374866164,0.001064650843716541,0.56898,-0.36297,9.82962
5580808025,21.84,-0.020245819323134222,0.002129301687433082,0.002129301687433082,0.56898,-0.34335000000000004,9.78057
5585858530,21.84,-0.020245819323134222,0.003193952531149623,0.005323254218582705,0.5493600000000001,-0.35316,9.74133
5590909035,21.84,-0.0170518667919846,-0.003193952531149623,0.001064650843716541,0.57879,-0.35316,9.81
5595959540,21.84,-0.014905111812031574,-0.008517206749732328,0.0,0.5591700000000001,-0.35316,9.819809999999999
5601010045,21.84,-0.015987215948268057,-0.012775810124598492,-0.005323254218582705,0.5886,-0.38259000000000004,9.79038
5606060550,21.84,-0.01811651763570114,-0.012775810124598492,0.002129301687433082,0.60822,-0.3924,9.79038
5611111055,21.84,-0.023439771854283843,-0.007452555906015787,0.0,0.60822,-0.41202000000000005,9.819809999999999
5616161560,21.84,-0.02663372438543347,-0.002129301687433082,0.0,0.60822,-0.43164,9.87867
5621212065,21.84,-0.03408628029144926,0.006387905062299246,0.002129301687433082,0.63765,-0.44145,9.908100000000001
5626262570,21.84,-0.024504422698000388,0.006387905062299246,0.001064650843716541,0.59841,-0.44145,9.82962
5631313075,21.84,-0.0170518667919846,0.006387905062299246,0.0,0.60822,-0.42183,9.79038
5636363580,21.84,-0.007452555906015787,-0.0,-0.001064650843716541,0.60822,-0.44145,9.80019
5641414085,21.84,-0.00958185759344887,0.0,0.0,0.5886,-0.3924,9.819809999999999
5646464590,21.84,-0.011711159280881954,0.005323254218582705,0.0,0.60822,-0.40221,9.82962
5651515095,21.84,-0.01918116847941768,0.005323254218582705,0.001064650843716541,0.59841,-0.3924,9.78057
5656565600,21.84,-0.01811651763570114,0.011711159280881954,0.004258603374866164,0.5591700000000001,-0.38259000000000004,9.751140000000001
5661616105,21.84,-0.014905111812031574,0.014905111812031574,0.003193952531149623,0.5493600000000001,-0.38259000000000004,9.770760000000001
5666666610,21.84,-0.007452555906015787,0.006387905062299246,0.001064650843716541,0.5493600000000001,-0.32373,9.82962
5671717115,21.84,-0.004258603374866164,0.0,0.0,0.51993,-0.35316,9.770760000000001
5676767620,21.84,-0.008517206749732328,-0.004258603374866164,0.0,0.5493600000000001,-0.32373,9.72171
5681818125,21.84,-0.014905111812031574,-0.004258603374866164,0.0,0.5395500000000001,-0.33354000000000006,9.70209
5686868630,21.84,-0.02556907354171693,0.0,0.001064650843716541,0.56898,-0.40221,9.751140000000001
5691919135,21.84,-0.03408628029144926,0.0,0.0,0.57879,-0.40221,9.86886
5696969640,21.84,-0.03408628029144926,0.002129301687433082,0.002129301687433082,0.5493600000000001,-0.42183,9.86886
5702020145,21.84,-0.02769837522915001,0.0,0.0,0.57879,-0.46107000000000004,9.78057
5707070650,21.84,-0.015987215948268057,-0.008517206749732328,0.0,0.5591700000000001,-0.44145,9.70209
5712121155,21.84,-0.01064650843716541,-0.007452555906015787,-0.001064650843716541,0.57879,-0.42183,9.751140000000001
5717171660,21.84,-0.015987215948268057,-0.007452555906015787,0.0,0.5886,-0.42183,9.85905
5722222165,21.84,-0.020245819323134222,-0.004258603374866164,0.0,0.60822,-0.46107000000000004,9.908100000000001
5727272670,21.84,-0.028763026072866547,0.001064650843716541,0.0,0.5886,-0.45126,9.83943
5732323175,21.84,-0.023439771854283843,0.003193952531149623,0.003193952531149623,0.5886,-0.47088,9.70209
5737373680,21.84,-0.014905111812031574,0.0,0.0,0.5886,-0.41202000000000005,9.73152
5742424185,21.84,-0.005323254218582705,0.002129301687433082,0.0,0.5886,-0.38259000000000004,9.819809999999999
5747474690,21.84,-0.001064650843716541,-0.001064650843716541,0.001064650843716541,0.5886,-0.35316,9.89829
5752525195,21.84,-0.006387905062299246,0.001064650843716541,0.0,0.57879,-0.37278,9.85905
5757575700,21.84,-0.020245819323134222,0.002129301687433082,0.0,0.5886,-0.36297,9.760950000000001
5762626205,21.84,-0.02982767691658309,0.005323254218582705,0.0,0.57879,-0.43164,9.72171
5767676710,21.84,-0.03621558197888234,0.007452555906015787,-0.001064650843716541,0.56898,-0.44145,9.81
5772727215,21.84,-0.028763026072866547,0.006387905062299246,0.0,0.57879,-0.46107000000000004,9.86886
5777777720,21.84,-0.020245819323134222,0.003193952531149623,0.0,0.56898,-0.42183,9.819809999999999
5782828225,21.84,-0.011711159280881954,0.002129301687433082,0.002129301687433082,0.5591700000000001,-0.42183,9.760950000000001
5787878730,21.84,-0.00958185759344887,0.0,0.002129301687433082,0.56898,-0.45126,9.73152
5792929235,21.84,-0.01918116847941768,0.002129301687433082,0.001064650843716541,0.5493600000000001,-0.42183,9.760950000000001
5797979740,21.84,-0.02556907354171693,0.0,0.002129301687433082,0.5395500000000001,-0.48069000000000006,9.819809999999999
5803030245,21.84,-0.02556907354171693,0.001064650843716541,0.0,0.5493600000000001,-0.47088,9.85905
5808080750,21.84,-0.023439771854283843,0.002129301687433082,0.001064650843716541,0.5395500000000001,-0.44145,9.819809999999999
5813131255,21.84,-0.012775810124598492,0.0,0.0,0.56898,-0.42183,9.74133
5818181760,21.84,0.0,-0.001064650843716541,0.001064650843716541,0.57879,-0.40221,9.74133
5823232265,21.84,-0.005323254218582705,-0.003193952531149623,0.0,0.5886,-0.38259000000000004,9.80019
5828282770,21.84,-0.011711159280881954,-0.001064650843716541,0.0,0.56898,-0.41202000000000005,9.83943
5833333275,21.84,-0.02556907354171693,0.001064650843716541,0.003193952531149623,0.56898,-0.42183,9.86886
5838383780,21.84,-0.031956978604016174,0.001064650843716541,0.001064650843716541,0.5591700000000001,-0.45126,9.81
5843434285,21.84,-0.03408628029144926,-0.0,-0.001064650843716541,0.56898,-0.49050000000000005,9.79038
5848484790,21.84,-0.02663372438543347,0.0,0.0,0.56898,-0.47088,9.751140000000001
5853535295,21.84,-0.013840460968315033,-0.005323254218582705,-0.003193952531149623,0.5886,-0.49050000000000005,9.760950000000001
5858585800,21.84,-0.007452555906015787,-0.003193952531149623,0.0,0.6180300000000001,-0.46107000000000004,9.83943
5863636305,21.84,-0.008517206749732328,0.0,0.001064650843716541,0.6180300000000001,-0.46107000000000004,9.819809999999999
5868686810,21.84,-0.015987215948268057,0.004258603374866164,0.001064650843716541,0.60822,-0.43164,9.81
5873737315,21.84,-0.022375121010567305,0.008517206749732328,0.002129301687433082,0.56898,-0.46107000000000004,9.78057
5878787820,21.84,-0.021310470166850764,0.005323254218582705,0.001064650843716541,0.5886,-0.43164,9.78057
5883838325,21.84,-0.015987215948268057,0.002129301687433082,-0.001064650843716541,0.5591700000000001,-0.42183,9.74133
5888888830,21.84,-0.00958185759344887,-0.001064650843716541,0.0,0.5493600000000001,-0.40221,9.751140000000001
5893939335,21.84,-0.004258603374866164,-0.002129301687433082,-0.001064650843716541,0.57879,-0.37278,9.751140000000001
5898989840,21.84,-0.005323254218582705,0.0,0.001064650843716541,0.57879,-0.40221,9.78057
5904040345,21.84,-0.015987215948268057,0.003193952531149623,0.002129301687433082,0.57879,-0.3924,9.83943
5909090850,21.84,-0.024504422698000388,0.004258603374866164,0.003193952531149623,0.57879,-0.42183,9.81
5914141355,21.84,-0.028763026072866547,0.003193952531149623,0.0,0.5493600000000001,-0.44145,9.770760000000001
5919191860,21.84,-0.03089232776029963,0.003193952531149623,0.001064650843716541,0.5493600000000001,-0.44145,9.7119
5924242365,21.84,-0.023439771854283843,-0.004258603374866164,0.0,0.5493600000000001,-0.45126,9.770760000000001
5929292870,21.84,-0.0170518667919846,-0.003193952531149623,-0.002129301687433082,0.57879,-0.47088,9.81
5934343375,21.84,-0.01811651763570114,-0.004258603374866164,-0.002129301687433082,0.5886,-0.47088,9.83943
5939393880,21.84,-0.01918116847941768,0.0,0.0,0.60822,-0.50031,9.819809999999999
5944444385,21.84,-0.02556907354171693,0.007452555906015787,0.001064650843716541,0.57879,-0.48069000000000006,9.770760000000001
5949494890,21.84,-0.024504422698000388,0.005323254218582705,0.003193952531149623,0.5886,-0.50031,9.770760000000001
5954545395,21.84,-0.020245819323134222,0.005323254218582705,0.0,0.5591700000000001,-0.49050000000000005,9.81
5959595900,21.84,-0.015987215948268057,0.002129301687433082,0.0,0.5591700000000001,-0.48069000000000006,9.83943
5964646405,21.84,-0.011711159280881954,-0.001064650843716541,0.0,0.57879,-0.44145,9.78057
5969696910,21.84,-0.005323254218582705,-0.001064650843716541,0.0,0.56898,-0.45126,9.73152
5974747415,21.84,-0.00958185759344887,0.001064650843716541,0.002129301687433082,0.5591700000000001,-0.44145,9.751140000000001
5979797920,21.84,-0.013840460968315033,0.003193952531149623,0.003193952531149623,0.5886,-0.45126,9.83943
5984848425,21.84,-0.022375121010567305,0.007452555906015787,0.001064650843716541,0.57879,-0.45126,9.86886
5989898930,21.84,-0.022375121010567305,0.003193952531149623,0.0,0.5591700000000001,-0.43164,9.770760000000001
5994949435,21.84,-0.021310470166850764,0.0,0.0,0.5493600000000001,-0.46107000000000004,9.72171
5999999940,21.84,-0.021310470166850764,-0.002129301687433082,0.0,0.57879,-0.47088,9.751140000000001
6005050445,21.84,-0.015987215948268057,-0.005323254218582705,0.002129301687433082,0.5591700000000001,-0.47088,9.78057
6010100950,21.84,-0.015987215948268057,-0.004258603374866164,-0.001064650843716541,0.57879,-0.48069000000000006,9.83943
6015151455,21.84,-0.020245819323134222,-0.003193952531149623,0.0,0.56898,-0.49050000000000005,9.79038
6020201960,21.84,-0.021310470166850764,0.003193952531149623,0.0,0.56898,-0.47088,9.751140000000001
6025252465,21.84,-0.022375121010567305,0.004258603374866164,0.001064650843716541,0.5395500000000001,-0.47088,9.78057
6030302970,21.84,-0.021310470166850764,0.003193952531149623,0.001064650843716541,0.56898,-0.50031,9.81
6035353475,21.84,-0.01811651763570114,0.002129301687433082,0.001064650843716541,0.5886,-0.45126,9.84924
6040403980,21.84,-0.014905111812031574,-0.004258603374866164,-0.001064650843716541,0.5591700000000001,-0.44145,9.84924
6045454485,21.84,-0.014905111812031574,-0.001064650843716541,0.002129301687433082,0.57879,-0.48069000000000006,9.79038
6050504990,21.84,-0.0170518667919846,-0.004258603374866164,0.0,0.6180300000000001,-0.48069000000000006,9.770760000000001
6055555495,21.84,-0.022375121010567305,0.0,0.001064650843716541,0.5886,-0.50031,9.819809999999999
6060606000,21.84,-0.024504422698000388,0.005323254218582705,0.003193952531149623,0.5886,-0.50031,9.91791
6065656505,21.84,-0.024504422698000388,0.007452555906015787,0.0,0.60822,-0.50031,9.86886
6070707010,21.84,-0.022375121010567305,0.005323254218582705,0.0,0.56898,-0.51993,9.80019
6075757515,21.84,-0.014905111812031574,0.003193952531149623,0.0,0.5591700000000001,-0.51993,9.751140000000001
6080808020,21.84,-0.011711159280881954,0.002129301687433082,-0.001064650843716541,0.56898,-0.51993,9.770760000000001
6085858525,21.84,-0.008517206749732328,-0.002129301687433082,-0.003193952531149623,0.5591700000000001,-0.50031,9.819809999999999
6090909030,21.84,-0.011711159280881954,0.0,0.0,0.56898,-0.50031,9.79038
6095959535,21.84,-0.012775810124598492,0.003193952531149623,0.0,0.5591700000000001,-0.46107000000000004,9.751140000000001
6101010040,21.84,-0.014905111812031574,0.005323254218582705,0.003193952531149623,0.5493600000000001,-0.45126,9.751140000000001
6106060545,21.84,-0.011711159280881954,0.004258603374866164,0.0,0.5395500000000001,-0.45126,9.79038
6111111050,21.84,-0.011711159280881954,0.0,0.0,0.5493600000000001,-0.42183,9.760950000000001
6116161555,21.84,-0.011711159280881954,-0.003193952531149623,0.0,0.57879,-0.40221,9.74133
6121212060,21.84,-0.013840460968315033,-0.006387905062299246,0.0,0.5591700000000001,-0.42183,9.751140000000001
6126262565,21.84,-0.013840460968315033,-0.005323254218582705,0.0,0.57879,-0.42183,9.73152
6131313070,21.84,-0.0170518667919846,-0.005323254218582705,0.0,0.5591700000000001,-0.46107000000000004,9.72171
6136363575,21.84,-0.024504422698000388,-0.003193952531149623,0.0,0.5886,-0.47088,9.770760000000001
6141414080,21.84,-0.02556907354171693,0.0,0.0,0.56898,-0.48069000000000006,9.84924
6146464585,21.84,-0.02663372438543347,0.0,0.0,0.5591700000000001,-0.50031,9.81
6151515090,21.84,-0.023439771854283843,-0.001064650843716541,0.0,0.57879,-0.51012,9.770760000000001
6156565595,21.84,-0.01918116847941768,-0.005323254218582705,0.0,0.5886,-0.51993,9.78057
6161616100,21.84,-0.0170518667919846,-0.003193952531149623,0.0,0.60822,-0.51993,9.80019
6166666605,21.84,-0.021310470166850764,-0.002129301687433082,0.0,0.6180300000000001,-0.52974,9.83943
6171717110,21.84,-0.01811651763570114,0.003193952531149623,0.0,0.59841,-0.5493600000000001,9.84924
6176767615,21.84,-0.022375121010567305,0.005323254218582705,0.0,0.56898,-0.50031,9.85905
6181818120,21.84,-0.021310470166850764,0.00958185759344887,0.0,0.5886,-0.51012,9.79038
6186868625,21.84,-0.021310470166850764,0.01064650843716541,0.0,0.5591700000000001,-0.51993,9.74133
6191919130,21.84,-0.0170518667919846,0.0,0.0,0.56898,-0.51012,9.81
6196969635,21.84,-0.012775810124598492,0.002129301687433082,0.0,0.56898,-0.51012,9.888480000000001
6202020140,21.84,-0.01064650843716541,0.001064650843716541,0.0,0.56898,-0.48069000000000006,9.86886
6207070645,21.84,-0.014905111812031574,0.002129301687433082,0.0,0.56898,-0.50031,9.81
6212121150,21.84,-0.013840460968315033,0.004258603374866164,0.0,0.5395500000000001,-0.50031,9.751140000000001
6217171655,21.84,-0.021310470166850764,0.002129301687433082,0.0,0.5493600000000001,-0.51012,9.74133
6222222160,21.84,-0.021310470166850764,0.003193952531149623,0.0,0.5493600000000001,-0.51993,9.80019
6227272665,21.84,-0.01811651763570114,0.002129301687433082,0.0,0.5591700000000001,-0.5493600000000001,9.83943
6232323170,21.84,-0.011711159280881954,-0.002129301687433082,0.0,0.5493600000000001,-0.50031,9.81
6237373675,21.84,-0.00958185759344887,-0.004258603374866164,0.0,0.5395500000000001,-0.48069000000000006,9.72171
6242424180,21.84,-0.007452555906015787,-0.007452555906015787,0.0,0.5493600000000001,-0.49050000000000005,9.70209
6247474685,21.84,-0.011711159280881954,-0.004258603374866164,0.0,0.5591700000000001,-0.47088,9.751140000000001
6252525190,21.84,-0.015987215948268057,-0.001064650843716541,0.0,0.57879,-0.47088,9.82962
6257575695,21.84,-0.021310470166850764,0.0,0.0,0.57879,-0.47088,9.85905
6262626200,21.84,-0.021310470166850764,-0.002129301687433082,0.0,0.56898,-0.50031,9.78057
6267676705,21.84,-0.022375121010567305,-0.003193952531149623,0.0,0.56898,-0.51012,9.70209
6272727210,21.84,-0.020245819323134222,-0.006387905062299246,0.0,0.56898,-0.52974,9.751140000000001
6277777715,21.84,-0.01811651763570114,-0.005323254218582705,0.0,0.59841,-0.51993,9.86886
6282828220,21.84,-0.0170518667919846,-0.003193952531149623,0.0,0.6180300000000001,-0.52974,9.92772
6287878725,21.84,-0.021310470166850764,0.001064650843716541,0.0,0.60822,-0.5395500000000001,9.86886
6292929230,21.84,-0.024504422698000388,0.007452555906015787,0.0,0.5886,-0.5591700000000001,9.80019
6297979735,21.84,-0.02663372438543347,0.006387905062299246,0.0,0.5886,-0.59841,9.81
6303030240,21.84,-0.022375121010567305,0.006387905062299246,0.0,0.59841,-0.60822,9.819809999999999
6308080745,21.84,-0.020245819323134222,0.003193952531149623,0.0,0.5886,-0.57879,9.84924
6313131250,21.84,-0.014905111812031574,0.005323254218582705,0.0,0.57879,-0.57879,9.819809999999999
6318181755,21.84,-0.008517206749732328,0.002129301687433082,0.0,0.5886,-0.5493600000000001,9.81
6323232260,21.84,-0.005323254218582705,0.001064650843716541,0.0,0.56898,-0.52974,9.81
6328282765,21.84,-0.007452555906015787,0.007452555906015787,0.0,0.5493600000000001,-0.50031,9.78057
6333333270,21.84,-0.007452555906015787,0.006387905062299246,0.0,0.5493600000000001,-0.49050000000000005,9.80019
6338383775,21.84,-0.007452555906015787,0.006387905062299246,0.0,0.52974,-0.47088,9.78057
6343434280,21.84,-0.012775810124598492,0.001064650843716541,0.0,0.52974,-0.49050000000000005,9.751140000000001
6348484785,21.84,-0.012775810124598492,-0.003193952531149623,0.0,0.51993,-0.46107000000000004,9.73152
6353535290,21.84,-0.013840460968315033,-0.006387905062299246,0.0,0.5493600000000001,-0.50031,9.751140000000001
6358585795,21.84,-0.012775810124598492,-0.007452555906015787,0.0,0.56898,-0.49050000000000005,9.79038
6363636300,21.84,-0.015987215948268057,-0.004258603374866164,0.0,0.5591700000000001,-0.51012,9.78057
6368686805,21.84,-0.01918116847941768,-0.002129301687433082,0.0,0.57879,-0.50031,9.751140000000001
6373737310,21.84,-0.020245819323134222,-0.001064650843716541,0.0,0.5591700000000001,-0.52974,9.760950000000001
6378787815,21.84,-0.024504422698000388,-0.003193952531149623,0.0,0.56898,-0.52974,9.80019
6383838320,21.84,-0.024504422698000388,-0.003193952531149623,0.0,0.60822,-0.5591700000000001,9.81
6388888825,21.84,-0.02556907354171693,-0.003193952531149623,0.0,0.57879,-0.59841,9.78057
6393939330,21.84,-0.02556907354171693,-0.00958185759344887,0.0,0.60822,-0.60822,9.770760000000001
6398989835,21.84,-0.021310470166850764,-0.003193952531149623,0.0,0.5886,-0.59841,9.78057
6404040340,21.84,-0.013840460968315033,0.0,0.0,0.6180300000000001,-0.5591700000000001,9.83943
6409090845,21.84,-0.011711159280881954,0.002129301687433082,0.0,0.59841,-0.52974,9.86886
6414141350,21.84,-0.008517206749732328,0.006387905062299246,0.0,0.5886,-0.5395500000000001,9.79038
6419191855,21.84,-0.013840460968315033,0.006387905062299246,0.0,0.57879,-0.5395500000000001,9.78057
6424242360,21.84,-0.0170518667919846,0.007452555906015787,0.0,0.57879,-0.5493600000000001,9.80019
6429292865,21.84,-0.022375121010567305,0.008517206749732328,0.0,0.5395500000000001,-0.5493600000000001,9.82962
6434343370,21.84,-0.020245819323134222,0.005323254218582705,0.0,0.57879,-0.5591700000000001,9.86886
6439393875,21.84,-0.01918116847941768,0.002129301687433082,0.0,0.5493600000000001,-0.5493600000000001,9.751140000000001
6444444380,21.84,-0.012775810124598492,0.0,0.0,0.57879,-0.5395500000000001,9.760950000000001
6449494885,21.84,-0.008517206749732328,0.002129301687433082,0.0,0.5591700000000001,-0.5395500000000001,9.78057
6454545390,21.84,-0.008517206749732328,0.003193952531149623,0.0,0.5591700000000001,-0.51993,9.85905
6459595895,21.84,-0.01064650843716541,0.006387905062299246,0.0,0.52974,-0.51993,9.82962
6464646400,21.84,-0.01811651763570114,0.001064650843716541,0.0,0.5591700000000001,-0.5591700000000001,9.79038
6469696905,21.84,-0.023439771854283843,-0.003193952531149623,0.0,0.52974,-0.5591700000000001,9.770760000000001
6474747410,21.84,-0.021310470166850764,-0.006387905062299246,0.0,0.52974,-0.57879,9.760950000000001
6479797915,21.84,-0.0170518667919846,-0.005323254218582705,0.0,0.57879,-0.5886,9.79038
6484848420,21.84,-0.011711159280881954,-0.005323254218582705,0.0,0.57879,-0.5493600000000001,9.80019
6489898925,21.84,-0.006387905062299246,-0.004258603374866164,0.0,0.56898,-0.51012,9.770760000000001
6494949430,21.84,-0.008517206749732328,-0.001064650843716541,0.0,0.5493600000000001,-0.51012,9.751140000000001
6499999935,21.84,-0.008517206749732328,0.0,0.0,0.5493600000000001,-0.49050000000000005,9.78057
6505050440,21.84,-0.015987215948268057,0.0,0.0,0.56898,-0.51993,9.78057
6510100945,21.84,-0.021310470166850764,-0.001064650843716541,0.0,0.57879,-0.52974,9.79038
6515151450,21.84,-0.022375121010567305,-0.002129301687433082,0.0,0.5886,-0.5493600000000001,9.80019
6520201955,21.84,-0.023439771854283843,-0.002129301687433082,0.0,0.5886,-0.56898,9.79038
6525252460,21.84,-0.01918116847941768,0.0,0.0,0.5886,-0.56898,9.819809999999999
6530302965,21.84,-0.0170518667919846,0.002129301687433082,0.0,0.60822,-0.57879,9.85905
6535353470,21.84,-0.014905111812031574,0.005323254218582705,0.0,0.60822,-0.5493600000000001,9.85905
6540403975,21.84,-0.0170518667919846,0.006387905062299246,0.0,0.5886,-0.57879,9.82962
6545454480,21.84,-0.013840460968315033,0.003193952531149623,0.0,0.56898,-0.57879,9.79038
6550504985,21.84,-0.015987215948268057,0.004258603374866164,0.0,0.57879,-0.5886,9.83943
6555555490,21.84,-0.01918116847941768,0.002129301687433082,0.0,0.5591700000000001,-0.59841,9.87867
6560605995,21.84,-0.015987215948268057,0.003193952531149623,0.0,0.56898,-0.60822,9.84924
6565656500,21.84,-0.013840460968315033,0.001064650843716541,0.0,0.5493600000000001,-0.6278400000000001,9.79038
6570707005,21.84,-0.013840460968315033,0.004258603374866164,0.0,0.5493600000000001,-0.5886,9.73152
6575757510,21.84,-0.007452555906015787,0.004258603374866164,0.0,0.56898,-0.56898,9.79038
6580808015,21.84,0.0,0.004258603374866164,0.0,0.5493600000000001,-0.5395500000000001,9.84924
6585858520,21.84,-0.001064650843716541,0.002129301687433082,0.0,0.5493600000000001,-0.51993,9.85905
6590909025,21.84,-0.001064650843716541,-0.002129301687433082,0.0,0.52974,-0.49050000000000005,9.74133
6595959530,21.84,-0.005323254218582705,-0.006387905062299246,0.0,0.5493600000000001,-0.51012,9.623610000000001
6601010035,21.84,-0.00958185759344887,-0.004258603374866164,0.0,0.51993,-0.51012,9.67266
6606060540,21.84,-0.012775810124598492,-0.003193952531149623,0.0,0.5591700000000001,-0.51993,9.80019
6611111045,21.84,-0.0170518667919846,-0.003193952531149623,0.0,0.57879,-0.51993,9.87867
6616161550,21.84,-0.0170518667919846,-0.002129301687433082,0.0,0.56898,-0.50031,9.74133
6621212055,21.84,-0.0170518667919846,-0.005323254218582705,0.0,0.5591700000000001,-0.51993,9.633420000000001
6626262560,21.84,-0.011711159280881954,-0.008517206749732328,0.0,0.56898,-0.52974,9.65304
6631313065,21.84,-0.015987215948268057,-0.007452555906015787,0.0,0.57879,-0.5493600000000001,9.819809999999999
6636363570,21.84,-0.01918116847941768,-0.005323254218582705,0.0,0.59841,-0.56898,9.888480000000001
6641414075,21.84,-0.023439771854283843,0.0,0.0,0.60822,-0.5886,9.80019
6646464580,21.84,-0.022375121010567305,0.0,0.0,0.5886,-0.60822,9.751140000000001
6651515085,21.84,-0.024504422698000388,0.005323254218582705,0.0,0.59841,-0.63765,9.79038
6656565590,21.84,-0.022375121010567305,0.006387905062299246,0.0,0.59841,-0.63765,9.89829
6661616095,21.84,-0.022375121010567305,0.00958185759344887,0.0,0.5886,-0.6278400000000001,9.89829
6666666600,21.84,-0.0170518667919846,0.003193952531149623,0.0,0.5886,-0.63765,9.83943
6671717105,21.84,-0.015987215948268057,0.004258603374866164,0.0,0.5886,-0.64746,9.78057
6676767610,21.84,-0.01064650843716541,0.004258603374866164,0.0,0.5591700000000001,-0.64746,9.79038
6681818115,21.84,-0.005323254218582705,0.007452555906015787,0.0,0.57879,-0.60822,9.86886
6686868620,21.84,-0.006387905062299246,0.007452555906015787,0.0,0.5493600000000001,-0.5886,9.85905
6691919125,21.84,-0.003193952531149623,0.011711159280881954,0.0,0.5395500000000001,-0.56898,9.81
6696969630,21.84,-0.004258603374866164,0.007452555906015787,0.0,0.51993,-0.5493600000000001,9.73152
6702020135,21.84,-0.008517206749732328,0.008517206749732328,0.0,0.52974,-0.5591700000000001,9.73152
6707070640,21.84,-0.01064650843716541,0.0,0.0,0.51993,-0.5493600000000001,9.80019
6712121145,21.84,-0.014905111812031574,-0.002129301687433082,0.0,0.56898,-0.57879,9.819809999999999
6717171650,21.84,-0.014905111812031574,-0.005323254218582705,0.0,0.5493600000000001,-0.5493600000000001,9.770760000000001
6722222155,21.84,-0.01064650843716541,-0.008517206749732328,0.0,0.51993,-0.56898,9.67266
6727272660,21.84,-0.00958185759344887,-0.005323254218582705,0.0,0.5493600000000001,-0.57879,9.72171
6732323165,21.84,-0.006387905062299246,-0.004258603374866164,0.0,0.56898,-0.5493600000000001,9.770760000000001
6737373670,21.84,-0.006387905062299246,-0.002129301687433082,0.0,0.5591700000000001,-0.5591700000000001,9.81
6742424175,21.84,-0.011711159280881954,-0.001064650843716541,0.0,0.5591700000000001,-0.5395500000000001,9.79038
6747474680,21.84,-0.014905111812031574,-0.005323254218582705,0.0,0.5395500000000001,-0.5493600000000001,9.74133
6752525185,21.84,-0.021310470166850764,-0.003193952531149623,0.0,0.56898,-0.60822,9.751140000000001
6757575690,21.84,-0.022375121010567305,-0.006387905062299246,0.0,0.5886,-0.60822,9.78057
6762626195,21.84,-0.022375121010567305,-0.005323254218582705,0.0,0.60822,-0.63765,9.78057
6767676700,21.84,-0.020245819323134222,-0.005323254218582705,0.0,0.5886,-0.63765,9.81
6772727205,21.84,-0.013840460968315033,-0.001064650843716541,0.0,0.6278400000000001,-0.6180300000000001,9.79038
6777777710,21.84,-0.008517206749732328,0.004258603374866164,0.0,0.5886,-0.59841,9.83943
6782828215,21.84,-0.00958185759344887,0.007452555906015787,0.0,0.59841,-0.56898,9.80019
6787878720,21.84,-0.00958185759344887,0.00958185759344887,0.0,0.60822,-0.56898,9.78057
6792929225,21.84,-0.00958185759344887,0.008517206749732328,0.0,0.56898,-0.56898,9.80019
6797979730,21.84,-0.015987215948268057,0.004258603374866164,0.0,0.5591700000000001,-0.59841,9.84924
6803030235,21.84,-0.013840460968315033,0.005323254218582705,0.0,0.5591700000000001,-0.6180300000000001,9.85905
6808080740,21.84,-0.0170518667919846,0.005323254218582705,0.0,0.52974,-0.63765,9.819809999999999
6813131245,21.84,-0.015987215948268057,0.004258603374866164,0.0,0.56898,-0.64746,9.80019
6818181750,21.84,-0.013840460968315033,0.002129301687433082,0.0,0.5591700000000001,-0.6278400000000001,9.819809999999999
6823232255,21.84,-0.015987215948268057,0.003193952531149623,0.0,0.56898,-0.60822,9.83943
6828282760,21.84,-0.007452555906015787,0.002129301687433082,0.0,0.5493600000000001,-0.6180300000000001,9.78057
6833333265,21.84,-0.008517206749732328,0.006387905062299246,0.0,0.52974,-0.59841,9.751140000000001
6838383770,21.84,-0.004258603374866164,0.0,0.0,0.5395500000000001,-0.59841,9.74133
6843434275,21.84,-0.002129301687433082,0.0,0.0,0.5395500000000001,-0.59841,9.79038
6848484780,21.84,-0.005323254218582705,0.0,0.0,0.52974,-0.5591700000000001,9.85905
6853535285,21.84,-0.007452555906015787,-0.002129301687433082,0.0,0.5591700000000001,-0.5886,9.84924
6858585790,21.84,-0.011711159280881954,0.0,0.0,0.5591700000000001,-0.57879,9.819809999999999
6863636295,21.84,-0.011711159280881954,0.0,0.0,0.5395500000000001,-0.60822,9.74133
6868686800,21.84,-0.013840460968315033,-0.005323254218582705,0.0,0.5591700000000001,-0.60822,9.751140000000001
6873737305,21.84,-0.013840460968315033,-0.008517206749732328,0.0,0.56898,-0.63765,9.78057
6878787810,21.84,-0.013840460968315033,-0.007452555906015787,0.0,0.60822,-0.6180300000000001,9.751140000000001
6883838315,21.84,-0.00958185759344887,-0.001064650843716541,0.0,0.60822,-0.5886,9.751140000000001
6888888820,21.84,-0.005323254218582705,0.001064650843716541,0.0,0.57879,-0.5886,9.73152
6893939325,21.84,-0.002129301687433082,0.002129301687433082,0.0,0.60822,-0.5591700000000001,9.751140000000001
6898989830,21.84,-0.004258603374866164,0.0,0.0,0.56898,-0.5591700000000001,9.79038
6904040335,21.84,-0.003193952531149623,0.0,0.0,0.5493600000000001,-0.5591700000000001,9.770760000000001
6909090840,21.84,-0.007452555906015787,0.001064650843716541,0.0,0.56898,-0.51993,9.760950000000001
6914141345,21.84,-0.012775810124598492,0.0,0.0,0.59841,-0.57879,9.74133
6919191850,21.84,-0.01811651763570114,0.001064650843716541,0.0,0.57879,-0.57879,9.78057
6924242355,21.84,-0.020245819323134222,0.002129301687433082,0.0,0.5886,-0.60822,9.819809999999999
6929292860,21.84,-0.020245819323134222,0.001064650843716541,0.0,0.5886,-0.63765,9.84924
6934343365,21.84,-0.01811651763570114,0.006387905062299246,0.0,0.56898,-0.65727,9.819809999999999
6939393870,21.84,-0.01811651763570114,0.006387905062299246,0.0,0.5591700000000001,-0.65727,9.80019
6944444375,21.84,-0.014905111812031574,0.002129301687433082,0.0,0.5591700000000001,-0.6670800000000001,9.770760000000001
6949494880,21.84,-0.011711159280881954,0.001064650843716541,0.0,0.5395500000000001,-0.64746,9.770760000000001
6954545385,21.84,-0.007452555906015787,0.0,0.0,0.56898,-0.6670800000000001,9.82962
6959595890,21.84,-0.007452555906015787,0.002129301687433082,0.0,0.56898,-0.6278400000000001,9.82962
6964646395,21.84,-0.006387905062299246,0.003193952531149623,0.0,0.5591700000000001,-0.60822,9.819809999999999
6969696900,21.84,-0.005323254218582705,0.002129301687433082,0.0,0.57879,-0.6180300000000001,9.81
6974747405,21.84,-0.005323254218582705,0.004258603374866164,0.0,0.56898,-0.6180300000000001,9.85905
6979797910,21.84,-0.008517206749732328,0.002129301687433082,0.0,0.5591700000000001,-0.6180300000000001,9.86886
6984848415,21.84,-0.01064650843716541,0.003193952531149623,0.0,0.52974,-0.6180300000000001,9.83943
6989898920,21.84,-0.015987215948268057,0.0,0.0,0.52974,-0.6180300000000001,9.819809999999999
6994949425,21.84,-0.015987215948268057,-0.005323254218582705,0.0,0.5395500000000001,-0.6768900000000001,9.770760000000001
6999999930,21.84,-0.012775810124598492,-0.007452555906015787,0.0,0.56898,-0.6670800000000001,9.770760000000001
7005050435,21.84,-0.00958185759344887,-0.008517206749732328,0.0,0.5886,-0.6768900000000001,9.81
7010100940,21.84,-0.004258603374866164,-0.005323254218582705,0.0,0.5886,-0.64746,9.78057
7015151445,21.84,-0.001064650843716541,-0.001064650843716541,0.0,0.57879,-0.6278400000000001,9.770760000000001
7020201950,21.84,0.0,0.0,0.0,0.57879,-0.59841,9.7119
7025252455,21.84,0.001064650843716541,0.001064650843716541,0.0,0.5591700000000001,-0.57879,9.751140000000001
7030302960,21.84,-0.002129301687433082,0.0,0.0,0.56898,-0.56898,9.78057
7035353465,21.84,-0.002129301687433082,-0.003193952531149623,0.0,0.56898,-0.5395500000000001,9.751140000000001
7040403970,21.84,-0.006387905062299246,-0.004258603374866164,0.0,0.57879,-0.5591700000000001,9.751140000000001
7045454475,21.84,-0.00958185759344887,-0.003193952531149623,0.0,0.56898,-0.56898,9.73152
7050504980,21.84,-0.015987215948268057,-0.001064650843716541,0.0,0.5395500000000001,-0.6180300000000001,9.80019
7055555485,21.84,-0.01918116847941768,0.0,0.0,0.5886,-0.6278400000000001,9.84924
7060605990,21.84,-0.01918116847941768,0.001064650843716541,0.0,0.57879,-0.65727,9.81
7065656495,21.84,-0.020245819323134222,0.001064650843716541,0.0,0.57879,-0.65727,9.760950000000001
7070707000,21.84,-0.0170518667919846,0.0,0.0,0.57879,-0.69651,9.74133
7075757505,21.84,-0.013840460968315033,0.004258603374866164,0.0,0.5886,-0.6867000000000001,9.770760000000001
7080808010,21.84,-0.011711159280881954,0.001064650843716541,0.0,0.57879,-0.71613,9.82962
7085858515,21.84,-0.00958185759344887,0.005323254218582705,0.0,0.57879,-0.6867000000000001,9.82962
7090909020,21.84,-0.003193952531149623,0.004258603374866164,0.0,0.5493600000000001,-0.64746,9.78057
7095959525,21.84,-0.002129301687433082,0.003193952531149623,0.0,0.56898,-0.60822,9.80019
7101010030,21.84,0.0,0.005323254218582705,0.0,0.5493600000000001,-0.5886,9.80019
7106060535,21.84,-0.002129301687433082,0.002129301687433082,0.0,0.5493600000000001,-0.59841,9.819809999999999
7111111040,21.84,-0.005323254218582705,0.003193952531149623,0.0,0.5395500000000001,-0.5886,9.81
7116161545,21.84,-0.012775810124598492,0.0,0.0,0.5395500000000001,-0.60822,9.760950000000001
7121212050,21.84,-0.013840460968315033,0.0,0.0,0.5591700000000001,-0.6278400000000001,9.79038
7126262555,21.84,-0.01811651763570114,-0.001064650843716541,0.0,0.5395500000000001,-0.65727,9.87867
7131313060,21.84,-0.0170518667919846,0.0,0.0,0.5591700000000001,-0.6768900000000001,9.86886
7136363565,21.84,-0.014905111812031574,-0.002129301687433082,0.0,0.5591700000000001,-0.69651,9.81
7141414070,21.84,-0.00958185759344887,-0.005323254218582705,0.0,0.5493600000000001,-0.70632,9.751140000000001
7146464575,21.84,-0.004258603374866164,-0.003193952531149623,0.0,0.57879,-0.70632,9.760950000000001
7151515080,21.84,0.0,-0.002129301687433082,0.0,0.5591700000000001,-0.6768900000000001,9.79038
7156565585,21.84,0.0,-0.001064650843716541,0.0,0.5591700000000001,-0.64746,9.80019
7161616090,21.84,0.001064650843716541,0.0,0.0,0.56898,-0.59841,9.73152
7166666595,21.84,0.001064650843716541,-0.002129301687433082,0.0,0.5591700000000001,-0.57879,9.69228
7171717100,21.84,0.003193952531149623,0.0,0.0,0.5493600000000001,-0.5591700000000001,9.70209
7176767605,21.84,0.0,0.0,0.0,0.56898,-0.52974,9.770760000000001
7181818110,21.84,-0.003193952531149623,-0.001064650843716541,0.0,0.5886,-0.5395500000000001,9.83943
7186868615,21.84,-0.00958185759344887,0.0,0.0,0.56898,-0.56898,9.79038
7191919120,21.84,-0.015987215948268057,0.0,0.0,0.59841,-0.57879,9.751140000000001
7196969625,21.84,-0.021310470166850764,-0.001064650843716541,0.0,0.59841,-0.6278400000000001,9.73152
7202020130,21.84,-0.021310470166850764,0.0,0.0,0.56898,-0.64746,9.80019
7207070635,21.84,-0.022375121010567305,-0.002129301687433082,0.0,0.60822,-0.71613,9.85905
7212121140,21.84,-0.022375121010567305,0.0,0.0,0.56898,-0.72594,9.84924
7217171645,21.84,-0.013840460968315033,0.005323254218582705,0.0,0.56898,-0.74556,9.86886
7222222150,21.84,-0.012775810124598492,0.006387905062299246,0.0,0.5886,-0.73575,9.819809999999999
7227272655,21.84,-0.008517206749732328,0.005323254218582705,0.0,0.56898,-0.73575,9.81
7232323160,21.84,-0.004258603374866164,0.006387905062299246,0.0,0.5886,-0.71613,9.79038
7237373665,21.84,0.001064650843716541,0.003193952531149623,0.0,0.5493600000000001,-0.69651,9.81
7242424170,21.84,0.0,0.002129301687433082,0.0,0.5591700000000001,-0.6278400000000001,9.81
7247474675,21.84,0.006387905062299246,0.002129301687433082,0.0,0.5395500000000001,-0.59841,9.80019
7252525180,21.84,0.005323254218582705,0.003193952531149623,0.0,0.51993,-0.5886,9.770760000000001
7257575685,21.84,0.005323254218582705,0.004258603374866164,0.0,0.51993,-0.57879,9.760950000000001
7262626190,21.84,0.0,0.0,0.0,0.5493600000000001,-0.56898,9.78057
7267676695,21.84,-0.003193952531149623,-0.001064650843716541,0.0,0.52974,-0.56898,9.82962
7272727200,21.84,-0.01064650843716541,-0.003193952531149623,0.0,0.51012,-0.5886,9.81
7277777705,21.84,-0.012775810124598492,-0.001064650843716541,0.0,0.51012,-0.63765,9.74133
7282828210,21.84,-0.012775810124598492,-0.005323254218582705,0.0,0.5493600000000001,-0.65727,9.74133
7287878715,21.84,-0.013840460968315033,-0.007452555906015787,0.0,0.5493600000000001,-0.6867000000000001,9.81
7292929220,21.84,-0.011711159280881954,-0.006387905062299246,0.0,0.5886,-0.69651,9.84924
7297979725,21.84,-0.011711159280881954,-0.004258603374866164,0.0,0.59841,-0.70632,9.83943
7303030230,21.84,-0.007452555906015787,0.0,0.0,0.57879,-0.69651,9.81
7308080735,21.84,-0.003193952531149623,0.001064650843716541,0.0,0.5886,-0.71613,9.751140000000001
7313131240,21.84,-0.001064650843716541,0.0,0.0,0.6180300000000001,-0.6768900000000001,9.770760000000001
7318181745,21.84,0.001064650843716541,0.001064650843716541,0.0,0.59841,-0.63765,9.81
7323232250,21.84,0.002129301687433082,0.0,0.0,0.5886,-0.6278400000000001,9.81
7328282755,21.84,0.0,0.001064650843716541,0.0,0.56898,-0.60822,9.760950000000001
7333333260,21.84,-0.002129301687433082,0.005323254218582705,0.0,0.5591700000000001,-0.60822,9.770760000000001
7338383765,21.84,-0.001064650843716541,0.003193952531149623,0.0,0.57879,-0.59841,9.760950000000001
7343434270,21.84,0.0,0.003193952531149623,0.0,0.5591700000000001,-0.60822,9.770760000000001
7348484775,21.84,-0.002129301687433082,0.003193952531149623,0.0,0.5591700000000001,-0.60822,9.760950000000001
7353535280,21.84,-0.003193952531149623,0.002129301687433082,0.0,0.5591700000000001,-0.6180300000000001,9.7119
7358585785,21.84,-0.006387905062299246,0.001064650843716541,0.0,0.5591700000000001,-0.59841,9.73152
7363636290,21.84,-0.00958185759344887,-0.001064650843716541,0.0,0.5395500000000001,-0.60822,9.72171
7368686795,21.84,-0.007452555906015787,-0.001064650843716541,0.0,0.5591700000000001,-0.60822,9.78057
7373737300,21.84,-0.01064650843716541,0.0,0.0,0.56898,-0.6278400000000001,9.760950000000001
7378787805,21.84,-0.00958185759344887,0.0,0.0,0.5493600000000001,-0.64746,9.73152
7383838310,21.84,-0.007452555906015787,-0.001064650843716541,0.0,0.5493600000000001,-0.6278400000000001,9.73152
7388888815,21.84,-0.00958185759344887,-0.001064650843716541,0.0,0.57879,-0.64746,9.81
7393939320,21.84,-0.013840460968315033,0.0,0.0,0.57879,-0.64746,9.83943
7398989825,21.84,-0.012775810124598492,0.0,0.0,0.5886,-0.6768900000000001,9.81
7404040330,21.84,-0.015987215948268057,-0.001064650843716541,0.0,0.56898,-0.6768900000000001,9.80019
7409090835,21.84,-0.014905111812031574,0.001064650843716541,0.0,0.5591700000000001,-0.69651,9.78057
7414141340,21.84,-0.012775810124598492,0.0,0.0,0.5493600000000001,-0.69651,9.85905
7419191845,21.84,-0.006387905062299246,0.001064650843716541,0.0,0.5886,-0.73575,9.908100000000001
7424242350,21.84,-0.006387905062299246,0.002129301687433082,0.0,0.56898,-0.69651,9.89829
7429292855,21.84,-0.006387905062299246,0.003193952531149623,0.0,0.59841,-0.70632,9.80019
7434343360,21.84,-0.002129301687433082,0.005323254218582705,0.0,0.5493600000000001,-0.70632,9.751140000000001
7439393865,21.84,-0.002129301687433082,0.001064650843716541,0.0,0.5591700000000001,-0.6867000000000001,9.80019
7444444370,21.84,0.0,0.0,0.0,0.57879,-0.6768900000000001,9.84924
7449494875,21.84,0.0,0.002129301687433082,0.0,0.56898,-0.65727,9.81
7454545380,21.84,0.002129301687433082,0.003193952531149623,0.0,0.5591700000000001,-0.6278400000000001,9.74133
7459595885,21.84,0.004258603374866164,0.0,0.0,0.5395500000000001,-0.59841,9.67266
7464646390,21.84,0.0,0.001064650843716541,0.0,0.52974,-0.59841,9.69228
7469696895,21.84,0.0,-0.002129301687433082,0.0,0.5493600000000001,-0.56898,9.760950000000001
7474747400,21.84,0.0,0.0,0.0,0.5493600000000001,-0.56898,9.760950000000001
7479797905,21.84,-0.002129301687433082,-0.004258603374866164,0.0,0.5591700000000001,-0.57879,9.68247
7484848410,21.84,-0.007452555906015787,-0.005323254218582705,0.0,0.5395500000000001,-0.56898,9.68247
7489898915,21.84,-0.008517206749732328,-0.005323254218582705,0.0,0.5493600000000001,-0.59841,9.70209
7494949420,21.84,-0.012775810124598492,-0.004258603374866164,0.0,0.57879,-0.60822,9.78057
7499999925,21.84,-0.0170518667919846,0.0,0.0,0.57879,-0.63765,9.819809999999999
7505050430,21.84,-0.014905111812031574,-0.001064650843716541,0.0,0.57879,-0.6768900000000001,9.78057
7510100935,21.84,-0.0170518667919846,-0.001064650843716541,0.0,0.57879,-0.69651,9.79038
7515151440,21.84,-0.015987215948268057,-0.002129301687433082,0.0,0.60822,-0.69651,9.81
7520201945,21.84,-0.011711159280881954,-0.001064650843716541,0.0,0.5886,-0.75537,9.84924
7525252450,21.84,-0.014905111812031574,0.001064650843716541,0.0,0.60822,-0.74556,9.87867
7530302955,21.84,-0.00958185759344887,0.001064650843716541,0.0,0.57879,-0.72594,9.87867
7535353460,21.84,-0.008517206749732328,0.005323254218582705,0.0,0.56898,-0.73575,9.82962
7540403965,21.84,-0.003193952531149623,0.007452555906015787,0.0,0.56898,-0.72594,9.819809999999999
7545454470,21.84,0.0,0.012775810124598492,0.0,0.56898,-0.71613,9.84924
7550504975,21.84,0.002129301687433082,0.008517206749732328,0.0,0.56898,-0.6768900000000001,9.86886
7555555480,21.84,0.002129301687433082,0.007452555906015787,0.0,0.5493600000000001,-0.64746,9.819809999999999
7560605985,21.84,0.003193952531149623,0.004258603374866164,0.0,0.52974,-0.6278400000000001,9.751140000000001
7565656490,21.84,0.004258603374866164,0.001064650843716541,0.0,0.52974,-0.6180300000000001,9.7119
7570706995,21.84,0.003193952531149623,0.0,0.0,0.5395500000000001,-0.60822,9.751140000000001
7575757500,21.84,0.001064650843716541,-0.003193952531149623,0.0,0.51993,-0.59841,9.751140000000001
7580808005,21.84,0.0,-0.001064650843716541,0.0,0.5395500000000001,-0.59841,9.760950000000001
7585858510,21.84,0.0,-0.006387905062299246,0.0,0.5395500000000001,-0.5886,9.68247
7590909015,21.84,-0.003193952531149623,-0.008517206749732328,0.0,0.5395500000000001,-0.5886,9.68247
7595959520,21.84,-0.006387905062299246,-0.01064650843716541,0.0,0.5395500000000001,-0.60822,9.7119
7601010025,21.84,-0.007452555906015787,-0.007452555906015787,0.0,0.5395500000000001,-0.59841,9.74133
7606060530,21.84,-0.00958185759344887,-0.006387905062299246,0.0,0.57879,-0.59841,9.760950000000001
7611111035,21.84,-0.012775810124598492,-0.005323254218582705,0.0,0.57879,-0.65727,9.73152
7616161540,21.84,-0.012775810124598492,-0.002129301687433082,0.0,0.60822,-0.65727,9.770760000000001
7621212045,21.84,-0.015987215948268057,-0.001064650843716541,0.0,0.57879,-0.6867000000000001,9.82962
7626262550,21.84,-0.013840460968315033,-0.002129301687433082,0.0,0.5886,-0.70632,9.81
7631313055,21.84,-0.015987215948268057,0.0,0.0,0.59841,-0.72594,9.85905
7636363560,21.84,-0.014905111812031574,0.0,0.0,0.59841,-0.73575,9.84924
7641414065,21.84,-0.013840460968315033,0.004258603374866164,0.0,0.59841,-0.73575,9.85905
7646464570,21.84,-0.01064650843716541,0.004258603374866164,0.0,0.60822,-0.74556,9.86886
7651515075,21.84,-0.008517206749732328,0.007452555906015787,0.0,0.59841,-0.74556,9.888480000000001
7656565580,21.84,-0.005323254218582705,0.00958185759344887,0.0,0.56898,-0.7651800000000001,9.819809999999999
7661616085,21.84,-0.001064650843716541,0.00958185759344887,0.0,0.5493600000000001,-0.73575,9.819809999999999
7666666590,21.84,0.001064650843716541,0.005323254218582705,0.0,0.5395500000000001,-0.70632,9.80019
7671717095,21.84,0.004258603374866164,0.008517206749732328,0.0,0.5591700000000001,-0.6670800000000001,9.82962
7676767600,21.84,0.005323254218582705,0.005323254218582705,0.0,0.52974,-0.63765,9.81
7681818105,21.84,0.004258603374866164,0.003193952531149623,0.0,0.51993,-0.60822,9.72171
7686868610,21.84,0.002129301687433082,0.0,0.0,0.51993,-0.5886,9.65304
7691919115,21.84,0.003193952531149623,0.0,0.0,0.50031,-0.60822,9.68247
7696969620,21.84,0.001064650843716541,-0.005323254218582705,0.0,0.52974,-0.59841,9.751140000000001
7702020125,21.84,0.0,-0.007452555906015787,0.0,0.5493600000000001,-0.59841,9.751140000000001
7707070630,21.84,-0.004258603374866164,-0.008517206749732328,0.0,0.5493600000000001,-0.56898,9.760950000000001
7712121135,21.84,-0.007452555906015787,-0.00958185759344887,0.0,0.5493600000000001,-0.59841,9.69228
7717171640,21.84,-0.01064650843716541,-0.012775810124598492,0.0,0.5591700000000001,-0.60822,9.67266
7722222145,21.84,-0.011711159280881954,-0.006387905062299246,0.0,0.5493600000000001,-0.64746,9.74133
