#timestamp [ns], temperature [degC], w_RS_S_x [rad s^-1], w_RS_S_y [rad s^-1], w_RS_S_z [rad s^-1], a_RS_S_x [m s^-2], a_RS_S_y [m s^-2], a_RS_S_z [m s^-2]
0,,0.0,0.0,0.0,0.019620000000000002,0.16677000000000003,9.81
5050505,,0.0,0.0,0.0,0.02943,0.16677000000000003,9.80019
10101010,,0.0,0.0,0.0,0.039240000000000004,0.17658,9.81
15151515,,0.0,0.0,0.0,0.009810000000000001,0.17658,9.81
20202020,,0.0,0.0,0.0,0.04905,0.17658,9.80019
25252525,,0.0,0.0,0.0,0.02943,0.15696000000000002,9.81
30303030,,0.0,0.0,0.0,0.009810000000000001,0.14715,9.819809999999999
35353535,,0.0,0.0,0.0,0.039240000000000004,0.13734000000000002,9.80019
40404040,,0.0,0.0,0.0,0.039240000000000004,0.14715,9.80019
45454545,,0.0,0.0,0.0,0.05886,0.15696000000000002,9.79038
50505050,,0.0,0.0,0.0,0.04905,0.13734000000000002,9.80019
55555555,,0.0,0.0,0.0,0.0,0.15696000000000002,9.78057
60606060,,0.0,0.0,0.0,0.039240000000000004,0.13734000000000002,9.81
65656565,,0.0,0.0,0.0,0.039240000000000004,0.16677000000000003,9.79038
70707070,,0.0,0.0,0.0,0.04905,0.15696000000000002,9.81
75757575,,0.0,0.0,0.0,0.04905,0.15696000000000002,9.79038
80808080,,0.0,0.0,0.0,0.02943,0.17658,9.79038
85858585,,0.0,0.0,0.0,0.039240000000000004,0.13734000000000002,9.80019
90909090,,0.0,0.0,0.0,0.009810000000000001,0.16677000000000003,9.81
95959595,,0.0,0.0,0.0,0.06867000000000001,0.15696000000000002,9.79038
101010100,,0.0,0.0,0.0,0.009810000000000001,0.17658,9.81
106060605,,0.0,0.0,0.0,0.039240000000000004,0.15696000000000002,9.80019
111111110,,0.0,0.0,0.0,0.019620000000000002,0.14715,9.79038
116161615,,0.0,0.0,0.0,0.019620000000000002,0.15696000000000002,9.81
121212120,,0.0,0.0,0.0,0.019620000000000002,0.14715,9.79038
126262625,,0.0,0.0,0.0,0.039240000000000004,0.17658,9.80019
131313130,,0.0,0.0,0.0,0.039240000000000004,0.14715,9.81
136363635,,0.0,0.0,0.0,0.039240000000000004,0.13734000000000002,9.81
141414140,,0.0,0.0,0.0,0.05886,0.16677000000000003,9.78057
146464645,,0.0,0.0,0.0,0.039240000000000004,0.14715,9.79038
151515150,,0.0,0.0,0.0,0.04905,0.15696000000000002,9.80019
156565655,,0.0,0.0,0.0,0.02943,0.12753,9.81
161616160,,0.0,0.0,0.0,0.039240000000000004,0.15696000000000002,9.78057
166666665,,0.0,0.0,0.0,0.05886,0.15696000000000002,9.81
171717170,,0.0,0.0,0.0,0.019620000000000002,0.18639,9.80019
176767675,,0.0,0.0,0.0,0.039240000000000004,0.18639,9.81
181818180,,0.0,0.0,0.0,0.04905,0.17658,9.770760000000001
186868685,,0.0,0.0,0.0,0.0,0.14715,9.81
191919190,,0.0,0.0,0.0,0.039240000000000004,0.15696000000000002,9.80019
196969695,,0.0,0.0,0.0,0.019620000000000002,0.13734000000000002,9.78057
202020200,,0.0,0.0,0.0,0.019620000000000002,0.15696000000000002,9.79038
207070705,,0.0,0.0,0.0,0.039240000000000004,0.15696000000000002,9.81
212121210,,0.0,0.0,0.0,0.039240000000000004,0.18639,9.80019
217171715,,0.0,0.0,0.0,0.039240000000000004,0.17658,9.770760000000001
222222220,,0.0,0.0,0.0,0.05886,0.17658,9.80019
227272725,,0.0,0.0,0.0,0.019620000000000002,0.16677000000000003,9.81
232323230,,0.0,0.0,0.0,0.04905,0.15696000000000002,9.80019
237373735,,0.0,0.0,0.0,0.04905,0.15696000000000002,9.819809999999999
242424240,,0.0,0.0,0.0,0.02943,0.15696000000000002,9.78057
247474745,,0.0,0.0,0.0,0.039240000000000004,0.15696000000000002,9.81
252525250,,0.0,0.0,0.0,0.02943,0.15696000000000002,9.80019
257575755,,0.0,0.0,0.0,0.02943,0.17658,9.81
262626260,,0.0,0.0,0.0,0.019620000000000002,0.1962,9.79038
267676765,,0.0,0.0,0.0,0.019620000000000002,0.17658,9.81
272727270,,0.0,0.0,0.0,0.04905,0.16677000000000003,9.80019
277777775,,0.0,0.0,0.0,0.039240000000000004,0.15696000000000002,9.80019
282828280,,0.0,0.0,0.0,0.039240000000000004,0.16677000000000003,9.770760000000001
287878785,,0.0,0.0,0.0,0.019620000000000002,0.13734000000000002,9.80019
292929290,,0.0,0.0,0.0,0.009810000000000001,0.14715,9.80019
297979795,,0.0,0.0,0.0,0.039240000000000004,0.16677000000000003,9.80019
303030300,,0.0,0.0,0.0,0.02943,0.17658,9.81
308080805,,0.0,0.0,0.0,0.039240000000000004,0.16677000000000003,9.80019
313131310,,0.0,0.0,0.0,0.039240000000000004,0.16677000000000003,9.81
318181815,,0.0,0.0,0.0,0.039240000000000004,0.16677000000000003,9.78057
323232320,,0.0,0.0,0.0,0.039240000000000004,0.12753,9.80019
328282825,,0.0,0.0,0.0,0.039240000000000004,0.14715,9.79038
333333330,,0.0,0.0,0.0,0.0,0.13734000000000002,9.80019
338383835,,0.0,0.0,0.0,0.04905,0.16677000000000003,9.81
343434340,,0.0,0.0,0.0,0.02943,0.13734000000000002,9.79038
348484845,,0.0,0.0,0.0,0.039240000000000004,0.15696000000000002,9.79038
353535350,,0.0,0.0,0.0,0.039240000000000004,0.14715,9.78057
358585855,,0.0,0.0,0.0,0.019620000000000002,0.14715,9.81
363636360,,0.0,0.0,0.0,0.05886,0.14715,9.80019
368686865,,0.0,0.0,0.0,0.05886,0.15696000000000002,9.79038
373737370,,0.0,0.0,0.0,0.019620000000000002,0.16677000000000003,9.81
378787875,,0.0,0.0,0.0,0.039240000000000004,0.16677000000000003,9.81
383838380,,0.0,0.0,0.0,0.019620000000000002,0.17658,9.79038
388888885,,0.0,0.0,0.0,0.02943,0.15696000000000002,9.79038
393939390,,0.0,0.0,0.0,0.019620000000000002,0.16677000000000003,9.81
398989895,,0.0,0.0,0.0,0.02943,0.15696000000000002,9.80019
404040400,,0.0,0.0,0.0,0.019620000000000002,0.17658,9.80019
409090905,,0.0,0.0,0.0,0.02943,0.16677000000000003,9.79038
414141410,,0.0,0.0,0.0,0.05886,0.18639,9.81
419191915,,0.0,0.0,0.0,0.04905,0.15696000000000002,9.770760000000001
424242420,,0.0,0.0,0.0,0.039240000000000004,0.13734000000000002,9.79038
429292925,,0.0,0.0,0.0,0.04905,0.16677000000000003,9.81
434343430,,0.0,0.0,0.0,0.06867000000000001,0.15696000000000002,9.81
439393935,,0.0,0.0,0.0,0.019620000000000002,0.14715,9.81
444444440,,0.0,0.0,0.0,0.039240000000000004,0.17658,9.79038
449494945,,0.0,0.0,0.0,0.02943,0.15696000000000002,9.79038
454545450,,0.0,0.0,0.0,0.02943,0.12753,9.81
459595955,,0.0,0.0,0.0,0.02943,0.18639,9.78057
464646460,,0.0,0.0,0.0,0.02943,0.17658,9.80019
469696965,,0.0,0.0,0.0,0.04905,0.16677000000000003,9.78057
474747470,,0.0,0.0,0.0,0.039240000000000004,0.18639,9.81
479797975,,0.0,0.0,0.0,0.02943,0.13734000000000002,9.81
484848480,,0.0,0.0,0.0,0.039240000000000004,0.11772,9.819809999999999
489898985,,0.0,0.0,0.0,0.02943,0.16677000000000003,9.80019
494949490,,0.0,0.0,0.0,0.02943,0.15696000000000002,9.79038
499999995,,0.0,0.0,0.0,0.04905,0.15696000000000002,9.80019
505050500,,0.0,0.0,0.0,0.039240000000000004,0.18639,9.79038
510101005,,0.0,0.0,0.0,0.04905,0.17658,9.78057
515151510,,0.0,0.0,0.0,0.04905,0.13734000000000002,9.80019
520202015,,0.0,0.0,0.0,0.04905,0.13734000000000002,9.78057
525252520,,0.0,0.0,0.0,0.04905,0.12753,9.81
530303025,,0.0,0.0,0.0,0.039240000000000004,0.14715,9.80019
535353530,,0.0,0.0,0.0,0.019620000000000002,0.16677000000000003,9.81
540404035,,0.0,0.0,0.0,0.039240000000000004,0.17658,9.80019
545454540,,0.0,0.0,0.0,0.02943,0.17658,9.79038
550505045,,0.0,0.0,0.0,0.009810000000000001,0.1962,9.80019
555555550,,0.0,0.0,0.0,0.039240000000000004,0.15696000000000002,9.79038
560606055,,0.0,0.0,0.0,0.02943,0.15696000000000002,9.81
565656560,,0.0,0.0,0.0,0.019620000000000002,0.13734000000000002,9.81
570707065,,0.0,0.0,0.0,0.02943,0.14715,9.79038
575757570,,0.0,0.0,0.0,0.019620000000000002,0.12753,9.81
580808075,,0.0,0.0,0.0,0.02943,0.16677000000000003,9.79038
585858580,,0.0,0.0,0.0,0.04905,0.1962,9.760950000000001
590909085,,0.0,0.0,0.0,0.039240000000000004,0.17658,9.78057
595959590,,0.0,0.0,0.0,0.04905,0.17658,9.79038
601010095,,0.0,0.0,0.0,0.039240000000000004,0.14715,9.80019
606060600,,0.0,0.0,0.0,0.07848000000000001,0.14715,9.80019
611111105,,0.0,0.0,0.0,0.039240000000000004,0.16677000000000003,9.78057
616161610,,0.0,0.0,0.0,0.039240000000000004,0.15696000000000002,9.770760000000001
621212115,,0.0,0.0,0.0,0.02943,0.13734000000000002,9.78057
626262620,,0.0,0.0,0.0,0.039240000000000004,0.18639,9.80019
631313125,,0.0,0.0,0.0,0.009810000000000001,0.17658,9.81
636363630,,0.0,0.0,0.0,0.04905,0.1962,9.79038
641414135,,0.0,0.0,0.0,0.019620000000000002,0.13734000000000002,9.819809999999999
646464640,,0.0,0.0,0.0,0.04905,0.14715,9.80019
651515145,,0.0,0.0,0.0,0.05886,0.16677000000000003,9.80019
656565650,,0.0,0.0,0.0,0.02943,0.13734000000000002,9.79038
661616155,,0.0,0.0,0.0,0.02943,0.15696000000000002,9.80019
666666660,,0.0,0.0,0.0,0.039240000000000004,0.17658,9.79038
671717165,,0.0,0.0,0.0,0.06867000000000001,0.18639,9.819809999999999
676767670,,0.0,0.0,0.0,0.019620000000000002,0.16677000000000003,9.81
681818175,,0.0,0.0,0.0,0.019620000000000002,0.14715,9.81
686868680,,0.0,0.0,0.0,0.02943,0.14715,9.79038
691919185,,0.0,0.0,0.0,0.009810000000000001,0.16677000000000003,9.81
696969690,,0.0,0.0,0.0,0.019620000000000002,0.16677000000000003,9.81
702020195,,0.0,0.0,0.0,0.0,0.16677000000000003,9.81
707070700,,0.0,0.0,0.0,0.02943,0.15696000000000002,9.760950000000001
712121205,,0.0,0.0,0.0,0.019620000000000002,0.16677000000000003,9.78057
717171710,,0.0,0.0,0.0,0.04905,0.16677000000000003,9.80019
722222215,,0.0,0.0,0.0,0.02943,0.13734000000000002,9.80019
727272720,,0.0,0.0,0.0,0.04905,0.16677000000000003,9.81
732323225,,0.0,0.0,0.0,0.019620000000000002,0.14715,9.80019
737373730,,0.0,0.0,0.0,0.039240000000000004,0.16677000000000003,9.81
742424235,,0.0,0.0,0.0,0.04905,0.14715,9.80019
747474740,,0.0,0.0,0.0,0.039240000000000004,0.18639,9.78057
752525245,,0.0,0.0,0.0,0.039240000000000004,0.15696000000000002,9.80019
757575750,,0.0,0.0,0.0,0.019620000000000002,0.15696000000000002,9.79038
762626255,,0.0,0.0,0.0,0.039240000000000004,0.14715,9.79038
767676760,,0.0,0.0,0.0,0.02943,0.15696000000000002,9.81
772727265,,0.0,0.0,0.0,0.0,0.13734000000000002,9.819809999999999
777777770,,0.0,0.0,0.0,0.009810000000000001,0.13734000000000002,9.770760000000001
782828275,,0.0,0.0,0.0,0.02943,0.17658,9.770760000000001
787878780,,0.0,0.0,0.0,0.04905,0.14715,9.79038
792929285,,0.0,0.0,0.0,0.039240000000000004,0.15696000000000002,9.79038
797979790,,0.0,0.0,0.0,0.039240000000000004,0.18639,9.78057
803030295,,0.0,0.0,0.0,0.019620000000000002,0.13734000000000002,9.81
808080800,,0.0,0.0,0.0,0.02943,0.14715,9.78057
813131305,,0.0,0.0,0.0,0.019620000000000002,0.13734000000000002,9.81
818181810,,0.0,0.0,0.0,0.02943,0.16677000000000003,9.79038
823232315,,0.0,0.0,0.0,0.019620000000000002,0.16677000000000003,9.80019
828282820,,0.0,0.0,0.0,0.039240000000000004,0.17658,9.80019
833333325,,0.0,0.0,0.0,0.019620000000000002,0.18639,9.78057
838383830,,0.0,0.0,0.0,0.039240000000000004,0.17658,9.79038
843434335,,0.0,0.0,0.0,0.019620000000000002,0.15696000000000002,9.79038
848484840,,0.0,0.0,0.0,0.039240000000000004,0.12753,9.80019
853535345,,0.0,0.0,0.0,0.02943,0.14715,9.80019
858585850,,0.0,0.0,0.0,0.039240000000000004,0.15696000000000002,9.80019
863636355,,0.0,0.0,0.0,0.039240000000000004,0.17658,9.80019
868686860,,0.0,0.0,0.0,0.039240000000000004,0.17658,9.81
873737365,,0.0,0.0,0.0,0.02943,0.20601000000000003,9.80019
878787870,,0.0,0.0,0.0,0.05886,0.17658,9.81
883838375,,0.0,0.0,0.0,0.05886,0.15696000000000002,9.80019
888888880,,0.0,0.0,0.0,0.02943,0.14715,9.79038
893939385,,0.0,0.0,0.0,0.009810000000000001,0.12753,9.79038
898989890,,0.0,0.0,0.0,0.039240000000000004,0.14715,9.80019
904040395,,0.0,0.0,0.0,0.0,0.15696000000000002,9.81
909090900,,0.0,0.0,0.0,0.039240000000000004,0.16677000000000003,9.79038
914141405,,0.0,0.0,0.0,0.02943,0.17658,9.78057
919191910,,0.0,0.0,0.0,0.039240000000000004,0.15696000000000002,9.78057
924242415,,0.0,0.0,0.0,0.02943,0.17658,9.80019
929292920,,0.0,0.0,0.0,0.02943,0.14715,9.81
934343425,,0.0,0.0,0.0,0.019620000000000002,0.13734000000000002,9.80019
939393930,,0.0,0.0,0.0,0.04905,0.14715,9.81
944444435,,0.0,0.0,0.0,0.04905,0.14715,9.79038
949494940,,0.0,0.0,0.0,0.039240000000000004,0.14715,9.78057
954545445,,0.0,0.0,0.0,0.02943,0.16677000000000003,9.79038
959595950,,0.0,0.0,0.0,0.009810000000000001,0.14715,9.80019
964646455,,0.0,0.0,0.0,0.039240000000000004,0.16677000000000003,9.819809999999999
969696960,,0.0,0.0,0.0,0.039240000000000004,0.16677000000000003,9.79038
974747465,,0.0,0.0,0.0,0.039240000000000004,0.15696000000000002,9.81
979797970,,0.0,0.0,0.0,0.009810000000000001,0.16677000000000003,9.79038
984848475,,0.0,0.0,0.0,0.02943,0.16677000000000003,9.819809999999999
989898980,,0.0,0.0,0.0,0.02943,0.13734000000000002,9.78057
994949485,,0.0,0.0,0.0,0.02943,0.16677000000000003,9.78057
999999990,,0.0,0.0,0.0,0.039240000000000004,0.17658,9.82962
1005050495,,0.0,0.0,0.0,0.009810000000000001,0.18639,9.81
1010101000,,0.0,0.0,0.0,0.0,0.17658,9.81
1015151505,,0.0,0.0,0.0,0.05886,0.14715,9.78057
1020202010,,0.0,0.0,0.0,0.05886,0.12753,9.80019
1025252515,,0.0,0.0,0.0,0.02943,0.15696000000000002,9.78057
1030303020,,0.0,0.0,0.0,0.02943,0.15696000000000002,9.80019
1035353525,,0.0,0.0,0.0,0.04905,0.17658,9.81
1040404030,,0.0,0.0,0.0,0.019620000000000002,0.16677000000000003,9.82962
1045454535,,0.0,0.0,0.0,0.04905,0.17658,9.770760000000001
1050505040,,0.0,0.0,0.0,0.05886,0.16677000000000003,9.79038
1055555545,,0.0,0.0,0.0,0.02943,0.14715,9.81
1060606050,,0.0,0.0,0.0,0.019620000000000002,0.15696000000000002,9.819809999999999
1065656555,,0.0,0.0,0.0,0.039240000000000004,0.15696000000000002,9.80019
1070707060,,0.0,0.0,0.0,0.04905,0.18639,9.81
1075757565,,0.0,0.0,0.0,0.02943,0.15696000000000002,9.79038
1080808070,,0.0,0.0,0.0,0.039240000000000004,0.13734000000000002,9.770760000000001
1085858575,,0.0,0.0,0.0,0.019620000000000002,0.13734000000000002,9.79038
1090909080,,0.0,0.0,0.0,0.0,0.16677000000000003,9.78057
1095959585,,0.0,0.0,0.0,0.05886,0.16677000000000003,9.80019
1101010090,,0.0,0.0,0.0,0.019620000000000002,0.16677000000000003,9.81
1106060595,,0.0,0.0,0.0,0.039240000000000004,0.15696000000000002,9.81
1111111100,,0.0,0.0,0.0,0.039240000000000004,0.13734000000000002,9.79038
1116161605,,0.0,0.0,0.0,0.039240000000000004,0.17658,9.81
1121212110,,0.0,0.0,0.0,0.039240000000000004,0.16677000000000003,9.770760000000001
1126262615,,0.0,0.0,0.0,0.039240000000000004,0.17658,9.79038
1131313120,,0.0,0.0,0.0,0.05886,0.16677000000000003,9.80019
1136363625,,0.0,0.0,0.0,0.02943,0.14715,9.79038
1141414130,,0.0,0.0,0.0,0.04905,0.16677000000000003,9.81
1146464635,,0.0,0.0,0.0,0.039240000000000004,0.16677000000000003,9.81
1151515140,,0.0,0.0,0.0,0.02943,0.14715,9.79038
1156565645,,0.0,0.0,0.0,0.04905,0.15696000000000002,9.78057
1161616150,,0.0,0.0,0.0,0.02943,0.1962,9.79038
1166666655,,0.0,0.0,0.0,0.019620000000000002,0.15696000000000002,9.80019
1171717160,,0.0,0.0,0.0,0.04905,0.15696000000000002,9.81
1176767665,,0.0,0.0,0.0,0.009810000000000001,0.15696000000000002,9.78057
1181818170,,0.0,0.0,0.0,0.039240000000000004,0.12753,9.79038
1186868675,,0.0,0.0,0.0,0.039240000000000004,0.11772,9.78057
1191919180,,0.0,0.0,0.0,0.019620000000000002,0.16677000000000003,9.79038
1196969685,,0.0,0.0,0.0,0.039240000000000004,0.14715,9.78057
1202020190,,0.0,0.0,0.0,0.039240000000000004,0.17658,9.81
1207070695,,0.0,0.0,0.0,0.039240000000000004,0.15696000000000002,9.819809999999999
1212121200,,0.0,0.0,0.0,0.019620000000000002,0.15696000000000002,9.80019
1217171705,,0.0,0.0,0.0,0.05886,0.16677000000000003,9.80019
1222222210,,0.0,0.0,0.0,0.019620000000000002,0.13734000000000002,9.80019
1227272715,,0.0,0.0,0.0,0.02943,0.16677000000000003,9.81
1232323220,,0.0,0.0,0.0,0.039240000000000004,0.14715,9.81
1237373725,,0.0,0.0,0.0,0.039240000000000004,0.15696000000000002,9.79038
1242424230,,0.0,0.0,0.0,0.009810000000000001,0.17658,9.81
1247474735,,0.0,0.0,0.0,0.02943,0.16677000000000003,9.81
1252525240,,0.0,0.0,0.0,0.019620000000000002,0.14715,9.819809999999999
1257575745,,0.0,0.0,0.0,0.009810000000000001,0.16677000000000003,9.79038
1262626250,,0.0,0.0,0.0,0.019620000000000002,0.18639,9.81
1267676755,,0.0,0.0,0.0,0.05886,0.16677000000000003,9.81
1272727260,,0.0,0.0,0.0,0.019620000000000002,0.14715,9.80019
1277777765,,0.0,0.0,0.0,0.02943,0.15696000000000002,9.81
1282828270,,0.0,0.0,0.0,0.019620000000000002,0.18639,9.78057
1287878775,,0.0,0.0,0.0,0.039240000000000004,0.16677000000000003,9.80019
1292929280,,0.0,0.0,0.0,0.04905,0.17658,9.80019
1297979785,,0.0,0.0,0.0,0.05886,0.16677000000000003,9.81
1303030290,,0.0,0.0,0.0,0.02943,0.14715,9.80019
1308080795,,0.0,0.0,0.0,0.019620000000000002,0.13734000000000002,9.80019
1313131300,,0.0,0.0,0.0,0.039240000000000004,0.16677000000000003,9.770760000000001
1318181805,,0.0,0.0,0.0,0.04905,0.16677000000000003,9.80019
1323232310,,0.0,0.0,0.0,0.039240000000000004,0.15696000000000002,9.78057
1328282815,,0.0,0.0,0.0,0.04905,0.15696000000000002,9.81
1333333320,,0.0,0.0,0.0,0.009810000000000001,0.1962,9.78057
1338383825,,0.0,0.0,0.0,0.02943,0.16677000000000003,9.81
1343434330,,0.0,0.0,0.0,0.019620000000000002,0.13734000000000002,9.80019
1348484835,,0.0,0.0,0.0,0.04905,0.16677000000000003,9.81
1353535340,,0.0,0.0,0.0,0.04905,0.13734000000000002,9.79038
1358585845,,0.0,0.0,0.0,0.04905,0.15696000000000002,9.80019
1363636350,,0.0,0.0,0.0,0.04905,0.16677000000000003,9.760950000000001
1368686855,,0.0,0.0,0.0,0.039240000000000004,0.17658,9.82962
1373737360,,0.0,0.0,0.0,0.019620000000000002,0.15696000000000002,9.81
1378787865,,0.0,0.0,0.0,0.02943,0.15696000000000002,9.80019
1383838370,,0.0,0.0,0.0,0.019620000000000002,0.13734000000000002,9.79038
1388888875,,0.0,0.0,0.0,0.02943,0.17658,9.78057
1393939380,,0.0,0.0,0.0,0.039240000000000004,0.16677000000000003,9.78057
1398989885,,0.0,0.0,0.0,0.039240000000000004,0.17658,9.79038
1404040390,,0.0,0.0,0.0,0.04905,0.15696000000000002,9.79038
1409090895,,0.0,0.0,0.0,0.04905,0.16677000000000003,9.78057
1414141400,,0.0,0.0,0.0,0.039240000000000004,0.14715,9.80019
1419191905,,0.0,0.0,0.0,0.02943,0.14715,9.80019
1424242410,,0.0,0.0,0.0,0.009810000000000001,0.16677000000000003,9.819809999999999
1429292915,,0.0,0.0,0.0,0.019620000000000002,0.15696000000000002,9.80019
1434343420,,0.0,0.0,0.0,0.019620000000000002,0.13734000000000002,9.80019
1439393925,,0.0,0.0,0.0,0.04905,0.16677000000000003,9.79038
1444444430,,0.0,0.0,0.0,0.04905,0.15696000000000002,9.751140000000001
1449494935,,0.0,0.0,0.0,0.039240000000000004,0.15696000000000002,9.78057
1454545440,,0.0,0.0,0.0,0.05886,0.13734000000000002,9.80019
1459595945,,0.0,0.0,0.0,0.039240000000000004,0.12753,9.79038
1464646450,,0.0,0.0,0.0,0.019620000000000002,0.15696000000000002,9.81
1469696955,,0.0,0.0,0.0,0.019620000000000002,0.17658,9.81
1474747460,,0.0,0.0,0.0,0.009810000000000001,0.17658,9.81
1479797965,,0.0,0.0,0.0,0.039240000000000004,0.17658,9.81
1484848470,,0.0,0.0,0.0,0.039240000000000004,0.18639,9.81
1489898975,,0.0,0.0,0.0,0.02943,0.17658,9.770760000000001
1494949480,,0.0,0.0,0.0,0.02943,0.16677000000000003,9.79038
1499999985,,0.0,0.0,0.0,0.039240000000000004,0.15696000000000002,9.80019
1505050490,,0.0,0.0,0.0,0.009810000000000001,0.14715,9.80019
1510100995,,0.0,0.0,0.0,0.02943,0.15696000000000002,9.79038
1515151500,,0.0,0.0,0.0,0.02943,0.14715,9.79038
1520202005,,0.0,0.0,0.0,0.009810000000000001,0.15696000000000002,9.80019
1525252510,,0.0,0.0,0.0,0.039240000000000004,0.18639,9.78057
1530303015,,0.0,0.0,0.0,0.039240000000000004,0.16677000000000003,9.80019
1535353520,,0.0,0.0,0.0,0.039240000000000004,0.16677000000000003,9.80019
1540404025,,0.0,0.0,0.0,0.05886,0.12753,9.81
1545454530,,0.0,0.0,0.0,0.039240000000000004,0.14715,9.80019
1550505035,,0.0,0.0,0.0,0.019620000000000002,0.13734000000000002,9.760950000000001
1555555540,,0.0,0.0,0.0,0.019620000000000002,0.15696000000000002,9.79038
1560606045,,0.0,0.0,0.0,0.019620000000000002,0.18639,9.79038
1565656550,,0.0,0.0,0.0,0.02943,0.17658,9.770760000000001
1570707055,,0.0,0.0,0.0,0.04905,0.16677000000000003,9.80019
1575757560,,0.0,0.0,0.0,0.039240000000000004,0.16677000000000003,9.79038
1580808065,,0.0,0.0,0.0,0.05886,0.17658,9.80019
1585858570,,0.0,0.0,0.0,0.039240000000000004,0.14715,9.81
1590909075,,0.0,0.0,0.0,0.019620000000000002,0.12753,9.80019
1595959580,,0.0,0.0,0.0,0.009810000000000001,0.13734000000000002,9.81
1601010085,,0.0,0.0,0.0,-0.019620000000000002,0.18639,9.83943
1606060590,,0.0,0.0,0.0,0.02943,0.15696000000000002,9.81
1611111095,,0.0,0.0,0.0,0.039240000000000004,0.17658,9.80019
1616161600,,0.0,0.0,0.0,0.02943,0.15696000000000002,9.79038
1621212105,,0.0,0.0,0.0,0.039240000000000004,0.15696000000000002,9.770760000000001
1626262610,,0.0,0.0,0.0,0.019620000000000002,0.14715,9.81
1631313115,,0.0,0.0,0.0,0.02943,0.14715,9.78057
1636363620,,0.0,0.0,0.0,0.019620000000000002,0.16677000000000003,9.819809999999999
1641414125,,0.0,0.0,0.0,0.02943,0.13734000000000002,9.79038
1646464630,,0.0,0.0,0.0,0.02943,0.14715,9.819809999999999
1651515135,,0.0,0.0,0.0,0.009810000000000001,0.16677000000000003,9.78057
1656565640,,0.0,0.0,0.0,0.039240000000000004,0.17658,9.80019
1661616145,,0.0,0.0,0.0,0.039240000000000004,0.16677000000000003,9.78057
1666666650,,0.0,0.0,0.0,0.019620000000000002,0.14715,9.80019
1671717155,,0.0,0.0,0.0,0.039240000000000004,0.15696000000000002,9.78057
1676767660,,0.0,0.0,0.0,0.02943,0.15696000000000002,9.81
1681818165,,0.0,0.0,0.0,0.039240000000000004,0.14715,9.770760000000001
1686868670,,0.0,0.0,0.0,0.039240000000000004,0.15696000000000002,9.80019
1691919175,,0.0,0.0,0.0,0.019620000000000002,0.15696000000000002,9.79038
1696969680,,0.0,0.0,0.0,0.05886,0.14715,9.79038
1702020185,,0.0,0.0,0.0,0.039240000000000004,0.14715,9.79038
1707070690,,0.0,0.0,0.0,0.039240000000000004,0.17658,9.79038
1712121195,,0.0,0.0,0.0,0.02943,0.15696000000000002,9.81
1717171700,,0.0,0.0,0.0,0.02943,0.16677000000000003,9.80019
1722222205,,0.0,0.0,0.0,0.039240000000000004,0.16677000000000003,9.79038
1727272710,,0.0,0.0,0.0,0.04905,0.15696000000000002,9.80019
1732323215,,0.0,0.0,0.0,0.02943,0.14715,9.79038
1737373720,,0.0,0.0,0.0,0.019620000000000002,0.14715,9.79038
1742424225,,0.0,0.0,0.0,0.04905,0.15696000000000002,9.81
1747474730,,0.0,0.0,0.0,0.04905,0.17658,9.80019
1752525235,,0.0,0.0,0.0,0.06867000000000001,0.15696000000000002,9.80019
1757575740,,0.0,0.0,0.0,0.04905,0.14715,9.819809999999999
1762626245,,0.0,0.0,0.0,0.039240000000000004,0.18639,9.81
1767676750,,0.0,0.0,0.0,0.06867000000000001,0.16677000000000003,9.80019
1772727255,,0.0,0.0,0.0,0.039240000000000004,0.16677000000000003,9.80019
1777777760,,0.0,0.0,0.0,0.039240000000000004,0.18639,9.79038
1782828265,,0.0,0.0,0.0,0.02943,0.14715,9.79038
1787878770,,0.0,0.0,0.0,0.039240000000000004,0.15696000000000002,9.80019
1792929275,,0.0,0.0,0.0,0.02943,0.17658,9.80019
1797979780,,0.0,0.0,0.0,0.02943,0.15696000000000002,9.80019
1803030285,,0.0,0.0,0.0,0.039240000000000004,0.15696000000000002,9.81
1808080790,,0.0,0.0,0.0,0.02943,0.14715,9.79038
1813131295,,0.0,0.0,0.0,0.039240000000000004,0.17658,9.78057
1818181800,,0.0,0.0,0.0,0.04905,0.14715,9.80019
1823232305,,0.0,0.0,0.0,0.05886,0.16677000000000003,9.80019
1828282810,,0.0,0.0,0.0,0.02943,0.13734000000000002,9.81
1833333315,,0.0,0.0,0.0,0.02943,0.14715,9.81
1838383820,,0.0,0.0,0.0,0.02943,0.14715,9.80019
1843434325,,0.0,0.0,0.0,0.04905,0.16677000000000003,9.819809999999999
1848484830,,0.0,0.0,0.0,0.02943,0.17658,9.79038
1853535335,,0.0,0.0,0.0,0.039240000000000004,0.16677000000000003,9.80019
1858585840,,0.0,0.0,0.0,0.05886,0.16677000000000003,9.79038
1863636345,,0.0,0.0,0.0,0.05886,0.18639,9.80019
1868686850,,0.0,0.0,0.0,0.02943,0.16677000000000003,9.79038
1873737355,,0.0,0.0,0.0,0.04905,0.16677000000000003,9.80019
1878787860,,0.0,0.0,0.0,0.009810000000000001,0.15696000000000002,9.80019
1883838365,,0.0,0.0,0.0,0.039240000000000004,0.13734000000000002,9.81
1888888870,,0.0,0.0,0.0,0.02943,0.14715,9.81
1893939375,,0.0,0.0,0.0,0.05886,0.16677000000000003,9.81
1898989880,,0.0,0.0,0.0,0.06867000000000001,0.17658,9.80019
1904040385,,0.0,0.0,0.0,0.02943,0.17658,9.80019
1909090890,,0.0,0.0,0.0,0.04905,0.16677000000000003,9.81
1914141395,,0.0,0.0,0.0,0.04905,0.15696000000000002,9.78057
1919191900,,0.0,0.0,0.0,0.039240000000000004,0.15696000000000002,9.770760000000001
1924242405,,0.0,0.0,0.0,0.019620000000000002,0.17658,9.80019
1929292910,,0.0,0.0,0.0,0.039240000000000004,0.16677000000000003,9.78057
1934343415,,0.0,0.0,0.0,0.009810000000000001,0.15696000000000002,9.81
1939393920,,0.0,0.0,0.0,0.009810000000000001,0.16677000000000003,9.81
1944444425,,0.0,0.0,0.0,0.039240000000000004,0.18639,9.81
1949494930,,0.0,0.0,0.0,0.039240000000000004,0.12753,9.81
1954545435,,0.0,0.0,0.0,0.039240000000000004,0.16677000000000003,9.81
1959595940,,0.0,0.0,0.0,0.039240000000000004,0.16677000000000003,9.81
1964646445,,0.0,0.0,0.0,0.02943,0.17658,9.79038
1969696950,,0.0,0.0,0.0,0.039240000000000004,0.14715,9.80019
1974747455,,0.0,0.0,0.0,0.039240000000000004,0.16677000000000003,9.80019
1979797960,,0.0,0.0,0.0,0.02943,0.18639,9.78057
1984848465,,0.0,0.0,0.0,0.02943,0.16677000000000003,9.80019
1989898970,,0.0,0.0,0.0,0.019620000000000002,0.15696000000000002,9.79038
1994949475,,0.0,0.0,0.0,0.04905,0.13734000000000002,9.81
1999999980,,0.0,0.0,0.0,0.02943,0.14715,9.80019
2005050485,,0.0,0.0,0.0,0.05886,0.16677000000000003,9.81
2010100990,,0.0,0.0,0.0,0.039240000000000004,0.15696000000000002,9.79038
2015151495,,0.0,0.0,0.0,0.02943,0.16677000000000003,9.80019
2020202000,,0.0,0.0,0.0,0.05886,0.15696000000000002,9.79038
2025252505,,0.0,0.0,0.0,0.019620000000000002,0.16677000000000003,9.79038
2030303010,,0.0,0.0,0.0,0.02943,0.16677000000000003,9.819809999999999
2035353515,,0.0,0.0,0.0,0.039240000000000004,0.17658,9.81
2040404020,,0.0,0.0,0.0,0.039240000000000004,0.16677000000000003,9.79038
2045454525,,0.0,0.0,0.0,0.02943,0.15696000000000002,9.81
2050505030,,0.0,0.0,0.0,0.04905,0.16677000000000003,9.78057
2055555535,,0.0,0.0,0.0,0.02943,0.14715,9.770760000000001
2060606040,,0.0,0.0,0.0,0.02943,0.14715,9.79038
2065656545,,0.0,0.0,0.0,0.02943,0.12753,9.80019
2070707050,,0.0,0.0,0.0,0.039240000000000004,0.15696000000000002,9.81
2075757555,,0.0,0.0,0.0,0.009810000000000001,0.15696000000000002,9.819809999999999
2080808060,,0.0,0.0,0.0,0.039240000000000004,0.14715,9.80019
2085858565,,0.0,0.0,0.0,0.04905,0.13734000000000002,9.80019
2090909070,,0.0,0.0,0.0,0.04905,0.18639,9.79038
2095959575,,0.0,0.0,0.0,0.04905,0.13734000000000002,9.78057
2101010080,,0.0,0.0,0.0,0.02943,0.16677000000000003,9.80019
2106060585,,0.0,0.0,0.0,0.04905,0.16677000000000003,9.81
2111111090,,0.0,0.0,0.0,0.04905,0.15696000000000002,9.81
2116161595,,0.0,0.0,0.0,0.04905,0.14715,9.78057
2121212100,,0.0,0.0,0.0,0.019620000000000002,0.15696000000000002,9.79038
2126262605,,0.0,0.0,0.0,0.009810000000000001,0.15696000000000002,9.80019
2131313110,,0.0,0.0,0.0,0.04905,0.14715,9.80019
2136363615,,0.0,0.0,0.0,0.039240000000000004,0.16677000000000003,9.81
2141414120,,0.0,0.0,0.0,0.05886,0.17658,9.81
2146464625,,0.0,0.0,0.0,0.02943,0.18639,9.81
2151515130,,0.0,0.0,0.0,0.019620000000000002,0.17658,9.80019
2156565635,,0.0,0.0,0.0,0.02943,0.15696000000000002,9.80019
2161616140,,0.0,0.0,0.0,0.039240000000000004,0.16677000000000003,9.81
2166666645,,0.0,0.0,0.0,0.02943,0.15696000000000002,9.80019
2171717150,,0.0,0.0,0.0,0.04905,0.16677000000000003,9.79038
2176767655,,0.0,0.0,0.0,0.009810000000000001,0.14715,9.80019
2181818160,,0.0,0.0,0.0,0.02943,0.17658,9.82962
2186868665,,0.0,0.0,0.0,0.04905,0.15696000000000002,9.79038
2191919170,,0.0,0.0,0.0,0.039240000000000004,0.18639,9.79038
2196969675,,0.0,0.0,0.0,0.02943,0.16677000000000003,9.80019
2202020180,,0.0,0.0,0.0,0.019620000000000002,0.15696000000000002,9.79038
2207070685,,0.0,0.0,0.0,0.009810000000000001,0.15696000000000002,9.80019
2212121190,,0.0,0.0,0.0,0.04905,0.15696000000000002,9.81
2217171695,,0.0,0.0,0.0,0.039240000000000004,0.17658,9.81
2222222200,,0.0,0.0,0.0,0.039240000000000004,0.17658,9.79038
2227272705,,0.0,0.0,0.0,0.02943,0.15696000000000002,9.78057
2232323210,,0.0,0.0,0.0,0.039240000000000004,0.17658,9.80019
2237373715,,0.0,0.0,0.0,0.02943,0.16677000000000003,9.79038
2242424220,,0.0,0.0,0.0,0.039240000000000004,0.15696000000000002,9.81
2247474725,,0.0,0.0,0.0,0.04905,0.16677000000000003,9.78057
2252525230,,0.0,0.0,0.0,0.02943,0.16677000000000003,9.81
2257575735,,0.0,0.0,0.0,0.039240000000000004,0.15696000000000002,9.79038
2262626240,,0.0,0.0,0.0,0.05886,0.16677000000000003,9.80019
2267676745,,0.0,0.0,0.0,0.039240000000000004,0.16677000000000003,9.79038
2272727250,,0.0,0.0,0.0,0.05886,0.14715,9.79038
2277777755,,0.0,0.0,0.0,0.05886,0.17658,9.81
2282828260,,0.0,0.0,0.0,0.039240000000000004,0.16677000000000003,9.81
2287878765,,0.0,0.0,0.0,0.02943,0.13734000000000002,9.80019
2292929270,,0.0,0.0,0.0,0.02943,0.16677000000000003,9.79038
2297979775,,0.0,0.0,0.0,0.009810000000000001,0.12753,9.81
2303030280,,0.0,0.0,0.0,0.039240000000000004,0.17658,9.760950000000001
2308080785,,0.0,0.0,0.0,0.039240000000000004,0.16677000000000003,9.78057
2313131290,,0.0,0.0,0.0,0.039240000000000004,0.17658,9.79038
2318181795,,0.0,0.0,0.0,0.039240000000000004,0.14715,9.81
2323232300,,0.0,0.0,0.0,0.019620000000000002,0.17658,9.80019
2328282805,,0.0,0.0,0.0,0.019620000000000002,0.16677000000000003,9.78057
2333333310,,0.0,0.0,0.0,0.02943,0.14715,9.81
2338383815,,0.0,0.0,0.0,0.019620000000000002,0.16677000000000003,9.81
2343434320,,0.0,0.0,0.0,0.02943,0.15696000000000002,9.80019
2348484825,,0.0,0.0,0.0,0.02943,0.15696000000000002,9.79038
2353535330,,0.0,0.0,0.0,0.04905,0.15696000000000002,9.81
2358585835,,0.0,0.0,0.0,0.039240000000000004,0.15696000000000002,9.80019
2363636340,,0.0,0.0,0.0,0.02943,0.14715,9.79038
2368686845,,0.0,0.0,0.0,0.04905,0.16677000000000003,9.79038
2373737350,,0.0,0.0,0.0,0.04905,0.15696000000000002,9.80019
2378787855,,0.0,0.0,0.0,0.02943,0.16677000000000003,9.81
2383838360,,0.0,0.0,0.0,0.02943,0.17658,9.79038
2388888865,,0.0,0.0,0.0,0.04905,0.15696000000000002,9.79038
2393939370,,0.0,0.0,0.0,0.039240000000000004,0.12753,9.770760000000001
2398989875,,0.0,0.0,0.0,0.009810000000000001,0.13734000000000002,9.80019
2404040380,,0.0,0.0,0.0,0.009810000000000001,0.15696000000000002,9.80019
2409090885,,0.0,0.0,0.0,0.039240000000000004,0.17658,9.81
2414141390,,0.0,0.0,0.0,0.039240000000000004,0.16677000000000003,9.80019
2419191895,,0.0,0.0,0.0,0.04905,0.17658,9.80019
2424242400,,0.0,0.0,0.0,0.04905,0.15696000000000002,9.81
2429292905,,0.0,0.0,0.0,0.04905,0.14715,9.79038
2434343410,,0.0,0.0,0.0,0.04905,0.15696000000000002,9.79038
2439393915,,0.0,0.0,0.0,0.039240000000000004,0.16677000000000003,9.81
2444444420,,0.0,0.0,0.0,0.039240000000000004,0.17658,9.81
2449494925,,0.0,0.0,0.0,0.039240000000000004,0.15696000000000002,9.78057
2454545430,,0.0,0.0,0.0,0.04905,0.17658,9.81
2459595935,,0.0,0.0,0.0,0.009810000000000001,0.16677000000000003,9.80019
2464646440,,0.0,0.0,0.0,0.02943,0.17658,9.79038
2469696945,,0.0,0.0,0.0,0.039240000000000004,0.17658,9.81
2474747450,,0.0,0.0,0.0,0.039240000000000004,0.17658,9.79038
2479797955,,0.0,0.0,0.0,0.019620000000000002,0.18639,9.80019
2484848460,,0.0,0.0,0.0,0.039240000000000004,0.14715,9.79038
2489898965,,0.0,0.0,0.0,0.039240000000000004,0.16677000000000003,9.80019
2494949470,,0.0,0.0,0.0,0.04905,0.16677000000000003,9.80019
2499999975,,0.0,0.0,0.0,0.02943,0.14715,9.80019
2505050480,,0.0,0.0,0.0,0.04905,0.14715,9.80019
2510100985,,0.0,0.0,0.0,0.02943,0.18639,9.81
2515151490,,0.0,0.0,0.0,0.04905,0.15696000000000002,9.81
2520201995,,0.0,0.0,0.0,0.039240000000000004,0.15696000000000002,9.81
2525252500,,0.0,0.0,0.0,0.039240000000000004,0.15696000000000002,9.79038
2530303005,,0.0,0.0,0.0,0.0,0.14715,9.81
2535353510,,0.0,0.0,0.0,0.02943,0.16677000000000003,9.819809999999999
2540404015,,0.0,0.0,0.0,0.02943,0.16677000000000003,9.81
2545454520,,0.0,0.0,0.0,0.019620000000000002,0.15696000000000002,9.80019
2550505025,,0.0,0.0,0.0,0.019620000000000002,0.16677000000000003,9.81
2555555530,,0.0,0.0,0.0,0.02943,0.14715,9.79038
2560606035,,0.0,0.0,0.0,0.019620000000000002,0.16677000000000003,9.80019
2565656540,,0.0,0.0,0.0,0.02943,0.16677000000000003,9.78057
2570707045,,0.0,0.0,0.0,0.039240000000000004,0.15696000000000002,9.819809999999999
2575757550,,0.0,0.0,0.0,0.02943,0.15696000000000002,9.81
2580808055,,0.0,0.0,0.0,0.02943,0.16677000000000003,9.819809999999999
2585858560,,0.0,0.0,0.0,0.039240000000000004,0.17658,9.80019
2590909065,,0.0,0.0,0.0,0.039240000000000004,0.15696000000000002,9.79038
2595959570,,0.0,0.0,0.0,0.009810000000000001,0.17658,9.78057
2601010075,,0.0,0.0,0.0,0.05886,0.15696000000000002,9.81
2606060580,,0.0,0.0,0.0,0.02943,0.16677000000000003,9.81
2611111085,,0.0,0.0,0.0,0.019620000000000002,0.17658,9.81
2616161590,,0.0,0.0,0.0,0.019620000000000002,0.16677000000000003,9.80019
2621212095,,0.0,0.0,0.0,0.039240000000000004,0.13734000000000002,9.81
2626262600,,0.0,0.0,0.0,0.02943,0.13734000000000002,9.79038
2631313105,,0.0,0.0,0.0,0.039240000000000004,0.14715,9.79038
2636363610,,0.0,0.0,0.0,0.039240000000000004,0.15696000000000002,9.81
2641414115,,0.0,0.0,0.0,0.039240000000000004,0.16677000000000003,9.80019
2646464620,,0.0,0.0,0.0,0.009810000000000001,0.16677000000000003,9.79038
2651515125,,0.0,0.0,0.0,0.039240000000000004,0.16677000000000003,9.79038
2656565630,,0.0,0.0,0.0,0.009810000000000001,0.17658,9.80019
2661616135,,0.0,0.0,0.0,0.04905,0.13734000000000002,9.81
2666666640,,0.0,0.0,0.0,0.019620000000000002,0.14715,9.79038
2671717145,,0.0,0.0,0.0,0.019620000000000002,0.16677000000000003,9.79038
2676767650,,0.0,0.0,0.0,0.039240000000000004,0.15696000000000002,9.79038
2681818155,,0.0,0.0,0.0,0.02943,0.17658,9.81
2686868660,,0.0,0.0,0.0,0.039240000000000004,0.17658,9.80019
2691919165,,0.0,0.0,0.0,0.019620000000000002,0.14715,9.819809999999999
2696969670,,0.0,0.0,0.0,0.019620000000000002,0.15696000000000002,9.78057
2702020175,,0.0,0.0,0.0,0.02943,0.13734000000000002,9.80019
2707070680,,0.0,0.0,0.0,0.019620000000000002,0.15696000000000002,9.79038
2712121185,,0.0,0.0,0.0,0.04905,0.16677000000000003,9.79038
2717171690,,0.0,0.0,0.0,0.04905,0.13734000000000002,9.80019
2722222195,,0.0,0.0,0.0,0.04905,0.16677000000000003,9.78057
2727272700,,0.0,0.0,0.0,0.02943,0.14715,9.819809999999999
2732323205,,0.0,0.0,0.0,0.02943,0.13734000000000002,9.81
2737373710,,0.0,0.0,0.0,0.039240000000000004,0.14715,9.79038
2742424215,,0.0,0.0,0.0,0.02943,0.16677000000000003,9.81
2747474720,,0.0,0.0,0.0,0.019620000000000002,0.20601000000000003,9.81
2752525225,,0.0,0.0,0.0,0.02943,0.15696000000000002,9.80019
2757575730,,0.0,0.0,0.0,0.039240000000000004,0.16677000000000003,9.79038
2762626235,,0.0,0.0,0.0,0.04905,0.12753,9.81
2767676740,,0.0,0.0,0.0,0.02943,0.17658,9.80019
2772727245,,0.0,0.0,0.0,0.04905,0.16677000000000003,9.79038
2777777750,,0.0,0.0,0.0,0.039240000000000004,0.15696000000000002,9.81
2782828255,,0.0,0.0,0.0,0.02943,0.15696000000000002,9.78057
2787878760,,0.0,0.0,0.0,0.039240000000000004,0.14715,9.78057
2792929265,,0.0,0.0,0.0,0.02943,0.15696000000000002,9.770760000000001
2797979770,,0.0,0.0,0.0,0.019620000000000002,0.15696000000000002,9.79038
2803030275,,0.0,0.0,0.0,0.019620000000000002,0.17658,9.79038
2808080780,,0.0,0.0,0.0,0.039240000000000004,0.17658,9.81
2813131285,,0.0,0.0,0.0,0.02943,0.14715,9.79038
2818181790,,0.0,0.0,0.0,0.02943,0.14715,9.80019
2823232295,,0.0,0.0,0.0,0.02943,0.14715,9.80019
2828282800,,0.0,0.0,0.0,0.02943,0.16677000000000003,9.79038
2833333305,,0.0,0.0,0.0,0.039240000000000004,0.14715,9.79038
2838383810,,0.0,0.0,0.0,0.02943,0.14715,9.770760000000001
2843434315,,0.0,0.0,0.0,0.039240000000000004,0.18639,9.80019
2848484820,,0.0,0.0,0.0,0.039240000000000004,0.15696000000000002,9.80019
2853535325,,0.0,0.0,0.0,0.019620000000000002,0.16677000000000003,9.79038
2858585830,,0.0,0.0,0.0,0.05886,0.16677000000000003,9.81
2863636335,,0.0,0.0,0.0,0.0,0.15696000000000002,9.79038
2868686840,,0.0,0.0,0.0,0.009810000000000001,0.15696000000000002,9.79038
2873737345,,0.0,0.0,0.0,0.039240000000000004,0.16677000000000003,9.78057
2878787850,,0.0,0.0,0.0,0.05886,0.13734000000000002,9.819809999999999
2883838355,,0.0,0.0,0.0,0.02943,0.16677000000000003,9.81
2888888860,,0.0,0.0,0.0,0.019620000000000002,0.15696000000000002,9.78057
2893939365,,0.0,0.0,0.0,0.02943,0.15696000000000002,9.78057
2898989870,,0.0,0.0,0.0,0.05886,0.18639,9.79038
2904040375,,0.0,0.0,0.0,0.05886,0.17658,9.80019
2909090880,,0.0,0.0,0.0,0.019620000000000002,0.14715,9.80019
2914141385,,0.0,0.0,0.0,0.02943,0.15696000000000002,9.81
2919191890,,0.0,0.0,0.0,0.04905,0.16677000000000003,9.81
2924242395,,0.0,0.0,0.0,0.02943,0.16677000000000003,9.81
2929292900,,0.0,0.0,0.0,0.039240000000000004,0.14715,9.80019
2934343405,,0.0,0.0,0.0,0.039240000000000004,0.16677000000000003,9.80019
2939393910,,0.0,0.0,0.0,0.039240000000000004,0.16677000000000003,9.79038
2944444415,,0.0,0.0,0.0,0.009810000000000001,0.17658,9.79038
2949494920,,0.0,0.0,0.0,0.039240000000000004,0.17658,9.80019
2954545425,,0.0,0.0,0.0,0.04905,0.16677000000000003,9.78057
2959595930,,0.0,0.0,0.0,0.02943,0.15696000000000002,9.79038
2964646435,,0.0,0.0,0.0,0.02943,0.13734000000000002,9.80019
2969696940,,0.0,0.0,0.0,0.02943,0.16677000000000003,9.80019
2974747445,,0.0,0.0,0.0,0.039240000000000004,0.16677000000000003,9.80019
2979797950,,0.0,0.0,0.0,0.04905,0.18639,9.80019
2984848455,,0.0,0.0,0.0,0.02943,0.16677000000000003,9.80019
2989898960,,0.0,0.0,0.0,0.02943,0.14715,9.80019
2994949465,,0.0,0.0,0.0,0.04905,0.17658,9.770760000000001
2999999970,,0.0,0.0,0.0,0.019620000000000002,0.13734000000000002,9.79038
3005050475,,0.0,0.0,0.0,0.02943,0.17658,9.81
3010100980,,0.0,0.0,0.0,0.02943,0.16677000000000003,9.80019
3015151485,,0.0,0.0,0.0,0.019620000000000002,0.16677000000000003,9.81
3020201990,,0.0,0.0,0.0,0.039240000000000004,0.16677000000000003,9.81
3025252495,,0.0,0.0,0.0,0.009810000000000001,0.15696000000000002,9.80019
3030303000,,0.0,0.0,0.0,0.019620000000000002,0.15696000000000002,9.80019
3035353505,,0.0,0.0,0.0,0.02943,0.15696000000000002,9.80019
3040404010,,0.0,0.0,0.0,0.019620000000000002,0.15696000000000002,9.81
3045454515,,0.0,0.0,0.0,0.039240000000000004,0.17658,9.79038
3050505020,,0.0,0.0,0.0,0.039240000000000004,0.16677000000000003,9.80019
3055555525,,0.0,0.0,0.0,0.039240000000000004,0.14715,9.79038
3060606030,,0.0,0.0,0.0,0.039240000000000004,0.16677000000000003,9.81
3065656535,,0.0,0.0,0.0,0.039240000000000004,0.17658,9.82962
3070707040,,0.0,0.0,0.0,0.04905,0.15696000000000002,9.78057
3075757545,,0.0,0.0,0.0,0.039240000000000004,0.14715,9.80019
3080808050,,0.0,0.0,0.0,0.02943,0.14715,9.81
3085858555,,0.0,0.0,0.0,0.039240000000000004,0.1962,9.81
3090909060,,0.0,0.0,0.0,0.039240000000000004,0.14715,9.78057
3095959565,,0.0,0.0,0.0,0.04905,0.15696000000000002,9.79038
3101010070,,0.0,0.0,0.0,0.019620000000000002,0.15696000000000002,9.81
3106060575,,0.0,0.0,0.0,0.039240000000000004,0.16677000000000003,9.79038
3111111080,,0.0,0.0,0.0,0.019620000000000002,0.18639,9.79038
3116161585,,0.0,0.0,0.0,0.039240000000000004,0.15696000000000002,9.82962
3121212090,,0.0,0.0,0.0,0.04905,0.16677000000000003,9.81
3126262595,,0.0,0.0,0.0,0.02943,0.17658,9.79038
3131313100,,0.0,0.0,0.0,0.039240000000000004,0.16677000000000003,9.81
3136363605,,0.0,0.0,0.0,0.019620000000000002,0.16677000000000003,9.81
3141414110,,0.0,0.0,0.0,0.019620000000000002,0.16677000000000003,9.819809999999999
3146464615,,0.0,0.0,0.0,0.02943,0.14715,9.80019
3151515120,,0.0,0.0,0.0,0.04905,0.1962,9.770760000000001
3156565625,,0.0,0.0,0.0,0.02943,0.16677000000000003,9.80019
3161616130,,0.0,0.0,0.0,0.019620000000000002,0.17658,9.80019
3166666635,,0.0,0.0,0.0,0.039240000000000004,0.15696000000000002,9.80019
3171717140,,0.0,0.0,0.0,0.039240000000000004,0.14715,9.78057
3176767645,,0.0,0.0,0.0,0.039240000000000004,0.14715,9.79038
3181818150,,0.0,0.0,0.0,0.04905,0.14715,9.80019
3186868655,,0.0,0.0,0.0,0.02943,0.15696000000000002,9.819809999999999
3191919160,,0.0,0.0,0.0,0.039240000000000004,0.18639,9.83943
3196969665,,0.0,0.0,0.0,0.06867000000000001,0.14715,9.81
3202020170,,0.0,0.0,0.0,0.05886,0.15696000000000002,9.760950000000001
3207070675,,0.0,0.0,0.0,0.02943,0.17658,9.80019
3212121180,,0.0,0.0,0.0,0.02943,0.14715,9.80019
3217171685,,0.0,0.0,0.0,0.05886,0.16677000000000003,9.81
3222222190,,0.0,0.0,0.0,0.039240000000000004,0.16677000000000003,9.79038
3227272695,,0.0,0.0,0.0,0.06867000000000001,0.15696000000000002,9.80019
3232323200,,0.0,0.0,0.0,0.039240000000000004,0.13734000000000002,9.80019
3237373705,,0.0,0.0,0.0,0.05886,0.16677000000000003,9.819809999999999
3242424210,,0.0,0.0,0.0,0.009810000000000001,0.15696000000000002,9.80019
3247474715,,0.0,0.0,0.0,0.02943,0.15696000000000002,9.80019
3252525220,,0.0,0.0,0.0,0.039240000000000004,0.17658,9.819809999999999
3257575725,,0.0,0.0,0.0,0.039240000000000004,0.15696000000000002,9.79038
3262626230,,0.0,0.0,0.0,0.04905,0.14715,9.78057
3267676735,,0.0,0.0,0.0,0.02943,0.17658,9.79038
3272727240,,0.0,0.0,0.0,0.02943,0.14715,9.819809999999999
3277777745,,0.0,0.0,0.0,0.04905,0.14715,9.80019
3282828250,,0.0,0.0,0.0,0.02943,0.16677000000000003,9.81
3287878755,,0.0,0.0,0.0,0.039240000000000004,0.15696000000000002,9.80019
3292929260,,0.0,0.0,0.0,0.04905,0.15696000000000002,9.79038
3297979765,,0.0,0.0,0.0,0.019620000000000002,0.17658,9.80019
3303030270,,0.0,0.0,0.0,0.039240000000000004,0.16677000000000003,9.79038
3308080775,,0.0,0.0,0.0,0.009810000000000001,0.14715,9.80019
3313131280,,0.0,0.0,0.0,0.02943,0.14715,9.81
3318181785,,0.0,0.0,0.0,0.02943,0.17658,9.79038
3323232290,,0.0,0.0,0.0,0.02943,0.15696000000000002,9.80019
3328282795,,0.0,0.0,0.0,0.039240000000000004,0.13734000000000002,9.78057
3333333300,,0.0,0.0,0.0,0.04905,0.15696000000000002,9.81
3338383805,,0.0,0.0,0.0,0.039240000000000004,0.16677000000000003,9.80019
3343434310,,0.0,0.0,0.0,0.0,0.17658,9.819809999999999
3348484815,,0.0,0.0,0.0,0.039240000000000004,0.15696000000000002,9.79038
3353535320,,0.0,0.0,0.0,0.02943,0.18639,9.80019
3358585825,,0.0,0.0,0.0,0.04905,0.18639,9.81
3363636330,,0.0,0.0,0.0,0.039240000000000004,0.14715,9.78057
3368686835,,0.0,0.0,0.0,0.04905,0.16677000000000003,9.81
3373737340,,0.0,0.0,0.0,0.019620000000000002,0.15696000000000002,9.81
3378787845,,0.0,0.0,0.0,0.04905,0.13734000000000002,9.79038
3383838350,,0.0,0.0,0.0,0.019620000000000002,0.15696000000000002,9.81
3388888855,,0.0,0.0,0.0,0.04905,0.15696000000000002,9.80019
3393939360,,0.0,0.0,0.0,0.05886,0.14715,9.81
3398989865,,0.0,0.0,0.0,0.039240000000000004,0.13734000000000002,9.81
3404040370,,0.0,0.0,0.0,0.02943,0.15696000000000002,9.81
3409090875,,0.0,0.0,0.0,0.039240000000000004,0.14715,9.78057
3414141380,,0.0,0.0,0.0,0.039240000000000004,0.18639,9.81
3419191885,,0.0,0.0,0.0,0.04905,0.15696000000000002,9.78057
3424242390,,0.0,0.0,0.0,0.04905,0.15696000000000002,9.79038
3429292895,,0.0,0.0,0.0,0.02943,0.15696000000000002,9.81
3434343400,,0.0,0.0,0.0,0.019620000000000002,0.17658,9.80019
3439393905,,-0.004258603374866164,0.005323254218582705,0.0,0.05886,0.14715,9.81
3444444410,,-0.002129301687433082,0.001064650843716541,0.0,0.019620000000000002,0.17658,9.79038
3449494915,,0.0,0.0,0.0,0.009810000000000001,0.15696000000000002,9.80019
3454545420,,-0.001064650843716541,0.0,0.0,0.04905,0.15696000000000002,9.79038
3459595925,,0.0,0.0,0.0,0.039240000000000004,0.15696000000000002,9.79038
3464646430,,-0.003193952531149623,0.0,0.0,0.019620000000000002,0.16677000000000003,9.81
3469696935,,0.0,0.001064650843716541,0.0,0.02943,0.15696000000000002,9.79038
3474747440,,-0.001064650843716541,0.001064650843716541,0.0,0.02943,0.16677000000000003,9.81
3479797945,,-0.001064650843716541,0.002129301687433082,0.0,0.019620000000000002,0.16677000000000003,9.80019
3484848450,,0.002129301687433082,0.001064650843716541,0.0,0.039240000000000004,0.15696000000000002,9.80019
3489898955,,-0.002129301687433082,0.001064650843716541,0.0,0.02943,0.16677000000000003,9.79038
3494949460,,0.0,-0.002129301687433082,0.0,0.039240000000000004,0.16677000000000003,9.81
3499999965,,-0.001064650843716541,0.002129301687433082,0.0,0.02943,0.18639,9.79038
3505050470,,-0.001064650843716541,0.0,0.0,0.039240000000000004,0.16677000000000003,9.79038
3510100975,,-0.004258603374866164,0.0,0.0,0.05886,0.13734000000000002,9.81
3515151480,,0.0,-0.001064650843716541,0.0,0.02943,0.13734000000000002,9.79038
3520201985,,0.0,0.003193952531149623,0.0,0.039240000000000004,0.13734000000000002,9.78057
3525252490,,0.001064650843716541,0.001064650843716541,0.0,0.039240000000000004,0.15696000000000002,9.770760000000001
3530302995,,0.001064650843716541,0.0,0.0,0.039240000000000004,0.16677000000000003,9.760950000000001
3535353500,,-0.002129301687433082,0.001064650843716541,0.0,0.05886,0.17658,9.79038
3540404005,,-0.001064650843716541,0.002129301687433082,0.0,0.05886,0.14715,9.760950000000001
3545454510,,-0.002129301687433082,0.001064650843716541,0.0,0.02943,0.17658,9.770760000000001
3550505015,,-0.005323254218582705,0.002129301687433082,0.0,0.019620000000000002,0.15696000000000002,9.79038
3555555520,,-0.003193952531149623,0.0,0.0,0.07848000000000001,0.15696000000000002,9.79038
3560606025,,-0.005323254218582705,-0.001064650843716541,0.0,0.039240000000000004,0.16677000000000003,9.80019
3565656530,,-0.002129301687433082,0.0,0.0,0.04905,0.14715,9.79038
3570707035,,-0.004258603374866164,0.0,0.0,0.019620000000000002,0.14715,9.81
3575757540,,-0.001064650843716541,0.0,0.0,0.02943,0.14715,9.819809999999999
3580808045,,-0.002129301687433082,-0.001064650843716541,0.0,0.0,0.14715,9.83943
3585858550,,-0.003193952531149623,-0.002129301687433082,0.0,0.039240000000000004,0.14715,9.819809999999999
3590909055,,0.0,-0.001064650843716541,0.0,0.06867000000000001,0.17658,9.82962
3595959560,,-0.003193952531149623,-0.001064650843716541,0.0,0.039240000000000004,0.12753,9.81
3601010065,,0.0,0.0,0.0,0.06867000000000001,0.14715,9.82962
3606060570,,-0.002129301687433082,0.0,0.0,0.009810000000000001,0.16677000000000003,9.81
3611111075,,-0.001064650843716541,0.0,0.0,0.05886,0.13734000000000002,9.80019
3616161580,,-0.001064650843716541,0.003193952531149623,0.0,0.039240000000000004,0.14715,9.79038
3621212085,,0.001064650843716541,0.003193952531149623,0.0,0.039240000000000004,0.16677000000000003,9.760950000000001
3626262590,,-0.001064650843716541,0.005323254218582705,0.0,0.04905,0.17658,9.770760000000001
3631313095,,-0.002129301687433082,0.002129301687433082,0.0,0.039240000000000004,0.18639,9.760950000000001
3636363600,,-0.001064650843716541,0.001064650843716541,0.0,0.019620000000000002,0.1962,9.81
3641414105,,-0.001064650843716541,0.0,0.0,0.019620000000000002,0.1962,9.751140000000001
3646464610,,-0.001064650843716541,0.001064650843716541,0.0,0.04905,0.15696000000000002,9.770760000000001
3651515115,,-0.002129301687433082,0.0,0.0,0.039240000000000004,0.17658,9.770760000000001
3656565620,,-0.002129301687433082,0.0,0.0,0.019620000000000002,0.13734000000000002,9.760950000000001
3661616125,,-0.003193952531149623,0.0,0.0,0.019620000000000002,0.16677000000000003,9.770760000000001
3666666630,,-0.004258603374866164,0.0,0.0,0.02943,0.15696000000000002,9.80019
3671717135,,-0.006387905062299246,0.0,0.0,0.009810000000000001,0.14715,9.79038
3676767640,,0.001064650843716541,0.0,0.0,0.019620000000000002,0.14715,9.819809999999999
3681818145,,-0.001064650843716541,0.0,0.0,0.019620000000000002,0.13734000000000002,9.819809999999999
3686868650,,-0.003193952531149623,-0.001064650843716541,0.0,0.02943,0.14715,9.81
3691919155,,0.0,-0.001064650843716541,0.0,0.05886,0.12753,9.819809999999999
3696969660,,0.0,0.0,0.0,0.04905,0.14715,9.79038
3702020165,,0.0,0.001064650843716541,0.0,0.04905,0.15696000000000002,9.80019
3707070670,,0.0,0.004258603374866164,0.0,0.04905,0.17658,9.81
3712121175,,-0.004258603374866164,0.0,0.0,0.02943,0.16677000000000003,9.78057
3717171680,,0.0,0.003193952531149623,0.0,0.039240000000000004,0.16677000000000003,9.79038
3722222185,,-0.004258603374866164,0.004258603374866164,0.0,0.05886,0.16677000000000003,9.80019
3727272690,,-0.002129301687433082,0.001064650843716541,0.0,0.019620000000000002,0.17658,9.760950000000001
3732323195,,0.0,0.003193952531149623,0.0,0.02943,0.18639,9.78057
3737373700,,-0.003193952531149623,0.002129301687433082,0.0,0.019620000000000002,0.17658,9.770760000000001
3742424205,,-0.006387905062299246,0.0,0.0,0.019620000000000002,0.16677000000000003,9.78057
3747474710,,-0.004258603374866164,0.0,0.0,0.039240000000000004,0.1962,9.760950000000001
3752525215,,-0.002129301687433082,0.0,0.0,0.04905,0.20601000000000003,9.760950000000001
3757575720,,0.0,-0.003193952531149623,0.0,0.04905,0.1962,9.751140000000001
3762626225,,-0.004258603374866164,-0.001064650843716541,0.0,0.06867000000000001,0.13734000000000002,9.66285
3767676730,,-0.00958185759344887,0.006387905062299246,0.0,0.05886,0.10791,9.65304
3772727235,,-0.015987215948268057,0.005323254218582705,0.0,0.009810000000000001,0.12753,9.7119
3777777740,,-0.007452555906015787,0.007452555906015787,0.0,0.0,0.15696000000000002,9.78057
3782828245,,-0.001064650843716541,0.01064650843716541,0.0,0.009810000000000001,0.1962,9.82962
3787878750,,0.003193952531149623,-0.002129301687433082,0.0,0.009810000000000001,0.23544,9.82962
3792929255,,-0.005323254218582705,-0.014905111812031574,0.0,0.019620000000000002,0.18639,9.89829
3797979760,,-0.012775810124598492,-0.012775810124598492,0.0,0.05886,0.11772,9.819809999999999
3803030265,,-0.014905111812031574,0.002129301687433082,0.0,0.02943,0.05886,9.770760000000001
3808080770,,-0.01064650843716541,0.003193952531149623,0.0,0.02943,0.0981,9.819809999999999
3813131275,,-0.002129301687433082,0.002129301687433082,0.0,0.0,0.10791,9.87867
3818181780,,0.0,0.01064650843716541,0.0,0.0,0.13734000000000002,9.86886
3823232285,,0.004258603374866164,-0.005323254218582705,0.0,0.009810000000000001,0.21582,9.80019
3828282790,,0.005323254218582705,-0.0170518667919846,0.0,0.06867000000000001,0.23544,9.74133
3833333295,,-0.003193952531149623,0.0,0.0,0.12753,0.22563,9.751140000000001
3838383800,,-0.011711159280881954,0.004258603374866164,0.0,0.10791,0.1962,9.760950000000001
3843434305,,-0.011711159280881954,0.0,0.0,0.07848000000000001,0.13734000000000002,9.82962
3848484810,,-0.015987215948268057,0.002129301687433082,0.0,0.04905,0.039240000000000004,9.91791
3853535315,,-0.011711159280881954,0.00958185759344887,0.0,-0.009810000000000001,0.0,9.87867
3858585820,,-0.004258603374866164,0.012775810124598492,0.0,0.0,0.0,9.91791
3863636325,,0.005323254218582705,0.003193952531149623,0.0,-0.019620000000000002,0.07848000000000001,9.86886
3868686830,,0.01064650843716541,-0.002129301687433082,0.0,0.02943,0.21582,9.87867
3873737335,,0.00958185759344887,-0.007452555906015787,0.0,0.039240000000000004,0.23544,9.85905
3878787840,,0.008517206749732328,-0.013840460968315033,0.0,0.07848000000000001,0.28449,9.79038
3883838345,,0.0,-0.005323254218582705,0.0,0.11772,0.1962,9.73152
3888888850,,-0.008517206749732328,0.014905111812031574,0.0,0.04905,0.10791,9.70209
3893939355,,-0.014905111812031574,0.00958185759344887,0.0,0.0,0.07848000000000001,9.7119
3898989860,,-0.008517206749732328,-0.002129301687433082,0.0,0.009810000000000001,0.12753,9.79038
3904040365,,-0.002129301687433082,-0.008517206749732328,0.0,0.02943,0.17658,9.80019
3909090870,,0.001064650843716541,-0.008517206749732328,0.0,0.05886,0.21582,9.78057
3914141375,,0.007452555906015787,0.002129301687433082,0.0,0.10791,0.1962,9.751140000000001
3919191880,,-0.001064650843716541,0.008517206749732328,0.0,0.039240000000000004,0.10791,9.72171
3924242385,,-0.005323254218582705,0.006387905062299246,0.0,0.019620000000000002,0.12753,9.66285
3929292890,,-0.013840460968315033,0.007452555906015787,0.0,0.019620000000000002,0.11772,9.67266
3934343395,,-0.007452555906015787,0.005323254218582705,0.0,0.0,0.17658,9.70209
3939393900,,-0.004258603374866164,-0.001064650843716541,0.0,0.019620000000000002,0.23544,9.751140000000001
3944444405,,0.0,-0.008517206749732328,0.0,0.02943,0.26487,9.81
3949494910,,-0.001064650843716541,-0.006387905062299246,0.0,0.04905,0.21582,9.760950000000001
3954545415,,-0.00958185759344887,-0.005323254218582705,0.0,0.08829,0.13734000000000002,9.66285
3959595920,,-0.015987215948268057,0.001064650843716541,0.0,0.04905,0.06867000000000001,9.64323
3964646425,,-0.021310470166850764,0.01064650843716541,0.0,0.02943,0.04905,9.69228
3969696930,,-0.01918116847941768,0.014905111812031574,0.0,0.0,0.11772,9.770760000000001
3974747435,,0.0,0.002129301687433082,0.0,0.0,0.20601000000000003,9.82962
3979797940,,0.004258603374866164,-0.011711159280881954,0.0,0.0,0.23544,9.87867
3984848445,,0.0,-0.01918116847941768,0.0,0.0981,0.23544,9.85905
3989898950,,-0.00958185759344887,-0.008517206749732328,0.0,0.10791,0.13734000000000002,9.78057
3994949455,,-0.022375121010567305,0.005323254218582705,0.0,0.06867000000000001,0.06867000000000001,9.73152
3999999960,,-0.02556907354171693,0.01064650843716541,0.0,0.039240000000000004,0.06867000000000001,9.83943
4005050465,,-0.020245819323134222,0.008517206749732328,0.0,-0.019620000000000002,0.019620000000000002,9.908100000000001
4010100970,,-0.007452555906015787,-0.001064650843716541,0.0,-0.009810000000000001,0.07848000000000001,9.99639
4015151475,,0.0,-0.001064650843716541,0.0,0.019620000000000002,0.13734000000000002,10.025820000000001
4020201980,,0.007452555906015787,-0.002129301687433082,0.0,0.0,0.15696000000000002,9.95715
4025252485,,0.003193952531149623,-0.003193952531149623,0.0,0.039240000000000004,0.13734000000000002,9.888480000000001
4030302990,,-0.003193952531149623,-0.004258603374866164,0.0,0.07848000000000001,0.07848000000000001,9.85905
4035353495,,-0.006387905062299246,-0.003193952531149623,0.0,0.06867000000000001,0.07848000000000001,9.82962
4040404000,,-0.002129301687433082,0.002129301687433082,0.0,0.05886,0.08829,9.81
4045454505,,0.003193952531149623,0.003193952531149623,0.0,0.04905,0.14715,9.86886
4050505010,,0.007452555906015787,0.004258603374866164,0.0,0.05886,0.18639,9.85905
4055555515,,0.005323254218582705,0.003193952531149623,0.0,0.06867000000000001,0.17658,9.79038
4060606020,,0.003193952531149623,0.003193952531149623,0.0,0.04905,0.15696000000000002,9.67266
4065656525,,-0.002129301687433082,0.007452555906015787,0.0,0.039240000000000004,0.17658,9.623610000000001
4070707030,,-0.003193952531149623,0.01064650843716541,0.0,0.05886,0.20601000000000003,9.64323
4075757535,,0.0,0.008517206749732328,0.0,0.009810000000000001,0.23544,9.633420000000001
4080808040,,0.001064650843716541,0.0,0.0,0.009810000000000001,0.23544,9.66285
4085858545,,-0.006387905062299246,-0.003193952531149623,0.0,0.019620000000000002,0.21582,9.67266
4090909050,,-0.007452555906015787,-0.003193952531149623,0.0,0.02943,0.18639,9.60399
4095959555,,-0.011711159280881954,0.0,0.0,0.02943,0.16677000000000003,9.56475
4101010060,,-0.0170518667919846,0.004258603374866164,0.0,0.05886,0.16677000000000003,9.6138
4106060565,,-0.01811651763570114,0.007452555906015787,0.0,0.0,0.12753,9.72171
4111111070,,-0.01811651763570114,-0.001064650843716541,0.0,-0.019620000000000002,0.14715,9.79038
4116161575,,-0.01811651763570114,-0.00958185759344887,0.0,-0.009810000000000001,0.15696000000000002,9.819809999999999
4121212080,,-0.013840460968315033,-0.008517206749732328,0.0,0.019620000000000002,0.12753,9.86886
4126262585,,-0.014905111812031574,-0.00958185759344887,0.0,0.009810000000000001,0.14715,9.888480000000001
4131313090,,-0.01918116847941768,-0.008517206749732328,0.0,0.06867000000000001,0.08829,9.87867
4136363595,,-0.021310470166850764,-0.014905111812031574,0.0,0.08829,0.04905,9.937529999999999
4141414100,,-0.021310470166850764,-0.011711159280881954,0.0,0.0981,0.0,9.98658
4146464605,,-0.015987215948268057,0.001064650843716541,0.0,0.06867000000000001,0.0,10.006200000000002
4151515110,,-0.005323254218582705,0.005323254218582705,0.0,0.06867000000000001,0.009810000000000001,10.045440000000001
4156565615,,0.0,0.005323254218582705,0.0,0.05886,0.039240000000000004,10.074869999999999
4161616120,,0.005323254218582705,0.001064650843716541,0.0,0.06867000000000001,0.04905,10.006200000000002
4166666625,,0.00958185759344887,0.0,0.0,0.05886,0.08829,9.92772
4171717130,,0.012775810124598492,0.0,0.0,0.07848000000000001,0.17658,9.819809999999999
4176767635,,0.014905111812031574,0.006387905062299246,0.0,0.10791,0.20601000000000003,9.770760000000001
4181818140,,0.00958185759344887,0.012775810124598492,0.0,0.08829,0.20601000000000003,9.72171
4186868645,,0.005323254218582705,0.014905111812031574,0.0,0.06867000000000001,0.23544,9.6138
4191919150,,0.0,0.013840460968315033,0.0,0.009810000000000001,0.21582,9.55494
4196969655,,-0.002129301687433082,0.014905111812031574,0.0,0.019620000000000002,0.22563,9.496080000000001
4202020160,,-0.003193952531149623,0.0170518667919846,0.0,-0.019620000000000002,0.24525000000000002,9.50589
4207070665,,-0.006387905062299246,0.01064650843716541,0.0,-0.02943,0.25506,9.54513
4212121170,,-0.01064650843716541,0.001064650843716541,0.0,-0.04905,0.24525000000000002,9.54513
4217171675,,-0.020245819323134222,-0.004258603374866164,0.0,-0.02943,0.23544,9.56475
4222222180,,-0.023439771854283843,-0.004258603374866164,0.0,-0.019620000000000002,0.1962,9.64323
4227272685,,-0.02769837522915001,-0.001064650843716541,0.0,-0.009810000000000001,0.08829,9.68247
4232323190,,-0.033021629447732716,0.0,0.0,-0.039240000000000004,0.05886,9.770760000000001
4237373695,,-0.02556907354171693,-0.008517206749732328,0.0,-0.04905,0.04905,9.82962
4242424200,,-0.022375121010567305,-0.021310470166850764,0.0,-0.009810000000000001,0.07848000000000001,9.89829
4247474705,,-0.014905111812031574,-0.023439771854283843,0.0,0.05886,0.08829,9.92772
4252525210,,-0.014905111812031574,-0.01811651763570114,0.0,0.11772,0.0981,9.94734
4257575715,,-0.015987215948268057,-0.013840460968315033,0.0,0.14715,0.0981,9.98658
4262626220,,-0.020245819323134222,-0.012775810124598492,0.0,0.16677000000000003,0.0,10.01601
4267676725,,-0.020245819323134222,-0.001064650843716541,0.0,0.18639,-0.04905,9.98658
4272727230,,-0.00958185759344887,0.004258603374866164,0.0,0.11772,-0.02943,9.96696
4277777735,,-0.003193952531149623,0.012775810124598492,0.0,0.08829,0.009810000000000001,9.97677
4282828240,,0.00958185759344887,0.00958185759344887,0.0,0.08829,0.08829,9.94734
4287878745,,0.014905111812031574,0.01811651763570114,0.0,0.07848000000000001,0.17658,9.87867
4292929250,,0.021310470166850764,0.007452555906015787,0.0,0.05886,0.26487,9.760950000000001
4297979755,,0.011711159280881954,0.008517206749732328,0.0,0.05886,0.27468000000000004,9.69228
4303030260,,-0.006387905062299246,0.01918116847941768,0.0,0.04905,0.26487,9.633420000000001
4308080765,,-0.014905111812031574,0.023439771854283843,0.0,-0.039240000000000004,0.17658,9.65304
4313131270,,-0.020245819323134222,0.014905111812031574,0.0,-0.06867000000000001,0.12753,9.72171
4318181775,,-0.014905111812031574,0.0,0.0,-0.08829,0.10791,9.74133
4323232280,,-0.014905111812031574,-0.012775810124598492,0.0,-0.0981,0.10791,9.81
4328282785,,-0.01064650843716541,-0.014905111812031574,0.0,-0.02943,0.11772,9.819809999999999
4333333290,,-0.005323254218582705,-0.01811651763570114,0.0,0.009810000000000001,0.0981,9.79038
4338383795,,-0.011711159280881954,-0.013840460968315033,0.0,0.02943,0.10791,9.69228
4343434300,,-0.012775810124598492,-0.013840460968315033,0.0,0.06867000000000001,0.07848000000000001,9.68247
4348484805,,-0.0170518667919846,-0.00958185759344887,0.0,0.07848000000000001,0.11772,9.7119
4353535310,,-0.014905111812031574,-0.006387905062299246,0.0,0.11772,0.16677000000000003,9.73152
4358585815,,-0.008517206749732328,-0.004258603374866164,0.0,0.11772,0.18639,9.751140000000001
4363636320,,-0.006387905062299246,0.0,0.0,0.15696000000000002,0.17658,9.74133
4368686825,,-0.01064650843716541,0.004258603374866164,0.0,0.11772,0.15696000000000002,9.67266
4373737330,,-0.014905111812031574,0.0170518667919846,0.0,0.07848000000000001,0.10791,9.67266
4378787835,,-0.014905111812031574,0.021310470166850764,0.0,0.019620000000000002,0.07848000000000001,9.68247
4383838340,,-0.01811651763570114,0.023439771854283843,0.0,-0.009810000000000001,0.10791,9.78057
4388888845,,-0.015987215948268057,0.0170518667919846,0.0,-0.04905,0.0981,9.84924
4393939350,,-0.012775810124598492,0.005323254218582705,0.0,-0.07848000000000001,0.11772,9.89829
4398989855,,-0.011711159280881954,-0.008517206749732328,0.0,-0.07848000000000001,0.10791,9.95715
4404040360,,-0.011711159280881954,-0.01918116847941768,0.0,-0.05886,0.07848000000000001,9.91791
4409090865,,-0.01811651763570114,-0.0170518667919846,0.0,0.0,0.06867000000000001,9.87867
4414141370,,-0.01811651763570114,-0.01811651763570114,0.0,0.04905,0.0,9.89829
4419191875,,-0.0170518667919846,-0.014905111812031574,0.0,0.06867000000000001,0.019620000000000002,9.85905
4424242380,,-0.012775810124598492,-0.01064650843716541,0.0,0.0981,0.07848000000000001,9.82962
4429292885,,-0.004258603374866164,-0.00958185759344887,0.0,0.11772,0.0981,9.888480000000001
4434343390,,0.001064650843716541,-0.001064650843716541,0.0,0.14715,0.14715,9.82962
4439393895,,0.001064650843716541,0.004258603374866164,0.0,0.13734000000000002,0.14715,9.751140000000001
4444444400,,-0.003193952531149623,0.011711159280881954,0.0,0.15696000000000002,0.16677000000000003,9.69228
4449494905,,-0.007452555906015787,0.014905111812031574,0.0,0.10791,0.17658,9.67266
4454545410,,-0.006387905062299246,0.0170518667919846,0.0,0.06867000000000001,0.14715,9.64323
4459595915,,-0.01064650843716541,0.023439771854283843,0.0,0.0,0.16677000000000003,9.72171
4464646420,,-0.013840460968315033,0.01811651763570114,0.0,-0.019620000000000002,0.10791,9.770760000000001
4469696925,,-0.01064650843716541,0.012775810124598492,0.0,-0.07848000000000001,0.0981,9.82962
4474747430,,-0.013840460968315033,0.0,0.0,-0.07848000000000001,0.06867000000000001,9.81
4479797935,,-0.013840460968315033,-0.008517206749732328,0.0,-0.06867000000000001,0.04905,9.79038
4484848440,,-0.014905111812031574,-0.011711159280881954,0.0,-0.07848000000000001,0.05886,9.80019
4489898945,,-0.011711159280881954,-0.015987215948268057,0.0,-0.009810000000000001,0.11772,9.78057
4494949450,,-0.008517206749732328,-0.015987215948268057,0.0,0.039240000000000004,0.15696000000000002,9.74133
4499999955,,-0.006387905062299246,-0.01811651763570114,0.0,0.08829,0.20601000000000003,9.73152
4505050460,,-0.008517206749732328,-0.0170518667919846,0.0,0.13734000000000002,0.17658,9.74133
4510100965,,-0.0170518667919846,-0.006387905062299246,0.0,0.18639,0.15696000000000002,9.69228
4515151470,,-0.022375121010567305,0.005323254218582705,0.0,0.13734000000000002,0.05886,9.70209
4520201975,,-0.023439771854283843,0.015987215948268057,0.0,0.07848000000000001,0.019620000000000002,9.7119
4525252480,,-0.024504422698000388,0.015987215948268057,0.0,0.039240000000000004,0.02943,9.81
4530302985,,-0.020245819323134222,0.01064650843716541,0.0,0.0,0.039240000000000004,9.87867
4535353490,,-0.011711159280881954,0.006387905062299246,0.0,-0.02943,0.039240000000000004,9.937529999999999
4540403995,,-0.003193952531149623,0.0,0.0,0.0,0.05886,9.937529999999999
4545454500,,-0.007452555906015787,0.0,0.0,0.0,0.08829,9.89829
4550505005,,-0.00958185759344887,-0.002129301687433082,0.0,0.009810000000000001,0.0981,9.819809999999999
4555555510,,-0.011711159280881954,-0.002129301687433082,0.0,0.02943,0.06867000000000001,9.80019
4560606015,,-0.007452555906015787,-0.002129301687433082,0.0,0.039240000000000004,0.11772,9.80019
4565656520,,-0.008517206749732328,0.0,0.0,0.05886,0.14715,9.81
4570707025,,-0.008517206749732328,0.0,0.0,0.04905,0.13734000000000002,9.80019
4575757530,,-0.01064650843716541,0.0,0.0,0.04905,0.0981,9.80019
4580808035,,-0.014905111812031574,0.0,0.0,0.039240000000000004,0.07848000000000001,9.80019
4585858540,,-0.022375121010567305,0.003193952531149623,0.0,0.039240000000000004,0.04905,9.79038
4590909045,,-0.01811651763570114,0.001064650843716541,0.0,0.0,0.0,9.86886
4595959550,,-0.014905111812031574,0.0,0.0,0.019620000000000002,0.0,9.87867
4601010055,,-0.008517206749732328,-0.002129301687433082,0.0,0.039240000000000004,0.039240000000000004,9.888480000000001
4606060560,,-0.003193952531149623,-0.005323254218582705,0.0,0.04905,0.04905,9.82962
4611111065,,0.0,-0.002129301687433082,0.0,0.06867000000000001,0.12753,9.760950000000001
4616161570,,0.0,-0.001064650843716541,0.0,0.0981,0.14715,9.69228
4621212075,,-0.006387905062299246,0.007452555906015787,0.0,0.07848000000000001,0.17658,9.66285
4626262580,,-0.002129301687433082,0.008517206749732328,0.0,0.04905,0.23544,9.6138
4631313085,,-0.008517206749732328,0.01064650843716541,0.0,0.05886,0.21582,9.623610000000001
4636363590,,-0.012775810124598492,0.006387905062299246,0.0,0.039240000000000004,0.18639,9.68247
4641414095,,-0.014905111812031574,0.008517206749732328,0.0,0.009810000000000001,0.16677000000000003,9.69228
4646464600,,-0.022375121010567305,0.005323254218582705,0.0,0.0,0.07848000000000001,9.70209
4651515105,,-0.028763026072866547,0.004258603374866164,0.0,-0.019620000000000002,0.019620000000000002,9.751140000000001
4656565610,,-0.02556907354171693,0.001064650843716541,0.0,-0.039240000000000004,0.009810000000000001,9.79038
4661616115,,-0.020245819323134222,-0.007452555906015787,0.0,-0.019620000000000002,0.019620000000000002,9.81
4666666620,,-0.015987215948268057,-0.00958185759344887,0.0,0.0,0.04905,9.84924
4671717125,,-0.01064650843716541,-0.012775810124598492,0.0,0.019620000000000002,0.13734000000000002,9.82962
4676767630,,-0.005323254218582705,-0.012775810124598492,0.0,0.10791,0.14715,9.819809999999999
4681818135,,-0.006387905062299246,-0.00958185759344887,0.0,0.10791,0.12753,9.81
4686868640,,-0.01811651763570114,-0.003193952531149623,0.0,0.0981,0.08829,9.751140000000001
4691919145,,-0.023439771854283843,0.0,0.0,0.11772,0.05886,9.79038
4696969650,,-0.02769837522915001,0.006387905062299246,0.0,0.07848000000000001,0.05886,9.83943
4702020155,,-0.02663372438543347,0.011711159280881954,0.0,0.07848000000000001,0.009810000000000001,9.89829
4707070660,,-0.01811651763570114,0.008517206749732328,0.0,0.0,-0.009810000000000001,9.94734
4712121165,,-0.014905111812031574,0.003193952531149623,0.0,0.0,-0.02943,9.98658
4717171670,,-0.007452555906015787,0.0,0.0,0.0,-0.019620000000000002,9.96696
4722222175,,-0.002129301687433082,0.0,0.0,0.02943,0.02943,9.87867
4727272680,,-0.004258603374866164,0.002129301687433082,0.0,0.039240000000000004,0.11772,9.80019
4732323185,,0.002129301687433082,0.0,0.0,0.04905,0.16677000000000003,9.73152
4737373690,,0.003193952531149623,0.001064650843716541,0.0,0.04905,0.23544,9.69228
4742424195,,-0.005323254218582705,0.003193952531149623,0.0,0.08829,0.24525000000000002,9.68247
4747474700,,-0.012775810124598492,0.005323254218582705,0.0,0.05886,0.16677000000000003,9.68247
4752525205,,-0.02663372438543347,0.011711159280881954,0.0,0.019620000000000002,0.039240000000000004,9.70209
4757575710,,-0.03089232776029963,0.00958185759344887,0.0,-0.019620000000000002,-0.009810000000000001,9.7119
4762626215,,-0.02982767691658309,0.007452555906015787,0.0,-0.02943,-0.02943,9.78057
4767676720,,-0.022375121010567305,-0.004258603374866164,0.0,-0.02943,0.039240000000000004,9.80019
4772727225,,-0.01064650843716541,-0.011711159280881954,0.0,0.009810000000000001,0.009810000000000001,9.84924
4777777730,,-0.004258603374866164,-0.01064650843716541,0.0,0.05886,0.06867000000000001,9.70209
4782828235,,-0.001064650843716541,-0.007452555906015787,0.0,0.04905,0.16677000000000003,9.633420000000001
4787878740,,0.0,-0.00958185759344887,0.0,0.0981,0.20601000000000003,9.67266
4792929245,,-0.014905111812031574,-0.002129301687433082,0.0,0.12753,0.15696000000000002,9.70209
4797979750,,-0.02982767691658309,0.007452555906015787,0.0,0.08829,0.05886,9.7119
4803030255,,-0.03515093113516579,0.01064650843716541,0.0,0.04905,-0.009810000000000001,9.78057
4808080760,,-0.03408628029144926,0.01064650843716541,0.0,0.0,0.009810000000000001,9.85905
4813131265,,-0.024504422698000388,0.0,0.0,-0.019620000000000002,-0.019620000000000002,9.99639
4818181770,,-0.022375121010567305,-0.007452555906015787,0.0,0.0,0.02943,9.96696
4823232275,,-0.01811651763570114,-0.011711159280881954,0.0,0.039240000000000004,-0.009810000000000001,9.94734
4828282780,,-0.011711159280881954,-0.008517206749732328,0.0,0.06867000000000001,0.0,9.819809999999999
4833333285,,-0.008517206749732328,-0.001064650843716541,0.0,0.07848000000000001,0.009810000000000001,9.80019
4838383790,,-0.008517206749732328,0.003193952531149623,0.0,0.07848000000000001,0.009810000000000001,9.751140000000001
4843434295,,-0.005323254218582705,0.002129301687433082,0.0,0.05886,0.06867000000000001,9.80019
4848484800,,-0.00958185759344887,0.001064650843716541,0.0,0.04905,0.0981,9.84924
4853535305,,-0.008517206749732328,0.002129301687433082,0.0,0.04905,0.06867000000000001,9.908100000000001
4858585810,,-0.007452555906015787,0.004258603374866164,0.0,0.04905,0.07848000000000001,9.82962
4863636315,,-0.01811651763570114,0.006387905062299246,0.0,0.019620000000000002,0.039240000000000004,9.80019
4868686820,,-0.014905111812031574,0.0,0.0,0.009810000000000001,0.039240000000000004,9.78057
4873737325,,-0.012775810124598492,-0.003193952531149623,0.0,0.039240000000000004,0.05886,9.80019
4878787830,,-0.007452555906015787,0.001064650843716541,0.0,0.04905,0.07848000000000001,9.770760000000001
4883838335,,-0.007452555906015787,0.003193952531149623,0.0,0.039240000000000004,0.08829,9.760950000000001
4888888840,,-0.01064650843716541,0.007452555906015787,0.0,0.019620000000000002,0.06867000000000001,9.73152
4893939345,,-0.014905111812031574,0.008517206749732328,0.0,0.0,0.0981,9.73152
4898989850,,-0.022375121010567305,0.003193952531149623,0.0,-0.009810000000000001,0.04905,9.78057
4904040355,,-0.02556907354171693,0.0,0.0,0.0,0.0,9.81
4909090860,,-0.024504422698000388,-0.004258603374866164,0.0,0.009810000000000001,0.02943,9.85905
4914141365,,-0.01918116847941768,-0.008517206749732328,0.0,0.0,0.009810000000000001,9.89829
4919191870,,-0.011711159280881954,-0.01064650843716541,0.0,0.02943,0.039240000000000004,9.819809999999999
4924242375,,-0.008517206749732328,-0.012775810124598492,0.0,0.0981,0.04905,9.760950000000001
4929292880,,-0.006387905062299246,-0.003193952531149623,0.0,0.11772,0.02943,9.69228
4934343385,,-0.007452555906015787,0.001064650843716541,0.0,0.0981,0.0981,9.68247
4939393890,,-0.013840460968315033,0.011711159280881954,0.0,0.08829,0.08829,9.74133
4944444395,,-0.013840460968315033,0.00958185759344887,0.0,0.05886,0.07848000000000001,9.770760000000001
4949494900,,-0.0170518667919846,0.008517206749732328,0.0,0.02943,0.04905,9.79038
4954545405,,-0.021310470166850764,0.004258603374866164,0.0,0.009810000000000001,0.019620000000000002,9.82962
4959595910,,-0.020245819323134222,0.002129301687433082,0.0,0.0,0.0,9.760950000000001
4964646415,,-0.01811651763570114,0.002129301687433082,0.0,0.009810000000000001,0.039240000000000004,9.79038
4969696920,,-0.015987215948268057,0.0,0.0,0.02943,0.039240000000000004,9.751140000000001
4974747425,,-0.014905111812031574,0.0,0.0,0.039240000000000004,0.05886,9.69228
4979797930,,-0.014905111812031574,0.0,0.0,0.039240000000000004,0.10791,9.74133
4984848435,,-0.01811651763570114,0.001064650843716541,0.0,0.04905,0.08829,9.78057
4989898940,,-0.022375121010567305,0.003193952531149623,0.0,0.009810000000000001,0.04905,9.81
4994949445,,-0.02982767691658309,0.001064650843716541,0.0,0.0,-0.009810000000000001,9.85905
4999999950,,-0.02982767691658309,-0.003193952531149623,0.0,0.0,-0.009810000000000001,9.89829
5005050455,,-0.02769837522915001,-0.008517206749732328,0.0,0.009810000000000001,0.0,9.937529999999999
5010100960,,-0.022375121010567305,-0.01064650843716541,0.0,0.05886,-0.019620000000000002,9.87867
5015151465,,-0.01918116847941768,-0.008517206749732328,0.0,0.06867000000000001,-0.009810000000000001,9.81
5020201970,,-0.013840460968315033,-0.005323254218582705,0.0,0.10791,0.0,9.770760000000001
5025252475,,-0.005323254218582705,-0.002129301687433082,0.0,0.11772,0.0,9.78057
5030302980,,-0.007452555906015787,0.005323254218582705,0.0,0.10791,0.0,9.79038
5035353485,,-0.011711159280881954,0.00958185759344887,0.0,0.06867000000000001,0.0,9.81
5040403990,,-0.013840460968315033,0.014905111812031574,0.0,0.019620000000000002,0.02943,9.81
5045454495,,-0.011711159280881954,0.011711159280881954,0.0,0.019620000000000002,0.019620000000000002,9.78057
5050505000,,-0.00958185759344887,0.002129301687433082,0.0,-0.009810000000000001,0.05886,9.79038
5055555505,,-0.005323254218582705,-0.003193952531149623,0.0,-0.009810000000000001,0.05886,9.73152
5060606010,,-0.004258603374866164,-0.004258603374866164,0.0,0.009810000000000001,0.11772,9.69228
5065656515,,-0.007452555906015787,0.0,0.0,0.06867000000000001,0.10791,9.66285
5070707020,,-0.013840460968315033,0.003193952531149623,0.0,0.039240000000000004,0.10791,9.72171
5075757525,,-0.024504422698000388,0.002129301687433082,0.0,0.019620000000000002,0.039240000000000004,9.73152
5080808030,,-0.02663372438543347,0.001064650843716541,0.0,0.0,0.019620000000000002,9.760950000000001
5085858535,,-0.02982767691658309,-0.002129301687433082,0.0,0.0,-0.009810000000000001,9.82962
5090909040,,-0.02769837522915001,-0.006387905062299246,0.0,0.0,0.009810000000000001,9.86886
5095959545,,-0.023439771854283843,-0.007452555906015787,0.0,0.009810000000000001,0.0,9.81
5101010050,,-0.020245819323134222,-0.013840460968315033,0.0,0.05886,0.0,9.79038
5106060555,,-0.0170518667919846,-0.01064650843716541,0.0,0.08829,0.0,9.760950000000001
5111111060,,-0.0170518667919846,-0.005323254218582705,0.0,0.11772,-0.019620000000000002,9.73152
5116161565,,-0.021310470166850764,0.0,0.0,0.0981,-0.019620000000000002,9.80019
5121212070,,-0.023439771854283843,0.006387905062299246,0.0,0.10791,0.0,9.86886
5126262575,,-0.01918116847941768,0.008517206749732328,0.0,0.02943,-0.009810000000000001,9.908100000000001
5131313080,,-0.020245819323134222,0.006387905062299246,0.0,0.02943,0.0,9.91791
5136363585,,-0.013840460968315033,-0.001064650843716541,0.0,0.039240000000000004,-0.009810000000000001,9.87867
5141414090,,-0.011711159280881954,0.003193952531149623,0.0,0.019620000000000002,0.0,9.83943
5146464595,,-0.00958185759344887,0.002129301687433082,0.0,0.039240000000000004,0.009810000000000001,9.80019
5151515100,,-0.011711159280881954,0.004258603374866164,0.0,0.05886,0.019620000000000002,9.79038
5156565605,,-0.021310470166850764,0.002129301687433082,0.0,0.019620000000000002,0.0,9.819809999999999
5161616110,,-0.022375121010567305,0.0,0.0,0.0,0.009810000000000001,9.888480000000001
5166666615,,-0.01918116847941768,0.0,0.0,0.02943,-0.009810000000000001,9.91791
5171717120,,-0.01811651763570114,-0.003193952531149623,0.0,0.0,-0.019620000000000002,9.92772
5176767625,,-0.015987215948268057,-0.004258603374866164,0.0,0.019620000000000002,-0.009810000000000001,9.85905
5181818130,,-0.00958185759344887,-0.005323254218582705,0.0,0.039240000000000004,0.0,9.78057
5186868635,,-0.00958185759344887,0.0,0.0,0.05886,0.019620000000000002,9.69228
5191919140,,-0.012775810124598492,0.0,0.0,0.06867000000000001,0.009810000000000001,9.65304
5196969645,,-0.008517206749732328,0.004258603374866164,0.0,0.06867000000000001,0.0,9.66285
5202020150,,-0.014905111812031574,0.006387905062299246,0.0,0.019620000000000002,0.019620000000000002,9.69228
5207070655,,-0.01918116847941768,0.003193952531149623,0.0,0.04905,0.0,9.751140000000001
5212121160,,-0.015987215948268057,0.002129301687433082,0.0,0.02943,0.019620000000000002,9.770760000000001
5217171665,,-0.013840460968315033,0.001064650843716541,0.0,0.019620000000000002,0.04905,9.72171
5222222170,,-0.01064650843716541,0.003193952531149623,0.0,0.05886,0.02943,9.67266
5227272675,,-0.012775810124598492,0.007452555906015787,0.0,0.039240000000000004,0.06867000000000001,9.633420000000001
5232323180,,-0.015987215948268057,0.005323254218582705,0.0,0.009810000000000001,0.05886,9.633420000000001
5237373685,,-0.023439771854283843,0.005323254218582705,0.0,0.0,0.02943,9.68247
5242424190,,-0.02982767691658309,0.0,0.0,-0.009810000000000001,0.019620000000000002,9.751140000000001
5247474695,,-0.03515093113516579,-0.005323254218582705,0.0,0.0,0.0,9.87867
5252525200,,-0.03408628029144926,-0.011711159280881954,0.0,0.0,-0.019620000000000002,9.95715
5257575705,,-0.03408628029144926,-0.013840460968315033,0.0,0.039240000000000004,-0.019620000000000002,9.94734
5262626210,,-0.03089232776029963,-0.013840460968315033,0.0,0.04905,-0.04905,9.908100000000001
5267676715,,-0.02663372438543347,-0.00958185759344887,0.0,0.10791,-0.04905,9.83943
5272727220,,-0.024504422698000388,0.001064650843716541,0.0,0.10791,-0.07848000000000001,9.80019
5277777725,,-0.02663372438543347,0.007452555906015787,0.0,0.10791,-0.07848000000000001,9.79038
5282828230,,-0.028763026072866547,0.008517206749732328,0.0,0.05886,-0.10791,9.86886
5287878735,,-0.02556907354171693,-0.002129301687433082,0.0,0.039240000000000004,-0.0981,9.937529999999999
5292929240,,-0.015987215948268057,-0.002129301687433082,0.0,0.04905,-0.04905,9.91791
5297979745,,-0.008517206749732328,-0.003193952531149623,0.0,0.04905,-0.04905,9.86886
5303030250,,-0.001064650843716541,0.002129301687433082,0.0,0.08829,-0.009810000000000001,9.819809999999999
5308080755,,0.002129301687433082,0.01064650843716541,0.0,0.0981,-0.009810000000000001,9.7119
5313131260,,0.0,0.013840460968315033,0.0,0.04905,0.009810000000000001,9.66285
5318181765,,-0.004258603374866164,0.01811651763570114,0.0,0.0,0.009810000000000001,9.633420000000001
5323232270,,-0.014905111812031574,0.01811651763570114,0.0,-0.02943,0.04905,9.7119
5328282775,,-0.022375121010567305,0.007452555906015787,0.0,-0.02943,0.009810000000000001,9.819809999999999
5333333280,,-0.015987215948268057,-0.008517206749732328,0.0,-0.039240000000000004,0.019620000000000002,9.84924
5338383785,,-0.011711159280881954,-0.0170518667919846,0.0,-0.019620000000000002,0.039240000000000004,9.83943
5343434290,,-0.011711159280881954,-0.01918116847941768,0.0,0.02943,0.009810000000000001,9.760950000000001
5348484795,,-0.015987215948268057,-0.011711159280881954,0.0,0.06867000000000001,0.0,9.68247
5353535300,,-0.022375121010567305,0.0,0.0,0.07848000000000001,0.009810000000000001,9.60399
5358585805,,-0.03515093113516579,0.00958185759344887,0.0,0.08829,0.0,9.65304
5363636310,,-0.0404741853537485,0.006387905062299246,0.0,0.039240000000000004,-0.039240000000000004,9.760950000000001
5368686815,,-0.03728023282259888,0.0,0.0,0.019620000000000002,-0.039240000000000004,9.86886
5373737320,,-0.02982767691658309,-0.01064650843716541,0.0,0.02943,-0.039240000000000004,9.95715
5378787825,,-0.020245819323134222,-0.014905111812031574,0.0,0.039240000000000004,-0.05886,9.97677
5383838330,,-0.014905111812031574,-0.011711159280881954,0.0,0.08829,-0.08829,9.92772
5388888835,,-0.01811651763570114,-0.004258603374866164,0.0,0.07848000000000001,-0.08829,9.81
5393939340,,-0.03089232776029963,0.013840460968315033,0.0,0.10791,-0.08829,9.74133
5398989845,,-0.03089232776029963,0.020245819323134222,0.0,0.04905,-0.12753,9.78057
5404040350,,-0.02982767691658309,0.013840460968315033,0.0,0.009810000000000001,-0.10791,9.84924
5409090855,,-0.021310470166850764,0.001064650843716541,0.0,0.0,-0.08829,9.96696
5414141360,,-0.008517206749732328,-0.00958185759344887,0.0,0.0,-0.06867000000000001,10.025820000000001
5419191865,,0.0,-0.014905111812031574,0.0,0.019620000000000002,-0.02943,9.95715
5424242370,,0.0,-0.01064650843716541,0.0,0.07848000000000001,-0.05886,9.81
5429292875,,-0.005323254218582705,0.003193952531149623,0.0,0.0981,-0.019620000000000002,9.67266
5434343380,,-0.013840460968315033,0.015987215948268057,0.0,0.04905,-0.019620000000000002,9.59418
5439393885,,-0.020245819323134222,0.021310470166850764,0.0,0.04905,-0.009810000000000001,9.57456
5444444390,,-0.015987215948268057,0.011711159280881954,0.0,0.009810000000000001,0.0,9.70209
5449494895,,-0.00958185759344887,-0.004258603374866164,0.0,0.0,0.009810000000000001,9.80019
5454545400,,-0.007452555906015787,-0.01064650843716541,0.0,0.0,0.02943,9.83943
5459595905,,-0.008517206749732328,-0.01064650843716541,0.0,0.0,0.019620000000000002,9.819809999999999
5464646410,,-0.012775810124598492,0.0,0.0,0.04905,0.0,9.7119
5469696915,,-0.023439771854283843,0.006387905062299246,0.0,0.04905,-0.009810000000000001,9.58437
5474747420,,-0.02982767691658309,0.013840460968315033,0.0,0.019620000000000002,-0.039240000000000004,9.54513
5479797925,,-0.03621558197888234,0.011711159280881954,0.0,0.009810000000000001,-0.02943,9.58437
5484848430,,-0.03089232776029963,0.0,0.0,-0.019620000000000002,-0.039240000000000004,9.78057
5489898935,,-0.02556907354171693,-0.012775810124598492,0.0,-0.009810000000000001,-0.019620000000000002,9.89829
5494949440,,-0.02556907354171693,-0.020245819323134222,-0.005323254218582705,0.02943,-0.04905,9.97677
5499999945,,-0.024504422698000388,-0.01918116847941768,-0.005323254218582705,0.06867000000000001,-0.05886,9.937529999999999
5505050450,,-0.02663372438543347,-0.007452555906015787,0.0,0.0981,-0.0981,9.82962
5510100955,,-0.03408628029144926,0.007452555906015787,0.0,0.11772,-0.0981,9.7119
5515151460,,-0.03408628029144926,0.015987215948268057,0.001064650843716541,0.07848000000000001,-0.0981,9.67266
5520201965,,-0.03621558197888234,0.012775810124598492,-0.003193952531149623,0.039240000000000004,-0.11772,9.770760000000001
5525252470,,-0.024504422698000388,-0.003193952531149623,0.001064650843716541,0.019620000000000002,-0.10791,9.85905
5530302975,,-0.012775810124598492,-0.011711159280881954,-0.004258603374866164,0.02943,-0.11772,9.97677
5535353480,,-0.005323254218582705,-0.014905111812031574,0.0,0.02943,-0.08829,10.025820000000001
5540403985,,-0.004258603374866164,-0.00958185759344887,0.0,0.0981,-0.06867000000000001,9.94734
5545454490,,-0.011711159280881954,0.004258603374866164,0.002129301687433082,0.08829,-0.08829,9.82962
5550504995,,-0.020245819323134222,0.01811651763570114,0.0,0.04905,-0.07848000000000001,9.70209
5555555500,,-0.02556907354171693,0.021310470166850764,0.0,0.02943,-0.06867000000000001,9.64323
5560606005,,-0.021310470166850764,0.01918116847941768,0.0,0.0,-0.04905,9.70209
5565656510,,-0.014905111812031574,0.004258603374866164,-0.001064650843716541,-0.009810000000000001,-0.02943,9.80019
5570707015,,-0.004258603374866164,-0.012775810124598492,-0.001064650843716541,0.0,0.0,9.84924
5575757520,,-0.003193952531149623,-0.01918116847941768,0.0,0.019620000000000002,-0.02943,9.86886
5580808025,,-0.007452555906015787,-0.013840460968315033,0.0,0.06867000000000001,-0.04905,9.83943
5585858530,,-0.020245819323134222,0.0,0.0,0.0981,-0.039240000000000004,9.7119
5590909035,,-0.02982767691658309,0.015987215948268057,0.002129301687433082,0.08829,-0.02943,9.623610000000001
5595959540,,-0.031956978604016174,0.021310470166850764,0.002129301687433082,0.019620000000000002,-0.039240000000000004,9.6138
5601010045,,-0.028763026072866547,0.006387905062299246,0.0,-0.009810000000000001,-0.06867000000000001,9.69228
5606060550,,-0.020245819323134222,-0.008517206749732328,-0.002129301687433082,-0.009810000000000001,-0.02943,9.819809999999999
5611111055,,-0.013840460968315033,-0.020245819323134222,0.001064650843716541,0.0,-0.06867000000000001,9.94734
5616161560,,-0.022375121010567305,-0.01811651763570114,-0.002129301687433082,0.02943,-0.10791,9.99639
5621212065,,-0.02663372438543347,-0.01064650843716541,0.0,0.06867000000000001,-0.12753,9.94734
5626262570,,-0.03728023282259888,0.004258603374866164,0.0,0.0981,-0.11772,9.83943
5631313075,,-0.04260348704118158,0.00958185759344887,0.002129301687433082,0.05886,-0.14715,9.770760000000001
5636363580,,-0.03408628029144926,0.008517206749732328,0.0,0.05886,-0.12753,9.78057
5641414085,,-0.021310470166850764,0.001064650843716541,0.0,0.039240000000000004,-0.12753,9.79038
5646464590,,-0.01064650843716541,-0.007452555906015787,-0.002129301687433082,0.02943,-0.12753,9.86886
5651515095,,-0.003193952531149623,-0.011711159280881954,0.0,0.06867000000000001,-0.12753,9.937529999999999
5656565600,,-0.008517206749732328,-0.008517206749732328,-0.002129301687433082,0.07848000000000001,-0.08829,9.908100000000001
5661616105,,-0.01811651763570114,0.004258603374866164,0.0,0.07848000000000001,-0.0981,9.81
5666666610,,-0.022375121010567305,0.021310470166850764,0.0,0.10791,-0.07848000000000001,9.69228
5671717115,,-0.015987215948268057,0.024504422698000388,0.004258603374866164,0.039240000000000004,-0.05886,9.623610000000001
5676767620,,-0.007452555906015787,0.015987215948268057,0.0,0.019620000000000002,-0.04905,9.60399
5681818125,,-0.001064650843716541,-0.0,-0.002129301687433082,0.0,0.0,9.69228
5686868630,,0.0,-0.005323254218582705,-0.002129301687433082,0.0,-0.019620000000000002,9.78057
5691919135,,-0.004258603374866164,-0.008517206749732328,0.0,0.009810000000000001,-0.039240000000000004,9.85905
5696969640,,-0.021310470166850764,-0.002129301687433082,0.0,0.019620000000000002,-0.02943,9.81
5702020145,,-0.033021629447732716,0.006387905062299246,0.0,0.009810000000000001,-0.04905,9.770760000000001
5707070650,,-0.0404741853537485,0.007452555906015787,0.0,0.0,-0.0981,9.73152
5712121155,,-0.03515093113516579,0.0,0.001064650843716541,0.0,-0.05886,9.73152
5717171660,,-0.02556907354171693,-0.01064650843716541,0.001064650843716541,0.02943,-0.07848000000000001,9.78057
5722222165,,-0.01811651763570114,-0.012775810124598492,0.0,0.039240000000000004,-0.10791,9.819809999999999
5727272670,,-0.022375121010567305,-0.013840460968315033,-0.002129301687433082,0.08829,-0.0981,9.819809999999999
5732323175,,-0.02982767691658309,-0.00958185759344887,0.0,0.07848000000000001,-0.13734000000000002,9.85905
5737373680,,-0.03834488366631542,-0.001064650843716541,-0.001064650843716541,0.10791,-0.14715,9.82962
5742424185,,-0.03834488366631542,0.007452555906015787,0.0,0.08829,-0.16677000000000003,9.80019
5747474690,,-0.02769837522915001,0.012775810124598492,0.002129301687433082,0.04905,-0.17658,9.79038
5752525195,,-0.013840460968315033,0.008517206749732328,0.0,0.02943,-0.13734000000000002,9.760950000000001
5757575700,,-0.007452555906015787,0.004258603374866164,0.0,0.05886,-0.11772,9.770760000000001
5762626205,,-0.002129301687433082,-0.0,-0.001064650843716541,0.04905,-0.11772,9.81
5767676710,,-0.013840460968315033,0.001064650843716541,0.0,0.02943,-0.10791,9.819809999999999
5772727215,,-0.022375121010567305,0.004258603374866164,-0.001064650843716541,0.009810000000000001,-0.08829,9.84924
5777777720,,-0.023439771854283843,0.007452555906015787,0.0,0.019620000000000002,-0.13734000000000002,9.85905
5782828225,,-0.022375121010567305,0.004258603374866164,0.0,0.009810000000000001,-0.12753,9.83943
5787878730,,-0.012775810124598492,-0.003193952531149623,0.002129301687433082,0.019620000000000002,-0.07848000000000001,9.819809999999999
5792929235,,-0.007452555906015787,-0.006387905062299246,0.001064650843716541,0.02943,-0.0981,9.81
5797979740,,-0.00958185759344887,-0.005323254218582705,0.0,0.009810000000000001,-0.10791,9.78057
5803030245,,-0.0170518667919846,0.0,0.0,0.05886,-0.0981,9.760950000000001
5808080750,,-0.02769837522915001,-0.002129301687433082,-0.002129301687433082,0.07848000000000001,-0.11772,9.73152
5813131255,,-0.033021629447732716,0.0,0.002129301687433082,0.04905,-0.11772,9.79038
5818181760,,-0.033021629447732716,0.001064650843716541,-0.001064650843716541,0.07848000000000001,-0.11772,9.80019
5823232265,,-0.022375121010567305,-0.001064650843716541,0.0,0.05886,-0.11772,9.82962
5828282770,,-0.011711159280881954,-0.002129301687433082,0.0,0.04905,-0.08829,9.82962
5833333275,,-0.01064650843716541,0.0,0.0,0.07848000000000001,-0.11772,9.81
5838383780,,-0.01811651763570114,0.005323254218582705,-0.001064650843716541,0.05886,-0.14715,9.78057
5843434285,,-0.02769837522915001,0.00958185759344887,0.001064650843716541,0.039240000000000004,-0.13734000000000002,9.770760000000001
5848484790,,-0.03621558197888234,0.008517206749732328,0.0,0.0,-0.12753,9.78057
5853535295,,-0.033021629447732716,0.004258603374866164,0.0,0.0,-0.15696000000000002,9.82962
5858585800,,-0.023439771854283843,-0.005323254218582705,-0.001064650843716541,0.009810000000000001,-0.13734000000000002,9.888480000000001
5863636305,,-0.01064650843716541,-0.013840460968315033,-0.003193952531149623,0.02943,-0.15696000000000002,9.91791
5868686810,,-0.005323254218582705,-0.014905111812031574,0.0,0.06867000000000001,-0.14715,9.888480000000001
5873737315,,-0.00958185759344887,0.0,0.0,0.07848000000000001,-0.11772,9.770760000000001
5878787820,,-0.0170518667919846,0.00958185759344887,0.001064650843716541,0.05886,-0.12753,9.7119
5883838325,,-0.02556907354171693,0.011711159280881954,0.002129301687433082,0.06867000000000001,-0.15696000000000002,9.69228
5888888830,,-0.022375121010567305,0.007452555906015787,0.002129301687433082,0.039240000000000004,-0.13734000000000002,9.69228
5893939335,,-0.0170518667919846,0.0,0.0,0.019620000000000002,-0.10791,9.78057
5898989840,,-0.006387905062299246,-0.01064650843716541,0.0,0.019620000000000002,-0.10791,9.87867
5904040345,,-0.001064650843716541,-0.00958185759344887,0.0,0.07848000000000001,-0.08829,9.83943
5909090850,,-0.007452555906015787,-0.002129301687433082,0.0,0.08829,-0.08829,9.770760000000001
5914141355,,-0.01918116847941768,0.008517206749732328,-0.002129301687433082,0.04905,-0.0981,9.68247
5919191860,,-0.02982767691658309,0.014905111812031574,0.002129301687433082,0.05886,-0.0981,9.64323
5924242365,,-0.028763026072866547,0.011711159280881954,0.002129301687433082,0.019620000000000002,-0.11772,9.68247
5929292870,,-0.02769837522915001,0.003193952531149623,0.001064650843716541,0.0,-0.11772,9.751140000000001
5934343375,,-0.020245819323134222,-0.005323254218582705,-0.002129301687433082,-0.009810000000000001,-0.12753,9.87867
5939393880,,-0.01918116847941768,-0.015987215948268057,-0.002129301687433082,0.0,-0.11772,9.95715
5944444385,,-0.020245819323134222,-0.0170518667919846,-0.002129301687433082,0.05886,-0.14715,9.908100000000001
5949494890,,-0.024504422698000388,-0.008517206749732328,0.0,0.06867000000000001,-0.14715,9.82962
5954545395,,-0.03408628029144926,0.003193952531149623,0.001064650843716541,0.07848000000000001,-0.18639,9.760950000000001
5959595900,,-0.03408628029144926,0.01064650843716541,0.002129301687433082,0.06867000000000001,-0.18639,9.7119
5964646405,,-0.033021629447732716,0.007452555906015787,0.001064650843716541,0.04905,-0.17658,9.770760000000001
5969696910,,-0.024504422698000388,-0.003193952531149623,-0.002129301687433082,0.039240000000000004,-0.17658,9.80019
5974747415,,-0.014905111812031574,-0.00958185759344887,-0.001064650843716541,0.04905,-0.18639,9.89829
5979797920,,-0.01064650843716541,-0.008517206749732328,-0.002129301687433082,0.06867000000000001,-0.13734000000000002,9.908100000000001
5984848425,,-0.008517206749732328,-0.001064650843716541,-0.001064650843716541,0.08829,-0.16677000000000003,9.86886
5989898930,,-0.011711159280881954,0.007452555906015787,0.002129301687433082,0.05886,-0.16677000000000003,9.79038
5994949435,,-0.021310470166850764,0.015987215948268057,0.0,0.039240000000000004,-0.13734000000000002,9.7119
5999999940,,-0.020245819323134222,0.013840460968315033,0.002129301687433082,0.019620000000000002,-0.15696000000000002,9.67266
6005050445,,-0.01811651763570114,0.006387905062299246,0.0,0.009810000000000001,-0.13734000000000002,9.73152
6010100950,,-0.00958185759344887,-0.001064650843716541,0.0,0.0,-0.11772,9.81
6015151455,,-0.00958185759344887,-0.007452555906015787,0.0,0.0,-0.10791,9.87867
6020201960,,-0.01064650843716541,-0.01064650843716541,0.0,0.0,-0.13734000000000002,9.86886
6025252465,,-0.015987215948268057,-0.006387905062299246,0.0,0.039240000000000004,-0.14715,9.819809999999999
6030302970,,-0.024504422698000388,0.003193952531149623,0.0,0.039240000000000004,-0.13734000000000002,9.760950000000001
6035353475,,-0.02769837522915001,0.008517206749732328,0.0,0.04905,-0.12753,9.66285
6040403980,,-0.02663372438543347,0.007452555906015787,0.0,0.019620000000000002,-0.15696000000000002,9.69228
6045454485,,-0.02556907354171693,-0.001064650843716541,0.0,0.0,-0.13734000000000002,9.760950000000001
6050504990,,-0.020245819323134222,-0.00958185759344887,0.0,0.0,-0.13734000000000002,9.82962
6055555495,,-0.01811651763570114,-0.012775810124598492,0.0,0.039240000000000004,-0.15696000000000002,9.94734
6060606000,,-0.023439771854283843,-0.007452555906015787,0.0,0.08829,-0.18639,9.95715
6065656505,,-0.02769837522915001,0.0,0.0,0.07848000000000001,-0.18639,9.92772
6070707010,,-0.03408628029144926,0.007452555906015787,0.0,0.07848000000000001,-0.20601000000000003,9.888480000000001
6075757515,,-0.03089232776029963,0.00958185759344887,0.0,0.039240000000000004,-0.23544,9.82962
6080808020,,-0.02769837522915001,0.004258603374866164,0.0,0.019620000000000002,-0.22563,9.79038
6085858525,,-0.01918116847941768,0.0,0.0,0.039240000000000004,-0.21582,9.81
6090909030,,-0.008517206749732328,-0.004258603374866164,0.0,0.05886,-0.23544,9.83943
6095959535,,-0.007452555906015787,-0.007452555906015787,0.0,0.05886,-0.1962,9.86886
6101010040,,-0.008517206749732328,-0.003193952531149623,0.0,0.06867000000000001,-0.18639,9.85905
6106060545,,-0.00958185759344887,0.00958185759344887,0.0,0.06867000000000001,-0.20601000000000003,9.760950000000001
6111111050,,-0.013840460968315033,0.013840460968315033,0.0,0.05886,-0.16677000000000003,9.7119
6116161555,,-0.015987215948268057,0.013840460968315033,0.0,0.0,-0.12753,9.68247
6121212060,,-0.011711159280881954,0.00958185759344887,0.0,0.0,-0.14715,9.66285
6126262565,,-0.004258603374866164,0.0,0.0,-0.009810000000000001,-0.10791,9.67266
6131313070,,0.0,-0.01064650843716541,0.0,0.009810000000000001,-0.0981,9.72171
6136363575,,-0.006387905062299246,-0.00958185759344887,0.0,0.02943,-0.08829,9.760950000000001
6141414080,,-0.014905111812031574,-0.001064650843716541,0.0,0.039240000000000004,-0.0981,9.78057
6146464585,,-0.023439771854283843,0.003193952531149623,0.0,0.05886,-0.11772,9.74133
6151515090,,-0.03515093113516579,0.006387905062299246,0.0,0.02943,-0.13734000000000002,9.72171
6156565595,,-0.03621558197888234,0.003193952531149623,0.0,0.0,-0.13734000000000002,9.751140000000001
6161616100,,-0.02982767691658309,-0.002129301687433082,0.0,0.0,-0.16677000000000003,9.80019
6166666605,,-0.02663372438543347,-0.012775810124598492,0.0,0.02943,-0.18639,9.82962
6171717110,,-0.02556907354171693,-0.012775810124598492,0.0,0.06867000000000001,-0.1962,9.888480000000001
6176767615,,-0.02769837522915001,-0.01064650843716541,0.0,0.05886,-0.1962,9.87867
6181818120,,-0.03089232776029963,-0.005323254218582705,0.0,0.0981,-0.24525000000000002,9.86886
6186868625,,-0.03834488366631542,0.00958185759344887,0.0,0.08829,-0.26487,9.85905
6191919130,,-0.033021629447732716,0.011711159280881954,0.0,0.07848000000000001,-0.24525000000000002,9.83943
6196969635,,-0.028763026072866547,0.006387905062299246,0.0,0.05886,-0.26487,9.85905
6202020140,,-0.020245819323134222,0.002129301687433082,0.0,0.019620000000000002,-0.25506,9.87867
6207070645,,-0.012775810124598492,-0.001064650843716541,0.0,0.009810000000000001,-0.23544,9.85905
6212121150,,-0.007452555906015787,-0.005323254218582705,0.0,0.05886,-0.22563,9.85905
6217171655,,-0.005323254218582705,-0.002129301687433082,0.0,0.05886,-0.22563,9.83943
6222222160,,-0.00958185759344887,0.005323254218582705,0.0,0.06867000000000001,-0.20601000000000003,9.80019
6227272665,,-0.015987215948268057,0.012775810124598492,0.0,0.04905,-0.1962,9.79038
6232323170,,-0.0170518667919846,0.012775810124598492,0.0,0.009810000000000001,-0.18639,9.760950000000001
6237373675,,-0.005323254218582705,0.001064650843716541,0.0,-0.009810000000000001,-0.18639,9.770760000000001
6242424180,,-0.00958185759344887,-0.005323254218582705,0.0,-0.009810000000000001,-0.16677000000000003,9.760950000000001
6247474685,,-0.003193952531149623,-0.01064650843716541,0.0,0.02943,-0.15696000000000002,9.760950000000001
6252525190,,-0.004258603374866164,-0.01064650843716541,0.0,0.04905,-0.12753,9.74133
6257575695,,-0.01064650843716541,-0.004258603374866164,0.0,0.08829,-0.14715,9.7119
6262626200,,-0.01811651763570114,0.007452555906015787,0.0,0.06867000000000001,-0.16677000000000003,9.70209
6267676705,,-0.028763026072866547,0.01064650843716541,0.0,0.04905,-0.15696000000000002,9.7119
6272727210,,-0.033021629447732716,0.007452555906015787,0.0,0.0,-0.20601000000000003,9.760950000000001
6277777715,,-0.02663372438543347,-0.001064650843716541,0.0,0.019620000000000002,-0.18639,9.81
6282828220,,-0.023439771854283843,-0.007452555906015787,0.0,0.009810000000000001,-0.1962,9.85905
6287878725,,-0.021310470166850764,-0.014905111812031574,0.0,0.05886,-0.23544,9.86886
6292929230,,-0.024504422698000388,-0.01064650843716541,0.0,0.06867000000000001,-0.20601000000000003,9.84924
6297979735,,-0.02769837522915001,-0.003193952531149623,0.0,0.0981,-0.22563,9.83943
6303030240,22.35,-0.033021629447732716,0.007452555906015787,0.0,0.05886,-0.26487,9.85905
6308080745,22.35,-0.03621558197888234,0.007452555906015787,0.0,0.039240000000000004,-0.27468000000000004,9.87867
6313131250,22.35,-0.03728023282259888,0.005323254218582705,0.0,0.02943,-0.2943,9.94734
6318181755,22.35,-0.023439771854283843,-0.004258603374866164,0.0,0.019620000000000002,-0.30411,9.96696
6323232260,22.35,-0.013840460968315033,-0.011711159280881954,0.0,0.039240000000000004,-0.27468000000000004,9.937529999999999
6328282765,22.35,-0.007452555906015787,-0.01064650843716541,0.0,0.05886,-0.27468000000000004,9.87867
6333333270,22.35,-0.003193952531149623,-0.005323254218582705,0.0,0.10791,-0.28449,9.770760000000001
6338383775,22.35,-0.003193952531149623,0.007452555906015787,0.0,0.0981,-0.25506,9.69228
6343434280,22.35,-0.006387905062299246,0.015987215948268057,0.0,0.08829,-0.22563,9.65304
6348484785,22.35,-0.006387905062299246,0.01811651763570114,0.0,0.009810000000000001,-0.20601000000000003,9.68247
6353535290,22.35,-0.008517206749732328,0.014905111812031574,0.0,0.0,-0.17658,9.751140000000001
6358585795,22.35,-0.004258603374866164,0.003193952531149623,0.0,-0.019620000000000002,-0.15696000000000002,9.78057
6363636300,22.35,-0.001064650843716541,-0.004258603374866164,0.0,-0.039240000000000004,-0.17658,9.79038
6368686805,22.35,-0.001064650843716541,-0.008517206749732328,0.0,0.009810000000000001,-0.13734000000000002,9.751140000000001
6373737310,22.35,-0.004258603374866164,-0.004258603374866164,0.0,0.02943,-0.13734000000000002,9.66285
6378787815,22.35,-0.013840460968315033,0.0,0.0,0.039240000000000004,-0.14715,9.60399
6383838320,22.35,-0.023439771854283843,0.002129301687433082,0.0,0.009810000000000001,-0.16677000000000003,9.65304
6388888825,22.35,-0.028763026072866547,0.004258603374866164,0.0,0.0,-0.15696000000000002,9.74133
6393939330,22.35,-0.02982767691658309,-0.003193952531149623,0.0,0.019620000000000002,-0.17658,9.86886
6398989835,22.35,-0.03515093113516579,-0.00958185759344887,0.0,0.0,-0.22563,9.92772
6404040340,22.35,-0.031956978604016174,-0.01811651763570114,0.0,0.02943,-0.23544,9.95715
6409090845,22.35,-0.031956978604016174,-0.01918116847941768,0.0,0.06867000000000001,-0.25506,9.908100000000001
6414141350,22.35,-0.02769837522915001,-0.01064650843716541,0.0,0.10791,-0.2943,9.81
6419191855,22.35,-0.028763026072866547,0.001064650843716541,0.0,0.10791,-0.28449,9.73152
6424242360,22.35,-0.02663372438543347,0.006387905062299246,0.0,0.11772,-0.28449,9.74133
6429292865,22.35,-0.02769837522915001,0.013840460968315033,0.0,0.07848000000000001,-0.30411,9.81
6434343370,22.35,-0.02769837522915001,0.013840460968315033,0.0,0.04905,-0.2943,9.87867
6439393875,22.35,-0.022375121010567305,0.003193952531149623,0.0,0.009810000000000001,-0.30411,9.94734
6444444380,22.35,-0.013840460968315033,-0.003193952531149623,0.0,0.0,-0.30411,9.97677
6449494885,22.35,-0.00958185759344887,-0.003193952531149623,0.0,0.02943,-0.26487,9.87867
6454545390,22.35,-0.001064650843716541,0.0,0.0,0.02943,-0.27468000000000004,9.751140000000001
6459595895,22.35,0.002129301687433082,0.005323254218582705,0.0,0.05886,-0.27468000000000004,9.68247
6464646400,22.35,-0.002129301687433082,0.00958185759344887,0.0,0.05886,-0.21582,9.65304
6469696905,22.35,-0.007452555906015787,0.011711159280881954,0.0,0.02943,-0.20601000000000003,9.70209
6474747410,22.35,-0.00958185759344887,0.00958185759344887,0.0,-0.019620000000000002,-0.1962,9.79038
6479797915,22.35,-0.013840460968315033,-0.001064650843716541,0.0,-0.02943,-0.20601000000000003,9.87867
6484848420,22.35,-0.012775810124598492,-0.014905111812031574,0.0,0.0,-0.20601000000000003,9.937529999999999
6489898925,22.35,-0.012775810124598492,-0.01811651763570114,0.0,0.009810000000000001,-0.1962,9.908100000000001
6494949430,22.35,-0.00958185759344887,-0.011711159280881954,0.0,0.06867000000000001,-0.20601000000000003,9.760950000000001
6499999935,22.35,-0.014905111812031574,-0.002129301687433082,0.0,0.0981,-0.20601000000000003,9.623610000000001
6505050440,22.35,-0.020245819323134222,0.005323254218582705,0.0,0.10791,-0.1962,9.60399
6510100945,22.35,-0.02556907354171693,0.014905111812031574,0.0,0.08829,-0.20601000000000003,9.66285
6515151450,22.35,-0.031956978604016174,0.011711159280881954,0.0,0.019620000000000002,-0.21582,9.79038
6520201955,22.35,-0.03089232776029963,0.0,0.0,0.009810000000000001,-0.24525000000000002,9.908100000000001
6525252460,22.35,-0.028763026072866547,-0.006387905062299246,0.0,0.009810000000000001,-0.25506,9.96696
6530302965,22.35,-0.023439771854283843,-0.008517206749732328,0.0,0.039240000000000004,-0.26487,9.937529999999999
6535353470,22.35,-0.022375121010567305,-0.002129301687433082,0.0,0.04905,-0.30411,9.84924
6540403975,22.35,-0.021310470166850764,0.0,0.0,0.04905,-0.31392000000000003,9.760950000000001
6545454480,22.35,-0.021310470166850764,0.006387905062299246,0.0,0.07848000000000001,-0.27468000000000004,9.7119
6550504985,22.35,-0.022375121010567305,0.011711159280881954,0.0,0.04905,-0.28449,9.73152
6555555490,22.35,-0.022375121010567305,0.007452555906015787,0.0,0.0,-0.30411,9.85905
6560605995,22.35,-0.01811651763570114,-0.002129301687433082,0.0,-0.009810000000000001,-0.30411,9.98658
6565656500,22.35,-0.020245819323134222,-0.01064650843716541,0.0,0.009810000000000001,-0.30411,10.025820000000001
6570707005,22.35,-0.013840460968315033,-0.014905111812031574,0.0,0.039240000000000004,-0.32373,10.03563
6575757510,22.35,-0.007452555906015787,-0.00958185759344887,0.0,0.08829,-0.33354000000000006,9.92772
6580808015,22.35,-0.01064650843716541,-0.004258603374866164,0.0,0.0981,-0.28449,9.79038
6585858520,22.35,-0.004258603374866164,0.006387905062299246,0.0,0.0981,-0.26487,9.66285
6590909025,22.35,-0.006387905062299246,0.012775810124598492,0.0,0.08829,-0.26487,9.6138
6595959530,22.35,-0.005323254218582705,0.008517206749732328,0.0,0.04905,-0.23544,9.67266
6601010035,22.35,-0.001064650843716541,0.006387905062299246,0.0,0.039240000000000004,-0.21582,9.751140000000001
6606060540,22.35,0.0,0.0,0.0,0.019620000000000002,-0.22563,9.83943
6611111045,22.35,-0.005323254218582705,0.001064650843716541,0.0,0.019620000000000002,-0.20601000000000003,9.82962
6616161550,22.35,-0.007452555906015787,0.005323254218582705,0.0,0.0,-0.20601000000000003,9.770760000000001
6621212055,22.35,-0.012775810124598492,0.008517206749732328,0.0,0.019620000000000002,-0.21582,9.64323
6626262560,22.35,-0.014905111812031574,0.005323254218582705,0.0,0.0,-0.20601000000000003,9.56475
6631313065,22.35,-0.020245819323134222,0.001064650843716541,0.0,0.009810000000000001,-0.20601000000000003,9.58437
6636363570,22.35,-0.020245819323134222,0.001064650843716541,0.0,0.0,-0.18639,9.68247
6641414075,22.35,-0.015987215948268057,-0.007452555906015787,0.0,-0.019620000000000002,-0.1962,9.770760000000001
6646464580,22.35,-0.021310470166850764,-0.011711159280881954,0.0,0.02943,-0.23544,9.83943
6651515085,22.35,-0.02663372438543347,-0.01064650843716541,0.0,0.0,-0.23544,9.89829
6656565590,22.35,-0.033021629447732716,-0.005323254218582705,0.0,0.05886,-0.28449,9.888480000000001
6661616095,22.35,-0.03515093113516579,0.001064650843716541,0.0,0.04905,-0.30411,9.84924
6666666600,22.35,-0.03515093113516579,0.002129301687433082,0.0,0.05886,-0.31392000000000003,9.82962
6671717105,22.35,-0.03621558197888234,0.0,0.0,0.05886,-0.32373,9.888480000000001
6676767610,22.35,-0.03089232776029963,-0.003193952531149623,0.0,0.08829,-0.34335000000000004,9.908100000000001
6681818115,22.35,-0.022375121010567305,-0.008517206749732328,0.0,0.08829,-0.35316,9.92772
6686868620,22.35,-0.01811651763570114,-0.007452555906015787,0.0,0.0981,-0.33354000000000006,9.95715
6691919125,22.35,-0.015987215948268057,0.002129301687433082,0.0,0.11772,-0.34335000000000004,9.87867
6696969630,22.35,-0.00958185759344887,0.007452555906015787,0.0,0.05886,-0.33354000000000006,9.83943
6702020135,22.35,-0.006387905062299246,0.014905111812031574,0.0,0.06867000000000001,-0.31392000000000003,9.770760000000001
6707070640,22.35,-0.005323254218582705,0.014905111812031574,0.0,0.039240000000000004,-0.31392000000000003,9.74133
6712121145,22.35,-0.003193952531149623,0.015987215948268057,0.0,0.019620000000000002,-0.2943,9.751140000000001
6717171650,22.35,-0.001064650843716541,0.01064650843716541,0.0,-0.019620000000000002,-0.27468000000000004,9.81
6722222155,22.35,-0.001064650843716541,-0.001064650843716541,0.0,-0.02943,-0.25506,9.84924
6727272660,22.35,0.0,-0.008517206749732328,0.0,-0.009810000000000001,-0.25506,9.819809999999999
6732323165,22.35,0.0,-0.01064650843716541,0.0,0.009810000000000001,-0.23544,9.770760000000001
6737373670,22.35,0.002129301687433082,-0.007452555906015787,0.0,0.04905,-0.1962,9.66285
6742424175,22.35,-0.004258603374866164,0.001064650843716541,0.0,0.04905,-0.20601000000000003,9.623610000000001
6747474680,22.35,-0.01064650843716541,0.002129301687433082,0.0,0.08829,-0.1962,9.6138
6752525185,22.35,-0.011711159280881954,0.003193952531149623,0.0,0.04905,-0.18639,9.67266
6757575690,22.35,-0.01918116847941768,0.001064650843716541,0.0,0.0,-0.20601000000000003,9.79038
6762626195,22.35,-0.02769837522915001,-0.002129301687433082,0.0,-0.009810000000000001,-0.24525000000000002,9.87867
6767676700,22.35,-0.02663372438543347,-0.008517206749732328,0.0,0.039240000000000004,-0.27468000000000004,9.94734
6772727205,22.35,-0.02982767691658309,-0.011711159280881954,0.0,0.02943,-0.2943,9.92772
6777777710,22.35,-0.03515093113516579,-0.008517206749732328,0.0,0.07848000000000001,-0.2943,9.81
6782828215,22.35,-0.02769837522915001,-0.005323254218582705,0.0,0.12753,-0.31392000000000003,9.751140000000001
6787878720,22.35,-0.024504422698000388,0.006387905062299246,0.0,0.12753,-0.35316,9.69228
6792929225,22.35,-0.02663372438543347,0.013840460968315033,0.0,0.06867000000000001,-0.34335000000000004,9.70209
6797979730,22.35,-0.022375121010567305,0.013840460968315033,0.0,0.05886,-0.34335000000000004,9.78057
6803030235,22.35,-0.021310470166850764,0.00958185759344887,0.0,0.009810000000000001,-0.34335000000000004,9.89829
6808080740,22.35,-0.0170518667919846,0.003193952531149623,0.0,0.009810000000000001,-0.36297,9.96696
6813131245,22.35,-0.014905111812031574,-0.002129301687433082,0.0,0.0,-0.36297,9.99639
6818181750,22.35,-0.00958185759344887,-0.004258603374866164,0.0,0.019620000000000002,-0.37278,9.94734
6823232255,22.35,-0.007452555906015787,-0.002129301687433082,0.0,0.009810000000000001,-0.33354000000000006,9.83943
6828282760,22.35,-0.01064650843716541,-0.001064650843716541,0.0,0.06867000000000001,-0.31392000000000003,9.78057
6833333265,22.35,-0.007452555906015787,-0.002129301687433082,0.0,0.04905,-0.30411,9.760950000000001
6838383770,22.35,-0.005323254218582705,-0.001064650843716541,0.0,0.04905,-0.2943,9.78057
6843434275,22.35,0.0,-0.001064650843716541,0.0,0.05886,-0.26487,9.82962
6848484780,22.35,0.0,0.0,0.0,0.06867000000000001,-0.27468000000000004,9.84924
6853535285,22.35,0.0,0.0,0.0,0.05886,-0.24525000000000002,9.84924
6858585790,22.35,-0.001064650843716541,0.0,0.0,0.05886,-0.25506,9.80019
6863636295,22.35,-0.005323254218582705,0.002129301687433082,0.0,0.02943,-0.28449,9.78057
6868686800,22.35,-0.011711159280881954,0.002129301687433082,0.0,0.039240000000000004,-0.28449,9.74133
6873737305,22.35,-0.0170518667919846,0.003193952531149623,0.0,0.02943,-0.27468000000000004,9.78057
6878787810,22.35,-0.015987215948268057,0.001064650843716541,0.0,0.019620000000000002,-0.26487,9.82962
6883838315,22.35,-0.0170518667919846,-0.004258603374866164,0.0,0.019620000000000002,-0.28449,9.85905
6888888820,22.35,-0.015987215948268057,-0.003193952531149623,0.0,0.019620000000000002,-0.30411,9.87867
6893939325,22.35,-0.013840460968315033,-0.001064650843716541,0.0,0.009810000000000001,-0.30411,9.80019
6898989830,22.35,-0.012775810124598492,0.005323254218582705,0.0,0.05886,-0.31392000000000003,9.70209
6904040335,22.35,-0.013840460968315033,0.005323254218582705,0.0,0.02943,-0.2943,9.6138
6909090840,22.35,-0.012775810124598492,0.005323254218582705,0.0,0.039240000000000004,-0.30411,9.60399
6914141345,22.35,-0.011711159280881954,0.006387905062299246,0.0,0.04905,-0.2943,9.6138
6919191850,22.35,-0.00958185759344887,0.003193952531149623,0.0,0.009810000000000001,-0.2943,9.74133
6924242355,22.35,-0.012775810124598492,-0.002129301687433082,0.0,0.039240000000000004,-0.28449,9.83943
6929292860,22.35,-0.015987215948268057,-0.003193952531149623,0.0,0.009810000000000001,-0.30411,9.91791
6934343365,22.35,-0.015987215948268057,-0.006387905062299246,0.0,0.0,-0.30411,9.908100000000001
6939393870,22.35,-0.012775810124598492,-0.008517206749732328,0.0,0.019620000000000002,-0.31392000000000003,9.83943
6944444375,22.35,-0.01918116847941768,-0.001064650843716541,0.0,0.02943,-0.31392000000000003,9.81
6949494880,22.35,-0.01811651763570114,0.0,0.0,0.04905,-0.33354000000000006,9.751140000000001
6954545385,22.35,-0.0170518667919846,0.0,0.0,0.06867000000000001,-0.32373,9.770760000000001
6959595890,22.35,-0.0170518667919846,-0.004258603374866164,0.0,0.05886,-0.30411,9.81
6964646395,22.35,-0.012775810124598492,-0.002129301687433082,0.0,0.06867000000000001,-0.32373,9.819809999999999
6969696900,22.35,-0.0170518667919846,-0.002129301687433082,0.0,0.07848000000000001,-0.32373,9.87867
6974747405,22.35,-0.01064650843716541,0.0,0.0,0.08829,-0.33354000000000006,9.888480000000001
6979797910,22.35,-0.012775810124598492,0.001064650843716541,0.0,0.06867000000000001,-0.33354000000000006,9.87867
6984848415,22.35,-0.011711159280881954,0.005323254218582705,0.0,0.07848000000000001,-0.34335000000000004,9.81
6989898920,22.35,-0.01064650843716541,0.008517206749732328,0.0,0.04905,-0.31392000000000003,9.79038
6994949425,22.35,-0.013840460968315033,0.008517206749732328,0.0,0.039240000000000004,-0.32373,9.819809999999999
6999999930,22.35,-0.012775810124598492,0.002129301687433082,0.0,0.009810000000000001,-0.33354000000000006,9.888480000000001
7005050435,22.35,-0.011711159280881954,-0.001064650843716541,0.0,0.0,-0.33354000000000006,9.95715
7010100940,22.35,-0.008517206749732328,-0.006387905062299246,0.0,0.02943,-0.36297,9.92772
7015151445,22.35,-0.00958185759344887,-0.01064650843716541,0.0,0.019620000000000002,-0.35316,9.83943
7020201950,22.35,-0.004258603374866164,-0.005323254218582705,0.0,0.06867000000000001,-0.31392000000000003,9.760950000000001
7025252455,22.35,-0.003193952531149623,-0.001064650843716541,0.0,0.0981,-0.32373,9.65304
7030302960,22.35,-0.002129301687433082,0.008517206749732328,0.0,0.0981,-0.32373,9.58437
7035353465,22.35,-0.005323254218582705,0.008517206749732328,0.0,0.06867000000000001,-0.2943,9.60399
7040403970,22.35,-0.001064650843716541,0.007452555906015787,0.0,0.02943,-0.27468000000000004,9.70209
7045454475,22.35,-0.003193952531149623,0.003193952531149623,0.0,0.02943,-0.26487,9.79038
7050504980,22.35,-0.008517206749732328,0.003193952531149623,0.0,0.0,-0.26487,9.82962
7055555485,22.35,-0.008517206749732328,-0.003193952531149623,0.0,0.0,-0.28449,9.85905
7060605990,22.35,-0.014905111812031574,-0.004258603374866164,0.0,0.02943,-0.26487,9.80019
7065656495,22.35,-0.015987215948268057,-0.001064650843716541,0.0,0.0,-0.27468000000000004,9.751140000000001
7070707000,22.35,-0.021310470166850764,0.001064650843716541,0.0,0.02943,-0.27468000000000004,9.73152
7075757505,22.35,-0.022375121010567305,-0.002129301687433082,0.0,0.04905,-0.2943,9.770760000000001
7080808010,22.35,-0.01918116847941768,-0.002129301687433082,0.0,0.05886,-0.32373,9.819809999999999
7085858515,22.35,-0.020245819323134222,-0.007452555906015787,0.0,0.04905,-0.33354000000000006,9.84924
7090909020,22.35,-0.020245819323134222,-0.008517206749732328,0.0,0.04905,-0.3924,9.888480000000001
7095959525,22.35,-0.01811651763570114,-0.006387905062299246,0.0,0.05886,-0.35316,9.84924
7101010030,22.35,-0.015987215948268057,0.0,0.0,0.08829,-0.37278,9.80019
7106060535,22.35,-0.015987215948268057,0.004258603374866164,0.0,0.08829,-0.36297,9.74133
7111111040,22.35,-0.00958185759344887,0.007452555906015787,0.0,0.07848000000000001,-0.34335000000000004,9.7119
7116161545,22.35,-0.005323254218582705,0.008517206749732328,0.0,0.05886,-0.34335000000000004,9.760950000000001
7121212050,22.35,-0.003193952531149623,0.003193952531149623,0.0,0.039240000000000004,-0.33354000000000006,9.85905
7126262555,22.35,-0.00958185759344887,0.006387905062299246,0.0,0.02943,-0.34335000000000004,9.937529999999999
7131313060,22.35,-0.00958185759344887,0.002129301687433082,0.0,0.0,-0.35316,9.96696
7136363565,22.35,-0.00958185759344887,0.0,0.0,-0.009810000000000001,-0.37278,9.94734
7141414070,22.35,-0.007452555906015787,-0.004258603374866164,0.0,0.019620000000000002,-0.34335000000000004,9.86886
7146464575,22.35,-0.007452555906015787,-0.003193952531149623,0.0,0.02943,-0.35316,9.819809999999999
7151515080,22.35,-0.006387905062299246,-0.005323254218582705,0.0,0.07848000000000001,-0.33354000000000006,9.760950000000001
7156565585,22.35,-0.004258603374866164,-0.005323254218582705,0.0,0.06867000000000001,-0.34335000000000004,9.751140000000001
7161616090,22.35,-0.003193952531149623,-0.002129301687433082,0.0,0.06867000000000001,-0.32373,9.751140000000001
7166666595,22.35,-0.005323254218582705,0.0,0.0,0.07848000000000001,-0.30411,9.78057
7171717100,22.35,-0.002129301687433082,0.003193952531149623,0.0,0.07848000000000001,-0.31392000000000003,9.770760000000001
7176767605,22.35,-0.001064650843716541,0.001064650843716541,0.0,0.06867000000000001,-0.32373,9.751140000000001
7181818110,22.35,-0.003193952531149623,0.005323254218582705,0.0,0.02943,-0.31392000000000003,9.7119
7186868615,22.35,-0.002129301687433082,0.00958185759344887,0.0,0.04905,-0.2943,9.68247
7191919120,22.35,-0.006387905062299246,0.006387905062299246,0.0,0.0,-0.27468000000000004,9.66285
7196969625,22.35,-0.00958185759344887,0.003193952531149623,0.0,0.019620000000000002,-0.26487,9.70209
7202020130,22.35,-0.01064650843716541,0.006387905062299246,0.0,-0.009810000000000001,-0.26487,9.78057
7207070635,22.35,-0.014905111812031574,0.0,0.0,-0.009810000000000001,-0.30411,9.86886
7212121140,22.35,-0.01918116847941768,-0.001064650843716541,0.0,0.0,-0.32373,9.89829
7217171645,22.35,-0.020245819323134222,-0.007452555906015787,0.0,0.0,-0.32373,9.908100000000001
7222222150,22.35,-0.020245819323134222,-0.004258603374866164,0.0,0.0,-0.35316,9.908100000000001
7227272655,22.35,-0.021310470166850764,-0.00958185759344887,0.0,0.02943,-0.37278,9.87867
7232323160,22.35,-0.021310470166850764,-0.008517206749732328,0.0,0.039240000000000004,-0.3924,9.84924
7237373665,22.35,-0.015987215948268057,-0.006387905062299246,0.0,0.10791,-0.40221,9.82962
7242424170,22.35,-0.01918116847941768,-0.003193952531149623,0.0,0.0981,-0.41202000000000005,9.85905
7247474675,22.35,-0.012775810124598492,-0.001064650843716541,0.0,0.0981,-0.41202000000000005,9.888480000000001
7252525180,22.35,-0.00958185759344887,0.001064650843716541,0.0,0.12753,-0.3924,9.85905
7257575685,22.35,-0.002129301687433082,0.006387905062299246,0.0,0.0981,-0.3924,9.85905
7262626190,22.35,0.003193952531149623,0.005323254218582705,0.0,0.08829,-0.38259000000000004,9.78057
7267676695,22.35,0.006387905062299246,0.00958185759344887,0.0,0.08829,-0.35316,9.72171
7272727200,22.35,0.008517206749732328,0.013840460968315033,0.0,0.039240000000000004,-0.33354000000000006,9.69228
7277777705,22.35,0.004258603374866164,0.012775810124598492,0.0,0.0,-0.30411,9.69228
7282828210,22.35,0.004258603374866164,0.011711159280881954,0.0,-0.009810000000000001,-0.30411,9.770760000000001
7287878715,22.35,0.002129301687433082,0.005323254218582705,0.0,-0.02943,-0.28449,9.84924
7292929220,22.35,0.002129301687433082,-0.003193952531149623,0.0,-0.02943,-0.2943,9.87867
7297979725,22.35,-0.005323254218582705,-0.004258603374866164,0.0,-0.039240000000000004,-0.27468000000000004,9.888480000000001
7303030230,22.35,-0.002129301687433082,-0.011711159280881954,0.0,0.0,-0.2943,9.819809999999999
7308080735,22.35,-0.008517206749732328,-0.00958185759344887,0.0,0.039240000000000004,-0.30411,9.81
7313131240,22.35,-0.01064650843716541,-0.01064650843716541,0.0,0.04905,-0.31392000000000003,9.78057
7318181745,22.35,-0.015987215948268057,-0.007452555906015787,0.0,0.08829,-0.32373,9.78057
7323232250,22.35,-0.013840460968315033,-0.004258603374866164,0.0,0.0981,-0.36297,9.81
7328282755,22.35,-0.015987215948268057,-0.004258603374866164,0.0,0.11772,-0.36297,9.86886
7333333260,22.35,-0.0170518667919846,-0.005323254218582705,0.0,0.08829,-0.3924,9.86886
7338383765,22.35,-0.014905111812031574,0.001064650843716541,0.0,0.06867000000000001,-0.40221,9.86886
7343434270,22.35,-0.01064650843716541,0.004258603374866164,0.0,0.0981,-0.41202000000000005,9.80019
7348484775,22.35,-0.006387905062299246,0.006387905062299246,0.0,0.04905,-0.41202000000000005,9.70209
7353535280,22.35,-0.005323254218582705,0.01064650843716541,0.0,0.05886,-0.37278,9.67266
7358585785,22.35,-0.001064650843716541,0.014905111812031574,0.0,0.04905,-0.38259000000000004,9.68247
7363636290,22.35,0.0,0.011711159280881954,0.0,0.009810000000000001,-0.35316,9.68247
7368686795,22.35,0.005323254218582705,0.007452555906015787,0.0,0.0,-0.31392000000000003,9.70209
7373737300,22.35,0.002129301687433082,0.007452555906015787,0.0,-0.02943,-0.30411,9.72171
7378787805,22.35,0.003193952531149623,0.001064650843716541,0.0,0.0,-0.33354000000000006,9.751140000000001
7383838310,22.35,0.002129301687433082,-0.003193952531149623,0.0,-0.019620000000000002,-0.2943,9.7119
7388888815,22.35,0.0,-0.005323254218582705,0.0,-0.009810000000000001,-0.28449,9.7119
7393939320,22.35,0.001064650843716541,-0.00958185759344887,0.0,0.0,-0.24525000000000002,9.68247
7398989825,22.35,-0.006387905062299246,-0.006387905062299246,0.0,0.009810000000000001,-0.27468000000000004,9.73152
7404040330,22.35,-0.013840460968315033,-0.01064650843716541,0.0,0.02943,-0.30411,9.79038
7409090835,22.35,-0.014905111812031574,-0.01064650843716541,0.0,0.05886,-0.27468000000000004,9.86886
7414141340,22.35,-0.020245819323134222,-0.00958185759344887,0.0,0.04905,-0.33354000000000006,9.96696
7419191845,22.35,-0.02556907354171693,-0.008517206749732328,0.0,0.05886,-0.36297,9.96696
7424242350,22.35,-0.02556907354171693,-0.007452555906015787,0.0,0.0981,-0.3924,9.95715
7429292855,22.35,-0.024504422698000388,-0.003193952531149623,0.0,0.10791,-0.42183,9.89829
7434343360,22.35,-0.023439771854283843,0.0,0.0,0.12753,-0.42183,9.87867
7439393865,22.35,-0.022375121010567305,0.006387905062299246,0.0,0.10791,-0.44145,9.87867
7444444370,22.35,-0.01918116847941768,0.00958185759344887,0.0,0.10791,-0.45126,9.87867
7449494875,22.35,-0.013840460968315033,0.012775810124598492,0.0,0.05886,-0.46107000000000004,9.87867
7454545380,22.35,-0.007452555906015787,0.01064650843716541,0.0,0.019620000000000002,-0.42183,9.85905
7459595885,22.35,-0.001064650843716541,0.00958185759344887,0.0,0.039240000000000004,-0.43164,9.82962
7464646390,22.35,0.005323254218582705,0.006387905062299246,0.0,0.0,-0.3924,9.760950000000001
7469696895,22.35,0.01064650843716541,0.005323254218582705,0.0,0.009810000000000001,-0.38259000000000004,9.66285
7474747400,22.35,0.014905111812031574,0.005323254218582705,0.0,0.0,-0.34335000000000004,9.60399
7479797905,22.35,0.013840460968315033,0.003193952531149623,0.0,0.009810000000000001,-0.30411,9.59418
7484848410,22.35,0.011711159280881954,-0.001064650843716541,0.0,-0.009810000000000001,-0.28449,9.60399
7489898915,22.35,0.012775810124598492,-0.002129301687433082,0.0,0.0,-0.26487,9.67266
7494949420,22.35,0.01064650843716541,-0.005323254218582705,0.0,-0.009810000000000001,-0.22563,9.7119
7499999925,22.35,0.002129301687433082,-0.005323254218582705,0.0,0.0,-0.23544,9.760950000000001
7505050430,22.35,-0.002129301687433082,-0.006387905062299246,0.0,0.019620000000000002,-0.23544,9.770760000000001
7510100935,22.35,-0.011711159280881954,-0.004258603374866164,0.0,0.019620000000000002,-0.22563,9.770760000000001
7515151440,22.35,-0.01918116847941768,-0.004258603374866164,0.0,0.02943,-0.26487,9.760950000000001
7520201945,22.35,-0.02556907354171693,-0.006387905062299246,0.0,0.06867000000000001,-0.27468000000000004,9.80019
7525252450,22.35,-0.028763026072866547,-0.008517206749732328,0.0,0.0981,-0.34335000000000004,9.85905
7530302955,22.35,-0.031956978604016174,-0.00958185759344887,0.0,0.08829,-0.38259000000000004,9.92772
7535353460,22.35,-0.03408628029144926,-0.006387905062299246,0.0,0.07848000000000001,-0.41202000000000005,9.98658
7540403965,22.35,-0.031956978604016174,-0.003193952531149623,0.0,0.0981,-0.45126,10.006200000000002
7545454470,22.35,-0.03515093113516579,0.001064650843716541,0.0,0.0981,-0.47088,9.98658
7550504975,22.35,-0.02663372438543347,0.006387905062299246,0.0,0.08829,-0.48069000000000006,9.94734
7555555480,22.35,-0.023439771854283843,0.00958185759344887,0.0,0.06867000000000001,-0.50031,9.89829
7560605985,22.35,-0.01064650843716541,0.008517206749732328,0.0,0.07848000000000001,-0.50031,9.819809999999999
