#timestamp [ns], temperature [degC], w_RS_S_x [rad s^-1], w_RS_S_y [rad s^-1], w_RS_S_z [rad s^-1], a_RS_S_x [m s^-2], a_RS_S_y [m s^-2], a_RS_S_z [m s^-2]
0,22.35,0.0,0.0,0.0,-0.30411,-0.25506,9.819809999999999
5050505,22.35,0.0,0.0,0.0,-0.28449,-0.25506,9.82962
10101010,22.35,0.0,0.0,0.0,-0.30411,-0.26487,9.82962
15151515,22.35,0.0,0.0,0.0,-0.31392000000000003,-0.24525000000000002,9.82962
20202020,22.35,0.0,0.0,0.0,-0.30411,-0.26487,9.84924
25252525,22.35,0.0,0.0,0.0,-0.30411,-0.22563,9.85905
30303030,22.35,0.0,0.0,0.0,-0.28449,-0.24525000000000002,9.819809999999999
35353535,22.35,0.0,0.0,0.0,-0.33354000000000006,-0.23544,9.81
40404040,22.35,0.0,0.0,0.0,-0.30411,-0.26487,9.82962
45454545,22.35,0.0,0.0,0.0,-0.31392000000000003,-0.23544,9.83943
50505050,22.35,0.0,0.0,0.0,-0.30411,-0.25506,9.82962
55555555,22.35,0.0,0.0,0.0,-0.30411,-0.25506,9.83943
60606060,22.35,0.0,0.0,0.0,-0.2943,-0.25506,9.82962
65656565,22.35,0.0,0.0,0.0,-0.2943,-0.26487,9.81
70707070,22.35,0.0,0.0,0.0,-0.2943,-0.24525000000000002,9.81
75757575,22.35,0.0,0.0,0.0,-0.31392000000000003,-0.25506,9.819809999999999
80808080,22.35,0.0,0.0,0.0,-0.28449,-0.26487,9.83943
85858585,22.35,0.0,0.0,0.0,-0.30411,-0.22563,9.84924
90909090,22.35,0.0,0.0,0.0,-0.2943,-0.27468000000000004,9.82962
95959595,22.35,0.0,0.0,0.0,-0.2943,-0.25506,9.82962
101010100,22.35,0.0,0.0,0.0,-0.2943,-0.26487,9.82962
106060605,22.35,0.0,0.0,0.0,-0.30411,-0.24525000000000002,9.81
111111110,22.35,0.0,0.0,0.0,-0.27468000000000004,-0.24525000000000002,9.819809999999999
116161615,22.35,0.0,0.0,0.0,-0.30411,-0.27468000000000004,9.81
121212120,22.35,0.0,0.0,0.0,-0.30411,-0.26487,9.82962
126262625,22.35,0.0,0.0,0.0,-0.30411,-0.23544,9.82962
131313130,22.35,0.0,0.0,0.0,-0.26487,-0.23544,9.819809999999999
136363635,22.35,0.0,0.0,0.0,-0.30411,-0.25506,9.819809999999999
141414140,22.35,0.0,0.0,0.0,-0.28449,-0.24525000000000002,9.82962
146464645,22.35,0.0,0.0,0.0,-0.31392000000000003,-0.24525000000000002,9.82962
151515150,22.35,0.0,0.0,0.0,-0.28449,-0.26487,9.83943
156565655,22.35,0.0,0.0,0.0,-0.2943,-0.26487,9.81
161616160,22.35,0.0,0.0,0.0,-0.30411,-0.25506,9.82962
166666665,22.35,0.0,0.0,0.0,-0.30411,-0.26487,9.83943
171717170,22.35,0.0,0.0,0.0,-0.30411,-0.25506,9.84924
176767675,22.35,0.0,0.0,0.0,-0.30411,-0.25506,9.82962
181818180,22.35,0.0,0.0,0.0,-0.31392000000000003,-0.24525000000000002,9.83943
186868685,22.35,0.0,0.0,0.0,-0.28449,-0.27468000000000004,9.83943
191919190,22.35,0.0,0.0,0.0,-0.2943,-0.25506,9.81
196969695,22.35,0.0,0.0,0.0,-0.30411,-0.25506,9.83943
202020200,22.35,0.0,0.0,0.0,-0.30411,-0.22563,9.83943
207070705,22.35,0.0,0.0,0.0,-0.32373,-0.26487,9.79038
212121210,22.35,0.0,0.0,0.0,-0.28449,-0.28449,9.83943
217171715,22.35,0.0,0.0,0.0,-0.32373,-0.24525000000000002,9.82962
222222220,22.35,0.0,0.0,0.0,-0.2943,-0.26487,9.83943
227272725,22.35,0.0,0.0,0.0,-0.2943,-0.26487,9.82962
232323230,22.35,0.0,0.0,0.0,-0.2943,-0.22563,9.82962
237373735,22.35,0.0,0.0,0.0,-0.2943,-0.26487,9.82962
242424240,22.35,0.0,0.0,0.0,-0.30411,-0.25506,9.85905
247474745,22.35,0.0,0.0,0.0,-0.30411,-0.25506,9.819809999999999
252525250,22.35,0.0,0.0,0.0,-0.31392000000000003,-0.23544,9.83943
257575755,22.35,0.0,0.0,0.0,-0.28449,-0.24525000000000002,9.83943
262626260,22.35,0.0,0.0,0.0,-0.31392000000000003,-0.23544,9.82962
267676765,22.35,0.0,0.0,0.0,-0.31392000000000003,-0.24525000000000002,9.819809999999999
272727270,22.35,0.0,0.0,0.0,-0.30411,-0.24525000000000002,9.83943
277777775,22.35,0.0,0.0,0.0,-0.28449,-0.25506,9.85905
282828280,22.35,0.0,0.0,0.0,-0.31392000000000003,-0.26487,9.83943
287878785,22.35,0.0,0.0,0.0,-0.28449,-0.26487,9.819809999999999
292929290,22.35,0.0,0.0,0.0,-0.2943,-0.28449,9.82962
297979795,22.35,0.0,0.0,0.0,-0.31392000000000003,-0.25506,9.819809999999999
303030300,22.35,0.0,0.0,0.0,-0.2943,-0.22563,9.81
308080805,22.35,0.0,0.0,0.0,-0.30411,-0.27468000000000004,9.82962
313131310,22.35,0.0,0.0,0.0,-0.31392000000000003,-0.26487,9.819809999999999
318181815,22.35,0.0,0.0,0.0,-0.28449,-0.22563,9.83943
323232320,22.35,0.0,0.0,0.0,-0.28449,-0.24525000000000002,9.83943
328282825,22.35,0.0,0.0,0.0,-0.30411,-0.22563,9.80019
333333330,22.35,0.0,0.0,0.0,-0.30411,-0.25506,9.83943
338383835,22.35,0.0,0.0,0.0,-0.27468000000000004,-0.26487,9.82962
343434340,22.35,0.0,0.0,0.0,-0.31392000000000003,-0.25506,9.819809999999999
348484845,22.35,0.0,0.0,0.0,-0.27468000000000004,-0.25506,9.83943
353535350,22.35,0.0,0.0,0.0,-0.2943,-0.24525000000000002,9.82962
358585855,22.35,0.0,0.0,0.0,-0.30411,-0.27468000000000004,9.84924
363636360,22.35,0.0,0.0,0.0,-0.31392000000000003,-0.25506,9.82962
368686865,22.35,0.0,0.0,0.0,-0.2943,-0.23544,9.83943
373737370,22.35,0.0,0.0,0.0,-0.30411,-0.26487,9.82962
378787875,22.35,0.0,0.0,0.0,-0.35316,-0.24525000000000002,9.83943
383838380,22.35,0.0,0.0,0.0,-0.2943,-0.24525000000000002,9.83943
388888885,22.35,0.0,0.0,0.0,-0.28449,-0.26487,9.819809999999999
393939390,22.35,0.0,0.0,0.0,-0.30411,-0.27468000000000004,9.82962
398989895,22.35,0.0,0.0,0.0,-0.30411,-0.24525000000000002,9.83943
404040400,22.35,0.0,0.0,0.0,-0.28449,-0.25506,9.819809999999999
409090905,22.35,0.0,0.0,0.0,-0.30411,-0.25506,9.83943
414141410,22.35,0.0,0.0,0.0,-0.2943,-0.22563,9.819809999999999
419191915,22.35,0.0,0.0,0.0,-0.27468000000000004,-0.24525000000000002,9.82962
424242420,22.35,0.0,0.0,0.0,-0.28449,-0.26487,9.83943
429292925,22.35,0.0,0.0,0.0,-0.2943,-0.25506,9.83943
434343430,22.35,0.0,0.0,0.0,-0.2943,-0.27468000000000004,9.83943
439393935,22.35,0.0,0.0,0.0,-0.27468000000000004,-0.23544,9.82962
444444440,22.35,0.0,0.0,0.0,-0.30411,-0.26487,9.83943
449494945,22.35,0.0,0.0,0.0,-0.30411,-0.24525000000000002,9.85905
454545450,22.35,0.0,0.0,0.0,-0.26487,-0.26487,9.819809999999999
459595955,22.35,0.0,0.0,0.0,-0.32373,-0.26487,9.819809999999999
464646460,22.35,0.0,0.0,0.0,-0.2943,-0.25506,9.82962
469696965,22.35,0.0,0.0,0.0,-0.32373,-0.24525000000000002,9.819809999999999
474747470,22.35,0.0,0.0,0.0,-0.28449,-0.24525000000000002,9.81
479797975,22.35,0.0,0.0,0.0,-0.2943,-0.26487,9.819809999999999
484848480,22.35,0.0,0.0,0.0,-0.2943,-0.24525000000000002,9.81
489898985,22.35,0.0,0.0,0.0,-0.30411,-0.25506,9.82962
494949490,22.35,0.0,0.0,0.0,-0.30411,-0.27468000000000004,9.82962
499999995,22.35,0.0,0.0,0.0,-0.2943,-0.26487,9.84924
505050500,22.35,0.0,0.0,0.0,-0.30411,-0.27468000000000004,9.83943
510101005,22.35,0.0,0.0,0.0,-0.2943,-0.24525000000000002,9.81
515151510,22.35,0.0,0.0,0.0,-0.31392000000000003,-0.23544,9.81
520202015,22.35,0.0,0.0,0.0,-0.30411,-0.27468000000000004,9.81
525252520,22.35,0.0,0.0,0.0,-0.27468000000000004,-0.24525000000000002,9.82962
530303025,22.35,0.0,0.0,0.0,-0.33354000000000006,-0.25506,9.81
535353530,22.35,0.0,0.0,0.0,-0.31392000000000003,-0.25506,9.83943
540404035,22.35,0.0,0.0,0.0,-0.32373,-0.24525000000000002,9.82962
545454540,22.35,0.0,0.0,0.0,-0.31392000000000003,-0.23544,9.82962
550505045,22.35,0.0,0.0,0.0,-0.30411,-0.25506,9.81
555555550,22.35,0.0,0.0,0.0,-0.2943,-0.23544,9.819809999999999
560606055,22.35,0.0,0.0,0.0,-0.31392000000000003,-0.26487,9.83943
565656560,22.35,0.0,0.0,0.0,-0.2943,-0.23544,9.82962
570707065,22.35,0.0,0.0,0.0,-0.2943,-0.23544,9.84924
575757570,22.35,0.0,0.0,0.0,-0.27468000000000004,-0.25506,9.819809999999999
580808075,22.35,0.0,0.0,0.0,-0.2943,-0.23544,9.819809999999999
585858580,22.35,0.0,0.0,0.0,-0.30411,-0.28449,9.82962
590909085,22.35,0.0,0.0,0.0,-0.32373,-0.24525000000000002,9.82962
595959590,22.35,0.0,0.0,0.0,-0.28449,-0.23544,9.78057
601010095,22.35,0.0,0.0,0.0,-0.2943,-0.25506,9.82962
606060600,22.35,0.0,0.0,0.0,-0.30411,-0.26487,9.82962
611111105,22.35,0.0,0.0,0.0,-0.28449,-0.26487,9.83943
616161610,22.35,0.0,0.0,0.0,-0.27468000000000004,-0.24525000000000002,9.83943
621212115,22.35,0.0,0.0,0.0,-0.2943,-0.26487,9.81
626262620,22.35,0.0,0.0,0.0,-0.2943,-0.25506,9.83943
631313125,22.35,0.0,0.0,0.0,-0.2943,-0.24525000000000002,9.81
636363630,22.35,0.0,0.0,0.0,-0.27468000000000004,-0.25506,9.819809999999999
641414135,22.35,0.0,0.0,0.0,-0.28449,-0.27468000000000004,9.819809999999999
646464640,22.35,0.0,0.0,0.0,-0.30411,-0.24525000000000002,9.85905
651515145,22.35,0.0,0.0,0.0,-0.2943,-0.25506,9.819809999999999
656565650,22.35,0.0,0.0,0.0,-0.28449,-0.22563,9.82962
661616155,22.35,0.0,0.0,0.0,-0.2943,-0.27468000000000004,9.83943
666666660,22.35,0.0,0.0,0.0,-0.33354000000000006,-0.25506,9.82962
671717165,22.35,0.0,0.0,0.0,-0.28449,-0.25506,9.83943
676767670,22.35,0.0,0.0,0.0,-0.28449,-0.26487,9.82962
681818175,22.35,0.0,0.0,0.0,-0.31392000000000003,-0.23544,9.85905
686868680,22.35,0.0,0.0,0.0,-0.30411,-0.23544,9.81
691919185,22.35,0.0,0.0,0.0,-0.28449,-0.26487,9.82962
696969690,22.35,0.0,0.0,0.0,-0.32373,-0.26487,9.819809999999999
702020195,22.35,0.0,0.0,0.0,-0.30411,-0.24525000000000002,9.82962
707070700,22.35,0.0,0.0,0.0,-0.2943,-0.23544,9.83943
712121205,22.35,0.0,0.0,0.0,-0.30411,-0.25506,9.819809999999999
717171710,22.35,0.0,0.0,0.0,-0.27468000000000004,-0.23544,9.83943
722222215,22.35,0.0,0.0,0.0,-0.32373,-0.28449,9.819809999999999
727272720,22.35,0.0,0.0,0.0,-0.30411,-0.27468000000000004,9.82962
732323225,22.35,0.0,0.0,0.0,-0.30411,-0.26487,9.819809999999999
737373730,22.35,0.0,0.0,0.0,-0.30411,-0.27468000000000004,9.83943
742424235,22.35,0.0,0.0,0.0,-0.27468000000000004,-0.26487,9.81
747474740,22.35,0.0,0.0,0.0,-0.30411,-0.25506,9.84924
752525245,22.35,0.0,0.0,0.0,-0.30411,-0.23544,9.82962
757575750,22.35,0.0,0.0,0.0,-0.28449,-0.26487,9.83943
762626255,22.35,0.0,0.0,0.0,-0.31392000000000003,-0.25506,9.83943
767676760,22.35,0.0,0.0,0.0,-0.32373,-0.25506,9.82962
772727265,22.35,0.0,0.0,0.0,-0.31392000000000003,-0.25506,9.82962
777777770,22.35,0.0,0.0,0.0,-0.32373,-0.23544,9.819809999999999
782828275,22.35,0.0,0.0,0.0,-0.30411,-0.24525000000000002,9.82962
787878780,22.35,0.0,0.0,0.0,-0.30411,-0.28449,9.819809999999999
792929285,22.35,0.0,0.0,0.0,-0.2943,-0.26487,9.82962
797979790,22.35,0.0,0.0,0.0,-0.28449,-0.25506,9.819809999999999
803030295,22.35,0.0,0.0,0.0,-0.28449,-0.25506,9.819809999999999
808080800,22.35,0.0,0.0,0.0,-0.30411,-0.25506,9.82962
813131305,22.35,0.0,0.0,0.0,-0.31392000000000003,-0.25506,9.83943
818181810,22.35,0.0,0.0,0.0,-0.28449,-0.23544,9.82962
823232315,22.35,0.0,0.0,0.0,-0.2943,-0.23544,9.819809999999999
828282820,22.35,0.0,0.0,0.0,-0.28449,-0.24525000000000002,9.83943
833333325,22.35,0.0,0.0,0.0,-0.27468000000000004,-0.26487,9.819809999999999
838383830,22.35,0.0,0.0,0.0,-0.31392000000000003,-0.23544,9.83943
843434335,22.35,0.0,0.0,0.0,-0.28449,-0.28449,9.819809999999999
848484840,22.35,0.0,0.0,0.0,-0.28449,-0.25506,9.84924
853535345,22.35,0.0,0.0,0.0,-0.27468000000000004,-0.25506,9.82962
858585850,22.35,0.0,0.0,0.0,-0.27468000000000004,-0.27468000000000004,9.82962
863636355,22.35,0.0,0.0,0.0,-0.2943,-0.24525000000000002,9.83943
868686860,22.35,0.0,0.0,0.0,-0.2943,-0.27468000000000004,9.82962
873737365,22.35,0.0,0.0,0.0,-0.28449,-0.26487,9.819809999999999
878787870,22.35,0.0,0.0,0.0,-0.26487,-0.24525000000000002,9.819809999999999
883838375,22.35,0.0,0.0,0.0,-0.30411,-0.25506,9.81
888888880,22.35,0.0,0.0,0.0,-0.25506,-0.26487,9.83943
893939385,22.35,0.0,0.0,0.0,-0.31392000000000003,-0.25506,9.83943
898989890,22.35,0.0,0.0,0.0,-0.30411,-0.23544,9.82962
904040395,22.35,0.0,0.0,0.0,-0.27468000000000004,-0.24525000000000002,9.819809999999999
909090900,22.35,0.0,0.0,0.0,-0.30411,-0.24525000000000002,9.819809999999999
914141405,22.35,0.0,0.0,0.0,-0.31392000000000003,-0.24525000000000002,9.83943
919191910,22.35,0.0,0.0,0.0,-0.30411,-0.24525000000000002,9.82962
924242415,22.35,0.0,0.0,0.0,-0.30411,-0.23544,9.82962
929292920,22.35,0.0,0.0,0.0,-0.2943,-0.24525000000000002,9.83943
934343425,22.35,0.0,0.0,0.0,-0.30411,-0.26487,9.81
939393930,22.35,0.0,0.0,0.0,-0.28449,-0.22563,9.82962
944444435,22.35,0.0,0.0,0.0,-0.28449,-0.23544,9.83943
949494940,22.35,0.0,0.0,0.0,-0.30411,-0.24525000000000002,9.82962
954545445,22.35,0.0,0.0,0.0,-0.30411,-0.24525000000000002,9.82962
959595950,22.35,0.0,0.0,0.0,-0.27468000000000004,-0.23544,9.83943
964646455,22.35,0.0,0.0,0.0,-0.30411,-0.24525000000000002,9.83943
969696960,22.35,0.0,0.0,0.0,-0.32373,-0.25506,9.819809999999999
974747465,22.35,0.0,0.0,0.0,-0.30411,-0.24525000000000002,9.84924
979797970,22.35,0.0,0.0,0.0,-0.30411,-0.26487,9.819809999999999
984848475,22.35,0.0,0.0,0.0,-0.30411,-0.25506,9.819809999999999
989898980,22.35,0.0,0.0,0.0,-0.31392000000000003,-0.26487,9.83943
994949485,22.35,0.0,0.0,0.0,-0.31392000000000003,-0.26487,9.83943
999999990,22.35,0.0,0.0,0.0,-0.30411,-0.22563,9.84924
1005050495,22.35,0.0,0.0,0.0,-0.30411,-0.24525000000000002,9.81
1010101000,22.35,0.0,0.0,0.0,-0.2943,-0.26487,9.83943
1015151505,22.35,0.0,0.0,0.0,-0.31392000000000003,-0.24525000000000002,9.81
1020202010,22.35,0.0,0.0,0.0,-0.2943,-0.25506,9.84924
1025252515,22.35,0.0,0.0,0.0,-0.28449,-0.24525000000000002,9.81
1030303020,22.35,0.0,0.0,0.0,-0.28449,-0.25506,9.83943
1035353525,22.35,0.0,0.0,0.0,-0.2943,-0.23544,9.83943
1040404030,22.35,0.0,0.0,0.0,-0.2943,-0.25506,9.83943
1045454535,22.35,0.0,0.0,0.0,-0.30411,-0.26487,9.81
1050505040,22.35,0.0,0.0,0.0,-0.31392000000000003,-0.24525000000000002,9.83943
1055555545,22.35,0.0,0.0,0.0,-0.28449,-0.24525000000000002,9.819809999999999
1060606050,22.35,0.0,0.0,0.0,-0.26487,-0.25506,9.81
1065656555,22.35,0.0,0.0,0.0,-0.31392000000000003,-0.24525000000000002,9.83943
1070707060,22.35,0.0,0.0,0.0,-0.30411,-0.24525000000000002,9.819809999999999
1075757565,22.35,0.0,0.0,0.0,-0.30411,-0.25506,9.819809999999999
1080808070,22.35,0.0,0.0,0.0,-0.2943,-0.26487,9.819809999999999
1085858575,22.35,0.0,0.0,0.0,-0.30411,-0.23544,9.83943
1090909080,22.35,0.0,0.0,0.0,-0.28449,-0.26487,9.83943
1095959585,22.35,0.0,0.0,0.0,-0.30411,-0.25506,9.82962
1101010090,22.35,0.0,0.0,0.0,-0.2943,-0.25506,9.82962
1106060595,22.35,0.0,0.0,0.0,-0.30411,-0.22563,9.83943
1111111100,22.35,0.0,0.0,0.0,-0.27468000000000004,-0.25506,9.82962
1116161605,22.35,0.0,0.0,0.0,-0.28449,-0.25506,9.83943
1121212110,22.35,0.0,0.0,0.0,-0.28449,-0.25506,9.84924
1126262615,22.35,0.0,0.0,0.0,-0.28449,-0.23544,9.819809999999999
1131313120,22.35,0.0,0.0,0.0,-0.31392000000000003,-0.25506,9.819809999999999
1136363625,22.35,0.0,0.0,0.0,-0.2943,-0.25506,9.82962
1141414130,22.35,0.0,0.0,0.0,-0.26487,-0.26487,9.84924
1146464635,22.35,0.0,0.0,0.0,-0.31392000000000003,-0.24525000000000002,9.82962
1151515140,22.35,0.0,0.0,0.0,-0.31392000000000003,-0.21582,9.84924
1156565645,22.35,0.0,0.0,0.0,-0.28449,-0.24525000000000002,9.85905
1161616150,22.35,0.0,0.0,0.0,-0.30411,-0.27468000000000004,9.84924
1166666655,22.35,0.0,0.0,0.0,-0.32373,-0.23544,9.83943
1171717160,22.35,0.0,0.0,0.0,-0.30411,-0.23544,9.81
1176767665,22.35,0.0,0.0,0.0,-0.28449,-0.26487,9.80019
1181818170,22.35,0.0,0.0,0.0,-0.2943,-0.27468000000000004,9.82962
1186868675,22.35,0.0,0.0,0.0,-0.31392000000000003,-0.25506,9.83943
1191919180,22.35,0.0,0.0,0.0,-0.27468000000000004,-0.23544,9.81
1196969685,22.35,0.0,0.0,0.0,-0.32373,-0.27468000000000004,9.83943
1202020190,22.35,0.0,0.0,0.0,-0.31392000000000003,-0.26487,9.84924
1207070695,22.35,0.0,0.0,0.0,-0.27468000000000004,-0.23544,9.82962
1212121200,22.35,0.0,0.0,0.0,-0.27468000000000004,-0.22563,9.82962
1217171705,22.35,0.0,0.0,0.0,-0.30411,-0.27468000000000004,9.819809999999999
1222222210,22.35,0.0,0.0,0.0,-0.30411,-0.22563,9.83943
1227272715,22.35,0.0,0.0,0.0,-0.30411,-0.24525000000000002,9.84924
1232323220,22.35,0.0,0.0,0.0,-0.27468000000000004,-0.28449,9.83943
1237373725,22.35,0.0,0.0,0.0,-0.31392000000000003,-0.26487,9.83943
1242424230,22.35,0.0,0.0,0.0,-0.30411,-0.25506,9.81
1247474735,22.35,0.0,0.0,0.0,-0.2943,-0.22563,9.84924
1252525240,22.35,0.0,0.0,0.0,-0.2943,-0.26487,9.82962
1257575745,22.35,0.0,0.0,0.0,-0.31392000000000003,-0.27468000000000004,9.81
1262626250,22.35,0.0,0.0,0.0,-0.27468000000000004,-0.26487,9.83943
1267676755,22.35,0.0,0.0,0.0,-0.2943,-0.23544,9.83943
1272727260,22.35,0.0,0.0,0.0,-0.26487,-0.25506,9.83943
1277777765,22.35,0.0,0.0,0.0,-0.27468000000000004,-0.28449,9.82962
1282828270,22.35,0.0,0.0,0.0,-0.31392000000000003,-0.24525000000000002,9.82962
1287878775,22.35,0.0,0.0,0.0,-0.2943,-0.22563,9.819809999999999
1292929280,22.35,0.0,0.0,0.0,-0.2943,-0.23544,9.819809999999999
1297979785,22.35,0.0,0.0,0.0,-0.2943,-0.25506,9.82962
1303030290,22.35,0.0,0.0,0.0,-0.30411,-0.24525000000000002,9.85905
1308080795,22.35,0.0,0.0,0.0,-0.30411,-0.22563,9.819809999999999
1313131300,22.35,0.0,0.0,0.0,-0.28449,-0.25506,9.819809999999999
1318181805,22.35,0.0,0.0,0.0,-0.30411,-0.26487,9.819809999999999
1323232310,22.35,0.0,0.0,0.0,-0.31392000000000003,-0.24525000000000002,9.82962
1328282815,22.35,0.0,0.0,0.0,-0.26487,-0.23544,9.82962
1333333320,22.35,0.0,0.0,0.0,-0.2943,-0.26487,9.82962
1338383825,22.35,0.0,0.0,0.0,-0.30411,-0.23544,9.82962
1343434330,22.35,0.0,0.0,0.0,-0.30411,-0.23544,9.83943
1348484835,22.35,0.0,0.0,0.0,-0.2943,-0.25506,9.84924
1353535340,22.35,0.0,0.0,0.0,-0.28449,-0.24525000000000002,9.82962
1358585845,22.35,0.0,0.0,0.0,-0.30411,-0.23544,9.82962
1363636350,22.35,0.0,0.0,0.0,-0.27468000000000004,-0.26487,9.83943
1368686855,22.35,0.0,0.0,0.0,-0.2943,-0.25506,9.819809999999999
1373737360,22.35,0.0,0.0,0.0,-0.2943,-0.25506,9.819809999999999
1378787865,22.35,0.0,0.0,0.0,-0.30411,-0.24525000000000002,9.82962
1383838370,22.35,0.0,0.0,0.0,-0.31392000000000003,-0.24525000000000002,9.82962
1388888875,22.35,0.0,0.0,0.0,-0.32373,-0.22563,9.819809999999999
1393939380,22.35,0.0,0.0,0.0,-0.30411,-0.24525000000000002,9.819809999999999
1398989885,22.35,0.0,0.0,0.0,-0.2943,-0.27468000000000004,9.84924
1404040390,22.35,0.0,0.0,0.0,-0.2943,-0.26487,9.83943
1409090895,22.35,0.0,0.0,0.0,-0.26487,-0.22563,9.80019
1414141400,22.35,0.0,0.0,0.0,-0.2943,-0.25506,9.819809999999999
1419191905,22.35,0.0,0.0,0.0,-0.2943,-0.25506,9.819809999999999
1424242410,22.35,0.0,0.0,0.0,-0.31392000000000003,-0.22563,9.819809999999999
1429292915,22.35,0.0,0.0,0.0,-0.28449,-0.25506,9.83943
1434343420,22.35,0.0,0.0,0.0,-0.31392000000000003,-0.26487,9.80019
1439393925,22.35,0.0,0.0,0.0,-0.30411,-0.25506,9.819809999999999
1444444430,22.35,0.0,0.0,0.0,-0.27468000000000004,-0.23544,9.83943
1449494935,22.35,0.0,0.0,0.0,-0.30411,-0.27468000000000004,9.84924
1454545440,22.35,0.0,0.0,0.0,-0.34335000000000004,-0.25506,9.81
1459595945,22.35,0.0,0.0,0.0,-0.2943,-0.20601000000000003,9.84924
1464646450,22.35,0.0,0.0,0.0,-0.2943,-0.27468000000000004,9.83943
1469696955,22.35,0.0,0.0,0.0,-0.30411,-0.27468000000000004,9.819809999999999
1474747460,22.35,0.0,0.0,0.0,-0.31392000000000003,-0.25506,9.84924
1479797965,22.35,0.0,0.0,0.0,-0.28449,-0.25506,9.819809999999999
1484848470,22.35,0.0,0.0,0.0,-0.33354000000000006,-0.25506,9.84924
1489898975,22.35,0.0,0.0,0.0,-0.31392000000000003,-0.25506,9.82962
1494949480,22.35,0.0,0.0,0.0,-0.28449,-0.24525000000000002,9.83943
1499999985,22.35,0.0,0.0,0.0,-0.2943,-0.25506,9.83943
1505050490,22.35,0.0,0.0,0.0,-0.32373,-0.23544,9.82962
1510100995,22.35,0.0,0.0,0.0,-0.31392000000000003,-0.23544,9.83943
1515151500,22.35,0.0,0.0,0.0,-0.2943,-0.26487,9.84924
1520202005,22.35,0.0,0.0,0.0,-0.31392000000000003,-0.23544,9.82962
1525252510,22.35,0.0,0.0,0.0,-0.31392000000000003,-0.24525000000000002,9.81
1530303015,22.35,0.0,0.0,0.0,-0.27468000000000004,-0.27468000000000004,9.819809999999999
1535353520,22.35,0.0,0.0,0.0,-0.32373,-0.23544,9.84924
1540404025,22.35,0.0,0.0,0.0,-0.30411,-0.24525000000000002,9.81
1545454530,22.35,0.0,0.0,0.0,-0.31392000000000003,-0.25506,9.81
1550505035,22.35,0.0,0.0,0.0,-0.30411,-0.25506,9.819809999999999
1555555540,22.35,0.0,0.0,0.0,-0.30411,-0.28449,9.82962
1560606045,22.35,0.0,0.0,0.0,-0.27468000000000004,-0.21582,9.84924
1565656550,22.35,0.0,0.0,0.0,-0.30411,-0.26487,9.819809999999999
1570707055,22.35,0.0,0.0,0.0,-0.30411,-0.26487,9.819809999999999
1575757560,22.35,0.0,0.0,0.0,-0.30411,-0.22563,9.83943
1580808065,22.35,0.0,0.0,0.0,-0.2943,-0.24525000000000002,9.82962
1585858570,22.35,0.0,0.0,0.0,-0.28449,-0.26487,9.82962
1590909075,22.35,0.0,0.0,0.0,-0.28449,-0.25506,9.82962
1595959580,22.35,0.0,0.0,0.0,-0.2943,-0.23544,9.82962
1601010085,22.35,0.0,0.0,0.0,-0.2943,-0.25506,9.82962
1606060590,22.35,0.0,0.0,0.0,-0.27468000000000004,-0.27468000000000004,9.819809999999999
1611111095,22.35,0.0,0.0,0.0,-0.32373,-0.24525000000000002,9.819809999999999
1616161600,22.35,0.0,0.0,0.0,-0.27468000000000004,-0.21582,9.79038
1621212105,22.35,0.0,0.0,0.0,-0.27468000000000004,-0.17658,9.69228
1626262610,22.35,0.0,0.0,0.0,-0.30411,-0.20601000000000003,9.623610000000001
1631313115,22.35,0.0,0.0,0.0,-0.33354000000000006,-0.23544,9.633420000000001
1636363620,22.35,-0.011711159280881954,-0.001064650843716541,0.0,-0.36297,-0.26487,9.67266
1641414125,22.35,-0.008517206749732328,-0.007452555906015787,0.0,-0.31392000000000003,-0.24525000000000002,9.80019
1646464630,22.35,-0.006387905062299246,-0.006387905062299246,0.0,-0.24525000000000002,-0.23544,9.83943
1651515135,22.35,-0.01064650843716541,-0.002129301687433082,0.0,-0.23544,-0.20601000000000003,9.80019
1656565640,22.35,-0.007452555906015787,0.0,0.0,-0.21582,-0.25506,9.66285
1661616145,22.35,-0.013840460968315033,0.020245819323134222,0.0,-0.28449,-0.23544,9.59418
1666666650,22.35,-0.01064650843716541,0.00958185759344887,0.0,-0.36297,-0.11772,9.69228
1671717155,22.35,-0.01064650843716541,-0.003193952531149623,0.0,-0.40221,-0.33354000000000006,9.70209
1676767660,22.35,-0.02663372438543347,-0.002129301687433082,0.0,-0.35316,-0.16677000000000003,9.85905
1681818165,22.35,-0.01918116847941768,-0.02982767691658309,-0.001064650843716541,-0.47088,-0.40221,9.92772
1686868670,22.35,-0.022375121010567305,-0.01064650843716541,0.0,0.019620000000000002,-0.039240000000000004,9.633420000000001
1691919175,22.35,-0.020245819323134222,-0.0,-0.003193952531149623,-0.16677000000000003,-0.65727,9.91791
1696969680,22.35,-0.02769837522915001,0.03089232776029963,0.007452555906015787,-0.23544,-0.34335000000000004,9.83943
1702020185,22.35,0.008517206749732328,0.013840460968315033,0.001064650843716541,-0.5886,0.0,9.908100000000001
1707070690,22.35,0.004258603374866164,-0.024504422698000388,-0.001064650843716541,-0.20601000000000003,0.04905,9.72171
1712121195,22.35,-0.03089232776029963,0.005323254218582705,0.0,-0.06867000000000001,-0.56898,9.7119
1717171700,22.35,-0.05539675045830002,0.012775810124598492,0.002129301687433082,-0.6278400000000001,-0.6768900000000001,9.95715
1722222205,22.35,-0.002129301687433082,-0.02663372438543347,0.0,-0.48069000000000006,0.009810000000000001,9.99639
1727272710,22.35,0.020245819323134222,-0.022375121010567305,-0.002129301687433082,0.11772,0.12753,9.760950000000001
1732323215,22.35,-0.031956978604016174,0.02556907354171693,0.0,-0.039240000000000004,-0.6180300000000001,9.52551
1737373720,22.35,-0.05220279792715039,0.03408628029144926,0.0,-0.59841,-0.45126,9.68247
1742424225,22.35,0.01064650843716541,-0.011711159280881954,-0.001064650843716541,-0.60822,0.1962,9.751140000000001
1747474730,22.35,0.002129301687433082,-0.024504422698000388,-0.004258603374866164,-0.009810000000000001,-0.11772,9.68247
1752525235,22.35,-0.05859070298944965,0.01811651763570114,0.002129301687433082,-0.25506,-0.70632,9.67266
1757575740,22.35,-0.05539675045830002,-0.001064650843716541,0.002129301687433082,-0.70632,-0.38259000000000004,9.89829
1762626245,22.35,0.006387905062299246,-0.05007349623971732,0.0,-0.15696000000000002,-0.019620000000000002,9.98658
1767676750,22.35,-0.01064650843716541,0.001064650843716541,-0.001064650843716541,0.15696000000000002,-0.38259000000000004,9.84924
1772727255,22.35,-0.05752605214573309,0.0404741853537485,0.001064650843716541,-0.33354000000000006,-0.6670800000000001,9.73152
1777777760,22.35,-0.00958185759344887,0.014905111812031574,0.0,-0.65727,-0.019620000000000002,9.819809999999999
1782828265,22.35,0.011711159280881954,-0.022375121010567305,-0.002129301687433082,-0.20601000000000003,-0.0981,9.92772
1787878770,22.35,-0.046879543708567686,0.007452555906015787,0.0,-0.08829,-0.5591700000000001,9.70209
1792929275,22.35,-0.04794419455228423,0.020245819323134222,0.004258603374866164,-0.64746,-0.32373,9.73152
1797979780,22.35,-0.004258603374866164,-0.03621558197888234,-0.002129301687433082,-0.2943,-0.13734000000000002,9.84924
1803030285,22.35,-0.022375121010567305,0.0,0.0,0.019620000000000002,-0.37278,9.770760000000001
1808080790,22.35,-0.049008845396000776,0.020245819323134222,0.002129301687433082,-0.46107000000000004,-0.52974,9.82962
1813131295,22.35,-0.024504422698000388,-0.01918116847941768,0.0,-0.32373,-0.24525000000000002,9.86886
1818181800,22.35,-0.001064650843716541,0.007452555906015787,0.001064650843716541,-0.08829,-0.20601000000000003,9.83943
1823232305,22.35,-0.03728023282259888,0.011711159280881954,0.0,-0.37278,-0.5493600000000001,9.87867
1828282810,22.35,-0.03408628029144926,-0.002129301687433082,0.0,-0.3924,-0.18639,9.78057
1833333315,22.35,-0.002129301687433082,-0.006387905062299246,-0.002129301687433082,-0.26487,-0.13734000000000002,9.7119
1838383820,22.35,-0.04581489286485115,-0.005323254218582705,-0.002129301687433082,-0.0981,-0.6867000000000001,9.73152
1843434325,22.35,-0.044732788728614664,0.023439771854283843,0.002129301687433082,-0.46107000000000004,-0.27468000000000004,9.82962
1848484830,22.35,0.0,-0.023439771854283843,0.001064650843716541,-0.44145,-0.10791,9.819809999999999
1853535335,22.35,-0.02769837522915001,-0.0170518667919846,-0.004258603374866164,0.11772,-0.37278,9.66285
1858585840,22.35,-0.044732788728614664,0.03834488366631542,0.005323254218582705,-0.44145,-0.51993,9.760950000000001
1863636345,22.35,-0.039409534510031964,-0.023439771854283843,0.0,-0.5395500000000001,-0.37278,9.89829
1868686850,22.35,-0.002129301687433082,-0.005323254218582705,-0.001064650843716541,-0.0981,0.0,9.74133
1873737355,22.35,-0.03834488366631542,0.005323254218582705,-0.003193952531149623,-0.28449,-0.57879,9.81
1878787860,22.35,-0.06497860805174888,0.002129301687433082,0.0,-0.32373,-0.5493600000000001,9.82962
1883838365,22.35,-0.011711159280881954,-0.005323254218582705,0.0,-0.48069000000000006,-0.20601000000000003,10.03563
1888888870,22.35,-0.01918116847941768,-0.024504422698000388,0.0,-0.08829,-0.42183,9.91791
1893939375,22.35,-0.04153883619746504,0.022375121010567305,0.002129301687433082,-0.20601000000000003,-0.43164,9.80019
1898989880,22.35,-0.03089232776029963,0.004258603374866164,-0.001064650843716541,-0.50031,-0.34335000000000004,9.888480000000001
1904040385,22.35,-0.014905111812031574,-0.013840460968315033,0.0,-0.08829,-0.25506,9.751140000000001
1909090890,22.35,-0.02982767691658309,0.022375121010567305,0.002129301687433082,-0.28449,-0.44145,9.69228
1914141395,22.35,-0.03834488366631542,0.006387905062299246,0.001064650843716541,-0.51012,-0.27468000000000004,9.72171
1919191900,22.35,-0.01918116847941768,-0.021310470166850764,-0.002129301687433082,-0.26487,-0.25506,9.72171
1924242405,22.35,-0.039409534510031964,0.001064650843716541,0.003193952531149623,-0.17658,-0.49050000000000005,9.7119
1929292910,22.35,-0.05220279792715039,0.0,0.0,-0.43164,-0.57879,9.819809999999999
1934343415,22.35,-0.02982767691658309,-0.00958185759344887,0.0,-0.30411,-0.23544,9.82962
1939393920,22.35,-0.008517206749732328,-0.004258603374866164,0.0,-0.18639,-0.2943,9.82962
1944444425,22.35,-0.05326744877086694,0.006387905062299246,0.0,-0.16677000000000003,-0.71613,9.86886
1949494930,22.35,-0.031956978604016174,0.0170518667919846,0.004258603374866164,-0.5591700000000001,-0.37278,9.96696
1954545435,22.35,-0.013840460968315033,-0.023439771854283843,-0.002129301687433082,-0.34335000000000004,-0.34335000000000004,9.98658
1959595940,22.35,-0.028763026072866547,-0.003193952531149623,-0.002129301687433082,-0.05886,-0.42183,9.85905
1964646445,22.35,-0.04153883619746504,0.013840460968315033,0.0,-0.38259000000000004,-0.60822,9.937529999999999
1969696950,22.35,-0.02663372438543347,-0.003193952531149623,0.0,-0.34335000000000004,-0.32373,9.770760000000001
1974747455,22.35,-0.020245819323134222,0.0,0.0,-0.1962,-0.32373,9.79038
1979797960,22.35,-0.03408628029144926,0.012775810124598492,0.001064650843716541,-0.31392000000000003,-0.42183,9.68247
1984848465,22.35,-0.03834488366631542,-0.001064650843716541,0.0,-0.36297,-0.44145,9.70209
1989898970,22.35,-0.02556907354171693,0.0,0.0,-0.33354000000000006,-0.24525000000000002,9.69228
1994949475,22.35,-0.03621558197888234,-0.006387905062299246,-0.001064650843716541,-0.28449,-0.51012,9.68247
1999999980,22.35,-0.05539675045830002,-0.004258603374866164,0.003193952531149623,-0.30411,-0.45126,9.751140000000001
2005050485,22.35,-0.024504422698000388,-0.004258603374866164,0.0,-0.37278,-0.37278,9.86886
2010100990,22.35,-0.04260348704118158,-0.013840460968315033,-0.002129301687433082,-0.13734000000000002,-0.6670800000000001,9.85905
2015151495,22.35,-0.039409534510031964,0.01918116847941768,0.001064650843716541,-0.40221,-0.50031,9.96696
2020202000,22.35,-0.031956978604016174,-0.020245819323134222,-0.001064650843716541,-0.36297,-0.51993,10.11411
2025252505,22.35,-0.021310470166850764,-0.008517206749732328,-0.003193952531149623,-0.04905,-0.37278,9.937529999999999
2030303010,22.35,-0.031956978604016174,0.02556907354171693,0.001064650843716541,-0.28449,-0.63765,9.908100000000001
2035353515,22.35,-0.02982767691658309,0.01064650843716541,0.0,-0.45126,-0.35316,9.760950000000001
2040404020,22.35,-0.011711159280881954,-0.002129301687433082,-0.001064650843716541,-0.25506,-0.28449,9.760950000000001
2045454525,22.35,-0.03089232776029963,0.005323254218582705,-0.001064650843716541,-0.24525000000000002,-0.43164,9.58437
2050505030,22.35,-0.05113814708343386,0.006387905062299246,0.0,-0.36297,-0.59841,9.623610000000001
2055555535,22.35,-0.02769837522915001,0.001064650843716541,0.0,-0.48069000000000006,-0.20601000000000003,9.67266
2060606040,22.35,-0.031956978604016174,-0.02556907354171693,-0.003193952531149623,-0.21582,-0.49050000000000005,9.751140000000001
2065656545,22.35,-0.05539675045830002,0.0,0.002129301687433082,-0.15696000000000002,-0.60822,9.751140000000001
2070707050,22.35,-0.044732788728614664,0.003193952531149623,0.0,-0.44145,-0.56898,9.89829
2075757555,22.35,-0.028763026072866547,-0.015987215948268057,-0.003193952531149623,-0.25506,-0.45126,9.94734
2080808060,22.35,-0.02556907354171693,0.003193952531149623,0.0,-0.1962,-0.5591700000000001,10.045440000000001
2085858565,22.35,-0.04260348704118158,0.001064650843716541,-0.001064650843716541,-0.33354000000000006,-0.6180300000000001,10.05525
2090909070,22.35,-0.024504422698000388,-0.00958185759344887,-0.002129301687433082,-0.26487,-0.50031,10.006200000000002
2095959575,22.35,-0.014905111812031574,0.01064650843716541,0.001064650843716541,-0.24525000000000002,-0.47088,9.89829
2101010080,22.35,-0.028763026072866547,0.012775810124598492,0.0,-0.33354000000000006,-0.5395500000000001,9.819809999999999
2106060585,22.35,-0.03408628029144926,0.008517206749732328,0.0,-0.35316,-0.41202000000000005,9.7119
2111111090,22.35,-0.021310470166850764,-0.001064650843716541,0.0,-0.34335000000000004,-0.41202000000000005,9.623610000000001
2116161595,22.35,-0.039409534510031964,0.0,0.0,-0.23544,-0.5493600000000001,9.55494
2121212100,22.35,-0.039409534510031964,0.008517206749732328,0.0,-0.48069000000000006,-0.42183,9.64323
2126262605,22.35,-0.03728023282259888,-0.022375121010567305,0.0,-0.31392000000000003,-0.51012,9.72171
2131313110,22.35,-0.03728023282259888,-0.004258603374866164,0.0,-0.1962,-0.51993,9.7119
2136363615,22.35,-0.05007349623971732,0.0,0.0,-0.37278,-0.7651800000000001,9.908100000000001
2141414120,22.35,-0.03515093113516579,-0.012775810124598492,0.0,-0.32373,-0.51012,10.006200000000002
2146464625,22.35,-0.02556907354171693,-0.0170518667919846,0.0,-0.23544,-0.64746,10.15335
2151515130,22.35,-0.033021629447732716,0.0,0.0,-0.15696000000000002,-0.64746,10.08468
2156565635,22.35,-0.02769837522915001,0.005323254218582705,0.0,-0.31392000000000003,-0.70632,10.045440000000001
2161616140,22.35,-0.012775810124598492,0.012775810124598492,0.0,-0.27468000000000004,-0.2943,9.87867
2166666645,22.35,-0.008517206749732328,0.004258603374866164,0.0,-0.21582,-0.51993,9.770760000000001
2171717150,22.35,-0.039409534510031964,0.01811651763570114,0.0,-0.2943,-0.5395500000000001,9.60399
2176767655,22.35,-0.02556907354171693,0.008517206749732328,0.0,-0.5395500000000001,-0.3924,9.6138
2181818160,22.35,-0.02982767691658309,-0.021310470166850764,0.0,-0.27468000000000004,-0.42183,9.59418
2186868665,22.35,-0.031956978604016174,0.002129301687433082,0.0,-0.23544,-0.51993,9.60399
2191919170,22.35,-0.05859070298944965,-0.012775810124598492,0.0,-0.35316,-0.7848,9.74133
2196969675,22.35,-0.03515093113516579,-0.004258603374866164,0.0,-0.24525000000000002,-0.46107000000000004,9.770760000000001
2202020180,22.35,-0.020245819323134222,-0.005323254218582705,0.0,-0.28449,-0.60822,9.937529999999999
2207070685,22.35,-0.044732788728614664,-0.002129301687433082,0.0,-0.17658,-0.74556,9.98658
2212121190,22.35,-0.02982767691658309,0.007452555906015787,0.0,-0.43164,-0.65727,10.15335
2217171695,22.35,-0.024504422698000388,-0.01918116847941768,0.0,-0.24525000000000002,-0.57879,10.15335
2222222200,22.35,-0.020245819323134222,0.002129301687433082,0.0,-0.12753,-0.6180300000000001,10.03563
2227272705,22.35,-0.02982767691658309,0.012775810124598492,0.0,-0.35316,-0.64746,9.937529999999999
2232323210,22.35,-0.015987215948268057,0.004258603374866164,0.0,-0.28449,-0.45126,9.751140000000001
2237373715,22.35,-0.015987215948268057,0.00958185759344887,0.0,-0.24525000000000002,-0.56898,9.67266
2242424220,22.35,-0.02556907354171693,0.0170518667919846,0.0,-0.37278,-0.47088,9.54513
2247474725,22.35,-0.02556907354171693,-0.002129301687433082,0.0,-0.40221,-0.47088,9.60399
2252525230,22.35,-0.033021629447732716,-0.008517206749732328,0.0,-0.26487,-0.48069000000000006,9.58437
2257575735,22.35,-0.04153883619746504,-0.003193952531149623,0.0,-0.32373,-0.69651,9.69228
2262626240,22.35,-0.04794419455228423,-0.013840460968315033,0.0,-0.37278,-0.75537,9.82962
2267676745,22.35,-0.03089232776029963,-0.011711159280881954,0.0,-0.25506,-0.5591700000000001,9.92772
2272727250,22.35,-0.02556907354171693,-0.013840460968315033,0.0,-0.17658,-0.70632,10.074869999999999
2277777755,22.35,-0.03621558197888234,0.007452555906015787,0.0,-0.15696000000000002,-0.8142300000000001,10.045440000000001
2282828260,22.35,-0.01918116847941768,0.0170518667919846,0.0,-0.44145,-0.60822,10.1043
2287878765,22.35,-0.00958185759344887,-0.01064650843716541,0.0,-0.24525000000000002,-0.57879,10.074869999999999
2292929270,22.35,-0.0170518667919846,0.00958185759344887,0.0,-0.15696000000000002,-0.60822,9.92772
2297979775,22.35,-0.02556907354171693,0.015987215948268057,0.0,-0.43164,-0.64746,9.78057
2303030280,22.35,-0.023439771854283843,-0.006387905062299246,0.0,-0.27468000000000004,-0.56898,9.7119
2308080785,22.35,-0.00958185759344887,0.013840460968315033,0.0,-0.30411,-0.41202000000000005,9.623610000000001
2313131290,22.35,-0.02556907354171693,-0.003193952531149623,0.0,-0.35316,-0.69651,9.59418
2318181795,22.35,-0.039409534510031964,0.0,0.0,-0.30411,-0.63765,9.58437
2323232300,22.35,-0.024504422698000388,-0.001064650843716541,0.0,-0.43164,-0.52974,9.69228
2328282805,22.35,-0.03089232776029963,-0.023439771854283843,0.0,-0.17658,-0.73575,9.81
2333333310,22.35,-0.04153883619746504,0.003193952531149623,0.0,-0.22563,-0.72594,9.84924
2338383815,22.35,-0.024504422698000388,0.0,0.0,-0.45126,-0.64746,9.92772
2343434320,22.35,-0.024504422698000388,-0.01811651763570114,0.0,-0.16677000000000003,-0.73575,10.006200000000002
2348484825,22.35,-0.031956978604016174,0.01811651763570114,0.0,-0.26487,-0.71613,10.05525
2353535330,22.35,-0.01811651763570114,-0.002129301687433082,0.0,-0.3924,-0.60822,10.01601
2358585835,22.35,-0.01064650843716541,-0.005323254218582705,0.0,-0.12753,-0.6768900000000001,9.92772
2363636340,22.35,-0.01918116847941768,0.020245819323134222,0.0,-0.34335000000000004,-0.65727,9.87867
2368686845,22.35,-0.020245819323134222,-0.004258603374866164,0.0,-0.37278,-0.69651,9.84924
2373737350,22.35,-0.011711159280881954,-0.003193952531149623,0.0,-0.23544,-0.51993,9.760950000000001
2378787855,22.35,-0.0170518667919846,0.006387905062299246,0.0,-0.31392000000000003,-0.6670800000000001,9.7119
2383838360,22.35,-0.02982767691658309,0.0,0.0,-0.30411,-0.63765,9.66285
2388888865,22.35,-0.012775810124598492,0.001064650843716541,0.0,-0.35316,-0.59841,9.74133
2393939370,22.35,-0.02556907354171693,-0.005323254218582705,0.0,-0.28449,-0.71613,9.73152
2398989875,22.35,-0.02982767691658309,0.003193952531149623,0.0,-0.2943,-0.64746,9.73152
2404040380,22.35,-0.01918116847941768,-0.005323254218582705,0.0,-0.36297,-0.6670800000000001,9.84924
2409090885,22.35,-0.02663372438543347,-0.011711159280881954,0.0,-0.1962,-0.86328,9.95715
2414141390,22.35,-0.02769837522915001,0.002129301687433082,0.0,-0.38259000000000004,-0.6867000000000001,10.025820000000001
2419191895,22.35,-0.004258603374866164,-0.011711159280881954,0.0,-0.22563,-0.5886,9.95715
2424242400,22.35,-0.020245819323134222,0.005323254218582705,0.0,-0.07848000000000001,-0.84366,9.888480000000001
2429292905,22.35,-0.02663372438543347,0.02663372438543347,0.0,-0.46107000000000004,-0.73575,9.87867
2434343410,22.35,-0.002129301687433082,-0.01064650843716541,0.0,-0.38259000000000004,-0.45126,9.84924
2439393915,22.35,0.0,-0.005323254218582705,0.0,-0.06867000000000001,-0.59841,9.7119
2444444420,22.35,-0.03621558197888234,0.023439771854283843,0.0,-0.35316,-0.9810000000000001,9.72171
2449494925,22.35,-0.031956978604016174,-0.006387905062299246,0.0,-0.59841,-0.60822,9.79038
2454545430,22.35,0.011711159280881954,-0.02769837522915001,0.0,-0.15696000000000002,-0.33354000000000006,9.78057
2459595935,22.35,-0.01811651763570114,0.0,0.0,0.05886,-0.94176,9.68247
2464646440,22.35,-0.054332099614583476,0.03089232776029963,0.0,-0.52974,-0.9908100000000001,9.78057
2469696945,22.35,-0.003193952531149623,-0.015987215948268057,0.0,-0.64746,-0.41202000000000005,9.95715
2474747450,22.35,0.00958185759344887,-0.033021629447732716,0.0,0.0981,-0.57879,9.91791
2479797955,22.35,-0.04153883619746504,0.02663372438543347,0.0,-0.11772,-1.1183400000000001,9.888480000000001
2484848460,22.35,-0.03515093113516579,0.01811651763570114,0.0,-0.70632,-0.8338500000000001,10.006200000000002
2489898965,22.35,0.01811651763570114,-0.039409534510031964,0.0,-0.31392000000000003,-0.3924,10.08468
2494949470,22.35,0.003193952531149623,-0.008517206749732328,0.0,0.17658,-0.72594,9.87867
2499999975,22.35,-0.03621558197888234,0.04260348704118158,0.0,-0.31392000000000003,-0.9613800000000001,9.72171
2505050480,22.35,-0.007452555906015787,0.012775810124598492,0.0,-0.60822,-0.51012,9.69228
2510100985,22.35,0.021310470166850764,-0.0170518667919846,0.0,-0.25506,-0.42183,9.70209
2515151490,22.35,-0.02663372438543347,0.002129301687433082,0.0,-0.18639,-0.87309,9.7119
2520201995,22.35,-0.03728023282259888,0.004258603374866164,0.0,-0.52974,-0.69651,9.72171
2525252500,22.35,0.0,-0.022375121010567305,0.0,-0.32373,-0.48069000000000006,9.73152
2530303005,22.35,-0.011711159280881954,-0.01064650843716541,0.0,0.0,-0.84366,9.760950000000001
2535353510,22.35,-0.039409534510031964,0.014905111812031574,0.0,-0.42183,-0.9711900000000001,9.92772
2540404015,22.35,-0.00958185759344887,-0.011711159280881954,0.0,-0.48069000000000006,-0.5886,10.025820000000001
2545454520,22.35,0.012775810124598492,-0.020245819323134222,0.0,-0.08829,-0.6180300000000001,9.97677
2550505025,22.35,-0.022375121010567305,0.012775810124598492,0.0,-0.12753,-0.9908100000000001,9.96696
2555555530,22.35,-0.020245819323134222,0.015987215948268057,0.0,-0.45126,-0.75537,9.937529999999999
2560606035,22.35,0.022375121010567305,-0.003193952531149623,0.0,-0.33354000000000006,-0.41202000000000005,9.79038
2565656540,22.35,0.0,0.003193952531149623,0.0,-0.17658,-0.73575,9.67266
2570707045,22.35,-0.031956978604016174,0.01064650843716541,0.0,-0.43164,-0.94176,9.770760000000001
2575757550,22.35,-0.005323254218582705,-0.014905111812031574,0.0,-0.50031,-0.60822,9.92772
2580808055,22.35,0.007452555906015787,-0.020245819323134222,0.0,-0.08829,-0.57879,9.78057
2585858560,22.35,-0.020245819323134222,0.014905111812031574,0.0,-0.16677000000000003,-0.85347,9.66285
2590909065,22.35,-0.01811651763570114,0.006387905062299246,0.0,-0.47088,-0.74556,9.751140000000001
2595959570,22.35,0.006387905062299246,-0.011711159280881954,0.0,-0.24525000000000002,-0.56898,9.82962
2601010075,22.35,0.0,0.008517206749732328,0.0,-0.20601000000000003,-0.7651800000000001,9.770760000000001
2606060580,22.35,-0.023439771854283843,0.005323254218582705,0.0,-0.44145,-0.87309,9.82962
2611111085,22.35,-0.004258603374866164,-0.0170518667919846,0.0,-0.41202000000000005,-0.6867000000000001,10.025820000000001
2616161590,22.35,0.0,-0.023439771854283843,0.0,-0.14715,-0.7848,10.08468
2621212095,22.35,-0.014905111812031574,0.0,0.0,-0.14715,-0.9123300000000001,9.95715
2626262600,22.35,-0.001064650843716541,0.014905111812031574,0.0,-0.32373,-0.75537,9.91791
2631313105,22.35,0.015987215948268057,0.003193952531149623,0.0,-0.28449,-0.60822,9.87867
2636363610,22.35,0.004258603374866164,0.015987215948268057,0.0,-0.1962,-0.6670800000000001,9.70209
2641414115,22.35,-0.004258603374866164,0.01811651763570114,0.0,-0.44145,-0.6768900000000001,9.633420000000001
2646464620,22.35,-0.003193952531149623,-0.007452555906015787,0.0,-0.41202000000000005,-0.64746,9.623610000000001
2651515125,22.35,-0.007452555906015787,-0.00958185759344887,0.0,-0.28449,-0.70632,9.70209
2656565630,22.35,-0.013840460968315033,-0.00958185759344887,0.0,-0.31392000000000003,-0.8142300000000001,9.80019
2661616135,22.35,-0.01064650843716541,-0.01064650843716541,0.0,-0.25506,-0.73575,9.83943
2666666640,22.35,0.0,-0.002129301687433082,0.0,-0.23544,-0.7651800000000001,9.91791
2671717145,22.35,-0.003193952531149623,0.0,0.0,-0.22563,-0.8142300000000001,9.96696
2676767650,22.35,0.003193952531149623,0.008517206749732328,0.0,-0.31392000000000003,-0.71613,9.97677
2681818155,22.35,0.01064650843716541,-0.001064650843716541,0.0,-0.30411,-0.69651,9.94734
2686868660,22.35,-0.001064650843716541,-0.001064650843716541,0.0,-0.24525000000000002,-0.8142300000000001,9.888480000000001
2691919165,22.35,-0.003193952531149623,0.004258603374866164,0.0,-0.33354000000000006,-0.7848,9.888480000000001
2696969670,22.35,0.006387905062299246,-0.002129301687433082,0.0,-0.28449,-0.6180300000000001,9.81
2702020175,22.35,0.01064650843716541,0.006387905062299246,0.0,-0.17658,-0.60822,9.65304
2707070680,22.35,-0.008517206749732328,0.011711159280881954,0.0,-0.31392000000000003,-0.79461,9.60399
2712121185,22.35,-0.008517206749732328,-0.004258603374866164,0.0,-0.37278,-0.70632,9.69228
2717171690,22.35,0.002129301687433082,-0.004258603374866164,0.0,-0.30411,-0.73575,9.760950000000001
2722222195,22.35,-0.007452555906015787,-0.001064650843716541,0.0,-0.31392000000000003,-0.80442,9.82962
2727272700,22.35,-0.005323254218582705,-0.006387905062299246,0.0,-0.32373,-0.7749900000000001,9.97677
2732323205,22.35,0.0,-0.014905111812031574,0.0,-0.28449,-0.7848,10.05525
2737373710,22.35,0.003193952531149623,-0.004258603374866164,0.0,-0.14715,-0.8240400000000001,10.045440000000001
2742424215,22.35,0.00958185759344887,0.012775810124598492,0.0,-0.27468000000000004,-0.75537,9.96696
2747474720,22.35,0.014905111812031574,0.005323254218582705,0.0,-0.2943,-0.6867000000000001,9.888480000000001
2752525225,22.35,0.013840460968315033,0.003193952531149623,0.0,-0.26487,-0.6768900000000001,9.82962
2757575730,22.35,0.003193952531149623,0.004258603374866164,0.0,-0.36297,-0.72594,9.79038
2762626235,22.35,0.001064650843716541,0.0,0.0,-0.36297,-0.73575,9.751140000000001
2767676740,22.35,0.00958185759344887,-0.007452555906015787,0.0,-0.33354000000000006,-0.72594,9.78057
2772727245,22.35,0.004258603374866164,-0.006387905062299246,0.0,-0.25506,-0.79461,9.81
2777777750,22.35,0.002129301687433082,-0.003193952531149623,0.0,-0.27468000000000004,-0.70632,9.80019
2782828255,22.35,0.011711159280881954,-0.002129301687433082,0.0,-0.26487,-0.6278400000000001,9.79038
2787878760,22.35,0.005323254218582705,0.004258603374866164,0.0,-0.21582,-0.7848,9.751140000000001
2792929265,22.35,0.002129301687433082,0.014905111812031574,0.0,-0.36297,-0.71613,9.770760000000001
2797979770,22.35,0.007452555906015787,-0.002129301687433082,0.0,-0.40221,-0.6768900000000001,9.80019
2803030275,22.35,0.005323254218582705,-0.007452555906015787,0.0,-0.28449,-0.72594,9.83943
2808080780,22.35,-0.005323254218582705,-0.004258603374866164,0.0,-0.2943,-0.8829,9.96696
2813131285,22.35,0.0,-0.00958185759344887,0.0,-0.33354000000000006,-0.8142300000000001,10.06506
2818181790,22.35,0.020245819323134222,-0.003193952531149623,0.0,-0.25506,-0.6670800000000001,9.98658
2823232295,22.35,0.01918116847941768,0.003193952531149623,0.0,-0.17658,-0.6768900000000001,9.87867
2828282800,22.35,0.004258603374866164,0.001064650843716541,0.0,-0.22563,-0.79461,9.80019
2833333305,22.35,0.013840460968315033,0.0170518667919846,0.0,-0.31392000000000003,-0.71613,9.751140000000001
2838383810,22.35,0.02663372438543347,0.012775810124598492,0.0,-0.41202000000000005,-0.5886,9.81
2843434315,22.35,0.021310470166850764,0.005323254218582705,0.0,-0.37278,-0.5395500000000001,9.70209
2848484820,22.35,0.003193952531149623,-0.012775810124598492,0.0,-0.3924,-0.75537,9.770760000000001
2853535325,22.35,-0.006387905062299246,-0.024504422698000388,0.0,-0.24525000000000002,-0.84366,9.819809999999999
2858585830,22.35,0.003193952531149623,-0.003193952531149623,0.0,-0.20601000000000003,-0.7749900000000001,9.80019
2863636335,22.35,0.021310470166850764,0.005323254218582705,0.0,-0.25506,-0.57879,9.78057
2868686840,22.35,0.022375121010567305,0.013840460968315033,0.0,-0.21582,-0.6278400000000001,9.74133
2873737345,22.35,0.00958185759344887,0.015987215948268057,0.0,-0.40221,-0.7848,9.819809999999999
2878787850,22.35,0.0,-0.005323254218582705,0.0,-0.45126,-0.7651800000000001,9.92772
2883838355,22.35,0.0170518667919846,-0.01811651763570114,0.0,-0.33354000000000006,-0.63765,9.92772
2888888860,22.35,0.012775810124598492,-0.006387905062299246,0.0,-0.18639,-0.74556,9.888480000000001
2893939365,22.35,0.004258603374866164,0.00958185759344887,0.0,-0.25506,-0.80442,9.908100000000001
2898989870,22.35,0.021310470166850764,0.001064650843716541,0.0,-0.34335000000000004,-0.69651,9.92772
2904040375,22.35,0.02769837522915001,-0.002129301687433082,0.0,-0.25506,-0.63765,9.81
2909090880,22.35,0.01811651763570114,0.00958185759344887,0.0,-0.25506,-0.6670800000000001,9.80019
2914141385,22.35,0.01918116847941768,0.011711159280881954,0.0,-0.34335000000000004,-0.60822,9.74133
2919191890,22.35,0.01918116847941768,0.005323254218582705,0.0,-0.36297,-0.63765,9.68247
2924242395,22.35,0.01064650843716541,-0.005323254218582705,0.0,-0.38259000000000004,-0.69651,9.7119
2929292900,22.35,0.003193952531149623,-0.014905111812031574,0.0,-0.33354000000000006,-0.73575,9.86886
2934343405,22.35,0.015987215948268057,-0.012775810124598492,0.0,-0.22563,-0.70632,9.86886
2939393910,22.35,0.021310470166850764,-0.001064650843716541,0.0,-0.21582,-0.7651800000000001,9.92772
2944444415,22.35,0.014905111812031574,0.005323254218582705,0.0,-0.31392000000000003,-0.80442,9.94734
2949494920,22.35,0.021310470166850764,-0.002129301687433082,0.0,-0.34335000000000004,-0.6180300000000001,9.98658
2954545425,22.35,0.03408628029144926,-0.004258603374866164,0.0,-0.1962,-0.59841,9.91791
2959595930,22.35,0.021310470166850764,0.01918116847941768,0.0,-0.20601000000000003,-0.7848,9.82962
2964646435,22.35,0.015987215948268057,0.01811651763570114,0.0,-0.50031,-0.74556,9.81
2969696940,22.35,0.03515093113516579,-0.013840460968315033,0.0,-0.41202000000000005,-0.41202000000000005,9.82962
2974747445,22.35,0.031956978604016174,-0.013840460968315033,0.0,-0.06867000000000001,-0.56898,9.751140000000001
2979797950,22.35,0.001064650843716541,0.012775810124598492,0.0,-0.24525000000000002,-1.00062,9.7119
2984848455,22.35,0.006387905062299246,0.007452555906015787,0.0,-0.57879,-0.6768900000000001,9.760950000000001
2989898960,22.35,0.05007349623971732,-0.020245819323134222,0.0,-0.31392000000000003,-0.26487,9.819809999999999
2994949465,22.35,0.028763026072866547,-0.007452555906015787,0.0,0.02943,-0.75537,9.760950000000001
2999999970,22.35,-0.011711159280881954,0.02982767691658309,0.0,-0.43164,-0.9810000000000001,9.760950000000001
3005050475,22.35,0.022375121010567305,-0.01064650843716541,0.0,-0.6768900000000001,-0.47088,9.937529999999999
3010100980,22.35,0.05646140130201656,-0.03408628029144926,0.0,-0.04905,-0.46107000000000004,9.937529999999999
3015151485,22.35,0.01064650843716541,0.0170518667919846,0.0,0.0,-0.9810000000000001,9.83943
3020201990,22.35,-0.002129301687433082,0.021310470166850764,0.0,-0.6278400000000001,-0.6867000000000001,9.84924
3025252495,22.35,0.05539675045830002,-0.02556907354171693,0.0,-0.28449,-0.30411,9.888480000000001
3030303000,22.35,0.03728023282259888,0.0,0.0,0.02943,-0.7848,9.84924
3035353505,22.35,-0.003193952531149623,0.03089232776029963,0.0,-0.49050000000000005,-0.87309,9.819809999999999
3040404010,22.35,0.033021629447732716,-0.011711159280881954,0.0,-0.6180300000000001,-0.3924,9.888480000000001
3045454515,22.35,0.044732788728614664,-0.02982767691658309,-0.007452555906015787,0.019620000000000002,-0.5591700000000001,9.85905
3050505020,22.35,0.005323254218582705,0.023439771854283843,0.002129301687433082,-0.17658,-0.94176,9.81
3055555525,22.35,0.014905111812031574,0.008517206749732328,0.0,-0.6180300000000001,-0.59841,9.85905
3060606030,22.35,0.05752605214573309,-0.023439771854283843,0.0,-0.17658,-0.34335000000000004,9.80019
3065656535,22.35,0.03089232776029963,0.013840460968315033,-0.001064650843716541,-0.05886,-0.73575,9.78057
3070707040,22.35,-0.003193952531149623,0.015987215948268057,0.002129301687433082,-0.51012,-0.9123300000000001,9.85905
3075757545,22.35,0.03834488366631542,-0.014905111812031574,-0.002129301687433082,-0.41202000000000005,-0.28449,9.84924
3080808050,22.35,0.05859070298944965,-0.006387905062299246,-0.002129301687433082,-0.0981,-0.45126,9.72171
3085858555,22.35,-0.001064650843716541,0.012775810124598492,-0.001064650843716541,-0.1962,-1.00062,9.72171
3090909060,22.35,0.014905111812031574,0.014905111812031574,0.001064650843716541,-0.63765,-0.5395500000000001,9.84924
3095959565,22.35,0.05646140130201656,-0.03621558197888234,-0.002129301687433082,-0.26487,-0.40221,9.92772
3101010070,22.35,0.020245819323134222,0.002129301687433082,-0.001064650843716541,0.07848000000000001,-0.71613,9.74133
3106060575,22.35,0.011711159280881954,0.031956978604016174,0.003193952531149623,-0.51012,-0.7749900000000001,9.81
3111111080,22.35,0.02769837522915001,-0.020245819323134222,-0.003193952531149623,-0.46107000000000004,-0.51993,9.937529999999999
3116161585,22.35,0.044732788728614664,-0.004258603374866164,-0.001064650843716541,-0.02943,-0.45126,9.86886
3121212090,22.35,0.015987215948268057,0.011711159280881954,0.0,-0.37278,-0.84366,9.888480000000001
3126262595,22.35,0.011711159280881954,-0.008517206749732328,0.0,-0.32373,-0.6670800000000001,9.91791
3131313100,22.35,0.060720004676882725,-0.001064650843716541,0.0,-0.32373,-0.34335000000000004,9.96696
3136363605,22.35,0.031956978604016174,-0.005323254218582705,-0.003193952531149623,-0.0981,-0.7749900000000001,9.87867
3141414110,22.35,0.020245819323134222,0.028763026072866547,0.0,-0.31392000000000003,-0.48069000000000006,9.760950000000001
3146464615,22.35,0.049008845396000776,-0.007452555906015787,0.0,-0.51012,-0.48069000000000006,9.80019
3151515120,22.35,0.03515093113516579,-0.01064650843716541,0.0,-0.05886,-0.59841,9.68247
3156565625,22.35,0.02556907354171693,0.02663372438543347,0.001064650843716541,-0.49050000000000005,-0.60822,9.760950000000001
3161616130,22.35,0.022375121010567305,-0.024504422698000388,-0.002129301687433082,-0.43164,-0.5886,9.81
3166666635,22.35,0.04153883619746504,-0.011711159280881954,-0.002129301687433082,-0.0981,-0.41202000000000005,9.73152
3171717140,22.35,0.020245819323134222,0.003193952531149623,0.002129301687433082,-0.25506,-0.8338500000000001,9.83943
3176767645,22.35,0.022375121010567305,0.005323254218582705,-0.001064650843716541,-0.34335000000000004,-0.52974,9.80019
3181818150,22.35,0.04794419455228423,-0.001064650843716541,-0.001064650843716541,-0.34335000000000004,-0.45126,9.89829
3186868655,22.35,0.03621558197888234,-0.002129301687433082,-0.001064650843716541,-0.20601000000000003,-0.57879,9.819809999999999
3191919160,22.35,0.015987215948268057,0.007452555906015787,-0.001064650843716541,-0.33354000000000006,-0.8142300000000001,9.94734
3196969665,22.35,0.03621558197888234,-0.003193952531149623,0.001064650843716541,-0.45126,-0.47088,10.045440000000001
3202020170,22.35,0.05220279792715039,-0.020245819323134222,0.0,-0.15696000000000002,-0.51993,9.97677
3207070675,22.35,0.02769837522915001,0.012775810124598492,-0.001064650843716541,-0.13734000000000002,-0.65727,9.81
3212121180,22.35,0.03621558197888234,0.011711159280881954,0.002129301687433082,-0.45126,-0.5886,9.86886
3217171685,22.35,0.05007349623971732,-0.004258603374866164,0.0,-0.21582,-0.34335000000000004,9.770760000000001
3222222190,22.35,0.05113814708343386,0.011711159280881954,-0.002129301687433082,-0.26487,-0.41202000000000005,9.65304
3227272695,22.35,0.020245819323134222,0.008517206749732328,-0.003193952531149623,-0.37278,-0.64746,9.64323
3232323200,22.35,0.02556907354171693,-0.007452555906015787,-0.001064650843716541,-0.44145,-0.41202000000000005,9.73152
3237373705,22.35,0.039409534510031964,-0.012775810124598492,0.0,-0.25506,-0.41202000000000005,9.79038
3242424210,22.35,0.02663372438543347,-0.012775810124598492,0.0,-0.1962,-0.6867000000000001,9.770760000000001
3247474715,22.35,0.01918116847941768,0.004258603374866164,0.0,-0.34335000000000004,-0.63765,9.89829
3252525220,22.35,0.04366813788489812,-0.0170518667919846,-0.001064650843716541,-0.32373,-0.48069000000000006,10.045440000000001
3257575725,22.35,0.039409534510031964,0.0,0.0,-0.06867000000000001,-0.5886,9.99639
3262626230,22.35,0.03408628029144926,0.01811651763570114,0.0,-0.35316,-0.5591700000000001,9.98658
3267676735,22.35,0.04366813788489812,-0.001064650843716541,-0.002129301687433082,-0.33354000000000006,-0.48069000000000006,9.937529999999999
3272727240,22.35,0.05007349623971732,-0.001064650843716541,0.0,-0.20601000000000003,-0.40221,9.86886
3277777745,22.35,0.04153883619746504,0.0170518667919846,0.0,-0.30411,-0.47088,9.751140000000001
3282828250,22.35,0.03089232776029963,0.0,-0.005323254218582705,-0.38259000000000004,-0.49050000000000005,9.73152
3287878755,22.35,0.039409534510031964,0.004258603374866164,-0.001064650843716541,-0.37278,-0.35316,9.66285
3292929260,22.35,0.03728023282259888,-0.015987215948268057,-0.002129301687433082,-0.26487,-0.47088,9.73152
3297979765,22.35,0.02769837522915001,0.004258603374866164,-0.001064650843716541,-0.1962,-0.48069000000000006,9.68247
3303030270,22.35,0.03515093113516579,0.003193952531149623,0.0,-0.38259000000000004,-0.47088,9.78057
3308080775,22.35,0.03728023282259888,-0.005323254218582705,0.0,-0.31392000000000003,-0.47088,9.80019
3313131280,22.35,0.03408628029144926,-0.006387905062299246,-0.002129301687433082,-0.25506,-0.51012,9.97677
3318181785,22.35,0.03834488366631542,-0.002129301687433082,0.0,-0.34335000000000004,-0.5395500000000001,9.96696
3323232290,22.35,0.03834488366631542,-0.01064650843716541,0.001064650843716541,-0.16677000000000003,-0.5886,10.025820000000001
3328282795,22.35,0.04260348704118158,0.01064650843716541,-0.001064650843716541,-0.35316,-0.43164,9.95715
3333333300,22.35,0.04581489286485115,-0.003193952531149623,0.0,-0.1962,-0.43164,9.97677
3338383805,22.35,0.04794419455228423,0.008517206749732328,-0.001064650843716541,-0.25506,-0.38259000000000004,9.80019
3343434310,22.35,0.039409534510031964,0.015987215948268057,0.0,-0.30411,-0.42183,9.73152
3348484815,22.35,0.04260348704118158,0.0,-0.002129301687433082,-0.45126,-0.33354000000000006,9.69228
3353535320,22.35,0.04366813788489812,0.0,-0.002129301687433082,-0.23544,-0.21582,9.623610000000001
3358585825,22.35,0.03834488366631542,-0.005323254218582705,-0.001064650843716541,-0.32373,-0.51993,9.67266
3363636330,22.35,0.015987215948268057,0.005323254218582705,0.002129301687433082,-0.34335000000000004,-0.50031,9.68247
3368686835,22.35,0.039409534510031964,-0.0170518667919846,0.001064650843716541,-0.45126,-0.3924,9.937529999999999
3373737340,22.35,0.039409534510031964,-0.022375121010567305,-0.003193952531149623,-0.11772,-0.45126,9.92772
3378787845,22.35,0.03408628029144926,0.002129301687433082,0.001064650843716541,-0.16677000000000003,-0.64746,9.99639
3383838350,22.35,0.031956978604016174,0.013840460968315033,-0.001064650843716541,-0.3924,-0.44145,10.03563
3388888855,22.35,0.060720004676882725,-0.005323254218582705,-0.004258603374866164,-0.20601000000000003,-0.26487,9.98658
3393939360,22.35,0.05007349623971732,0.015987215948268057,-0.002129301687433082,-0.20601000000000003,-0.41202000000000005,9.85905
3398989865,22.35,0.03408628029144926,0.014905111812031574,0.001064650843716541,-0.35316,-0.46107000000000004,9.79038
3404040370,22.35,0.05220279792715039,0.001064650843716541,0.0,-0.41202000000000005,-0.21582,9.7119
3409090875,22.35,0.04794419455228423,-0.008517206749732328,-0.002129301687433082,-0.30411,-0.30411,9.69228
3414141380,22.35,0.03089232776029963,0.0,0.0,-0.28449,-0.51993,9.73152
3419191885,22.35,0.021310470166850764,-0.003193952531149623,0.0,-0.42183,-0.42183,9.81
3424242390,22.35,0.05113814708343386,-0.01918116847941768,-0.003193952531149623,-0.24525000000000002,-0.30411,9.82962
3429292895,22.35,0.04153883619746504,0.0,0.0,-0.0981,-0.47088,9.92772
3434343400,22.35,0.031956978604016174,0.01811651763570114,0.002129301687433082,-0.3924,-0.48069000000000006,9.89829
3439393905,22.35,0.049008845396000776,-0.002129301687433082,0.0,-0.38259000000000004,-0.26487,9.87867
3444444410,22.35,0.054332099614583476,-0.001064650843716541,-0.002129301687433082,-0.16677000000000003,-0.30411,9.82962
3449494915,22.35,0.03089232776029963,0.015987215948268057,0.0,-0.32373,-0.48069000000000006,9.84924
3454545420,22.35,0.0404741853537485,-0.007452555906015787,0.001064650843716541,-0.46107000000000004,-0.31392000000000003,9.85905
3459595925,22.35,0.05539675045830002,-0.013840460968315033,-0.002129301687433082,-0.23544,-0.16677000000000003,9.78057
3464646430,22.35,0.04260348704118158,0.004258603374866164,-0.002129301687433082,-0.15696000000000002,-0.48069000000000006,9.80019
3469696935,22.35,0.014905111812031574,0.008517206749732328,-0.001064650843716541,-0.36297,-0.49050000000000005,9.83943
3474747440,22.35,0.05859070298944965,-0.003193952531149623,-0.001064650843716541,-0.41202000000000005,-0.13734000000000002,9.908100000000001
3479797945,22.35,0.05326744877086694,-0.012775810124598492,-0.001064650843716541,-0.06867000000000001,-0.31392000000000003,9.85905
3484848450,22.35,0.02769837522915001,0.01811651763570114,-0.001064650843716541,-0.26487,-0.44145,9.81
3489898955,22.35,0.044732788728614664,0.006387905062299246,0.0,-0.5395500000000001,-0.25506,9.82962
3494949460,22.35,0.05646140130201656,-0.01811651763570114,-0.003193952531149623,-0.20601000000000003,-0.18639,9.81
3499999965,22.35,0.04153883619746504,0.011711159280881954,0.0,-0.21582,-0.3924,9.79038
3505050470,22.35,0.024504422698000388,0.0,-0.001064650843716541,-0.46107000000000004,-0.42183,9.81
3510100975,22.35,0.054332099614583476,-0.011711159280881954,-0.002129301687433082,-0.27468000000000004,-0.12753,9.78057
3515151480,22.35,0.04794419455228423,-0.002129301687433082,-0.004258603374866164,-0.18639,-0.3924,9.888480000000001
3520201985,22.35,0.024504422698000388,0.008517206749732328,-0.001064650843716541,-0.36297,-0.43164,9.84924
3525252490,22.35,0.04794419455228423,-0.005323254218582705,0.0,-0.41202000000000005,-0.18639,9.91791
3530302995,22.35,0.05752605214573309,-0.012775810124598492,-0.003193952531149623,-0.15696000000000002,-0.22563,9.908100000000001
3535353500,22.35,0.028763026072866547,0.011711159280881954,-0.002129301687433082,-0.22563,-0.41202000000000005,9.85905
3540404005,22.35,0.03834488366631542,0.00958185759344887,-0.001064650843716541,-0.51993,-0.25506,9.83943
3545454510,22.35,0.05752605214573309,-0.014905111812031574,-0.003193952531149623,-0.28449,-0.11772,9.751140000000001
3550505015,22.35,0.04366813788489812,0.007452555906015787,-0.002129301687433082,-0.15696000000000002,-0.2943,9.770760000000001
3555555520,22.35,0.02556907354171693,0.012775810124598492,-0.001064650843716541,-0.42183,-0.35316,9.74133
3560606025,22.35,0.05007349623971732,-0.006387905062299246,0.0,-0.37278,-0.039240000000000004,9.7119
3565656530,22.35,0.05007349623971732,-0.006387905062299246,-0.001064650843716541,-0.20601000000000003,-0.26487,9.770760000000001
3570707035,22.35,0.015987215948268057,0.008517206749732328,0.0,-0.33354000000000006,-0.45126,9.83943
3575757540,22.35,0.0404741853537485,-0.007452555906015787,0.001064650843716541,-0.47088,-0.21582,9.908100000000001
3580808045,22.35,0.05965535383316618,-0.014905111812031574,-0.001064650843716541,-0.20601000000000003,-0.17658,9.937529999999999
3585858550,22.35,0.03408628029144926,0.005323254218582705,-0.002129301687433082,-0.12753,-0.3924,9.94734
3590909055,22.35,0.03515093113516579,0.012775810124598492,0.0,-0.45126,-0.32373,9.91791
3595959560,22.35,0.06284930636431581,-0.011711159280881954,-0.001064650843716541,-0.31392000000000003,-0.0981,9.91791
3601010065,22.35,0.05539675045830002,0.002129301687433082,-0.002129301687433082,-0.13734000000000002,-0.17658,9.78057
3606060570,22.35,0.03408628029144926,0.01811651763570114,-0.002129301687433082,-0.38259000000000004,-0.24525000000000002,9.73152
3611111075,22.35,0.044732788728614664,-0.002129301687433082,-0.001064650843716541,-0.37278,-0.10791,9.72171
3616161580,22.35,0.05113814708343386,-0.004258603374866164,-0.002129301687433082,-0.26487,-0.14715,9.73152
3621212085,22.35,0.028763026072866547,0.002129301687433082,-0.001064650843716541,-0.35316,-0.31392000000000003,9.73152
3626262590,22.35,0.03621558197888234,-0.012775810124598492,-0.001064650843716541,-0.36297,-0.20601000000000003,9.84924
3631313095,22.35,0.05113814708343386,-0.00958185759344887,0.0,-0.23544,-0.20601000000000003,9.91791
3636363600,22.35,0.03621558197888234,0.0,-0.001064650843716541,-0.15696000000000002,-0.32373,9.937529999999999
3641414105,22.35,0.04260348704118158,0.00958185759344887,0.0,-0.3924,-0.15696000000000002,9.91791
3646464610,22.35,0.054332099614583476,-0.005323254218582705,-0.003193952531149623,-0.27468000000000004,-0.13734000000000002,9.86886
3651515115,22.35,0.04794419455228423,0.006387905062299246,-0.001064650843716541,-0.21582,-0.16677000000000003,9.83943
3656565620,22.35,0.0404741853537485,0.013840460968315033,0.001064650843716541,-0.37278,-0.17658,9.770760000000001
3661616125,22.35,0.046879543708567686,0.0,-0.002129301687433082,-0.38259000000000004,-0.06867000000000001,9.751140000000001
3666666630,22.35,0.04366813788489812,-0.006387905062299246,0.0,-0.28449,-0.12753,9.72171
3671717135,22.35,0.028763026072866547,-0.002129301687433082,-0.002129301687433082,-0.32373,-0.26487,9.819809999999999
3676767640,22.35,0.02982767691658309,-0.005323254218582705,-0.004258603374866164,-0.2943,-0.21582,9.91791
3681818145,22.35,0.049008845396000776,-0.007452555906015787,0.0,-0.24525000000000002,-0.15696000000000002,9.908100000000001
3686868650,22.35,0.044732788728614664,0.001064650843716541,-0.001064650843716541,-0.21582,-0.15696000000000002,9.89829
3691919155,22.35,0.04260348704118158,0.006387905062299246,-0.001064650843716541,-0.27468000000000004,-0.14715,9.83943
3696969660,22.35,0.05007349623971732,0.007452555906015787,-0.002129301687433082,-0.30411,-0.10791,9.84924
3702020165,22.35,0.03728023282259888,0.003193952531149623,-0.002129301687433082,-0.34335000000000004,-0.0981,9.74133
3707070670,22.35,0.04581489286485115,0.002129301687433082,0.001064650843716541,-0.37278,-0.05886,9.73152
3712121175,22.35,0.03621558197888234,-0.005323254218582705,-0.004258603374866164,-0.28449,-0.15696000000000002,9.80019
3717171680,22.35,0.031956978604016174,-0.003193952531149623,0.0,-0.33354000000000006,-0.20601000000000003,9.80019
3722222185,22.35,0.0404741853537485,-0.004258603374866164,0.0,-0.37278,-0.12753,9.888480000000001
3727272690,22.35,0.04794419455228423,-0.014905111812031574,-0.001064650843716541,-0.20601000000000003,-0.12753,9.908100000000001
3732323195,22.35,0.0404741853537485,0.006387905062299246,-0.001064650843716541,-0.15696000000000002,-0.20601000000000003,9.92772
3737373700,22.35,0.03834488366631542,0.0170518667919846,-0.001064650843716541,-0.40221,-0.12753,9.87867
3742424205,22.35,0.05007349623971732,0.002129301687433082,-0.005323254218582705,-0.34335000000000004,0.02943,9.80019
3747474710,22.35,0.05007349623971732,0.0,-0.001064650843716541,-0.26487,-0.06867000000000001,9.78057
3752525215,22.35,0.02769837522915001,0.003193952531149623,-0.003193952531149623,-0.3924,-0.1962,9.72171
3757575720,22.35,0.03621558197888234,-0.005323254218582705,-0.001064650843716541,-0.38259000000000004,-0.02943,9.760950000000001
3762626225,22.35,0.04794419455228423,-0.008517206749732328,-0.001064650843716541,-0.25506,-0.009810000000000001,9.74133
3767676730,22.35,0.02982767691658309,0.001064650843716541,-0.002129301687433082,-0.20601000000000003,-0.21582,9.78057
3772727235,22.35,0.02663372438543347,0.006387905062299246,-0.002129301687433082,-0.38259000000000004,-0.14715,9.87867
3777777740,22.35,0.049008845396000776,-0.008517206749732328,0.0,-0.35316,0.0,9.908100000000001
3782828245,22.35,0.046879543708567686,-0.001064650843716541,-0.002129301687433082,-0.13734000000000002,-0.11772,9.91791
3787878750,22.35,0.03089232776029963,0.013840460968315033,0.0,-0.35316,-0.11772,9.83943
3792929255,22.35,0.04581489286485115,-0.001064650843716541,0.0,-0.36297,0.0,9.86886
3797979760,22.35,0.05007349623971732,-0.008517206749732328,-0.002129301687433082,-0.24525000000000002,0.0,9.78057
3803030265,22.35,0.033021629447732716,0.007452555906015787,0.001064650843716541,-0.31392000000000003,-0.14715,9.760950000000001
3808080770,22.35,0.03621558197888234,-0.001064650843716541,0.001064650843716541,-0.38259000000000004,0.0,9.819809999999999
3813131275,22.35,0.05326744877086694,-0.006387905062299246,-0.002129301687433082,-0.27468000000000004,0.08829,9.751140000000001
3818181780,22.35,0.039409534510031964,0.003193952531149623,0.0,-0.17658,-0.17658,9.760950000000001
3823232285,22.35,0.022375121010567305,0.007452555906015787,-0.001064650843716541,-0.45126,-0.13734000000000002,9.80019
3828282790,22.35,0.04581489286485115,-0.01811651763570114,-0.002129301687433082,-0.36297,0.06867000000000001,9.92772
3833333295,22.35,0.04153883619746504,-0.007452555906015787,-0.003193952531149623,-0.13734000000000002,-0.009810000000000001,9.82962
3838383800,22.35,0.02769837522915001,0.013840460968315033,0.001064650843716541,-0.2943,-0.17658,9.86886
3843434305,22.35,0.03728023282259888,-0.002129301687433082,-0.001064650843716541,-0.41202000000000005,-0.019620000000000002,9.89829
3848484810,22.35,0.054332099614583476,-0.006387905062299246,-0.002129301687433082,-0.21582,0.10791,9.82962
3853535315,22.35,0.03728023282259888,0.007452555906015787,0.001064650843716541,-0.20601000000000003,-0.14715,9.85905
3858585820,22.35,0.02556907354171693,0.01064650843716541,0.0,-0.38259000000000004,-0.019620000000000002,9.78057
3863636325,22.35,0.05220279792715039,-0.007452555906015787,0.0,-0.34335000000000004,0.1962,9.74133
3868686830,22.35,0.04153883619746504,-0.002129301687433082,-0.002129301687433082,-0.14715,0.039240000000000004,9.68247
3873737335,22.35,0.020245819323134222,0.0170518667919846,0.0,-0.35316,-0.14715,9.760950000000001
3878787840,22.35,0.02982767691658309,-0.003193952531149623,-0.002129301687433082,-0.48069000000000006,0.12753,9.78057
3883838345,22.35,0.05113814708343386,-0.022375121010567305,-0.004258603374866164,-0.1962,0.02943,9.86886
3888888850,22.35,0.022375121010567305,0.002129301687433082,0.0,-0.21582,-0.18639,9.91791
3893939355,22.35,0.020245819323134222,0.006387905062299246,-0.001064650843716541,-0.34335000000000004,-0.07848000000000001,9.99639
3898989860,22.35,0.05326744877086694,-0.013840460968315033,-0.002129301687433082,-0.30411,0.18639,9.908100000000001
3904040365,22.35,0.05007349623971732,0.006387905062299246,0.002129301687433082,-0.06867000000000001,0.019620000000000002,9.770760000000001
3909090870,22.35,0.023439771854283843,0.01811651763570114,0.0,-0.3924,-0.11772,9.81
3914141375,22.35,0.0404741853537485,0.006387905062299246,0.0,-0.45126,0.16677000000000003,9.760950000000001
3919191880,22.35,0.05007349623971732,-0.0170518667919846,-0.003193952531149623,-0.2943,0.21582,9.74133
3924242385,22.35,0.024504422698000388,0.008517206749732328,0.002129301687433082,-0.18639,-0.02943,9.633420000000001
3929292890,22.35,0.01918116847941768,0.0,0.002129301687433082,-0.47088,-0.04905,9.74133
3934343395,22.35,0.039409534510031964,-0.008517206749732328,0.0,-0.33354000000000006,0.16677000000000003,9.81
3939393900,22.35,0.03515093113516579,-0.014905111812031574,-0.005323254218582705,-0.18639,-0.009810000000000001,9.87867
3944444405,22.35,0.0170518667919846,0.007452555906015787,0.0,-0.2943,-0.07848000000000001,9.937529999999999
3949494910,22.35,0.033021629447732716,-0.002129301687433082,-0.004258603374866164,-0.30411,0.0,9.98658
3954545415,22.35,0.04581489286485115,0.006387905062299246,0.0,-0.23544,0.13734000000000002,9.92772
3959595920,22.35,0.033021629447732716,0.002129301687433082,-0.003193952531149623,-0.23544,0.009810000000000001,9.84924
3964646425,22.35,0.03408628029144926,0.014905111812031574,0.0,-0.35316,0.06867000000000001,9.74133
3969696930,22.35,0.0404741853537485,-0.002129301687433082,-0.001064650843716541,-0.34335000000000004,0.13734000000000002,9.81
3974747435,22.35,0.031956978604016174,0.003193952531149623,-0.002129301687433082,-0.27468000000000004,0.07848000000000001,9.70209
3979797940,22.35,0.024504422698000388,-0.003193952531149623,-0.002129301687433082,-0.38259000000000004,0.06867000000000001,9.73152
3984848445,22.35,0.03408628029144926,-0.005323254218582705,0.0,-0.25506,0.11772,9.70209
3989898950,22.35,0.033021629447732716,0.002129301687433082,0.0,-0.23544,0.10791,9.72171
3994949455,22.35,0.021310470166850764,0.008517206749732328,-0.001064650843716541,-0.36297,-0.02943,9.74133
3999999960,22.35,0.028763026072866547,-0.008517206749732328,0.0,-0.35316,0.11772,9.86886
4005050465,22.35,0.03089232776029963,-0.015987215948268057,0.001064650843716541,-0.27468000000000004,0.0,9.937529999999999
4010100970,22.35,0.02556907354171693,0.002129301687433082,0.0,-0.20601000000000003,0.039240000000000004,9.95715
4015151475,22.35,0.028763026072866547,-0.003193952531149623,0.0,-0.36297,-0.04905,9.97677
4020201980,22.35,0.03408628029144926,0.0,0.0,-0.24525000000000002,0.21582,9.908100000000001
4025252485,22.35,0.0404741853537485,0.0,-0.005323254218582705,-0.28449,0.019620000000000002,9.92772
4030302990,22.35,0.021310470166850764,0.007452555906015787,0.0,-0.20601000000000003,0.12753,9.770760000000001
4035353495,22.35,0.04366813788489812,0.014905111812031574,0.0,-0.44145,0.20601000000000003,9.751140000000001
4040404000,22.35,0.031956978604016174,-0.008517206749732328,0.0,-0.25506,0.14715,9.67266
4045454505,22.35,0.03089232776029963,0.007452555906015787,0.001064650843716541,-0.33354000000000006,0.15696000000000002,9.69228
4050505010,22.35,0.020245819323134222,-0.006387905062299246,0.0,-0.38259000000000004,0.06867000000000001,9.73152
4055555515,22.35,0.024504422698000388,-0.007452555906015787,0.002129301687433082,-0.21582,0.18639,9.67266
4060606020,22.35,0.02769837522915001,0.002129301687433082,-0.001064650843716541,-0.32373,0.08829,9.78057
4065656525,22.35,0.011711159280881954,-0.007452555906015787,-0.001064650843716541,-0.28449,-0.02943,9.819809999999999
4070707030,22.35,0.02769837522915001,0.004258603374866164,0.0,-0.37278,0.17658,9.937529999999999
4075757535,22.35,0.028763026072866547,-0.01064650843716541,-0.001064650843716541,-0.33354000000000006,0.02943,9.98658
4080808040,22.35,0.021310470166850764,-0.003193952531149623,-0.001064650843716541,-0.16677000000000003,0.05886,9.937529999999999
4085858545,22.35,0.028763026072866547,0.007452555906015787,0.0,-0.37278,0.10791,9.94734
4090909050,22.35,0.03089232776029963,-0.003193952531149623,-0.002129301687433082,-0.21582,0.16677000000000003,9.89829
4095959555,22.35,0.03728023282259888,0.01918116847941768,0.0,-0.27468000000000004,0.22563,9.79038
4101010060,22.35,0.02982767691658309,0.001064650843716541,0.0,-0.41202000000000005,0.11772,9.74133
4106060565,22.35,0.015987215948268057,-0.005323254218582705,-0.003193952531149623,-0.24525000000000002,0.20601000000000003,9.7119
4111111070,22.35,0.033021629447732716,0.013840460968315033,0.001064650843716541,-0.40221,0.32373,9.66285
4116161575,22.35,0.0170518667919846,-0.01918116847941768,0.0,-0.25506,0.009810000000000001,9.64323
4121212080,22.35,0.015987215948268057,0.01064650843716541,0.0,-0.33354000000000006,0.23544,9.67266
4126262585,22.35,0.023439771854283843,-0.00958185759344887,0.0,-0.45126,0.14715,9.85905
4131313090,22.35,0.013840460968315033,-0.013840460968315033,-0.005323254218582705,-0.08829,0.08829,9.78057
4136363595,22.35,0.01811651763570114,0.015987215948268057,-0.002129301687433082,-0.38259000000000004,0.16677000000000003,9.81
4141414100,22.35,0.02556907354171693,-0.00958185759344887,0.0,-0.36297,0.14715,9.86886
4146464605,22.35,0.01811651763570114,-0.002129301687433082,-0.001064650843716541,-0.16677000000000003,0.07848000000000001,9.888480000000001
4151515110,22.35,0.0170518667919846,0.012775810124598492,0.001064650843716541,-0.44145,0.12753,9.908100000000001
4156565615,22.35,0.02663372438543347,-0.01918116847941768,-0.002129301687433082,-0.28449,0.15696000000000002,9.908100000000001
4161616120,22.35,0.023439771854283843,0.001064650843716541,-0.002129301687433082,-0.16677000000000003,0.0981,9.94734
4166666625,22.35,0.01811651763570114,0.011711159280881954,0.0,-0.36297,0.0981,9.92772
4171717130,22.35,0.028763026072866547,-0.001064650843716541,-0.004258603374866164,-0.26487,0.2943,9.770760000000001
4176767635,22.35,0.03728023282259888,0.00958185759344887,-0.001064650843716541,-0.24525000000000002,0.23544,9.68247
4181818140,22.35,0.007452555906015787,0.007452555906015787,-0.003193952531149623,-0.37278,0.019620000000000002,9.7119
4186868645,22.35,0.014905111812031574,0.0,0.0,-0.45126,0.33354000000000006,9.73152
4191919150,22.35,0.03515093113516579,-0.014905111812031574,0.0,-0.31392000000000003,0.2943,9.760950000000001
4196969655,22.35,-0.003193952531149623,-0.004258603374866164,-0.003193952531149623,-0.13734000000000002,-0.04905,9.70209
4202020160,22.35,0.004258603374866164,0.013840460968315033,0.0,-0.50031,0.24525000000000002,9.80019
4207070665,22.35,0.03728023282259888,-0.022375121010567305,-0.002129301687433082,-0.25506,0.34335000000000004,9.84924
4212121170,22.35,0.015987215948268057,0.005323254218582705,-0.005323254218582705,-0.02943,0.02943,9.760950000000001
4217171675,22.35,-0.006387905062299246,0.02769837522915001,0.0,-0.5395500000000001,0.02943,9.85905
4222222180,22.35,0.023439771854283843,-0.02663372438543347,0.001064650843716541,-0.45126,0.41202000000000005,9.937529999999999
4227272685,22.35,0.03408628029144926,-0.014905111812031574,-0.006387905062299246,0.0,0.24525000000000002,9.87867
4232323190,22.35,-0.002129301687433082,0.02556907354171693,0.002129301687433082,-0.26487,-0.12753,9.79038
4237373695,22.35,0.0,0.001064650843716541,0.0,-0.5591700000000001,0.21582,9.86886
4242424200,22.35,0.05326744877086694,-0.020245819323134222,-0.001064650843716541,-0.23544,0.56898,9.82962
4247474705,22.35,0.020245819323134222,0.006387905062299246,-0.001064650843716541,0.06867000000000001,0.05886,9.67266
4252525210,22.35,-0.013840460968315033,0.04153883619746504,0.001064650843716541,-0.48069000000000006,0.019620000000000002,9.60399
4257575715,22.35,0.023439771854283843,-0.007452555906015787,0.0,-0.72594,0.3924,9.78057
4262626220,22.35,0.02556907354171693,-0.04153883619746504,-0.003193952531149623,-0.11772,0.28449,9.81
4267676725,22.35,-0.006387905062299246,0.012775810124598492,0.0,-0.15696000000000002,0.039240000000000004,9.770760000000001
4272727230,22.35,-0.004258603374866164,0.004258603374866164,0.0,-0.5395500000000001,0.0981,9.83943
4277777735,22.35,0.028763026072866547,-0.01064650843716541,-0.002129301687433082,-0.25506,0.33354000000000006,9.87867
4282828240,22.35,0.0170518667919846,0.0,-0.002129301687433082,-0.1962,0.06867000000000001,9.95715
4287878745,22.35,-0.001064650843716541,0.005323254218582705,0.0,-0.34335000000000004,0.10791,9.92772
4292929250,22.35,0.02982767691658309,0.0,0.0,-0.31392000000000003,0.43164,9.86886
4297979755,22.35,0.02663372438543347,0.004258603374866164,-0.003193952531149623,-0.17658,0.23544,9.69228
4303030260,22.35,-0.006387905062299246,0.014905111812031574,0.0,-0.34335000000000004,0.019620000000000002,9.7119
4308080765,22.35,0.011711159280881954,0.005323254218582705,0.002129301687433082,-0.5886,0.36297,9.770760000000001
4313131270,22.35,0.024504422698000388,-0.02556907354171693,-0.002129301687433082,-0.24525000000000002,0.33354000000000006,9.751140000000001
4318181775,22.35,-0.001064650843716541,-0.001064650843716541,0.0,-0.10791,0.08829,9.69228
4323232280,22.35,-0.007452555906015787,0.01064650843716541,0.0,-0.44145,0.08829,9.83943
4328282785,22.35,0.020245819323134222,-0.01064650843716541,0.0,-0.25506,0.38259000000000004,9.819809999999999
4333333290,22.35,0.01918116847941768,0.014905111812031574,0.0,-0.1962,0.30411,9.70209
4338383795,22.35,-0.007452555906015787,0.008517206749732328,-0.001064650843716541,-0.41202000000000005,0.019620000000000002,9.760950000000001
4343434300,22.35,-0.001064650843716541,-0.011711159280881954,-0.001064650843716541,-0.41202000000000005,0.1962,9.92772
4348484805,22.35,0.01918116847941768,-0.0170518667919846,-0.001064650843716541,-0.26487,0.27468000000000004,9.96696
4353535310,22.35,0.004258603374866164,0.001064650843716541,0.0,-0.10791,0.15696000000000002,9.78057
4358585815,22.35,0.001064650843716541,0.015987215948268057,-0.001064650843716541,-0.33354000000000006,0.20601000000000003,9.760950000000001
4363636320,22.35,0.014905111812031574,0.001064650843716541,0.0,-0.30411,0.28449,9.80019
4368686825,22.35,0.013840460968315033,0.006387905062299246,-0.001064650843716541,-0.24525000000000002,0.26487,9.70209
4373737330,22.35,0.0,0.01064650843716541,-0.003193952531149623,-0.41202000000000005,0.26487,9.67266
4378787835,22.35,0.005323254218582705,-0.012775810124598492,0.0,-0.40221,0.21582,9.73152
4383838340,22.35,-0.002129301687433082,-0.012775810124598492,0.0,-0.25506,0.14715,9.84924
4388888845,22.35,-0.004258603374866164,-0.00958185759344887,-0.003193952531149623,-0.31392000000000003,0.12753,9.89829
4393939350,22.35,0.003193952531149623,-0.007452555906015787,-0.001064650843716541,-0.20601000000000003,0.22563,9.888480000000001
4398989855,22.35,0.008517206749732328,0.007452555906015787,-0.001064650843716541,-0.22563,0.20601000000000003,9.908100000000001
4404040360,22.35,0.005323254218582705,0.01064650843716541,0.0,-0.31392000000000003,0.18639,9.888480000000001
4409090865,22.35,0.00958185759344887,0.003193952531149623,0.0,-0.33354000000000006,0.31392000000000003,9.83943
4414141370,22.35,0.011711159280881954,0.002129301687433082,-0.004258603374866164,-0.31392000000000003,0.28449,9.751140000000001
4419191875,22.35,-0.003193952531149623,0.001064650843716541,-0.003193952531149623,-0.2943,0.18639,9.72171
4424242380,22.35,0.0,0.002129301687433082,0.0,-0.37278,0.20601000000000003,9.760950000000001
4429292885,22.35,0.012775810124598492,-0.007452555906015787,0.0,-0.2943,0.35316,9.751140000000001
4434343390,22.35,0.0,-0.004258603374866164,-0.001064650843716541,-0.20601000000000003,0.20601000000000003,9.66285
4439393895,22.35,-0.00958185759344887,0.005323254218582705,0.0,-0.2943,0.11772,9.74133
4444444400,22.35,-0.003193952531149623,-0.002129301687433082,-0.002129301687433082,-0.3924,0.21582,9.84924
4449494905,22.35,0.008517206749732328,-0.004258603374866164,-0.001064650843716541,-0.2943,0.27468000000000004,9.86886
4454545410,22.35,-0.004258603374866164,-0.002129301687433082,0.0,-0.27468000000000004,0.16677000000000003,9.85905
4459595915,22.35,-0.01064650843716541,-0.004258603374866164,-0.003193952531149623,-0.30411,0.0981,9.92772
4464646420,22.35,0.001064650843716541,-0.001064650843716541,-0.003193952531149623,-0.2943,0.17658,9.97677
4469696925,22.35,0.011711159280881954,0.0,0.001064650843716541,-0.25506,0.26487,9.908100000000001
4474747430,22.35,0.004258603374866164,0.008517206749732328,0.0,-0.27468000000000004,0.25506,9.760950000000001
4479797935,22.35,0.0,0.005323254218582705,0.001064650843716541,-0.35316,0.21582,9.751140000000001
4484848440,22.35,0.0,-0.001064650843716541,0.0,-0.34335000000000004,0.23544,9.770760000000001
4489898945,22.35,0.001064650843716541,0.0,0.001064650843716541,-0.31392000000000003,0.27468000000000004,9.751140000000001
4494949450,22.35,-0.003193952531149623,-0.002129301687433082,-0.002129301687433082,-0.30411,0.23544,9.70209
4499999955,22.35,-0.00958185759344887,-0.002129301687433082,0.0,-0.31392000000000003,0.18639,9.770760000000001
4505050460,22.35,-0.006387905062299246,-0.004258603374866164,0.0,-0.2943,0.20601000000000003,9.79038
4510100965,22.35,-0.003193952531149623,0.0,0.0,-0.26487,0.24525000000000002,9.760950000000001
4515151470,22.35,-0.001064650843716541,0.005323254218582705,0.0,-0.27468000000000004,0.23544,9.770760000000001
4520201975,22.35,-0.007452555906015787,0.004258603374866164,0.0,-0.37278,0.17658,9.83943
4525252480,22.35,-0.006387905062299246,-0.005323254218582705,0.0,-0.30411,0.23544,9.85905
4530302985,22.35,-0.002129301687433082,-0.003193952531149623,0.0,-0.27468000000000004,0.28449,9.81
4535353490,22.35,-0.00958185759344887,0.003193952531149623,0.0,-0.26487,0.20601000000000003,9.73152
4540403995,22.35,-0.012775810124598492,0.004258603374866164,0.0,-0.32373,0.25506,9.74133
4545454500,22.35,-0.001064650843716541,0.0,0.0,-0.33354000000000006,0.28449,9.74133
4550505005,22.35,-0.012775810124598492,0.0,0.0,-0.26487,0.18639,9.760950000000001
4555555510,22.35,-0.015987215948268057,0.002129301687433082,0.0,-0.35316,0.12753,9.82962
4560606015,22.35,-0.007452555906015787,-0.008517206749732328,0.0,-0.3924,0.18639,9.95715
4565656520,22.35,-0.001064650843716541,-0.011711159280881954,0.0,-0.20601000000000003,0.20601000000000003,9.99639
4570707025,22.35,-0.004258603374866164,0.003193952531149623,0.0,-0.21582,0.14715,9.92772
4575757530,22.35,-0.007452555906015787,0.004258603374866164,0.0,-0.25506,0.23544,9.81
4580808035,22.35,0.002129301687433082,0.007452555906015787,0.0,-0.24525000000000002,0.36297,9.7119
4585858540,22.35,-0.005323254218582705,0.014905111812031574,0.0,-0.30411,0.32373,9.60399
4590909045,22.35,-0.015987215948268057,0.007452555906015787,0.0,-0.38259000000000004,0.20601000000000003,9.55494
4595959550,22.35,-0.015987215948268057,-0.001064650843716541,0.0,-0.46107000000000004,0.26487,9.66285
4601010055,22.35,-0.021310470166850764,-0.024504422698000388,0.0,-0.31392000000000003,0.17658,9.81
4606060560,22.35,-0.02556907354171693,-0.01811651763570114,0.0,-0.20601000000000003,0.0981,9.81
4611111065,22.35,-0.01918116847941768,-0.006387905062299246,0.0,-0.20601000000000003,0.15696000000000002,9.888480000000001
4616161570,22.35,-0.003193952531149623,0.006387905062299246,0.0,-0.18639,0.20601000000000003,9.84924
4621212075,22.35,-0.002129301687433082,0.01811651763570114,0.0,-0.31392000000000003,0.22563,9.83943
4626262580,22.35,-0.012775810124598492,0.004258603374866164,0.0,-0.45126,0.16677000000000003,9.888480000000001
4631313085,22.35,-0.013840460968315033,-0.008517206749732328,0.0,-0.37278,0.17658,9.91791
4636363590,22.35,-0.012775810124598492,-0.01064650843716541,0.0,-0.25506,0.16677000000000003,9.86886
4641414095,22.35,-0.01811651763570114,-0.001064650843716541,0.0,-0.22563,0.22563,9.819809999999999
4646464600,22.35,-0.005323254218582705,0.008517206749732328,0.0,-0.24525000000000002,0.22563,9.770760000000001
4651515105,22.35,-0.01064650843716541,0.011711159280881954,0.0,-0.30411,0.16677000000000003,9.68247
4656565610,22.35,-0.014905111812031574,0.004258603374866164,0.0,-0.3924,0.21582,9.751140000000001
4661616115,22.35,-0.013840460968315033,-0.006387905062299246,0.0,-0.35316,0.32373,9.770760000000001
4666666620,22.35,-0.01918116847941768,-0.008517206749732328,0.0,-0.25506,0.1962,9.7119
4671717125,22.35,-0.031956978604016174,0.004258603374866164,0.0,-0.28449,0.019620000000000002,9.770760000000001
4676767630,22.35,-0.024504422698000388,-0.003193952531149623,0.0,-0.42183,0.11772,9.92772
4681818135,22.35,-0.01064650843716541,-0.020245819323134222,0.0,-0.26487,0.25506,9.96696
4686868640,22.35,-0.008517206749732328,-0.002129301687433082,0.0,-0.04905,0.18639,9.87867
4691919145,22.35,-0.0170518667919846,0.01918116847941768,0.0,-0.23544,0.02943,9.81
4696969650,22.35,-0.020245819323134222,0.01811651763570114,0.0,-0.48069000000000006,0.1962,9.80019
4702020155,22.35,0.0,-0.007452555906015787,0.0,-0.44145,0.41202000000000005,9.81
4707070660,22.35,-0.013840460968315033,-0.00958185759344887,0.0,-0.15696000000000002,0.26487,9.68247
4712121165,22.35,-0.03408628029144926,0.008517206749732328,0.0,-0.26487,0.0,9.64323
4717171670,22.35,-0.031956978604016174,0.004258603374866164,0.0,-0.49050000000000005,0.07848000000000001,9.78057
4722222175,22.35,-0.012775810124598492,-0.021310470166850764,0.0,-0.33354000000000006,0.38259000000000004,9.83943
4727272680,22.35,-0.00958185759344887,-0.008517206749732328,0.0,-0.06867000000000001,0.23544,9.80019
4732323185,22.35,-0.03408628029144926,0.013840460968315033,0.0,-0.24525000000000002,-0.10791,9.760950000000001
4737373690,22.35,-0.03621558197888234,0.00958185759344887,0.0,-0.52974,0.10791,9.85905
4742424195,22.35,0.003193952531149623,-0.014905111812031574,0.0,-0.34335000000000004,0.48069000000000006,9.94734
4747474700,22.35,-0.01064650843716541,-0.004258603374866164,0.0,-0.039240000000000004,0.16677000000000003,9.81
4752525205,22.35,-0.05007349623971732,0.023439771854283843,0.0,-0.2943,-0.12753,9.74133
4757575710,22.35,-0.02769837522915001,0.003193952531149623,0.0,-0.6278400000000001,0.26487,9.85905
4762626215,22.35,0.006387905062299246,-0.033021629447732716,-0.005323254218582705,-0.14715,0.41202000000000005,9.87867
4767676720,22.35,-0.02556907354171693,0.00958185759344887,0.001064650843716541,0.0,-0.04905,9.7119
4772727225,22.35,-0.05113814708343386,0.03408628029144926,0.003193952531149623,-0.5886,0.0,9.74133
4777777730,22.35,-0.007452555906015787,-0.022375121010567305,0.0,-0.51012,0.42183,9.89829
4782828235,22.35,-0.00958185759344887,-0.024504422698000388,-0.002129301687433082,0.009810000000000001,0.07848000000000001,9.87867
4787878740,22.35,-0.054332099614583476,0.023439771854283843,0.001064650843716541,-0.26487,-0.13734000000000002,9.82962
4792929245,22.35,-0.020245819323134222,0.003193952531149623,0.003193952531149623,-0.5886,0.33354000000000006,9.87867
4797979750,22.35,0.007452555906015787,-0.020245819323134222,-0.007452555906015787,-0.08829,0.31392000000000003,9.83943
4803030255,22.35,-0.039409534510031964,0.022375121010567305,0.001064650843716541,-0.12753,-0.05886,9.73152
4808080760,22.35,-0.039409534510031964,0.01811651763570114,0.001064650843716541,-0.60822,0.15696000000000002,9.79038
4813131265,22.35,-0.003193952531149623,-0.021310470166850764,0.001064650843716541,-0.31392000000000003,0.33354000000000006,9.760950000000001
4818181770,22.35,-0.023439771854283843,0.003193952531149623,0.0,-0.16677000000000003,0.039240000000000004,9.770760000000001
4823232275,22.35,-0.05113814708343386,0.003193952531149623,-0.002129301687433082,-0.42183,-0.02943,9.81
4828282780,22.35,-0.023439771854283843,-0.01918116847941768,-0.003193952531149623,-0.2943,0.24525000000000002,9.819809999999999
4833333285,22.35,-0.01064650843716541,0.005323254218582705,0.0,-0.0981,0.18639,9.80019
4838383790,22.35,-0.03834488366631542,0.015987215948268057,0.002129301687433082,-0.31392000000000003,-0.11772,9.770760000000001
4843434295,22.35,-0.03408628029144926,0.0,0.0,-0.47088,0.20601000000000003,9.82962
4848484800,22.35,-0.007452555906015787,-0.011711159280881954,-0.003193952531149623,-0.2943,0.32373,9.83943
4853535305,22.35,-0.04366813788489812,-0.002129301687433082,-0.002129301687433082,-0.06867000000000001,-0.16677000000000003,9.81
4858585810,22.35,-0.046879543708567686,0.024504422698000388,0.0,-0.50031,0.02943,9.819809999999999
4863636315,22.35,-0.014905111812031574,-0.02663372438543347,-0.001064650843716541,-0.46107000000000004,0.18639,9.99639
4868686820,22.35,-0.023439771854283843,-0.015987215948268057,-0.001064650843716541,0.039240000000000004,0.08829,9.87867
4873737325,22.35,-0.03728023282259888,0.031956978604016174,0.002129301687433082,-0.33354000000000006,-0.009810000000000001,9.83943
4878787830,22.35,-0.03089232776029963,-0.008517206749732328,0.0,-0.41202000000000005,0.10791,9.819809999999999
4883838335,22.35,-0.002129301687433082,0.004258603374866164,0.0,-0.14715,0.37278,9.74133
4888888840,22.35,-0.03515093113516579,0.015987215948268057,0.0,-0.37278,-0.08829,9.70209
4893939345,22.35,-0.054332099614583476,0.001064650843716541,-0.003193952531149623,-0.42183,0.04905,9.67266
4898989850,22.35,-0.013840460968315033,-0.011711159280881954,0.0,-0.45126,0.28449,9.80019
4904040355,22.35,-0.03515093113516579,-0.022375121010567305,0.0,-0.07848000000000001,-0.0981,9.80019
4909090860,22.35,-0.049008845396000776,0.021310470166850764,0.001064650843716541,-0.30411,0.0,9.78057
4914141365,22.35,-0.024504422698000388,-0.004258603374866164,0.002129301687433082,-0.48069000000000006,0.12753,9.86886
4919191870,22.35,-0.01811651763570114,-0.011711159280881954,-0.001064650843716541,-0.07848000000000001,0.18639,9.80019
4924242375,22.35,-0.039409534510031964,0.021310470166850764,-0.001064650843716541,-0.26487,-0.11772,9.81
4929292880,22.35,-0.049008845396000776,0.004258603374866164,-0.002129301687433082,-0.51993,0.019620000000000002,9.86886
4934343385,22.35,-0.0170518667919846,-0.020245819323134222,0.0,-0.31392000000000003,0.18639,9.94734
4939393890,22.35,-0.03621558197888234,-0.00958185759344887,-0.001064650843716541,-0.15696000000000002,-0.04905,9.937529999999999
4944444395,22.35,-0.044732788728614664,0.003193952531149623,0.0,-0.32373,-0.0981,9.888480000000001
4949494900,22.35,-0.023439771854283843,0.002129301687433082,0.001064650843716541,-0.2943,0.12753,9.86886
4954545405,22.35,-0.011711159280881954,0.006387905062299246,-0.003193952531149623,-0.23544,0.12753,9.73152
4959595910,22.35,-0.044732788728614664,0.0170518667919846,0.0,-0.25506,-0.06867000000000001,9.67266
4964646415,22.35,-0.02769837522915001,0.012775810124598492,0.002129301687433082,-0.51012,0.22563,9.68247
4969696920,22.35,-0.023439771854283843,-0.01811651763570114,-0.001064650843716541,-0.25506,0.07848000000000001,9.72171
4974747425,22.35,-0.04581489286485115,0.006387905062299246,0.0,-0.25506,-0.019620000000000002,9.6138
4979797930,22.35,-0.05220279792715039,-0.005323254218582705,0.0,-0.48069000000000006,-0.11772,9.81
4984848435,22.35,-0.03408628029144926,-0.01811651763570114,-0.002129301687433082,-0.25506,0.17658,9.81
4989898940,22.35,-0.02982767691658309,-0.004258603374866164,0.0,-0.15696000000000002,-0.12753,9.937529999999999
4994949445,22.35,-0.054332099614583476,0.008517206749732328,0.002129301687433082,-0.34335000000000004,-0.17658,9.94734
4999999950,22.35,-0.028763026072866547,-0.006387905062299246,-0.001064650843716541,-0.41202000000000005,0.06867000000000001,10.05525
5005050455,22.35,-0.014905111812031574,-0.005323254218582705,-0.002129301687433082,-0.20601000000000003,0.11772,9.937529999999999
5010100960,22.35,-0.03621558197888234,0.01064650843716541,0.001064650843716541,-0.12753,-0.16677000000000003,9.84924
5015151465,22.35,-0.04260348704118158,0.01918116847941768,0.002129301687433082,-0.52974,0.039240000000000004,9.82962
5020201970,22.35,-0.020245819323134222,-0.014905111812031574,-0.003193952531149623,-0.31392000000000003,0.11772,9.81
5025252475,22.35,-0.033021629447732716,0.002129301687433082,-0.001064650843716541,-0.17658,0.02943,9.633420000000001
5030302980,22.35,-0.04794419455228423,0.012775810124598492,0.0,-0.35316,-0.10791,9.70209
5035353485,22.35,-0.03728023282259888,-0.004258603374866164,0.002129301687433082,-0.44145,0.12753,9.67266
5040403990,22.35,-0.02556907354171693,-0.013840460968315033,0.0,-0.20601000000000003,0.04905,9.74133
5045454495,22.35,-0.05326744877086694,0.004258603374866164,-0.001064650843716541,-0.28449,-0.10791,9.68247
5050505000,22.35,-0.049008845396000776,0.003193952531149623,0.002129301687433082,-0.33354000000000006,-0.11772,9.82962
5055555505,22.35,-0.0404741853537485,-0.006387905062299246,0.0,-0.42183,0.009810000000000001,9.92772
5060606010,22.35,-0.03728023282259888,-0.01811651763570114,-0.001064650843716541,-0.18639,-0.13734000000000002,10.01601
5065656515,22.35,-0.04794419455228423,-0.004258603374866164,-0.001064650843716541,-0.25506,-0.14715,9.99639
5070707020,22.35,-0.02982767691658309,0.01064650843716541,0.001064650843716541,-0.20601000000000003,-0.04905,10.006200000000002
5075757525,22.35,-0.02663372438543347,0.004258603374866164,-0.002129301687433082,-0.2943,-0.02943,9.85905
5080808030,22.35,-0.03089232776029963,0.015987215948268057,0.001064650843716541,-0.27468000000000004,0.02943,9.79038
5085858535,22.35,-0.033021629447732716,-0.0,-0.001064650843716541,-0.40221,-0.019620000000000002,9.72171
5090909040,22.35,-0.03408628029144926,0.008517206749732328,0.001064650843716541,-0.23544,0.0,9.58437
5095959545,22.35,-0.044732788728614664,0.002129301687433082,0.0,-0.45126,-0.06867000000000001,9.633420000000001
5101010050,22.35,-0.046879543708567686,-0.005323254218582705,0.0,-0.3924,0.08829,9.65304
5106060555,22.35,-0.0404741853537485,-0.021310470166850764,0.0,-0.20601000000000003,-0.15696000000000002,9.74133
5111111060,22.35,-0.05646140130201656,0.005323254218582705,0.003193952531149623,-0.2943,-0.26487,9.79038
5116161565,22.35,-0.05113814708343386,-0.011711159280881954,0.0,-0.41202000000000005,-0.17658,10.08468
5121212070,22.35,-0.023439771854283843,-0.013840460968315033,0.001064650843716541,-0.1962,0.0,10.06506
5126262575,22.35,-0.03621558197888234,-0.003193952531149623,-0.002129301687433082,-0.02943,-0.23544,10.01601
5131313080,22.35,-0.04260348704118158,0.02663372438543347,0.002129301687433082,-0.36297,-0.18639,9.91791
5136363585,22.35,-0.02769837522915001,0.004258603374866164,-0.001064650843716541,-0.43164,0.07848000000000001,9.89829
5141414090,22.35,-0.014905111812031574,-0.001064650843716541,-0.001064650843716541,-0.18639,0.04905,9.760950000000001
5146464595,22.35,-0.05220279792715039,0.012775810124598492,0.0,-0.2943,-0.20601000000000003,9.64323
5151515100,22.35,-0.04794419455228423,0.00958185759344887,0.004258603374866164,-0.52974,-0.05886,9.633420000000001
5156565605,22.35,-0.028763026072866547,-0.01811651763570114,0.0,-0.33354000000000006,0.07848000000000001,9.70209
5161616110,22.35,-0.04366813788489812,-0.007452555906015787,-0.001064650843716541,-0.16677000000000003,-0.1962,9.72171
5166666615,22.35,-0.06710790973918197,0.0,0.0,-0.37278,-0.34335000000000004,9.82962
5171717120,22.35,-0.039409534510031964,-0.011711159280881954,0.0,-0.40221,-0.05886,9.87867
5176767625,22.35,-0.021310470166850764,-0.008517206749732328,0.0,-0.08829,-0.04905,9.95715
5181818130,22.35,-0.05007349623971732,0.012775810124598492,0.0,-0.21582,-0.33354000000000006,9.87867
5186868635,22.35,-0.05007349623971732,0.011711159280881954,0.0,-0.49050000000000005,-0.17658,9.92772
5191919140,22.35,-0.021310470166850764,-0.01064650843716541,0.0,-0.34335000000000004,0.02943,9.908100000000001
5196969645,22.35,-0.03515093113516579,-0.001064650843716541,0.0,-0.11772,-0.17658,9.84924
5202020150,22.35,-0.05752605214573309,0.015987215948268057,0.0,-0.3924,-0.25506,9.79038
5207070655,22.35,-0.039409534510031964,-0.007452555906015787,0.0,-0.41202000000000005,0.019620000000000002,9.751140000000001
5212121160,22.35,-0.028763026072866547,-0.008517206749732328,0.0,-0.14715,-0.16677000000000003,9.79038
5217171665,22.35,-0.05646140130201656,0.013840460968315033,0.0,-0.31392000000000003,-0.32373,9.78057
5222222170,22.35,-0.04366813788489812,-0.008517206749732328,0.0,-0.50031,-0.07848000000000001,9.83943
5227272675,22.35,-0.01811651763570114,-0.015987215948268057,0.0,-0.13734000000000002,0.009810000000000001,9.81
5232323180,22.35,-0.05220279792715039,0.011711159280881954,0.0,-0.15696000000000002,-0.3924,9.760950000000001
5237373685,22.35,-0.06178465552059926,0.015987215948268057,0.0,-0.50031,-0.23544,9.81
5242424190,22.35,-0.024504422698000388,-0.01918116847941768,0.0,-0.37278,0.04905,9.92772
5247474695,22.35,-0.02982767691658309,-0.011711159280881954,0.0,-0.05886,-0.21582,9.79038
5252525200,22.35,-0.06391395720803235,0.01918116847941768,0.0,-0.33354000000000006,-0.45126,9.81
5257575705,22.35,-0.04366813788489812,-0.001064650843716541,0.0,-0.50031,-0.02943,9.85905
5262626210,22.35,-0.0170518667919846,-0.020245819323134222,0.0,-0.12753,-0.04905,9.91791
5267676715,22.35,-0.05326744877086694,0.012775810124598492,0.0,-0.14715,-0.40221,9.81
5272727220,22.35,-0.06178465552059926,0.013840460968315033,0.0,-0.5493600000000001,-0.27468000000000004,9.84924
5277777725,22.35,-0.015987215948268057,-0.020245819323134222,0.0,-0.36297,0.0,9.89829
5282828230,22.35,-0.039409534510031964,-0.003193952531149623,0.0,-0.05886,-0.27468000000000004,9.81
5287878735,22.35,-0.06391395720803235,0.020245819323134222,0.0,-0.41202000000000005,-0.40221,9.770760000000001
5292929240,22.35,-0.039409534510031964,-0.006387905062299246,0.0,-0.50031,-0.039240000000000004,9.81
5297979745,22.35,-0.020245819323134222,-0.015987215948268057,0.0,-0.13734000000000002,-0.12753,9.80019
5303030250,22.35,-0.05965535383316618,0.014905111812031574,0.0,-0.22563,-0.40221,9.74133
5308080755,22.35,-0.05113814708343386,0.00958185759344887,0.0,-0.51012,-0.1962,9.79038
5313131260,22.35,-0.024504422698000388,-0.021310470166850764,0.0,-0.28449,-0.14715,9.86886
5318181765,22.35,-0.046879543708567686,0.004258603374866164,0.0,-0.18639,-0.40221,9.85905
5323232270,22.35,-0.06391395720803235,0.003193952531149623,0.0,-0.46107000000000004,-0.38259000000000004,9.95715
5328282775,22.35,-0.024504422698000388,-0.01918116847941768,0.0,-0.2943,-0.10791,9.97677
5333333280,22.35,-0.03089232776029963,-0.001064650843716541,0.0,-0.04905,-0.33354000000000006,9.92772
5338383785,22.35,-0.05326744877086694,0.023439771854283843,0.0,-0.36297,-0.42183,9.78057
5343434290,22.35,-0.03515093113516579,0.001064650843716541,0.0,-0.45126,-0.07848000000000001,9.84924
5348484795,22.35,-0.022375121010567305,-0.011711159280881954,0.0,-0.14715,-0.0981,9.751140000000001
5353535300,22.35,-0.046879543708567686,0.014905111812031574,0.0,-0.24525000000000002,-0.36297,9.68247
5358585805,22.35,-0.05646140130201656,0.008517206749732328,0.0,-0.49050000000000005,-0.28449,9.69228
5363636310,22.35,-0.03728023282259888,-0.021310470166850764,0.0,-0.33354000000000006,-0.15696000000000002,9.79038
5368686815,22.35,-0.04366813788489812,-0.012775810124598492,0.0,-0.14715,-0.37278,9.84924
5373737320,22.35,-0.06497860805174888,0.0,0.0,-0.31392000000000003,-0.46107000000000004,9.85905
5378787825,22.35,-0.03834488366631542,-0.003193952531149623,0.0,-0.35316,-0.26487,9.95715
5383838330,22.35,-0.03089232776029963,-0.005323254218582705,0.0,-0.16677000000000003,-0.31392000000000003,9.97677
5388888835,22.35,-0.04366813788489812,0.01064650843716541,0.0,-0.26487,-0.38259000000000004,9.89829
5393939340,22.35,-0.03834488366631542,0.00958185759344887,0.0,-0.35316,-0.21582,9.84924
5398989845,22.35,-0.02663372438543347,-0.002129301687433082,0.0,-0.28449,-0.22563,9.751140000000001
5404040350,22.35,-0.044732788728614664,0.012775810124598492,0.0,-0.2943,-0.31392000000000003,9.74133
5409090855,22.35,-0.04581489286485115,0.0,0.0,-0.44145,-0.33354000000000006,9.770760000000001
5414141360,22.35,-0.04366813788489812,-0.01918116847941768,0.0,-0.27468000000000004,-0.2943,9.81
5419191865,22.35,-0.04794419455228423,-0.006387905062299246,0.0,-0.23544,-0.42183,9.86886
5424242370,22.35,-0.054332099614583476,-0.005323254218582705,0.0,-0.32373,-0.44145,9.908100000000001
5429292875,22.35,-0.03408628029144926,-0.005323254218582705,0.0,-0.23544,-0.27468000000000004,9.89829
5434343380,22.35,-0.031956978604016174,0.00958185759344887,0.0,-0.1962,-0.2943,9.83943
5439393885,22.35,-0.04260348704118158,0.012775810124598492,0.0,-0.32373,-0.41202000000000005,9.81
5444444390,22.35,-0.03834488366631542,0.008517206749732328,0.0,-0.43164,-0.27468000000000004,9.81
5449494895,22.35,-0.03408628029144926,-0.008517206749732328,0.0,-0.31392000000000003,-0.27468000000000004,9.82962
5454545400,22.35,-0.04794419455228423,-0.002129301687433082,0.0,-0.22563,-0.3924,9.770760000000001
5459595905,22.35,-0.05220279792715039,0.002129301687433082,0.0,-0.37278,-0.45126,9.86886
5464646410,22.35,-0.0404741853537485,-0.012775810124598492,0.0,-0.30411,-0.36297,9.89829
5469696915,22.35,-0.03515093113516579,-0.00958185759344887,0.0,-0.18639,-0.42183,9.91791
5474747420,22.35,-0.04260348704118158,0.005323254218582705,0.0,-0.23544,-0.41202000000000005,9.87867
5479797925,22.35,-0.03621558197888234,0.004258603374866164,0.0,-0.2943,-0.35316,9.85905
5484848430,22.35,-0.03408628029144926,0.008517206749732328,0.0,-0.33354000000000006,-0.32373,9.82962
5489898935,22.35,-0.04260348704118158,0.003193952531149623,0.0,-0.35316,-0.38259000000000004,9.78057
5494949440,22.35,-0.04260348704118158,-0.005323254218582705,0.0,-0.34335000000000004,-0.37278,9.78057
5499999945,22.35,-0.04366813788489812,-0.002129301687433082,0.0,-0.28449,-0.40221,9.760950000000001
5505050450,22.35,-0.04366813788489812,0.001064650843716541,0.0,-0.28449,-0.41202000000000005,9.78057
5510100955,22.35,-0.04366813788489812,-0.003193952531149623,0.0,-0.32373,-0.42183,9.83943
5515151460,22.35,-0.04366813788489812,-0.007452555906015787,0.0,-0.28449,-0.43164,9.85905
5520201965,22.35,-0.04153883619746504,-0.002129301687433082,0.0,-0.30411,-0.46107000000000004,9.92772
5525252470,22.35,-0.03728023282259888,-0.001064650843716541,0.0,-0.26487,-0.42183,9.937529999999999
5530302975,22.35,-0.031956978604016174,0.002129301687433082,0.0,-0.25506,-0.44145,9.908100000000001
5535353480,22.35,-0.0404741853537485,0.006387905062299246,0.0,-0.30411,-0.49050000000000005,9.86886
5540403985,22.35,-0.03515093113516579,0.004258603374866164,0.0,-0.37278,-0.37278,9.82962
5545454490,22.35,-0.03408628029144926,-0.004258603374866164,0.0,-0.28449,-0.43164,9.819809999999999
5550504995,22.35,-0.0404741853537485,0.004258603374866164,0.0,-0.28449,-0.42183,9.770760000000001
5555555500,22.35,-0.039409534510031964,0.0,0.0,-0.34335000000000004,-0.44145,9.78057
5560606005,22.35,-0.03834488366631542,-0.002129301687433082,0.0,-0.32373,-0.34335000000000004,9.69228
5565656510,22.35,-0.03834488366631542,0.002129301687433082,0.0,-0.25506,-0.51012,9.770760000000001
5570707015,22.35,-0.05326744877086694,0.003193952531149623,0.0,-0.3924,-0.57879,9.85905
5575757520,22.35,-0.039409534510031964,-0.006387905062299246,0.0,-0.35316,-0.40221,9.91791
5580808025,22.35,-0.03089232776029963,-0.014905111812031574,0.0,-0.22563,-0.48069000000000006,9.888480000000001
5585858530,22.35,-0.044732788728614664,0.007452555906015787,0.0,-0.18639,-0.5886,9.87867
5590909035,22.35,-0.03834488366631542,0.004258603374866164,0.0,-0.3924,-0.5395500000000001,9.98658
5595959540,22.35,-0.024504422698000388,-0.005323254218582705,0.0,-0.26487,-0.33354000000000006,9.89829
5601010045,22.35,-0.02663372438543347,0.001064650843716541,0.0,-0.14715,-0.51993,9.819809999999999
5606060550,22.35,-0.05007349623971732,0.020245819323134222,0.0,-0.38259000000000004,-0.5493600000000001,9.72171
5611111055,22.35,-0.03408628029144926,0.0,0.0,-0.41202000000000005,-0.35316,9.78057
5616161560,22.35,-0.02556907354171693,-0.008517206749732328,0.0,-0.26487,-0.34335000000000004,9.73152
5621212065,22.35,-0.05007349623971732,0.0,0.0,-0.23544,-0.6867000000000001,9.73152
5626262570,22.35,-0.05539675045830002,0.0,0.0,-0.47088,-0.5886,9.84924
5631313075,22.35,-0.03621558197888234,-0.014905111812031574,0.0,-0.28449,-0.37278,9.95715
5636363580,22.35,-0.03089232776029963,-0.013840460968315033,0.0,-0.07848000000000001,-0.57879,9.99639
5641414085,22.35,-0.04581489286485115,0.01918116847941768,0.0,-0.26487,-0.6768900000000001,9.87867
5646464590,22.35,-0.03089232776029963,0.0,0.0,-0.41202000000000005,-0.52974,9.95715
5651515095,22.35,-0.015987215948268057,0.0,0.0,-0.22563,-0.2943,9.84924
5656565600,22.35,-0.03515093113516579,0.003193952531149623,0.0,-0.18639,-0.60822,9.82962
5661616105,22.35,-0.04794419455228423,0.0170518667919846,0.0,-0.44145,-0.5395500000000001,9.67266
5666666610,22.35,-0.02769837522915001,-0.00958185759344887,0.0,-0.41202000000000005,-0.41202000000000005,9.751140000000001
5671717115,22.35,-0.02556907354171693,-0.01064650843716541,0.0,-0.25506,-0.40221,9.68247
5676767620,22.35,-0.04794419455228423,-0.003193952531149623,0.0,-0.20601000000000003,-0.75537,9.80019
5681818125,22.35,-0.044732788728614664,0.004258603374866164,0.0,-0.51012,-0.5591700000000001,9.819809999999999
5686868630,22.35,-0.033021629447732716,-0.021310470166850764,0.0,-0.22563,-0.59841,9.98658
5691919135,22.35,-0.033021629447732716,-0.003193952531149623,0.0,-0.18639,-0.5395500000000001,9.937529999999999
5696969640,22.35,-0.03834488366631542,0.00958185759344887,0.0,-0.20601000000000003,-0.6768900000000001,10.006200000000002
5702020145,22.35,-0.02663372438543347,0.01064650843716541,0.0,-0.3924,-0.43164,9.86886
5707070650,22.35,-0.022375121010567305,0.004258603374866164,0.0,-0.24525000000000002,-0.5395500000000001,9.84924
5712121155,22.35,-0.03408628029144926,0.002129301687433082,0.0,-0.38259000000000004,-0.5395500000000001,9.78057
5717171660,22.35,-0.0404741853537485,0.002129301687433082,0.0,-0.31392000000000003,-0.5493600000000001,9.81
5722222165,22.35,-0.023439771854283843,-0.003193952531149623,0.0,-0.35316,-0.45126,9.70209
5727272670,22.35,-0.03834488366631542,0.0,0.0,-0.28449,-0.63765,9.751140000000001
5732323175,22.35,-0.039409534510031964,0.001064650843716541,0.0,-0.32373,-0.51012,9.7119
5737373680,22.35,-0.02663372438543347,-0.003193952531149623,0.0,-0.27468000000000004,-0.5493600000000001,9.79038
5742424185,22.35,-0.03515093113516579,0.0,0.0,-0.24525000000000002,-0.6670800000000001,9.81
5747474690,22.35,-0.0404741853537485,0.004258603374866164,0.0,-0.43164,-0.6670800000000001,9.937529999999999
5752525195,22.35,-0.033021629447732716,-0.020245819323134222,0.0,-0.31392000000000003,-0.59841,10.05525
5757575700,22.35,-0.021310470166850764,-0.005323254218582705,0.0,-0.11772,-0.56898,9.98658
5762626205,22.35,-0.03728023282259888,0.01064650843716541,0.0,-0.25506,-0.73575,9.94734
5767676710,22.35,-0.023439771854283843,0.006387905062299246,0.0,-0.40221,-0.51993,9.85905
5772727215,22.35,-0.014905111812031574,-0.008517206749732328,0.0,-0.20601000000000003,-0.50031,9.84924
5777777720,22.35,-0.01918116847941768,0.0170518667919846,0.0,-0.21582,-0.5591700000000001,9.7119
5782828225,22.35,-0.04153883619746504,0.008517206749732328,0.0,-0.41202000000000005,-0.69651,9.69228
5787878730,22.35,-0.01811651763570114,-0.001064650843716541,0.0,-0.45126,-0.30411,9.65304
5792929235,22.35,-0.02769837522915001,-0.021310470166850764,0.0,-0.1962,-0.6867000000000001,9.79038
5797979740,22.35,-0.049008845396000776,0.003193952531149623,0.0,-0.20601000000000003,-0.69651,9.72171
5803030245,22.35,-0.03089232776029963,0.0,0.0,-0.48069000000000006,-0.64746,9.86886
5808080750,22.35,-0.023439771854283843,-0.024504422698000388,0.0,-0.11772,-0.63765,9.908100000000001
5813131255,22.35,-0.02556907354171693,0.011711159280881954,0.0,-0.20601000000000003,-0.69651,9.97677
5818181760,22.35,-0.0404741853537485,0.0,0.0,-0.43164,-0.80442,10.03563
5823232265,22.35,-0.01811651763570114,0.0,0.0,-0.22563,-0.43164,9.97677
5828282770,22.35,-0.01064650843716541,0.003193952531149623,0.0,-0.27468000000000004,-0.65727,9.96696
5833333275,22.35,-0.0404741853537485,0.003193952531149623,0.0,-0.20601000000000003,-0.7848,9.85905
5838383780,22.35,-0.014905111812031574,0.0170518667919846,0.0,-0.41202000000000005,-0.46107000000000004,9.79038
5843434285,22.35,-0.01064650843716541,-0.01064650843716541,0.0,-0.27468000000000004,-0.56898,9.73152
5848484790,22.35,-0.03089232776029963,0.005323254218582705,0.0,-0.17658,-0.63765,9.633420000000001
5853535295,22.35,-0.02769837522915001,0.011711159280881954,0.0,-0.51993,-0.59841,9.72171
5858585800,22.35,-0.02769837522915001,-0.02556907354171693,0.0,-0.24525000000000002,-0.60822,9.72171
5863636305,22.35,-0.022375121010567305,0.006387905062299246,0.0,-0.1962,-0.57879,9.69228
5868686810,22.35,-0.03408628029144926,0.0,0.0,-0.45126,-0.7848,9.80019
5873737315,22.35,-0.03621558197888234,-0.020245819323134222,0.0,-0.23544,-0.69651,9.888480000000001
5878787820,22.35,-0.014905111812031574,0.008517206749732328,0.0,-0.30411,-0.52974,9.95715
5883838325,22.35,-0.02769837522915001,-0.011711159280881954,0.0,-0.20601000000000003,-0.87309,9.98658
5888888830,22.35,-0.031956978604016174,0.012775810124598492,0.0,-0.24525000000000002,-0.71613,9.95715
5893939335,22.35,-0.005323254218582705,0.003193952531149623,0.0,-0.47088,-0.5591700000000001,10.03563
5898989840,22.35,-0.015987215948268057,-0.015987215948268057,0.0,-0.06867000000000001,-0.72594,9.91791
5904040345,22.35,-0.023439771854283843,0.02769837522915001,0.0,-0.2943,-0.73575,9.86886
5909090850,22.35,-0.015987215948268057,0.001064650843716541,0.0,-0.52974,-0.59841,9.83943
5914141355,22.35,-0.008517206749732328,-0.015987215948268057,0.0,-0.08829,-0.56898,9.70209
5919191860,22.35,-0.020245819323134222,0.021310470166850764,0.0,-0.2943,-0.6670800000000001,9.68247
5924242365,22.35,-0.03621558197888234,0.001064650843716541,0.0,-0.50031,-0.6768900000000001,9.66285
5929292870,22.35,-0.008517206749732328,-0.01064650843716541,0.0,-0.31392000000000003,-0.49050000000000005,9.7119
5934343375,22.35,-0.022375121010567305,-0.003193952531149623,0.0,-0.23544,-0.7848,9.81
5939393880,22.35,-0.04581489286485115,-0.005323254218582705,0.0,-0.2943,-0.8240400000000001,9.82962
5944444385,22.35,-0.011711159280881954,-0.008517206749732328,0.0,-0.34335000000000004,-0.50031,9.91791
5949494890,22.35,-0.012775810124598492,-0.012775810124598492,-0.005323254218582705,-0.07848000000000001,-0.84366,9.95715
5954545395,22.35,-0.03834488366631542,0.021310470166850764,0.001064650843716541,-0.25506,-0.9221400000000001,9.91791
5959595900,22.35,-0.003193952531149623,0.006387905062299246,0.002129301687433082,-0.5395500000000001,-0.48069000000000006,9.98658
5964646405,22.35,0.002129301687433082,-0.021310470166850764,-0.003193952531149623,-0.039240000000000004,-0.59841,9.87867
5969696910,22.35,-0.02982767691658309,0.02663372438543347,0.0,-0.18639,-0.94176,9.80019
5974747415,22.35,-0.03089232776029963,0.013840460968315033,0.001064650843716541,-0.69651,-0.69651,9.87867
5979797920,22.35,0.004258603374866164,-0.03621558197888234,-0.003193952531149623,-0.20601000000000003,-0.33354000000000006,9.819809999999999
5984848425,22.35,0.001064650843716541,0.007452555906015787,0.0,0.02943,-0.71613,9.66285
5989898930,22.35,-0.05326744877086694,0.028763026072866547,0.003193952531149623,-0.43164,-1.1183400000000001,9.69228
5994949435,22.35,-0.0170518667919846,-0.008517206749732328,0.001064650843716541,-0.65727,-0.44145,9.81
5999999940,22.35,0.02663372438543347,-0.03408628029144926,-0.002129301687433082,-0.07848000000000001,-0.36297,9.83943
6005050445,22.35,-0.03728023282259888,0.007452555906015787,-0.001064650843716541,0.039240000000000004,-1.1183400000000001,9.770760000000001
6010100950,22.35,-0.04794419455228423,0.03089232776029963,0.003193952531149623,-0.69651,-0.8829,9.96696
6015151455,22.35,0.011711159280881954,-0.03834488366631542,-0.002129301687433082,-0.49050000000000005,-0.44145,10.143540000000002
6020201960,22.35,0.005323254218582705,-0.02769837522915001,-0.003193952531149623,0.25506,-0.69651,9.95715
6025252465,22.35,-0.03515093113516579,0.04581489286485115,0.003193952531149623,-0.21582,-0.9810000000000001,9.79038
6030302970,22.35,-0.015987215948268057,0.014905111812031574,0.0,-0.6180300000000001,-0.65727,9.79038
6035353475,22.35,0.02769837522915001,-0.0170518667919846,-0.002129301687433082,-0.24525000000000002,-0.37278,9.78057
6040403980,22.35,-0.007452555906015787,0.005323254218582705,0.0,-0.17658,-0.8338500000000001,9.760950000000001
6045454485,22.35,-0.039409534510031964,0.007452555906015787,0.0,-0.45126,-0.8142300000000001,9.72171
6050504990,22.35,-0.001064650843716541,-0.008517206749732328,-0.001064650843716541,-0.43164,-0.40221,9.7119
6055555495,22.35,-0.005323254218582705,-0.020245819323134222,-0.003193952531149623,-0.06867000000000001,-0.7749900000000001,9.72171
6060606000,22.35,-0.03515093113516579,0.015987215948268057,0.002129301687433082,-0.27468000000000004,-0.9613800000000001,9.770760000000001
6065656505,22.35,-0.015987215948268057,0.002129301687433082,0.0,-0.56898,-0.64746,9.98658
6070707010,22.35,0.004258603374866164,-0.03089232776029963,-0.001064650843716541,-0.14715,-0.59841,9.94734
6075757515,22.35,-0.015987215948268057,0.002129301687433082,0.001064650843716541,-0.05886,-0.95157,9.94734
6080808020,22.35,-0.02663372438543347,0.015987215948268057,0.0,-0.44145,-0.85347,9.97677
6085858525,22.35,0.013840460968315033,-0.003193952531149623,-0.002129301687433082,-0.2943,-0.45126,9.85905
6090909030,22.35,0.01064650843716541,0.005323254218582705,0.0,-0.16677000000000003,-0.64746,9.73152
6095959535,22.35,-0.02769837522915001,0.012775810124598492,-0.001064650843716541,-0.36297,-0.9319500000000001,9.770760000000001
6101010040,22.35,-0.012775810124598492,-0.003193952531149623,-0.002129301687433082,-0.50031,-0.65727,9.908100000000001
6106060545,22.35,0.01064650843716541,-0.020245819323134222,-0.001064650843716541,-0.22563,-0.5591700000000001,9.83943
6111111050,22.35,-0.0170518667919846,-0.0,-0.002129301687433082,-0.10791,-0.8240400000000001,9.70209
6116161555,22.35,-0.020245819323134222,0.015987215948268057,0.001064650843716541,-0.38259000000000004,-0.80442,9.760950000000001
6121212060,22.35,0.004258603374866164,-0.007452555906015787,-0.001064650843716541,-0.34335000000000004,-0.59841,9.82962
6126262565,22.35,0.004258603374866164,0.003193952531149623,-0.001064650843716541,-0.0981,-0.6867000000000001,9.69228
6131313070,22.35,-0.014905111812031574,0.020245819323134222,0.0,-0.41202000000000005,-0.8240400000000001,9.760950000000001
6136363575,22.35,-0.014905111812031574,-0.01064650843716541,-0.003193952531149623,-0.46107000000000004,-0.71613,9.89829
6141414080,22.35,0.0,-0.01811651763570114,0.0,-0.26487,-0.6768900000000001,9.97677
6146464585,22.35,-0.011711159280881954,-0.007452555906015787,0.0,-0.20601000000000003,-0.9123300000000001,9.97677
6151515090,22.35,-0.014905111812031574,0.0,0.001064650843716541,-0.23544,-0.86328,9.95715
6156565595,22.35,0.008517206749732328,0.006387905062299246,-0.001064650843716541,-0.28449,-0.64746,10.006200000000002
6161616100,22.35,0.012775810124598492,0.004258603374866164,-0.001064650843716541,-0.17658,-0.6670800000000001,9.888480000000001
6166666605,22.35,0.0,0.020245819323134222,-0.004258603374866164,-0.26487,-0.6670800000000001,9.74133
6171717110,22.35,0.004258603374866164,0.008517206749732328,0.0,-0.46107000000000004,-0.6867000000000001,9.7119
6176767615,22.35,0.0,-0.01064650843716541,0.0,-0.33354000000000006,-0.70632,9.69228
6181818120,22.35,-0.007452555906015787,0.0,0.001064650843716541,-0.33354000000000006,-0.69651,9.72171
6186868625,22.35,-0.01064650843716541,-0.011711159280881954,-0.001064650843716541,-0.34335000000000004,-0.73575,9.751140000000001
6191919130,22.35,-0.008517206749732328,-0.012775810124598492,-0.001064650843716541,-0.17658,-0.7651800000000001,9.82962
6196969635,22.35,-0.008517206749732328,-0.0,-0.002129301687433082,-0.28449,-0.8240400000000001,9.91791
6202020140,22.35,-0.001064650843716541,0.002129301687433082,-0.003193952531149623,-0.27468000000000004,-0.75537,9.92772
6207070645,22.35,0.013840460968315033,0.011711159280881954,0.001064650843716541,-0.2943,-0.60822,9.91791
6212121150,22.35,0.003193952531149623,0.003193952531149623,0.0,-0.28449,-0.7651800000000001,9.84924
6217171655,22.35,-0.008517206749732328,0.0,0.0,-0.2943,-0.8142300000000001,9.87867
6222222160,22.35,0.0,0.0,0.0,-0.37278,-0.6768900000000001,9.86886
6227272665,22.35,0.006387905062299246,-0.006387905062299246,0.0,-0.1962,-0.65727,9.760950000000001
6232323170,22.35,0.0,0.013840460968315033,0.0,-0.23544,-0.73575,9.68247
6237373675,22.35,-0.004258603374866164,0.002129301687433082,0.0,-0.36297,-0.73575,9.73152
6242424180,22.35,0.003193952531149623,-0.006387905062299246,0.0,-0.28449,-0.70632,9.72171
6247474685,22.35,0.005323254218582705,0.003193952531149623,0.0,-0.30411,-0.73575,9.80019
6252525190,22.35,-0.007452555906015787,-0.005323254218582705,0.0,-0.36297,-0.80442,9.89829
6257575695,22.35,0.0,-0.007452555906015787,0.0,-0.27468000000000004,-0.7749900000000001,10.05525
6262626200,22.35,0.005323254218582705,-0.006387905062299246,0.0,-0.24525000000000002,-0.7848,10.074869999999999
6267676705,22.35,0.0,0.0,0.0,-0.17658,-0.7749900000000001,9.95715
6272727210,22.35,0.011711159280881954,0.012775810124598492,0.0,-0.27468000000000004,-0.6670800000000001,9.84924
6277777715,22.35,0.014905111812031574,0.007452555906015787,0.0,-0.25506,-0.70632,9.79038
6282828220,22.35,0.007452555906015787,0.01064650843716541,0.0,-0.30411,-0.63765,9.72171
6287878725,22.35,0.005323254218582705,0.003193952531149623,0.0,-0.43164,-0.6867000000000001,9.633420000000001
6292929230,22.35,0.0,-0.006387905062299246,0.0,-0.31392000000000003,-0.71613,9.65304
6297979735,22.35,0.002129301687433082,-0.004258603374866164,0.0,-0.34335000000000004,-0.70632,9.760950000000001
6303030240,22.35,-0.003193952531149623,-0.013840460968315033,0.0,-0.28449,-0.80442,9.83943
6308080745,22.35,0.001064650843716541,-0.007452555906015787,0.0,-0.18639,-0.7749900000000001,9.87867
6313131250,22.35,0.006387905062299246,0.002129301687433082,0.0,-0.28449,-0.85347,9.97677
6318181755,22.35,0.008517206749732328,0.002129301687433082,0.0,-0.25506,-0.8142300000000001,10.025820000000001
6323232260,22.35,0.021310470166850764,0.005323254218582705,0.0,-0.32373,-0.6670800000000001,10.006200000000002
6328282765,22.35,0.020245819323134222,0.0,0.0,-0.27468000000000004,-0.6670800000000001,9.888480000000001
6333333270,22.35,0.012775810124598492,0.003193952531149623,0.0,-0.25506,-0.70632,9.81
6338383775,22.35,0.008517206749732328,0.006387905062299246,0.0,-0.35316,-0.65727,9.74133
6343434280,22.35,0.011711159280881954,-0.011711159280881954,0.0,-0.22563,-0.75537,9.70209
6348484785,22.35,0.012775810124598492,0.011711159280881954,0.0,-0.25506,-0.70632,9.67266
6353535290,22.35,0.01064650843716541,0.002129301687433082,0.0,-0.45126,-0.7651800000000001,9.908100000000001
6358585795,22.35,0.013840460968315033,-0.002129301687433082,0.0,-0.30411,-0.52974,9.82962
6363636300,22.35,0.015987215948268057,-0.013840460968315033,0.0,-0.20601000000000003,-0.63765,9.81
6368686805,22.35,-0.002129301687433082,0.0,0.0,-0.14715,-0.85347,9.69228
6373737310,22.35,0.001064650843716541,0.020245819323134222,0.0,-0.38259000000000004,-0.7749900000000001,9.760950000000001
6378787815,22.35,0.02769837522915001,-0.008517206749732328,0.0,-0.41202000000000005,-0.60822,9.908100000000001
6383838320,22.35,0.021310470166850764,-0.008517206749732328,0.0,-0.15696000000000002,-0.6768900000000001,9.92772
6388888825,22.35,0.0,0.0,0.0,-0.33354000000000006,-0.86328,9.937529999999999
6393939330,22.35,0.0,-0.00958185759344887,0.0,-0.33354000000000006,-0.79461,9.98658
6398989835,22.35,0.033021629447732716,-0.004258603374866164,0.0,-0.18639,-0.5395500000000001,9.89829
6404040340,22.35,0.023439771854283843,0.005323254218582705,0.0,-0.14715,-0.80442,9.81
6409090845,22.35,0.007452555906015787,0.021310470166850764,0.0,-0.36297,-0.79461,9.819809999999999
6414141350,22.35,0.023439771854283843,-0.004258603374866164,0.0,-0.51993,-0.51012,9.91791
6419191855,22.35,0.028763026072866547,-0.0170518667919846,0.0,-0.11772,-0.5493600000000001,9.78057
6424242360,22.35,0.002129301687433082,0.012775810124598492,0.0,-0.1962,-0.86328,9.69228
6429292865,22.35,0.001064650843716541,0.01064650843716541,0.0,-0.5395500000000001,-0.74556,9.74133
6434343370,22.35,0.024504422698000388,-0.01918116847941768,0.0,-0.35316,-0.5493600000000001,9.83943
6439393875,22.35,0.01918116847941768,-0.012775810124598492,0.0,-0.14715,-0.65727,9.819809999999999
6444444380,22.35,0.003193952531149623,0.001064650843716541,0.0,-0.20601000000000003,-0.86328,9.84924
6449494885,22.35,0.012775810124598492,0.004258603374866164,0.0,-0.37278,-0.7749900000000001,9.908100000000001
6454545390,22.35,0.02556907354171693,-0.002129301687433082,0.0,-0.36297,-0.6278400000000001,9.98658
