#timestamp [ns], temperature [degC], w_RS_S_x [rad s^-1], w_RS_S_y [rad s^-1], w_RS_S_z [rad s^-1], a_RS_S_x [m s^-2], a_RS_S_y [m s^-2], a_RS_S_z [m s^-2]
0,22.28,0.0,0.0,0.0,0.07848000000000001,0.33354000000000006,9.87867
5050505,22.28,0.0,0.0,0.0,0.07848000000000001,0.28449,9.92772
10101010,22.28,0.0,0.0,0.0,0.05886,0.31392000000000003,9.91791
15151515,22.28,0.0,0.0,0.0,0.039240000000000004,0.32373,9.908100000000001
20202020,22.28,0.0,0.0,0.0,0.04905,0.30411,9.908100000000001
25252525,22.28,0.0,0.0,0.0,0.07848000000000001,0.33354000000000006,9.908100000000001
30303030,22.28,0.0,0.0,0.0,0.07848000000000001,0.35316,9.85905
35353535,22.28,0.0,0.0,0.0,0.0981,0.35316,9.888480000000001
40404040,22.28,0.0,0.0,0.0,0.06867000000000001,0.35316,9.87867
45454545,22.28,0.0,0.0,0.0,0.07848000000000001,0.32373,9.89829
50505050,22.28,0.0,0.0,0.0,0.06867000000000001,0.33354000000000006,9.91791
55555555,22.28,0.0,0.0,0.0,0.05886,0.32373,9.89829
60606060,22.28,0.0,0.0,0.0,0.0981,0.33354000000000006,9.908100000000001
65656565,22.28,0.0,0.0,0.0,0.06867000000000001,0.31392000000000003,9.86886
70707070,22.28,0.0,0.0,0.0,0.04905,0.33354000000000006,9.83943
75757575,22.28,0.0,0.0,0.0,0.0981,0.34335000000000004,9.83943
80808080,22.28,0.0,0.0,0.0,0.05886,0.31392000000000003,9.908100000000001
85858585,22.28,0.0,0.0,0.0,0.05886,0.31392000000000003,9.908100000000001
90909090,22.28,0.0,0.0,0.0,0.05886,0.32373,9.94734
95959595,22.28,0.0,0.0,0.0,0.07848000000000001,0.31392000000000003,9.92772
101010100,22.28,0.0,0.0,0.0,0.05886,0.35316,9.908100000000001
106060605,22.28,0.0,0.0,0.0,0.07848000000000001,0.36297,9.86886
111111110,22.28,0.0,0.0,0.0,0.05886,0.35316,9.86886
116161615,22.28,0.0,0.0,0.0,0.06867000000000001,0.34335000000000004,9.86886
121212120,22.28,0.0,0.0,0.0,0.04905,0.30411,9.86886
126262625,22.28,0.0,0.0,0.0,0.04905,0.32373,9.92772
131313130,22.28,0.0,0.0,0.0,0.05886,0.33354000000000006,9.908100000000001
136363635,22.28,0.0,0.0,0.0,0.05886,0.33354000000000006,9.91791
141414140,22.28,0.0,0.0,0.0,0.04905,0.30411,9.888480000000001
146464645,22.28,0.0,0.0,0.0,0.04905,0.32373,9.888480000000001
151515150,22.28,0.0,0.0,0.0,0.05886,0.32373,9.888480000000001
156565655,22.28,0.0,0.0,0.0,0.06867000000000001,0.35316,9.87867
161616160,22.28,0.0,0.0,0.0,0.07848000000000001,0.33354000000000006,9.888480000000001
166666665,22.28,0.0,0.0,0.0,0.0981,0.31392000000000003,9.89829
171717170,22.28,0.0,0.0,0.0,0.06867000000000001,0.33354000000000006,9.908100000000001
176767675,22.28,0.0,0.0,0.0,0.06867000000000001,0.31392000000000003,9.888480000000001
181818180,22.28,0.0,0.0,0.0,0.04905,0.33354000000000006,9.91791
186868685,22.28,0.0,0.0,0.0,0.06867000000000001,0.34335000000000004,9.888480000000001
191919190,22.28,0.0,0.0,0.0,0.05886,0.37278,9.87867
196969695,22.28,0.0,0.0,0.0,0.04905,0.32373,9.84924
202020200,22.28,0.0,0.0,0.0,0.07848000000000001,0.34335000000000004,9.87867
207070705,22.28,0.0,0.0,0.0,0.05886,0.30411,9.86886
212121210,22.28,0.0,0.0,0.0,0.08829,0.31392000000000003,9.908100000000001
217171715,22.28,0.0,0.0,0.0,0.07848000000000001,0.30411,9.908100000000001
222222220,22.28,0.0,0.0,0.0,0.04905,0.34335000000000004,9.908100000000001
227272725,22.28,0.0,0.0,0.0,0.06867000000000001,0.32373,9.87867
232323230,22.28,0.0,0.0,0.0,0.07848000000000001,0.34335000000000004,9.888480000000001
237373735,22.28,0.0,0.0,0.0,0.06867000000000001,0.34335000000000004,9.87867
242424240,22.28,0.0,0.0,0.0,0.06867000000000001,0.35316,9.84924
247474745,22.28,0.0,0.0,0.0,0.07848000000000001,0.32373,9.89829
252525250,22.28,0.0,0.0,0.0,0.08829,0.31392000000000003,9.91791
257575755,22.28,0.0,0.0,0.0,0.06867000000000001,0.31392000000000003,9.89829
262626260,22.28,0.0,0.0,0.0,0.06867000000000001,0.34335000000000004,9.908100000000001
267676765,22.28,0.0,0.0,0.0,0.05886,0.32373,9.87867
272727270,22.28,0.0,0.0,0.0,0.06867000000000001,0.35316,9.87867
277777775,22.28,0.0,0.0,0.0,0.05886,0.35316,9.888480000000001
282828280,22.28,0.0,0.0,0.0,0.07848000000000001,0.34335000000000004,9.86886
287878785,22.28,0.0,0.0,0.0,0.06867000000000001,0.32373,9.91791
292929290,22.28,0.0,0.0,0.0,0.0981,0.2943,9.91791
297979795,22.28,0.0,0.0,0.0,0.06867000000000001,0.30411,9.937529999999999
303030300,22.28,0.0,0.0,0.0,0.07848000000000001,0.33354000000000006,9.937529999999999
308080805,22.28,0.0,0.0,0.0,0.07848000000000001,0.35316,9.91791
313131310,22.28,0.0,0.0,0.0,0.06867000000000001,0.34335000000000004,9.86886
318181815,22.28,0.0,0.0,0.0,0.08829,0.33354000000000006,9.86886
323232320,22.28,0.0,0.0,0.0,0.07848000000000001,0.36297,9.84924
328282825,22.28,0.0,0.0,0.0,0.05886,0.33354000000000006,9.888480000000001
333333330,22.28,0.0,0.0,0.0,0.06867000000000001,0.32373,9.89829
338383835,22.28,0.0,0.0,0.0,0.07848000000000001,0.33354000000000006,9.908100000000001
343434340,22.28,0.0,0.0,0.0,0.0981,0.32373,9.91791
348484845,22.28,0.0,0.0,0.0,0.05886,0.34335000000000004,9.937529999999999
353535350,22.28,0.0,0.0,0.0,0.05886,0.36297,9.89829
358585855,22.28,0.0,0.0,0.0,0.07848000000000001,0.35316,9.85905
363636360,22.28,0.0,0.0,0.0,0.04905,0.34335000000000004,9.86886
368686865,22.28,0.0,0.0,0.0,0.05886,0.31392000000000003,9.87867
373737370,22.28,0.0,0.0,0.0,0.06867000000000001,0.31392000000000003,9.91791
378787875,22.28,0.0,0.0,0.0,0.04905,0.35316,9.92772
383838380,22.28,0.0,0.0,0.0,0.05886,0.33354000000000006,9.92772
388888885,22.28,0.0,0.0,0.0,0.05886,0.36297,9.91791
393939390,22.28,0.0,0.0,0.0,0.06867000000000001,0.34335000000000004,9.87867
398989895,22.28,0.0,0.0,0.0,0.06867000000000001,0.33354000000000006,9.87867
404040400,22.28,0.0,0.0,0.0,0.08829,0.36297,9.85905
409090905,22.28,0.0,0.0,0.0,0.07848000000000001,0.32373,9.84924
414141410,22.28,0.0,0.0,0.0,0.06867000000000001,0.31392000000000003,9.91791
419191915,22.28,0.0,0.0,0.0,0.07848000000000001,0.30411,9.908100000000001
424242420,22.28,0.0,0.0,0.0,0.07848000000000001,0.31392000000000003,9.937529999999999
429292925,22.28,0.0,0.0,0.0,0.06867000000000001,0.34335000000000004,9.908100000000001
434343430,22.28,0.0,0.0,0.0,0.05886,0.34335000000000004,9.89829
439393935,22.28,0.0,0.0,0.0,0.05886,0.35316,9.86886
444444440,22.28,0.0,0.0,0.0,0.06867000000000001,0.34335000000000004,9.87867
449494945,22.28,0.0,0.0,0.0,0.05886,0.34335000000000004,9.86886
454545450,22.28,0.0,0.0,0.0,0.04905,0.32373,9.908100000000001
459595955,22.28,0.0,0.0,0.0,0.04905,0.30411,9.87867
464646460,22.28,0.0,0.0,0.0,0.06867000000000001,0.31392000000000003,9.888480000000001
469696965,22.28,0.0,0.0,0.0,0.07848000000000001,0.34335000000000004,9.908100000000001
474747470,22.28,0.0,0.0,0.0,0.04905,0.35316,9.87867
479797975,22.28,0.0,0.0,0.0,0.07848000000000001,0.38259000000000004,9.888480000000001
484848480,22.28,0.0,0.0,0.0,0.06867000000000001,0.34335000000000004,9.86886
489898985,22.28,0.0,0.0,0.0,0.07848000000000001,0.35316,9.888480000000001
494949490,22.28,0.0,0.0,0.0,0.07848000000000001,0.32373,9.888480000000001
499999995,22.28,0.0,0.0,0.0,0.06867000000000001,0.32373,9.91791
505050500,22.28,0.0,0.0,0.0,0.07848000000000001,0.33354000000000006,9.92772
510101005,22.28,0.0,0.0,0.0,0.07848000000000001,0.32373,9.87867
515151510,22.28,0.0,0.0,0.0,0.04905,0.35316,9.888480000000001
520202015,22.28,0.0,0.0,0.0,0.04905,0.35316,9.87867
525252520,22.28,0.0,0.0,0.0,0.06867000000000001,0.35316,9.86886
530303025,22.28,0.0,0.0,0.0,0.07848000000000001,0.35316,9.84924
535353530,22.28,0.0,0.0,0.0,0.08829,0.33354000000000006,9.87867
540404035,22.28,0.0,0.0,0.0,0.08829,0.34335000000000004,9.89829
545454540,22.28,0.0,0.0,0.0,0.039240000000000004,0.32373,9.91791
550505045,22.28,0.0,0.0,0.0,0.08829,0.32373,9.91791
555555550,22.28,0.0,0.0,0.0,0.08829,0.32373,9.89829
560606055,22.28,0.0,0.0,0.0,0.04905,0.33354000000000006,9.87867
565656560,22.28,0.0,0.0,0.0,0.06867000000000001,0.34335000000000004,9.86886
570707065,22.28,0.0,0.0,0.0,0.07848000000000001,0.34335000000000004,9.85905
575757570,22.28,0.0,0.0,0.0,0.05886,0.33354000000000006,9.86886
580808075,22.28,0.0,0.0,0.0,0.08829,0.31392000000000003,9.91791
585858580,22.28,0.0,0.0,0.0,0.05886,0.33354000000000006,9.92772
590909085,22.28,0.0,0.0,0.0,0.06867000000000001,0.33354000000000006,9.92772
595959590,22.28,0.0,0.0,0.0,0.08829,0.36297,9.87867
601010095,22.28,0.0,0.0,0.0,0.08829,0.34335000000000004,9.89829
606060600,22.28,0.0,0.0,0.0,0.06867000000000001,0.35316,9.85905
611111105,22.28,0.0,0.0,0.0,0.08829,0.34335000000000004,9.86886
616161610,22.28,0.0,0.0,0.0,0.04905,0.33354000000000006,9.89829
621212115,22.28,0.0,0.0,0.0,0.05886,0.31392000000000003,9.91791
626262620,22.28,0.0,0.0,0.0,0.06867000000000001,0.32373,9.91791
631313125,22.28,0.0,0.0,0.0,0.04905,0.31392000000000003,9.908100000000001
636363630,22.28,0.0,0.0,0.0,0.05886,0.34335000000000004,9.888480000000001
641414135,22.28,0.0,0.0,0.0,0.06867000000000001,0.37278,9.87867
646464640,22.28,0.0,0.0,0.0,0.07848000000000001,0.35316,9.84924
651515145,22.28,0.0,0.0,0.0,0.08829,0.34335000000000004,9.86886
656565650,22.28,0.0,0.0,0.0,0.07848000000000001,0.34335000000000004,9.908100000000001
661616155,22.28,0.0,0.0,0.0,0.07848000000000001,0.30411,9.92772
666666660,22.28,0.0,0.0,0.0,0.07848000000000001,0.31392000000000003,9.95715
671717165,22.28,0.0,0.0,0.0,0.07848000000000001,0.31392000000000003,9.92772
676767670,22.28,0.0,0.0,0.0,0.06867000000000001,0.35316,9.89829
681818175,22.28,0.0,0.0,0.0,0.019620000000000002,0.33354000000000006,9.87867
686868680,22.28,0.0,0.0,0.0,0.07848000000000001,0.36297,9.87867
691919185,22.28,0.0,0.0,0.0,0.06867000000000001,0.35316,9.85905
696969690,22.28,0.0,0.0,0.0,0.07848000000000001,0.34335000000000004,9.888480000000001
702020195,22.28,0.0,0.0,0.0,0.08829,0.31392000000000003,9.937529999999999
707070700,22.28,0.0,0.0,0.0,0.07848000000000001,0.31392000000000003,9.908100000000001
712121205,22.28,0.0,0.0,0.0,0.07848000000000001,0.32373,9.89829
717171710,22.28,0.0,0.0,0.0,0.05886,0.31392000000000003,9.91791
722222215,22.28,0.0,0.0,0.0,0.05886,0.33354000000000006,9.86886
727272720,22.28,0.0,0.0,0.0,0.05886,0.35316,9.86886
732323225,22.28,0.0,0.0,0.0,0.07848000000000001,0.33354000000000006,9.888480000000001
737373730,22.28,0.0,0.0,0.0,0.06867000000000001,0.32373,9.888480000000001
742424235,22.28,0.0,0.0,0.0,0.04905,0.2943,9.87867
747474740,22.28,0.0,0.0,0.0,0.04905,0.31392000000000003,9.91791
752525245,22.28,0.0,0.0,0.0,0.05886,0.33354000000000006,9.92772
757575750,22.28,0.0,0.0,0.0,0.06867000000000001,0.33354000000000006,9.908100000000001
762626255,22.28,0.0,0.0,0.0,0.05886,0.32373,9.87867
767676760,22.28,0.0,0.0,0.0,0.08829,0.36297,9.85905
772727265,22.28,0.0,0.0,0.0,0.06867000000000001,0.34335000000000004,9.85905
777777770,22.28,0.0,0.0,0.0,0.06867000000000001,0.32373,9.888480000000001
782828275,22.28,0.0,0.0,0.0,0.06867000000000001,0.32373,9.908100000000001
787878780,22.28,0.0,0.0,0.0,0.06867000000000001,0.2943,9.908100000000001
792929285,22.28,0.0,0.0,0.0,0.07848000000000001,0.2943,9.89829
797979790,22.28,0.0,0.0,0.0,0.06867000000000001,0.34335000000000004,9.91791
803030295,22.28,0.0,0.0,0.0,0.0981,0.32373,9.86886
808080800,22.28,0.0,0.0,0.0,0.06867000000000001,0.32373,9.888480000000001
813131305,22.28,0.0,0.0,0.0,0.07848000000000001,0.35316,9.888480000000001
818181810,22.28,0.0,0.0,0.0,0.06867000000000001,0.36297,9.86886
823232315,22.28,0.0,0.0,0.0,0.08829,0.33354000000000006,9.888480000000001
828282820,22.28,0.0,0.0,0.0,0.08829,0.33354000000000006,9.92772
833333325,22.28,0.0,0.0,0.0,0.07848000000000001,0.31392000000000003,9.92772
838383830,22.28,0.0,0.0,0.0,0.08829,0.34335000000000004,9.89829
843434335,22.28,0.0,0.0,0.0,0.05886,0.36297,9.908100000000001
848484840,22.28,0.0,0.0,0.0,0.07848000000000001,0.38259000000000004,9.85905
853535345,22.28,0.0,0.0,0.0,0.0981,0.34335000000000004,9.84924
858585850,22.28,0.0,0.0,0.0,0.06867000000000001,0.2943,9.86886
863636355,22.28,0.0,0.0,0.0,0.06867000000000001,0.33354000000000006,9.87867
868686860,22.28,0.0,0.0,0.0,0.08829,0.31392000000000003,9.908100000000001
873737365,22.28,0.0,0.0,0.0,0.08829,0.32373,9.91791
878787870,22.28,0.0,0.0,0.0,0.08829,0.32373,9.908100000000001
883838375,22.28,0.0,0.0,0.0,0.06867000000000001,0.32373,9.888480000000001
888888880,22.28,0.0,0.0,0.0,0.06867000000000001,0.33354000000000006,9.84924
893939385,22.28,0.0,0.0,0.0,0.07848000000000001,0.33354000000000006,9.85905
898989890,22.28,0.0,0.0,0.0,0.07848000000000001,0.38259000000000004,9.89829
904040395,22.28,0.0,0.0,0.0,0.08829,0.33354000000000006,9.89829
909090900,22.28,0.0,0.0,0.0,0.06867000000000001,0.32373,9.92772
914141405,22.28,0.0,0.0,0.0,0.06867000000000001,0.32373,9.92772
919191910,22.28,0.0,0.0,0.0,0.07848000000000001,0.34335000000000004,9.87867
924242415,22.28,0.0,0.0,0.0,0.07848000000000001,0.33354000000000006,9.888480000000001
929292920,22.28,0.0,0.0,0.0,0.05886,0.34335000000000004,9.86886
934343425,22.28,0.0,0.0,0.0,0.05886,0.34335000000000004,9.888480000000001
939393930,22.28,0.0,0.0,0.0,0.06867000000000001,0.35316,9.87867
944444435,22.28,0.0,0.0,0.0,0.039240000000000004,0.32373,9.908100000000001
949494940,22.28,0.0,0.0,0.0,0.05886,0.32373,9.888480000000001
954545445,22.28,0.0,0.0,0.0,0.04905,0.30411,9.91791
959595950,22.28,0.0,0.0,0.0,0.06867000000000001,0.31392000000000003,9.92772
964646455,22.28,0.0,0.0,0.0,0.07848000000000001,0.33354000000000006,9.888480000000001
969696960,22.28,0.0,0.0,0.0,0.06867000000000001,0.34335000000000004,9.87867
974747465,22.28,0.0,0.0,0.0,0.08829,0.34335000000000004,9.87867
979797970,22.28,0.0,0.0,0.0,0.05886,0.33354000000000006,9.85905
984848475,22.28,0.0,0.0,0.0,0.07848000000000001,0.33354000000000006,9.87867
989898980,22.28,0.0,0.0,0.0,0.06867000000000001,0.30411,9.908100000000001
994949485,22.28,0.0,0.0,0.0,0.06867000000000001,0.33354000000000006,9.91791
999999990,22.28,0.0,0.0,0.0,0.05886,0.32373,9.908100000000001
1005050495,22.28,0.0,0.0,0.0,0.05886,0.33354000000000006,9.87867
1010101000,22.28,0.0,0.0,0.0,0.05886,0.32373,9.888480000000001
1015151505,22.28,0.0,0.0,0.0,0.06867000000000001,0.35316,9.89829
1020202010,22.28,0.0,0.0,0.0,0.05886,0.36297,9.85905
1025252515,22.28,0.0,0.0,0.0,0.04905,0.34335000000000004,9.87867
1030303020,22.28,0.0,0.0,0.0,0.06867000000000001,0.30411,9.89829
1035353525,22.28,0.0,0.0,0.0,0.06867000000000001,0.31392000000000003,9.91791
1040404030,22.28,0.0,0.0,0.0,0.06867000000000001,0.34335000000000004,9.91791
1045454535,22.28,0.0,0.0,0.0,0.04905,0.31392000000000003,9.89829
1050505040,22.28,0.0,0.0,0.0,0.04905,0.36297,9.888480000000001
1055555545,22.28,0.0,0.0,0.0,0.06867000000000001,0.37278,9.89829
1060606050,22.28,0.0,0.0,0.0,0.08829,0.37278,9.87867
1065656555,22.28,0.0,0.0,0.0,0.07848000000000001,0.33354000000000006,9.888480000000001
1070707060,22.28,0.0,0.0,0.0,0.05886,0.33354000000000006,9.908100000000001
1075757565,22.28,0.0,0.0,0.0,0.05886,0.27468000000000004,9.908100000000001
1080808070,22.28,0.0,0.0,0.0,0.06867000000000001,0.32373,9.92772
1085858575,22.28,0.0,0.0,0.0,0.06867000000000001,0.34335000000000004,9.89829
1090909080,22.28,0.0,0.0,0.0,0.05886,0.33354000000000006,9.89829
1095959585,22.28,0.0,0.0,0.0,0.06867000000000001,0.35316,9.86886
1101010090,22.28,0.0,0.0,0.0,0.0981,0.37278,9.87867
1106060595,22.28,0.0,0.0,0.0,0.08829,0.36297,9.83943
1111111100,22.28,0.0,0.0,0.0,0.07848000000000001,0.34335000000000004,9.888480000000001
1116161605,22.28,0.0,0.0,0.0,0.08829,0.31392000000000003,9.908100000000001
1121212110,22.28,0.0,0.0,0.0,0.05886,0.31392000000000003,9.92772
1126262615,22.28,0.0,0.0,0.0,0.07848000000000001,0.35316,9.89829
1131313120,22.28,0.0,0.0,0.0,0.06867000000000001,0.34335000000000004,9.87867
1136363625,22.28,0.0,0.0,0.0,0.07848000000000001,0.35316,9.87867
1141414130,22.28,0.0,0.0,0.0,0.08829,0.35316,9.888480000000001
1146464635,22.28,0.0,0.0,0.0,0.08829,0.32373,9.87867
1151515140,22.28,0.0,0.0,0.0,0.06867000000000001,0.35316,9.888480000000001
1156565645,22.28,0.0,0.0,0.0,0.05886,0.31392000000000003,9.908100000000001
1161616150,22.28,0.0,0.0,0.0,0.04905,0.27468000000000004,9.908100000000001
1166666655,22.28,0.0,0.0,0.0,0.07848000000000001,0.34335000000000004,9.89829
1171717160,22.28,0.0,0.0,0.0,0.07848000000000001,0.33354000000000006,9.89829
1176767665,22.28,0.0,0.0,0.0,0.07848000000000001,0.34335000000000004,9.87867
1181818170,22.28,0.0,0.0,0.0,0.07848000000000001,0.37278,9.85905
1186868675,22.28,0.0,0.0,0.0,0.06867000000000001,0.32373,9.86886
1191919180,22.28,0.0,0.0,0.0,0.06867000000000001,0.33354000000000006,9.87867
1196969685,22.28,0.0,0.0,0.0,0.08829,0.32373,9.91791
1202020190,22.28,0.0,0.0,0.0,0.05886,0.31392000000000003,9.92772
1207070695,22.28,0.0,0.0,0.0,0.08829,0.30411,9.908100000000001
1212121200,22.28,0.0,0.0,0.0,0.06867000000000001,0.34335000000000004,9.89829
1217171705,22.28,0.0,0.0,0.0,0.07848000000000001,0.34335000000000004,9.86886
1222222210,22.28,0.0,0.0,0.0,0.06867000000000001,0.35316,9.85905
1227272715,22.28,0.0,0.0,0.0,0.05886,0.33354000000000006,9.86886
1232323220,22.28,0.0,0.0,0.0,0.07848000000000001,0.32373,9.86886
1237373725,22.28,0.0,0.0,0.0,0.06867000000000001,0.30411,9.908100000000001
1242424230,22.28,0.0,0.0,0.0,0.05886,0.35316,9.92772
1247474735,22.28,0.0,0.0,0.0,0.06867000000000001,0.32373,9.89829
1252525240,22.28,0.0,0.0,0.0,0.07848000000000001,0.34335000000000004,9.91791
1257575745,22.28,0.0,0.0,0.0,0.07848000000000001,0.36297,9.86886
1262626250,22.28,0.0,0.0,0.0,0.06867000000000001,0.35316,9.85905
1267676755,22.28,0.0,0.0,0.0,0.08829,0.33354000000000006,9.87867
1272727260,22.28,0.0,0.0,0.0,0.06867000000000001,0.31392000000000003,9.87867
1277777765,22.28,0.0,0.0,0.0,0.07848000000000001,0.31392000000000003,9.888480000000001
1282828270,22.28,0.0,0.0,0.0,0.07848000000000001,0.31392000000000003,9.89829
1287878775,22.28,0.0,0.0,0.0,0.05886,0.2943,9.937529999999999
1292929280,22.28,0.0,0.0,0.0,0.06867000000000001,0.36297,9.937529999999999
1297979785,22.28,0.0,0.0,0.0,0.07848000000000001,0.33354000000000006,9.86886
1303030290,22.28,0.0,0.0,0.0,0.06867000000000001,0.35316,9.888480000000001
1308080795,22.28,0.0,0.0,0.0,0.07848000000000001,0.34335000000000004,9.87867
1313131300,22.28,0.0,0.0,0.0,0.04905,0.31392000000000003,9.888480000000001
1318181805,22.28,0.0,0.0,0.0,0.07848000000000001,0.33354000000000006,9.888480000000001
1323232310,22.28,0.0,0.0,0.0,0.05886,0.31392000000000003,9.91791
1328282815,22.28,0.0,0.0,0.0,0.06867000000000001,0.32373,9.94734
1333333320,22.28,0.0,0.0,0.0,0.06867000000000001,0.33354000000000006,9.89829
1338383825,22.28,0.0,0.0,0.0,0.08829,0.35316,9.85905
1343434330,22.28,0.0,0.0,0.0,0.08829,0.35316,9.86886
1348484835,22.28,0.0,0.0,0.0,0.08829,0.32373,9.888480000000001
1353535340,22.28,0.0,0.0,0.0,0.06867000000000001,0.34335000000000004,9.87867
1358585845,22.28,0.0,0.0,0.0,0.06867000000000001,0.33354000000000006,9.89829
1363636350,22.28,0.0,0.0,0.0,0.06867000000000001,0.31392000000000003,9.908100000000001
1368686855,22.28,0.0,0.0,0.0,0.04905,0.32373,9.91791
1373737360,22.28,0.0,0.0,0.0,0.07848000000000001,0.36297,9.91791
1378787865,22.28,0.0,0.0,0.0,0.08829,0.34335000000000004,9.888480000000001
1383838370,22.28,0.0,0.0,0.0,0.10791,0.32373,9.84924
1388888875,22.28,0.0,0.0,0.0,0.06867000000000001,0.31392000000000003,9.85905
1393939380,22.28,0.0,0.0,0.0,0.08829,0.34335000000000004,9.888480000000001
1398989885,22.28,0.0,0.0,0.0,0.039240000000000004,0.35316,9.908100000000001
1404040390,22.28,0.0,0.0,0.0,0.06867000000000001,0.30411,9.908100000000001
1409090895,22.28,0.0,0.0,0.0,0.07848000000000001,0.32373,9.91791
1414141400,22.28,0.0,0.0,0.0,0.06867000000000001,0.33354000000000006,9.92772
1419191905,22.28,0.0,0.0,0.0,0.05886,0.31392000000000003,9.87867
1424242410,22.28,0.0,0.0,0.0,0.07848000000000001,0.34335000000000004,9.87867
1429292915,22.28,0.0,0.0,0.0,0.10791,0.36297,9.86886
1434343420,22.28,0.0,0.0,0.0,0.10791,0.34335000000000004,9.87867
1439393925,22.28,0.0,0.0,0.0,0.08829,0.33354000000000006,9.87867
1444444430,22.28,0.0,0.0,0.0,0.05886,0.2943,9.92772
1449494935,22.28,0.0,0.0,0.0,0.06867000000000001,0.33354000000000006,9.89829
1454545440,22.28,0.0,0.0,0.0,0.04905,0.35316,9.91791
1459595945,22.28,0.0,0.0,0.0,0.05886,0.35316,9.89829
1464646450,22.28,0.0,0.0,0.0,0.05886,0.34335000000000004,9.87867
1469696955,22.28,0.0,0.0,0.0,0.08829,0.34335000000000004,9.86886
1474747460,22.28,0.0,0.0,0.0,0.05886,0.32373,9.87867
1479797965,22.28,0.0,0.0,0.0,0.07848000000000001,0.35316,9.87867
1484848470,22.28,0.0,0.0,0.0,0.0981,0.31392000000000003,9.92772
1489898975,22.28,0.0,0.0,0.0,0.04905,0.34335000000000004,9.908100000000001
1494949480,22.28,0.0,0.0,0.0,0.07848000000000001,0.33354000000000006,9.91791
1499999985,22.28,0.0,0.0,0.0,0.07848000000000001,0.32373,9.87867
1505050490,22.28,0.0,0.0,0.0,0.07848000000000001,0.36297,9.888480000000001
1510100995,22.28,0.0,0.0,0.0,0.10791,0.32373,9.85905
1515151500,22.28,0.0,0.0,0.0,0.08829,0.33354000000000006,9.84924
1520202005,22.28,0.0,0.0,0.0,0.06867000000000001,0.32373,9.89829
1525252510,22.28,0.0,0.0,0.0,0.04905,0.33354000000000006,9.92772
1530303015,22.28,0.0,0.0,0.0,0.06867000000000001,0.31392000000000003,9.908100000000001
1535353520,22.28,0.0,0.0,0.0,0.05886,0.30411,9.92772
1540404025,22.28,0.0,0.0,0.0,0.06867000000000001,0.33354000000000006,9.888480000000001
1545454530,22.28,0.0,0.0,0.0,0.07848000000000001,0.35316,9.87867
1550505035,22.28,0.0,0.0,0.0,0.05886,0.36297,9.83943
1555555540,22.28,0.0,0.0,0.0,0.08829,0.34335000000000004,9.86886
1560606045,22.28,0.0,0.0,0.0,0.07848000000000001,0.34335000000000004,9.908100000000001
1565656550,22.28,0.0,0.0,0.0,0.07848000000000001,0.32373,9.908100000000001
1570707055,22.28,0.0,0.0,0.0,0.05886,0.31392000000000003,9.92772
1575757560,22.28,0.0,0.0,0.0,0.06867000000000001,0.32373,9.908100000000001
1580808065,22.28,0.0,0.0,0.0,0.0981,0.33354000000000006,9.908100000000001
1585858570,22.28,0.0,0.0,0.0,0.08829,0.33354000000000006,9.85905
1590909075,22.28,0.0,0.0,0.0,0.08829,0.33354000000000006,9.84924
1595959580,22.28,0.0,0.0,0.0,0.04905,0.36297,9.87867
1601010085,22.28,0.0,0.0,0.0,0.08829,0.34335000000000004,9.86886
1606060590,22.28,0.0,0.0,0.0,0.06867000000000001,0.33354000000000006,9.89829
1611111095,22.28,0.0,0.0,0.0,0.08829,0.33354000000000006,9.91791
1616161600,22.28,0.0,0.0,0.0,0.05886,0.33354000000000006,9.92772
1621212105,22.28,0.0,0.0,0.0,0.06867000000000001,0.34335000000000004,9.908100000000001
1626262610,22.28,0.0,0.0,0.0,0.04905,0.35316,9.91791
1631313115,22.28,0.0,0.0,0.0,0.07848000000000001,0.37278,9.85905
1636363620,22.28,0.0,0.0,0.0,0.08829,0.33354000000000006,9.86886
1641414125,22.28,0.0,0.0,0.0,0.05886,0.33354000000000006,9.888480000000001
1646464630,22.28,0.0,0.0,0.0,0.06867000000000001,0.32373,9.87867
1651515135,22.28,0.0,0.0,0.0,0.06867000000000001,0.30411,9.89829
1656565640,22.28,0.0,0.0,0.0,0.05886,0.32373,9.92772
1661616145,22.28,0.0,0.0,0.0,0.07848000000000001,0.33354000000000006,9.92772
1666666650,22.28,0.0,0.0,0.0,0.06867000000000001,0.34335000000000004,9.87867
1671717155,22.28,0.0,0.0,0.0,0.05886,0.34335000000000004,9.86886
1676767660,22.28,0.0,0.0,0.0,0.06867000000000001,0.32373,9.84924
1681818165,22.28,0.0,0.0,0.0,0.0981,0.35316,9.87867
1686868670,22.28,0.0,0.0,0.0,0.0981,0.32373,9.89829
1691919175,22.28,0.0,0.0,0.0,0.07848000000000001,0.31392000000000003,9.91791
1696969680,22.28,0.0,0.0,0.0,0.05886,0.33354000000000006,9.89829
1702020185,22.28,0.0,0.0,0.0,0.05886,0.31392000000000003,9.87867
1707070690,22.28,0.0,0.0,0.0,0.08829,0.33354000000000006,9.888480000000001
1712121195,22.28,0.0,0.0,0.0,0.05886,0.36297,9.87867
1717171700,22.28,0.0,0.0,0.0,0.0981,0.34335000000000004,9.888480000000001
1722222205,22.28,0.0,0.0,0.0,0.08829,0.36297,9.86886
1727272710,22.28,0.0,0.0,0.0,0.08829,0.32373,9.888480000000001
1732323215,22.28,0.0,0.0,0.0,0.05886,0.33354000000000006,9.91791
1737373720,22.28,0.0,0.0,0.0,0.04905,0.33354000000000006,9.91791
1742424225,22.28,0.0,0.0,0.0,0.05886,0.31392000000000003,9.89829
1747474730,22.28,0.0,0.0,0.0,0.05886,0.32373,9.86886
1752525235,22.28,0.0,0.0,0.0,0.05886,0.33354000000000006,9.87867
1757575740,22.28,0.0,0.0,0.0,0.0981,0.36297,9.86886
1762626245,22.28,0.0,0.0,0.0,0.06867000000000001,0.34335000000000004,9.87867
1767676750,22.28,0.0,0.0,0.0,0.08829,0.32373,9.89829
1772727255,22.28,0.0,0.0,0.0,0.0981,0.2943,9.87867
1777777760,22.28,0.0,0.0,0.0,0.07848000000000001,0.31392000000000003,9.89829
1782828265,22.28,0.0,0.0,0.0,0.04905,0.34335000000000004,9.908100000000001
1787878770,22.28,0.0,0.0,0.0,0.06867000000000001,0.30411,9.888480000000001
1792929275,22.28,0.0,0.0,0.0,0.0981,0.35316,9.87867
1797979780,22.28,0.0,0.0,0.0,0.06867000000000001,0.33354000000000006,9.86886
1803030285,22.28,0.0,0.0,0.0,0.0981,0.32373,9.84924
1808080790,22.28,0.0,0.0,0.0,0.08829,0.32373,9.888480000000001
1813131295,22.28,0.0,0.0,0.0,0.05886,0.31392000000000003,9.937529999999999
1818181800,22.28,0.0,0.0,0.0,0.07848000000000001,0.31392000000000003,9.888480000000001
1823232305,22.28,0.0,0.0,0.0,0.05886,0.31392000000000003,9.89829
1828282810,22.28,0.0,0.0,0.0,0.05886,0.36297,9.91791
1833333315,22.28,0.0,0.0,0.0,0.07848000000000001,0.36297,9.87867
1838383820,22.28,0.0,0.0,0.0,0.06867000000000001,0.34335000000000004,9.86886
1843434325,22.28,0.0,0.0,0.0,0.06867000000000001,0.34335000000000004,9.85905
1848484830,22.28,0.0,0.0,0.0,0.08829,0.34335000000000004,9.89829
1853535335,22.28,0.0,0.0,0.0,0.07848000000000001,0.31392000000000003,9.888480000000001
1858585840,22.28,0.0,0.0,0.0,0.07848000000000001,0.31392000000000003,9.91791
1863636345,22.28,0.0,0.0,0.0,0.05886,0.32373,9.92772
1868686850,22.28,0.0,0.0,0.0,0.07848000000000001,0.35316,9.89829
1873737355,22.28,0.0,0.0,0.0,0.06867000000000001,0.33354000000000006,9.888480000000001
1878787860,22.28,0.0,0.0,0.0,0.07848000000000001,0.34335000000000004,9.85905
1883838365,22.28,0.0,0.0,0.0,0.04905,0.34335000000000004,9.86886
1888888870,22.28,0.0,0.0,0.0,0.07848000000000001,0.30411,9.87867
1893939375,22.28,0.0,0.0,0.0,0.06867000000000001,0.31392000000000003,9.888480000000001
1898989880,22.28,0.0,0.0,0.0,0.06867000000000001,0.32373,9.94734
1904040385,22.28,0.0,0.0,0.0,0.05886,0.32373,9.89829
1909090890,22.28,0.0,0.0,0.0,0.07848000000000001,0.32373,9.91791
1914141395,22.28,0.0,0.0,0.0,0.08829,0.34335000000000004,9.87867
1919191900,22.28,0.0,0.0,0.0,0.06867000000000001,0.32373,9.87867
1924242405,22.28,0.0,0.0,0.0,0.05886,0.33354000000000006,9.83943
1929292910,22.28,0.0,0.0,0.0,0.07848000000000001,0.35316,9.87867
1934343415,22.28,0.0,0.0,0.0,0.06867000000000001,0.32373,9.888480000000001
1939393920,22.28,0.0,0.0,0.0,0.06867000000000001,0.31392000000000003,9.908100000000001
1944444425,22.28,0.0,0.0,0.0,0.06867000000000001,0.35316,9.908100000000001
1949494930,22.28,0.0,0.0,0.0,0.06867000000000001,0.34335000000000004,9.888480000000001
1954545435,22.28,0.0,0.0,0.0,0.06867000000000001,0.36297,9.86886
1959595940,22.28,0.0,0.0,0.0,0.06867000000000001,0.33354000000000006,9.86886
1964646445,22.28,0.0,0.0,0.0,0.0981,0.34335000000000004,9.84924
1969696950,22.28,0.0,0.0,0.0,0.08829,0.31392000000000003,9.888480000000001
1974747455,22.28,0.0,0.0,0.0,0.07848000000000001,0.31392000000000003,9.92772
1979797960,22.28,0.0,0.0,0.0,0.05886,0.31392000000000003,9.888480000000001
1984848465,22.28,0.0,0.0,0.0,0.06867000000000001,0.32373,9.908100000000001
1989898970,22.28,0.0,0.0,0.0,0.05886,0.32373,9.91791
1994949475,22.28,0.0,0.0,0.0,0.05886,0.36297,9.89829
1999999980,22.28,0.0,0.0,0.0,0.06867000000000001,0.36297,9.87867
2005050485,22.28,0.0,0.0,0.0,0.08829,0.34335000000000004,9.89829
2010100990,22.28,0.0,0.0,0.0,0.08829,0.32373,9.87867
2015151495,22.28,0.0,0.0,0.0,0.05886,0.30411,9.87867
2020202000,22.28,0.0,0.0,0.0,0.07848000000000001,0.34335000000000004,9.95715
2025252505,22.28,0.0,0.0,0.0,0.04905,0.33354000000000006,9.92772
2030303010,22.28,0.0,0.0,0.0,0.06867000000000001,0.32373,9.908100000000001
2035353515,22.28,0.0,0.0,0.0,0.06867000000000001,0.36297,9.888480000000001
2040404020,22.28,0.0,0.0,0.0,0.07848000000000001,0.35316,9.84924
2045454525,22.28,0.0,0.0,0.0,0.06867000000000001,0.32373,9.84924
2050505030,22.28,0.0,0.0,0.0,0.07848000000000001,0.34335000000000004,9.888480000000001
2055555535,22.28,0.0,0.0,0.0,0.04905,0.34335000000000004,9.87867
2060606040,22.28,0.0,0.0,0.0,0.07848000000000001,0.37278,9.94734
2065656545,22.28,0.0,0.0,0.0,0.10791,0.33354000000000006,9.92772
2070707050,22.28,0.0,0.0,0.0,0.06867000000000001,0.35316,9.91791
2075757555,22.28,0.0,0.0,0.0,0.05886,0.34335000000000004,9.89829
2080808060,22.28,0.0,0.0,0.0,0.07848000000000001,0.34335000000000004,9.87867
2085858565,22.28,0.0,0.0,0.0,0.08829,0.33354000000000006,9.85905
2090909070,22.28,0.0,0.0,0.0,0.08829,0.34335000000000004,9.888480000000001
2095959575,22.28,0.0,0.0,0.0,0.08829,0.33354000000000006,9.91791
2101010080,22.28,0.0,0.0,0.0,0.06867000000000001,0.33354000000000006,9.908100000000001
2106060585,22.28,0.0,0.0,0.0,0.06867000000000001,0.31392000000000003,9.92772
2111111090,22.28,0.0,0.0,0.0,0.05886,0.34335000000000004,9.908100000000001
2116161595,22.28,0.0,0.0,0.0,0.05886,0.33354000000000006,9.89829
2121212100,22.28,0.0,0.0,0.0,0.08829,0.35316,9.86886
2126262605,22.28,0.0,0.0,0.0,0.06867000000000001,0.35316,9.85905
2131313110,22.28,0.0,0.0,0.0,0.07848000000000001,0.34335000000000004,9.85905
2136363615,22.28,0.0,0.0,0.0,0.07848000000000001,0.32373,9.87867
2141414120,22.28,0.0,0.0,0.0,0.06867000000000001,0.31392000000000003,9.89829
2146464625,22.28,0.0,0.0,0.0,0.08829,0.31392000000000003,9.937529999999999
2151515130,22.28,0.0,0.0,0.0,0.07848000000000001,0.34335000000000004,9.92772
2156565635,22.28,0.0,0.0,0.0,0.06867000000000001,0.33354000000000006,9.89829
2161616140,22.28,0.0,0.0,0.0,0.06867000000000001,0.35316,9.89829
2166666645,22.28,0.0,0.0,0.0,0.02943,0.34335000000000004,9.86886
2171717150,22.28,0.0,0.0,0.0,0.05886,0.33354000000000006,9.908100000000001
2176767655,22.28,0.0,0.0,0.0,0.08829,0.32373,9.908100000000001
2181818160,22.28,0.0,0.0,0.0,0.04905,0.34335000000000004,9.908100000000001
2186868665,22.28,0.0,0.0,0.0,0.05886,0.34335000000000004,9.908100000000001
2191919170,22.28,0.0,0.0,0.0,0.07848000000000001,0.32373,9.908100000000001
2196969675,22.28,0.0,0.0,0.0,0.06867000000000001,0.33354000000000006,9.91791
2202020180,22.28,0.0,0.0,0.0,0.06867000000000001,0.35316,9.87867
2207070685,22.28,0.0,0.0,0.0,0.07848000000000001,0.34335000000000004,9.89829
2212121190,22.28,0.0,0.0,0.0,0.07848000000000001,0.30411,9.85905
2217171695,22.28,0.0,0.0,0.0,0.07848000000000001,0.33354000000000006,9.87867
2222222200,22.28,0.0,0.0,0.0,0.06867000000000001,0.32373,9.91791
2227272705,22.28,0.0,0.0,0.0,0.04905,0.28449,9.92772
2232323210,22.28,0.0,0.0,0.0,0.05886,0.33354000000000006,9.91791
2237373715,22.28,0.0,0.0,0.0,0.05886,0.34335000000000004,9.89829
2242424220,22.28,0.0,0.0,0.0,0.05886,0.34335000000000004,9.89829
2247474725,22.28,0.0,0.0,0.0,0.07848000000000001,0.35316,9.86886
2252525230,22.28,0.0,0.0,0.0,0.08829,0.35316,9.85905
2257575735,22.28,0.0,0.0,0.0,0.0981,0.34335000000000004,9.87867
2262626240,22.28,0.0,0.0,0.0,0.07848000000000001,0.34335000000000004,9.87867
2267676745,22.28,0.0,0.0,0.0,0.07848000000000001,0.2943,9.91791
2272727250,22.28,0.0,0.0,0.0,0.039240000000000004,0.32373,9.937529999999999
2277777755,22.28,0.0,0.0,0.0,0.08829,0.32373,9.91791
2282828260,22.28,0.0,0.0,0.0,0.0981,0.34335000000000004,9.87867
2287878765,22.28,0.0,0.0,0.0,0.08829,0.36297,9.87867
2292929270,22.28,0.0,0.0,0.0,0.07848000000000001,0.36297,9.86886
2297979775,22.28,0.0,0.0,0.0,0.07848000000000001,0.36297,9.92772
2303030280,22.28,0.0,0.0,0.0,0.08829,0.31392000000000003,9.92772
2308080785,22.28,0.0,0.0,0.0,0.06867000000000001,0.31392000000000003,9.92772
2313131290,22.28,0.0,0.0,0.0,0.08829,0.30411,9.89829
2318181795,22.28,0.0,0.0,0.0,0.04905,0.34335000000000004,9.908100000000001
2323232300,22.28,0.0,0.0,0.0,0.07848000000000001,0.35316,9.87867
2328282805,22.28,0.0,0.0,0.0,0.05886,0.35316,9.84924
2333333310,22.28,0.0,0.0,0.0,0.06867000000000001,0.37278,9.87867
2338383815,22.28,0.0,0.0,0.0,0.06867000000000001,0.35316,9.86886
2343434320,22.28,0.0,0.0,0.0,0.07848000000000001,0.32373,9.86886
2348484825,22.28,0.0,0.0,0.0,0.07848000000000001,0.33354000000000006,9.908100000000001
2353535330,22.28,0.0,0.0,0.0,0.07848000000000001,0.31392000000000003,9.91791
2358585835,22.28,0.0,0.0,0.0,0.06867000000000001,0.34335000000000004,9.888480000000001
2363636340,22.28,0.0,0.0,0.0,0.06867000000000001,0.33354000000000006,9.89829
2368686845,22.28,0.0,0.0,0.0,0.04905,0.34335000000000004,9.908100000000001
2373737350,22.28,0.0,0.0,0.0,0.06867000000000001,0.32373,9.888480000000001
2378787855,22.28,0.0,0.0,0.0,0.08829,0.33354000000000006,9.87867
2383838360,22.28,0.0,0.0,0.0,0.07848000000000001,0.31392000000000003,9.908100000000001
2388888865,22.28,0.0,0.0,0.0,0.06867000000000001,0.2943,9.89829
2393939370,22.28,0.0,0.0,0.0,0.04905,0.32373,9.908100000000001
2398989875,22.28,0.0,0.0,0.0,0.039240000000000004,0.32373,9.937529999999999
2404040380,22.28,0.0,0.0,0.0,0.05886,0.33354000000000006,9.89829
2409090885,22.28,0.0,0.0,0.0,0.04905,0.33354000000000006,9.85905
2414141390,22.28,0.0,0.0,0.0,0.05886,0.36297,9.83943
2419191895,22.28,0.0,0.0,0.0,0.11772,0.35316,9.86886
2424242400,22.28,0.0,0.0,0.0,0.06867000000000001,0.33354000000000006,9.87867
2429292905,22.28,0.0,0.0,0.0,0.04905,0.31392000000000003,9.89829
2434343410,22.28,0.0,0.0,0.0,0.07848000000000001,0.32373,9.937529999999999
2439393915,22.28,0.0,0.0,0.0,0.07848000000000001,0.32373,9.91791
2444444420,22.28,0.0,0.0,0.0,0.04905,0.32373,9.908100000000001
2449494925,22.28,0.0,0.0,0.0,0.10791,0.35316,9.85905
2454545430,22.28,0.0,0.0,0.0,0.06867000000000001,0.36297,9.888480000000001
2459595935,22.28,0.0,0.0,0.0,0.06867000000000001,0.33354000000000006,9.888480000000001
2464646440,22.28,0.0,0.0,0.0,0.05886,0.31392000000000003,9.888480000000001
2469696945,22.28,0.0,0.0,0.0,0.05886,0.34335000000000004,9.908100000000001
2474747450,22.28,0.0,0.0,0.0,0.04905,0.32373,9.91791
2479797955,22.28,0.0,0.0,0.0,0.07848000000000001,0.34335000000000004,9.91791
2484848460,22.28,0.0,0.0,0.0,0.05886,0.35316,9.908100000000001
2489898965,22.28,0.0,0.0,0.0,0.0981,0.35316,9.85905
2494949470,22.28,0.0,0.0,0.0,0.07848000000000001,0.35316,9.86886
2499999975,22.28,0.0,0.0,0.0,0.08829,0.34335000000000004,9.87867
2505050480,22.28,0.0,0.0,0.0,0.06867000000000001,0.33354000000000006,9.86886
2510100985,22.28,0.0,0.0,0.0,0.08829,0.32373,9.908100000000001
2515151490,22.28,0.0,0.0,0.0,0.07848000000000001,0.31392000000000003,9.92772
2520201995,22.28,0.0,0.0,0.0,0.08829,0.34335000000000004,9.94734
2525252500,22.28,0.0,0.0,0.0,0.06867000000000001,0.34335000000000004,9.908100000000001
2530303005,22.28,0.0,0.0,0.0,0.08829,0.34335000000000004,9.89829
2535353510,22.28,0.0,0.0,0.0,0.06867000000000001,0.34335000000000004,9.87867
2540404015,22.28,0.0,0.0,0.0,0.07848000000000001,0.33354000000000006,9.888480000000001
2545454520,22.28,0.0,0.0,0.0,0.08829,0.32373,9.87867
2550505025,22.28,0.0,0.0,0.0,0.07848000000000001,0.32373,9.92772
2555555530,22.28,0.0,0.0,0.0,0.08829,0.32373,9.91791
2560606035,22.28,0.0,0.0,0.0,0.05886,0.32373,9.908100000000001
2565656540,22.28,0.0,0.0,0.0,0.07848000000000001,0.33354000000000006,9.888480000000001
2570707045,22.28,0.0,0.0,0.0,0.05886,0.38259000000000004,9.888480000000001
2575757550,22.28,0.0,0.0,0.0,0.08829,0.35316,9.87867
2580808055,22.28,0.0,0.0,0.0,0.08829,0.32373,9.83943
2585858560,22.28,0.0,0.0,0.0,0.06867000000000001,0.32373,9.888480000000001
2590909065,22.28,0.0,0.0,0.0,0.06867000000000001,0.35316,9.888480000000001
2595959570,22.28,0.0,0.0,0.0,0.06867000000000001,0.34335000000000004,9.91791
2601010075,22.28,0.0,0.0,0.0,0.05886,0.32373,9.908100000000001
2606060580,22.28,0.0,0.0,0.0,0.07848000000000001,0.31392000000000003,9.91791
2611111085,22.28,0.0,0.0,0.0,0.06867000000000001,0.35316,9.87867
2616161590,22.28,0.0,0.0,0.0,0.06867000000000001,0.32373,9.87867
2621212095,22.28,0.0,0.0,0.0,0.07848000000000001,0.34335000000000004,9.85905
2626262600,22.28,0.0,0.0,0.0,0.05886,0.34335000000000004,9.86886
2631313105,22.28,0.0,0.0,0.0,0.06867000000000001,0.32373,9.85905
2636363610,22.28,0.0,0.0,0.0,0.08829,0.32373,9.908100000000001
2641414115,22.28,0.0,0.0,0.0,0.05886,0.32373,9.91791
2646464620,22.28,0.0,0.0,0.0,0.06867000000000001,0.32373,9.908100000000001
2651515125,22.28,0.0,0.0,0.0,0.05886,0.36297,9.87867
2656565630,22.28,0.0,0.0,0.0,0.07848000000000001,0.34335000000000004,9.85905
2661616135,22.28,0.0,0.0,0.0,0.06867000000000001,0.35316,9.82962
2666666640,22.28,0.0,0.0,0.0,0.07848000000000001,0.33354000000000006,9.888480000000001
2671717145,22.28,0.0,0.0,0.0,0.06867000000000001,0.34335000000000004,9.888480000000001
2676767650,22.28,0.0,0.0,0.0,0.08829,0.33354000000000006,9.92772
2681818155,22.28,0.0,0.0,0.0,0.04905,0.32373,9.89829
2686868660,22.28,0.0,0.0,0.0,0.06867000000000001,0.31392000000000003,9.937529999999999
2691919165,22.28,0.0,0.0,0.0,0.07848000000000001,0.33354000000000006,9.87867
2696969670,22.28,0.0,0.0,0.0,0.06867000000000001,0.35316,9.89829
2702020175,22.28,0.0,0.0,0.0,0.07848000000000001,0.34335000000000004,9.86886
2707070680,22.28,0.0,0.0,0.0,0.06867000000000001,0.35316,9.84924
2712121185,22.28,0.0,0.0,0.0,0.08829,0.33354000000000006,9.89829
2717171690,22.28,0.0,0.0,0.0,0.04905,0.30411,9.91791
2722222195,22.28,0.0,0.0,0.0,0.07848000000000001,0.32373,9.94734
2727272700,22.28,0.0,0.0,0.0,0.06867000000000001,0.35316,9.91791
2732323205,22.28,0.0,0.0,0.0,0.06867000000000001,0.34335000000000004,9.86886
2737373710,22.28,0.0,0.0,0.0,0.08829,0.35316,9.86886
2742424215,22.28,0.0,0.0,0.0,0.0981,0.34335000000000004,9.84924
2747474720,22.28,0.0,0.0,0.0,0.06867000000000001,0.33354000000000006,9.888480000000001
2752525225,22.28,0.0,0.0,0.0,0.0981,0.31392000000000003,9.87867
2757575730,22.28,0.0,0.0,0.0,0.07848000000000001,0.2943,9.92772
2762626235,22.28,0.0,0.0,0.0,0.05886,0.2943,9.89829
2767676740,22.28,0.0,0.0,0.0,0.07848000000000001,0.31392000000000003,9.908100000000001
2772727245,22.28,0.0,0.0,0.0,0.07848000000000001,0.34335000000000004,9.89829
2777777750,22.28,0.0,0.0,0.0,0.06867000000000001,0.34335000000000004,9.86886
2782828255,22.28,0.0,0.0,0.0,0.08829,0.32373,9.87867
2787878760,22.28,0.0,0.0,0.0,0.05886,0.33354000000000006,9.87867
2792929265,22.28,0.0,0.0,0.0,0.05886,0.36297,9.888480000000001
2797979770,22.28,0.0,0.0,0.0,0.08829,0.32373,9.888480000000001
2803030275,22.28,0.0,0.0,0.0,0.07848000000000001,0.34335000000000004,9.92772
2808080780,22.28,0.0,0.0,0.0,0.0981,0.32373,9.92772
2813131285,22.28,0.0,0.0,0.0,0.07848000000000001,0.34335000000000004,9.908100000000001
2818181790,22.28,0.0,0.0,0.0,0.039240000000000004,0.35316,9.888480000000001
2823232295,22.28,0.0,0.0,0.0,0.08829,0.34335000000000004,9.86886
2828282800,22.28,0.0,0.0,0.0,0.0981,0.32373,9.87867
2833333305,22.28,0.0,0.0,0.0,0.08829,0.34335000000000004,9.89829
2838383810,22.28,0.0,0.0,0.0,0.0981,0.30411,9.908100000000001
2843434315,22.28,0.0,0.0,0.0,0.05886,0.31392000000000003,9.89829
2848484820,22.28,0.0,0.0,0.0,0.05886,0.32373,9.92772
2853535325,22.28,0.0,0.0,0.0,0.08829,0.32373,9.888480000000001
2858585830,22.28,0.0,0.0,0.0,0.08829,0.33354000000000006,9.888480000000001
2863636335,22.28,0.0,0.0,0.0,0.07848000000000001,0.34335000000000004,9.85905
2868686840,22.28,0.0,0.0,0.0,0.06867000000000001,0.35316,9.85905
2873737345,22.28,0.0,0.0,0.0,0.07848000000000001,0.34335000000000004,9.85905
2878787850,22.28,0.0,0.0,0.0,0.06867000000000001,0.32373,9.89829
2883838355,22.28,0.0,0.0,0.0,0.07848000000000001,0.31392000000000003,9.89829
2888888860,22.28,0.0,0.0,0.0,0.06867000000000001,0.32373,9.91791
2893939365,22.28,0.0,0.0,0.0,0.06867000000000001,0.32373,9.95715
2898989870,22.28,0.0,0.0,0.0,0.04905,0.35316,9.89829
2904040375,22.28,0.0,0.0,0.0,0.05886,0.34335000000000004,9.84924
2909090880,22.28,0.0,0.0,0.0,0.06867000000000001,0.35316,9.85905
2914141385,22.28,0.0,0.0,0.0,0.05886,0.35316,9.87867
2919191890,22.28,0.0,0.0,0.0,0.07848000000000001,0.32373,9.91791
2924242395,22.28,0.0,0.0,0.0,0.07848000000000001,0.32373,9.91791
2929292900,22.28,0.0,0.0,0.0,0.08829,0.31392000000000003,9.87867
2934343405,22.28,0.0,0.0,0.0,0.07848000000000001,0.34335000000000004,9.908100000000001
2939393910,22.28,0.0,0.0,0.0,0.05886,0.32373,9.89829
2944444415,22.28,0.0,0.0,0.0,0.08829,0.34335000000000004,9.87867
2949494920,22.28,0.0,0.0,0.0,0.08829,0.34335000000000004,9.85905
2954545425,22.28,0.0,0.0,0.0,0.05886,0.33354000000000006,9.84924
2959595930,22.28,0.0,0.0,0.0,0.06867000000000001,0.33354000000000006,9.89829
2964646435,22.28,0.0,0.0,0.0,0.06867000000000001,0.33354000000000006,9.91791
2969696940,22.28,0.0,0.0,0.0,0.02943,0.31392000000000003,9.91791
2974747445,22.28,0.0,0.0,0.0,0.06867000000000001,0.32373,9.91791
2979797950,22.28,0.0,0.0,0.0,0.08829,0.32373,9.89829
2984848455,22.28,0.0,0.0,0.0,0.06867000000000001,0.33354000000000006,9.86886
2989898960,20.7,0.0,0.0,0.0,0.05886,0.34335000000000004,9.87867
2994949465,20.7,0.0,0.0,0.0,0.04905,0.34335000000000004,9.888480000000001
2999999970,20.7,0.0,0.0,0.0,0.07848000000000001,0.34335000000000004,9.888480000000001
3005050475,20.7,0.0,0.0,0.0,0.06867000000000001,0.32373,9.91791
3010100980,20.7,0.0,0.0,0.0,0.06867000000000001,0.31392000000000003,9.908100000000001
3015151485,20.7,0.0,0.0,0.0,0.06867000000000001,0.33354000000000006,9.94734
3020201990,20.7,0.0,0.0,0.0,0.07848000000000001,0.31392000000000003,9.908100000000001
3025252495,20.7,0.0,0.0,0.0,0.07848000000000001,0.36297,9.89829
3030303000,20.7,0.0,0.0,0.0,0.07848000000000001,0.35316,9.83943
3035353505,20.7,0.0,0.0,0.0,0.06867000000000001,0.35316,9.888480000000001
3040404010,20.7,0.0,0.0,0.0,0.06867000000000001,0.32373,9.87867
3045454515,20.7,0.0,0.0,0.0,0.06867000000000001,0.2943,9.89829
3050505020,20.7,0.0,0.0,0.0,0.04905,0.30411,9.92772
3055555525,20.7,0.0,0.0,0.0,0.05886,0.30411,9.91791
3060606030,20.7,0.0,0.0,0.0,0.0981,0.34335000000000004,9.89829
3065656535,20.7,0.0,0.0,0.0,0.06867000000000001,0.37278,9.888480000000001
3070707040,20.7,0.0,0.0,0.0,0.07848000000000001,0.34335000000000004,9.86886
3075757545,20.7,0.0,0.0,0.0,0.07848000000000001,0.34335000000000004,9.86886
3080808050,20.7,0.0,0.0,0.0,0.06867000000000001,0.32373,9.908100000000001
3085858555,20.7,0.0,0.0,0.0,0.07848000000000001,0.32373,9.888480000000001
3090909060,20.7,0.0,0.0,0.0,0.07848000000000001,0.30411,9.908100000000001
3095959565,20.7,0.0,0.0,0.0,0.02943,0.31392000000000003,9.908100000000001
3101010070,20.7,0.0,0.0,0.0,0.05886,0.32373,9.888480000000001
3106060575,20.7,0.0,0.0,0.0,0.06867000000000001,0.36297,9.888480000000001
3111111080,20.7,0.0,0.0,0.0,0.0981,0.36297,9.83943
3116161585,20.7,0.0,0.0,0.0,0.06867000000000001,0.33354000000000006,9.84924
3121212090,20.7,0.0,0.0,0.0,0.05886,0.33354000000000006,9.87867
3126262595,20.7,0.0,0.0,0.0,0.06867000000000001,0.32373,9.888480000000001
3131313100,20.7,0.0,0.0,0.0,0.06867000000000001,0.32373,9.908100000000001
3136363605,20.7,0.0,0.0,0.0,0.02943,0.32373,9.92772
3141414110,20.7,0.0,0.0,0.0,0.07848000000000001,0.33354000000000006,9.908100000000001
3146464615,20.7,0.0,0.0,0.0,0.04905,0.32373,9.86886
3151515120,20.7,0.0,0.0,0.0,0.05886,0.35316,9.86886
3156565625,20.7,0.0,0.0,0.0,0.06867000000000001,0.33354000000000006,9.86886
3161616130,20.7,0.0,0.0,0.0,0.06867000000000001,0.30411,9.888480000000001
3166666635,20.7,0.0,0.0,0.0,0.07848000000000001,0.30411,9.89829
3171717140,20.7,0.0,0.0,0.0,0.05886,0.31392000000000003,9.908100000000001
3176767645,20.7,0.0,0.0,0.0,0.05886,0.31392000000000003,9.91791
3181818150,20.7,0.0,0.0,0.0,0.06867000000000001,0.30411,9.89829
3186868655,20.7,0.0,0.0,0.0,0.06867000000000001,0.34335000000000004,9.888480000000001
3191919160,20.7,0.0,0.0,0.0,0.06867000000000001,0.33354000000000006,9.84924
3196969665,20.7,0.0,0.0,0.0,0.07848000000000001,0.34335000000000004,9.89829
3202020170,20.7,0.0,0.0,0.0,0.07848000000000001,0.34335000000000004,9.87867
3207070675,20.7,0.0,0.0,0.0,0.04905,0.31392000000000003,9.86886
3212121180,20.7,0.0,0.0,0.0,0.05886,0.33354000000000006,9.888480000000001
3217171685,20.7,0.0,0.0,0.0,0.06867000000000001,0.34335000000000004,9.92772
3222222190,20.7,0.0,0.0,0.0,0.05886,0.35316,9.888480000000001
3227272695,20.7,0.0,0.0,0.0,0.04905,0.35316,9.89829
3232323200,20.7,0.0,0.0,0.0,0.07848000000000001,0.33354000000000006,9.85905
3237373705,20.7,0.0,0.0,0.0,0.05886,0.35316,9.87867
3242424210,20.7,0.0,0.0,0.0,0.06867000000000001,0.2943,9.87867
3247474715,20.7,0.0,0.0,0.0,0.07848000000000001,0.32373,9.888480000000001
3252525220,20.7,0.0,0.0,0.0,0.06867000000000001,0.31392000000000003,9.888480000000001
3257575725,20.7,0.0,0.0,0.0,0.06867000000000001,0.31392000000000003,9.888480000000001
3262626230,20.7,0.0,0.0,0.0,0.06867000000000001,0.34335000000000004,9.91791
3267676735,20.7,0.0,0.0,0.0,0.07848000000000001,0.32373,9.89829
3272727240,20.7,0.0,0.0,0.0,0.0981,0.33354000000000006,9.888480000000001
3277777745,20.7,0.0,0.0,0.0,0.07848000000000001,0.36297,9.888480000000001
3282828250,20.7,0.0,0.0,0.0,0.07848000000000001,0.34335000000000004,9.86886
3287878755,20.7,0.0,0.0,0.0,0.05886,0.32373,9.888480000000001
3292929260,20.7,0.0,0.0,0.0,0.06867000000000001,0.2943,9.908100000000001
3297979765,20.7,0.0,0.0,0.0,0.07848000000000001,0.33354000000000006,9.908100000000001
3303030270,20.7,0.0,0.0,0.0,0.08829,0.33354000000000006,9.888480000000001
3308080775,20.7,0.0,0.0,0.0,0.0981,0.35316,9.86886
3313131280,20.7,0.0,0.0,0.0,0.06867000000000001,0.32373,9.86886
3318181785,20.7,0.0,0.0,0.0,0.06867000000000001,0.34335000000000004,9.85905
3323232290,20.7,0.0,0.0,0.0,0.06867000000000001,0.34335000000000004,9.888480000000001
3328282795,20.7,0.0,0.0,0.0,0.07848000000000001,0.31392000000000003,9.87867
3333333300,20.7,0.0,0.0,0.0,0.04905,0.31392000000000003,9.92772
3338383805,20.7,0.0,0.0,0.0,0.05886,0.30411,9.908100000000001
3343434310,20.7,0.0,0.0,0.0,0.039240000000000004,0.34335000000000004,9.908100000000001
3348484815,20.7,0.0,0.0,0.0,0.05886,0.34335000000000004,9.89829
3353535320,20.7,0.0,0.0,0.0,0.07848000000000001,0.34335000000000004,9.85905
3358585825,20.7,0.0,0.0,0.0,0.06867000000000001,0.34335000000000004,9.888480000000001
3363636330,20.7,0.0,0.0,0.0,0.07848000000000001,0.32373,9.888480000000001
3368686835,20.7,0.0,0.0,0.0,0.04905,0.34335000000000004,9.908100000000001
3373737340,20.7,0.0,0.0,0.0,0.06867000000000001,0.30411,9.89829
3378787845,20.7,0.0,0.0,0.0,0.06867000000000001,0.32373,9.908100000000001
3383838350,20.7,0.0,0.0,0.0,0.07848000000000001,0.32373,9.91791
3388888855,20.7,0.0,0.0,0.0,0.07848000000000001,0.36297,9.888480000000001
3393939360,20.7,0.0,0.0,0.0,0.08829,0.34335000000000004,9.86886
3398989865,20.7,0.0,0.0,0.0,0.04905,0.34335000000000004,9.888480000000001
3404040370,20.7,0.0,0.0,0.0,0.05886,0.34335000000000004,9.83943
3409090875,20.7,0.0,0.0,0.0,0.06867000000000001,0.34335000000000004,9.888480000000001
3414141380,20.7,0.0,0.0,0.0,0.05886,0.33354000000000006,9.89829
3419191885,20.7,0.0,0.0,0.0,0.04905,0.32373,9.91791
3424242390,20.7,0.0,0.0,0.0,0.02943,0.31392000000000003,9.92772
3429292895,20.7,0.0,0.0,0.0,0.039240000000000004,0.31392000000000003,9.908100000000001
3434343400,20.7,0.0,0.0,0.0,0.04905,0.35316,9.91791
3439393905,20.7,0.0,0.0,0.0,0.12753,0.36297,9.908100000000001
3444444410,20.7,0.0,0.0,0.0,0.06867000000000001,0.35316,9.888480000000001
3449494915,20.7,0.0,0.0,0.0,0.10791,0.34335000000000004,9.908100000000001
3454545420,20.7,0.0,0.0,0.0,0.06867000000000001,0.32373,9.908100000000001
3459595925,20.7,0.0,0.0,0.0,0.04905,0.30411,9.91791
3464646430,20.7,0.0,0.0,0.0,0.05886,0.2943,9.92772
3469696935,20.7,0.0,0.0,0.0,0.06867000000000001,0.30411,9.91791
3474747440,20.7,0.0,0.0,0.0,0.07848000000000001,0.35316,9.89829
3479797945,20.7,0.0,0.0,0.0,0.0981,0.35316,9.888480000000001
3484848450,20.7,0.0,0.0,0.0,0.0981,0.36297,9.86886
3489898955,20.7,0.0,0.0,0.0,0.07848000000000001,0.36297,9.86886
3494949460,20.7,0.0,0.0,0.0,0.10791,0.30411,9.888480000000001
3499999965,20.7,-0.003193952531149623,0.012775810124598492,0.0,0.04905,0.2943,9.86886
3505050470,20.7,0.007452555906015787,0.002129301687433082,0.0,0.02943,0.35316,9.908100000000001
3510100975,20.7,0.004258603374866164,0.002129301687433082,0.0,0.05886,0.33354000000000006,9.937529999999999
3515151480,20.7,-0.005323254218582705,0.005323254218582705,0.0,0.009810000000000001,0.33354000000000006,9.86886
3520201985,20.7,0.004258603374866164,-0.007452555906015787,0.0,0.02943,0.3924,9.84924
3525252490,20.7,0.003193952531149623,-0.005323254218582705,0.0,0.08829,0.37278,9.85905
3530302995,20.7,-0.008517206749732328,-0.004258603374866164,0.0,0.07848000000000001,0.31392000000000003,9.83943
3535353500,20.7,0.0,-0.002129301687433082,0.0,0.0981,0.34335000000000004,9.888480000000001
3540404005,20.7,0.002129301687433082,0.005323254218582705,0.0,0.08829,0.34335000000000004,9.92772
3545454510,20.7,-0.005323254218582705,0.004258603374866164,0.0,0.02943,0.2943,9.937529999999999
3550505015,20.7,-0.004258603374866164,-0.001064650843716541,0.0,0.05886,0.34335000000000004,9.908100000000001
3555555520,20.7,0.0,0.001064650843716541,0.0,0.039240000000000004,0.32373,9.91791
3560606025,20.7,-0.001064650843716541,-0.007452555906015787,0.0,0.039240000000000004,0.31392000000000003,9.87867
3565656530,20.7,0.002129301687433082,-0.003193952531149623,0.0,0.0981,0.37278,9.888480000000001
3570707035,20.7,0.002129301687433082,0.0,0.0,0.08829,0.34335000000000004,9.86886
3575757540,20.7,0.0,0.0,0.0,0.07848000000000001,0.34335000000000004,9.908100000000001
3580808045,20.7,0.0,0.0,0.0,0.10791,0.32373,9.92772
3585858550,20.7,-0.002129301687433082,0.004258603374866164,0.0,0.10791,0.32373,9.92772
3590909055,20.7,-0.005323254218582705,0.005323254218582705,0.0,0.05886,0.28449,9.908100000000001
3595959560,20.7,0.002129301687433082,0.02663372438543347,0.0,0.16677000000000003,0.38259000000000004,9.87867
3601010065,20.7,-0.012775810124598492,0.07990117315630041,0.0,0.37278,0.0,9.770760000000001
3606060570,20.7,-0.03408628029144926,0.2354274628015151,-0.007452555906015787,-0.17658,-0.02943,9.86886
3611111075,20.7,0.03408628029144926,0.11079350091660004,-0.001064650843716541,-0.79461,0.11772,9.95715
3616161580,20.7,0.03834488366631542,0.17896606149949854,0.0,-0.33354000000000006,0.0,9.95715
3621212085,20.7,0.05326744877086694,0.07777187146886733,0.0,-1.5303600000000002,0.5591700000000001,9.68247
3626262590,20.7,0.10866419922916695,-0.07136651311404815,0.005323254218582705,-0.6867000000000001,0.63765,10.300500000000001
3631313095,20.7,0.020245819323134222,-0.11931070766633237,0.0,-1.46169,0.60822,9.37836
3636363600,20.7,0.01064650843716541,-0.4356865411753445,0.008517206749732328,0.02943,0.74556,10.17297
3641414105,20.7,0.021310470166850764,-0.21731094516581398,0.006387905062299246,0.11772,1.1870100000000001,10.006200000000002
3646464610,20.7,-0.008517206749732328,-0.49001864078992796,0.007452555906015787,0.45126,0.9613800000000001,9.92772
3651515115,20.7,-0.12356931104119852,-0.2556558288321294,0.01064650843716541,1.73637,0.79461,10.19259
3656565620,20.7,-0.07883652231258387,-0.25139722545726323,0.0,1.21644,0.87309,9.69228
3661616125,20.7,-0.15978489302008084,-0.05965535383316618,0.004258603374866164,2.5113600000000003,0.02943,9.86886
3666666630,20.7,-0.2162462943220974,0.20240583335378237,-0.002129301687433082,0.8829,-0.1962,10.05525
3671717135,20.7,-0.13421581947836395,0.10866419922916695,-0.001064650843716541,1.54017,-0.7749900000000001,9.64323
3676767640,20.7,-0.12995721610349775,0.4431565503738802,-0.004258603374866164,0.36297,-1.01043,9.68247
3681818145,20.7,0.002129301687433082,0.14487978120804929,-0.006387905062299246,-0.60822,-0.8142300000000001,9.78057
3686868650,20.7,0.09374163412461543,0.18109536318693162,-0.002129301687433082,0.31392000000000003,-0.5493600000000001,9.69228
3691919155,20.7,0.16084954386379738,0.14700908289548237,-0.005323254218582705,-0.8240400000000001,0.0,9.633420000000001
3696969660,20.7,0.18961256993666398,-0.003193952531149623,0.0,0.16677000000000003,0.26487,9.60399
3702020165,20.7,0.19921188082263275,0.177901410655782,-0.007452555906015787,-0.08829,0.7749900000000001,9.72171
3707070670,20.7,0.19174187162409706,0.049008845396000776,-0.003193952531149623,-0.35316,1.4715,9.937529999999999
3712121175,20.7,0.18854791909294744,0.20666443672864854,-0.004258603374866164,-0.26487,2.5407900000000003,10.64385
3717171680,20.7,0.1331511686346474,0.06497860805174888,-0.004258603374866164,-1.55979,1.9423800000000002,10.05525
3722222185,20.7,-0.22263419938439669,-0.011711159280881954,0.006387905062299246,-0.48069000000000006,0.15696000000000002,10.68309
3727272690,20.7,-0.2599318854995155,-0.015987215948268057,-0.003193952531149623,-0.5493600000000001,-0.11772,9.48627
3732323195,20.7,-0.10012953918691468,-0.022375121010567305,0.007452555906015787,-0.5395500000000001,-0.06867000000000001,10.37898
3737373700,20.7,-0.11824605682261582,-0.06923721142661506,0.001064650843716541,-0.7749900000000001,-0.49050000000000005,10.11411
3742424205,20.7,-0.11079350091660004,-0.16617279808238014,0.004258603374866164,-0.37278,-0.5493600000000001,9.64323
3747474710,20.7,0.015987215948268057,-0.10545279340549739,0.007452555906015787,-0.24525000000000002,0.08829,10.15335
3752525215,20.7,0.060720004676882725,-0.19814722997891623,0.0,-0.12753,0.08829,9.60399
3757575720,20.7,0.008517206749732328,-0.15339698795778162,0.01064650843716541,0.27468000000000004,0.25506,9.50589
3762626225,20.7,0.07990117315630041,-0.17683675981206545,0.002129301687433082,0.38259000000000004,0.6278400000000001,9.89829
3767676730,20.7,0.039409534510031964,-0.1704488547497662,0.004258603374866164,0.69651,0.5493600000000001,9.358740000000001
3772727235,20.7,0.01918116847941768,-0.12250466019748199,0.006387905062299246,0.89271,0.6670800000000001,9.96696
3777777740,20.7,0.01811651763570114,-0.10653489754173388,0.0,0.9221400000000001,0.70632,9.908100000000001
3782828245,20.7,-0.00958185759344887,-0.06710790973918197,0.002129301687433082,1.22625,0.60822,9.888480000000001
3787878750,20.7,-0.03728023282259888,0.033021629447732716,-0.001064650843716541,1.16739,0.41202000000000005,10.15335
3792929255,20.7,-0.060720004676882725,0.07030186227033158,-0.002129301687433082,1.04967,0.21582,9.94734
3797979760,20.7,-0.05646140130201656,0.18748326824923087,0.0,0.9221400000000001,0.039240000000000004,9.94734
3803030265,20.7,-0.044732788728614664,0.18854791909294744,-0.008517206749732328,0.34335000000000004,-0.06867000000000001,9.751140000000001
3808080770,20.7,-0.012775810124598492,0.24607397123868052,-0.003193952531149623,0.44145,-0.18639,9.87867
3813131275,20.7,0.008517206749732328,0.2961474674783978,-0.008517206749732328,-0.36297,-0.22563,9.69228
3818181780,20.7,0.04581489286485115,0.19921188082263275,-0.003193952531149623,-0.5395500000000001,-0.0981,9.80019
3823232285,20.7,0.08628907821859966,0.22903955773921586,-0.004258603374866164,-0.57879,0.009810000000000001,9.81
3828282790,20.7,0.10653489754173388,0.1629788455512305,-0.004258603374866164,-1.13796,0.6768900000000001,9.69228
3833333295,20.7,0.1704488547497662,0.10332349171806432,0.0,-1.2851100000000002,1.55979,10.48689
3838383800,20.7,0.11505210429146619,-0.005323254218582705,0.0,-1.80504,1.16739,9.78057
3843434305,20.7,-0.08735372906231618,-0.20772908757236508,0.005323254218582705,-1.0791000000000002,0.35316,10.08468
3848484810,20.7,-0.08096582400001695,-0.18641861740551433,0.004258603374866164,-0.24525000000000002,0.41202000000000005,9.819809999999999
3853535315,20.7,0.002129301687433082,-0.20347048419749894,0.007452555906015787,-0.45126,0.6180300000000001,9.99639
3858585820,20.7,-0.06497860805174888,-0.28335420406127937,0.007452555906015787,0.08829,0.26487,10.15335
3863636325,20.7,-0.08948303074974927,-0.23010420858293237,0.008517206749732328,0.37278,0.35316,10.074869999999999
3868686830,20.7,-0.023439771854283843,-0.24500932039496398,0.006387905062299246,0.52974,0.51993,10.1043
3873737335,20.7,-0.05965535383316618,-0.20559978588493202,0.004258603374866164,1.0791000000000002,0.24525000000000002,9.92772
3878787840,20.7,-0.08309512568745003,-0.11292280260403312,0.005323254218582705,1.01043,0.25506,9.760950000000001
3883838345,20.7,-0.044732788728614664,-0.09906488834319814,0.0,1.10853,0.24525000000000002,9.751140000000001
3888888850,20.7,-0.06284930636431581,-0.013840460968315033,0.0,1.19682,0.02943,9.60399
3893939355,20.7,-0.05859070298944965,0.05752605214573309,-0.001064650843716541,1.08891,-0.0981,9.66285
3898989860,20.7,-0.03408628029144926,0.14275047952061623,-0.003193952531149623,1.00062,-0.24525000000000002,9.65304
3904040365,20.7,-0.002129301687433082,0.21944024685324706,-0.005323254218582705,0.6278400000000001,-0.28449,9.68247
3909090870,20.7,0.04581489286485115,0.2503325746135467,-0.005323254218582705,0.33354000000000006,-0.23544,9.73152
3914141375,20.7,0.08948303074974927,0.27164304478039747,-0.004258603374866164,0.009810000000000001,-0.0981,9.751140000000001
3919191880,20.7,0.12144000935376545,0.2652551397180982,-0.006387905062299246,-0.43164,0.05886,9.86886
3924242385,20.7,0.14275047952061623,0.18641861740551433,-0.006387905062299246,-0.64746,0.41202000000000005,9.87867
3929292890,20.7,0.15872024217636432,0.13955652698946658,-0.002129301687433082,-0.57879,1.50093,9.97677
3934343395,20.7,0.19600047499896323,0.15765559133264778,-0.001064650843716541,-1.49112,2.06991,11.016630000000001
3939393900,20.7,0.006387905062299246,-0.0756251164889143,0.0,-1.4813100000000001,0.9123300000000001,9.65304
3944444405,20.7,-0.18641861740551433,-0.12037535851004891,0.0,-0.51012,0.16677000000000003,10.006200000000002
3949494910,20.7,-0.07670722062515077,-0.10866419922916695,0.004258603374866164,-0.48069000000000006,0.51012,9.96696
3954545415,20.7,-0.033021629447732716,-0.1672549022186166,0.005323254218582705,-0.34335000000000004,0.23544,9.85905
3959595920,20.7,-0.1374272253020335,-0.18216001403064813,0.008517206749732328,-0.24525000000000002,-0.07848000000000001,10.074869999999999
3964646425,20.7,-0.05113814708343386,-0.2482032729261136,0.003193952531149623,0.14715,0.24525000000000002,10.11411
3969696930,20.7,-0.028763026072866547,-0.19600047499896323,0.003193952531149623,0.52974,0.15696000000000002,9.84924
3974747435,20.7,-0.06604325889546543,-0.177901410655782,0.004258603374866164,0.60822,0.05886,9.89829
3979797940,20.7,-0.02556907354171693,-0.1278279144160647,0.003193952531149623,1.00062,0.20601000000000003,9.760950000000001
3984848445,20.7,0.002129301687433082,-0.033021629447732716,0.001064650843716541,0.9123300000000001,0.1962,9.623610000000001
3989898950,20.7,-0.013840460968315033,-0.0170518667919846,0.0,0.84366,0.15696000000000002,9.74133
3994949455,20.7,0.004258603374866164,0.04794419455228423,0.001064650843716541,0.94176,0.1962,9.7119
3999999960,20.7,0.020245819323134222,0.1097288500728835,-0.002129301687433082,0.70632,0.11772,9.73152
4005050465,20.7,0.011711159280881954,0.12676326357234816,-0.005323254218582705,0.5591700000000001,0.0981,9.81
4010100970,20.7,0.039409534510031964,0.17151350559348277,-0.004258603374866164,0.47088,0.11772,9.819809999999999
4015151475,20.7,0.05113814708343386,0.20347048419749894,-0.006387905062299246,0.13734000000000002,0.15696000000000002,9.86886
4020201980,20.7,0.06178465552059926,0.19493582415524666,-0.004258603374866164,-0.04905,0.21582,9.86886
4025252485,20.7,0.07349581480148122,0.20134118251006583,-0.003193952531149623,-0.35316,0.34335000000000004,9.888480000000001
4030302990,20.7,0.08309512568745003,0.14594443205176583,-0.003193952531149623,-0.59841,0.56898,9.91791
4035353495,20.7,0.07990117315630041,0.09800023749948161,0.001064650843716541,-0.65727,1.06929,9.97677
4040404000,20.7,0.09267698328089889,0.05113814708343386,0.0,-1.1477700000000002,1.13796,10.38879
4045454505,20.7,-0.03834488366631542,-0.10545279340549739,0.002129301687433082,-0.7651800000000001,0.41202000000000005,9.81
4050505010,20.7,-0.09587093581204853,-0.10332349171806432,0.003193952531149623,-0.33354000000000006,0.44145,9.83943
4055555515,20.7,-0.001064650843716541,-0.12995721610349775,0.002129301687433082,-0.3924,0.65727,10.074869999999999
4060606020,20.7,-0.06178465552059926,-0.18109536318693162,0.006387905062299246,-0.06867000000000001,0.2943,9.91791
4065656525,20.7,-0.09587093581204853,-0.17470745812463237,0.006387905062299246,0.12753,0.2943,9.89829
4070707030,20.7,-0.03621558197888234,-0.17257815643719931,0.003193952531149623,0.37278,0.37278,10.006200000000002
4075757535,20.7,-0.06391395720803235,-0.1288925652597812,0.002129301687433082,0.5886,0.11772,9.89829
4080808040,20.7,-0.07990117315630041,-0.08948303074974927,0.003193952531149623,0.59841,0.04905,9.87867
4085858545,20.7,-0.03621558197888234,-0.05752605214573309,0.0,0.71613,0.06867000000000001,9.86886
4090909050,20.7,-0.03515093113516579,0.004258603374866164,-0.002129301687433082,0.6867000000000001,-0.05886,9.78057
4095959555,20.7,-0.01918116847941768,0.03834488366631542,-0.001064650843716541,0.5886,-0.009810000000000001,9.760950000000001
4101010060,20.7,0.021310470166850764,0.09161233243718235,-0.002129301687433082,0.60822,0.039240000000000004,9.70209
4106060565,20.7,0.039409534510031964,0.14913838458291545,-0.002129301687433082,0.30411,0.02943,9.72171
4111111070,20.7,0.054332099614583476,0.13634512116579703,-0.003193952531149623,0.11772,0.12753,9.760950000000001
4116161575,20.7,0.0756251164889143,0.15339698795778162,-0.002129301687433082,0.0,0.26487,9.80019
4121212080,20.7,0.08203047484373349,0.13849187614575004,-0.003193952531149623,-0.26487,0.32373,9.888480000000001
4126262585,20.7,0.07456046564519776,0.10119419003063122,-0.001064650843716541,-0.32373,0.48069000000000006,9.937529999999999
4131313090,20.7,0.0852244273748831,0.07030186227033158,-0.003193952531149623,-0.38259000000000004,0.6278400000000001,10.006200000000002
4136363595,20.7,0.07030186227033158,0.024504422698000388,0.0,-0.43164,0.9319500000000001,10.01601
4141414100,20.7,0.05646140130201656,-0.006387905062299246,0.0,-0.46107000000000004,0.9810000000000001,10.23183
4146464605,20.7,-0.013840460968315033,-0.06604325889546543,0.0,-0.30411,0.70632,9.86886
4151515110,20.7,-0.06391395720803235,-0.08309512568745003,0.001064650843716541,-0.08829,0.6768900000000001,10.08468
4156565615,20.7,-0.046879543708567686,-0.08948303074974927,0.004258603374866164,-0.06867000000000001,0.59841,9.99639
4161616120,20.7,-0.09480628496833199,-0.10438814256178083,0.003193952531149623,0.02943,0.28449,9.95715
4166666625,20.7,-0.10653489754173388,-0.09480628496833199,0.001064650843716541,0.21582,0.1962,9.97677
4171717130,20.7,-0.08203047484373349,-0.05113814708343386,0.004258603374866164,0.28449,0.04905,9.91791
4176767635,20.7,-0.07136651311404815,-0.033021629447732716,0.001064650843716541,0.20601000000000003,-0.08829,9.78057
4181818140,20.7,-0.05007349623971732,-0.01064650843716541,0.001064650843716541,0.24525000000000002,-0.10791,9.79038
4186868645,20.7,-0.013840460968315033,0.0170518667919846,0.001064650843716541,0.14715,-0.06867000000000001,9.74133
4191919150,20.7,0.007452555906015787,0.006387905062299246,-0.001064650843716541,0.14715,-0.04905,9.67266
4196969655,20.7,0.02769837522915001,0.031956978604016174,0.0,0.17658,0.009810000000000001,9.751140000000001
4202020160,20.7,0.060720004676882725,0.04260348704118158,0.0,0.06867000000000001,0.15696000000000002,9.78057
4207070665,20.7,0.07883652231258387,0.03728023282259888,-0.001064650843716541,-0.009810000000000001,0.34335000000000004,9.81
4212121170,20.7,0.09054768159346581,0.01064650843716541,0.0,-0.019620000000000002,0.57879,9.92772
4217171675,20.7,0.08628907821859966,-0.014905111812031574,0.0,0.07848000000000001,0.72594,9.937529999999999
4222222180,20.7,0.05859070298944965,-0.024504422698000388,0.0,0.17658,0.80442,9.95715
4227272685,20.7,0.024504422698000388,-0.028763026072866547,0.001064650843716541,0.22563,0.8142300000000001,10.01601
4232323190,20.7,-0.011711159280881954,-0.03408628029144926,0.001064650843716541,0.24525000000000002,0.73575,10.006200000000002
4237373695,20.7,-0.03728023282259888,-0.028763026072866547,0.0,0.33354000000000006,0.63765,10.03563
4242424200,20.7,-0.05646140130201656,-0.01918116847941768,0.003193952531149623,0.32373,0.48069000000000006,10.006200000000002
4247474705,20.7,-0.07136651311404815,-0.002129301687433082,0.0,0.38259000000000004,0.30411,9.96696
4252525210,20.7,-0.07990117315630041,0.03515093113516579,0.0,0.32373,0.0981,9.91791
4257575715,20.7,-0.07136651311404815,0.05646140130201656,0.0,0.12753,-0.06867000000000001,9.83943
4262626220,20.7,-0.05326744877086694,0.06497860805174888,0.0,0.019620000000000002,-0.16677000000000003,9.81
4267676725,20.7,-0.024504422698000388,0.07136651311404815,-0.001064650843716541,-0.07848000000000001,-0.14715,9.72171
4272727230,20.7,0.012775810124598492,0.06923721142661506,-0.001064650843716541,-0.12753,-0.0981,9.70209
4277777735,20.7,0.04366813788489812,0.0852244273748831,-0.001064650843716541,-0.24525000000000002,-0.019620000000000002,9.74133
4282828240,20.7,0.07136651311404815,0.06497860805174888,0.0,-0.37278,0.13734000000000002,9.770760000000001
4287878745,20.7,0.08948303074974927,0.04366813788489812,0.0,-0.34335000000000004,0.36297,9.87867
4292929250,20.7,0.09480628496833199,0.021310470166850764,0.0,-0.44145,0.5886,9.908100000000001
4297979755,20.7,0.08203047484373349,-0.031956978604016174,0.002129301687433082,-0.37278,0.73575,9.97677
4303030260,20.7,0.06391395720803235,-0.06391395720803235,0.002129301687433082,-0.14715,0.86328,10.01601
4308080765,20.7,0.03089232776029963,-0.07456046564519776,0.0,-0.06867000000000001,0.9319500000000001,10.05525
4313131270,20.7,-0.003193952531149623,-0.09587093581204853,0.002129301687433082,0.07848000000000001,0.89271,10.074869999999999
4318181775,20.7,-0.04366813788489812,-0.09800023749948161,0.005323254218582705,0.21582,0.73575,10.09449
4323232280,20.7,-0.08203047484373349,-0.10119419003063122,0.003193952531149623,0.31392000000000003,0.5591700000000001,10.045440000000001
4328282785,20.7,-0.10438814256178083,-0.0852244273748831,0.004258603374866164,0.45126,0.37278,9.99639
4333333290,20.7,-0.1171814059788993,-0.046879543708567686,0.002129301687433082,0.43164,0.10791,9.95715
4338383795,20.7,-0.1097288500728835,-0.02769837522915001,0.003193952531149623,0.44145,-0.0981,9.819809999999999
4343434300,20.7,-0.08841837990603273,0.022375121010567305,0.002129301687433082,0.42183,-0.26487,9.760950000000001
4348484805,20.7,-0.049008845396000776,0.049008845396000776,-0.002129301687433082,0.20601000000000003,-0.30411,9.67266
4353535310,20.7,-0.005323254218582705,0.05965535383316618,0.0,0.20601000000000003,-0.28449,9.67266
4358585815,20.7,0.031956978604016174,0.09693558665576507,-0.001064650843716541,0.08829,-0.17658,9.68247
4363636320,20.7,0.06710790973918197,0.09800023749948161,-0.002129301687433082,-0.05886,-0.04905,9.69228
4368686825,20.7,0.09587093581204853,0.09374163412461543,-0.001064650843716541,-0.14715,0.15696000000000002,9.760950000000001
4373737330,20.7,0.12356931104119852,0.07030186227033158,-0.002129301687433082,-0.25506,0.45126,9.83943
4378787835,20.7,0.13208651779093086,0.03089232776029963,0.0,-0.24525000000000002,0.71613,9.92772
4383838340,20.7,0.11185815176031658,0.0,-0.001064650843716541,-0.17658,0.9123300000000001,9.99639
4388888845,20.7,0.07777187146886733,-0.039409534510031964,-0.001064650843716541,-0.11772,1.02024,10.05525
4393939350,20.7,0.03089232776029963,-0.07030186227033158,0.0,0.02943,1.06929,10.11411
4398989855,20.7,-0.014905111812031574,-0.0756251164889143,0.003193952531149623,0.16677000000000003,1.00062,10.163160000000001
4404040360,20.7,-0.06391395720803235,-0.08203047484373349,0.002129301687433082,0.26487,0.7848,10.09449
4409090865,20.7,-0.10438814256178083,-0.06817256058289851,0.003193952531149623,0.34335000000000004,0.5395500000000001,10.09449
4414141370,20.7,-0.11931070766633237,-0.046879543708567686,0.003193952531149623,0.38259000000000004,0.28449,9.99639
4419191875,20.7,-0.12463396188491506,-0.02663372438543347,0.002129301687433082,0.34335000000000004,0.02943,9.91791
4424242380,20.7,-0.1171814059788993,0.0,0.0,0.30411,-0.20601000000000003,9.82962
4429292885,20.7,-0.09480628496833199,0.03089232776029963,-0.001064650843716541,0.20601000000000003,-0.33354000000000006,9.760950000000001
4434343390,20.7,-0.05326744877086694,0.04366813788489812,0.0,0.11772,-0.41202000000000005,9.67266
4439393895,20.7,0.0,0.06710790973918197,-0.002129301687433082,0.06867000000000001,-0.34335000000000004,9.65304
4444444400,20.7,0.046879543708567686,0.08628907821859966,-0.001064650843716541,-0.02943,-0.21582,9.60399
4449494905,20.7,0.08948303074974927,0.10012953918691468,0.0,-0.15696000000000002,0.0,9.7119
4454545410,20.7,0.12037535851004891,0.09161233243718235,0.0,-0.27468000000000004,0.24525000000000002,9.74133
4459595915,20.7,0.1374272253020335,0.060720004676882725,-0.001064650843716541,-0.36297,0.5493600000000001,9.84924
4464646420,20.7,0.1374272253020335,0.02663372438543347,0.0,-0.31392000000000003,0.8240400000000001,9.95715
4469696925,20.7,0.1097288500728835,-0.007452555906015787,0.0,-0.25506,1.20663,10.01601
4474747430,20.7,0.07883652231258387,-0.02982767691658309,0.0,-0.2943,1.2556800000000001,10.32993
4479797935,20.7,-0.01064650843716541,-0.08841837990603273,0.003193952531149623,-0.15696000000000002,0.86328,9.908100000000001
4484848440,20.7,-0.07349581480148122,-0.09800023749948161,0.003193952531149623,0.10791,0.8338500000000001,10.212209999999999
4489898945,20.7,-0.054332099614583476,-0.10332349171806432,0.004258603374866164,0.1962,0.80442,10.074869999999999
4494949450,20.7,-0.11931070766633237,-0.09800023749948161,0.002129301687433082,0.34335000000000004,0.30411,9.99639
4499999955,20.7,-0.150203035426632,-0.06391395720803235,0.004258603374866164,0.33354000000000006,0.0981,10.03563
4505050460,20.7,-0.10653489754173388,-0.05965535383316618,0.001064650843716541,0.28449,-0.02943,9.89829
4510100965,20.7,-0.10225884087434776,-0.05539675045830002,0.003193952531149623,0.35316,-0.23544,9.770760000000001
4515151470,20.7,-0.07777187146886733,-0.02556907354171693,0.001064650843716541,0.41202000000000005,-0.32373,9.73152
4520201975,20.7,-0.022375121010567305,0.008517206749732328,-0.001064650843716541,0.36297,-0.25506,9.65304
4525252480,20.7,0.014905111812031574,0.02769837522915001,0.0,0.32373,-0.22563,9.65304
4530302985,20.7,0.049008845396000776,0.05752605214573309,-0.002129301687433082,0.32373,-0.0981,9.67266
4535353490,20.7,0.0852244273748831,0.08309512568745003,0.0,0.18639,0.11772,9.73152
4540403995,20.7,0.10438814256178083,0.09054768159346581,-0.002129301687433082,0.12753,0.32373,9.79038
4545454500,20.7,0.10866419922916695,0.10545279340549739,-0.003193952531149623,0.08829,0.50031,9.86886
4550505005,20.7,0.10119419003063122,0.11292280260403312,-0.003193952531149623,-0.08829,0.63765,9.94734
4555555510,20.7,0.09161233243718235,0.08096582400001695,-0.002129301687433082,-0.21582,0.7848,10.045440000000001
4560606015,20.7,0.06710790973918197,0.03728023282259888,-0.002129301687433082,-0.25506,0.90252,10.1043
4565656520,20.7,0.03728023282259888,0.007452555906015787,0.0,-0.1962,0.9908100000000001,10.1043
4570707025,20.7,-0.008517206749732328,-0.011711159280881954,0.0,-0.21582,0.7749900000000001,10.074869999999999
4575757530,20.7,-0.06178465552059926,-0.046879543708567686,0.0,-0.08829,0.63765,10.13373
4580808035,20.7,-0.06497860805174888,-0.049008845396000776,0.003193952531149623,-0.019620000000000002,0.52974,9.94734
4585858540,20.7,-0.08735372906231618,-0.05539675045830002,0.0,-0.02943,0.33354000000000006,9.95715
4590909045,20.7,-0.10332349171806432,-0.05965535383316618,0.0,0.04905,0.13734000000000002,9.908100000000001
4595959550,20.7,-0.0852244273748831,-0.04794419455228423,0.0,0.06867000000000001,0.019620000000000002,9.819809999999999
4601010055,20.7,-0.07136651311404815,-0.03408628029144926,0.0,0.0981,-0.12753,9.79038
4606060560,20.7,-0.05220279792715039,-0.012775810124598492,0.001064650843716541,0.04905,-0.20601000000000003,9.751140000000001
4611111065,20.7,-0.00958185759344887,-0.011711159280881954,0.0,0.02943,-0.10791,9.78057
4616161570,20.7,0.021310470166850764,-0.007452555906015787,0.0,0.08829,-0.009810000000000001,9.751140000000001
4621212075,20.7,0.044732788728614664,0.004258603374866164,-0.002129301687433082,0.10791,0.12753,9.760950000000001
4626262580,20.7,0.07136651311404815,0.01918116847941768,0.0,0.16677000000000003,0.27468000000000004,9.79038
4631313085,20.7,0.0756251164889143,0.03408628029144926,0.0,0.11772,0.42183,9.79038
4636363590,20.7,0.06604325889546543,0.03728023282259888,0.0,0.05886,0.5395500000000001,9.91791
4641414095,20.7,0.05859070298944965,0.02556907354171693,0.001064650843716541,0.009810000000000001,0.6670800000000001,9.94734
4646464600,20.7,0.046879543708567686,-0.001064650843716541,0.0,0.08829,0.71613,9.95715
4651515105,20.7,0.022375121010567305,0.0,0.0,0.11772,0.71613,10.08468
4656565610,20.7,-0.003193952531149623,-0.01811651763570114,0.001064650843716541,0.039240000000000004,0.6768900000000001,10.074869999999999
4661616115,20.7,-0.02769837522915001,-0.0404741853537485,0.0,0.06867000000000001,0.60822,10.03563
4666666620,20.7,-0.04581489286485115,-0.06284930636431581,0.001064650843716541,0.16677000000000003,0.51993,10.01601
4671717125,20.7,-0.05752605214573309,-0.06178465552059926,0.0,0.26487,0.42183,9.96696
4676767630,20.7,-0.06817256058289851,-0.049008845396000776,0.0,0.30411,0.26487,9.87867
4681818135,20.7,-0.07243116395776468,-0.031956978604016174,0.001064650843716541,0.38259000000000004,0.07848000000000001,9.83943
4686868640,20.7,-0.06284930636431581,0.003193952531149623,0.002129301687433082,0.35316,-0.019620000000000002,9.80019
4691919145,20.7,-0.039409534510031964,0.01918116847941768,-0.001064650843716541,0.2943,-0.06867000000000001,9.770760000000001
4696969650,20.7,-0.013840460968315033,0.05539675045830002,-0.001064650843716541,0.28449,-0.04905,9.79038
4702020155,20.7,0.006387905062299246,0.08841837990603273,0.0,0.20601000000000003,-0.0981,9.78057
4707070660,20.7,0.024504422698000388,0.13102186694721432,-0.002129301687433082,-0.019620000000000002,-0.07848000000000001,9.74133
4712121165,20.7,0.06710790973918197,0.11931070766633237,-0.002129301687433082,-0.25506,0.10791,9.80019
4717171670,20.7,0.09161233243718235,0.11079350091660004,-0.004258603374866164,-0.23544,0.28449,9.81
4722222175,20.7,0.08841837990603273,0.10653489754173388,-0.002129301687433082,-0.44145,0.40221,9.83943
4727272680,20.7,0.09267698328089889,0.05220279792715039,0.0,-0.52974,0.72594,9.92772
4732323185,20.7,0.09161233243718235,0.006387905062299246,0.0,-0.59841,1.1281500000000002,10.03563
4737373690,20.7,0.07136651311404815,-0.05539675045830002,0.001064650843716541,-0.63765,0.95157,10.13373
4742424195,20.7,-0.044732788728614664,-0.14062117783318315,0.001064650843716541,-0.20601000000000003,0.64746,9.92772
4747474700,20.7,-0.04366813788489812,-0.12995721610349775,0.003193952531149623,0.019620000000000002,0.8338500000000001,10.074869999999999
4752525205,20.7,-0.03728023282259888,-0.15446163880149816,0.006387905062299246,0.12753,0.65727,9.92772
4757575710,20.7,-0.11079350091660004,-0.150203035426632,0.003193952531149623,0.36297,0.3924,9.97677
4762626215,20.7,-0.10545279340549739,-0.1331511686346474,0.005323254218582705,0.46107000000000004,0.31392000000000003,9.94734
4767676720,20.7,-0.09480628496833199,-0.1097288500728835,0.003193952531149623,0.60822,0.10791,9.91791
4772727225,20.7,-0.1097288500728835,-0.06391395720803235,0.005323254218582705,0.64746,-0.16677000000000003,9.83943
4777777730,20.7,-0.08203047484373349,-0.02556907354171693,0.002129301687433082,0.56898,-0.1962,9.81
4782828235,20.7,-0.03515093113516579,-0.005323254218582705,-0.002129301687433082,0.60822,-0.21582,9.79038
4787878740,20.7,-0.011711159280881954,0.04581489286485115,-0.001064650843716541,0.5886,-0.25506,9.68247
4792929245,20.7,0.02982767691658309,0.09054768159346581,-0.003193952531149623,0.49050000000000005,-0.12753,9.7119
4797979750,20.7,0.06923721142661506,0.1288925652597812,-0.001064650843716541,0.33354000000000006,0.0,9.67266
4803030255,20.7,0.08415977653116657,0.14487978120804929,-0.002129301687433082,0.15696000000000002,0.15696000000000002,9.7119
4808080760,20.7,0.10012953918691468,0.15872024217636432,-0.005323254218582705,0.02943,0.2943,9.819809999999999
4813131265,20.7,0.11185815176031658,0.16404349639494703,-0.003193952531149623,-0.20601000000000003,0.46107000000000004,9.888480000000001
4818181770,20.7,0.1097288500728835,0.12144000935376545,-0.003193952531149623,-0.3924,0.6180300000000001,10.006200000000002
4823232275,20.7,0.09480628496833199,0.07990117315630041,-0.004258603374866164,-0.43164,1.2556800000000001,10.05525
4828282780,20.7,0.10332349171806432,0.05007349623971732,0.002129301687433082,-0.7848,1.3537800000000002,10.594800000000001
4833333285,20.7,-0.033021629447732716,-0.05965535383316618,0.001064650843716541,-0.64746,0.60822,9.819809999999999
4838383790,20.7,-0.12037535851004891,-0.08948303074974927,0.002129301687433082,-0.20601000000000003,0.48069000000000006,9.85905
4843434295,20.7,-0.031956978604016174,-0.08628907821859966,0.001064650843716541,-0.21582,0.6670800000000001,10.09449
4848484800,20.7,-0.07990117315630041,-0.12463396188491506,0.002129301687433082,-0.06867000000000001,0.20601000000000003,9.85905
4853535305,20.7,-0.1331511686346474,-0.11611675513518273,0.004258603374866164,0.0981,0.07848000000000001,9.908100000000001
4858585810,20.7,-0.05646140130201656,-0.1097288500728835,0.0,0.17658,0.14715,9.95715
4863636315,20.7,-0.06497860805174888,-0.09161233243718235,0.004258603374866164,0.33354000000000006,-0.08829,9.84924
4868686820,20.7,-0.06604325889546543,-0.06178465552059926,0.003193952531149623,0.35316,-0.08829,9.79038
4873737325,20.7,-0.002129301687433082,-0.04366813788489812,0.001064650843716541,0.45126,0.039240000000000004,9.751140000000001
4878787830,20.7,0.005323254218582705,-0.008517206749732328,0.003193952531149623,0.41202000000000005,-0.019620000000000002,9.69228
4883838335,20.7,0.012775810124598492,0.007452555906015787,0.0,0.45126,0.05886,9.7119
4888888840,20.7,0.05007349623971732,0.05752605214573309,-0.002129301687433082,0.44145,0.20601000000000003,9.751140000000001
4893939345,20.7,0.05859070298944965,0.08415977653116657,0.0,0.25506,0.25506,9.82962
4898989850,20.7,0.05539675045830002,0.08309512568745003,0.0,0.17658,0.31392000000000003,9.91791
4904040355,20.7,0.06817256058289851,0.07670722062515077,-0.001064650843716541,0.10791,0.51012,9.94734
4909090860,20.7,0.06604325889546543,0.06391395720803235,-0.004258603374866164,0.0,0.57879,9.98658
4914141365,20.7,0.049008845396000776,0.02982767691658309,0.0,-0.06867000000000001,0.65727,10.006200000000002
4919191870,20.7,0.03515093113516579,0.002129301687433082,0.0,0.02943,0.71613,9.98658
4924242375,20.7,0.006387905062299246,0.004258603374866164,0.0,0.02943,0.6867000000000001,9.95715
4929292880,20.7,-0.014905111812031574,-0.013840460968315033,0.001064650843716541,0.019620000000000002,0.63765,10.006200000000002
4934343385,20.7,-0.0404741853537485,-0.01064650843716541,0.0,0.04905,0.50031,9.97677
4939393890,20.7,-0.05646140130201656,-0.013840460968315033,0.0,0.0981,0.37278,9.96696
4944444395,20.7,-0.06497860805174888,0.006387905062299246,0.0,0.16677000000000003,0.20601000000000003,9.92772
4949494900,20.7,-0.06178465552059926,0.03515093113516579,0.002129301687433082,-0.02943,0.07848000000000001,9.92772
4954545405,20.7,-0.046879543708567686,0.024504422698000388,0.0,-0.04905,-0.02943,9.888480000000001
4959595910,20.7,-0.023439771854283843,0.03515093113516579,-0.001064650843716541,-0.10791,-0.04905,9.80019
4964646415,20.7,0.002129301687433082,0.02556907354171693,0.0,-0.1962,0.0,9.81
4969696920,20.7,0.023439771854283843,0.013840460968315033,0.0,-0.18639,0.12753,9.751140000000001
4974747425,20.7,0.04366813788489812,0.008517206749732328,0.0,-0.18639,0.23544,9.760950000000001
4979797930,20.7,0.046879543708567686,0.0170518667919846,0.001064650843716541,-0.16677000000000003,0.32373,9.81
4984848435,20.7,0.05113814708343386,-0.001064650843716541,0.0,-0.21582,0.42183,9.83943
4989898940,20.7,0.05220279792715039,-0.021310470166850764,0.0,-0.14715,0.5886,9.92772
4994949445,20.7,0.04794419455228423,-0.05007349623971732,0.0,-0.11772,0.71613,9.96696
4999999950,20.7,0.021310470166850764,-0.06391395720803235,0.004258603374866164,0.07848000000000001,0.6768900000000001,10.01601
5005050455,20.7,-0.003193952531149623,-0.07349581480148122,0.001064650843716541,0.019620000000000002,0.73575,9.96696
5010100960,20.7,-0.020245819323134222,-0.1171814059788993,0.002129301687433082,0.21582,0.6670800000000001,9.98658
5015151465,20.7,-0.049008845396000776,-0.11292280260403312,0.003193952531149623,0.38259000000000004,0.5493600000000001,10.03563
5020201970,20.7,-0.07243116395776468,-0.10012953918691468,0.001064650843716541,0.52974,0.44145,9.99639
5025252475,20.7,-0.08309512568745003,-0.08309512568745003,0.002129301687433082,0.60822,0.26487,9.92772
5030302980,20.7,-0.08309512568745003,-0.05646140130201656,0.002129301687433082,0.6278400000000001,0.12753,9.937529999999999
5035353485,20.7,-0.07030186227033158,-0.0170518667919846,0.001064650843716541,0.72594,-0.009810000000000001,9.83943
5040403990,20.7,-0.05859070298944965,0.054332099614583476,0.0,0.64746,-0.14715,9.81
5045454495,20.7,-0.03515093113516579,0.09587093581204853,-0.003193952531149623,0.48069000000000006,-0.24525000000000002,9.760950000000001
5050505000,20.7,-0.001064650843716541,0.13849187614575004,-0.003193952531149623,0.34335000000000004,-0.22563,9.7119
5055555505,20.7,0.03728023282259888,0.18535396656179778,-0.005323254218582705,0.13734000000000002,-0.18639,9.73152
5060606010,20.7,0.07243116395776468,0.20666443672864854,-0.007452555906015787,-0.16677000000000003,-0.04905,9.770760000000001
5065656515,20.7,0.10653489754173388,0.19174187162409706,-0.004258603374866164,-0.38259000000000004,0.11772,9.80019
5070707020,20.7,0.12250466019748199,0.17683675981206545,-0.003193952531149623,-0.60822,0.36297,9.85905
5075757525,20.7,0.13634512116579703,0.12569861272863161,-0.003193952531149623,-0.84366,1.44207,9.908100000000001
5080808030,20.7,0.17470745812463237,0.07349581480148122,0.0,-1.52055,1.6480800000000002,10.66347
5085858535,20.7,-0.01811651763570114,-0.14381513036433274,0.002129301687433082,-1.1772,0.59841,9.68247
5090909040,20.7,-0.14062117783318315,-0.18428931571808121,0.004258603374866164,-0.2943,0.44145,9.770760000000001
5095959545,20.7,-0.011711159280881954,-0.17364280728091586,0.008517206749732328,-0.26487,0.79461,10.163160000000001
5101010050,20.7,-0.05539675045830002,-0.24181536786381436,0.004258603374866164,-0.06867000000000001,0.43164,9.86886
5106060555,20.7,-0.13634512116579703,-0.26844909224924784,0.005323254218582705,0.38259000000000004,0.24525000000000002,9.97677
5111111060,20.7,-0.06817256058289851,-0.22263419938439669,0.00958185759344887,0.69651,0.42183,10.17297
5116161565,20.7,-0.07456046564519776,-0.20027653166634932,0.005323254218582705,0.8240400000000001,0.17658,9.85905
5121212070,20.7,-0.11185815176031658,-0.16404349639494703,0.005323254218582705,1.0791000000000002,0.02943,9.85905
5126262575,20.7,-0.05859070298944965,-0.07883652231258387,0.0,1.2753,0.04905,9.81
5131313080,20.7,-0.05007349623971732,0.01811651763570114,0.0,1.1477700000000002,-0.17658,9.65304
5136363585,20.7,-0.049008845396000776,0.06817256058289851,-0.002129301687433082,1.01043,-0.27468000000000004,9.72171
5141414090,20.7,0.005323254218582705,0.1374272253020335,-0.004258603374866164,0.9221400000000001,-0.1962,9.69228
5146464595,20.7,0.04260348704118158,0.2236988502281132,-0.003193952531149623,0.71613,-0.21582,9.67266
5151515100,20.7,0.06178465552059926,0.2844188549049959,-0.005323254218582705,0.31392000000000003,-0.1962,9.80019
5156565605,20.7,0.09906488834319814,0.29082421325981517,-0.005323254218582705,-0.08829,-0.019620000000000002,9.81
5161616110,20.7,0.13421581947836395,0.27590164815526363,-0.01064650843716541,-0.43164,0.1962,9.84924
5166666615,20.7,0.15233233711406508,0.23649211364523165,-0.005323254218582705,-0.71613,1.03986,9.94734
5171717120,20.7,0.20772908757236508,0.20240583335378237,-0.005323254218582705,-1.3341600000000002,2.20725,10.56537
5176767625,20.7,0.13955652698946658,0.05113814708343386,-0.001064650843716541,-1.9423800000000002,1.5696,10.03563
5181818130,20.7,-0.1757721089683489,-0.14700908289548237,0.003193952531149623,-1.19682,0.13734000000000002,10.09449
5186868635,20.7,-0.16617279808238014,-0.15659094048893124,0.004258603374866164,-0.5591700000000001,0.30411,9.60399
5191919140,20.7,0.0,-0.18641861740551433,0.005323254218582705,-0.47088,0.50031,9.937529999999999
5196969645,20.7,-0.10225884087434776,-0.24713862208239704,0.006387905062299246,-0.20601000000000003,-0.039240000000000004,9.908100000000001
5202020150,20.7,-0.12356931104119852,-0.24607397123868052,0.008517206749732328,0.16677000000000003,0.04905,9.97677
5207070655,20.7,-0.005323254218582705,-0.22476350107182977,0.005323254218582705,0.38259000000000004,0.34335000000000004,10.01601
5212121160,20.7,-0.03728023282259888,-0.2236988502281132,0.006387905062299246,0.65727,0.13734000000000002,9.82962
5217171665,20.7,-0.05646140130201656,-0.15872024217636432,0.004258603374866164,1.08891,0.1962,9.760950000000001
5222222170,20.7,-0.007452555906015787,-0.06710790973918197,0.002129301687433082,1.13796,0.25506,9.73152
5227272675,20.7,-0.028763026072866547,0.0,0.001064650843716541,1.08891,0.02943,9.66285
5232323180,20.7,-0.02556907354171693,0.07136651311404815,-0.001064650843716541,0.9810000000000001,0.0,9.751140000000001
5237373685,20.7,0.0170518667919846,0.1331511686346474,-0.003193952531149623,0.86328,0.039240000000000004,9.81
5242424190,20.7,0.01918116847941768,0.19067722078038052,0.0,0.52974,-0.05886,9.78057
5247474695,20.7,0.03834488366631542,0.18641861740551433,-0.004258603374866164,0.20601000000000003,0.0,9.85905
5252525200,20.7,0.08203047484373349,0.1704488547497662,-0.004258603374866164,0.05886,0.21582,9.87867
5257575705,20.7,0.09374163412461543,0.16084954386379738,-0.003193952531149623,-0.0981,0.31392000000000003,9.92772
5262626210,20.7,0.08948303074974927,0.12995721610349775,-0.004258603374866164,-0.33354000000000006,0.50031,9.92772
5267676715,20.7,0.08735372906231618,0.07883652231258387,0.0,-0.30411,0.6670800000000001,9.94734
5272727220,20.7,0.07349581480148122,0.06391395720803235,0.0,-0.28449,0.84366,10.006200000000002
5277777725,20.7,0.05752605214573309,0.05220279792715039,0.0,-0.43164,1.13796,10.05525
5282828230,20.7,0.02982767691658309,0.008517206749732328,0.001064650843716541,-0.5591700000000001,0.8829,10.05525
5287878735,20.7,-0.07670722062515077,-0.03834488366631542,0.001064650843716541,-0.24525000000000002,0.40221,9.95715
5292929240,20.7,-0.07670722062515077,0.0,0.0,-0.20601000000000003,0.44145,10.025820000000001
5297979745,20.7,-0.044732788728614664,-0.023439771854283843,0.002129301687433082,-0.41202000000000005,0.31392000000000003,9.89829
5303030250,20.7,-0.09480628496833199,-0.06923721142661506,0.002129301687433082,-0.27468000000000004,0.039240000000000004,9.99639
5308080755,20.7,-0.07349581480148122,-0.05859070298944965,0.002129301687433082,-0.13734000000000002,0.019620000000000002,9.92772
5313131260,20.7,-0.03408628029144926,-0.039409534510031964,0.002129301687433082,-0.1962,0.02943,9.82962
5318181765,20.7,-0.03089232776029963,-0.07136651311404815,0.003193952531149623,-0.22563,0.019620000000000002,9.78057
5323232270,20.7,0.0,-0.09054768159346581,0.003193952531149623,0.0,0.17658,9.751140000000001
5328282775,20.7,0.024504422698000388,-0.06391395720803235,0.003193952531149623,0.08829,0.23544,9.74133
5333333280,20.7,0.01918116847941768,-0.08203047484373349,0.002129301687433082,0.039240000000000004,0.33354000000000006,9.760950000000001
5338383785,20.7,0.02556907354171693,-0.11611675513518273,0.003193952531149623,0.27468000000000004,0.45126,9.770760000000001
5343434290,20.7,0.02982767691658309,-0.11505210429146619,0.002129301687433082,0.46107000000000004,0.5591700000000001,9.87867
5348484795,20.7,0.01064650843716541,-0.09587093581204853,0.003193952531149623,0.6180300000000001,0.5493600000000001,9.91791
5353535300,20.7,-0.001064650843716541,-0.09374163412461543,0.002129301687433082,0.65727,0.59841,9.92772
5358585805,20.7,-0.0170518667919846,-0.06923721142661506,0.002129301687433082,0.9319500000000001,0.5395500000000001,9.95715
5363636310,20.7,-0.033021629447732716,0.004258603374866164,0.001064650843716541,0.9908100000000001,0.41202000000000005,9.98658
5368686815,20.7,-0.046879543708567686,0.05326744877086694,-0.002129301687433082,0.7848,0.28449,9.99639
5373737320,20.7,-0.05007349623971732,0.07990117315630041,-0.002129301687433082,0.73575,0.0981,9.95715
5378787825,20.7,-0.04581489286485115,0.15233233711406508,-0.003193952531149623,0.6278400000000001,-0.05886,9.85905
5383838330,20.7,-0.022375121010567305,0.2130523417909478,-0.005323254218582705,0.25506,-0.16677000000000003,9.84924
5388888835,20.7,0.003193952531149623,0.22263419938439669,-0.001064650843716541,-0.06867000000000001,-0.18639,9.819809999999999
5393939340,20.7,0.0404741853537485,0.20666443672864854,-0.004258603374866164,-0.3924,-0.12753,9.80019
5398989845,20.7,0.07777187146886733,0.19493582415524666,-0.004258603374866164,-0.5886,0.05886,9.819809999999999
5404040350,20.7,0.10866419922916695,0.15233233711406508,-0.003193952531149623,-0.8240400000000001,0.46107000000000004,9.80019
5409090855,20.7,0.12356931104119852,0.09587093581204853,-0.003193952531149623,-1.04967,1.3635900000000003,9.84924
5414141360,20.7,0.14594443205176583,0.04260348704118158,0.0,-1.4715,1.44207,10.320120000000001
5419191865,20.7,-0.039409534510031964,-0.10225884087434776,0.001064650843716541,-1.21644,0.46107000000000004,9.83943
5424242370,20.7,-0.11505210429146619,-0.15339698795778162,0.004258603374866164,-0.6867000000000001,0.31392000000000003,9.74133
5429292875,20.7,-0.006387905062299246,-0.20879373841608162,0.004258603374866164,-0.41202000000000005,0.6670800000000001,10.01601
5434343380,20.7,-0.03408628029144926,-0.23755676448894822,0.004258603374866164,-0.15696000000000002,0.37278,9.91791
5439393885,20.7,-0.09693558665576507,-0.27270769562411395,0.00958185759344887,0.07848000000000001,0.32373,10.025820000000001
5444444390,20.7,-0.039409534510031964,-0.2961474674783978,0.006387905062299246,0.50031,0.56898,10.11411
5449494895,20.7,-0.05007349623971732,-0.26738444140553125,0.004258603374866164,0.9613800000000001,0.40221,9.91791
5454545400,20.7,-0.09587093581204853,-0.21198769094723127,0.007452555906015787,1.1477700000000002,0.26487,9.84924
5459595905,20.7,-0.07243116395776468,-0.15765559133264778,0.004258603374866164,1.3341600000000002,0.24525000000000002,9.82962
5464646410,20.7,-0.06817256058289851,-0.07777187146886733,0.001064650843716541,1.46169,0.08829,9.7119
5469696915,20.7,-0.07990117315630041,0.02663372438543347,0.0,1.52055,-0.13734000000000002,9.70209
5474747420,20.7,-0.046879543708567686,0.14381513036433274,0.0,1.26549,-0.24525000000000002,9.74133
5479797925,20.7,-0.0170518667919846,0.2151816434783809,0.0,0.9711900000000001,-0.35316,9.78057
5484848430,20.7,0.011711159280881954,0.2769662989989801,-0.006387905062299246,0.63765,-0.41202000000000005,9.73152
5489898935,20.7,0.07349581480148122,0.3206518901763982,-0.007452555906015787,0.25506,-0.26487,9.81
5494949440,20.7,0.11931070766633237,0.3430095578944456,-0.00958185759344887,-0.13734000000000002,-0.11772,9.819809999999999
5499999945,20.7,0.14487978120804929,0.3323630494572802,-0.00958185759344887,-0.57879,0.05886,9.81
5505050450,20.7,0.16831955306233315,0.300406070853264,-0.007452555906015787,-0.9123300000000001,1.51074,9.908100000000001
5510100955,20.7,0.2822895532175628,0.3089232776029963,-0.004258603374866164,-2.24649,2.7075600000000004,11.51694
5515151460,20.7,0.06710790973918197,0.006387905062299246,0.003193952531149623,-2.6388900000000004,1.24587,9.496080000000001
5520201965,20.7,-0.27270769562411395,-0.19921188082263275,0.003193952531149623,-1.43226,-0.28449,10.025820000000001
5525252470,20.7,-0.15126768627034853,-0.20027653166634932,0.005323254218582705,-0.7848,0.21582,9.633420000000001
5530302975,20.7,0.01811651763570114,-0.2503325746135467,0.007452555906015787,-0.79461,0.34335000000000004,9.78057
5535353480,20.7,-0.10545279340549739,-0.36857863143616243,0.00958185759344887,-0.35316,-0.11772,9.89829
5540403985,20.7,-0.07670722062515077,-0.3781604890296114,0.008517206749732328,0.34335000000000004,0.24525000000000002,10.074869999999999
5545454490,20.7,0.024504422698000388,-0.3302337477698471,0.00958185759344887,0.74556,0.50031,9.94734
5550504995,20.7,-0.04366813788489812,-0.31531118266529556,0.008517206749732328,1.04967,0.31392000000000003,9.91791
5555555500,20.7,-0.05113814708343386,-0.25459117798841285,0.005323254218582705,1.52055,0.44145,9.80019
5560606005,20.7,-0.007452555906015787,-0.13421581947836395,0.003193952531149623,1.74618,0.48069000000000006,9.770760000000001
5565656510,20.7,-0.05539675045830002,-0.02769837522915001,0.001064650843716541,1.6480800000000002,0.17658,9.751140000000001
5570707015,20.7,-0.0756251164889143,0.060720004676882725,0.0,1.60884,0.0,9.73152
5575757520,20.7,-0.031956978604016174,0.16938420390604966,-0.003193952531149623,1.43226,-0.06867000000000001,9.770760000000001
5580808025,20.7,-0.01918116847941768,0.2599318854995155,-0.006387905062299246,1.1281500000000002,-0.25506,9.69228
5585858530,20.7,0.0,0.3472681612693117,-0.008517206749732328,0.69651,-0.37278,9.770760000000001
5590909035,20.7,0.04581489286485115,0.3941477049778794,-0.008517206749732328,0.17658,-0.41202000000000005,9.79038
5595959540,20.7,0.08841837990603273,0.40692351510247793,-0.008517206749732328,-0.32373,-0.31392000000000003,9.81
5601010045,20.7,0.14487978120804929,0.3792425931658478,-0.00958185759344887,-0.90252,0.019620000000000002,9.937529999999999
5606060550,20.7,0.18854791909294744,0.2961474674783978,-0.006387905062299246,-1.2753,1.9129500000000002,9.92772
5611111055,20.7,0.28975956241609857,0.24607397123868052,-0.003193952531149623,-2.62908,2.5113600000000003,11.44827
5616161560,20.7,-0.020245819323134222,-0.07777187146886733,0.002129301687433082,-2.52117,0.7749900000000001,9.55494
5621212065,20.7,-0.25780258381208243,-0.2205048976969636,0.005323254218582705,-1.3537800000000002,-0.1962,9.67266
5626262570,20.7,-0.06604325889546543,-0.26099653634323206,0.008517206749732328,-0.8142300000000001,0.42183,9.74133
5631313075,20.7,0.01064650843716541,-0.31531118266529556,0.006387905062299246,-0.5493600000000001,0.30411,9.72171
5636363580,20.7,-0.12250466019748199,-0.36857863143616243,0.01064650843716541,-0.04905,-0.06867000000000001,9.94734
5641414085,20.7,-0.049008845396000776,-0.36538467890501286,0.008517206749732328,0.42183,0.3924,10.23183
5646464590,20.7,0.015987215948268057,-0.34088025620701246,0.008517206749732328,0.95157,0.47088,9.937529999999999
5651515095,20.7,-0.06817256058289851,-0.26951374309296433,0.007452555906015787,1.31454,0.26487,9.98658
5656565600,20.7,-0.05539675045830002,-0.17896606149949854,0.005323254218582705,1.55979,0.37278,9.86886
5661616105,20.7,-0.02663372438543347,-0.0852244273748831,0.001064650843716541,1.5696,0.30411,9.66285
5666666610,20.7,-0.060720004676882725,0.0,0.001064650843716541,1.6677000000000002,0.06867000000000001,9.69228
5671717115,20.7,-0.05752605214573309,0.14594443205176583,-0.002129301687433082,1.58922,-0.04905,9.66285
5676767620,20.7,-0.03089232776029963,0.24713862208239704,-0.003193952531149623,1.05948,-0.23544,9.69228
5681818125,20.7,-0.01918116847941768,0.2886949115723821,-0.006387905062299246,0.71613,-0.41202000000000005,9.760950000000001
5686868630,20.7,0.03408628029144926,0.3302337477698471,-0.008517206749732328,0.27468000000000004,-0.35316,9.751140000000001
5691919135,20.7,0.10332349171806432,0.328104446082414,-0.008517206749732328,-0.1962,-0.15696000000000002,9.819809999999999
5696969640,20.7,0.12676326357234816,0.2844188549049959,-0.005323254218582705,-0.5591700000000001,0.009810000000000001,9.83943
5702020145,20.7,0.15339698795778162,0.22689280275926285,-0.006387905062299246,-0.74556,0.3924,9.89829
5707070650,20.7,0.18109536318693162,0.16510814723866357,-0.003193952531149623,-0.9908100000000001,1.85409,9.937529999999999
5712121155,20.7,0.24394466955124744,0.10438814256178083,0.002129301687433082,-1.88352,2.2268700000000003,11.03625
5717171660,20.7,-0.0404741853537485,-0.14700908289548237,0.001064650843716541,-1.44207,0.71613,9.66285
5722222165,20.7,-0.21411699263466438,-0.18428931571808121,0.003193952531149623,-0.40221,0.20601000000000003,9.751140000000001
5727272670,20.7,-0.046879543708567686,-0.13421581947836395,0.005323254218582705,-0.27468000000000004,0.64746,10.09449
5732323175,20.7,-0.05326744877086694,-0.1832246648743647,0.003193952531149623,-0.33354000000000006,0.24525000000000002,9.87867
5737373680,20.7,-0.15872024217636432,-0.22689280275926285,0.005323254218582705,0.06867000000000001,-0.05886,10.06506
5742424185,20.7,-0.06284930636431581,-0.18216001403064813,0.004258603374866164,0.3924,0.21582,10.182780000000001
5747474690,20.7,-0.044732788728614664,-0.12676326357234816,0.004258603374866164,0.51993,-0.05886,9.80019
5752525195,20.7,-0.07883652231258387,-0.09054768159346581,0.003193952531149623,0.57879,-0.10791,9.770760000000001
5757575700,20.7,-0.004258603374866164,-0.04366813788489812,0.0,0.70632,0.04905,9.760950000000001
5762626205,20.7,0.005323254218582705,0.01811651763570114,0.0,0.60822,0.0,9.60399
5767676710,20.7,0.001064650843716541,0.02982767691658309,0.0,0.45126,0.0,9.633420000000001
5772727215,20.7,0.05113814708343386,0.039409534510031964,0.0,0.38259000000000004,0.25506,9.751140000000001
5777777720,20.7,0.07243116395776468,0.022375121010567305,0.0,0.43164,0.35316,9.751140000000001
5782828225,20.7,0.046879543708567686,0.04153883619746504,0.0,0.42183,0.40221,9.83943
5787878730,20.7,0.05965535383316618,0.03515093113516579,0.0,0.30411,0.5591700000000001,9.89829
5792929235,20.7,0.05539675045830002,0.004258603374866164,-0.001064650843716541,0.37278,0.6278400000000001,9.89829
5797979740,20.7,0.03089232776029963,0.021310470166850764,-0.002129301687433082,0.50031,0.63765,9.99639
5803030245,20.7,0.015987215948268057,0.05326744877086694,0.0,0.45126,0.60822,10.025820000000001
5808080750,20.7,-0.005323254218582705,0.07990117315630041,0.0,0.35316,0.48069000000000006,10.03563
5813131255,20.7,-0.03621558197888234,0.10545279340549739,-0.001064650843716541,0.23544,0.2943,10.09449
5818181760,20.7,-0.033021629447732716,0.12463396188491506,-0.001064650843716541,0.04905,0.22563,10.006200000000002
5823232265,20.7,-0.022375121010567305,0.1331511686346474,-0.003193952531149623,-0.10791,0.13734000000000002,9.95715
5828282770,20.7,-0.02556907354171693,0.14487978120804929,-0.005323254218582705,-0.24525000000000002,-0.019620000000000002,9.89829
5833333275,20.7,-0.01918116847941768,0.16617279808238014,-0.001064650843716541,-0.52974,-0.04905,9.85905
5838383780,20.7,0.015987215948268057,0.1278279144160647,-0.004258603374866164,-0.8240400000000001,0.0,9.760950000000001
5843434285,20.7,0.05113814708343386,0.07777187146886733,-0.002129301687433082,-0.94176,0.0981,9.78057
5848484790,20.7,0.06391395720803235,0.004258603374866164,0.001064650843716541,-1.00062,0.51012,9.81
5853535295,20.7,0.09054768159346581,-0.07243116395776468,0.002129301687433082,-0.9908100000000001,0.69651,10.006200000000002
5858585800,20.7,0.0404741853537485,-0.16191419470751395,0.004258603374866164,-0.70632,0.59841,9.72171
5863636305,20.7,0.014905111812031574,-0.20985838925979816,0.004258603374866164,-0.31392000000000003,0.8142300000000001,9.94734
5868686810,20.7,0.03089232776029963,-0.2482032729261136,0.008517206749732328,-0.05886,1.03005,9.937529999999999
5873737315,20.7,-0.02982767691658309,-0.2844188549049959,0.007452555906015787,0.37278,0.86328,9.94734
5878787820,20.7,-0.08841837990603273,-0.25780258381208243,0.007452555906015787,0.7848,0.74556,10.045440000000001
5883838325,20.7,-0.09587093581204853,-0.21198769094723127,0.007452555906015787,0.9711900000000001,0.57879,10.045440000000001
5888888830,20.7,-0.12569861272863161,-0.15978489302008084,0.004258603374866164,1.1772,0.2943,9.96696
5893939335,20.7,-0.14594443205176583,-0.08841837990603273,0.0,1.2360600000000002,-0.009810000000000001,9.937529999999999
5898989840,20.7,-0.13102186694721432,-0.002129301687433082,0.002129301687433082,1.26549,-0.23544,9.888480000000001
5904040345,20.7,-0.10438814256178083,0.06604325889546543,-0.002129301687433082,1.05948,-0.43164,9.74133
5909090850,20.7,-0.05965535383316618,0.1352804703220805,-0.002129301687433082,0.95157,-0.5395500000000001,9.69228
5914141355,20.7,-0.007452555906015787,0.22903955773921586,-0.004258603374866164,0.70632,-0.57879,9.64323
5919191860,20.7,0.044732788728614664,0.27803094984269666,-0.007452555906015787,0.27468000000000004,-0.5395500000000001,9.60399
5924242365,20.7,0.10438814256178083,0.29721211832211436,-0.006387905062299246,-0.10791,-0.2943,9.66285
5929292870,20.7,0.17470745812463237,0.27270769562411395,-0.007452555906015787,-0.52974,0.05886,9.72171
5934343375,20.7,0.20453513504121545,0.2151816434783809,-0.004258603374866164,-0.7651800000000001,0.70632,9.84924
5939393880,20.7,0.2130523417909478,0.15126768627034853,-0.004258603374866164,-1.03005,2.21706,9.95715
5944444385,20.7,0.2599318854995155,0.10012953918691468,0.0,-1.95219,2.42307,11.026440000000001
5949494890,20.7,-0.06923721142661506,-0.17257815643719931,0.003193952531149623,-1.44207,0.64746,9.74133
5954545395,20.7,-0.24075071702009782,-0.2236988502281132,0.004258603374866164,-0.31392000000000003,0.27468000000000004,9.66285
5959595900,20.7,-0.03408628029144926,-0.19067722078038052,0.006387905062299246,-0.13734000000000002,0.8338500000000001,10.22202
5964646405,20.7,-0.08096582400001695,-0.22156954854068012,0.006387905062299246,-0.009810000000000001,0.14715,9.82962
5969696910,20.7,-0.20559978588493202,-0.2279749068954993,0.006387905062299246,0.22563,-0.14715,10.006200000000002
5974747415,20.7,-0.07030186227033158,-0.20985838925979816,0.007452555906015787,0.60822,0.24525000000000002,10.26126
5979797920,20.7,-0.05007349623971732,-0.1352804703220805,0.005323254218582705,0.8240400000000001,-0.05886,9.770760000000001
5984848425,20.7,-0.11079350091660004,-0.08309512568745003,0.002129301687433082,0.7749900000000001,-0.25506,9.751140000000001
5989898930,20.7,-0.02982767691658309,-0.03408628029144926,-0.001064650843716541,0.94176,-0.06867000000000001,9.73152
5994949435,20.7,0.006387905062299246,0.05539675045830002,0.0,0.8142300000000001,-0.16677000000000003,9.44703
5999999940,20.7,0.006387905062299246,0.0852244273748831,0.0,0.59841,-0.1962,9.57456
6005050445,20.7,0.05965535383316618,0.11185815176031658,-0.003193952531149623,0.45126,0.039240000000000004,9.68247
6010100950,20.7,0.09054768159346581,0.10225884087434776,0.0,0.30411,0.16677000000000003,9.74133
6015151455,20.7,0.0852244273748831,0.10545279340549739,-0.001064650843716541,0.24525000000000002,0.28449,9.89829
6020201960,20.7,0.11079350091660004,0.09906488834319814,-0.003193952531149623,0.10791,0.5886,9.97677
6025252465,20.7,0.10332349171806432,0.06178465552059926,-0.001064650843716541,0.05886,0.71613,9.99639
6030302970,20.7,0.06604325889546543,0.049008845396000776,0.0,0.13734000000000002,0.7749900000000001,10.08468
6035353475,20.7,0.044732788728614664,0.05859070298944965,-0.001064650843716541,0.13734000000000002,0.8240400000000001,10.05525
6040403980,20.7,0.023439771854283843,0.05113814708343386,0.0,0.039240000000000004,0.8240400000000001,10.03563
6045454485,20.7,-0.01064650843716541,0.05113814708343386,-0.001064650843716541,0.06867000000000001,0.6768900000000001,10.1043
6050504990,20.7,-0.05007349623971732,0.08203047484373349,0.001064650843716541,-0.019620000000000002,0.45126,10.08468
6055555495,20.7,-0.07030186227033158,0.07883652231258387,0.0,-0.26487,0.24525000000000002,10.03563
6060606000,20.7,-0.06923721142661506,0.05326744877086694,-0.001064650843716541,-0.32373,0.11772,10.03563
6065656505,20.7,-0.05859070298944965,0.05113814708343386,0.0,-0.34335000000000004,0.0,9.89829
6070707010,20.7,-0.049008845396000776,0.06497860805174888,0.001064650843716541,-0.45126,-0.08829,9.79038
6075757515,20.7,-0.023439771854283843,0.03834488366631542,0.0,-0.69651,-0.0981,9.7119
6080808020,20.7,0.021310470166850764,-0.012775810124598492,0.002129301687433082,-0.65727,0.04905,9.74133
6085858525,20.7,0.044732788728614664,-0.04794419455228423,0.0,-0.5886,0.20601000000000003,9.69228
6090909030,20.7,0.05752605214573309,-0.09693558665576507,0.003193952531149623,-0.51012,0.41202000000000005,9.78057
6095959535,20.7,0.05326744877086694,-0.150203035426632,0.005323254218582705,-0.26487,0.57879,9.83943
6101010040,20.7,0.0404741853537485,-0.18216001403064813,0.005323254218582705,0.0,0.75537,9.87867
6106060545,20.7,0.031956978604016174,-0.19600047499896323,0.005323254218582705,0.27468000000000004,0.90252,9.91791
6111111050,20.7,-0.005323254218582705,-0.19814722997891623,0.007452555906015787,0.59841,0.85347,9.98658
6116161555,20.7,-0.05539675045830002,-0.17470745812463237,0.003193952531149623,0.85347,0.71613,10.006200000000002
6121212060,20.7,-0.0852244273748831,-0.12144000935376545,0.004258603374866164,1.03005,0.56898,9.98658
6126262565,20.7,-0.09693558665576507,-0.054332099614583476,0.003193952531149623,1.04967,0.32373,10.006200000000002
6131313070,20.7,-0.11505210429146619,-0.008517206749732328,0.0,0.9810000000000001,0.039240000000000004,9.96696
6136363575,20.7,-0.11292280260403312,0.04260348704118158,0.0,0.9810000000000001,-0.24525000000000002,9.94734
6141414080,20.7,-0.08415977653116657,0.12250466019748199,0.0,0.74556,-0.40221,9.86886
6146464585,20.7,-0.03089232776029963,0.14381513036433274,-0.002129301687433082,0.48069000000000006,-0.41202000000000005,9.751140000000001
6151515090,20.7,0.015987215948268057,0.1757721089683489,-0.001064650843716541,0.33354000000000006,-0.35316,9.72171
6156565595,20.7,0.05752605214573309,0.21198769094723127,-0.004258603374866164,0.13734000000000002,-0.27468000000000004,9.70209
6161616100,20.7,0.09374163412461543,0.23116885942664894,-0.003193952531149623,-0.21582,-0.07848000000000001,9.70209
6166666605,20.7,0.13421581947836395,0.20134118251006583,-0.004258603374866164,-0.52974,0.17658,9.760950000000001
6171717110,20.7,0.15978489302008084,0.16084954386379738,-0.005323254218582705,-0.57879,0.6278400000000001,9.80019
6176767615,20.7,0.16191419470751395,0.14275047952061623,-0.001064650843716541,-0.80442,1.81485,9.94734
6181818120,20.7,0.19387117331153014,0.10012953918691468,0.0,-1.6186500000000001,1.9129500000000002,10.82043
6186868625,20.7,-0.06817256058289851,-0.13102186694721432,0.006387905062299246,-1.3243500000000001,0.50031,9.751140000000001
6191919130,20.7,-0.17896606149949854,-0.19174187162409706,0.003193952531149623,-0.38259000000000004,0.34335000000000004,9.73152
6196969635,20.7,-0.007452555906015787,-0.16617279808238014,0.006387905062299246,-0.22563,0.8142300000000001,10.182780000000001
6202020140,20.7,-0.07136651311404815,-0.22689280275926285,0.006387905062299246,-0.14715,0.24525000000000002,9.80019
6207070645,20.7,-0.16938420390604966,-0.23862141533266473,0.007452555906015787,0.26487,0.009810000000000001,9.91791
6212121150,20.7,-0.05965535383316618,-0.20027653166634932,0.006387905062299246,0.51012,0.31392000000000003,10.13373
6217171655,20.7,-0.05326744877086694,-0.177901410655782,0.005323254218582705,0.64746,0.08829,9.78057
6222222160,20.7,-0.10012953918691468,-0.13955652698946658,0.004258603374866164,0.89271,-0.05886,9.79038
6227272665,20.7,-0.04794419455228423,-0.05965535383316618,0.001064650843716541,1.05948,0.0,9.760950000000001
6232323170,20.7,-0.023439771854283843,0.01918116847941768,0.002129301687433082,0.86328,-0.11772,9.58437
6237373675,20.7,-0.0170518667919846,0.044732788728614664,0.0,0.8142300000000001,-0.0981,9.67266
6242424180,20.7,0.028763026072866547,0.11185815176031658,-0.005323254218582705,0.80442,-0.019620000000000002,9.73152
6247474685,20.7,0.04794419455228423,0.16617279808238014,-0.005323254218582705,0.56898,-0.02943,9.73152
6252525190,20.7,0.05539675045830002,0.19921188082263275,-0.003193952531149623,0.31392000000000003,-0.019620000000000002,9.85905
6257575695,20.7,0.09587093581204853,0.20347048419749894,-0.004258603374866164,0.0,0.20601000000000003,9.937529999999999
6262626200,20.7,0.11824605682261582,0.18535396656179778,-0.004258603374866164,-0.16677000000000003,0.3924,9.96696
6267676705,20.7,0.1097288500728835,0.17151350559348277,-0.002129301687433082,-0.35316,0.51012,10.01601
6272727210,20.7,0.10012953918691468,0.12037535851004891,-0.001064650843716541,-0.5886,0.9613800000000001,10.03563
6277777715,20.7,0.1171814059788993,0.05539675045830002,-0.002129301687433082,-0.8142300000000001,1.50093,10.33974
6282828220,20.7,0.04794419455228423,-0.03408628029144926,0.001064650843716541,-0.8142300000000001,0.90252,9.92772
6287878725,20.7,-0.11824605682261582,-0.11824605682261582,0.001064650843716541,-0.2943,0.45126,9.99639
6292929230,20.7,-0.06497860805174888,-0.10332349171806432,0.003193952531149623,-0.14715,0.6768900000000001,10.13373
6297979735,20.7,-0.06178465552059926,-0.1352804703220805,0.005323254218582705,-0.12753,0.37278,9.82962
6303030240,20.7,-0.13634512116579703,-0.15872024217636432,0.004258603374866164,0.06867000000000001,0.11772,10.025820000000001
6308080745,20.7,-0.07990117315630041,-0.14913838458291545,0.003193952531149623,0.35316,0.21582,10.01601
6313131250,20.7,-0.07030186227033158,-0.09267698328089889,0.003193952531149623,0.46107000000000004,-0.039240000000000004,9.82962
6318181755,20.7,-0.09587093581204853,-0.060720004676882725,0.003193952531149623,0.45126,-0.20601000000000003,9.80019
6323232260,20.7,-0.03621558197888234,-0.023439771854283843,0.001064650843716541,0.52974,-0.07848000000000001,9.72171
6328282765,20.7,0.001064650843716541,0.01811651763570114,0.0,0.47088,-0.0981,9.66285
6333333270,20.7,0.0,0.05965535383316618,0.0,0.43164,-0.15696000000000002,9.67266
6338383775,20.7,0.03834488366631542,0.10119419003063122,-0.002129301687433082,0.2943,-0.019620000000000002,9.70209
6343434280,20.7,0.07777187146886733,0.12037535851004891,-0.002129301687433082,0.07848000000000001,0.11772,9.7119
6348484785,20.7,0.09374163412461543,0.09800023749948161,-0.002129301687433082,-0.05886,0.33354000000000006,9.80019
6353535290,20.7,0.10759954838545042,0.07670722062515077,-0.004258603374866164,-0.0981,0.5493600000000001,9.87867
6358585795,20.7,0.09054768159346581,0.05326744877086694,-0.002129301687433082,-0.15696000000000002,0.6867000000000001,9.89829
6363636300,20.7,0.06923721142661506,0.0170518667919846,-0.003193952531149623,-0.13734000000000002,0.80442,9.937529999999999
6368686805,20.7,0.044732788728614664,-0.004258603374866164,0.0,-0.08829,0.8338500000000001,10.03563
6373737310,20.7,0.015987215948268057,-0.031956978604016174,0.001064650843716541,-0.06867000000000001,0.84366,10.03563
6378787815,20.7,-0.02663372438543347,-0.046879543708567686,0.001064650843716541,0.04905,0.71613,10.09449
6383838320,20.7,-0.05539675045830002,-0.03728023282259888,0.001064650843716541,0.12753,0.59841,10.074869999999999
6388888825,20.7,-0.07349581480148122,-0.039409534510031964,0.003193952531149623,0.12753,0.44145,10.025820000000001
6393939330,20.7,-0.08735372906231618,-0.028763026072866547,0.003193952531149623,0.17658,0.25506,10.025820000000001
6398989835,20.7,-0.09693558665576507,-0.0170518667919846,0.0,0.14715,0.0,9.91791
6404040340,20.7,-0.09267698328089889,-0.004258603374866164,-0.001064650843716541,0.05886,-0.14715,9.89829
6409090845,20.7,-0.054332099614583476,0.0,0.0,0.019620000000000002,-0.15696000000000002,9.82962
6414141350,20.7,-0.0170518667919846,0.014905111812031574,0.001064650843716541,0.04905,-0.17658,9.770760000000001
6419191855,20.7,0.008517206749732328,0.031956978604016174,0.001064650843716541,0.009810000000000001,-0.12753,9.79038
6424242360,20.7,0.03834488366631542,0.03089232776029963,0.001064650843716541,-0.06867000000000001,0.0,9.770760000000001
6429292865,20.7,0.06923721142661506,0.011711159280881954,0.0,-0.15696000000000002,0.21582,9.760950000000001
6434343370,20.7,0.08628907821859966,-0.02769837522915001,0.0,-0.08829,0.46107000000000004,9.81
6439393875,20.7,0.08735372906231618,-0.049008845396000776,0.001064650843716541,0.08829,0.65727,9.81
6444444380,20.7,0.06604325889546543,-0.04581489286485115,0.001064650843716541,0.20601000000000003,0.7848,9.89829
6449494885,20.7,0.03408628029144926,-0.04794419455228423,0.003193952531149623,0.24525000000000002,0.7848,9.96696
6454545390,20.7,0.01064650843716541,-0.05220279792715039,0.002129301687433082,0.36297,0.80442,10.01601
6459595895,20.7,-0.014905111812031574,-0.049008845396000776,0.002129301687433082,0.41202000000000005,0.70632,10.025820000000001
6464646400,20.7,-0.05326744877086694,-0.03408628029144926,0.0,0.52974,0.52974,10.03563
6469696905,20.7,-0.08735372906231618,0.013840460968315033,0.001064650843716541,0.51012,0.28449,9.97677
6474747410,20.7,-0.09054768159346581,0.046879543708567686,-0.003193952531149623,0.35316,0.0981,9.92772
6479797915,20.7,-0.07990117315630041,0.07030186227033158,0.0,0.22563,-0.08829,9.85905
6484848420,20.7,-0.060720004676882725,0.08415977653116657,-0.001064650843716541,0.07848000000000001,-0.22563,9.83943
6489898925,20.7,-0.028763026072866547,0.08096582400001695,-0.004258603374866164,-0.039240000000000004,-0.24525000000000002,9.79038
6494949430,20.7,0.011711159280881954,0.08841837990603273,0.0,-0.14715,-0.15696000000000002,9.760950000000001
6499999935,20.7,0.04581489286485115,0.08309512568745003,-0.003193952531149623,-0.21582,-0.039240000000000004,9.73152
6505050440,20.7,0.07349581480148122,0.0852244273748831,-0.001064650843716541,-0.33354000000000006,0.11772,9.78057
6510100945,20.7,0.09161233243718235,0.05752605214573309,0.0,-0.41202000000000005,0.34335000000000004,9.819809999999999
6515151450,20.7,0.10012953918691468,0.028763026072866547,0.0,-0.44145,0.52974,9.83943
6520201955,20.7,0.09693558665576507,-0.01811651763570114,0.001064650843716541,-0.3924,0.75537,9.92772
6525252460,20.7,0.07990117315630041,-0.05326744877086694,0.0,-0.22563,0.9221400000000001,10.01601
6530302965,20.7,0.03621558197888234,-0.07243116395776468,0.002129301687433082,-0.12753,0.9319500000000001,10.01601
6535353470,20.7,-0.006387905062299246,-0.09800023749948161,0.001064650843716541,-0.009810000000000001,0.90252,10.1043
6540403975,20.7,-0.03515093113516579,-0.12676326357234816,0.0,0.12753,0.84366,10.09449
6545454480,20.7,-0.07456046564519776,-0.12676326357234816,0.004258603374866164,0.2943,0.64746,10.074869999999999
6550504985,20.7,-0.10119419003063122,-0.11398745344774965,0.002129301687433082,0.43164,0.44145,9.99639
6555555490,20.7,-0.12356931104119852,-0.08628907821859966,0.004258603374866164,0.52974,0.18639,9.94734
6560605995,20.7,-0.1278279144160647,-0.04794419455228423,0.003193952531149623,0.50031,-0.06867000000000001,9.84924
6565656500,20.7,-0.10438814256178083,-0.03515093113516579,0.0,0.46107000000000004,-0.18639,9.81
6570707005,20.7,-0.07349581480148122,-0.006387905062299246,0.001064650843716541,0.46107000000000004,-0.31392000000000003,9.73152
6575757510,20.7,-0.03728023282259888,0.021310470166850764,0.0,0.3924,-0.33354000000000006,9.73152
6580808015,20.7,0.001064650843716541,0.0404741853537485,0.0,0.35316,-0.2943,9.72171
6585858520,20.7,0.05220279792715039,0.06284930636431581,0.0,0.33354000000000006,-0.08829,9.68247
6590909025,20.7,0.09161233243718235,0.08309512568745003,-0.003193952531149623,0.30411,0.11772,9.751140000000001
6595959530,20.7,0.10332349171806432,0.12144000935376545,-0.001064650843716541,0.22563,0.26487,9.79038
6601010035,20.7,0.1097288500728835,0.1352804703220805,-0.002129301687433082,0.009810000000000001,0.41202000000000005,9.83943
6606060540,20.7,0.10866419922916695,0.12676326357234816,-0.003193952531149623,-0.15696000000000002,0.60822,9.89829
6611111045,20.7,0.10119419003063122,0.10438814256178083,-0.004258603374866164,-0.20601000000000003,0.74556,9.96696
6616161550,20.7,0.07670722062515077,0.07349581480148122,0.0,-0.2943,1.1183400000000001,10.045440000000001
6621212055,20.7,0.060720004676882725,0.04366813788489812,0.0,-0.5395500000000001,1.1772,10.44765
6626262560,20.7,-0.031956978604016174,-0.02556907354171693,0.001064650843716541,-0.44145,0.5886,9.87867
6631313065,20.7,-0.09906488834319814,-0.05752605214573309,0.0,-0.23544,0.51012,10.01601
6636363570,20.7,-0.03515093113516579,-0.08203047484373349,0.004258603374866164,-0.20601000000000003,0.63765,10.025820000000001
6641414075,20.7,-0.0852244273748831,-0.11292280260403312,0.006387905062299246,-0.05886,0.20601000000000003,9.84924
6646464580,20.7,-0.11824605682261582,-0.12144000935376545,0.003193952531149623,0.04905,0.15696000000000002,9.908100000000001
6651515085,20.7,-0.05965535383316618,-0.12463396188491506,0.002129301687433082,0.21582,0.15696000000000002,9.85905
6656565590,20.7,-0.06391395720803235,-0.11185815176031658,0.002129301687433082,0.34335000000000004,-0.019620000000000002,9.83943
6661616095,20.7,-0.06710790973918197,-0.08415977653116657,0.004258603374866164,0.51993,-0.0981,9.819809999999999
6666666600,20.7,-0.02663372438543347,-0.031956978604016174,0.001064650843716541,0.5591700000000001,-0.08829,9.81
6671717105,20.7,-0.00958185759344887,0.001064650843716541,0.0,0.46107000000000004,-0.11772,9.79038
6676767610,20.7,0.020245819323134222,0.03621558197888234,0.0,0.48069000000000006,-0.009810000000000001,9.770760000000001
6681818115,20.7,0.05220279792715039,0.09480628496833199,0.0,0.38259000000000004,0.10791,9.751140000000001
6686868620,20.7,0.06497860805174888,0.10759954838545042,-0.004258603374866164,0.18639,0.1962,9.78057
6691919125,20.7,0.07136651311404815,0.11185815176031658,-0.002129301687433082,0.0981,0.2943,9.86886
6696969630,20.7,0.08415977653116657,0.11505210429146619,-0.004258603374866164,-0.06867000000000001,0.48069000000000006,9.908100000000001
6702020135,20.7,0.07670722062515077,0.07777187146886733,-0.002129301687433082,-0.13734000000000002,0.59841,9.908100000000001
6707070640,20.7,0.054332099614583476,0.06284930636431581,-0.002129301687433082,-0.15696000000000002,0.6768900000000001,9.95715
6712121145,20.7,0.03834488366631542,0.039409534510031964,0.0,-0.23544,0.6867000000000001,9.98658
6717171650,20.7,0.021310470166850764,0.002129301687433082,0.0,-0.25506,0.73575,9.96696
6722222155,20.7,0.005323254218582705,-0.039409534510031964,0.001064650843716541,-0.20601000000000003,0.7651800000000001,9.95715
6727272660,20.7,-0.02556907354171693,-0.05859070298944965,0.001064650843716541,-0.04905,0.65727,9.97677
6732323165,20.7,-0.06604325889546543,-0.06604325889546543,0.004258603374866164,-0.019620000000000002,0.48069000000000006,9.96696
6737373670,20.7,-0.08415977653116657,-0.07456046564519776,0.001064650843716541,0.06867000000000001,0.32373,9.98658
6742424175,20.7,-0.08415977653116657,-0.07670722062515077,0.002129301687433082,0.17658,0.16677000000000003,9.95715
6747474680,20.7,-0.07883652231258387,-0.06284930636431581,0.001064650843716541,0.20601000000000003,0.009810000000000001,9.908100000000001
6752525185,20.7,-0.06497860805174888,-0.039409534510031964,0.002129301687433082,0.24525000000000002,-0.019620000000000002,9.888480000000001
6757575690,20.7,-0.03834488366631542,-0.020245819323134222,0.002129301687433082,0.25506,-0.05886,9.81
6762626195,20.7,-0.013840460968315033,0.003193952531149623,0.0,0.27468000000000004,-0.04905,9.81
6767676700,20.7,0.00958185759344887,0.021310470166850764,-0.001064650843716541,0.20601000000000003,0.009810000000000001,9.79038
6772727205,20.7,0.024504422698000388,0.03728023282259888,0.0,0.20601000000000003,0.02943,9.770760000000001
6777777710,20.7,0.03728023282259888,0.06178465552059926,0.0,0.10791,0.11772,9.80019
6782828215,20.7,0.05752605214573309,0.060720004676882725,-0.001064650843716541,0.019620000000000002,0.24525000000000002,9.819809999999999
6787878720,20.7,0.07883652231258387,0.04794419455228423,0.0,-0.06867000000000001,0.46107000000000004,9.87867
6792929225,20.7,0.08309512568745003,0.023439771854283843,-0.001064650843716541,-0.05886,0.59841,9.91791
6797979730,20.7,0.06284930636431581,0.005323254218582705,0.001064650843716541,-0.02943,0.6670800000000001,9.937529999999999
6803030235,20.7,0.039409534510031964,-0.02769837522915001,0.0,-0.06867000000000001,0.79461,9.99639
6808080740,20.7,0.013840460968315033,-0.05965535383316618,0.001064650843716541,0.11772,0.80442,9.99639
6813131245,20.7,-0.024504422698000388,-0.05646140130201656,0.001064650843716541,0.21582,0.6670800000000001,9.97677
6818181750,20.7,-0.05646140130201656,-0.046879543708567686,0.001064650843716541,0.27468000000000004,0.50031,9.97677
6823232255,20.7,-0.06817256058289851,-0.02769837522915001,0.002129301687433082,0.31392000000000003,0.33354000000000006,9.97677
6828282760,20.7,-0.07030186227033158,-0.015987215948268057,0.001064650843716541,0.27468000000000004,0.20601000000000003,9.94734
6833333265,20.7,-0.06817256058289851,-0.011711159280881954,0.0,0.24525000000000002,0.08829,9.92772
6838383770,20.7,-0.06178465552059926,0.004258603374866164,0.001064650843716541,0.28449,-0.04905,9.89829
