#timestamp [ns], temperature [degC], w_RS_S_x [rad s^-1], w_RS_S_y [rad s^-1], w_RS_S_z [rad s^-1], a_RS_S_x [m s^-2], a_RS_S_y [m s^-2], a_RS_S_z [m s^-2]
0,22.22,0.0,0.0,0.0,0.59841,-0.12753,9.819809999999999
5050505,22.22,0.0,0.0,0.0,0.5886,-0.16677000000000003,9.83943
10101010,22.22,0.0,0.0,0.0,0.56898,-0.13734000000000002,9.83943
15151515,22.22,0.0,0.0,0.0,0.60822,-0.15696000000000002,9.79038
20202020,22.22,0.0,0.0,0.0,0.60822,-0.15696000000000002,9.78057
25252525,22.22,0.0,0.0,0.0,0.60822,-0.14715,9.80019
30303030,22.22,0.0,0.0,0.0,0.5886,-0.15696000000000002,9.83943
35353535,22.22,0.0,0.0,0.0,0.5886,-0.13734000000000002,9.819809999999999
40404040,22.22,0.0,0.0,0.0,0.56898,-0.13734000000000002,9.770760000000001
45454545,22.22,0.0,0.0,0.0,0.5886,-0.13734000000000002,9.79038
50505050,22.22,0.0,0.0,0.0,0.59841,-0.15696000000000002,9.81
55555555,22.22,0.0,0.0,0.0,0.56898,-0.16677000000000003,9.81
60606060,22.22,0.0,0.0,0.0,0.57879,-0.15696000000000002,9.80019
65656565,22.22,0.0,0.0,0.0,0.5886,-0.14715,9.81
70707070,22.22,0.0,0.0,0.0,0.5886,-0.17658,9.80019
75757575,22.22,0.0,0.0,0.0,0.5886,-0.14715,9.84924
80808080,22.22,0.0,0.0,0.0,0.57879,-0.13734000000000002,9.819809999999999
85858585,22.22,0.0,0.0,0.0,0.59841,-0.14715,9.80019
90909090,22.22,0.0,0.0,0.0,0.59841,-0.14715,9.760950000000001
95959595,22.22,0.0,0.0,0.0,0.60822,-0.14715,9.80019
101010100,22.22,0.0,0.0,0.0,0.60822,-0.14715,9.85905
106060605,22.22,0.0,0.0,0.0,0.57879,-0.14715,9.84924
111111110,22.22,0.0,0.0,0.0,0.5886,-0.13734000000000002,9.81
116161615,22.22,0.0,0.0,0.0,0.60822,-0.13734000000000002,9.770760000000001
121212120,22.22,0.0,0.0,0.0,0.59841,-0.16677000000000003,9.81
126262625,22.22,0.0,0.0,0.0,0.5886,-0.14715,9.84924
131313130,22.22,0.0,0.0,0.0,0.59841,-0.15696000000000002,9.84924
136363635,22.22,0.0,0.0,0.0,0.5886,-0.11772,9.81
141414140,22.22,0.0,0.0,0.0,0.59841,-0.15696000000000002,9.770760000000001
146464645,22.22,0.0,0.0,0.0,0.56898,-0.14715,9.80019
151515150,22.22,0.0,0.0,0.0,0.59841,-0.12753,9.819809999999999
156565655,22.22,0.0,0.0,0.0,0.5886,-0.14715,9.83943
161616160,22.22,0.0,0.0,0.0,0.59841,-0.14715,9.81
166666665,22.22,0.0,0.0,0.0,0.59841,-0.14715,9.80019
171717170,22.22,0.0,0.0,0.0,0.60822,-0.17658,9.81
176767675,22.22,0.0,0.0,0.0,0.56898,-0.15696000000000002,9.80019
181818180,22.22,0.0,0.0,0.0,0.57879,-0.13734000000000002,9.819809999999999
186868685,22.22,0.0,0.0,0.0,0.57879,-0.14715,9.82962
191919190,22.22,0.0,0.0,0.0,0.56898,-0.15696000000000002,9.84924
196969695,22.22,0.0,0.0,0.0,0.57879,-0.14715,9.79038
202020200,22.22,0.0,0.0,0.0,0.5493600000000001,-0.14715,9.819809999999999
207070705,22.22,0.0,0.0,0.0,0.57879,-0.14715,9.81
212121210,22.22,0.0,0.0,0.0,0.59841,-0.14715,9.82962
217171715,22.22,0.0,0.0,0.0,0.60822,-0.16677000000000003,9.82962
222222220,22.22,0.0,0.0,0.0,0.5886,-0.12753,9.82962
227272725,22.22,0.0,0.0,0.0,0.56898,-0.14715,9.80019
232323230,22.22,0.0,0.0,0.0,0.5886,-0.13734000000000002,9.760950000000001
237373735,22.22,0.0,0.0,0.0,0.60822,-0.16677000000000003,9.81
242424240,22.22,0.0,0.0,0.0,0.6180300000000001,-0.16677000000000003,9.83943
247474745,22.22,0.0,0.0,0.0,0.57879,-0.16677000000000003,9.82962
252525250,22.22,0.0,0.0,0.0,0.5591700000000001,-0.13734000000000002,9.78057
257575755,22.22,0.0,0.0,0.0,0.59841,-0.15696000000000002,9.78057
262626260,22.22,0.0,0.0,0.0,0.59841,-0.16677000000000003,9.819809999999999
267676765,22.22,0.0,0.0,0.0,0.57879,-0.13734000000000002,9.85905
272727270,22.22,0.0,0.0,0.0,0.5886,-0.15696000000000002,9.82962
277777775,22.22,0.0,0.0,0.0,0.56898,-0.15696000000000002,9.78057
282828280,22.22,0.0,0.0,0.0,0.5591700000000001,-0.15696000000000002,9.760950000000001
287878785,22.22,0.0,0.0,0.0,0.5886,-0.15696000000000002,9.78057
292929290,22.22,0.0,0.0,0.0,0.5886,-0.13734000000000002,9.86886
297979795,22.22,0.0,0.0,0.0,0.5886,-0.15696000000000002,9.85905
303030300,22.22,0.0,0.0,0.0,0.5886,-0.15696000000000002,9.80019
308080805,22.22,0.0,0.0,0.0,0.56898,-0.15696000000000002,9.74133
313131310,22.22,0.0,0.0,0.0,0.57879,-0.16677000000000003,9.78057
318181815,22.22,0.0,0.0,0.0,0.59841,-0.16677000000000003,9.83943
323232320,22.22,0.0,0.0,0.0,0.59841,-0.13734000000000002,9.86886
328282825,22.22,0.0,0.0,0.0,0.60822,-0.16677000000000003,9.82962
333333330,22.22,0.0,0.0,0.0,0.5886,-0.14715,9.770760000000001
338383835,22.22,0.0,0.0,0.0,0.60822,-0.15696000000000002,9.760950000000001
343434340,22.22,0.0,0.0,0.0,0.60822,-0.17658,9.81
348484845,22.22,0.0,0.0,0.0,0.59841,-0.13734000000000002,9.85905
353535350,22.22,0.0,0.0,0.0,0.57879,-0.14715,9.82962
358585855,22.22,0.0,0.0,0.0,0.57879,-0.13734000000000002,9.80019
363636360,22.22,0.0,0.0,0.0,0.5886,-0.14715,9.80019
368686865,22.22,0.0,0.0,0.0,0.57879,-0.15696000000000002,9.751140000000001
373737370,22.22,0.0,0.0,0.0,0.5886,-0.14715,9.80019
378787875,22.22,0.0,0.0,0.0,0.57879,-0.15696000000000002,9.82962
383838380,22.22,0.0,0.0,0.0,0.59841,-0.15696000000000002,9.84924
388888885,22.22,0.0,0.0,0.0,0.5886,-0.15696000000000002,9.80019
393939390,22.22,0.0,0.0,0.0,0.5886,-0.13734000000000002,9.760950000000001
398989895,22.22,0.0,0.0,0.0,0.5886,-0.13734000000000002,9.79038
404040400,22.22,0.0,0.0,0.0,0.5886,-0.14715,9.82962
409090905,22.22,0.0,0.0,0.0,0.5886,-0.15696000000000002,9.86886
414141410,22.22,0.0,0.0,0.0,0.5886,-0.16677000000000003,9.83943
419191915,22.22,0.0,0.0,0.0,0.5886,-0.16677000000000003,9.80019
424242420,22.22,0.0,0.0,0.0,0.5886,-0.15696000000000002,9.760950000000001
429292925,22.22,0.0,0.0,0.0,0.5886,-0.13734000000000002,9.81
434343430,22.22,0.0,0.0,0.0,0.5886,-0.14715,9.83943
439393935,22.22,0.0,0.0,0.0,0.5886,-0.14715,9.84924
444444440,22.22,0.0,0.0,0.0,0.5886,-0.16677000000000003,9.78057
449494945,22.22,0.0,0.0,0.0,0.60822,-0.17658,9.74133
454545450,22.22,0.0,0.0,0.0,0.57879,-0.14715,9.819809999999999
459595955,22.22,0.0,0.0,0.0,0.60822,-0.14715,9.84924
464646460,22.22,0.0,0.0,0.0,0.60822,-0.14715,9.84924
469696965,22.22,0.0,0.0,0.0,0.59841,-0.14715,9.760950000000001
474747470,22.22,0.0,0.0,0.0,0.57879,-0.16677000000000003,9.74133
479797975,22.22,0.0,0.0,0.0,0.57879,-0.15696000000000002,9.81
484848480,22.22,0.0,0.0,0.0,0.60822,-0.14715,9.87867
489898985,22.22,0.0,0.0,0.0,0.60822,-0.16677000000000003,9.85905
494949490,22.22,0.0,0.0,0.0,0.5886,-0.16677000000000003,9.78057
499999995,22.22,0.0,0.0,0.0,0.59841,-0.17658,9.74133
505050500,22.22,0.0,0.0,0.0,0.57879,-0.14715,9.78057
510101005,22.22,0.0,0.0,0.0,0.5886,-0.14715,9.85905
515151510,22.22,0.0,0.0,0.0,0.5886,-0.15696000000000002,9.83943
520202015,22.22,0.0,0.0,0.0,0.56898,-0.16677000000000003,9.79038
525252520,22.22,0.0,0.0,0.0,0.56898,-0.14715,9.751140000000001
530303025,22.22,0.0,0.0,0.0,0.5886,-0.14715,9.79038
535353530,22.22,0.0,0.0,0.0,0.5886,-0.15696000000000002,9.819809999999999
540404035,22.22,0.0,0.0,0.0,0.56898,-0.13734000000000002,9.83943
545454540,22.22,0.0,0.0,0.0,0.5886,-0.15696000000000002,9.81
550505045,22.22,0.0,0.0,0.0,0.56898,-0.13734000000000002,9.751140000000001
555555550,22.22,0.0,0.0,0.0,0.5886,-0.17658,9.80019
560606055,22.22,0.0,0.0,0.0,0.5886,-0.13734000000000002,9.84924
565656560,22.22,0.0,0.0,0.0,0.5886,-0.16677000000000003,9.819809999999999
570707065,22.22,0.0,0.0,0.0,0.5886,-0.14715,9.760950000000001
575757570,22.22,0.0,0.0,0.0,0.59841,-0.11772,9.78057
580808075,22.22,0.0,0.0,0.0,0.5886,-0.15696000000000002,9.819809999999999
585858580,22.22,0.0,0.0,0.0,0.5886,-0.16677000000000003,9.86886
590909085,22.22,0.0,0.0,0.0,0.59841,-0.16677000000000003,9.819809999999999
595959590,22.22,0.0,0.0,0.0,0.5886,-0.15696000000000002,9.79038
601010095,22.22,0.0,0.0,0.0,0.59841,-0.14715,9.770760000000001
606060600,22.22,0.0,0.0,0.0,0.59841,-0.13734000000000002,9.770760000000001
611111105,22.22,0.0,0.0,0.0,0.59841,-0.0981,9.84924
616161610,22.22,0.0,0.0,0.0,0.57879,-0.14715,9.87867
621212115,22.22,0.0,0.0,0.0,0.57879,-0.14715,9.819809999999999
626262620,22.22,0.0,0.0,0.0,0.59841,-0.16677000000000003,9.81
631313125,22.22,0.0,0.0,0.0,0.5886,-0.13734000000000002,9.78057
636363630,22.22,0.0,0.0,0.0,0.5886,-0.13734000000000002,9.80019
641414135,22.22,0.0,0.0,0.0,0.5886,-0.16677000000000003,9.83943
646464640,22.22,0.0,0.0,0.0,0.59841,-0.14715,9.81
651515145,22.22,0.0,0.0,0.0,0.59841,-0.16677000000000003,9.819809999999999
656565650,22.22,0.0,0.0,0.0,0.5886,-0.13734000000000002,9.819809999999999
661616155,22.22,0.0,0.0,0.0,0.57879,-0.16677000000000003,9.78057
666666660,22.22,0.0,0.0,0.0,0.59841,-0.15696000000000002,9.78057
671717165,22.22,0.0,0.0,0.0,0.5886,-0.14715,9.80019
676767670,22.22,0.0,0.0,0.0,0.59841,-0.17658,9.86886
681818175,22.22,0.0,0.0,0.0,0.60822,-0.14715,9.86886
686868680,22.22,0.0,0.0,0.0,0.56898,-0.15696000000000002,9.80019
691919185,22.22,0.0,0.0,0.0,0.5886,-0.16677000000000003,9.73152
696969690,22.22,0.0,0.0,0.0,0.59841,-0.14715,9.78057
702020195,22.22,0.0,0.0,0.0,0.5886,-0.14715,9.84924
707070700,22.22,0.0,0.0,0.0,0.60822,-0.16677000000000003,9.87867
712121205,22.22,0.0,0.0,0.0,0.5886,-0.15696000000000002,9.819809999999999
717171710,22.22,0.0,0.0,0.0,0.5886,-0.14715,9.74133
722222215,22.22,0.0,0.0,0.0,0.59841,-0.14715,9.79038
727272720,22.22,0.0,0.0,0.0,0.59841,-0.15696000000000002,9.87867
732323225,22.22,0.0,0.0,0.0,0.6180300000000001,-0.16677000000000003,9.86886
737373730,22.22,0.0,0.0,0.0,0.59841,-0.13734000000000002,9.80019
742424235,22.22,0.0,0.0,0.0,0.5886,-0.15696000000000002,9.73152
747474740,22.22,0.0,0.0,0.0,0.5886,-0.14715,9.760950000000001
752525245,22.22,0.0,0.0,0.0,0.5886,-0.13734000000000002,9.819809999999999
757575750,22.22,0.0,0.0,0.0,0.59841,-0.14715,9.89829
762626255,22.22,0.0,0.0,0.0,0.5886,-0.15696000000000002,9.82962
767676760,22.22,0.0,0.0,0.0,0.59841,-0.16677000000000003,9.751140000000001
772727265,22.22,0.0,0.0,0.0,0.59841,-0.15696000000000002,9.760950000000001
777777770,22.22,0.0,0.0,0.0,0.5886,-0.14715,9.819809999999999
782828275,22.22,0.0,0.0,0.0,0.60822,-0.16677000000000003,9.83943
787878780,22.22,0.0,0.0,0.0,0.57879,-0.13734000000000002,9.819809999999999
792929285,22.22,0.0,0.0,0.0,0.5886,-0.14715,9.78057
797979790,22.22,0.0,0.0,0.0,0.5886,-0.16677000000000003,9.78057
803030295,22.22,0.0,0.0,0.0,0.57879,-0.15696000000000002,9.81
808080800,22.22,0.0,0.0,0.0,0.56898,-0.15696000000000002,9.82962
813131305,22.22,0.0,0.0,0.0,0.60822,-0.15696000000000002,9.81
818181810,22.22,0.0,0.0,0.0,0.5886,-0.13734000000000002,9.80019
823232315,22.22,0.0,0.0,0.0,0.59841,-0.14715,9.79038
828282820,22.22,0.0,0.0,0.0,0.57879,-0.17658,9.81
833333325,22.22,0.0,0.0,0.0,0.5886,-0.15696000000000002,9.819809999999999
838383830,22.22,0.0,0.0,0.0,0.6180300000000001,-0.15696000000000002,9.81
843434335,22.22,0.0,0.0,0.0,0.5886,-0.13734000000000002,9.79038
848484840,22.22,0.0,0.0,0.0,0.57879,-0.15696000000000002,9.819809999999999
853535345,22.22,0.0,0.0,0.0,0.57879,-0.15696000000000002,9.819809999999999
858585850,22.22,0.0,0.0,0.0,0.59841,-0.15696000000000002,9.819809999999999
863636355,22.22,0.0,0.0,0.0,0.57879,-0.17658,9.819809999999999
868686860,22.22,0.0,0.0,0.0,0.60822,-0.13734000000000002,9.81
873737365,22.22,0.0,0.0,0.0,0.57879,-0.16677000000000003,9.79038
878787870,22.22,0.0,0.0,0.0,0.57879,-0.16677000000000003,9.81
883838375,22.22,0.0,0.0,0.0,0.5886,-0.13734000000000002,9.81
888888880,22.22,0.0,0.0,0.0,0.5591700000000001,-0.14715,9.83943
893939385,22.22,0.0,0.0,0.0,0.5886,-0.15696000000000002,9.819809999999999
898989890,22.22,0.0,0.0,0.0,0.5886,-0.17658,9.74133
904040395,22.22,0.0,0.0,0.0,0.57879,-0.14715,9.78057
909090900,22.22,0.0,0.0,0.0,0.57879,-0.15696000000000002,9.81
914141405,22.22,0.0,0.0,0.0,0.5886,-0.15696000000000002,9.85905
919191910,22.22,0.0,0.0,0.0,0.5886,-0.16677000000000003,9.85905
924242415,22.22,0.0,0.0,0.0,0.5886,-0.15696000000000002,9.79038
929292920,22.22,0.0,0.0,0.0,0.60822,-0.15696000000000002,9.760950000000001
934343425,22.22,0.0,0.0,0.0,0.57879,-0.14715,9.79038
939393930,22.22,0.0,0.0,0.0,0.60822,-0.14715,9.84924
944444435,22.22,0.0,0.0,0.0,0.57879,-0.16677000000000003,9.85905
949494940,22.22,0.0,0.0,0.0,0.57879,-0.13734000000000002,9.81
954545445,22.22,0.0,0.0,0.0,0.5886,-0.16677000000000003,9.78057
959595950,22.22,0.0,0.0,0.0,0.56898,-0.14715,9.79038
964646455,22.22,0.0,0.0,0.0,0.5886,-0.15696000000000002,9.819809999999999
969696960,22.22,0.0,0.0,0.0,0.5886,-0.15696000000000002,9.84924
974747465,22.22,0.0,0.0,0.0,0.57879,-0.14715,9.80019
979797970,22.22,0.0,0.0,0.0,0.5886,-0.15696000000000002,9.760950000000001
984848475,22.22,0.0,0.0,0.0,0.57879,-0.14715,9.79038
989898980,22.22,0.0,0.0,0.0,0.5886,-0.16677000000000003,9.81
994949485,22.22,0.0,0.0,0.0,0.59841,-0.14715,9.84924
999999990,22.22,0.0,0.0,0.0,0.59841,-0.13734000000000002,9.82962
1005050495,22.22,0.0,0.0,0.0,0.5886,-0.14715,9.80019
1010101000,22.22,0.0,0.0,0.0,0.57879,-0.14715,9.78057
1015151505,22.22,0.0,0.0,0.0,0.5886,-0.12753,9.79038
1020202010,22.22,0.0,0.0,0.0,0.57879,-0.16677000000000003,9.84924
1025252515,22.22,0.0,0.0,0.0,0.57879,-0.15696000000000002,9.84924
1030303020,22.22,0.0,0.0,0.0,0.5886,-0.14715,9.81
1035353525,22.22,0.0,0.0,0.0,0.5886,-0.17658,9.760950000000001
1040404030,22.22,0.0,0.0,0.0,0.57879,-0.14715,9.79038
1045454535,22.22,0.0,0.0,0.0,0.60822,-0.15696000000000002,9.84924
1050505040,22.22,0.0,0.0,0.0,0.60822,-0.15696000000000002,9.84924
1055555545,22.22,0.0,0.0,0.0,0.59841,-0.15696000000000002,9.80019
1060606050,22.22,0.0,0.0,0.0,0.5886,-0.15696000000000002,9.79038
1065656555,22.22,0.0,0.0,0.0,0.59841,-0.17658,9.81
1070707060,22.22,0.0,0.0,0.0,0.59841,-0.13734000000000002,9.82962
1075757565,22.22,0.0,0.0,0.0,0.60822,-0.14715,9.81
1080808070,22.22,0.0,0.0,0.0,0.57879,-0.15696000000000002,9.819809999999999
1085858575,22.22,0.0,0.0,0.0,0.5886,-0.15696000000000002,9.81
1090909080,22.22,0.0,0.0,0.0,0.57879,-0.13734000000000002,9.82962
1095959585,22.22,0.0,0.0,0.0,0.59841,-0.15696000000000002,9.81
1101010090,22.22,0.0,0.0,0.0,0.5886,-0.16677000000000003,9.79038
1106060595,22.22,0.0,0.0,0.0,0.5886,-0.13734000000000002,9.80019
1111111100,22.22,0.0,0.0,0.0,0.57879,-0.14715,9.81
1116161605,22.22,0.0,0.0,0.0,0.60822,-0.16677000000000003,9.82962
1121212110,22.22,0.0,0.0,0.0,0.60822,-0.16677000000000003,9.81
1126262615,22.22,0.0,0.0,0.0,0.60822,-0.17658,9.81
1131313120,22.22,0.0,0.0,0.0,0.5886,-0.15696000000000002,9.78057
1136363625,22.22,0.0,0.0,0.0,0.60822,-0.16677000000000003,9.819809999999999
1141414130,22.22,0.0,0.0,0.0,0.56898,-0.15696000000000002,9.819809999999999
1146464635,22.22,0.0,0.0,0.0,0.57879,-0.11772,9.80019
1151515140,22.22,0.0,0.0,0.0,0.5886,-0.16677000000000003,9.81
1156565645,22.22,0.0,0.0,0.0,0.59841,-0.15696000000000002,9.819809999999999
1161616150,22.22,0.0,0.0,0.0,0.5886,-0.17658,9.81
1166666655,22.22,0.0,0.0,0.0,0.57879,-0.14715,9.819809999999999
1171717160,22.22,0.0,0.0,0.0,0.60822,-0.14715,9.79038
1176767665,22.22,0.0,0.0,0.0,0.5886,-0.15696000000000002,9.80019
1181818170,22.22,0.0,0.0,0.0,0.59841,-0.15696000000000002,9.81
1186868675,22.22,0.0,0.0,0.0,0.59841,-0.16677000000000003,9.83943
1191919180,22.22,0.0,0.0,0.0,0.57879,-0.12753,9.81
1196969685,22.22,0.0,0.0,0.0,0.60822,-0.17658,9.81
1202020190,22.22,0.0,0.0,0.0,0.5886,-0.14715,9.81
1207070695,22.22,0.0,0.0,0.0,0.59841,-0.14715,9.770760000000001
1212121200,22.22,0.0,0.0,0.0,0.5886,-0.14715,9.80019
1217171705,22.22,0.0,0.0,0.0,0.60822,-0.12753,9.82962
1222222210,22.22,0.0,0.0,0.0,0.5886,-0.12753,9.83943
1227272715,22.22,0.0,0.0,0.0,0.57879,-0.15696000000000002,9.81
1232323220,22.22,0.0,0.0,0.0,0.57879,-0.14715,9.79038
1237373725,22.22,0.0,0.0,0.0,0.5886,-0.15696000000000002,9.81
1242424230,22.22,0.0,0.0,0.0,0.5886,-0.14715,9.819809999999999
1247474735,22.22,0.0,0.0,0.0,0.56898,-0.15696000000000002,9.81
1252525240,22.22,0.0,0.0,0.0,0.59841,-0.17658,9.81
1257575745,22.22,0.0,0.0,0.0,0.57879,-0.16677000000000003,9.81
1262626250,22.22,0.0,0.0,0.0,0.60822,-0.13734000000000002,9.79038
1267676755,22.22,0.0,0.0,0.0,0.5886,-0.16677000000000003,9.82962
1272727260,22.22,0.0,0.0,0.0,0.5886,-0.14715,9.81
1277777765,22.22,0.0,0.0,0.0,0.59841,-0.12753,9.819809999999999
1282828270,22.22,0.0,0.0,0.0,0.56898,-0.16677000000000003,9.78057
1287878775,22.22,0.0,0.0,0.0,0.57879,-0.13734000000000002,9.819809999999999
1292929280,22.22,0.0,0.0,0.0,0.5591700000000001,-0.13734000000000002,9.80019
1297979785,22.22,0.0,0.0,0.0,0.57879,-0.17658,9.819809999999999
1303030290,22.22,0.0,0.0,0.0,0.57879,-0.14715,9.80019
1308080795,22.22,0.0,0.0,0.0,0.56898,-0.15696000000000002,9.81
1313131300,22.22,0.0,0.0,0.0,0.5886,-0.14715,9.81
1318181805,22.22,0.0,0.0,0.0,0.57879,-0.15696000000000002,9.819809999999999
1323232310,22.22,0.0,0.0,0.0,0.59841,-0.14715,9.81
1328282815,22.22,0.0,0.0,0.0,0.60822,-0.15696000000000002,9.81
1333333320,22.22,0.0,0.0,0.0,0.5886,-0.16677000000000003,9.81
1338383825,22.22,0.0,0.0,0.0,0.5886,-0.14715,9.79038
1343434330,22.22,0.0,0.0,0.0,0.56898,-0.14715,9.819809999999999
1348484835,22.22,0.0,0.0,0.0,0.56898,-0.11772,9.81
1353535340,22.22,0.0,0.0,0.0,0.5886,-0.12753,9.80019
1358585845,22.22,0.0,0.0,0.0,0.57879,-0.15696000000000002,9.81
1363636350,22.22,0.0,0.0,0.0,0.5886,-0.15696000000000002,9.80019
1368686855,22.22,0.0,0.0,0.0,0.57879,-0.14715,9.84924
1373737360,22.22,0.0,0.0,0.0,0.5886,-0.15696000000000002,9.819809999999999
1378787865,22.22,0.0,0.0,0.0,0.56898,-0.13734000000000002,9.81
1383838370,22.22,0.0,0.0,0.0,0.5886,-0.14715,9.770760000000001
1388888875,22.22,0.0,0.0,0.0,0.5886,-0.15696000000000002,9.81
1393939380,22.22,0.0,0.0,0.0,0.60822,-0.16677000000000003,9.82962
1398989885,22.22,0.0,0.0,0.0,0.59841,-0.16677000000000003,9.83943
1404040390,22.22,0.0,0.0,0.0,0.56898,-0.13734000000000002,9.81
1409090895,22.22,0.0,0.0,0.0,0.60822,-0.14715,9.760950000000001
1414141400,22.22,0.0,0.0,0.0,0.59841,-0.13734000000000002,9.760950000000001
1419191905,22.22,0.0,0.0,0.0,0.60822,-0.13734000000000002,9.84924
1424242410,22.22,0.0,0.0,0.0,0.59841,-0.17658,9.86886
1429292915,22.22,0.0,0.0,0.0,0.57879,-0.14715,9.81
1434343420,22.22,0.0,0.0,0.0,0.5886,-0.15696000000000002,9.72171
1439393925,22.22,0.0,0.0,0.0,0.5886,-0.15696000000000002,9.78057
1444444430,22.22,0.0,0.0,0.0,0.59841,-0.13734000000000002,9.82962
1449494935,22.22,0.0,0.0,0.0,0.60822,-0.13734000000000002,9.84924
1454545440,22.22,0.0,0.0,0.0,0.59841,-0.13734000000000002,9.819809999999999
1459595945,22.22,0.0,0.0,0.0,0.60822,-0.15696000000000002,9.751140000000001
1464646450,22.22,0.0,0.0,0.0,0.60822,-0.15696000000000002,9.760950000000001
1469696955,22.22,0.0,0.0,0.0,0.57879,-0.16677000000000003,9.81
1474747460,22.22,0.0,0.0,0.0,0.5886,-0.11772,9.84924
1479797965,22.22,0.0,0.0,0.0,0.57879,-0.14715,9.80019
1484848470,22.22,0.0,0.0,0.0,0.59841,-0.14715,9.79038
1489898975,22.22,0.0,0.0,0.0,0.5886,-0.12753,9.79038
1494949480,22.22,0.0,0.0,0.0,0.60822,-0.13734000000000002,9.83943
1499999985,22.22,0.0,0.0,0.0,0.5886,-0.15696000000000002,9.83943
1505050490,22.22,0.0,0.0,0.0,0.57879,-0.15696000000000002,9.78057
1510100995,22.22,0.0,0.0,0.0,0.57879,-0.15696000000000002,9.78057
1515151500,22.22,0.0,0.0,0.0,0.5886,-0.14715,9.79038
1520202005,22.22,0.0,0.0,0.0,0.60822,-0.15696000000000002,9.84924
1525252510,22.22,0.0,0.0,0.0,0.5886,-0.16677000000000003,9.83943
1530303015,22.22,0.0,0.0,0.0,0.5886,-0.15696000000000002,9.80019
1535353520,22.22,0.0,0.0,0.0,0.5886,-0.16677000000000003,9.760950000000001
1540404025,22.22,0.0,0.0,0.0,0.59841,-0.13734000000000002,9.78057
1545454530,22.22,0.0,0.0,0.0,0.5886,-0.16677000000000003,9.85905
1550505035,22.22,0.0,0.0,0.0,0.5591700000000001,-0.15696000000000002,9.819809999999999
1555555540,22.22,0.0,0.0,0.0,0.57879,-0.17658,9.83943
1560606045,22.22,0.0,0.0,0.0,0.57879,-0.13734000000000002,9.79038
1565656550,22.22,0.0,0.0,0.0,0.57879,-0.14715,9.819809999999999
1570707055,22.22,0.0,0.0,0.0,0.5886,-0.12753,9.819809999999999
1575757560,22.22,0.0,0.0,0.0,0.56898,-0.13734000000000002,9.81
1580808065,22.22,0.0,0.0,0.0,0.59841,-0.14715,9.80019
1585858570,22.22,0.0,0.0,0.0,0.60822,-0.13734000000000002,9.78057
1590909075,22.22,0.0,0.0,0.0,0.5886,-0.16677000000000003,9.86886
1595959580,22.22,0.0,0.0,0.0,0.57879,-0.14715,9.84924
1601010085,22.22,0.0,0.0,0.0,0.57879,-0.14715,9.819809999999999
1606060590,22.22,0.0,0.0,0.0,0.5591700000000001,-0.13734000000000002,9.78057
1611111095,22.22,0.0,0.0,0.0,0.56898,-0.14715,9.79038
1616161600,22.22,0.0,0.0,0.0,0.57879,-0.13734000000000002,9.81
1621212105,22.22,0.0,0.0,0.0,0.59841,-0.12753,9.82962
1626262610,22.22,0.0,0.0,0.0,0.5886,-0.14715,9.81
1631313115,22.22,0.0,0.0,0.0,0.57879,-0.15696000000000002,9.760950000000001
1636363620,22.22,0.0,0.0,0.0,0.57879,-0.13734000000000002,9.81
1641414125,22.22,0.0,0.0,0.0,0.60822,-0.16677000000000003,9.81
1646464630,22.22,0.0,0.0,0.0,0.59841,-0.14715,9.81
1651515135,22.22,0.0,0.0,0.0,0.59841,-0.14715,9.80019
1656565640,22.22,0.0,0.0,0.0,0.56898,-0.14715,9.78057
1661616145,22.22,0.0,0.0,0.0,0.60822,-0.15696000000000002,9.81
1666666650,22.22,0.0,0.0,0.0,0.60822,-0.15696000000000002,9.82962
1671717155,22.22,0.0,0.0,0.0,0.56898,-0.15696000000000002,9.82962
1676767660,22.22,0.0,0.0,0.0,0.57879,-0.15696000000000002,9.78057
1681818165,22.22,0.0,0.0,0.0,0.5886,-0.14715,9.78057
1686868670,22.22,0.0,0.0,0.0,0.5886,-0.12753,9.819809999999999
1691919175,22.22,0.0,0.0,0.0,0.59841,-0.14715,9.819809999999999
1696969680,22.22,0.0,0.0,0.0,0.59841,-0.16677000000000003,9.819809999999999
1702020185,22.22,0.0,0.0,0.0,0.60822,-0.14715,9.80019
1707070690,22.22,0.0,0.0,0.0,0.5886,-0.14715,9.78057
1712121195,22.22,0.0,0.0,0.0,0.5886,-0.14715,9.82962
1717171700,22.22,0.0,0.0,0.0,0.60822,-0.13734000000000002,9.83943
1722222205,22.22,0.0,0.0,0.0,0.57879,-0.13734000000000002,9.81
1727272710,22.22,0.0,0.0,0.0,0.5886,-0.14715,9.78057
1732323215,22.22,0.0,0.0,0.0,0.56898,-0.16677000000000003,9.82962
1737373720,22.22,0.0,0.0,0.0,0.59841,-0.14715,9.81
1742424225,22.22,0.0,0.0,0.0,0.5886,-0.16677000000000003,9.83943
1747474730,22.22,0.0,0.0,0.0,0.59841,-0.16677000000000003,9.78057
1752525235,22.22,0.0,0.0,0.0,0.57879,-0.15696000000000002,9.80019
1757575740,22.22,0.0,0.0,0.0,0.57879,-0.15696000000000002,9.81
1762626245,22.22,0.0,0.0,0.0,0.59841,-0.16677000000000003,9.84924
1767676750,22.22,0.0,0.0,0.0,0.5886,-0.14715,9.81
1772727255,22.22,0.0,0.0,0.0,0.5886,-0.16677000000000003,9.82962
1777777760,22.22,0.0,0.0,0.0,0.56898,-0.16677000000000003,9.819809999999999
1782828265,22.22,0.0,0.0,0.0,0.57879,-0.13734000000000002,9.79038
1787878770,22.22,0.0,0.0,0.0,0.57879,-0.17658,9.83943
1792929275,22.22,0.0,0.0,0.0,0.59841,-0.16677000000000003,9.81
1797979780,22.22,0.0,0.0,0.0,0.57879,-0.16677000000000003,9.81
1803030285,22.22,0.0,0.0,0.0,0.59841,-0.15696000000000002,9.819809999999999
1808080790,22.22,0.0,0.0,0.0,0.5886,-0.14715,9.80019
1813131295,22.22,0.0,0.0,0.0,0.5886,-0.12753,9.81
1818181800,22.22,0.0,0.0,0.0,0.60822,-0.16677000000000003,9.79038
1823232305,22.22,0.0,0.0,0.0,0.57879,-0.11772,9.79038
1828282810,22.22,0.0,0.0,0.0,0.57879,-0.15696000000000002,9.83943
1833333315,22.22,0.0,0.0,0.0,0.59841,-0.15696000000000002,9.80019
1838383820,22.22,0.0,0.0,0.0,0.59841,-0.15696000000000002,9.80019
1843434325,22.22,0.0,0.0,0.0,0.60822,-0.14715,9.79038
1848484830,22.22,0.0,0.0,0.0,0.57879,-0.13734000000000002,9.78057
1853535335,22.22,0.0,0.0,0.0,0.5886,-0.16677000000000003,9.819809999999999
1858585840,22.22,0.0,0.0,0.0,0.56898,-0.16677000000000003,9.84924
1863636345,22.22,0.0,0.0,0.0,0.59841,-0.13734000000000002,9.819809999999999
1868686850,22.22,0.0,0.0,0.0,0.5886,-0.16677000000000003,9.79038
1873737355,22.22,0.0,0.0,0.0,0.57879,-0.15696000000000002,9.770760000000001
1878787860,22.22,0.0,0.0,0.0,0.5886,-0.15696000000000002,9.82962
1883838365,22.22,0.0,0.0,0.0,0.59841,-0.14715,9.83943
1888888870,22.22,0.0,0.0,0.0,0.59841,-0.15696000000000002,9.79038
1893939375,22.22,0.0,0.0,0.0,0.56898,-0.16677000000000003,9.79038
1898989880,22.22,0.0,0.0,0.0,0.6180300000000001,-0.15696000000000002,9.79038
1904040385,22.22,0.0,0.0,0.0,0.57879,-0.14715,9.84924
1909090890,22.22,0.0,0.0,0.0,0.5493600000000001,-0.16677000000000003,9.86886
1914141395,22.22,0.0,0.0,0.0,0.56898,-0.15696000000000002,9.81
1919191900,22.22,0.0,0.0,0.0,0.57879,-0.15696000000000002,9.760950000000001
1924242405,22.22,0.0,0.0,0.0,0.60822,-0.14715,9.770760000000001
1929292910,22.22,0.0,0.0,0.0,0.5886,-0.15696000000000002,9.85905
1934343415,22.22,0.0,0.0,0.0,0.60822,-0.14715,9.86886
1939393920,22.22,0.0,0.0,0.0,0.5886,-0.17658,9.81
1944444425,22.22,0.0,0.0,0.0,0.56898,-0.14715,9.74133
1949494930,22.22,0.0,0.0,0.0,0.57879,-0.14715,9.760950000000001
1954545435,22.22,0.0,0.0,0.0,0.57879,-0.14715,9.82962
1959595940,22.22,0.0,0.0,0.0,0.59841,-0.17658,9.86886
1964646445,22.22,0.0,0.0,0.0,0.60822,-0.13734000000000002,9.80019
1969696950,22.22,0.0,0.0,0.0,0.57879,-0.13734000000000002,9.751140000000001
1974747455,22.22,0.0,0.0,0.0,0.5886,-0.15696000000000002,9.81
1979797960,22.22,0.0,0.0,0.0,0.57879,-0.15696000000000002,9.84924
1984848465,22.22,0.0,0.0,0.0,0.5886,-0.12753,9.819809999999999
1989898970,22.22,0.0,0.0,0.0,0.57879,-0.15696000000000002,9.79038
1994949475,22.22,0.0,0.0,0.0,0.59841,-0.16677000000000003,9.78057
1999999980,22.22,0.0,0.0,0.0,0.57879,-0.16677000000000003,9.81
2005050485,22.22,0.0,0.0,0.0,0.5886,-0.15696000000000002,9.84924
2010100990,22.22,0.0,0.0,0.0,0.60822,-0.15696000000000002,9.85905
2015151495,22.22,0.0,0.0,0.0,0.5886,-0.13734000000000002,9.78057
2020202000,22.22,0.0,0.0,0.0,0.57879,-0.14715,9.760950000000001
2025252505,22.22,0.0,0.0,0.0,0.57879,-0.15696000000000002,9.79038
2030303010,22.22,0.0,0.0,0.0,0.59841,-0.13734000000000002,9.83943
2035353515,22.22,0.0,0.0,0.0,0.57879,-0.18639,9.83943
2040404020,22.22,0.0,0.0,0.0,0.59841,-0.14715,9.81
2045454525,22.22,0.0,0.0,0.0,0.5886,-0.16677000000000003,9.751140000000001
2050505030,22.22,0.0,0.0,0.0,0.56898,-0.16677000000000003,9.80019
2055555535,22.22,0.0,0.0,0.0,0.57879,-0.15696000000000002,9.82962
2060606040,22.22,0.0,0.0,0.0,0.57879,-0.13734000000000002,9.85905
2065656545,22.22,0.0,0.0,0.0,0.59841,-0.14715,9.81
2070707050,22.22,0.0,0.0,0.0,0.56898,-0.15696000000000002,9.79038
2075757555,22.22,0.0,0.0,0.0,0.5886,-0.18639,9.81
2080808060,22.22,0.0,0.0,0.0,0.57879,-0.17658,9.81
2085858565,22.22,0.0,0.0,0.0,0.59841,-0.15696000000000002,9.81
2090909070,22.22,0.0,0.0,0.0,0.57879,-0.15696000000000002,9.80019
2095959575,22.22,0.0,0.0,0.0,0.5886,-0.14715,9.819809999999999
2101010080,22.22,0.0,0.0,0.0,0.59841,-0.15696000000000002,9.83943
2106060585,22.22,0.0,0.0,0.0,0.57879,-0.15696000000000002,9.79038
2111111090,22.22,0.0,0.0,0.0,0.56898,-0.16677000000000003,9.79038
2116161595,22.22,0.0,0.0,0.0,0.5886,-0.13734000000000002,9.80019
2121212100,22.22,0.0,0.0,0.0,0.60822,-0.11772,9.819809999999999
2126262605,22.22,0.0,0.0,0.0,0.5591700000000001,-0.15696000000000002,9.819809999999999
2131313110,22.22,0.0,0.0,0.0,0.59841,-0.13734000000000002,9.819809999999999
2136363615,22.22,0.0,0.0,0.0,0.59841,-0.15696000000000002,9.80019
2141414120,22.22,0.0,0.0,0.0,0.57879,-0.16677000000000003,9.81
2146464625,22.22,0.0,0.0,0.0,0.5886,-0.18639,9.819809999999999
2151515130,22.22,0.0,0.0,0.0,0.59841,-0.15696000000000002,9.81
2156565635,22.22,0.0,0.0,0.0,0.59841,-0.13734000000000002,9.81
2161616140,22.22,0.0,0.0,0.0,0.5886,-0.15696000000000002,9.79038
2166666645,22.22,0.0,0.0,0.0,0.5886,-0.14715,9.819809999999999
2171717150,22.22,0.0,0.0,0.0,0.60822,-0.14715,9.82962
2176767655,22.22,0.0,0.0,0.0,0.57879,-0.14715,9.82962
2181818160,22.22,0.0,0.0,0.0,0.57879,-0.13734000000000002,9.81
2186868665,22.22,0.0,0.0,0.0,0.60822,-0.17658,9.81
2191919170,22.22,0.0,0.0,0.0,0.5886,-0.15696000000000002,9.80019
2196969675,22.22,0.0,0.0,0.0,0.5886,-0.14715,9.819809999999999
2202020180,22.22,0.0,0.0,0.0,0.60822,-0.14715,9.82962
2207070685,22.22,0.0,0.0,0.0,0.57879,-0.12753,9.79038
2212121190,22.22,0.0,0.0,0.0,0.60822,-0.14715,9.80019
2217171695,22.22,0.0,0.0,0.0,0.57879,-0.14715,9.819809999999999
2222222200,22.22,0.0,0.0,0.0,0.59841,-0.12753,9.81
2227272705,22.22,0.0,0.0,0.0,0.5886,-0.16677000000000003,9.819809999999999
2232323210,22.22,0.0,0.0,0.0,0.60822,-0.17658,9.81
2237373715,22.22,0.0,0.0,0.0,0.59841,-0.15696000000000002,9.82962
2242424220,22.22,0.0,0.0,0.0,0.57879,-0.13734000000000002,9.82962
2247474725,22.22,0.0,0.0,0.0,0.59841,-0.16677000000000003,9.81
2252525230,22.22,0.0,0.0,0.0,0.56898,-0.14715,9.82962
2257575735,22.22,0.0,0.0,0.0,0.56898,-0.12753,9.83943
2262626240,22.22,0.0,0.0,0.0,0.59841,-0.15696000000000002,9.819809999999999
2267676745,22.22,0.0,0.0,0.0,0.56898,-0.14715,9.82962
2272727250,22.22,0.0,0.0,0.0,0.59841,-0.14715,9.81
2277777755,22.22,0.0,0.0,0.0,0.5886,-0.14715,9.770760000000001
2282828260,22.22,0.0,0.0,0.0,0.59841,-0.14715,9.819809999999999
2287878765,22.22,0.0,0.0,0.0,0.6180300000000001,-0.15696000000000002,9.84924
2292929270,22.22,0.0,0.0,0.0,0.59841,-0.14715,9.82962
2297979775,22.22,0.0,0.0,0.0,0.59841,-0.13734000000000002,9.80019
2303030280,22.22,0.0,0.0,0.0,0.60822,-0.14715,9.81
2308080785,22.22,0.0,0.0,0.0,0.57879,-0.16677000000000003,9.81
2313131290,22.22,0.0,0.0,0.0,0.5886,-0.16677000000000003,9.83943
2318181795,22.22,0.0,0.0,0.0,0.5886,-0.15696000000000002,9.79038
2323232300,22.22,0.0,0.0,0.0,0.57879,-0.16677000000000003,9.819809999999999
2328282805,22.22,0.0,0.0,0.0,0.5886,-0.11772,9.81
2333333310,22.22,0.0,0.0,0.0,0.5886,-0.15696000000000002,9.819809999999999
2338383815,22.22,0.0,0.0,0.0,0.56898,-0.13734000000000002,9.819809999999999
2343434320,22.22,0.0,0.0,0.0,0.60822,-0.15696000000000002,9.83943
2348484825,22.22,0.0,0.0,0.0,0.5886,-0.15696000000000002,9.770760000000001
2353535330,22.22,0.0,0.0,0.0,0.5886,-0.13734000000000002,9.81
2358585835,22.22,0.0,0.0,0.0,0.59841,-0.16677000000000003,9.819809999999999
2363636340,22.22,0.0,0.0,0.0,0.59841,-0.12753,9.83943
2368686845,22.22,0.0,0.0,0.0,0.5591700000000001,-0.17658,9.81
2373737350,22.22,0.0,0.0,0.0,0.5886,-0.13734000000000002,9.760950000000001
2378787855,22.22,0.0,0.0,0.0,0.59841,-0.15696000000000002,9.760950000000001
2383838360,22.22,0.0,0.0,0.0,0.5886,-0.13734000000000002,9.81
2388888865,22.22,0.0,0.0,0.0,0.5886,-0.13734000000000002,9.82962
2393939370,22.22,0.0,0.0,0.0,0.57879,-0.13734000000000002,9.819809999999999
2398989875,22.22,0.0,0.0,0.0,0.59841,-0.15696000000000002,9.79038
2404040380,22.22,0.0,0.0,0.0,0.57879,-0.14715,9.79038
2409090885,22.22,0.0,0.0,0.0,0.57879,-0.17658,9.82962
2414141390,22.22,0.0,0.0,0.0,0.56898,-0.13734000000000002,9.819809999999999
2419191895,22.22,0.0,0.0,0.0,0.5493600000000001,-0.14715,9.819809999999999
2424242400,22.22,0.0,0.0,0.0,0.56898,-0.14715,9.770760000000001
2429292905,22.22,0.0,0.0,0.0,0.60822,-0.16677000000000003,9.79038
2434343410,22.22,0.0,0.0,0.0,0.59841,-0.14715,9.83943
2439393915,22.22,0.0,0.0,0.0,0.5886,-0.15696000000000002,9.82962
2444444420,22.22,0.0,0.0,0.0,0.57879,-0.16677000000000003,9.819809999999999
2449494925,22.22,0.0,0.0,0.0,0.57879,-0.14715,9.80019
2454545430,22.22,0.0,0.0,0.0,0.57879,-0.15696000000000002,9.79038
2459595935,22.22,0.0,0.0,0.0,0.59841,-0.13734000000000002,9.82962
2464646440,22.22,0.0,0.0,0.0,0.5493600000000001,-0.15696000000000002,9.819809999999999
2469696945,22.22,0.0,0.0,0.0,0.5886,-0.15696000000000002,9.81
2474747450,22.22,0.0,0.0,0.0,0.57879,-0.14715,9.81
2479797955,22.22,0.0,0.0,0.0,0.59841,-0.16677000000000003,9.819809999999999
2484848460,22.22,0.0,0.0,0.0,0.60822,-0.12753,9.819809999999999
2489898965,22.22,0.0,0.0,0.0,0.5886,-0.14715,9.80019
2494949470,22.22,0.0,0.0,0.0,0.56898,-0.14715,9.80019
2499999975,22.22,0.0,0.0,0.0,0.5886,-0.15696000000000002,9.82962
2505050480,22.22,0.0,0.0,0.0,0.56898,-0.16677000000000003,9.819809999999999
2510100985,22.22,0.0,0.0,0.0,0.56898,-0.14715,9.81
2515151490,22.22,0.0,0.0,0.0,0.59841,-0.16677000000000003,9.819809999999999
2520201995,22.22,0.0,0.0,0.0,0.59841,-0.11772,9.79038
2525252500,22.22,0.0,0.0,0.0,0.60822,-0.13734000000000002,9.81
2530303005,22.22,0.0,0.0,0.0,0.57879,-0.15696000000000002,9.819809999999999
2535353510,22.22,0.0,0.0,0.0,0.5886,-0.16677000000000003,9.82962
2540404015,22.22,0.0,0.0,0.0,0.59841,-0.15696000000000002,9.80019
2545454520,22.22,0.0,0.0,0.0,0.59841,-0.14715,9.79038
2550505025,22.22,0.0,0.0,0.0,0.5886,-0.13734000000000002,9.81
2555555530,22.22,0.0,0.0,0.0,0.57879,-0.13734000000000002,9.83943
2560606035,22.22,0.0,0.0,0.0,0.5886,-0.14715,9.82962
2565656540,22.22,0.0,0.0,0.0,0.5886,-0.14715,9.80019
2570707045,22.22,0.0,0.0,0.0,0.56898,-0.16677000000000003,9.80019
2575757550,22.22,0.0,0.0,0.0,0.5886,-0.13734000000000002,9.81
2580808055,22.22,0.0,0.0,0.0,0.56898,-0.16677000000000003,9.819809999999999
2585858560,22.22,0.0,0.0,0.0,0.59841,-0.12753,9.819809999999999
2590909065,22.22,0.0,0.0,0.0,0.59841,-0.15696000000000002,9.79038
2595959570,22.22,0.0,0.0,0.0,0.60822,-0.15696000000000002,9.751140000000001
2601010075,22.22,0.0,0.0,0.0,0.57879,-0.13734000000000002,9.81
2606060580,22.22,0.0,0.0,0.0,0.57879,-0.15696000000000002,9.82962
2611111085,22.22,0.0,0.0,0.0,0.60822,-0.17658,9.83943
2616161590,22.22,0.0,0.0,0.0,0.5886,-0.14715,9.81
2621212095,22.22,0.0,0.0,0.0,0.57879,-0.14715,9.79038
2626262600,22.22,0.0,0.0,0.0,0.5886,-0.13734000000000002,9.78057
2631313105,22.22,0.0,0.0,0.0,0.5886,-0.14715,9.819809999999999
2636363610,22.22,0.0,0.0,0.0,0.59841,-0.16677000000000003,9.819809999999999
2641414115,22.22,0.0,0.0,0.0,0.59841,-0.15696000000000002,9.81
2646464620,22.22,0.0,0.0,0.0,0.59841,-0.14715,9.79038
2651515125,22.22,0.0,0.0,0.0,0.57879,-0.17658,9.80019
2656565630,22.22,0.0,0.0,0.0,0.5886,-0.15696000000000002,9.82962
2661616135,22.22,0.0,0.0,0.0,0.56898,-0.13734000000000002,9.82962
2666666640,22.22,0.0,0.0,0.0,0.5591700000000001,-0.16677000000000003,9.81
2671717145,22.22,0.0,0.0,0.0,0.6180300000000001,-0.17658,9.81
2676767650,22.22,0.0,0.0,0.0,0.56898,-0.15696000000000002,9.81
2681818155,22.22,0.0,0.0,0.0,0.60822,-0.15696000000000002,9.819809999999999
2686868660,22.22,0.0,0.0,0.0,0.60822,-0.14715,9.81
2691919165,22.22,0.0,0.0,0.0,0.60822,-0.15696000000000002,9.79038
2696969670,22.22,0.0,0.0,0.0,0.59841,-0.14715,9.80019
2702020175,22.22,0.0,0.0,0.0,0.5886,-0.16677000000000003,9.81
2707070680,22.22,0.0,0.0,0.0,0.59841,-0.14715,9.81
2712121185,22.22,0.0,0.0,0.0,0.57879,-0.16677000000000003,9.770760000000001
2717171690,22.22,0.0,0.0,0.0,0.57879,-0.16677000000000003,9.80019
2722222195,22.22,0.0,0.0,0.0,0.57879,-0.14715,9.80019
2727272700,22.22,0.0,0.0,0.0,0.57879,-0.14715,9.819809999999999
2732323205,22.22,0.0,0.0,0.0,0.5886,-0.15696000000000002,9.82962
2737373710,22.22,0.0,0.0,0.0,0.57879,-0.15696000000000002,9.78057
2742424215,22.22,0.0,0.0,0.0,0.5886,-0.14715,9.79038
2747474720,22.22,0.0,0.0,0.0,0.59841,-0.15696000000000002,9.83943
2752525225,22.22,0.0,0.0,0.0,0.59841,-0.16677000000000003,9.82962
2757575730,22.22,0.0,0.0,0.0,0.59841,-0.13734000000000002,9.79038
2762626235,22.22,0.0,0.0,0.0,0.60822,-0.14715,9.79038
2767676740,22.22,0.0,0.0,0.0,0.59841,-0.15696000000000002,9.819809999999999
2772727245,22.22,0.0,0.0,0.0,0.5886,-0.16677000000000003,9.85905
2777777750,22.22,0.0,0.0,0.0,0.56898,-0.15696000000000002,9.819809999999999
2782828255,22.22,0.0,0.0,0.0,0.59841,-0.14715,9.79038
2787878760,22.22,0.0,0.0,0.0,0.57879,-0.14715,9.78057
2792929265,22.22,0.0,0.0,0.0,0.5591700000000001,-0.13734000000000002,9.81
2797979770,22.22,0.0,0.0,0.0,0.5886,-0.15696000000000002,9.819809999999999
2803030275,22.22,0.0,0.0,0.0,0.59841,-0.15696000000000002,9.82962
2808080780,22.22,0.0,0.0,0.0,0.59841,-0.17658,9.80019
2813131285,22.22,0.0,0.0,0.0,0.5886,-0.14715,9.80019
2818181790,22.22,0.0,0.0,0.0,0.59841,-0.16677000000000003,9.78057
2823232295,22.22,0.0,0.0,0.0,0.6180300000000001,-0.16677000000000003,9.85905
2828282800,22.22,0.0,0.0,0.0,0.59841,-0.14715,9.819809999999999
2833333305,22.22,0.0,0.0,0.0,0.57879,-0.14715,9.80019
2838383810,22.22,0.0,0.0,0.0,0.57879,-0.14715,9.78057
2843434315,22.22,0.0,0.0,0.0,0.56898,-0.15696000000000002,9.82962
2848484820,22.22,0.0,0.0,0.0,0.5886,-0.15696000000000002,9.819809999999999
2853535325,22.22,0.0,0.0,0.0,0.56898,-0.17658,9.79038
2858585830,22.22,0.0,0.0,0.0,0.56898,-0.11772,9.80019
2863636335,22.22,0.0,0.0,0.0,0.5886,-0.14715,9.79038
2868686840,22.22,0.0,0.0,0.0,0.60822,-0.14715,9.81
2873737345,22.22,0.0,0.0,0.0,0.60822,-0.14715,9.84924
2878787850,22.22,0.0,0.0,0.0,0.60822,-0.13734000000000002,9.81
2883838355,22.22,0.0,0.0,0.0,0.60822,-0.13734000000000002,9.80019
2888888860,22.22,0.0,0.0,0.0,0.60822,-0.14715,9.79038
2893939365,22.22,0.0,0.0,0.0,0.5886,-0.12753,9.81
2898989870,22.22,0.0,0.0,0.0,0.59841,-0.14715,9.84924
2904040375,22.22,0.0,0.0,0.0,0.57879,-0.13734000000000002,9.81
2909090880,22.22,0.0,0.0,0.0,0.60822,-0.11772,9.79038
2914141385,22.22,0.0,0.0,0.0,0.5886,-0.14715,9.81
2919191890,22.22,0.0,0.0,0.0,0.5886,-0.17658,9.80019
2924242395,22.22,0.0,0.0,0.0,0.59841,-0.13734000000000002,9.82962
2929292900,22.22,0.0,0.0,0.0,0.5886,-0.18639,9.79038
2934343405,22.22,0.0,0.0,0.0,0.5493600000000001,-0.0981,9.81
2939393910,22.22,0.003193952531149623,0.05113814708343386,0.0,0.60822,-0.16677000000000003,9.751140000000001
2944444415,22.22,-0.001064650843716541,0.07456046564519776,0.0,0.2943,0.009810000000000001,9.98658
2949494920,22.22,-0.006387905062299246,0.1374272253020335,0.015987215948268057,0.20601000000000003,-0.11772,9.6138
2954545425,22.22,0.002129301687433082,0.12037535851004891,0.0,0.11772,-0.019620000000000002,9.084060000000001
2959595930,22.22,-0.021310470166850764,0.0852244273748831,0.002129301687433082,0.23544,-0.05886,9.98658
2964646435,22.22,-0.014905111812031574,0.07670722062515077,0.008517206749732328,0.17658,0.0,10.31031
2969696940,22.22,-0.03728023282259888,-0.02556907354171693,0.0,0.24525000000000002,-0.16677000000000003,10.32993
2974747445,22.22,-0.024504422698000388,-0.06923721142661506,-0.002129301687433082,0.26487,-0.2943,9.760950000000001
2979797950,22.22,-0.03728023282259888,-0.177901410655782,-0.015987215948268057,0.31392000000000003,-0.44145,9.4176
2984848455,22.22,-0.024504422698000388,-0.19493582415524666,-0.004258603374866164,0.5395500000000001,-0.49050000000000005,9.36855
2989898960,22.22,-0.008517206749732328,-0.2236988502281132,-0.006387905062299246,0.70632,-0.46107000000000004,10.06506
2994949465,22.22,0.013840460968315033,-0.19280652246781357,-0.005323254218582705,0.94176,-0.46107000000000004,10.535940000000002
2999999970,22.22,0.02769837522915001,-0.12676326357234816,-0.002129301687433082,1.02024,-0.33354000000000006,10.19259
3005050475,22.22,0.04794419455228423,-0.08415977653116657,-0.003193952531149623,0.9711900000000001,-0.32373,9.39798
3010100980,22.22,0.07136651311404815,-0.00958185759344887,0.004258603374866164,0.9221400000000001,-0.15696000000000002,9.182160000000001
3015151485,22.22,0.0756251164889143,0.005323254218582705,-0.002129301687433082,0.8240400000000001,0.039240000000000004,9.38817
3020201990,22.22,0.07883652231258387,0.03515093113516579,0.007452555906015787,0.9123300000000001,0.14715,10.05525
3025252495,22.22,0.05113814708343386,0.012775810124598492,0.003193952531149623,0.84366,0.18639,10.212209999999999
3030303000,22.22,0.024504422698000388,-0.007452555906015787,0.001064650843716541,0.90252,0.18639,10.22202
3035353505,22.22,0.0,0.001064650843716541,-0.005323254218582705,0.8142300000000001,0.13734000000000002,9.65304
3040404010,22.22,-0.005323254218582705,-0.022375121010567305,-0.001064650843716541,0.86328,0.04905,9.24102
3045454515,22.22,-0.011711159280881954,0.03408628029144926,0.003193952531149623,0.9123300000000001,0.0,9.55494
3050505020,22.22,-0.03089232776029963,0.05646140130201656,-0.001064650843716541,0.8829,-0.039240000000000004,9.85905
3055555525,22.22,-0.04153883619746504,0.11505210429146619,0.005323254218582705,0.8338500000000001,-0.019620000000000002,9.89829
3060606030,22.22,-0.05220279792715039,0.15765559133264778,0.003193952531149623,0.60822,-0.15696000000000002,9.81
3065656535,22.22,-0.05646140130201656,0.15872024217636432,0.005323254218582705,0.49050000000000005,-0.13734000000000002,9.69228
3070707040,22.22,-0.060720004676882725,0.16510814723866357,0.008517206749732328,0.46107000000000004,-0.23544,9.72171
3075757545,22.22,-0.05220279792715039,0.12463396188491506,-0.001064650843716541,0.32373,-0.21582,9.98658
3080808050,22.22,-0.05007349623971732,0.13208651779093086,0.008517206749732328,0.24525000000000002,-0.34335000000000004,10.08468
3085858555,22.22,-0.033021629447732716,0.12037535851004891,0.0,0.11772,-0.36297,9.770760000000001
3090909060,22.22,-0.03728023282259888,0.08841837990603273,0.0,0.14715,-0.41202000000000005,9.770760000000001
3095959565,22.22,-0.014905111812031574,0.10119419003063122,0.006387905062299246,0.039240000000000004,-0.35316,9.74133
3101010070,22.22,-0.003193952531149623,0.02769837522915001,0.001064650843716541,0.009810000000000001,-0.38259000000000004,9.92772
3106060575,22.22,0.014905111812031574,0.023439771854283843,0.00958185759344887,0.02943,-0.31392000000000003,9.97677
3111111080,22.22,0.02556907354171693,-0.05539675045830002,-0.008517206749732328,0.039240000000000004,-0.27468000000000004,9.97677
3116161585,22.22,0.023439771854283843,-0.10119419003063122,0.0,0.17658,-0.24525000000000002,9.85905
3121212090,22.22,0.03515093113516579,-0.13955652698946658,-0.005323254218582705,0.24525000000000002,-0.21582,9.7119
3126262595,22.22,0.03834488366631542,-0.18641861740551433,-0.008517206749732328,0.40221,-0.20601000000000003,9.86886
3131313100,22.22,0.03834488366631542,-0.1757721089683489,0.0,0.5395500000000001,-0.15696000000000002,9.89829
3136363605,22.22,0.03621558197888234,-0.19387117331153014,-0.002129301687433082,0.63765,-0.17658,9.72171
3141414110,22.22,0.03515093113516579,-0.16191419470751395,0.0,0.8240400000000001,-0.10791,9.81
3146464615,22.22,0.04260348704118158,-0.15446163880149816,-0.006387905062299246,0.80442,-0.0981,9.623610000000001
3151515120,22.22,0.046879543708567686,-0.1278279144160647,-0.001064650843716541,0.94176,-0.04905,9.80019
3156565625,22.22,0.044732788728614664,-0.09161233243718235,-0.001064650843716541,0.9613800000000001,-0.009810000000000001,9.751140000000001
3161616130,22.22,0.031956978604016174,-0.06817256058289851,-0.002129301687433082,1.03005,0.0,9.751140000000001
3166666635,22.22,0.014905111812031574,-0.003193952531149623,-0.001064650843716541,1.0791000000000002,0.039240000000000004,9.84924
3171717140,22.22,0.01064650843716541,0.02769837522915001,0.0,1.01043,0.05886,9.55494
3176767645,22.22,0.004258603374866164,0.07349581480148122,0.007452555906015787,0.95157,0.05886,9.64323
3181818150,22.22,-0.01064650843716541,0.09374163412461543,0.001064650843716541,0.86328,0.07848000000000001,9.74133
3186868655,22.22,-0.01918116847941768,0.10438814256178083,0.005323254218582705,0.8142300000000001,0.05886,9.92772
3191919160,22.22,-0.03728023282259888,0.11931070766633237,0.003193952531149623,0.74556,0.0,9.94734
3196969665,22.22,-0.05007349623971732,0.11398745344774965,0.0,0.6278400000000001,-0.10791,9.908100000000001
3202020170,22.22,-0.06284930636431581,0.10332349171806432,0.002129301687433082,0.5591700000000001,-0.21582,9.72171
3207070675,22.22,-0.06178465552059926,0.09587093581204853,0.003193952531149623,0.49050000000000005,-0.28449,9.623610000000001
3212121180,22.22,-0.05539675045830002,0.06817256058289851,0.0,0.46107000000000004,-0.35316,9.91791
3217171685,22.22,-0.04366813788489812,0.060720004676882725,0.003193952531149623,0.47088,-0.3924,9.97677
3222222190,22.22,-0.03089232776029963,0.03834488366631542,0.0,0.41202000000000005,-0.42183,9.86886
3227272695,22.22,-0.0170518667919846,0.013840460968315033,0.0,0.42183,-0.43164,9.79038
3232323200,22.22,0.004258603374866164,0.005323254218582705,0.001064650843716541,0.41202000000000005,-0.37278,9.760950000000001
3237373705,22.22,0.01918116847941768,-0.021310470166850764,-0.002129301687433082,0.40221,-0.28449,9.908100000000001
3242424210,22.22,0.03408628029144926,-0.01918116847941768,0.001064650843716541,0.49050000000000005,-0.25506,9.937529999999999
3247474715,22.22,0.03728023282259888,-0.02663372438543347,-0.004258603374866164,0.42183,-0.16677000000000003,9.86886
3252525220,22.22,0.039409534510031964,-0.013840460968315033,-0.001064650843716541,0.48069000000000006,-0.0981,9.53532
3257575725,22.22,0.04794419455228423,0.001064650843716541,0.0,0.48069000000000006,0.0,9.58437
3262626230,22.22,0.0404741853537485,0.01064650843716541,0.005323254218582705,0.46107000000000004,0.04905,9.91791
3267676735,22.22,0.03408628029144926,0.02982767691658309,0.002129301687433082,0.41202000000000005,0.10791,9.99639
3272727240,22.22,0.008517206749732328,0.03089232776029963,0.001064650843716541,0.38259000000000004,0.0981,9.98658
3277777745,22.22,-0.002129301687433082,0.03089232776029963,0.002129301687433082,0.33354000000000006,0.05886,9.67266
3282828250,22.22,-0.014905111812031574,0.007452555906015787,0.0,0.2943,0.02943,9.50589
3287878755,22.22,-0.023439771854283843,-0.0170518667919846,0.0,0.32373,-0.05886,9.751140000000001
3292929260,22.22,-0.03728023282259888,-0.05007349623971732,0.002129301687433082,0.40221,-0.16677000000000003,10.03563
3297979765,22.22,-0.044732788728614664,-0.07670722062515077,-0.002129301687433082,0.51012,-0.28449,10.143540000000002
3303030270,22.22,-0.039409534510031964,-0.09693558665576507,-0.006387905062299246,0.56898,-0.37278,9.85905
3308080775,22.22,-0.02769837522915001,-0.11292280260403312,-0.005323254218582705,0.65727,-0.41202000000000005,9.58437
3313131280,22.22,-0.005323254218582705,-0.11185815176031658,-0.001064650843716541,0.75537,-0.43164,9.633420000000001
3318181785,22.22,0.005323254218582705,-0.1097288500728835,-0.004258603374866164,0.87309,-0.42183,10.006200000000002
3323232290,22.22,0.022375121010567305,-0.08735372906231618,-0.002129301687433082,0.95157,-0.36297,10.03563
3328282795,22.22,0.04153883619746504,-0.060720004676882725,-0.003193952531149623,0.9711900000000001,-0.30411,9.87867
3333333300,22.22,0.04794419455228423,-0.031956978604016174,0.0,0.9319500000000001,-0.20601000000000003,9.6138
3338383805,22.22,0.05752605214573309,0.003193952531149623,0.001064650843716541,0.90252,-0.06867000000000001,9.47646
3343434310,22.22,0.05646140130201656,0.039409534510031964,0.002129301687433082,0.89271,0.08829,9.80019
3348484815,22.22,0.05007349623971732,0.08415977653116657,0.004258603374866164,0.8142300000000001,0.14715,10.01601
3353535320,22.22,0.03089232776029963,0.11505210429146619,0.005323254218582705,0.69651,0.20601000000000003,9.95715
3358585825,22.22,0.007452555906015787,0.13955652698946658,0.006387905062299246,0.5493600000000001,0.20601000000000003,9.69228
3363636330,22.22,-0.011711159280881954,0.14700908289548237,0.004258603374866164,0.40221,0.18639,9.48627
3368686835,22.22,-0.03089232776029963,0.1352804703220805,0.007452555906015787,0.31392000000000003,0.14715,9.67266
3373737340,22.22,-0.05539675045830002,0.10545279340549739,0.005323254218582705,0.28449,0.009810000000000001,9.94734
3378787845,22.22,-0.07243116395776468,0.06391395720803235,0.0,0.21582,-0.0981,10.08468
3383838350,22.22,-0.07990117315630041,0.01918116847941768,-0.003193952531149623,0.26487,-0.27468000000000004,9.937529999999999
3388888855,22.22,-0.07456046564519776,-0.0170518667919846,-0.002129301687433082,0.27468000000000004,-0.41202000000000005,9.66285
3393939360,22.22,-0.05646140130201656,-0.046879543708567686,-0.001064650843716541,0.37278,-0.5395500000000001,9.7119
3398989865,22.22,-0.0404741853537485,-0.0756251164889143,-0.001064650843716541,0.46107000000000004,-0.5886,9.84924
3404040370,22.22,-0.014905111812031574,-0.08415977653116657,-0.004258603374866164,0.57879,-0.60822,10.01601
3409090875,22.22,0.006387905062299246,-0.08948303074974927,-0.002129301687433082,0.6278400000000001,-0.5395500000000001,9.937529999999999
3414141380,22.22,0.039409534510031964,-0.08309512568745003,0.0,0.6670800000000001,-0.41202000000000005,9.72171
3419191885,22.22,0.06391395720803235,-0.06391395720803235,-0.001064650843716541,0.70632,-0.31392000000000003,9.68247
3424242390,22.22,0.06923721142661506,-0.04366813788489812,0.0,0.74556,-0.15696000000000002,9.770760000000001
3429292895,22.22,0.0756251164889143,-0.008517206749732328,0.003193952531149623,0.72594,0.0,9.94734
3434343400,22.22,0.06817256058289851,0.020245819323134222,0.001064650843716541,0.6867000000000001,0.08829,9.888480000000001
3439393905,22.22,0.06178465552059926,0.049008845396000776,0.003193952531149623,0.60822,0.21582,9.78057
3444444410,22.22,0.039409534510031964,0.06604325889546543,0.008517206749732328,0.49050000000000005,0.22563,9.64323
3449494915,22.22,0.014905111812031574,0.054332099614583476,0.003193952531149623,0.45126,0.24525000000000002,9.70209
3454545420,22.22,-0.01064650843716541,0.03515093113516579,0.0,0.42183,0.1962,9.888480000000001
3459595925,22.22,-0.031956978604016174,0.006387905062299246,-0.001064650843716541,0.43164,0.07848000000000001,9.91791
3464646430,22.22,-0.054332099614583476,-0.013840460968315033,-0.002129301687433082,0.47088,-0.06867000000000001,9.85905
3469696935,22.22,-0.06710790973918197,-0.04260348704118158,-0.001064650843716541,0.51012,-0.20601000000000003,9.751140000000001
3474747440,22.22,-0.06604325889546543,-0.06604325889546543,-0.001064650843716541,0.56898,-0.37278,9.751140000000001
3479797945,22.22,-0.05965535383316618,-0.07777187146886733,-0.002129301687433082,0.65727,-0.47088,9.82962
3484848450,22.22,-0.04153883619746504,-0.08415977653116657,-0.001064650843716541,0.7749900000000001,-0.52974,9.92772
3489898955,22.22,-0.021310470166850764,-0.07670722062515077,-0.003193952531149623,0.8240400000000001,-0.52974,9.888480000000001
3494949460,22.22,0.004258603374866164,-0.06178465552059926,0.0,0.87309,-0.48069000000000006,9.7119
3499999965,22.22,0.03089232776029963,-0.031956978604016174,-0.001064650843716541,0.90252,-0.3924,9.69228
3505050470,22.22,0.05007349623971732,0.0,0.0,0.8829,-0.27468000000000004,9.81
3510100975,22.22,0.05965535383316618,0.04260348704118158,0.002129301687433082,0.85347,-0.12753,9.83943
3515151480,22.22,0.06178465552059926,0.08415977653116657,0.003193952531149623,0.75537,0.019620000000000002,9.819809999999999
3520201985,22.22,0.05539675045830002,0.11824605682261582,0.005323254218582705,0.6180300000000001,0.14715,9.760950000000001
3525252490,22.22,0.044732788728614664,0.1352804703220805,0.007452555906015787,0.48069000000000006,0.22563,9.72171
3530302995,22.22,0.023439771854283843,0.11931070766633237,0.006387905062299246,0.40221,0.24525000000000002,9.83943
3535353500,22.22,-0.002129301687433082,0.09906488834319814,0.003193952531149623,0.32373,0.22563,9.91791
3540404005,22.22,-0.028763026072866547,0.06604325889546543,0.0,0.25506,0.10791,9.92772
3545454510,22.22,-0.05113814708343386,0.02982767691658309,-0.002129301687433082,0.25506,-0.009810000000000001,9.78057
3550505015,22.22,-0.06391395720803235,-0.006387905062299246,-0.003193952531149623,0.25506,-0.18639,9.68247
3555555520,22.22,-0.06817256058289851,-0.04366813788489812,0.0,0.32373,-0.31392000000000003,9.78057
3560606025,22.22,-0.06710790973918197,-0.06710790973918197,-0.002129301687433082,0.42183,-0.42183,9.937529999999999
3565656530,22.22,-0.049008845396000776,-0.08096582400001695,0.0,0.50031,-0.52974,10.006200000000002
3570707035,22.22,-0.02556907354171693,-0.08628907821859966,-0.001064650843716541,0.57879,-0.5493600000000001,9.89829
3575757540,22.22,-0.003193952531149623,-0.07990117315630041,-0.002129301687433082,0.6670800000000001,-0.51993,9.73152
3580808045,22.22,0.01811651763570114,-0.06497860805174888,-0.002129301687433082,0.72594,-0.46107000000000004,9.65304
3585858550,22.22,0.03408628029144926,-0.04260348704118158,-0.002129301687433082,0.74556,-0.33354000000000006,9.79038
3590909055,22.22,0.05752605214573309,-0.004258603374866164,0.001064650843716541,0.74556,-0.21582,9.937529999999999
3595959560,22.22,0.06497860805174888,0.02556907354171693,0.003193952531149623,0.70632,-0.07848000000000001,9.83943
3601010065,22.22,0.06497860805174888,0.05220279792715039,0.004258603374866164,0.6180300000000001,0.08829,9.67266
3606060570,22.22,0.05859070298944965,0.060720004676882725,0.005323254218582705,0.5395500000000001,0.17658,9.74133
3611111075,22.22,0.044732788728614664,0.06178465552059926,0.003193952531149623,0.47088,0.20601000000000003,9.819809999999999
3616161580,22.22,0.023439771854283843,0.05113814708343386,0.002129301687433082,0.44145,0.21582,9.937529999999999
3621212085,22.22,-0.004258603374866164,0.031956978604016174,0.001064650843716541,0.40221,0.14715,9.83943
3626262590,22.22,-0.03089232776029963,0.002129301687433082,0.0,0.38259000000000004,0.06867000000000001,9.69228
3631313095,22.22,-0.04794419455228423,-0.023439771854283843,-0.001064650843716541,0.43164,-0.04905,9.65304
3636363600,22.22,-0.05539675045830002,-0.04794419455228423,-0.003193952531149623,0.48069000000000006,-0.1962,9.83943
3641414105,22.22,-0.05539675045830002,-0.06284930636431581,-0.001064650843716541,0.59841,-0.30411,10.006200000000002
3646464610,22.22,-0.04794419455228423,-0.07030186227033158,-0.001064650843716541,0.64746,-0.3924,9.95715
3651515115,22.22,-0.03621558197888234,-0.07777187146886733,-0.001064650843716541,0.71613,-0.48069000000000006,9.751140000000001
3656565620,22.22,-0.01811651763570114,-0.0756251164889143,0.0,0.7749900000000001,-0.51012,9.69228
3661616125,22.22,0.002129301687433082,-0.06604325889546543,0.0,0.8240400000000001,-0.46107000000000004,9.770760000000001
3666666630,22.22,0.022375121010567305,-0.04153883619746504,-0.002129301687433082,0.89271,-0.35316,9.85905
3671717135,22.22,0.039409534510031964,-0.005323254218582705,-0.001064650843716541,0.89271,-0.26487,9.83943
3676767640,22.22,0.05220279792715039,0.03089232776029963,0.003193952531149623,0.8240400000000001,-0.14715,9.760950000000001
3681818145,22.22,0.05859070298944965,0.06284930636431581,0.003193952531149623,0.75537,-0.019620000000000002,9.64323
3686868650,22.22,0.05326744877086694,0.08203047484373349,0.005323254218582705,0.65727,0.0981,9.78057
3691919155,22.22,0.039409534510031964,0.09267698328089889,0.005323254218582705,0.59841,0.16677000000000003,9.91791
3696969660,22.22,0.020245819323134222,0.08735372906231618,0.005323254218582705,0.47088,0.17658,9.92772
3702020165,22.22,0.0,0.0756251164889143,0.003193952531149623,0.40221,0.14715,9.770760000000001
3707070670,22.22,-0.01811651763570114,0.04794419455228423,-0.001064650843716541,0.34335000000000004,0.08829,9.64323
3712121175,22.22,-0.03515093113516579,0.022375121010567305,0.0,0.37278,-0.02943,9.72171
3717171680,22.22,-0.05007349623971732,-0.004258603374866164,-0.001064650843716541,0.38259000000000004,-0.12753,9.84924
3722222185,22.22,-0.05539675045830002,-0.028763026072866547,0.0,0.44145,-0.25506,9.92772
3727272690,22.22,-0.054332099614583476,-0.04260348704118158,-0.002129301687433082,0.49050000000000005,-0.34335000000000004,9.908100000000001
3732323195,22.22,-0.04366813788489812,-0.054332099614583476,-0.001064650843716541,0.5395500000000001,-0.41202000000000005,9.80019
3737373700,22.22,-0.024504422698000388,-0.05859070298944965,0.0,0.6278400000000001,-0.47088,9.74133
3742424205,22.22,-0.007452555906015787,-0.05539675045830002,-0.001064650843716541,0.64746,-0.46107000000000004,9.760950000000001
3747474710,22.22,0.01064650843716541,-0.0404741853537485,-0.002129301687433082,0.71613,-0.41202000000000005,9.81
3752525215,22.22,0.028763026072866547,-0.021310470166850764,0.001064650843716541,0.70632,-0.32373,9.81
3757575720,22.22,0.0404741853537485,0.005323254218582705,0.002129301687433082,0.70632,-0.20601000000000003,9.819809999999999
3762626225,22.22,0.04794419455228423,0.033021629447732716,0.001064650843716541,0.6768900000000001,-0.05886,9.86886
3767676730,22.22,0.05220279792715039,0.05752605214573309,0.004258603374866164,0.5886,0.009810000000000001,9.819809999999999
3772727235,22.22,0.04260348704118158,0.06710790973918197,0.004258603374866164,0.51012,0.08829,9.74133
3777777740,22.22,0.02769837522915001,0.07030186227033158,0.003193952531149623,0.42183,0.12753,9.770760000000001
3782828245,22.22,0.013840460968315033,0.05646140130201656,0.001064650843716541,0.38259000000000004,0.13734000000000002,9.84924
3787878750,22.22,-0.01064650843716541,0.03621558197888234,0.0,0.36297,0.06867000000000001,9.84924
3792929255,22.22,-0.02556907354171693,0.013840460968315033,-0.001064650843716541,0.36297,-0.019620000000000002,9.81
3797979760,22.22,-0.03834488366631542,-0.014905111812031574,0.0,0.37278,-0.10791,9.78057
3803030265,22.22,-0.04153883619746504,-0.049008845396000776,0.001064650843716541,0.43164,-0.20601000000000003,9.80019
3808080770,22.22,-0.044732788728614664,-0.06923721142661506,-0.003193952531149623,0.52974,-0.31392000000000003,9.86886
3813131275,22.22,-0.03408628029144926,-0.08203047484373349,-0.001064650843716541,0.6180300000000001,-0.36297,9.937529999999999
3818181780,22.22,-0.023439771854283843,-0.08096582400001695,-0.004258603374866164,0.6670800000000001,-0.42183,9.908100000000001
3823232285,22.22,-0.008517206749732328,-0.0756251164889143,-0.004258603374866164,0.72594,-0.44145,9.73152
3828282790,22.22,0.006387905062299246,-0.06923721142661506,-0.001064650843716541,0.7651800000000001,-0.38259000000000004,9.70209
3833333295,22.22,0.021310470166850764,-0.05220279792715039,0.0,0.8142300000000001,-0.31392000000000003,9.80019
3838383800,22.22,0.04153883619746504,-0.024504422698000388,0.0,0.8338500000000001,-0.21582,9.89829
3843434305,22.22,0.05113814708343386,0.005323254218582705,0.0,0.8142300000000001,-0.10791,9.85905
3848484810,22.22,0.054332099614583476,0.03515093113516579,0.003193952531149623,0.7848,0.0,9.760950000000001
3853535315,22.22,0.046879543708567686,0.05113814708343386,0.004258603374866164,0.70632,0.08829,9.65304
3858585820,22.22,0.033021629447732716,0.06710790973918197,0.004258603374866164,0.59841,0.11772,9.760950000000001
3863636325,22.22,0.01918116847941768,0.06817256058289851,0.005323254218582705,0.57879,0.13734000000000002,9.89829
3868686830,22.22,0.001064650843716541,0.05859070298944965,0.006387905062299246,0.52974,0.0981,9.92772
3873737335,22.22,-0.01811651763570114,0.04260348704118158,0.002129301687433082,0.47088,0.04905,9.74133
3878787840,22.22,-0.033021629447732716,0.014905111812031574,0.0,0.45126,-0.02943,9.633420000000001
3883838345,22.22,-0.04260348704118158,-0.005323254218582705,0.001064650843716541,0.48069000000000006,-0.14715,9.74133
3888888850,22.22,-0.04581489286485115,-0.022375121010567305,-0.001064650843716541,0.51993,-0.22563,9.97677
3893939355,22.22,-0.04794419455228423,-0.02982767691658309,0.0,0.5886,-0.35316,10.01601
3898989860,22.22,-0.0404741853537485,-0.02663372438543347,-0.003193952531149623,0.60822,-0.3924,9.83943
3904040365,22.22,-0.02663372438543347,-0.02556907354171693,-0.001064650843716541,0.6278400000000001,-0.42183,9.68247
3909090870,22.22,-0.002129301687433082,-0.020245819323134222,-0.002129301687433082,0.63765,-0.3924,9.64323
3914141375,22.22,0.012775810124598492,-0.00958185759344887,0.0,0.6670800000000001,-0.35316,9.84924
3919191880,22.22,0.02556907354171693,0.006387905062299246,0.002129301687433082,0.6670800000000001,-0.27468000000000004,9.97677
3924242385,22.22,0.03515093113516579,0.021310470166850764,0.001064650843716541,0.64746,-0.16677000000000003,9.908100000000001
3929292890,22.22,0.039409534510031964,0.04366813788489812,0.0,0.57879,-0.06867000000000001,9.760950000000001
3934343395,22.22,0.03834488366631542,0.05646140130201656,0.002129301687433082,0.5493600000000001,0.0,9.69228
3939393900,22.22,0.03728023282259888,0.06497860805174888,0.003193952531149623,0.45126,0.05886,9.760950000000001
3944444405,22.22,0.01811651763570114,0.060720004676882725,0.0,0.40221,0.0981,9.83943
3949494910,22.22,0.003193952531149623,0.04794419455228423,0.004258603374866164,0.35316,0.07848000000000001,9.89829
3954545415,22.22,-0.00958185759344887,0.02982767691658309,0.0,0.30411,0.02943,9.82962
3959595920,22.22,-0.022375121010567305,0.004258603374866164,0.002129301687433082,0.32373,-0.009810000000000001,9.751140000000001
3964646425,22.22,-0.03089232776029963,-0.023439771854283843,0.0,0.34335000000000004,-0.12753,9.751140000000001
3969696930,22.22,-0.03728023282259888,-0.05007349623971732,-0.001064650843716541,0.42183,-0.24525000000000002,9.82962
3974747435,22.22,-0.03621558197888234,-0.06710790973918197,-0.002129301687433082,0.49050000000000005,-0.27468000000000004,9.89829
3979797940,22.22,-0.02556907354171693,-0.08096582400001695,-0.001064650843716541,0.5886,-0.33354000000000006,9.86886
3984848445,22.22,-0.011711159280881954,-0.08309512568745003,-0.001064650843716541,0.60822,-0.3924,9.770760000000001
3989898950,22.22,-0.001064650843716541,-0.08628907821859966,-0.002129301687433082,0.69651,-0.41202000000000005,9.74133
3994949455,22.22,0.00958185759344887,-0.07990117315630041,0.0,0.7848,-0.36297,9.81
3999999960,22.22,0.02769837522915001,-0.06284930636431581,-0.001064650843716541,0.8240400000000001,-0.28449,9.83943
4005050465,22.22,0.04153883619746504,-0.044732788728614664,-0.002129301687433082,0.86328,-0.22563,9.85905
4010100970,22.22,0.049008845396000776,-0.020245819323134222,0.0,0.84366,-0.12753,9.81
4015151475,22.22,0.04581489286485115,0.001064650843716541,0.0,0.8240400000000001,-0.05886,9.751140000000001
4020201980,22.22,0.04153883619746504,0.02663372438543347,0.001064650843716541,0.8142300000000001,0.02943,9.72171
4025252485,22.22,0.028763026072866547,0.05113814708343386,0.0,0.74556,0.0981,9.78057
4030302990,22.22,0.01918116847941768,0.07243116395776468,0.004258603374866164,0.65727,0.11772,9.760950000000001
4035353495,22.22,0.005323254218582705,0.0756251164889143,0.003193952531149623,0.5886,0.11772,9.80019
4040404000,22.22,-0.014905111812031574,0.07243116395776468,0.002129301687433082,0.5395500000000001,0.07848000000000001,9.80019
4045454505,22.22,-0.03089232776029963,0.06391395720803235,0.001064650843716541,0.51012,-0.019620000000000002,9.78057
4050505010,22.22,-0.04153883619746504,0.046879543708567686,0.001064650843716541,0.48069000000000006,-0.08829,9.819809999999999
4055555515,22.22,-0.04794419455228423,0.03408628029144926,0.0,0.44145,-0.16677000000000003,9.86886
4060606020,22.22,-0.05326744877086694,0.011711159280881954,0.0,0.45126,-0.27468000000000004,9.83943
4065656525,22.22,-0.05007349623971732,-0.006387905062299246,-0.003193952531149623,0.47088,-0.38259000000000004,9.770760000000001
4070707030,22.22,-0.03728023282259888,-0.01918116847941768,-0.001064650843716541,0.52974,-0.44145,9.80019
4075757535,22.22,-0.020245819323134222,-0.023439771854283843,-0.001064650843716541,0.5591700000000001,-0.41202000000000005,9.82962
4080808040,22.22,0.0,-0.021310470166850764,0.0,0.52974,-0.42183,9.85905
4085858545,22.22,0.015987215948268057,-0.014905111812031574,0.0,0.59841,-0.35316,9.80019
4090909050,22.22,0.028763026072866547,-0.006387905062299246,-0.001064650843716541,0.59841,-0.26487,9.79038
4095959555,22.22,0.0404741853537485,0.002129301687433082,0.001064650843716541,0.57879,-0.17658,9.81
4101010060,22.22,0.04260348704118158,0.011711159280881954,0.002129301687433082,0.56898,-0.06867000000000001,9.82962
4106060565,22.22,0.04260348704118158,0.021310470166850764,0.002129301687433082,0.5395500000000001,0.0,9.819809999999999
4111111070,22.22,0.03515093113516579,0.028763026072866547,0.002129301687433082,0.49050000000000005,0.039240000000000004,9.83943
4116161575,22.22,0.024504422698000388,0.03089232776029963,0.0,0.47088,0.06867000000000001,9.73152
4121212080,22.22,0.008517206749732328,0.028763026072866547,0.0,0.43164,0.07848000000000001,9.72171
4126262585,22.22,-0.008517206749732328,0.022375121010567305,0.0,0.41202000000000005,0.039240000000000004,9.86886
4131313090,22.22,-0.01811651763570114,0.00958185759344887,0.001064650843716541,0.40221,-0.009810000000000001,9.908100000000001
4136363595,22.22,-0.02982767691658309,-0.004258603374866164,0.001064650843716541,0.42183,-0.10791,9.80019
4141414100,22.22,-0.031956978604016174,-0.028763026072866547,-0.002129301687433082,0.44145,-0.1962,9.74133
4146464605,22.22,-0.03621558197888234,-0.054332099614583476,-0.001064650843716541,0.51993,-0.27468000000000004,9.80019
4151515110,22.22,-0.031956978604016174,-0.06817256058289851,-0.002129301687433082,0.56898,-0.34335000000000004,9.84924
4156565615,22.22,-0.020245819323134222,-0.0852244273748831,-0.003193952531149623,0.6867000000000001,-0.40221,9.89829
4161616120,22.22,-0.005323254218582705,-0.08841837990603273,-0.002129301687433082,0.7749900000000001,-0.38259000000000004,9.86886
4166666625,22.22,0.004258603374866164,-0.08415977653116657,0.0,0.79461,-0.3924,9.81
4171717130,22.22,0.021310470166850764,-0.07136651311404815,-0.002129301687433082,0.86328,-0.32373,9.7119
4176767635,22.22,0.03728023282259888,-0.054332099614583476,0.0,0.8829,-0.25506,9.74133
4181818140,22.22,0.046879543708567686,-0.02556907354171693,0.0,0.90252,-0.17658,9.83943
4186868645,22.22,0.049008845396000776,0.0,0.0,0.87309,-0.05886,9.85905
4191919150,22.22,0.0404741853537485,0.03621558197888234,0.002129301687433082,0.8142300000000001,0.02943,9.751140000000001
4196969655,22.22,0.03515093113516579,0.06817256058289851,0.003193952531149623,0.75537,0.07848000000000001,9.73152
4202020160,22.22,0.02556907354171693,0.09161233243718235,0.004258603374866164,0.65727,0.11772,9.72171
4207070665,22.22,0.006387905062299246,0.10653489754173388,0.002129301687433082,0.56898,0.16677000000000003,9.760950000000001
4212121170,22.22,-0.011711159280881954,0.11292280260403312,0.001064650843716541,0.49050000000000005,0.14715,9.81
4217171675,22.22,-0.03089232776029963,0.10119419003063122,0.002129301687433082,0.41202000000000005,0.04905,9.86886
4222222180,22.22,-0.044732788728614664,0.08309512568745003,0.002129301687433082,0.37278,-0.04905,9.83943
4227272685,22.22,-0.05539675045830002,0.054332099614583476,0.002129301687433082,0.34335000000000004,-0.14715,9.80019
4232323190,22.22,-0.06391395720803235,0.024504422698000388,-0.003193952531149623,0.31392000000000003,-0.27468000000000004,9.80019
4237373695,22.22,-0.060720004676882725,-0.005323254218582705,0.0,0.35316,-0.37278,9.82962
4242424200,22.22,-0.046879543708567686,-0.02556907354171693,0.0,0.42183,-0.45126,9.86886
4247474705,22.22,-0.02769837522915001,-0.039409534510031964,0.0,0.44145,-0.48069000000000006,9.85905
4252525210,22.22,-0.007452555906015787,-0.04581489286485115,0.0,0.51993,-0.47088,9.85905
4257575715,22.22,0.00958185759344887,-0.044732788728614664,0.0,0.52974,-0.40221,9.819809999999999
4262626220,22.22,0.028763026072866547,-0.0404741853537485,0.0,0.56898,-0.32373,9.81
4267676725,22.22,0.046879543708567686,-0.031956978604016174,0.0,0.5886,-0.23544,9.81
4272727230,22.22,0.05220279792715039,-0.02982767691658309,0.001064650843716541,0.57879,-0.14715,9.81
4277777735,22.22,0.05220279792715039,-0.022375121010567305,0.0,0.60822,-0.02943,9.79038
4282828240,22.22,0.046879543708567686,-0.014905111812031574,0.0,0.5886,0.019620000000000002,9.80019
4287878745,22.22,0.044732788728614664,-0.002129301687433082,0.001064650843716541,0.60822,0.07848000000000001,9.81
4292929250,22.22,0.02982767691658309,0.003193952531149623,0.001064650843716541,0.51993,0.08829,9.760950000000001
4297979755,22.22,0.01064650843716541,-0.001064650843716541,0.0,0.5591700000000001,0.0981,9.751140000000001
4303030260,22.22,-0.01064650843716541,-0.008517206749732328,0.001064650843716541,0.5493600000000001,0.02943,9.819809999999999
4308080765,22.22,-0.021310470166850764,-0.021310470166850764,-0.001064650843716541,0.57879,-0.019620000000000002,9.84924
4313131270,22.22,-0.02769837522915001,-0.033021629447732716,-0.001064650843716541,0.5886,-0.10791,9.819809999999999
4318181775,22.22,-0.031956978604016174,-0.04794419455228423,-0.001064650843716541,0.6670800000000001,-0.21582,9.81
4323232280,22.22,-0.039409534510031964,-0.05965535383316618,-0.005323254218582705,0.72594,-0.27468000000000004,9.751140000000001
4328282785,22.22,-0.033021629447732716,-0.05539675045830002,-0.004258603374866164,0.7848,-0.35316,9.80019
4333333290,22.22,-0.0170518667919846,-0.04366813788489812,-0.002129301687433082,0.84366,-0.35316,9.86886
4338383795,22.22,-0.003193952531149623,-0.021310470166850764,0.0,0.8829,-0.37278,9.89829
4343434300,22.22,0.005323254218582705,-0.004258603374866164,0.0,0.84366,-0.33354000000000006,9.770760000000001
4348484805,22.22,0.0170518667919846,0.01918116847941768,-0.001064650843716541,0.8338500000000001,-0.24525000000000002,9.69228
4353535310,22.22,0.02663372438543347,0.044732788728614664,0.001064650843716541,0.7848,-0.15696000000000002,9.760950000000001
4358585815,22.22,0.03621558197888234,0.07136651311404815,0.002129301687433082,0.71613,-0.06867000000000001,9.87867
4363636320,22.22,0.031956978604016174,0.09054768159346581,0.002129301687433082,0.6278400000000001,0.0,9.83943
4368686825,22.22,0.015987215948268057,0.10225884087434776,0.005323254218582705,0.5395500000000001,0.06867000000000001,9.7119
4373737330,22.22,0.005323254218582705,0.10759954838545042,0.002129301687433082,0.44145,0.04905,9.70209
4378787835,22.22,-0.001064650843716541,0.10866419922916695,0.004258603374866164,0.35316,0.05886,9.819809999999999
4383838340,22.22,-0.012775810124598492,0.09374163412461543,0.003193952531149623,0.26487,0.019620000000000002,9.87867
4388888845,22.22,-0.028763026072866547,0.06604325889546543,0.004258603374866164,0.20601000000000003,-0.05886,9.87867
4393939350,22.22,-0.04260348704118158,0.03728023282259888,0.0,0.20601000000000003,-0.14715,9.79038
4398989855,22.22,-0.046879543708567686,0.004258603374866164,-0.001064650843716541,0.21582,-0.23544,9.70209
4404040360,22.22,-0.03834488366631542,-0.03408628029144926,0.0,0.25506,-0.33354000000000006,9.80019
4409090865,22.22,-0.03408628029144926,-0.06497860805174888,-0.002129301687433082,0.35316,-0.37278,9.937529999999999
4414141370,22.22,-0.02663372438543347,-0.08948303074974927,-0.004258603374866164,0.44145,-0.42183,9.937529999999999
4419191875,22.22,-0.00958185759344887,-0.10438814256178083,-0.002129301687433082,0.51993,-0.42183,9.82962
4424242380,22.22,0.00958185759344887,-0.11611675513518273,-0.002129301687433082,0.6180300000000001,-0.41202000000000005,9.74133
4429292885,22.22,0.031956978604016174,-0.11611675513518273,-0.002129301687433082,0.69651,-0.34335000000000004,9.751140000000001
4434343390,22.22,0.03834488366631542,-0.10866419922916695,-0.002129301687433082,0.7749900000000001,-0.30411,9.85905
4439393895,22.22,0.044732788728614664,-0.09161233243718235,-0.001064650843716541,0.84366,-0.1962,9.91791
4444444400,22.22,0.054332099614583476,-0.06604325889546543,-0.002129301687433082,0.87309,-0.11772,9.81
4449494905,22.22,0.06178465552059926,-0.039409534510031964,0.0,0.8829,0.0,9.70209
4454545410,22.22,0.05539675045830002,-0.012775810124598492,0.001064650843716541,0.85347,0.07848000000000001,9.69228
4459595915,22.22,0.04260348704118158,0.012775810124598492,0.001064650843716541,0.8240400000000001,0.12753,9.760950000000001
4464646420,22.22,0.02769837522915001,0.03834488366631542,0.0,0.79461,0.17658,9.819809999999999
4469696925,22.22,0.011711159280881954,0.06178465552059926,0.002129301687433082,0.70632,0.17658,9.83943
4474747430,22.22,-0.007452555906015787,0.08096582400001695,0.005323254218582705,0.63765,0.10791,9.74133
4479797935,22.22,-0.033021629447732716,0.08096582400001695,0.004258603374866164,0.57879,0.05886,9.69228
4484848440,22.22,-0.04794419455228423,0.07777187146886733,0.001064650843716541,0.5493600000000001,0.0,9.760950000000001
4489898945,22.22,-0.05539675045830002,0.07136651311404815,0.0,0.51993,-0.12753,9.83943
4494949450,22.22,-0.05646140130201656,0.05965535383316618,0.004258603374866164,0.50031,-0.18639,9.86886
4499999955,22.22,-0.06284930636431581,0.04153883619746504,0.0,0.47088,-0.32373,9.81
4505050460,22.22,-0.05752605214573309,0.023439771854283843,-0.001064650843716541,0.46107000000000004,-0.40221,9.80019
4510100965,22.22,-0.0404741853537485,0.011711159280881954,-0.001064650843716541,0.46107000000000004,-0.44145,9.83943
4515151470,22.22,-0.01811651763570114,0.0,0.001064650843716541,0.47088,-0.45126,9.82962
4520201975,22.22,0.0,-0.007452555906015787,0.0,0.50031,-0.41202000000000005,9.81
4525252480,22.22,0.01064650843716541,-0.012775810124598492,-0.001064650843716541,0.50031,-0.37278,9.78057
4530302985,22.22,0.02982767691658309,-0.012775810124598492,0.001064650843716541,0.52974,-0.26487,9.82962
4535353490,22.22,0.04260348704118158,-0.01064650843716541,0.0,0.51993,-0.17658,9.84924
4540403995,22.22,0.04794419455228423,-0.014905111812031574,0.002129301687433082,0.51012,-0.08829,9.84924
4545454500,22.22,0.039409534510031964,-0.015987215948268057,0.002129301687433082,0.51012,-0.04905,9.84924
4550505005,22.22,0.033021629447732716,-0.012775810124598492,-0.002129301687433082,0.51012,0.009810000000000001,9.79038
4555555510,22.22,0.02769837522915001,-0.006387905062299246,-0.003193952531149623,0.51993,0.04905,9.751140000000001
4560606015,22.22,0.01918116847941768,-0.008517206749732328,0.003193952531149623,0.50031,0.039240000000000004,9.73152
4565656520,22.22,0.0,-0.014905111812031574,0.003193952531149623,0.51012,0.0,9.81
4570707025,22.22,-0.0170518667919846,-0.0170518667919846,0.001064650843716541,0.5493600000000001,-0.019620000000000002,9.85905
4575757530,22.22,-0.021310470166850764,-0.023439771854283843,-0.003193952531149623,0.5591700000000001,-0.10791,9.84924
4580808035,22.22,-0.020245819323134222,-0.03621558197888234,0.001064650843716541,0.5886,-0.18639,9.84924
4585858540,22.22,-0.024504422698000388,-0.04260348704118158,0.0,0.65727,-0.21582,9.81
4590909045,22.22,-0.024504422698000388,-0.05220279792715039,-0.002129301687433082,0.6867000000000001,-0.28449,9.78057
4595959550,22.22,-0.01918116847941768,-0.054332099614583476,-0.002129301687433082,0.74556,-0.31392000000000003,9.82962
4601010055,22.22,-0.005323254218582705,-0.04794419455228423,0.0,0.79461,-0.33354000000000006,9.81
4606060560,22.22,0.008517206749732328,-0.02982767691658309,-0.001064650843716541,0.80442,-0.31392000000000003,9.79038
4611111065,22.22,0.011711159280881954,-0.014905111812031574,0.001064650843716541,0.8338500000000001,-0.26487,9.78057
4616161570,22.22,0.0170518667919846,0.00958185759344887,0.002129301687433082,0.8142300000000001,-0.15696000000000002,9.80019
4621212075,22.22,0.02769837522915001,0.031956978604016174,0.0,0.75537,-0.11772,9.81
4626262580,22.22,0.033021629447732716,0.05220279792715039,0.002129301687433082,0.69651,-0.02943,9.770760000000001
4631313085,22.22,0.02556907354171693,0.07243116395776468,0.002129301687433082,0.65727,0.009810000000000001,9.78057
4636363590,22.22,0.012775810124598492,0.07990117315630041,0.001064650843716541,0.5591700000000001,0.04905,9.81
4641414095,22.22,0.001064650843716541,0.09267698328089889,0.002129301687433082,0.49050000000000005,0.07848000000000001,9.81
4646464600,22.22,-0.007452555906015787,0.09161233243718235,0.005323254218582705,0.3924,0.019620000000000002,9.760950000000001
4651515105,22.22,-0.01811651763570114,0.08096582400001695,0.002129301687433082,0.34335000000000004,0.0,9.80019
4656565610,22.22,-0.03728023282259888,0.06178465552059926,0.0,0.30411,-0.05886,9.819809999999999
4661616115,22.22,-0.04153883619746504,0.033021629447732716,0.0,0.30411,-0.16677000000000003,9.89829
4666666620,22.22,-0.03834488366631542,0.003193952531149623,0.001064650843716541,0.2943,-0.24525000000000002,9.87867
4671717125,22.22,-0.03621558197888234,-0.02769837522915001,0.0,0.31392000000000003,-0.34335000000000004,9.78057
4676767630,22.22,-0.033021629447732716,-0.060720004676882725,-0.002129301687433082,0.38259000000000004,-0.36297,9.81
4681818135,22.22,-0.02769837522915001,-0.08096582400001695,0.0,0.50031,-0.43164,9.83943
4686868640,22.22,-0.004258603374866164,-0.09906488834319814,-0.002129301687433082,0.5591700000000001,-0.41202000000000005,9.86886
4691919145,22.22,0.01811651763570114,-0.10225884087434776,-0.003193952531149623,0.69651,-0.40221,9.87867
4696969650,22.22,0.031956978604016174,-0.10119419003063122,0.0,0.74556,-0.34335000000000004,9.82962
4702020155,22.22,0.03728023282259888,-0.09054768159346581,-0.001064650843716541,0.79461,-0.24525000000000002,9.770760000000001
4707070660,22.22,0.05007349623971732,-0.06710790973918197,-0.003193952531149623,0.84366,-0.17658,9.770760000000001
4712121165,22.22,0.05859070298944965,-0.04366813788489812,0.0,0.85347,-0.07848000000000001,9.83943
4717171670,22.22,0.05326744877086694,-0.0170518667919846,0.002129301687433082,0.8338500000000001,0.019620000000000002,9.80019
4722222175,22.22,0.04260348704118158,0.020245819323134222,0.001064650843716541,0.8142300000000001,0.0981,9.770760000000001
4727272680,22.22,0.02769837522915001,0.049008845396000776,0.0,0.74556,0.15696000000000002,9.74133
4732323185,22.22,0.022375121010567305,0.07777187146886733,0.003193952531149623,0.6867000000000001,0.18639,9.72171
4737373690,22.22,0.001064650843716541,0.0852244273748831,0.007452555906015787,0.57879,0.14715,9.78057
4742424195,22.22,-0.021310470166850764,0.08841837990603273,0.003193952531149623,0.5395500000000001,0.11772,9.83943
4747474700,22.22,-0.044732788728614664,0.08203047484373349,0.002129301687433082,0.48069000000000006,0.009810000000000001,9.86886
4752525205,22.22,-0.05646140130201656,0.06391395720803235,0.001064650843716541,0.44145,-0.08829,9.819809999999999
4757575710,22.22,-0.05646140130201656,0.039409534510031964,0.0,0.44145,-0.1962,9.74133
4762626215,22.22,-0.05859070298944965,0.01064650843716541,0.0,0.43164,-0.34335000000000004,9.770760000000001
4767676720,22.22,-0.05859070298944965,-0.005323254218582705,-0.002129301687433082,0.45126,-0.40221,9.87867
4772727225,22.22,-0.044732788728614664,-0.024504422698000388,-0.003193952531149623,0.51012,-0.47088,9.91791
4777777730,22.22,-0.01811651763570114,-0.02663372438543347,0.0,0.57879,-0.45126,9.86886
4782828235,22.22,-0.001064650843716541,-0.03089232776029963,0.001064650843716541,0.56898,-0.43164,9.82962
4787878740,22.22,0.013840460968315033,-0.03408628029144926,0.0,0.5886,-0.3924,9.78057
4792929245,22.22,0.03089232776029963,-0.028763026072866547,-0.004258603374866164,0.6278400000000001,-0.28449,9.760950000000001
4797979750,22.22,0.044732788728614664,-0.021310470166850764,-0.001064650843716541,0.65727,-0.20601000000000003,9.87867
4803030255,22.22,0.05539675045830002,-0.012775810124598492,0.005323254218582705,0.60822,-0.08829,9.87867
4808080760,22.22,0.04260348704118158,-0.003193952531149623,0.002129301687433082,0.59841,-0.02943,9.819809999999999
4813131265,22.22,0.039409534510031964,0.007452555906015787,0.0,0.59841,0.02943,9.760950000000001
4818181770,22.22,0.02982767691658309,0.015987215948268057,-0.001064650843716541,0.56898,0.07848000000000001,9.770760000000001
4823232275,22.22,0.020245819323134222,0.01918116847941768,0.001064650843716541,0.52974,0.08829,9.770760000000001
4828282780,22.22,0.0,0.01918116847941768,0.001064650843716541,0.49050000000000005,0.04905,9.819809999999999
4833333285,22.22,-0.014905111812031574,0.01064650843716541,0.0,0.51012,0.019620000000000002,9.86886
4838383790,22.22,-0.02556907354171693,-0.002129301687433082,-0.001064650843716541,0.51012,-0.039240000000000004,9.82962
4843434295,22.22,-0.03089232776029963,-0.01811651763570114,0.002129301687433082,0.5395500000000001,-0.16677000000000003,9.74133
4848484800,22.22,-0.03728023282259888,-0.03515093113516579,-0.001064650843716541,0.57879,-0.22563,9.79038
4853535305,22.22,-0.039409534510031964,-0.046879543708567686,-0.002129301687433082,0.63765,-0.32373,9.81
4858585810,22.22,-0.02982767691658309,-0.05113814708343386,-0.002129301687433082,0.6670800000000001,-0.33354000000000006,9.85905
4863636315,22.22,-0.00958185759344887,-0.04794419455228423,-0.001064650843716541,0.75537,-0.38259000000000004,9.85905
4868686820,22.22,0.003193952531149623,-0.03408628029144926,-0.001064650843716541,0.7651800000000001,-0.36297,9.81
4873737325,22.22,0.01064650843716541,-0.020245819323134222,0.0,0.7749900000000001,-0.31392000000000003,9.73152
4878787830,22.22,0.020245819323134222,0.0,0.0,0.75537,-0.22563,9.7119
4883838335,22.22,0.031956978604016174,0.020245819323134222,0.0,0.7651800000000001,-0.14715,9.81
4888888840,22.22,0.039409534510031964,0.03728023282259888,0.001064650843716541,0.6867000000000001,-0.07848000000000001,9.82962
4893939345,22.22,0.033021629447732716,0.054332099614583476,0.004258603374866164,0.6180300000000001,-0.009810000000000001,9.819809999999999
4898989850,22.22,0.01918116847941768,0.07243116395776468,0.001064650843716541,0.56898,0.06867000000000001,9.78057
4904040355,22.22,0.014905111812031574,0.07883652231258387,0.001064650843716541,0.49050000000000005,0.08829,9.760950000000001
4909090860,22.22,0.002129301687433082,0.07990117315630041,0.005323254218582705,0.42183,0.05886,9.770760000000001
4914141365,22.22,-0.01064650843716541,0.07030186227033158,0.006387905062299246,0.38259000000000004,0.009810000000000001,9.760950000000001
4919191870,22.22,-0.02982767691658309,0.054332099614583476,0.002129301687433082,0.33354000000000006,-0.039240000000000004,9.84924
4924242375,22.22,-0.04153883619746504,0.03515093113516579,0.0,0.2943,-0.0981,9.85905
4929292880,22.22,-0.04366813788489812,0.005323254218582705,-0.001064650843716541,0.31392000000000003,-0.23544,9.78057
4934343385,22.22,-0.03834488366631542,-0.02769837522915001,0.0,0.33354000000000006,-0.32373,9.81
4939393890,22.22,-0.039409534510031964,-0.05326744877086694,-0.002129301687433082,0.40221,-0.3924,9.89829
4944444395,22.22,-0.02982767691658309,-0.07670722062515077,-0.002129301687433082,0.51012,-0.42183,9.83943
4949494900,22.22,-0.008517206749732328,-0.09587093581204853,-0.002129301687433082,0.59841,-0.40221,9.85905
4954545405,22.22,0.00958185759344887,-0.10332349171806432,-0.004258603374866164,0.6768900000000001,-0.3924,9.85905
4959595910,22.22,0.022375121010567305,-0.10119419003063122,-0.002129301687433082,0.74556,-0.37278,9.81
4964646415,22.22,0.033021629447732716,-0.09054768159346581,-0.002129301687433082,0.80442,-0.30411,9.74133
4969696920,22.22,0.049008845396000776,-0.07136651311404815,-0.004258603374866164,0.85347,-0.21582,9.80019
4974747425,22.22,0.05646140130201656,-0.04794419455228423,-0.003193952531149623,0.84366,-0.11772,9.819809999999999
4979797930,22.22,0.05539675045830002,-0.014905111812031574,0.002129301687433082,0.89271,0.0,9.819809999999999
4984848435,22.22,0.049008845396000776,0.01918116847941768,0.0,0.8338500000000001,0.06867000000000001,9.819809999999999
4989898940,22.22,0.03834488366631542,0.05326744877086694,0.002129301687433082,0.7651800000000001,0.15696000000000002,9.79038
4994949445,22.22,0.023439771854283843,0.08096582400001695,0.002129301687433082,0.6867000000000001,0.17658,9.66285
4999999950,22.22,0.006387905062299246,0.08841837990603273,0.006387905062299246,0.57879,0.15696000000000002,9.633420000000001
5005050455,22.22,-0.023439771854283843,0.09800023749948161,0.001064650843716541,0.51993,0.12753,9.82962
5010100960,22.22,-0.039409534510031964,0.08948303074974927,0.0,0.48069000000000006,0.06867000000000001,9.97677
5015151465,22.22,-0.05220279792715039,0.07030186227033158,0.004258603374866164,0.40221,-0.04905,9.85905
5020201970,22.22,-0.05859070298944965,0.04260348704118158,0.003193952531149623,0.38259000000000004,-0.20601000000000003,9.72171
5025252475,22.22,-0.06497860805174888,0.01811651763570114,0.0,0.38259000000000004,-0.2943,9.74133
5030302980,22.22,-0.06391395720803235,-0.011711159280881954,0.0,0.45126,-0.41202000000000005,9.82962
5035353485,22.22,-0.049008845396000776,-0.02556907354171693,-0.001064650843716541,0.48069000000000006,-0.48069000000000006,9.89829
5040403990,22.22,-0.023439771854283843,-0.0404741853537485,0.0,0.5591700000000001,-0.50031,9.908100000000001
5045454495,22.22,-0.003193952531149623,-0.04153883619746504,-0.002129301687433082,0.5886,-0.50031,9.81
5050505000,22.22,0.011711159280881954,-0.03728023282259888,0.0,0.6180300000000001,-0.41202000000000005,9.72171
5055555505,22.22,0.02982767691658309,-0.031956978604016174,-0.001064650843716541,0.6278400000000001,-0.30411,9.760950000000001
5060606010,22.22,0.05220279792715039,-0.02556907354171693,0.001064650843716541,0.65727,-0.22563,9.89829
5065656515,22.22,0.05646140130201656,-0.015987215948268057,0.001064650843716541,0.6278400000000001,-0.14715,9.89829
5070707020,22.22,0.05007349623971732,-0.006387905062299246,0.001064650843716541,0.6278400000000001,-0.019620000000000002,9.85905
5075757525,22.22,0.044732788728614664,0.005323254218582705,-0.002129301687433082,0.59841,0.039240000000000004,9.78057
5080808030,22.22,0.03621558197888234,0.013840460968315033,0.0,0.5591700000000001,0.0981,9.69228
5085858535,22.22,0.02663372438543347,0.012775810124598492,0.003193952531149623,0.51993,0.08829,9.73152
5090909040,22.22,0.001064650843716541,0.00958185759344887,0.002129301687433082,0.51993,0.06867000000000001,9.82962
5095959545,22.22,-0.015987215948268057,0.003193952531149623,-0.001064650843716541,0.51993,0.02943,9.888480000000001
5101010050,22.22,-0.023439771854283843,-0.005323254218582705,0.001064650843716541,0.56898,-0.04905,9.85905
5106060555,22.22,-0.031956978604016174,-0.020245819323134222,0.0,0.5493600000000001,-0.12753,9.78057
5111111060,22.22,-0.0404741853537485,-0.03515093113516579,0.0,0.60822,-0.21582,9.751140000000001
5116161565,22.22,-0.039409534510031964,-0.04260348704118158,0.0,0.65727,-0.31392000000000003,9.80019
5121212070,22.22,-0.031956978604016174,-0.04260348704118158,-0.001064650843716541,0.71613,-0.34335000000000004,9.85905
5126262575,22.22,-0.013840460968315033,-0.0404741853537485,-0.001064650843716541,0.74556,-0.36297,9.84924
5131313080,22.22,-0.002129301687433082,-0.02982767691658309,0.0,0.7651800000000001,-0.38259000000000004,9.81
5136363585,22.22,0.005323254218582705,-0.01811651763570114,-0.001064650843716541,0.7848,-0.32373,9.74133
5141414090,22.22,0.01811651763570114,0.008517206749732328,-0.001064650843716541,0.80442,-0.22563,9.770760000000001
5146464595,22.22,0.03408628029144926,0.028763026072866547,0.001064650843716541,0.73575,-0.14715,9.81
5151515100,22.22,0.0404741853537485,0.05752605214573309,0.004258603374866164,0.6867000000000001,-0.06867000000000001,9.81
5156565605,22.22,0.03089232776029963,0.07243116395776468,0.005323254218582705,0.56898,-0.009810000000000001,9.81
5161616110,22.22,0.01811651763570114,0.08735372906231618,0.004258603374866164,0.52974,0.039240000000000004,9.760950000000001
5166666615,22.22,0.012775810124598492,0.09587093581204853,0.002129301687433082,0.44145,0.07848000000000001,9.74133
5171717120,22.22,0.003193952531149623,0.08415977653116657,0.005323254218582705,0.37278,0.06867000000000001,9.80019
5176767625,22.22,-0.011711159280881954,0.06391395720803235,0.003193952531149623,0.32373,0.019620000000000002,9.819809999999999
5181818130,22.22,-0.031956978604016174,0.03408628029144926,0.0,0.32373,-0.04905,9.89829
5186868635,22.22,-0.03621558197888234,0.005323254218582705,-0.001064650843716541,0.31392000000000003,-0.16677000000000003,9.87867
5191919140,22.22,-0.039409534510031964,-0.02769837522915001,-0.001064650843716541,0.33354000000000006,-0.25506,9.819809999999999
5196969645,22.22,-0.03515093113516579,-0.05646140130201656,-0.001064650843716541,0.41202000000000005,-0.31392000000000003,9.770760000000001
5202020150,22.22,-0.033021629447732716,-0.07990117315630041,-0.003193952531149623,0.48069000000000006,-0.3924,9.80019
5207070655,22.22,-0.024504422698000388,-0.08841837990603273,-0.003193952531149623,0.57879,-0.41202000000000005,9.86886
5212121160,22.22,-0.002129301687433082,-0.09374163412461543,-0.005323254218582705,0.6768900000000001,-0.42183,9.908100000000001
5217171665,22.22,0.01918116847941768,-0.08948303074974927,-0.002129301687433082,0.73575,-0.37278,9.83943
5222222170,22.22,0.02769837522915001,-0.08096582400001695,-0.003193952531149623,0.7848,-0.31392000000000003,9.79038
5227272675,22.22,0.03834488366631542,-0.06284930636431581,-0.001064650843716541,0.8240400000000001,-0.24525000000000002,9.751140000000001
5232323180,22.22,0.046879543708567686,-0.033021629447732716,-0.001064650843716541,0.8338500000000001,-0.13734000000000002,9.79038
5237373685,22.22,0.05965535383316618,-0.001064650843716541,0.001064650843716541,0.8142300000000001,-0.039240000000000004,9.83943
5242424190,22.22,0.05220279792715039,0.02982767691658309,0.002129301687433082,0.75537,0.039240000000000004,9.80019
5247474695,22.22,0.03621558197888234,0.05007349623971732,0.004258603374866164,0.72594,0.11772,9.7119
5252525200,22.22,0.020245819323134222,0.06817256058289851,0.003193952531149623,0.65727,0.15696000000000002,9.73152
5257575705,22.22,0.006387905062299246,0.07349581480148122,0.001064650843716541,0.5886,0.13734000000000002,9.78057
5262626210,22.22,-0.008517206749732328,0.06923721142661506,0.006387905062299246,0.51012,0.11772,9.83943
5267676715,22.22,-0.03515093113516579,0.05220279792715039,0.003193952531149623,0.46107000000000004,0.009810000000000001,9.84924
5272727220,22.22,-0.05007349623971732,0.02982767691658309,0.0,0.46107000000000004,-0.07848000000000001,9.770760000000001
5277777725,22.22,-0.054332099614583476,0.01064650843716541,-0.001064650843716541,0.47088,-0.20601000000000003,9.751140000000001
5282828230,22.22,-0.05326744877086694,-0.007452555906015787,0.001064650843716541,0.49050000000000005,-0.28449,9.81
5287878735,22.22,-0.04794419455228423,-0.0170518667919846,0.002129301687433082,0.5493600000000001,-0.41202000000000005,9.84924
5292929240,22.22,-0.04366813788489812,-0.028763026072866547,-0.003193952531149623,0.60822,-0.46107000000000004,9.84924
5297979745,22.22,-0.020245819323134222,-0.028763026072866547,-0.003193952531149623,0.6278400000000001,-0.43164,9.82962
5303030250,22.22,0.001064650843716541,-0.021310470166850764,0.0,0.6670800000000001,-0.43164,9.82962
5308080755,22.22,0.020245819323134222,-0.007452555906015787,0.002129301687433082,0.64746,-0.32373,9.819809999999999
5313131260,22.22,0.02769837522915001,0.011711159280881954,0.0,0.63765,-0.24525000000000002,9.81
5318181765,22.22,0.03515093113516579,0.02556907354171693,0.001064650843716541,0.60822,-0.14715,9.81
5323232270,22.22,0.04153883619746504,0.044732788728614664,0.003193952531149623,0.57879,-0.05886,9.770760000000001
5328282775,22.22,0.04153883619746504,0.05220279792715039,0.004258603374866164,0.48069000000000006,0.0,9.79038
5333333280,22.22,0.02982767691658309,0.049008845396000776,0.005323254218582705,0.45126,0.02943,9.888480000000001
5338383785,22.22,0.013840460968315033,0.039409534510031964,0.003193952531149623,0.3924,0.06867000000000001,9.888480000000001
5343434290,22.22,0.0,0.015987215948268057,0.0,0.3924,0.039240000000000004,9.82962
5348484795,22.22,-0.008517206749732328,-0.00958185759344887,0.0,0.37278,-0.019620000000000002,9.79038
5353535300,22.22,-0.023439771854283843,-0.04260348704118158,-0.002129301687433082,0.41202000000000005,-0.10791,9.760950000000001
5358585805,22.22,-0.033021629447732716,-0.07670722062515077,0.0,0.51993,-0.21582,9.83943
5363636310,22.22,-0.033021629447732716,-0.09587093581204853,-0.001064650843716541,0.59841,-0.28449,9.87867
5368686815,22.22,-0.02556907354171693,-0.10332349171806432,-0.003193952531149623,0.6768900000000001,-0.37278,9.85905
5373737320,22.22,-0.013840460968315033,-0.10119419003063122,-0.004258603374866164,0.7749900000000001,-0.40221,9.80019
5378787825,22.22,-0.002129301687433082,-0.08628907821859966,-0.001064650843716541,0.85347,-0.40221,9.751140000000001
5383838330,22.22,0.01064650843716541,-0.06710790973918197,-0.002129301687433082,0.9123300000000001,-0.34335000000000004,9.79038
5388888835,22.22,0.02556907354171693,-0.0404741853537485,0.0,0.9221400000000001,-0.23544,9.819809999999999
5393939340,22.22,0.03834488366631542,-0.002129301687433082,0.0,0.9319500000000001,-0.20601000000000003,9.79038
5398989845,22.22,0.04366813788489812,0.03621558197888234,0.002129301687433082,0.86328,-0.0981,9.760950000000001
5404040350,22.22,0.03728023282259888,0.07670722062515077,0.003193952531149623,0.7749900000000001,0.009810000000000001,9.73152
5409090855,22.22,0.031956978604016174,0.09906488834319814,0.004258603374866164,0.6867000000000001,0.07848000000000001,9.68247
5414141360,22.22,0.024504422698000388,0.11185815176031658,0.005323254218582705,0.57879,0.14715,9.770760000000001
5419191865,22.22,0.004258603374866164,0.11398745344774965,0.004258603374866164,0.48069000000000006,0.13734000000000002,9.85905
5424242370,22.22,-0.0170518667919846,0.10119419003063122,0.001064650843716541,0.42183,0.10791,9.908100000000001
5429292875,22.22,-0.031956978604016174,0.0756251164889143,0.001064650843716541,0.37278,0.009810000000000001,9.83943
5434343380,22.22,-0.04260348704118158,0.04366813788489812,0.001064650843716541,0.30411,-0.08829,9.72171
5439393885,22.22,-0.05113814708343386,0.00958185759344887,0.0,0.35316,-0.22563,9.70209
5444444390,22.22,-0.05326744877086694,-0.021310470166850764,-0.001064650843716541,0.3924,-0.31392000000000003,9.83943
5449494895,22.22,-0.05113814708343386,-0.039409534510031964,-0.001064650843716541,0.43164,-0.40221,9.96696
5454545400,22.22,-0.03834488366631542,-0.04153883619746504,-0.001064650843716541,0.49050000000000005,-0.47088,9.937529999999999
5459595905,22.22,-0.01811651763570114,-0.05007349623971732,0.0,0.52974,-0.50031,9.751140000000001
5464646410,22.22,0.002129301687433082,-0.04794419455228423,0.0,0.5886,-0.41202000000000005,9.7119
5469696915,22.22,0.01918116847941768,-0.046879543708567686,-0.002129301687433082,0.6180300000000001,-0.37278,9.81
5474747420,22.22,0.03621558197888234,-0.033021629447732716,-0.001064650843716541,0.6867000000000001,-0.26487,9.89829
5479797925,22.22,0.04581489286485115,-0.01811651763570114,0.0,0.6670800000000001,-0.17658,9.91791
5484848430,22.22,0.05007349623971732,0.003193952531149623,0.0,0.63765,-0.07848000000000001,9.81
5489898935,22.22,0.04581489286485115,0.013840460968315033,0.0,0.5886,-0.02943,9.7119
5494949440,22.22,0.039409534510031964,0.022375121010567305,0.002129301687433082,0.57879,0.04905,9.69228
5499999945,22.22,0.02982767691658309,0.024504422698000388,0.002129301687433082,0.51993,0.0981,9.82962
5505050450,22.22,0.012775810124598492,0.022375121010567305,0.003193952531149623,0.48069000000000006,0.08829,9.96696
5510100955,22.22,-0.003193952531149623,0.007452555906015787,0.0,0.47088,0.05886,9.888480000000001
5515151460,22.22,-0.01918116847941768,-0.012775810124598492,-0.001064650843716541,0.47088,-0.009810000000000001,9.72171
5520201965,22.22,-0.03089232776029963,-0.03728023282259888,-0.004258603374866164,0.51012,-0.10791,9.633420000000001
5525252470,22.22,-0.03621558197888234,-0.05965535383316618,-0.001064650843716541,0.60822,-0.18639,9.80019
5530302975,22.22,-0.03515093113516579,-0.06710790973918197,0.001064650843716541,0.6768900000000001,-0.30411,9.91791
5535353480,22.22,-0.033021629447732716,-0.06923721142661506,-0.001064650843716541,0.73575,-0.35316,9.937529999999999
5540403985,22.22,-0.01811651763570114,-0.060720004676882725,-0.003193952531149623,0.80442,-0.40221,9.78057
5545454490,22.22,-0.004258603374866164,-0.05007349623971732,-0.001064650843716541,0.8338500000000001,-0.38259000000000004,9.68247
5550504995,22.22,0.007452555906015787,-0.03515093113516579,0.0,0.89271,-0.35316,9.73152
5555555500,22.22,0.021310470166850764,-0.012775810124598492,0.0,0.8829,-0.26487,9.85905
5560606005,22.22,0.02982767691658309,0.015987215948268057,0.0,0.85347,-0.18639,9.89829
5565656510,22.22,0.03728023282259888,0.046879543708567686,0.003193952531149623,0.80442,-0.11772,9.79038
5570707015,22.22,0.03728023282259888,0.07456046564519776,0.002129301687433082,0.70632,-0.019620000000000002,9.66285
5575757520,22.22,0.02982767691658309,0.10012953918691468,0.001064650843716541,0.6180300000000001,0.05886,9.7119
5580808025,22.22,0.01918116847941768,0.1097288500728835,0.005323254218582705,0.51993,0.11772,9.83943
5585858530,22.22,0.002129301687433082,0.11824605682261582,0.002129301687433082,0.45126,0.12753,9.98658
5590909035,22.22,-0.012775810124598492,0.1097288500728835,0.005323254218582705,0.36297,0.06867000000000001,9.86886
5595959540,22.22,-0.02769837522915001,0.08841837990603273,0.001064650843716541,0.27468000000000004,-0.019620000000000002,9.751140000000001
5601010045,22.22,-0.04260348704118158,0.05646140130201656,0.0,0.24525000000000002,-0.10791,9.68247
5606060550,22.22,-0.05007349623971732,0.020245819323134222,0.0,0.23544,-0.20601000000000003,9.74133
5611111055,22.22,-0.05113814708343386,-0.00958185759344887,0.0,0.2943,-0.32373,9.89829
5616161560,22.22,-0.04366813788489812,-0.039409534510031964,0.0,0.35316,-0.38259000000000004,10.006200000000002
5621212065,22.22,-0.03621558197888234,-0.06604325889546543,0.001064650843716541,0.40221,-0.41202000000000005,9.908100000000001
5626262570,22.22,-0.01811651763570114,-0.07990117315630041,-0.003193952531149623,0.47088,-0.45126,9.751140000000001
5631313075,22.22,0.001064650843716541,-0.09267698328089889,-0.003193952531149623,0.5395500000000001,-0.43164,9.751140000000001
5636363580,22.22,0.01918116847941768,-0.09693558665576507,-0.002129301687433082,0.63765,-0.40221,9.84924
5641414085,22.22,0.03408628029144926,-0.08628907821859966,-0.002129301687433082,0.72594,-0.34335000000000004,9.888480000000001
5646464590,22.22,0.04581489286485115,-0.07243116395776468,-0.002129301687433082,0.75537,-0.22563,9.86886
5651515095,22.22,0.05113814708343386,-0.049008845396000776,-0.002129301687433082,0.7749900000000001,-0.14715,9.751140000000001
5656565600,22.22,0.05326744877086694,-0.022375121010567305,0.0,0.74556,-0.05886,9.72171
5661616105,22.22,0.05007349623971732,-0.003193952531149623,0.0,0.72594,0.039240000000000004,9.760950000000001
5666666610,22.22,0.0404741853537485,0.015987215948268057,0.003193952531149623,0.69651,0.12753,9.82962
5671717115,22.22,0.02663372438543347,0.020245819323134222,0.0,0.6768900000000001,0.12753,9.86886
5676767620,22.22,0.008517206749732328,0.02982767691658309,0.0,0.65727,0.06867000000000001,9.79038
5681818125,22.22,-0.01064650843716541,0.02556907354171693,-0.001064650843716541,0.59841,0.04905,9.72171
5686868630,22.22,-0.028763026072866547,0.013840460968315033,0.0,0.60822,-0.02943,9.72171
5691919135,22.22,-0.039409534510031964,0.0,0.001064650843716541,0.60822,-0.11772,9.79038
5696969640,22.22,-0.04366813788489812,-0.01064650843716541,0.001064650843716541,0.6278400000000001,-0.18639,9.86886
5702020145,22.22,-0.044732788728614664,-0.012775810124598492,-0.002129301687433082,0.6768900000000001,-0.26487,9.888480000000001
5707070650,22.22,-0.039409534510031964,-0.0170518667919846,0.0,0.69651,-0.34335000000000004,9.83943
5712121155,22.22,-0.03089232776029963,-0.014905111812031574,-0.002129301687433082,0.71613,-0.3924,9.74133
5717171660,22.22,-0.014905111812031574,-0.01064650843716541,0.0,0.7651800000000001,-0.3924,9.74133
5722222165,22.22,-0.001064650843716541,-0.004258603374866164,0.0,0.74556,-0.3924,9.80019
5727272670,22.22,0.01064650843716541,0.003193952531149623,0.0,0.72594,-0.31392000000000003,9.84924
5732323175,22.22,0.023439771854283843,0.022375121010567305,0.0,0.71613,-0.22563,9.85905
5737373680,22.22,0.031956978604016174,0.04153883619746504,0.001064650843716541,0.6670800000000001,-0.12753,9.79038
5742424185,22.22,0.03515093113516579,0.06284930636431581,0.003193952531149623,0.60822,-0.06867000000000001,9.760950000000001
5747474690,22.22,0.033021629447732716,0.07990117315630041,0.002129301687433082,0.52974,0.039240000000000004,9.80019
5752525195,22.22,0.01918116847941768,0.08841837990603273,0.005323254218582705,0.44145,0.04905,9.86886
5757575700,22.22,0.006387905062299246,0.09054768159346581,0.006387905062299246,0.40221,0.06867000000000001,9.84924
5762626205,22.22,-0.008517206749732328,0.0756251164889143,0.001064650843716541,0.32373,0.02943,9.78057
5767676710,22.22,-0.01918116847941768,0.05326744877086694,0.001064650843716541,0.27468000000000004,-0.019620000000000002,9.73152
5772727215,22.22,-0.02982767691658309,0.02982767691658309,0.001064650843716541,0.24525000000000002,-0.06867000000000001,9.79038
5777777720,22.22,-0.03408628029144926,-0.001064650843716541,0.0,0.26487,-0.14715,9.86886
5782828225,22.22,-0.03834488366631542,-0.028763026072866547,-0.002129301687433082,0.30411,-0.26487,9.908100000000001
5787878730,22.22,-0.03834488366631542,-0.05859070298944965,-0.004258603374866164,0.41202000000000005,-0.33354000000000006,9.85905
5792929235,22.22,-0.028763026072866547,-0.07883652231258387,-0.004258603374866164,0.47088,-0.3924,9.81
5797979740,22.22,-0.013840460968315033,-0.08948303074974927,-0.003193952531149623,0.5493600000000001,-0.42183,9.78057
5803030245,22.22,0.003193952531149623,-0.09161233243718235,-0.001064650843716541,0.6278400000000001,-0.41202000000000005,9.85905
5808080750,22.22,0.020245819323134222,-0.08841837990603273,-0.002129301687433082,0.70632,-0.38259000000000004,9.80019
5813131255,22.22,0.03089232776029963,-0.07883652231258387,-0.001064650843716541,0.75537,-0.30411,9.81
5818181760,22.22,0.0404741853537485,-0.06923721142661506,0.0,0.80442,-0.22563,9.78057
5823232265,22.22,0.046879543708567686,-0.049008845396000776,0.003193952531149623,0.8142300000000001,-0.12753,9.83943
5828282770,22.22,0.046879543708567686,-0.02663372438543347,0.002129301687433082,0.8142300000000001,-0.04905,9.85905
5833333275,22.22,0.044732788728614664,0.0,0.0,0.80442,0.0,9.82962
5838383780,22.22,0.03621558197888234,0.024504422698000388,0.0,0.75537,0.05886,9.70209
5843434285,22.22,0.022375121010567305,0.039409534510031964,0.002129301687433082,0.71613,0.10791,9.68247
5848484790,22.22,0.006387905062299246,0.05113814708343386,0.004258603374866164,0.64746,0.10791,9.72171
5853535295,22.22,-0.008517206749732328,0.04794419455228423,0.001064650843716541,0.60822,0.04905,9.86886
5858585800,22.22,-0.028763026072866547,0.044732788728614664,0.0,0.59841,0.0,9.908100000000001
5863636305,22.22,-0.039409534510031964,0.03515093113516579,0.0,0.57879,-0.07848000000000001,9.83943
5868686810,22.22,-0.04153883619746504,0.024504422698000388,0.0,0.5395500000000001,-0.17658,9.69228
5873737315,22.22,-0.04366813788489812,0.008517206749732328,0.0,0.5591700000000001,-0.23544,9.70209
5878787820,22.22,-0.04260348704118158,-0.005323254218582705,0.001064650843716541,0.56898,-0.34335000000000004,9.79038
5883838325,22.22,-0.039409534510031964,-0.0170518667919846,-0.001064650843716541,0.60822,-0.37278,9.94734
5888888830,22.22,-0.028763026072866547,-0.020245819323134222,0.0,0.6670800000000001,-0.40221,9.98658
5893939335,22.22,-0.007452555906015787,-0.01811651763570114,0.0,0.6867000000000001,-0.42183,9.83943
5898989840,22.22,0.008517206749732328,-0.0170518667919846,-0.002129301687433082,0.6768900000000001,-0.35316,9.66285
5904040345,22.22,0.022375121010567305,-0.007452555906015787,0.0,0.6867000000000001,-0.2943,9.68247
5909090850,22.22,0.03408628029144926,0.004258603374866164,0.001064650843716541,0.6670800000000001,-0.20601000000000003,9.82962
5914141355,22.22,0.03621558197888234,0.021310470166850764,0.001064650843716541,0.65727,-0.0981,9.94734
5919191860,22.22,0.03089232776029963,0.03728023282259888,0.004258603374866164,0.6278400000000001,-0.039240000000000004,9.92772
5924242365,22.22,0.02556907354171693,0.04794419455228423,0.002129301687433082,0.56898,0.019620000000000002,9.760950000000001
5929292870,22.22,0.020245819323134222,0.05007349623971732,0.002129301687433082,0.49050000000000005,0.02943,9.64323
5934343375,22.22,0.01064650843716541,0.046879543708567686,0.004258603374866164,0.46107000000000004,0.05886,9.72171
5939393880,22.22,0.0,0.039409534510031964,0.002129301687433082,0.41202000000000005,0.04905,9.86886
5944444385,22.22,-0.013840460968315033,0.03515093113516579,0.001064650843716541,0.40221,-0.019620000000000002,9.98658
5949494890,22.22,-0.02982767691658309,0.024504422698000388,0.001064650843716541,0.38259000000000004,-0.11772,9.84924
5954545395,22.22,-0.033021629447732716,0.006387905062299246,0.001064650843716541,0.37278,-0.15696000000000002,9.68247
5959595900,22.22,-0.03515093113516579,-0.011711159280881954,0.001064650843716541,0.40221,-0.25506,9.69228
5964646405,22.22,-0.031956978604016174,-0.03834488366631542,0.0,0.45126,-0.28449,9.86886
5969696910,22.22,-0.022375121010567305,-0.05646140130201656,-0.001064650843716541,0.52974,-0.36297,9.94734
5974747415,22.22,-0.011711159280881954,-0.06817256058289851,-0.002129301687433082,0.57879,-0.37278,9.888480000000001
5979797920,22.22,0.001064650843716541,-0.06817256058289851,-0.003193952531149623,0.6278400000000001,-0.37278,9.770760000000001
5984848425,22.22,0.01064650843716541,-0.06497860805174888,-0.001064650843716541,0.6768900000000001,-0.35316,9.7119
5989898930,22.22,0.022375121010567305,-0.054332099614583476,0.0,0.70632,-0.26487,9.760950000000001
5994949435,22.22,0.03089232776029963,-0.03834488366631542,-0.002129301687433082,0.7749900000000001,-0.20601000000000003,9.87867
5999999940,22.22,0.03728023282259888,-0.024504422698000388,0.0,0.7848,-0.11772,9.91791
6005050445,22.22,0.04153883619746504,-0.008517206749732328,0.001064650843716541,0.75537,-0.04905,9.79038
6010100950,22.22,0.03621558197888234,0.002129301687433082,0.001064650843716541,0.74556,0.0,9.68247
6015151455,22.22,0.028763026072866547,0.014905111812031574,0.0,0.69651,0.039240000000000004,9.751140000000001
6020201960,22.22,0.012775810124598492,0.02982767691658309,-0.001064650843716541,0.6867000000000001,0.039240000000000004,9.84924
6025252465,22.22,0.003193952531149623,0.044732788728614664,0.0,0.63765,0.009810000000000001,9.84924
6030302970,22.22,-0.00958185759344887,0.05646140130201656,0.001064650843716541,0.5886,0.0,9.760950000000001
6035353475,22.22,-0.022375121010567305,0.05539675045830002,0.002129301687433082,0.5493600000000001,-0.02943,9.70209
6040403980,22.22,-0.02769837522915001,0.04366813788489812,0.0,0.50031,-0.07848000000000001,9.770760000000001
6045454485,22.22,-0.03515093113516579,0.02663372438543347,0.002129301687433082,0.51012,-0.15696000000000002,9.86886
6050504990,22.22,-0.039409534510031964,0.006387905062299246,-0.003193952531149623,0.51012,-0.26487,9.937529999999999
6055555495,22.22,-0.039409534510031964,-0.005323254218582705,-0.001064650843716541,0.52974,-0.33354000000000006,9.84924
6060606000,22.28,-0.02982767691658309,-0.0170518667919846,-0.001064650843716541,0.5591700000000001,-0.38259000000000004,9.760950000000001
6065656505,22.28,-0.01811651763570114,-0.024504422698000388,-0.003193952531149623,0.52974,-0.37278,9.7119
6070707010,22.28,0.0,-0.03089232776029963,-0.001064650843716541,0.6180300000000001,-0.3924,9.81
6075757515,22.28,0.011711159280881954,-0.028763026072866547,0.0,0.6670800000000001,-0.31392000000000003,9.87867
6080808020,22.28,0.021310470166850764,-0.02769837522915001,0.001064650843716541,0.65727,-0.26487,9.87867
6085858525,22.28,0.03089232776029963,-0.01811651763570114,0.0,0.6670800000000001,-0.20601000000000003,9.85905
6090909030,22.28,0.03621558197888234,-0.01064650843716541,0.0,0.65727,-0.15696000000000002,9.79038
6095959535,22.28,0.03408628029144926,-0.005323254218582705,0.0,0.6867000000000001,-0.07848000000000001,9.74133
6101010040,22.28,0.03089232776029963,0.006387905062299246,0.0,0.64746,-0.019620000000000002,9.760950000000001
6106060545,22.28,0.01811651763570114,0.023439771854283843,0.0,0.59841,0.019620000000000002,9.819809999999999
6111111050,22.28,0.015987215948268057,0.03728023282259888,0.002129301687433082,0.57879,0.009810000000000001,9.80019
6116161555,22.28,0.003193952531149623,0.04366813788489812,0.006387905062299246,0.51993,0.02943,9.80019
6121212060,22.28,-0.008517206749732328,0.044732788728614664,0.001064650843716541,0.49050000000000005,0.0,9.81
6126262565,22.28,-0.01918116847941768,0.02982767691658309,0.001064650843716541,0.46107000000000004,-0.05886,9.82962
6131313070,22.28,-0.03089232776029963,0.00958185759344887,0.0,0.46107000000000004,-0.14715,9.83943
6136363575,22.28,-0.033021629447732716,-0.006387905062299246,0.0,0.49050000000000005,-0.21582,9.85905
6141414080,22.28,-0.033021629447732716,-0.02663372438543347,-0.002129301687433082,0.5395500000000001,-0.2943,9.819809999999999
6146464585,22.28,-0.02769837522915001,-0.044732788728614664,-0.001064650843716541,0.57879,-0.34335000000000004,9.760950000000001
6151515090,22.28,-0.015987215948268057,-0.05113814708343386,0.0,0.6180300000000001,-0.35316,9.79038
6156565595,22.28,-0.003193952531149623,-0.04794419455228423,0.0,0.6768900000000001,-0.36297,9.81
6161616100,22.28,0.01064650843716541,-0.03515093113516579,0.0,0.74556,-0.33354000000000006,9.83943
6166666605,22.28,0.021310470166850764,-0.028763026072866547,0.0,0.72594,-0.26487,9.84924
6171717110,22.28,0.02556907354171693,-0.013840460968315033,0.0,0.75537,-0.18639,9.84924
6176767615,22.28,0.031956978604016174,-0.002129301687433082,0.001064650843716541,0.70632,-0.13734000000000002,9.751140000000001
6181818120,22.28,0.03515093113516579,0.013840460968315033,0.0,0.6867000000000001,-0.05886,9.72171
6186868625,22.28,0.033021629447732716,0.028763026072866547,0.003193952531149623,0.65727,-0.009810000000000001,9.78057
6191919130,22.28,0.023439771854283843,0.044732788728614664,0.002129301687433082,0.6180300000000001,0.019620000000000002,9.82962
6196969635,22.28,0.008517206749732328,0.05007349623971732,0.002129301687433082,0.5591700000000001,0.039240000000000004,9.819809999999999
6202020140,22.28,-0.003193952531149623,0.05220279792715039,0.003193952531149623,0.51012,0.02943,9.82962
6207070645,22.28,-0.011711159280881954,0.04366813788489812,0.0,0.47088,0.0,9.819809999999999
6212121150,22.28,-0.022375121010567305,0.033021629447732716,0.0,0.46107000000000004,-0.06867000000000001,9.81
6217171655,22.28,-0.02982767691658309,0.020245819323134222,0.002129301687433082,0.44145,-0.16677000000000003,9.81
6222222160,22.28,-0.03515093113516579,0.007452555906015787,-0.001064650843716541,0.44145,-0.20601000000000003,9.78057
6227272665,22.28,-0.033021629447732716,-0.007452555906015787,0.0,0.46107000000000004,-0.30411,9.760950000000001
6232323170,22.28,-0.02769837522915001,-0.0170518667919846,0.001064650843716541,0.50031,-0.31392000000000003,9.79038
6237373675,22.28,-0.01918116847941768,-0.031956978604016174,0.0,0.5395500000000001,-0.36297,9.87867
6242424180,22.28,-0.006387905062299246,-0.046879543708567686,0.0,0.57879,-0.36297,9.91791
6247474685,22.28,0.007452555906015787,-0.05326744877086694,-0.001064650843716541,0.6180300000000001,-0.31392000000000003,9.86886
6252525190,22.28,0.015987215948268057,-0.05965535383316618,-0.003193952531149623,0.6867000000000001,-0.30411,9.78057
6257575695,22.28,0.02556907354171693,-0.05113814708343386,-0.001064650843716541,0.69651,-0.23544,9.74133
6262626200,22.28,0.03408628029144926,-0.03515093113516579,0.0,0.72594,-0.18639,9.78057
6267676705,22.28,0.03728023282259888,-0.013840460968315033,0.0,0.74556,-0.12753,9.81
6272727210,22.28,0.03515093113516579,0.00958185759344887,0.002129301687433082,0.72594,-0.04905,9.80019
6277777715,22.28,0.031956978604016174,0.02982767691658309,0.001064650843716541,0.6670800000000001,0.019620000000000002,9.79038
6282828220,22.28,0.020245819323134222,0.054332099614583476,0.0,0.6180300000000001,0.06867000000000001,9.770760000000001
6287878725,22.28,0.01064650843716541,0.06284930636431581,0.004258603374866164,0.57879,0.08829,9.79038
6292929230,22.28,-0.004258603374866164,0.06391395720803235,0.001064650843716541,0.48069000000000006,0.039240000000000004,9.79038
6297979735,22.28,-0.0170518667919846,0.05220279792715039,0.003193952531149623,0.44145,0.0,9.79038
6303030240,22.28,-0.03515093113516579,0.03408628029144926,-0.001064650843716541,0.43164,-0.05886,9.819809999999999
6308080745,22.28,-0.039409534510031964,0.011711159280881954,0.001064650843716541,0.42183,-0.17658,9.819809999999999
6313131250,22.28,-0.039409534510031964,-0.014905111812031574,-0.001064650843716541,0.46107000000000004,-0.26487,9.81
6318181755,22.28,-0.03728023282259888,-0.04153883619746504,-0.003193952531149623,0.51993,-0.34335000000000004,9.84924
6323232260,22.28,-0.02769837522915001,-0.05539675045830002,-0.002129301687433082,0.57879,-0.38259000000000004,9.85905
6328282765,22.28,-0.014905111812031574,-0.06497860805174888,-0.002129301687433082,0.6278400000000001,-0.41202000000000005,9.89829
6333333270,22.28,-0.001064650843716541,-0.06178465552059926,-0.002129301687433082,0.6867000000000001,-0.40221,9.819809999999999
6338383775,22.28,0.01064650843716541,-0.05326744877086694,-0.001064650843716541,0.72594,-0.35316,9.79038
6343434280,22.28,0.023439771854283843,-0.0404741853537485,0.0,0.73575,-0.31392000000000003,9.74133
6348484785,22.28,0.03408628029144926,-0.022375121010567305,0.0,0.7651800000000001,-0.21582,9.73152
6353535290,22.28,0.04581489286485115,0.0,0.0,0.7651800000000001,-0.0981,9.82962
6358585795,22.28,0.04153883619746504,0.021310470166850764,-0.001064650843716541,0.72594,-0.039240000000000004,9.87867
6363636300,22.28,0.03834488366631542,0.03834488366631542,0.002129301687433082,0.6768900000000001,0.02943,9.86886
6368686805,22.28,0.023439771854283843,0.05646140130201656,0.001064650843716541,0.6180300000000001,0.06867000000000001,9.80019
6373737310,22.28,0.01064650843716541,0.06604325889546543,0.003193952531149623,0.5493600000000001,0.0981,9.73152
6378787815,22.28,-0.002129301687433082,0.06923721142661506,0.002129301687433082,0.51993,0.05886,9.67266
6383838320,22.28,-0.015987215948268057,0.05752605214573309,0.004258603374866164,0.43164,-0.009810000000000001,9.73152
6388888825,22.28,-0.02982767691658309,0.04581489286485115,0.002129301687433082,0.42183,-0.05886,9.84924
6393939330,22.28,-0.04260348704118158,0.02663372438543347,0.0,0.41202000000000005,-0.13734000000000002,9.91791
6398989835,22.28,-0.04366813788489812,0.005323254218582705,0.0,0.41202000000000005,-0.23544,9.86886
6404040340,22.28,-0.04366813788489812,-0.020245819323134222,-0.001064650843716541,0.46107000000000004,-0.31392000000000003,9.819809999999999
6409090845,22.28,-0.03515093113516579,-0.03621558197888234,-0.002129301687433082,0.52974,-0.3924,9.80019
6414141350,22.28,-0.022375121010567305,-0.05539675045830002,-0.003193952531149623,0.5395500000000001,-0.41202000000000005,9.81
6419191855,22.28,-0.008517206749732328,-0.05646140130201656,-0.001064650843716541,0.59841,-0.42183,9.82962
6424242360,22.28,0.008517206749732328,-0.05539675045830002,-0.003193952531149623,0.6670800000000001,-0.38259000000000004,9.819809999999999
6429292865,22.28,0.023439771854283843,-0.04581489286485115,-0.001064650843716541,0.69651,-0.30411,9.81
6434343370,22.28,0.033021629447732716,-0.0404741853537485,0.001064650843716541,0.70632,-0.27468000000000004,9.84924
6439393875,22.28,0.04260348704118158,-0.02663372438543347,0.0,0.73575,-0.16677000000000003,9.819809999999999
6444444380,22.28,0.04581489286485115,-0.012775810124598492,0.0,0.73575,-0.07848000000000001,9.83943
6449494885,22.28,0.04366813788489812,-0.003193952531149623,0.0,0.71613,0.009810000000000001,9.81
6454545390,22.28,0.033021629447732716,0.006387905062299246,0.0,0.70632,0.019620000000000002,9.819809999999999
6459595895,22.28,0.021310470166850764,0.01918116847941768,0.0,0.65727,0.039240000000000004,9.751140000000001
6464646400,22.28,0.007452555906015787,0.028763026072866547,0.0,0.64746,0.02943,9.7119
6469696905,22.28,-0.004258603374866164,0.03834488366631542,0.003193952531149623,0.5886,0.0,9.73152
6474747410,22.28,-0.015987215948268057,0.044732788728614664,0.002129301687433082,0.5591700000000001,0.0,9.80019
6479797915,22.28,-0.028763026072866547,0.04366813788489812,0.001064650843716541,0.5591700000000001,-0.06867000000000001,9.85905
6484848420,22.28,-0.03621558197888234,0.04366813788489812,0.0,0.51012,-0.12753,9.87867
6489898925,22.28,-0.03728023282259888,0.02982767691658309,0.0,0.50031,-0.20601000000000003,9.81
6494949430,22.28,-0.03728023282259888,0.012775810124598492,0.0,0.48069000000000006,-0.26487,9.72171
6499999935,22.28,-0.031956978604016174,-0.002129301687433082,0.0,0.48069000000000006,-0.33354000000000006,9.73152
6505050440,22.28,-0.023439771854283843,-0.015987215948268057,0.001064650843716541,0.52974,-0.34335000000000004,9.83943
6510100945,22.28,-0.00958185759344887,-0.02982767691658309,0.0,0.57879,-0.36297,9.92772
6515151450,22.28,0.0,-0.033021629447732716,-0.002129301687433082,0.60822,-0.37278,9.888480000000001
6520201955,22.28,0.011711159280881954,-0.03515093113516579,-0.001064650843716541,0.63765,-0.30411,9.80019
6525252460,22.28,0.023439771854283843,-0.028763026072866547,0.0,0.63765,-0.21582,9.760950000000001
6530302965,22.28,0.03089232776029963,-0.0170518667919846,0.0,0.6278400000000001,-0.16677000000000003,9.81
6535353470,22.28,0.033021629447732716,-0.005323254218582705,0.0,0.65727,-0.12753,9.819809999999999
6540403975,22.28,0.03089232776029963,0.0,0.0,0.63765,-0.07848000000000001,9.83943
6545454480,22.28,0.023439771854283843,0.0,0.002129301687433082,0.6180300000000001,-0.02943,9.79038
6550504985,22.28,0.0170518667919846,0.0,0.002129301687433082,0.60822,-0.019620000000000002,9.80019
6555555490,22.28,0.00958185759344887,0.0,0.0,0.59841,0.0,9.80019
6560605995,22.28,0.001064650843716541,0.004258603374866164,0.0,0.6278400000000001,-0.039240000000000004,9.84924
6565656500,22.28,-0.00958185759344887,0.011711159280881954,-0.001064650843716541,0.6180300000000001,-0.07848000000000001,9.81
6570707005,22.28,-0.01811651763570114,0.01811651763570114,0.001064650843716541,0.59841,-0.11772,9.80019
6575757510,22.28,-0.022375121010567305,0.028763026072866547,0.001064650843716541,0.57879,-0.13734000000000002,9.73152
6580808015,22.28,-0.021310470166850764,0.02982767691658309,0.0,0.5591700000000001,-0.17658,9.72171
6585858520,22.28,-0.022375121010567305,0.031956978604016174,0.002129301687433082,0.5395500000000001,-0.20601000000000003,9.819809999999999
6590909025,22.28,-0.01918116847941768,0.024504422698000388,0.001064650843716541,0.52974,-0.23544,9.86886
6595959530,22.28,-0.012775810124598492,0.020245819323134222,0.001064650843716541,0.51012,-0.27468000000000004,9.82962
6601010035,22.28,-0.006387905062299246,0.01064650843716541,0.0,0.50031,-0.23544,9.760950000000001
6606060540,22.28,-0.001064650843716541,-0.005323254218582705,0.0,0.49050000000000005,-0.25506,9.80019
6611111045,22.28,0.003193952531149623,-0.013840460968315033,-0.001064650843716541,0.50031,-0.20601000000000003,9.86886
6616161550,22.28,0.008517206749732328,-0.02663372438543347,0.0,0.5395500000000001,-0.21582,9.83943
6621212055,22.28,0.00958185759344887,-0.03728023282259888,0.0,0.56898,-0.20601000000000003,9.81
6626262560,22.28,0.014905111812031574,-0.04366813788489812,0.0,0.6180300000000001,-0.1962,9.79038
6631313065,22.28,0.013840460968315033,-0.046879543708567686,0.0,0.65727,-0.16677000000000003,9.81
6636363570,22.28,0.015987215948268057,-0.03515093113516579,0.0,0.6768900000000001,-0.13734000000000002,9.86886
6641414075,22.28,0.015987215948268057,-0.020245819323134222,0.0,0.69651,-0.11772,9.86886
6646464580,22.28,0.014905111812031574,-0.01064650843716541,0.0,0.69651,-0.11772,9.770760000000001
6651515085,22.28,0.011711159280881954,0.001064650843716541,0.0,0.6670800000000001,-0.07848000000000001,9.72171
6656565590,22.28,0.005323254218582705,0.004258603374866164,0.0,0.65727,-0.0981,9.80019
6661616095,22.28,0.0,0.004258603374866164,0.0,0.65727,-0.08829,9.87867
6666666600,22.28,-0.003193952531149623,0.002129301687433082,0.0,0.64746,-0.12753,9.888480000000001
6671717105,22.28,-0.008517206749732328,0.0,0.0,0.6670800000000001,-0.16677000000000003,9.81
6676767610,22.28,-0.01064650843716541,0.0,0.0,0.6768900000000001,-0.15696000000000002,9.73152
6681818115,22.28,-0.007452555906015787,0.005323254218582705,0.0,0.6670800000000001,-0.18639,9.73152
6686868620,22.28,-0.004258603374866164,0.01811651763570114,0.0,0.6670800000000001,-0.16677000000000003,9.78057
6691919125,22.28,-0.002129301687433082,0.028763026072866547,0.0,0.60822,-0.18639,9.82962
6696969630,22.28,-0.005323254218582705,0.03728023282259888,0.0,0.59841,-0.18639,9.83943
6702020135,22.28,-0.002129301687433082,0.03515093113516579,0.0,0.5591700000000001,-0.15696000000000002,9.751140000000001
6707070640,22.28,0.0,0.02663372438543347,0.0,0.52974,-0.17658,9.760950000000001
6712121145,22.28,-0.002129301687433082,0.01918116847941768,0.0,0.49050000000000005,-0.15696000000000002,9.819809999999999
6717171650,22.28,-0.002129301687433082,0.005323254218582705,0.0,0.52974,-0.15696000000000002,9.86886
6722222155,22.28,-0.003193952531149623,-0.001064650843716541,0.0,0.51012,-0.17658,9.888480000000001
6727272660,22.28,-0.003193952531149623,-0.002129301687433082,0.0,0.5395500000000001,-0.17658,9.82962
6732323165,22.28,-0.002129301687433082,0.0,0.0,0.51993,-0.20601000000000003,9.770760000000001
6737373670,22.28,0.0,0.004258603374866164,0.0,0.50031,-0.1962,9.751140000000001
6742424175,22.28,-0.002129301687433082,0.005323254218582705,0.0,0.5395500000000001,-0.17658,9.83943
6747474680,22.28,0.0,0.001064650843716541,0.0,0.51012,-0.1962,9.87867
6752525185,22.28,0.001064650843716541,-0.006387905062299246,0.0,0.5395500000000001,-0.18639,9.85905
6757575690,22.28,0.001064650843716541,-0.014905111812031574,0.0,0.52974,-0.18639,9.84924
6762626195,22.28,0.0,-0.01918116847941768,0.0,0.52974,-0.1962,9.80019
6767676700,22.28,0.001064650843716541,-0.02556907354171693,0.0,0.56898,-0.1962,9.770760000000001
6772727205,22.28,0.003193952531149623,-0.02663372438543347,0.0,0.60822,-0.1962,9.81
6777777710,22.28,0.004258603374866164,-0.021310470166850764,0.0,0.63765,-0.15696000000000002,9.83943
