#timestamp [ns], temperature [degC], w_RS_S_x [rad s^-1], w_RS_S_y [rad s^-1], w_RS_S_z [rad s^-1], a_RS_S_x [m s^-2], a_RS_S_y [m s^-2], a_RS_S_z [m s^-2]
0.0,22.28,0.0,0.0,0.0,0.07848,0.33354,9.87867
5000000.0,22.28,0.0,0.0,0.0,0.07848,0.284980499514405,9.927229500485597
10000000.0,22.28,0.0,0.0,0.0,0.059252399611523995,0.31333140058271397,9.918106199805761
15000000.0,22.28,0.0,0.0,0.0,0.03982859941728599,0.32343570029135704,9.908394299708641
20000000.0,22.28,0.0,0.0,0.0,0.04865760038847601,0.30489479922304796,9.9081
25000000.0,22.28,0.0,0.0,0.0,0.077008501456785,0.332068501456785,9.9081
30000000.0,22.28,0.0,0.0,0.0,0.07848,0.351982801165428,9.86199299708643
35000000.0,22.28,0.0,0.0,0.0,0.09672660135966601,0.35316,9.8864199020395
40000000.0,22.28,0.0,0.0,0.0,0.07102439766914398,0.35316,9.879454799223048
45000000.0,22.28,0.0,0.0,0.0,0.077597100874071,0.32637869737778696,9.896524201748141
50000000.0,22.28,0.0,0.0,0.0,0.06965099902880999,0.33255900097119,9.915948001942379
55000000.0,22.28,0.0,0.0,0.0,0.05993909893169099,0.324809098931691,9.900448197863382
60000000.0,22.28,0.0,0.0,0.0,0.09339120466171205,0.332362801165428,9.906922801165427
65000000.0,22.28,0.0,0.0,0.0,0.07249589621235895,0.31647059747490597,9.873961194949812
70000000.0,22.28,0.0,0.0,0.0,0.051796797280667974,0.33079320271933205,9.843550195921003
75000000.0,22.28,0.0,0.0,0.0,0.09074250728392508,0.341878501456785,9.83943
80000000.0,22.28,0.0,0.0,0.0,0.06513839378438394,0.3186287953382879,9.897112810877328
85000000.0,22.28,0.0,0.0,0.0,0.05886,0.31392,9.9081
90000000.0,22.28,0.0,0.0,0.0,0.05886,0.32196420174814205,9.940276806992568
95000000.0,22.28,0.0,0.0,0.0,0.07475220369052203,0.31578389815473895,9.93144779630948
100000000.0,22.28,0.0,0.0,0.0,0.06278399611523997,0.34531200776952004,9.91202399611524
105000000.0,22.28,0.0,0.0,0.0,0.07435980407899803,0.360909902039499,9.877100391842003
110000000.0,22.28,0.0,0.0,0.0,0.06317639572676395,0.355318197863382,9.86886
115000000.0,22.28,0.0,0.0,0.0,0.06641370223373702,0.34560629776626295,9.86886
120000000.0,22.28,0.0,0.0,0.0,0.05375879533828795,0.3135275906765759,9.86886
125000000.0,22.28,0.0,0.0,0.0,0.04905,0.31882500485595006,9.913005014567851
130000000.0,22.28,0.0,0.0,0.0,0.05630940252509403,0.330989402525094,9.913201194949812
135000000.0,22.28,0.0,0.0,0.0,0.05886,0.33354,9.915261302622213
140000000.0,22.28,0.0,0.0,0.0,0.051796797280667974,0.3123503918420039,9.896720391842003
145000000.0,22.28,0.0,0.0,0.0,0.04905,0.3180402056329021,9.88848
150000000.0,22.28,0.0,0.0,0.0,0.05591700291357003,0.32373,9.88848
155000000.0,22.28,0.0,0.0,0.0,0.06562890301068902,0.34403670903206707,9.88171109698931
160000000.0,22.28,0.0,0.0,0.0,0.07534080310780802,0.33981839378438394,9.885340803107807
165000000.0,22.28,0.0,0.0,0.0,0.09162540640985406,0.32039459359014594,9.895052703204927
170000000.0,22.28,0.0,0.0,0.0,0.0786761900938619,0.3268692066040921,9.904764603302045
175000000.0,22.28,0.0,0.0,0.0,0.06867,0.3207869932016699,9.89534699320167
180000000.0,22.28,0.0,0.0,0.0,0.05611319300743193,0.32647680699256804,9.907315210488852
185000000.0,22.28,0.0,0.0,0.0,0.06141060718680607,0.33972030359340305,9.89936908921979
190000000.0,22.28,0.0,0.0,0.0,0.06258779630947796,0.3615966110715661,9.882397796309478
195000000.0,22.28,0.0,0.0,0.0,0.05287589621235896,0.3428594810617948,9.860717688637077
200000000.0,22.28,0.0,0.0,0.0,0.06670801165428011,0.3355020077695201,9.86689801165428
205000000.0,22.28,0.0,0.0,0.0,0.06690419203624191,0.32019838407248385,9.87288209601812
210000000.0,22.28,0.0,0.0,0.0,0.07592941223699412,0.30979980407899804,9.891619216315991
215000000.0,22.28,0.0,0.0,0.0,0.08269829582388295,0.30832829582388294,9.9081
220000000.0,22.28,0.0,0.0,0.0,0.06199918718029187,0.32608441709294417,9.9081
225000000.0,22.28,0.0,0.0,0.0,0.059841008740710085,0.3325589912592899,9.891913486888935
230000000.0,22.28,0.0,0.0,0.0,0.07396740446747405,0.3343248089349481,9.883967404467473
235000000.0,22.28,0.0,0.0,0.0,0.07328069543540695,0.34335,9.883280695435406
240000000.0,22.28,0.0,0.0,0.0,0.06867,0.34845120466171203,9.863366386014864
245000000.0,22.28,0.0,0.0,0.0,0.07367310475883104,0.33815068572350687,9.874255523794154
250000000.0,22.28,0.0,0.0,0.0,0.08338500485595005,0.31882499514404994,9.9081000097119
255000000.0,22.28,0.0,0.0,0.0,0.0786761900938619,0.31392,9.90829619009386
260000000.0,22.28,0.0,0.0,0.0,0.06867,0.32804641515056415,9.902998805050187
265000000.0,22.28,0.0,0.0,0.0,0.06405929485269295,0.3341285897053859,9.894267884558078
270000000.0,22.28,0.0,0.0,0.0,0.06337260524442605,0.33726781573327813,9.87867
275000000.0,22.28,0.0,0.0,0.0,0.06425549465845494,0.35316,9.883084505341545
280000000.0,22.28,0.0,0.0,0.0,0.06749281087732811,0.3488435945613359,9.879847189122671
285000000.0,22.28,0.0,0.0,0.0,0.07426169446421693,0.33491338892843386,9.889951527678916
290000000.0,22.28,0.0,0.0,0.0,0.08103061689870616,0.31136938310129386,9.91791
295000000.0,22.28,0.0,0.0,0.0,0.08603368280993683,0.29832210573002105,9.925954211460041
300000000.0,22.28,0.0,0.0,0.0,0.07259400582714005,0.3158820174814202,9.93753
305000000.0,22.28,0.0,0.0,0.0,0.07848,0.3411918118485181,9.929878188151482
310000000.0,22.28,0.0,0.0,0.0,0.07475219397862193,0.3494321939786219,9.89927096989311
315000000.0,22.28,0.0,0.0,0.0,0.07592941223699412,0.33972029388150293,9.86886
320000000.0,22.28,0.0,0.0,0.0,0.08475839378438393,0.3441348186468482,9.861796787568768
325000000.0,22.28,0.0,0.0,0.0,0.07161298737452987,0.3526694810617948,9.86297402525094
330000000.0,22.28,0.0,0.0,0.0,0.06219540640985406,0.3302045935901459,9.891815406409853
335000000.0,22.28,0.0,0.0,0.0,0.07190730650697306,0.3269673065069731,9.901527306506972
340000000.0,22.28,0.0,0.0,0.0,0.08475841320818413,0.33040079339590794,9.91123920660409
345000000.0,22.28,0.0,0.0,0.0,0.08593557319515574,0.3298122134024221,9.923992213402421
350000000.0,22.28,0.0,0.0,0.0,0.05886,0.3492360135966601,9.92575797280668
355000000.0,22.28,0.0,0.0,0.0,0.06454981379089814,0.36012509310455093,9.886910372418203
360000000.0,22.28,0.0,0.0,0.0,0.07023957902229579,0.3504131930074319,9.861796806992569
365000000.0,22.28,0.0,0.0,0.0,0.051698707089687074,0.3354038787309388,9.871508707089687
370000000.0,22.28,0.0,0.0,0.0,0.06141060718680607,0.31392,9.888872428747224
375000000.0,22.28,0.0,0.0,0.0,0.06376498543214985,0.32373002913570026,9.920362507283924
380000000.0,22.28,0.0,0.0,0.0,0.05140440738104408,0.34845118523791185,9.92772
385000000.0,22.28,0.0,0.0,0.0,0.05886,0.34030892243448924,9.925463692521838
390000000.0,22.28,0.0,0.0,0.0,0.06101820757528208,0.3586535848494359,9.909277169698871
395000000.0,22.28,0.0,0.0,0.0,0.06867,0.34128989232759893,9.87867
400000000.0,22.28,0.0,0.0,0.0,0.07259401553904016,0.33942602330856025,9.87474598446096
405000000.0,22.28,0.0,0.0,0.0,0.08642609213336092,0.3555143685334437,9.857186092133361
410000000.0,22.28,0.0,0.0,0.0,0.07671419203624191,0.32196419203624194,9.861600655746306
415000000.0,22.28,0.0,0.0,0.0,0.07033770806087708,0.3122522919391229,9.916242291939122
420000000.0,22.28,0.0,0.0,0.0,0.07848,0.30567960815799605,9.912808824473988
425000000.0,22.28,0.0,0.0,0.0,0.07700849174488492,0.31833452476534524,9.933115475234656
430000000.0,22.28,0.0,0.0,0.0,0.06729659164776591,0.34335,9.906726591647764
435000000.0,22.28,0.0,0.0,0.0,0.05886,0.3446253084493531,9.89446407465194
440000000.0,22.28,0.0,0.0,0.0,0.060037208546472084,0.3519827914535279,9.870037208546472
445000000.0,22.28,0.0,0.0,0.0,0.06759089135640892,0.34335,9.877590891356409
450000000.0,22.28,0.0,0.0,0.0,0.057878991259289914,0.3413879825185798,9.87278403496284
455000000.0,22.28,0.0,0.0,0.0,0.04905,0.3219641823243418,9.905451273486513
460000000.0,22.28,0.0,0.0,0.0,0.05061961786989618,0.3048948089349481,9.879454808934948
465000000.0,22.28,0.0,0.0,0.0,0.06935670903206709,0.31598012709620127,9.889853418064133
470000000.0,22.28,0.0,0.0,0.0,0.07671417261244172,0.34393860912918606,9.906334172612441
475000000.0,22.28,0.0,0.0,0.0,0.05052152767891528,0.35463152767891526,9.879160509226304
480000000.0,22.28,0.0,0.0,0.0,0.0780875906765759,0.38102036270630363,9.887695181353152
485000000.0,22.28,0.0,0.0,0.0,0.06896430942054309,0.3436443094205431,9.869448618841085
490000000.0,22.28,0.0,0.0,0.0,0.07848,0.35257137144701367,9.88848
495000000.0,22.28,0.0,0.0,0.0,0.0783818903852189,0.32373,9.888774328844343
500000000.0,22.28,0.0,0.0,0.0,0.0686700097119001,0.32373000971190014,9.9179100097119
505000000.0,22.28,0.0,0.0,0.0,0.07838190980901909,0.3334419098090191,9.92762190980902
510000000.0,22.28,0.0,0.0,0.0,0.07848,0.3239261900938619,9.879650950469308
515000000.0,22.28,0.0,0.0,0.0,0.0499328699902287,0.3522771300097713,9.888185710003256
520000000.0,22.28,0.0,0.0,0.0,0.04905,0.35316,9.879062389899623
525000000.0,22.28,0.0,0.0,0.0,0.0676890203949902,0.35316,9.869350489802505
530000000.0,22.28,0.0,0.0,0.0,0.0778914102946141,0.35316,9.850417179410773
535000000.0,22.28,0.0,0.0,0.0,0.0876033103917331,0.3349133792165338,9.8766099311752
540000000.0,22.28,0.0,0.0,0.0,0.08829,0.3425652104888521,9.896720420977704
545000000.0,22.28,0.0,0.0,0.0,0.043654447070144466,0.3254957788280578,9.916144221171942
550000000.0,22.28,0.0,0.0,0.0,0.08338505341545052,0.32373,9.91791
555000000.0,22.28,0.0,0.0,0.0,0.08829,0.32373,9.90044817843958
560000000.0,22.28,0.0,0.0,0.0,0.053758756490687565,0.3323628108773281,9.881024378245343
565000000.0,22.28,0.0,0.0,0.0,0.06611942194889421,0.3420747109744471,9.870135289025553
570000000.0,22.28,0.0,0.0,0.0,0.0771066110715661,0.34335,9.860423388928433
575000000.0,22.28,0.0,0.0,0.0,0.06180297766262978,0.3350114888313149,9.867388511168684
580000000.0,22.28,0.0,0.0,0.0,0.08358123379741234,0.31705917746839174,9.91006205632902
585000000.0,22.28,0.0,0.0,0.0,0.06386306591123066,0.3302046227258462,9.926052311362923
590000000.0,22.28,0.0,0.0,0.0,0.0669042114600421,0.33354,9.92772
595000000.0,22.28,0.0,0.0,0.0,0.08456222311432222,0.3573783346714834,9.887989442214193
600000000.0,22.28,0.0,0.0,0.0,0.08829,0.3472739766914398,9.89436602330856
605000000.0,22.28,0.0,0.0,0.0,0.07279017649720176,0.3510999117513991,9.867290352994404
610000000.0,22.28,0.0,0.0,0.0,0.08397362369703623,0.3455081881514819,9.866701811848518
615000000.0,22.28,0.0,0.0,0.0,0.05807515221745152,0.3357962880543629,9.89152113583691
620000000.0,22.28,0.0,0.0,0.0,0.05650561204275612,0.31862877591448774,9.913201224085512
625000000.0,22.28,0.0,0.0,0.0,0.06621751213987512,0.32127751213987515,9.91791
630000000.0,22.28,0.0,0.0,0.0,0.05415117552601176,0.31647058776300585,9.910650587763005
635000000.0,22.28,0.0,0.0,0.0,0.056211312334113125,0.33540393700233934,9.893777375331773
640000000.0,22.28,0.0,0.0,0.0,0.06592321243123211,0.3645396372936964,9.881416787568767
645000000.0,22.28,0.0,0.0,0.0,0.07563511252835112,0.35884977494329773,9.857774662414947
650000000.0,22.28,0.0,0.0,0.0,0.08534701262547012,0.34629298737452985,9.86297402525094
655000000.0,22.28,0.0,0.0,0.0,0.08152108727741086,0.34335,9.895935650890356
660000000.0,22.28,0.0,0.0,0.0,0.07848,0.31666674872116746,9.921441625639417
665000000.0,22.28,0.0,0.0,0.0,0.07848,0.3106827129168271,9.947438138750481
670000000.0,22.28,0.0,0.0,0.0,0.07848,0.31392,9.937726160958162
675000000.0,22.28,0.0,0.0,0.0,0.07210348688893486,0.3394260524442605,9.908590460666804
680000000.0,22.28,0.0,0.0,0.0,0.037277933959079336,0.34060317358363174,9.885733173583631
685000000.0,22.28,0.0,0.0,0.0,0.05670187983181879,0.3520809399159094,9.87867
690000000.0,22.28,0.0,0.0,0.0,0.07239778659757785,0.35688778659757786,9.866505573195155
695000000.0,22.28,0.0,0.0,0.0,0.07465411349954112,0.34717588650045883,9.877002340498622
700000000.0,22.28,0.0,0.0,0.0,0.08436601359666013,0.3256919592100196,9.917910067983302
705000000.0,22.28,0.0,0.0,0.0,0.08250208630622086,0.31392,9.920166258918663
710000000.0,22.28,0.0,0.0,0.0,0.07848,0.31960981379089815,9.902410186209101
715000000.0,22.28,0.0,0.0,0.0,0.06729657222396572,0.31813828611198286,9.909473427776033
720000000.0,22.28,0.0,0.0,0.0,0.05886,0.32490722797027227,9.890441930074319
725000000.0,22.28,0.0,0.0,0.0,0.05886,0.3443310281645103,9.86886
730000000.0,22.28,0.0,0.0,0.0,0.06945482835874828,0.3425651716412517,9.879454828358748
735000000.0,22.28,0.0,0.0,0.0,0.07328068572350685,0.3283406857235069,9.88848
740000000.0,22.28,0.0,0.0,0.0,0.05846757125277571,0.3084263568791636,9.883378785626387
745000000.0,22.28,0.0,0.0,0.0,0.04905,0.3043062289414623,9.898682457882924
750000000.0,22.28,0.0,0.0,0.0,0.05395501456785015,0.32373002913570026,9.92281501456785
755000000.0,22.28,0.0,0.0,0.0,0.06366691466496914,0.33354,9.918106170670061
760000000.0,22.28,0.0,0.0,0.0,0.06396118523791185,0.3288311852379119,9.893973555713735
765000000.0,22.28,0.0,0.0,0.0,0.07269214457762144,0.3421728594368286,9.869448570281586
770000000.0,22.28,0.0,0.0,0.0,0.0792647700873477,0.3539447700873477,9.85905
775000000.0,22.28,0.0,0.0,0.0,0.06867,0.3345209698931097,9.872293545160336
780000000.0,22.28,0.0,0.0,0.0,0.06867,0.32373,9.897112830301127
785000000.0,22.28,0.0,0.0,0.0,0.06867,0.31107505425695053,9.9081
790000000.0,22.28,0.0,0.0,0.0,0.07279021534480215,0.2943,9.903979784655197
795000000.0,22.28,0.0,0.0,0.0,0.07445788455807884,0.31441057720960575,9.906334230883841
800000000.0,22.28,0.0,0.0,0.0,0.08044204661712047,0.3355019689219197,9.898289922304798
805000000.0,22.28,0.0,0.0,0.0,0.08662225309152254,0.32373,9.876511831272317
810000000.0,22.28,0.0,0.0,0.0,0.07239781573327815,0.33491344719983446,9.88848
815000000.0,22.28,0.0,0.0,0.0,0.07485028416960283,0.35678971583039715,9.881220568339206
820000000.0,22.28,0.0,0.0,0.0,0.0757332318550323,0.3523751522174515,9.875923231855031
825000000.0,22.28,0.0,0.0,0.0,0.08829,0.33354,9.90221406409854
830000000.0,22.28,0.0,0.0,0.0,0.08495458387824584,0.32686916775649166,9.92772
835000000.0,22.28,0.0,0.0,0.0,0.08171731621887315,0.3236319486566195,9.918008051343381
840000000.0,22.28,0.0,0.0,0.0,0.0788723510520235,0.34962843263198434,9.901429216315991
845000000.0,22.28,0.0,0.0,0.0,0.06494223282622233,0.36905223282622235,9.892894417934444
850000000.0,22.28,0.0,0.0,0.0,0.08436603302046033,0.3708179339590793,9.85610698348977
855000000.0,22.28,0.0,0.0,0.0,0.0895652501779525,0.32912541696325415,9.854929833214698
860000000.0,22.28,0.0,0.0,0.0,0.06867,0.30528726681787266,9.871606816704467
865000000.0,22.28,0.0,0.0,0.0,0.07396743360317433,0.32824256639682564,9.88661615040476
870000000.0,22.28,0.0,0.0,0.0,0.08829,0.31647061689870615,9.910650616898705
875000000.0,22.28,0.0,0.0,0.0,0.08829,0.32373,9.915457483004174
880000000.0,22.28,0.0,0.0,0.0,0.08358116581411165,0.32373,9.903391165814112
885000000.0,22.28,0.0,0.0,0.0,0.06867,0.3259863171900632,9.879454731239747
890000000.0,22.28,0.0,0.0,0.0,0.07082821728718217,0.33354,9.851398217287182
895000000.0,22.28,0.0,0.0,0.0,0.07848,0.3438405869215059,9.867290469537204
900000000.0,22.28,0.0,0.0,0.0,0.08044201748142017,0.3727799125928991,9.89829
905000000.0,22.28,0.0,0.0,0.0,0.08456216484292164,0.33167608242146085,9.903881752735618
910000000.0,22.28,0.0,0.0,0.0,0.06867,0.32373,9.92772
915000000.0,22.28,0.0,0.0,0.0,0.07033771777277717,0.3270654355455544,9.919381411136115
920000000.0,22.28,0.0,0.0,0.0,0.07848,0.3417803821301038,9.880239617869895
925000000.0,22.28,0.0,0.0,0.0,0.07553696406596963,0.33501151796701517,9.885536964065968
930000000.0,22.28,0.0,0.0,0.0,0.05886,0.34335,9.871606836128269
935000000.0,22.28,0.0,0.0,0.0,0.060135318161253185,0.3446253181612532,9.887204681838746
940000000.0,22.28,0.0,0.0,0.0,0.06513834522488345,0.34962834522488345,9.882201654775116
945000000.0,22.28,0.0,0.0,0.0,0.04139823671098236,0.32373,9.905941763289016
950000000.0,22.28,0.0,0.0,0.0,0.05787898154738982,0.3217679630947796,9.89142305535783
955000000.0,22.28,0.0,0.0,0.0,0.050815837099458375,0.30499291854972915,9.918792918549729
960000000.0,22.28,0.0,0.0,0.0,0.06945481864684819,0.31548963729369633,9.924580725412607
965000000.0,22.28,0.0,0.0,0.0,0.07779328125603281,0.3342267187439672,9.887793281256032
970000000.0,22.28,0.0,0.0,0.0,0.06984723768217237,0.34335,9.87867
975000000.0,22.28,0.0,0.0,0.0,0.08681844318538443,0.3428594810617948,9.877688962123589
980000000.0,22.28,0.0,0.0,0.0,0.05964483807064838,0.33354,9.859834838070649
985000000.0,22.28,0.0,0.0,0.0,0.0781856808675568,0.3326570426026704,9.87955295739733
990000000.0,22.28,0.0,0.0,0.0,0.06867,0.3046986576886866,9.90829621922956
995000000.0,22.28,0.0,0.0,0.0,0.0685718806733188,0.3334418806733188,9.917811880673318
1000000000.0,22.28,0.0,0.0,0.0,0.05886,0.3237300194238002,9.908099941728599
1005000000.0,22.28,0.0,0.0,0.0,0.05886,0.33344191952091917,9.878964241437242
1010000000.0,22.28,0.0,0.0,0.0,0.05886,0.3239261803819618,9.888283819618037
1015000000.0,22.28,0.0,0.0,0.0,0.06837571971515718,0.3522771591454716,9.897995719715157
1020000000.0,22.28,0.0,0.0,0.0,0.0592523801877238,0.3625776198122762,9.860619520750895
1025000000.0,22.28,0.0,0.0,0.0,0.0495404800906048,0.34433096018120957,9.87768903981879
1030000000.0,22.28,0.0,0.0,0.0,0.0674928400130284,0.3064643199739432,9.897112840013028
1035000000.0,22.28,0.0,0.0,0.0,0.06867,0.3132333201036332,9.916536640207266
1040000000.0,22.28,0.0,0.0,0.0,0.06867,0.3409956606022566,9.91791
1045000000.0,22.28,0.0,0.0,0.0,0.0508157594042576,0.3165686391063864,9.900055759404257
1050000000.0,22.28,0.0,0.0,0.0,0.04905,0.358065101974951,9.88946097960501
1055000000.0,22.28,0.0,0.0,0.0,0.0665118409842184,0.37170092049210923,9.897210920492109
1060000000.0,22.28,0.0,0.0,0.0,0.08593564117845641,0.37278,9.881024358821543
1065000000.0,22.28,0.0,0.0,0.0,0.07975527931365278,0.33864111725461116,9.887204720686347
1070000000.0,22.28,0.0,0.0,0.0,0.061606758433067586,0.33354,9.905353241566932
1075000000.0,22.28,0.0,0.0,0.0,0.05886,0.2835088747164887,9.9081
1080000000.0,22.28,0.0,0.0,0.0,0.0671004209777042,0.3158821048885211,9.92458084195541
1085000000.0,22.28,0.0,0.0,0.0,0.06867,0.34001464214964644,9.90329303677553
1090000000.0,22.28,0.0,0.0,0.0,0.060625778828057794,0.3353057788280578,9.89829
1095000000.0,22.28,0.0,0.0,0.0,0.06680612126906121,0.3494322425381224,9.874451636192816
1100000000.0,22.28,0.0,0.0,0.0,0.09221406409854065,0.36885604273236045,9.87670802136618
1105000000.0,22.28,0.0,0.0,0.0,0.09035007853670078,0.3650300785367008,9.847670314146804
1110000000.0,22.28,0.0,0.0,0.0,0.08063817843958178,0.3476663568791636,9.877689107802091
1115000000.0,22.28,0.0,0.0,0.0,0.08603372165753721,0.3206888350273883,9.903587443315073
1120000000.0,22.28,0.0,0.0,0.0,0.06592313473603134,0.31392,9.923011243509313
1125000000.0,22.28,0.0,0.0,0.0,0.07357504370355043,0.3433500874071008,9.905647434444674
1130000000.0,22.28,0.0,0.0,0.0,0.07122057805110578,0.34590057805110574,9.883771156102211
1135000000.0,22.28,0.0,0.0,0.0,0.07583132204601321,0.3505113220460132,9.87867
1140000000.0,22.28,0.0,0.0,0.0,0.08554322214313222,0.35316,9.885733222143132
1145000000.0,22.28,0.0,0.0,0.0,0.08829,0.3322646332792463,9.881514877759749
1150000000.0,22.28,0.0,0.0,0.0,0.07455595532525955,0.34433106701211064,9.88553702233737
1155000000.0,22.28,0.0,0.0,0.0,0.061901077565510776,0.3260843102620431,9.902017844868977
1160000000.0,22.28,0.0,0.0,0.0,0.05218917746839178,0.2872367098735671,9.9081
1165000000.0,22.28,0.0,0.0,0.0,0.06876816788618167,0.3206890584010906,9.901527277371272
1170000000.0,22.28,0.0,0.0,0.0,0.07848,0.3368753772741538,9.89829
1175000000.0,22.28,0.0,0.0,0.0,0.07848,0.3399165228229652,9.88553695435407
1180000000.0,22.28,0.0,0.0,0.0,0.07848,0.3621852687602527,9.866113154159832
1185000000.0,22.28,0.0,0.0,0.0,0.07229967698279677,0.34187838491398387,9.865230323017203
1190000000.0,22.28,0.0,0.0,0.0,0.06867,0.32981222311432223,9.874942223114322
1195000000.0,22.28,0.0,0.0,0.0,0.08063824642288246,0.3275558767885588,9.902606492845765
1200000000.0,22.28,0.0,0.0,0.0,0.0706319300743193,0.31784397669143977,9.92379602330856
1205000000.0,22.28,0.0,0.0,0.0,0.0762237702170377,0.30813207659432074,9.916144153188641
1210000000.0,22.28,0.0,0.0,0.0,0.07691035299440352,0.3268692940111929,9.9024101764972
1215000000.0,22.28,0.0,0.0,0.0,0.07426172359991723,0.34335,9.881514829200247
1220000000.0,22.28,0.0,0.0,0.0,0.07298637630296376,0.3488436236970362,9.863366376302963
1225000000.0,22.28,0.0,0.0,0.0,0.06327447620584477,0.3423689524116895,9.864445523794155
1230000000.0,22.28,0.0,0.0,0.0,0.06945484778254847,0.32824257610872576,9.86886
1235000000.0,22.28,0.0,0.0,0.0,0.07328067601160676,0.31333135202321355,9.889657295953572
1240000000.0,22.28,0.0,0.0,0.0,0.06356877591448776,0.32961612042756117,9.918302448171024
1245000000.0,22.28,0.0,0.0,0.0,0.06386312418263124,0.3381506274521063,9.912710627452107
1250000000.0,22.28,0.0,0.0,0.0,0.07357502427975024,0.3335400485595005,9.9081000485595
1255000000.0,22.28,0.0,0.0,0.0,0.07848,0.3529638487537385,9.893875378115654
1260000000.0,22.28,0.0,0.0,0.0,0.07377117552601176,0.3582611755260118,9.864151175526011
1265000000.0,22.28,0.0,0.0,0.0,0.07789144914221449,0.3439385508577855,9.868271449142215
1270000000.0,22.28,0.0,0.0,0.0,0.0792647506635475,0.3245147506635475,9.87867
1275000000.0,22.28,0.0,0.0,0.0,0.07308452476534524,0.31392,9.883084524765344
1280000000.0,22.28,0.0,0.0,0.0,0.07848,0.31392,9.892796424862464
1285000000.0,22.28,0.0,0.0,0.0,0.0700433500808335,0.3054833500808335,9.915163299838333
1290000000.0,22.28,0.0,0.0,0.0,0.06298022505670225,0.3231415753969158,9.93753
1295000000.0,22.28,0.0,0.0,0.0,0.07269212515382124,0.35090362453853624,9.909375123923251
1300000000.0,22.28,0.0,0.0,0.0,0.07455597474905974,0.3413880505018805,9.87670805050188
1305000000.0,22.28,0.0,0.0,0.0,0.07249592534805925,0.3493340746519407,9.884654074651941
1310000000.0,22.28,0.0,0.0,0.0,0.06729652366446523,0.3321665236644652,9.882397825445178
1315000000.0,22.28,0.0,0.0,0.0,0.059939176626891764,0.3211794510845945,9.88848
1320000000.0,22.28,0.0,0.0,0.0,0.07141674872116749,0.3264767487211675,9.899074876918249
1325000000.0,22.28,0.0,0.0,0.0,0.06229352573653526,0.31735352573653525,9.928210577209605
1330000000.0,22.28,0.0,0.0,0.0,0.06867,0.3270654258336543,9.930662870831728
1335000000.0,22.28,0.0,0.0,0.0,0.07514465186154651,0.3400146518615465,9.885340696276906
1340000000.0,22.28,0.0,0.0,0.0,0.08829,0.35316,9.862189226027892
1345000000.0,22.28,0.0,0.0,0.0,0.08829,0.3440366216249662,9.874942252250023
1350000000.0,22.28,0.0,0.0,0.0,0.08240394755573947,0.3296160524442605,9.885536973777869
1355000000.0,22.28,0.0,0.0,0.0,0.06867,0.3405050736807507,9.884359852638498
1360000000.0,22.28,0.0,0.0,0.0,0.06867,0.32804634716726344,9.901036826416368
1365000000.0,22.28,0.0,0.0,0.0,0.06337254697302547,0.3165687265134873,9.910748726513486
1370000000.0,22.28,0.0,0.0,0.0,0.0567018798318188,0.33393250644242506,9.91791
1375000000.0,22.28,0.0,0.0,0.0,0.08093252670772526,0.35806494658454946,9.910552419876824
1380000000.0,22.28,0.0,0.0,0.0,0.09299885360968853,0.33864114639031145,9.879062292780622
1385000000.0,22.28,0.0,0.0,0.0,0.09888469239214692,0.32147367309803676,9.851496326901962
1390000000.0,22.28,0.0,0.0,0.0,0.07298645399816453,0.3203946809972468,9.865524680997247
1395000000.0,22.28,0.0,0.0,0.0,0.07798936451899365,0.3454101270962013,9.892600254192402
1400000000.0,22.28,0.0,0.0,0.0,0.045126081579960814,0.3433498640333986,9.9081
1405000000.0,22.28,0.0,0.0,0.0,0.07053392729043927,0.30783785458087853,9.909963927290438
1410000000.0,22.28,0.0,0.0,0.0,0.07671417261244172,0.3254958273875583,9.919675827387557
1415000000.0,22.28,0.0,0.0,0.0,0.06700227251532272,0.33020454503064545,9.919381362576614
1420000000.0,22.28,0.0,0.0,0.0,0.06199925516359255,0.3186288827453888,9.87867
1425000000.0,22.28,0.0,0.0,0.0,0.08289458303674582,0.34629305535783056,9.877198472321083
1430000000.0,22.28,0.0,0.0,0.0,0.10791,0.36022314444793146,9.870233427776034
1435000000.0,22.28,0.0,0.0,0.0,0.10535934425369345,0.3420746721268467,9.87867
1440000000.0,22.28,0.0,0.0,0.0,0.08475831608918316,0.3288310881189109,9.88455613985136
1445000000.0,22.28,0.0,0.0,0.0,0.05993912806739128,0.29861651226956515,9.924482615797826
1450000000.0,22.28,0.0,0.0,0.0,0.06670794367097943,0.3355020563290206,9.90025205632902
1455000000.0,22.28,0.0,0.0,0.0,0.04993292826162929,0.35316,9.91614414347674
1460000000.0,22.28,0.0,0.0,0.0,0.05886,0.3523751716412517,9.896720343282503
1465000000.0,22.28,0.0,0.0,0.0,0.06092018536760185,0.34335,9.877983271544132
1470000000.0,22.28,0.0,0.0,0.0,0.08652411434104114,0.34217274289402744,9.869448628552986
1475000000.0,22.28,0.0,0.0,0.0,0.059841057300210575,0.3252015859503159,9.87867
1480000000.0,22.28,0.0,0.0,0.0,0.07926485749444857,0.35159028501110284,9.880632143736122
1485000000.0,22.28,0.0,0.0,0.0,0.09662835577828356,0.31480298653302985,9.927131342311315
1490000000.0,22.28,0.0,0.0,0.0,0.04963868682438687,0.3431537710585377,9.908296228941461
1495000000.0,22.28,0.0,0.0,0.0,0.07848,0.3334418709614187,9.917517483845675
1500000000.0,22.28,0.0,0.0,0.0,0.07848,0.3237301165428012,9.8786700291357
1505000000.0,22.28,0.0,0.0,0.0,0.07848,0.36257771693127716,9.88838192923282
1510000000.0,22.28,0.0,0.0,0.0,0.10732148798981489,0.32451468268024686,9.859638512010186
1515000000.0,22.28,0.0,0.0,0.0,0.0888785411458854,0.3332457294270573,9.849534270572942
1520000000.0,22.28,0.0,0.0,0.0,0.0694547409516474,0.3241223704758237,9.896328147620881
1525000000.0,22.28,0.0,0.0,0.0,0.05003094075740941,0.3330495296212953,9.926248588863887
1530000000.0,22.28,0.0,0.0,0.0,0.06749285943682859,0.3150971405631714,9.909277140563171
1535000000.0,22.28,0.0,0.0,0.0,0.0595466701844667,0.3047966701844667,9.926346659631067
1540000000.0,22.28,0.0,0.0,0.0,0.06788522991265229,0.3311856897379569,9.89161908034939
1545000000.0,22.28,0.0,0.0,0.0,0.0775971300097713,0.35139426001954255,9.879552869990228
1550000000.0,22.28,0.0,0.0,0.0,0.0608219397862194,0.3619890301068903,9.843353879572438
1555000000.0,22.28,0.0,0.0,0.0,0.0850527906120279,0.3455081395919814,9.865622790612028
1560000000.0,22.28,0.0,0.0,0.0,0.07965716969887168,0.34335,9.903391321204513
1565000000.0,22.28,0.0,0.0,0.0,0.07848,0.3262805392035054,9.9081
1570000000.0,22.28,0.0,0.0,0.0,0.06160673900926739,0.31529336950463366,9.924973260990733
1575000000.0,22.28,0.0,0.0,0.0,0.0671985305924853,0.3222585305924853,9.91104293881503
1580000000.0,22.28,0.0,0.0,0.0,0.09339129206881293,0.3319704306896043,9.9081
1585000000.0,22.28,0.0,0.0,0.0,0.08995766921327669,0.33354,9.867388346066383
1590000000.0,22.28,0.0,0.0,0.0,0.08829,0.33354,9.851005769116158
1595000000.0,22.28,0.0,0.0,0.0,0.05650547607615476,0.3573783929428839,9.873078392942883
1600000000.0,22.28,0.0,0.0,0.0,0.08044212431232124,0.34727393784383936,9.87082196892192
1605000000.0,22.28,0.0,0.0,0.0,0.07279013764960138,0.3356000688248007,9.892109793525597
1610000000.0,22.28,0.0,0.0,0.0,0.08397366254463662,0.33354,9.913593662544637
1615000000.0,22.28,0.0,0.0,0.0,0.06562880589168806,0.33354,9.925463731369438
1620000000.0,22.28,0.0,0.0,0.0,0.06631563146655631,0.3409956314665563,9.912808737066888
1625000000.0,22.28,0.0,0.0,0.0,0.05395493687264937,0.3507075315636753,9.915457531563675
1630000000.0,22.28,0.0,0.0,0.0,0.07082829498238294,0.3676788633215886,9.874353410035233
1635000000.0,22.28,0.0,0.0,0.0,0.08564133175791332,0.3441346729683467,9.866211331757913
1640000000.0,22.28,0.0,0.0,0.0,0.06710030443490304,0.33354,9.882986463710065
1645000000.0,22.28,0.0,0.0,0.0,0.06582513195215131,0.3265748680478487,9.881514868047848
1650000000.0,22.28,0.0,0.0,0.0,0.06867,0.30999593590145935,9.89240406409854
1655000000.0,22.28,0.0,0.0,0.0,0.06190106785361068,0.31764786429277864,9.918596796439168
1660000000.0,22.28,0.0,0.0,0.0,0.07220166448701665,0.33040083224350836,9.92772
1665000000.0,22.28,0.0,0.0,0.0,0.07190726765937266,0.34011273234062733,9.894856338296863
1670000000.0,22.28,0.0,0.0,0.0,0.062195367562253676,0.34335,9.872195367562254
1675000000.0,22.28,0.0,0.0,0.0,0.06523653253486532,0.33059693493026937,9.856106934930269
1680000000.0,22.28,0.0,0.0,0.0,0.08750529789595299,0.34256529789595297,9.868075297895953
1685000000.0,22.28,0.0,0.0,0.0,0.0981,0.33461900181269,9.891030665458207
1690000000.0,22.28,0.0,0.0,0.0,0.08593553434755534,0.3176477671737777,9.910454465652444
1695000000.0,22.28,0.0,0.0,0.0,0.06651173415331735,0.3258882658466826,9.905941734153316
1700000000.0,22.28,0.0,0.0,0.0,0.05886,0.3217679339590793,9.886517933959079
1705000000.0,22.28,0.0,0.0,0.0,0.07622379935273799,0.32549586623515864,9.884457933117579
1710000000.0,22.28,0.0,0.0,0.0,0.071220500355905,0.350609499644095,9.882790166785302
1715000000.0,22.28,0.0,0.0,0.0,0.08122693324726933,0.35178653337636534,9.884261733311817
1720000000.0,22.28,0.0,0.0,0.0,0.09260636659106367,0.3543372668178727,9.877492733182127
1725000000.0,22.28,0.0,0.0,0.0,0.08829,0.3413878659757787,9.87965106701211
1730000000.0,22.28,0.0,0.0,0.0,0.07239769919047699,0.3290274336031743,9.904372300809522
1735000000.0,22.28,0.0,0.0,0.0,0.053660666299706665,0.33354,9.91791
1740000000.0,22.28,0.0,0.0,0.0,0.05415123379741234,0.3233375324051753,9.907707532405174
1745000000.0,22.28,0.0,0.0,0.0,0.05886,0.31892313389453136,9.883280598316405
1750000000.0,22.28,0.0,0.0,0.0,0.05886,0.32863503399165034,9.87376503399165
1755000000.0,22.28,0.0,0.0,0.0,0.07808773635507736,0.34796080226630804,9.87386306591123
1760000000.0,22.28,0.0,0.0,0.0,0.08397349744233498,0.3535523316282233,9.873568834185887
1765000000.0,22.28,0.0,0.0,0.0,0.07789146856601468,0.3341285314339853,9.887891468566014
1770000000.0,22.28,0.0,0.0,0.0,0.09280263438012634,0.31019209685962096,9.889264731239747
1775000000.0,22.28,0.0,0.0,0.0,0.08927093104550932,0.30312906895449065,9.88749906895449
1780000000.0,22.28,0.0,0.0,0.0,0.06553069627690696,0.32686930372309303,9.902606434574365
1785000000.0,22.28,0.0,0.0,0.0,0.057486669342966694,0.3264766613140666,9.899663330657033
1790000000.0,22.28,0.0,0.0,0.0,0.08103070430580704,0.32471117384301174,9.884359765231396
1795000000.0,22.28,0.0,0.0,0.0,0.08603359540283595,0.3451157302685573,9.874647865134278
1800000000.0,22.28,0.0,0.0,0.0,0.08044210488852105,0.3296159650371597,9.86101193007432
1805000000.0,22.28,0.0,0.0,0.0,0.09427406494004065,0.32373,9.864543740239837
1810000000.0,22.28,0.0,0.0,0.0,0.07710649452876495,0.32000216484292165,9.907119175785391
1815000000.0,22.28,0.0,0.0,0.0,0.0661194705083947,0.31392,9.919381323729013
1820000000.0,22.28,0.0,0.0,0.0,0.0714167292973673,0.31392,9.892011635351317
1825000000.0,22.28,0.0,0.0,0.0,0.05886,0.33108767724217675,9.90515707089687
1830000000.0,22.28,0.0,0.0,0.0,0.06553087109110871,0.36297,9.904568257817782
1835000000.0,22.28,0.0,0.0,0.0,0.07524266435732664,0.3564953287146533,9.875432664357326
1840000000.0,22.28,0.0,0.0,0.0,0.06867,0.34335,9.865720764260207
1845000000.0,22.28,0.0,0.0,0.0,0.07475227167382271,0.34335,9.871214543347644
1850000000.0,22.28,0.0,0.0,0.0,0.08534696406596963,0.3345208921979089,9.895346964065968
1855000000.0,22.28,0.0,0.0,0.0,0.07848,0.31392,9.897014808093447
1860000000.0,22.28,0.0,0.0,0.0,0.07298632774346328,0.31666683612826835,9.920656836128268
1865000000.0,22.28,0.0,0.0,0.0,0.06415747245077473,0.3316762086761621,9.919773791323838
1870000000.0,22.28,0.0,0.0,0.0,0.07592936367749363,0.3480587273549873,9.895739363677492
1875000000.0,22.28,0.0,0.0,0.0,0.07112253641962536,0.33599253641962534,9.881122390741124
1880000000.0,22.28,0.0,0.0,0.0,0.0714166904497669,0.34335,9.861404436516745
1885000000.0,22.28,0.0,0.0,0.0,0.0558190098415901,0.33432465354454655,9.871116336613863
1890000000.0,22.28,0.0,0.0,0.0,0.07632176328901763,0.30626823671098236,9.880828236710983
1895000000.0,22.28,0.0,0.0,0.0,0.06867,0.31598013680810133,9.900840820848607
1900000000.0,22.28,0.0,0.0,0.0,0.06670796309477962,0.32373,9.937529815473898
1905000000.0,22.28,0.0,0.0,0.0,0.06258787400467875,0.32373,9.902017874004677
1910000000.0,22.28,0.0,0.0,0.0,0.08024583709945836,0.3272616741989168,9.910846651602165
1915000000.0,22.28,0.0,0.0,0.0,0.08495452560684524,0.34001452560684525,9.87867
1920000000.0,22.28,0.0,0.0,0.0,0.06710036270630362,0.3252996372936964,9.872391450825214
1925000000.0,22.28,0.0,0.0,0.0,0.061803074781630746,0.33648307478163075,9.845316149563262
1930000000.0,22.28,0.0,0.0,0.0,0.07710656251206562,0.34903968753619685,9.880043437487934
1935000000.0,22.28,0.0,0.0,0.0,0.06867,0.32245466241494664,9.891030675170105
1940000000.0,22.28,0.0,0.0,0.0,0.06867,0.31862895072868946,9.9081
1945000000.0,22.28,0.0,0.0,0.0,0.06867,0.3520808622207086,9.905941724441416
1950000000.0,22.28,0.0,0.0,0.0,0.06867,0.34531207575282075,9.886517924247178
1955000000.0,22.28,0.0,0.0,0.0,0.06867,0.3603211860794119,9.86886
1960000000.0,22.28,0.0,0.0,0.0,0.07102451421194514,0.3343248380706484,9.867290323858702
1965000000.0,22.28,0.0,0.0,0.0,0.09741326183223262,0.34128978549669786,9.85198695267107
1970000000.0,22.28,0.0,0.0,0.0,0.08770136173511361,0.31392,9.890834553059545
1975000000.0,22.28,0.0,0.0,0.0,0.07749892327598923,0.31392,9.92575784655198
1980000000.0,22.28,0.0,0.0,0.0,0.05925243845912439,0.3143124384591244,9.889264876918249
1985000000.0,22.28,0.0,0.0,0.0,0.0683756614437566,0.32373,9.908394338556242
1990000000.0,22.28,0.0,0.0,0.0,0.05886,0.3245149546134496,9.917517522693274
1995000000.0,22.28,0.0,0.0,0.0,0.05895813875048139,0.36297,9.898093722499036
2000000000.0,22.28,0.0,0.0,0.0,0.06867007769520077,0.36296992230479924,9.878670077695201
2005000000.0,22.28,0.0,0.0,0.0,0.08809387788943877,0.34354612211056124,9.898093877889439
2010000000.0,22.28,0.0,0.0,0.0,0.08829,0.32412232191632323,9.879062321916322
2015000000.0,22.28,0.0,0.0,0.0,0.05974278258312783,0.3046985217220852,9.87867
2020000000.0,22.28,0.0,0.0,0.0,0.07769527847215278,0.34178055694430554,9.954011113888612
2025000000.0,22.28,0.0,0.0,0.0,0.050521382000413825,0.3340304606668046,9.929191382000415
2030000000.0,22.28,0.0,0.0,0.0,0.06749287886062878,0.3243185605696856,9.90927712113937
2035000000.0,22.28,0.0,0.0,0.0,0.06867,0.3602233581097336,9.889853320945132
2040000000.0,22.28,0.0,0.0,0.0,0.0776952396245524,0.3539447603754476,9.85237904150179
2045000000.0,22.28,0.0,0.0,0.0,0.0695528602783286,0.32637858083498583,9.84924
2050000000.0,22.28,0.0,0.0,0.0,0.07749903981879039,0.3413880796375808,9.884556159275162
2055000000.0,22.28,0.0,0.0,0.0,0.0522871802522718,0.34335,9.879749060084091
2060000000.0,22.28,0.0,0.0,0.0,0.0749485200390852,0.3692485200390852,9.939099880091199
2065000000.0,22.28,0.0,0.0,0.0,0.1040842203304422,0.3386410395594104,9.930270519779706
2070000000.0,22.28,0.0,0.0,0.0,0.07416343917093439,0.3504132804145328,9.919283359792733
2075000000.0,22.28,0.0,0.0,0.0,0.0603314596956146,0.34482145969561456,9.901232919391228
2080000000.0,22.28,0.0,0.0,0.0,0.0753408808030088,0.34335,9.88180911919699
2085000000.0,22.28,0.0,0.0,0.0,0.0866223404986234,0.3352076595013766,9.862385319002753
2090000000.0,22.28,0.0,0.0,0.0,0.08829,0.3415842405957424,9.883182721787227
2095000000.0,22.28,0.0,0.0,0.0,0.08829,0.3354038593071386,9.912318422078583
2100000000.0,22.28,0.0,0.0,0.0,0.07259391842003918,0.33354,9.910061959210019
2105000000.0,22.28,0.0,0.0,0.0,0.06867,0.31804011822580114,9.9235998817742
2110000000.0,22.28,0.0,0.0,0.0,0.061018159015781594,0.3368755229526552,9.912416318031562
2115000000.0,22.28,0.0,0.0,0.0,0.05886,0.3357962589186626,9.900546258918663
2120000000.0,22.28,0.0,0.0,0.0,0.08122692353536923,0.3484512823569128,9.87592307646463
2125000000.0,22.28,0.0,0.0,0.0,0.07357491744884917,0.35316,9.861502458724424
2130000000.0,22.28,0.0,0.0,0.0,0.0759294413726944,0.34590055862730557,9.85905
2135000000.0,22.28,0.0,0.0,0.0,0.07848,0.3290273170603732,9.873372682939626
2140000000.0,22.28,0.0,0.0,0.0,0.07141675843306758,0.3166667584330676,9.892796483133864
2145000000.0,22.28,0.0,0.0,0.0,0.08260028332810283,0.31392,9.926150566656206
2150000000.0,22.28,0.0,0.0,0.0,0.08142295823882957,0.33452112528351124,9.93066295823883
2155000000.0,22.28,0.0,0.0,0.0,0.07171105814171058,0.3365810581417106,9.907413174425132
2160000000.0,22.28,0.0,0.0,0.0,0.06867,0.3468816839108168,9.89829
2165000000.0,22.28,0.0,0.0,0.0,0.04237903178989032,0.3465872579474726,9.878571773842417
2170000000.0,22.28,0.0,0.0,0.0,0.04885392644893927,0.33687535785035355,9.894758568598585
2175000000.0,22.28,0.0,0.0,0.0,0.07798962674029626,0.3271634577532346,9.9081
2180000000.0,22.28,0.0,0.0,0.0,0.0631762306244623,0.33628688468776885,9.9081
2185000000.0,22.28,0.0,0.0,0.0,0.05523034244100343,0.34335,9.9081
2190000000.0,22.28,0.0,0.0,0.0,0.07102448507624484,0.33118551492375514,9.9081
2195000000.0,22.28,0.0,0.0,0.0,0.07249585736475857,0.32971414263524146,9.914084142635241
2200000000.0,22.28,0.0,0.0,0.0,0.06867,0.34531208546472086,9.894365829070559
2205000000.0,22.28,0.0,0.0,0.0,0.07445794282947943,0.34737205717052055,9.890245885658958
2210000000.0,22.28,0.0,0.0,0.0,0.07848,0.3205906282936063,9.875530628293605
2215000000.0,22.28,0.0,0.0,0.0,0.07848,0.3208852290711523,9.870233486047434
2220000000.0,22.28,0.0,0.0,0.0,0.07298635687916356,0.32804635687916356,9.900644572483346
2225000000.0,22.28,0.0,0.0,0.0,0.057878913564089134,0.3021478271281783,9.923305543217955
2230000000.0,22.28,0.0,0.0,0.0,0.054347443315074434,0.3109772165753722,9.922422556684925
2235000000.0,22.28,0.0,0.0,0.0,0.05886,0.3387393434121934,9.907511313175613
2240000000.0,22.28,0.0,0.0,0.0,0.05886,0.34335,9.89829
2245000000.0,22.28,0.0,0.0,0.0,0.06886628721286286,0.34835314360643144,9.883280569180705
2250000000.0,22.28,0.0,0.0,0.0,0.08338504370355043,0.35316,9.86395495629645
2255000000.0,22.28,0.0,0.0,0.0,0.09309694380066943,0.34835305619933055,9.868663887601338
2260000000.0,22.28,0.0,0.0,0.0,0.08868231220442312,0.34335,9.87867
2265000000.0,22.28,0.0,0.0,0.0,0.07848,0.3202962800254628,9.89711297597963
2270000000.0,22.28,0.0,0.0,0.0,0.06042942363189423,0.30783793227607936,9.926935288184053
2275000000.0,22.28,0.0,0.0,0.0,0.061312720945727206,0.32373,9.928700911621709
2280000000.0,22.28,0.0,0.0,0.0,0.09260644428626444,0.3323628885725289,9.900644222854941
2285000000.0,22.28,0.0,0.0,0.0,0.09388165561661656,0.3517866887667669,9.87867
2290000000.0,22.28,0.0,0.0,0.0,0.08416975551949755,0.36297,9.874549755519498
2295000000.0,22.28,0.0,0.0,0.0,0.07848,0.36297,9.892992867465729
2300000000.0,22.28,0.0,0.0,0.0,0.08240404467474044,0.3433497766262978,9.92772
2305000000.0,22.28,0.0,0.0,0.0,0.0806381104562811,0.31392,9.92772
2310000000.0,22.28,0.0,0.0,0.0,0.07612568973795689,0.31019215513102155,9.916536465393065
2315000000.0,22.28,0.0,0.0,0.0,0.0737710201356102,0.3186289798643898,9.901919744966097
2320000000.0,22.28,0.0,0.0,0.0,0.059644935189649355,0.34688164506321645,9.89750506481035
2325000000.0,22.28,0.0,0.0,0.0,0.0716129096793291,0.35316,9.868369364518994
2330000000.0,22.28,0.0,0.0,0.0,0.062195445257454456,0.3598308905149089,9.859246335772363
2335000000.0,22.28,0.0,0.0,0.0,0.06867,0.3663053092908531,9.875432654645426
2340000000.0,22.28,0.0,0.0,0.0,0.07180924545169245,0.3437422636449226,9.86886
2345000000.0,22.28,0.0,0.0,0.0,0.07848,0.3267711455488115,9.881024582195245
2350000000.0,22.28,0.0,0.0,0.0,0.07848,0.3276539087081391,9.911043045645929
2355000000.0,22.28,0.0,0.0,0.0,0.07563505425695054,0.32245483722914836,9.909375162770852
2360000000.0,22.28,0.0,0.0,0.0,0.06867,0.34060315415983156,9.891226845840167
2365000000.0,22.28,0.0,0.0,0.0,0.06337250812542508,0.3361887459372875,9.900938745937287
2370000000.0,22.28,0.0,0.0,0.0,0.054151292068812924,0.33824870793118705,9.902998707931186
2375000000.0,22.28,0.0,0.0,0.0,0.07357509226305092,0.3261825461315255,9.886027453868474
2380000000.0,22.28,0.0,0.0,0.0,0.08593555377135553,0.32883110754271105,9.885733338685933
2385000000.0,22.28,0.0,0.0,0.0,0.07622365367423653,0.30940730734847305,9.905843653674236
2390000000.0,22.28,0.0,0.0,0.0,0.06435350715423507,0.3007747392686474,9.900448246422881
2395000000.0,22.28,0.0,0.0,0.0,0.04698985347999854,0.32373,9.914280439560004
2400000000.0,22.28,0.0,0.0,0.0,0.04316409323424093,0.3256920466171205,9.929681813531518
2405000000.0,22.28,0.0,0.0,0.0,0.05699605328576054,0.33354,9.890834213143041
2410000000.0,22.28,0.0,0.0,0.0,0.05081584681135847,0.33883754043407543,9.855518306377283
2415000000.0,22.28,0.0,0.0,0.0,0.06886648145086482,0.36130225309152253,9.844433240725433
2420000000.0,22.28,0.0,0.0,0.0,0.10987176497201766,0.350020705988807,9.870429647005595
2425000000.0,22.28,0.0,0.0,0.0,0.06572690579456905,0.3305969057945691,9.88161309420543
2430000000.0,22.28,0.0,0.0,0.0,0.053170341599503415,0.31529344719983443,9.903783788799338
2435000000.0,22.28,0.0,0.0,0.0,0.07848,0.32373,9.934979305406094
2440000000.0,22.28,0.0,0.0,0.0,0.07494825781778257,0.32373,9.916732752605927
2445000000.0,22.28,0.0,0.0,0.0,0.055524884947148856,0.32696744247357445,9.902704262544042
2450000000.0,22.28,0.0,0.0,0.0,0.1039858096467581,0.35414104758831044,9.86199314276493
2455000000.0,22.28,0.0,0.0,0.0,0.06867,0.3603211569437116,9.88848
2460000000.0,22.28,0.0,0.0,0.0,0.06788515221745152,0.33197030443490305,9.88848
2465000000.0,22.28,0.0,0.0,0.0,0.05886,0.3159802436390024,9.889853495759334
2470000000.0,22.28,0.0,0.0,0.0,0.05827135202321352,0.342172704046427,9.908688647976785
2475000000.0,22.28,0.0,0.0,0.0,0.05052164422171645,0.32471109614781096,9.91791
2480000000.0,22.28,0.0,0.0,0.0,0.07769510365795103,0.34374244817102445,9.917517551828974
2485000000.0,22.28,0.0,0.0,0.0,0.060037393072573934,0.35316,9.906628258659282
2490000000.0,22.28,0.0,0.0,0.0,0.09770750326947504,0.35316,9.859246248365263
2495000000.0,22.28,0.0,0.0,0.0,0.07857814846238148,0.3530618515376185,9.868958148462381
2500000000.0,22.28,0.0,0.0,0.0,0.08828990288099903,0.3433499514404995,9.878669951440498
2505000000.0,22.28,0.0,0.0,0.0,0.06886610268676102,0.33363805134338054,9.86895805134338
2510000000.0,22.28,0.0,0.0,0.0,0.08789769750747697,0.3239261512462615,9.907315395014953
2515000000.0,22.28,0.0,0.0,0.0,0.07877425114914251,0.3142142511491425,9.927131497701716
2520000000.0,22.28,0.0,0.0,0.0,0.08789764894797648,0.34217294684392946,9.946555297895953
2525000000.0,22.28,0.0,0.0,0.0,0.06965090190980902,0.34335,9.910061803819618
2530000000.0,22.28,0.0,0.0,0.0,0.08711289828442897,0.34335,9.898878550857784
2535000000.0,22.28,0.0,0.0,0.0,0.070043301521333,0.34335,9.880043301521333
2540000000.0,22.28,0.0,0.0,0.0,0.07769524933645248,0.3343247506635475,9.887695249336453
2545000000.0,22.28,0.0,0.0,0.0,0.08740714943357149,0.3246128505664285,9.879552850566428
2550000000.0,22.28,0.0,0.0,0.0,0.0794609504693095,0.32373,9.922815247653453
2555000000.0,22.28,0.0,0.0,0.0,0.0872109496278095,0.32373,9.91898905037219
2560000000.0,22.28,0.0,0.0,0.0,0.06239145082521451,0.32373,9.90927715027507
2565000000.0,22.28,0.0,0.0,0.0,0.07592949964409498,0.3322647498220475,9.891030500355905
2570000000.0,22.28,0.0,0.0,0.0,0.061606700161667,0.3757232495958325,9.88848
2575000000.0,22.28,0.0,0.0,0.0,0.0838756500488565,0.35757434995114346,9.880141449983714
2580000000.0,22.28,0.0,0.0,0.0,0.08829,0.32843864965978653,9.845708199546381
2585000000.0,22.28,0.0,0.0,0.0,0.07200529957895299,0.32373,9.880141751052617
2590000000.0,22.28,0.0,0.0,0.0,0.06867,0.3478627509229275,9.88848
2595000000.0,22.28,0.0,0.0,0.0,0.06867,0.3452138495952385,9.912318451214285
2600000000.0,22.28,0.0,0.0,0.0,0.0608219494981195,0.327653898996239,9.910061949498118
2605000000.0,22.28,0.0,0.0,0.0,0.07435990119799901,0.3159800494010005,9.915849950598998
2610000000.0,22.28,0.0,0.0,0.0,0.07082814930388148,0.344527402784474,9.887302597215525
2615000000.0,22.28,0.0,0.0,0.0,0.06867,0.33049874762028747,9.87867
2620000000.0,22.28,0.0,0.0,0.0,0.0761256508903565,0.338641301780713,9.863758698219288
2625000000.0,22.28,0.0,0.0,0.0,0.06376489802504898,0.34335,9.866407550987475
2630000000.0,22.28,0.0,0.0,0.0,0.06611945108459451,0.328831097830811,9.861600548915405
2635000000.0,22.28,0.0,0.0,0.0,0.08299270236342701,0.32373,9.894856755908567
2640000000.0,22.28,0.0,0.0,0.0,0.06710024616350246,0.32373,9.915163251278832
2645000000.0,22.28,0.0,0.0,0.0,0.0658251513759515,0.32373,9.910944848624048
2650000000.0,22.28,0.0,0.0,0.0,0.06180294852692948,0.35119820589228207,9.887498845580788
2655000000.0,22.28,0.0,0.0,0.0,0.07239790314037903,0.34943209685962096,9.86513209685962
2660000000.0,22.28,0.0,0.0,0.0,0.07180914833269147,0.3500208516673085,9.839037444998075
2665000000.0,22.28,0.0,0.0,0.0,0.07524275176442752,0.34001449647114496,9.869056510586566
2670000000.0,22.28,0.0,0.0,0.0,0.07200534813845348,0.3400146518615465,9.88848
2675000000.0,22.28,0.0,0.0,0.0,0.08142310391733104,0.3369734480413345,9.913986207834663
2680000000.0,22.28,0.0,0.0,0.0,0.06317619177686191,0.32726154794421547,9.908884643832646
2685000000.0,22.28,0.0,0.0,0.0,0.06141070430580704,0.3175496478470965,9.923011408611615
2690000000.0,22.28,0.0,0.0,0.0,0.07475225225002252,0.32608450450004506,9.901036486499866
2695000000.0,22.28,0.0,0.0,0.0,0.07249584765285846,0.345508304694283,9.890638304694283
2700000000.0,22.28,0.0,0.0,0.0,0.07455605244426051,0.3472739475557395,9.880631842667219
2705000000.0,22.28,0.0,0.0,0.0,0.07269204745862047,0.3491379525413795,9.85728409491724
2710000000.0,22.28,0.0,0.0,0.0,0.08004970527699705,0.3417802947230029,9.877689263192492
2715000000.0,22.28,0.0,0.0,0.0,0.06592298905752988,0.3167647417931474,9.909473505471235
2720000000.0,22.28,0.0,0.0,0.0,0.06553095849820958,0.31509730566547306,9.93439095849821
2725000000.0,22.28,0.0,0.0,0.0,0.07308444707014447,0.33991665878956656,9.931153341210432
2730000000.0,22.28,0.0,0.0,0.0,0.06867,0.34786254697302543,9.891422734865127
2735000000.0,22.28,0.0,0.0,0.0,0.07906870624818706,0.3485493531240935,9.86886
2740000000.0,22.28,0.0,0.0,0.0,0.09339125322121253,0.34805874677878745,9.858657493557574
2745000000.0,22.28,0.0,0.0,0.0,0.0830905400450054,0.3383468466816685,9.869252613273327
2750000000.0,22.28,0.0,0.0,0.0,0.0833851602463516,0.32372989316909895,9.883574946584549
2755000000.0,22.28,0.0,0.0,0.0,0.08848609297486093,0.30430609297486094,9.902704767562847
2760000000.0,22.28,0.0,0.0,0.0,0.06906229278062292,0.2943,9.913593439170935
2765000000.0,22.28,0.0,0.0,0.0,0.06808150741361507,0.30352150741361505,9.902900753706806
2770000000.0,22.28,0.0,0.0,0.0,0.07848,0.3274579614117796,9.903587346196073
2775000000.0,22.28,0.0,0.0,0.0,0.07406544609895445,0.34335,9.885046338296863
2780000000.0,22.28,0.0,0.0,0.0,0.07730290799632908,0.33471709200367095,9.873176453998164
2785000000.0,22.28,0.0,0.0,0.0,0.07563493771414938,0.32794835409528356,9.87867
2790000000.0,22.28,0.0,0.0,0.0,0.05886,0.34590076257720764,9.882790254192402
2795000000.0,22.28,0.0,0.0,0.0,0.07092646286856463,0.34688138284191383,9.88848
2800000000.0,22.28,0.0,0.0,0.0,0.08436594561335944,0.3315781087732811,9.904176217546562
2805000000.0,22.28,0.0,0.0,0.0,0.08613190896751909,0.3356980910324809,9.92772
2810000000.0,22.28,0.0,0.0,0.0,0.09064429083824291,0.3311857091617571,9.920264290838244
2815000000.0,22.28,0.0,0.0,0.0,0.06396098128800981,0.3469797546779975,9.900840490644004
2820000000.0,22.28,0.0,0.0,0.0,0.05689827387558273,0.34962834522488345,9.881416690449766
2825000000.0,22.28,0.0,0.0,0.0,0.09172355487223555,0.3364828902555289,9.872293554872234
2830000000.0,22.28,0.0,0.0,0.0,0.09476454503064545,0.33040090993870913,9.885340909938709
2835000000.0,22.28,0.0,0.0,0.0,0.09152735506647355,0.3304005797341058,9.901527355066474
2840000000.0,22.28,0.0,0.0,0.0,0.0855429793456298,0.3072492551635925,9.904960744836407
2845000000.0,22.28,0.0,0.0,0.0,0.05886,0.31696115526071156,9.907413465782135
2850000000.0,22.28,0.0,0.0,0.0,0.06768916607349167,0.32373,9.915947778568679
2855000000.0,22.28,0.0,0.0,0.0,0.08829,0.3265749554549496,9.88848
2860000000.0,22.28,0.0,0.0,0.0,0.08554314444793144,0.33628685555206855,9.880239433343794
2865000000.0,22.28,0.0,0.0,0.0,0.07583124435081244,0.34599875564918753,9.85905
2870000000.0,22.28,0.0,0.0,0.0,0.07122065574630655,0.35060934425369344,9.85905
2875000000.0,22.28,0.0,0.0,0.0,0.07602744415657443,0.3384448883131489,9.868860223373702
2880000000.0,22.28,0.0,0.0,0.0,0.07102445594054456,0.32137554405945545,9.89829
2885000000.0,22.28,0.0,0.0,0.0,0.07622364396233644,0.31617635603766353,9.902802712075326
2890000000.0,22.28,0.0,0.0,0.0,0.06867,0.32373,9.92654302453913
2895000000.0,22.28,0.0,0.0,0.0,0.06454968753619687,0.3299104686957047,9.94478906260859
2900000000.0,22.28,0.0,0.0,0.0,0.05101205632902057,0.3511979436709794,9.888479718354896
2905000000.0,22.28,0.0,0.0,0.0,0.060723956426139564,0.34521395642613956,9.85110395642614
2910000000.0,22.28,0.0,0.0,0.0,0.06690414347674144,0.35316,9.862581713046517
2915000000.0,22.28,0.0,0.0,0.0,0.06219551324075513,0.3481567301388673,9.885341026481509
2920000000.0,22.28,0.0,0.0,0.0,0.07848,0.32373,9.91791
2925000000.0,22.28,0.0,0.0,0.0,0.07995155681461556,0.32225844318538444,9.912023772741536
2930000000.0,22.28,0.0,0.0,0.0,0.08691654308826542,0.3180403707352037,9.882790370735203
2935000000.0,22.28,0.0,0.0,0.0,0.07592928598229286,0.34079928598229287,9.906824642991145
2940000000.0,22.28,0.0,0.0,0.0,0.06239177131791771,0.3260845142119452,9.895935485788055
2945000000.0,22.28,0.0,0.0,0.0,0.08829,0.34335,9.876511685593817
2950000000.0,22.28,0.0,0.0,0.0,0.08534682809936828,0.3423689426997894,9.85806894269979
2955000000.0,22.28,0.0,0.0,0.0,0.05974295739732958,0.33354,9.853654786986647
2960000000.0,22.28,0.0,0.0,0.0,0.06867,0.33354,9.899859714988896
2965000000.0,22.28,0.0,0.0,0.0,0.06592296963372969,0.33216648481686484,9.91791
2970000000.0,22.28,0.0,0.0,0.0,0.03178463075474631,0.3145086576886866,9.91791
2975000000.0,22.28,0.0,0.0,0.0,0.06965111557161115,0.32373,9.916928884428389
2980000000.0,22.28,0.0,0.0,0.0,0.08750508423415083,0.3241224578829246,9.897112626351225
2985000000.0,22.232590661725908,0.0,0.0,0.0,0.06837564201995641,0.3338343579800436,9.869154357980044
2990000000.0,20.7,0.0,0.0,0.0,0.05866374192283742,0.34335,9.878866258077162
2995000000.0,20.7,0.0,0.0,0.0,0.049344474522844746,0.34335,9.88848
3000000000.0,20.7,0.0,0.0,0.0,0.07847994172859941,0.3433498834571988,9.888480174814202
3005000000.0,20.7,0.0,0.0,0.0,0.06876804163148041,0.32392608326296085,9.917615875105557
3010000000.0,20.7,0.0,0.0,0.0,0.06867,0.3141161415343614,9.908296141534361
3015000000.0,20.7,0.0,0.0,0.0,0.06867,0.3329515171255152,9.94616303425103
3020000000.0,20.7,0.0,0.0,0.0,0.07808765865987657,0.3147046826802468,9.909669365360493
3025000000.0,20.7,0.0,0.0,0.0,0.07848,0.36051779378497795,9.898780441243003
3030000000.0,20.7,0.0,0.0,0.0,0.07848,0.3537485411458854,9.842961246875312
3035000000.0,20.7,0.0,0.0,0.0,0.0693566410487664,0.35316,9.885046794756168
3040000000.0,20.7,0.0,0.0,0.0,0.06867,0.32608422285494226,9.879454740951648
3045000000.0,20.7,0.0,0.0,0.0,0.06867,0.2969485225635852,9.896524318290943
3050000000.0,20.7,0.0,0.0,0.0,0.05101188151481882,0.3031290592425906,9.924777177727773
3055000000.0,20.7,0.0,0.0,0.0,0.0577809593397096,0.30411,9.91898904066029
3060000000.0,20.7,0.0,0.0,0.0,0.09339143774731437,0.33864143774731437,9.900644281126342
3065000000.0,20.7,0.0,0.0,0.0,0.07249572139815721,0.36895427860184277,9.889755240466052
3070000000.0,20.7,0.0,0.0,0.0,0.0771066596310666,0.3474700211068002,9.871606680737866
3075000000.0,20.7,0.0,0.0,0.0,0.07848,0.34335,9.86886
3080000000.0,20.7,0.0,0.0,0.0,0.0702395401746954,0.32686908034939083,9.901821839301217
3085000000.0,20.7,0.0,0.0,0.0,0.07681235992242359,0.32373,9.891815280155152
3090000000.0,20.7,0.0,0.0,0.0,0.07848,0.3076414799609148,9.904568520039085
3095000000.0,20.7,0.0,0.0,0.0,0.03874919941669199,0.3120561601166616,9.9081
3100000000.0,20.7,0.0,0.0,0.0,0.05297418064134181,0.3217680602137806,9.892403879572438
3105000000.0,20.7,0.0,0.0,0.0,0.0666099603108996,0.3547298412435984,9.88848
3110000000.0,20.7,0.0,0.0,0.0,0.09162558122405581,0.36297,9.850220697959907
3115000000.0,20.7,0.0,0.0,0.0,0.07543871848458718,0.3403087184845872,9.846983760505138
3120000000.0,20.7,0.0,0.0,0.0,0.06121433939774339,0.33354,9.871606981806769
3125000000.0,20.7,0.0,0.0,0.0,0.06621756069937561,0.3261824393006244,9.886027560699375
3130000000.0,20.7,0.0,0.0,0.0,0.06867,0.32373,9.902998921592989
3135000000.0,20.7,0.0,0.0,0.0,0.04002455642554556,0.32373,9.922422721787228
3140000000.0,20.7,0.0,0.0,0.0,0.06474630495366304,0.33079326099073264,9.913593478018534
3145000000.0,20.7,0.0,0.0,0.0,0.05758451673644517,0.3265748389121484,9.880239355648593
3150000000.0,20.7,0.0,0.0,0.0,0.05591706118497061,0.3443311835549118,9.86886
3155000000.0,20.7,0.0,0.0,0.0,0.06562896128208962,0.3396220774358208,9.86886
3160000000.0,20.7,0.0,0.0,0.0,0.06867,0.31352741586237415,9.882201722758417
3165000000.0,20.7,0.0,0.0,0.0,0.07524276147632761,0.30411,9.895052761476327
3170000000.0,20.7,0.0,0.0,0.0,0.06553067685310676,0.3105846615734466,9.904764661573445
3175000000.0,20.7,0.0,0.0,0.0,0.05886,0.31392,9.914476561670565
3180000000.0,20.7,0.0,0.0,0.0,0.06513846176768462,0.3076415382323154,9.90535307646463
3185000000.0,20.7,0.0,0.0,0.0,0.06867,0.32883144745921444,9.892109638135196
3190000000.0,20.7,0.0,0.0,0.0,0.06867,0.33726773803807736,9.86415095215231
3195000000.0,20.7,0.0,0.0,0.0,0.07465416205904161,0.3395241620590416,9.879160810295208
3200000000.0,20.7,0.0,0.0,0.0,0.07848,0.34335,9.886517875687678
3205000000.0,20.7,0.0,0.0,0.0,0.06111611324016113,0.32598611324016113,9.87288203774672
3210000000.0,20.7,0.0,0.0,0.0,0.05473986235039863,0.32529972470079727,9.880239724700797
3215000000.0,20.7,0.0,0.0,0.0,0.06445176244751762,0.33913176244751764,9.910847049790071
3220000000.0,20.7,0.0,0.0,0.0,0.06317633745536337,0.3488436625446366,9.905745349821453
3225000000.0,20.7,0.0,0.0,0.0,0.053464437358244375,0.35316,9.893875562641755
3230000000.0,20.7,0.0,0.0,0.0,0.06494238821662388,0.3425650745222507,9.877100149044502
3235000000.0,20.7,0.0,0.0,0.0,0.06808127432801274,0.34393872567198724,9.869448725671987
3240000000.0,20.7,0.0,0.0,0.0,0.06396126293311263,0.3225524224013242,9.87867
3245000000.0,20.7,0.0,0.0,0.0,0.07367316303023162,0.3093094890906949,9.883673163030231
3250000000.0,20.7,0.0,0.0,0.0,0.07357493687264936,0.31882493687264934,9.88848
3255000000.0,20.7,0.0,0.0,0.0,0.06867,0.31392,9.88848
3260000000.0,20.7,0.0,0.0,0.0,0.06867,0.3280465899647659,9.902606589964766
3265000000.0,20.7,0.0,0.0,0.0,0.07328076341870762,0.33412847316258476,9.908688473162584
3270000000.0,20.7,0.0,0.0,0.0,0.08750532703165327,0.32824266351582665,9.893777336484172
3275000000.0,20.7,0.0,0.0,0.0,0.08927087277410872,0.3467836908388369,9.88848
3280000000.0,20.7,0.0,0.0,0.0,0.07848,0.35433707257987074,9.87984707257987
3285000000.0,20.7,0.0,0.0,0.0,0.07004327238563272,0.33491327238563273,9.877296727614366
3290000000.0,20.7,0.0,0.0,0.0,0.06298026390430264,0.3113692082870921,9.896720527808604
3295000000.0,20.7,0.0,0.0,0.0,0.07269216400142163,0.31038865600568655,9.9081
3300000000.0,20.7,0.0,0.0,0.0,0.08240406409854063,0.33354,9.900251871802919
3305000000.0,20.7,0.0,0.0,0.0,0.09211596419565964,0.3411919283913193,9.880828071608681
3310000000.0,20.7,0.0,0.0,0.0,0.08691640712166407,0.34197640712166405,9.86886
3315000000.0,20.7,0.0,0.0,0.0,0.06867,0.3309895287797953,9.865230235610102
3320000000.0,20.7,0.0,0.0,0.0,0.06867,0.34335,9.86964499346105
3325000000.0,20.7,0.0,0.0,0.0,0.07210356458413564,0.33304930624759305,9.885046435415864
3330000000.0,20.7,0.0,0.0,0.0,0.06847360595623606,0.31392,9.895347323406273
3335000000.0,20.7,0.0,0.0,0.0,0.05228736477837365,0.3106826352216263,9.921245270443253
3340000000.0,20.7,0.0,0.0,0.0,0.0525814702490147,0.3166670595019706,9.9081
3345000000.0,20.7,0.0,0.0,0.0,0.0453223299452233,0.34335,9.905058835027388
3350000000.0,20.7,0.0,0.0,0.0,0.0647461301394613,0.34335,9.886517739721077
3355000000.0,20.7,0.0,0.0,0.0,0.07563503483315034,0.34335,9.86758489550055
3360000000.0,20.7,0.0,0.0,0.0,0.07141686526396865,0.3378562694720627,9.88848
3365000000.0,20.7,0.0,0.0,0.0,0.07053370391673704,0.32902753072217533,9.893777530722176
3370000000.0,20.7,0.0,0.0,0.0,0.05415133091641331,0.33314733816717335,9.905549334541792
3375000000.0,20.7,0.0,0.0,0.0,0.06867,0.3090151311106513,9.900742565555325
3380000000.0,20.7,0.0,0.0,0.0,0.07102446565244465,0.32373,9.910454465652444
3385000000.0,20.7,0.0,0.0,0.0,0.07848,0.33275546299825465,9.911140902751308
3390000000.0,20.7,0.0,0.0,0.0,0.08063826584668266,0.3586534683066347,9.884163468306634
3395000000.0,20.7,0.0,0.0,0.0,0.08004933622479336,0.34335,9.872980331887604
3400000000.0,20.7,0.0,0.0,0.0,0.051012066040920664,0.34335,9.878669669795396
3405000000.0,20.7,0.0,0.0,0.0,0.06072396613803966,0.34335,9.848749830690199
3410000000.0,20.7,0.0,0.0,0.0,0.06690413376484133,0.3415841337648413,9.890245866235158
3415000000.0,20.7,0.0,0.0,0.0,0.05719223366772234,0.33187223366772234,9.901625532664555
3420000000.0,20.7,0.0,0.0,0.0,0.045910667141206674,0.32216033357060336,9.919479666429396
3425000000.0,20.7,0.0,0.0,0.0,0.030901566526515666,0.31392,9.924776866946969
3430000000.0,20.7,0.0,0.0,0.0,0.040613466623634666,0.3194138664945386,9.909473466623634
3435000000.0,20.7,0.0,0.0,0.0,0.059252933766029345,0.35443536672075365,9.916634633279246
3440000000.0,20.7,0.0,0.0,0.0,0.12046639909276399,0.36179273318212735,9.905745466364253
3445000000.0,20.7,0.0,0.0,0.0,0.07298666765996667,0.3520808330850083,9.890638333829983
3450000000.0,20.7,0.0,0.0,0.0,0.10398573195155733,0.34138786597577864,9.9081
3455000000.0,20.7,0.0,0.0,0.0,0.06690406578154065,0.3219640657815407,9.908982967109228
3460000000.0,20.7,0.0,0.0,0.0,0.04983486720634867,0.3033251327936513,9.918694867206348
3465000000.0,20.7,0.0,0.0,0.0,0.059546767303467675,0.2949867673034677,9.927033232696534
3470000000.0,20.7,0.0,0.0,0.0,0.06925866740058667,0.30705333700293336,9.916732665198825
3475000000.0,20.7,0.0,0.0,0.0,0.07946113499541134,0.35316,9.897799432502294
3480000000.0,20.7,0.0,0.0,0.0,0.0981,0.35355246759482467,9.88769506481035
3485000000.0,20.7,0.0,0.0,0.0,0.09751126461611265,0.36297,9.86886
3490000000.0,20.7,0.0,0.0,0.0,0.07906880336718802,0.36179239326562396,9.869252535578125
3495000000.0,20.7,-3.196162778262783e-05,0.00012784651113051132,0.0,0.10732099268290993,0.3040118321138183,9.888283664227636
3500000000.0,20.7,-0.0031938787508453926,0.012775736344294191,0.0,0.049049864033398644,0.2943004078998041,9.868860271933203
3505000000.0,20.7,0.007346164707348689,0.002235692886100012,0.0,0.02962606383916064,0.35257180848251807,9.907707872321678
3510000000.0,20.7,0.0043224602281575686,0.002129301687433,0.0,0.058271604532616046,0.3339322636449226,9.936941604532617
3515000000.0,20.7,-0.005035865177634196,0.005227457871599862,0.0,0.011281158626711585,0.33354,9.870919622077396
3520000000.0,20.7,0.003875395852843499,-0.006941612543318898,0.0,0.028645336743553365,0.3900460102306601,9.850024663256447
3525000000.0,20.7,0.0032471776426047866,-0.0054297044414930735,0.0,0.0853474108133741,0.3737608630622086,9.858559568468895
3530000000.0,20.7,-0.007814619046856881,-0.004322474984218414,0.0,0.0790685314339853,0.31745118860391186,9.84060706286797
3535000000.0,20.7,-0.000596144857995461,-0.002278337901931867,0.0,0.09672673732626738,0.34129010598940107,9.885046843315669
3540000000.0,20.7,0.001958972477139897,0.004727101982556823,0.0,0.08907473123974731,0.34335,9.924581075041012
3545000000.0,20.7,-0.00465257649727697,0.004354414477909782,0.0,0.034726986855769866,0.2987141557131416,9.936647168857373
3550000000.0,20.7,-0.0043650609758069045,-0.0005323628390125163,0.0,0.05591720686347207,0.3384453447724534,9.911042793136527
3555000000.0,20.7,-0.000468416395351676,0.0008304426460406676,0.0,0.04139806189678062,0.32588806189678066,9.91683096905161
3560000000.0,20.7,-0.0009369002469814623,-0.006430551132135375,0.0,0.03924,0.3150971308512713,9.883378523405085
3565000000.0,20.7,0.0017141104035365221,-0.00374754090967825,0.0,0.09044861547508616,0.3651286154750861,9.887204769245848
3570000000.0,20.7,0.002129301687433,-0.00044713077758785653,0.0,0.0896633306570333,0.3474699919710999,9.871606661314066
3575000000.0,20.7,0.0003193801808528047,0.0,0.0,0.0799514305599143,0.34335,9.902214277760342
3580000000.0,20.7,0.0,0.0,0.0,0.10320140861161409,0.32686906092559065,9.92458093907441
3585000000.0,20.7,-0.001767335514991709,0.003534671029983501,0.0,0.10791,0.32373,9.92772
3590000000.0,20.7,-0.004748365466229363,0.005131624634464915,0.0,0.06768865134278651,0.29155292107422925,9.911631460537114
3595000000.0,20.7,0.0007133691133287415,0.022584886743790982,0.0,0.1462678681141787,0.36395169828561696,9.884261490514314
3600000000.0,20.7,-0.009794894005830179,0.06924806309250563,0.0,0.33157946843929464,0.07651527289845272,9.792341230817511
3605000000.0,20.7,-0.02961123366841706,0.20276805210713397,-0.005887572361351737,-0.06121832127678317,-0.0232499100683991,9.848259700227997
3610000000.0,20.7,0.019088804247044962,0.13821208167263965,-0.0024699442979540633,-0.6586478175548782,0.08534805179878052,9.937726831079269
3615000000.0,20.7,0.03736543537190186,0.16328686052417363,-0.0002448620736033747,-0.43958279979922804,0.027074757395547572,9.95715
3620000000.0,20.7,0.04968614010475325,0.10205775175673507,0.0,-1.243131778327118,0.42497320790693216,9.748391231203613
3625000000.0,20.7,0.09481540922477229,-0.0340829874090853,0.003992478871594561,-0.8976089446302895,0.6180305632902057,10.14599693591037
3630000000.0,20.7,0.04323396260043261,-0.10684556167684578,0.0013840078364737492,-1.2601981701631817,0.6158715884748159,9.618109772210898
3635000000.0,20.7,0.013238253287256046,-0.3502673431797205,0.006217622228197332,-0.3731616679619165,0.7084791884771919,9.95843101904661
3640000000.0,20.7,0.018324637739844565,-0.27845453817187116,0.006984094188477193,0.09299943632369437,1.0634071816184716,10.052894398055244
3645000000.0,20.7,0.00013260428674754382,-0.4109353772176646,0.007143814845029597,0.3545358071915581,1.0268110716057106,9.950478633601987
3650000000.0,20.7,-0.08905451123532467,-0.32596297867941,0.009688345760515664,1.350846287490063,0.844639794753198,10.113130914215509
3655000000.0,20.7,-0.09270336309173237,-0.25271736168438463,0.0033003405678035946,1.3776145373185453,0.8487617679519177,9.847372479306525
3660000000.0,20.7,-0.13388200101034048,-0.12101136323786799,0.0028958811561561933,2.0969949840263498,0.2993950861646508,9.812355679639957
3665000000.0,20.7,-0.19761444161588687,0.1159275432815254,-2.133937198542553e-05,1.4202799827541999,-0.12174373732923739,9.993742652576326
3670000000.0,20.7,-0.1621055848425788,0.14053567364857078,-0.0014266243941882116,1.3167029761182298,-0.5782056058354561,9.783313806015439
3675000000.0,20.7,-0.1314476962969731,0.326086661406848,-0.003140743229759565,0.7749814341041144,-0.9280277131791771,9.668736285529864
3680000000.0,20.7,-0.045420882282089195,0.2522572447438758,-0.005621371969767254,-0.2585986764788867,-0.8848605704083058,9.745254714795848
3685000000.0,20.7,0.05984573955392577,0.16769586209449855,-0.0037049538640853787,-0.027265071789850714,-0.6473599674289998,9.724946655809667
3690000000.0,20.7,0.13534902846672323,0.1599616203650495,-0.004109575592402031,-0.3916235141634352,-0.20875278626592786,9.655786369957063
3695000000.0,20.7,0.17839520020142308,0.055384132384798376,-0.002076030199786675,-0.21963865113488656,0.16157263781542638,9.615467484687175
3700000000.0,20.7,0.19537222679279742,0.10546459208565333,-0.004471588141034534,0.013732131430421318,0.5709457371391574,9.674622862416728
3705000000.0,20.7,0.1948045205962556,0.10185385160953209,-0.00493994867415589,-0.24456524305985244,1.1859360095277602,9.849045383233953
3710000000.0,20.7,0.1898893556938935,0.14045024647539084,-0.003811457841217416,-0.3019511514393115,2.0916960547905608,10.347200788485509
3715000000.0,20.7,0.15697136384983498,0.12590247218435524,-0.0042586033748661,-1.0029839250431394,2.1996918982755194,10.308343670434937
3720000000.0,20.7,-0.06609125802875013,0.022031773479319693,0.001703519767869797,-0.9554860517809606,0.9425316493103165,10.40684502441835
3725000000.0,20.7,-0.2431482018367987,-0.014063021986000521,0.0011178127149109726,-0.5184590064755901,0.005883974097639744,10.024830172854001
3730000000.0,20.7,-0.17363743828645076,-0.01943673185914414,0.00255524065364386,-0.5440625275492253,-0.09123263774612637,9.9683399930205
3735000000.0,20.7,-0.10973142751092044,-0.0472123754902933,0.004066918982522344,-0.6643349411494495,-0.29224301955943016,10.23859694120687
3740000000.0,20.7,-0.11437067256382004,-0.11964443431502633,0.002725529811771812,-0.5658378215544783,-0.5211076358700764,9.869248913039389
3745000000.0,20.7,-0.046134395223814295,-0.1352051454522587,0.0058875428492300465,-0.30773875435228754,-0.22415377176143775,9.90339498259085
3750000000.0,20.7,0.038353942453534975,-0.1518006999484052,0.0037262226177796945,-0.18638912592899126,0.08829,9.878665921001959
3755000000.0,20.7,0.03514024556999282,-0.17621927867498252,0.005216868289937417,0.06955589039115886,0.1700085399182854,9.555920270636303
3760000000.0,20.7,0.04278204206424341,-0.16464825295225305,0.006558185788392403,0.326477603368376,0.4339971752725718,9.69424492133955
3765000000.0,20.7,0.06086980113953257,-0.17383439681286844,0.003130089353832005,0.5301347401794474,0.5909538149551382,9.644697477816575
3770000000.0,20.7,0.03010433513928674,-0.14839416737147718,0.005238098045470861,0.7867634645545346,0.6035120787327208,9.638525740119057
3775000000.0,20.7,0.018702067642012366,-0.11531814763640309,0.0035133000378676947,0.9059537199745372,0.684738293299383,9.940472560050926
3780000000.0,20.7,0.005929025229153508,-0.0891867278212605,0.0009369086790162287,1.0559506760809068,0.6631552657803527,9.89946705315607
3785000000.0,20.7,-0.021492366521918854,-0.024051457487995587,0.0007558781626000215,1.2009397588854975,0.5238525296183253,10.00237608501526
3790000000.0,20.7,-0.04712511289813574,0.04867960699155014,-0.0015118121874303713,1.1179467166055672,0.3296145276759453,10.066824254059743
3795000000.0,20.7,-0.05897394529361562,0.11834711923449168,-0.0012562719957995004,0.9973817417268175,0.14342087316020874,9.94734
3800000000.0,20.7,-0.05176986802657386,0.18790913659715047,-0.0034069467833571457,0.6906196451839964,-0.003924811914848114,9.868858523791186
3805000000.0,20.7,-0.032269326312364774,0.21098351282531191,-0.006441097499619689,0.38160973907559737,-0.11458168689071686,9.800877660798276
3810000000.0,20.7,-0.004684303082090431,0.2651022775542178,-0.005216829291776602,0.13576433161634333,-0.20130149601871497,9.807840393911103
3815000000.0,20.7,0.02231763234786068,0.2602805681934165,-0.006547562478590908,-0.4283059338323594,-0.17844293667662936,9.732207515119775
3820000000.0,20.7,0.060385905722751966,0.209950070117222,-0.003577234887480742,-0.553676696795667,-0.059251583811915844,9.803721674198917
3825000000.0,20.7,0.09337526831341075,0.20591780816261218,-0.0042586033748661,-0.7745037348740373,0.24329305213043056,9.768797108447572
3830000000.0,20.7,0.12826612767757276,0.1426955728575392,-0.00281064593271847,-1.1879921158973212,0.977082695383927,9.962453425845535
3835000000.0,20.7,0.1521675064543777,0.06746924057162662,0.0,-1.4566908479845087,1.43029502038905,10.253799036700292
3840000000.0,20.7,0.050280698686208256,-0.07009465982384058,0.0017034818237133434,-1.5727336805329368,0.906830209246402,9.877887512209176
3845000000.0,20.7,-0.08537342986124283,-0.20112267958189922,0.004993204351737134,-0.8206001518165016,0.3714070481070705,10.002568283518183
3850000000.0,20.7,-0.056036652859632476,-0.19153430742949154,0.0052168134817113685,-0.3070545704142457,0.47382457041424575,9.872785346069353
3855000000.0,20.7,-0.017332504364899096,-0.22663737270244666,0.0074525559060157,-0.2947863816687638,0.5156109043650091,10.041909598059997
3860000000.0,20.7,-0.07184003368959259,-0.26844379834827264,0.007750666279169898,0.16794937430019374,0.2895918747828187,10.13137500019305
3865000000.0,20.7,-0.07165084543872113,-0.23412870283653112,0.007942278999218176,0.415160401167804,0.39818917624079175,10.082816325218964
3870000000.0,20.7,-0.032856100674314444,-0.23476253944285344,0.00583427030757932,0.6725778095259781,0.44851109523701094,10.058387846938079
3875000000.0,20.7,-0.06551547663838843,-0.18242982900054594,0.00452477425432893,1.06193197312942,0.24770257526722575,9.886026220457163
3880000000.0,20.7,-0.0738878701025091,-0.10959679671939113,0.004045632310754234,1.0339747536434476,0.25270552463565527,9.758595524635655
3885000000.0,20.7,-0.04889972714251588,-0.07946261447510573,0.0,1.1288373791531738,0.1956097398477974,9.717294368078043
3890000000.0,20.7,-0.06191238082122999,0.0018607215959383638,-0.00023423138577144048,1.1730789688555896,0.0013724177384241802,9.616939653351496
3895000000.0,20.7,-0.053444585242309335,0.0754238391537714,-0.001511820619465159,1.0703684190986842,-0.12900263483552635,9.660789824344299
3900000000.0,20.7,-0.027694637798854713,0.15808902518553164,-0.0036198293111040147,0.9260611213928113,-0.25309830301128305,9.658926227258464
3905000000.0,20.7,0.006980465977222546,0.22531002798409536,-0.0053232542185827,0.5719207245018073,-0.27517012075030123,9.691789879249699
3910000000.0,20.7,0.053675495754126015,0.25416862422497943,-0.0051316088243997275,0.2752660937470609,-0.21071773674117739,9.735051751894117
3915000000.0,20.7,0.09491596483334547,0.2705570514026824,-0.004620601167437783,-0.06523992198799922,-0.07141558329315584,9.771153312530133
3920000000.0,20.7,0.12484984998380842,0.2526406842505271,-0.0063879050622992,-0.4661728751085288,0.11536834108668341,9.870429676141297
3925000000.0,20.7,0.14514606802799013,0.1793889396543678,-0.0057490814603328114,-0.6371589663310897,0.5753649624641497,9.893385762384158
3930000000.0,20.7,0.16393976486393472,0.14209053683357256,-0.0019802422848385318,-0.706523299204733,1.5805916274610163,10.122358491566684
3935000000.0,20.7,0.17134936357876596,0.12732728175584762,-0.0009262379390191533,-1.4898446235673461,1.9194155809468558,10.839352675861127
3940000000.0,20.7,-0.016750381756096534,-0.080995494637042,0.0,-1.3647596235524961,0.8228569837372698,9.69542195507182
3945000000.0,20.7,-0.17434950679297434,-0.1190870395121147,0.000468479635612425,-0.5068824701193247,0.20454118194121182,10.001883293492435
3950000000.0,20.7,-0.07233831984239689,-0.11452372776600453,0.004365076785872092,-0.46695492586384924,0.48264985172769853,9.956168156035881
3955000000.0,20.7,-0.042418950664408525,-0.1685964790021407,0.00561073495790929,-0.3345202317887023,0.20718474172384743,9.878475490064854
3960000000.0,20.7,-0.13052342246913426,-0.18744399257427488,0.00809130467367359,-0.21385492327004924,-0.05257906169779061,10.078009507672995
3965000000.0,20.7,-0.049571712952329816,-0.2445486672427033,0.0031939525311496,0.17393430359934303,0.23906900686169005,10.09556702058507
3970000000.0,20.7,-0.03100013308722349,-0.19491438886886572,0.0032578399505670957,0.5344494168998941,0.15107322887513228,9.852183385562434
3975000000.0,20.7,-0.06401923107569897,-0.17539734174034002,0.004205362453345725,0.6278430883842309,0.06621865814408659,9.891421919065518
3980000000.0,20.7,-0.024460920258272567,-0.12403491590587588,0.0031087636839030905,0.9970877042394771,0.20561752269327524,9.755455317705852
3985000000.0,20.7,0.0016500828015410174,-0.032542410561840714,0.0010327029179903688,0.9102693581730935,0.1950224903846249,9.627142528846125
3990000000.0,20.7,-0.013478336695221823,-0.015751432083210254,2.1301427829009637e-05,0.8456227750096277,0.15774511000385108,9.740741167497111
3995000000.0,20.7,0.004418601994826917,0.04856252983029871,0.0010326860539208358,0.9394037376460375,0.1954145792153458,9.712096355196163
4000000000.0,20.7,0.020245751728625992,0.10972898498543976,-0.0021293269835372997,0.7063188345719883,0.11771984460959845,9.731520621561605
4005000000.0,20.7,0.011796438202303076,0.1265930545185504,-0.005291340020995633,0.5606403331152034,0.09829604441536045,9.809215822338558
4010000000.0,20.7,0.038855786925010745,0.17061885606103516,-0.004279887938625578,0.472645098995051,0.11732775577887757,9.81961387788944
4015000000.0,20.7,0.050786381945184055,0.20251202888777378,-0.006324042938986,0.14734354845703546,0.15578311194623112,9.867388889932789
4020000000.0,20.7,0.06135887992506199,0.19527714262445595,-0.004343758493973542,-0.041595883589858856,0.2134660685020607,9.86886
4025000000.0,20.7,0.07291035016952191,0.20102096563982877,-0.003247176588600441,-0.3379569236046692,0.33697451635034514,9.88749915636159
4030000000.0,20.7,0.08251924363103393,0.1492677950464288,-0.0031939525311496,-0.5836969569478696,0.55544400039204,9.916144434833743
4035000000.0,20.7,0.08012472431603565,0.10135594807758412,0.000766582630736156,-0.6531502702502028,1.034272297126723,9.972650270250202
4040000000.0,20.7,0.09165502066719229,0.054886739457480224,8.516355114220574e-05,-1.1085339236076395,1.1324669493050696,10.355831695830418
4045000000.0,20.7,-0.02655396500831117,-0.0913608629140075,0.0019376815893543454,-0.7996100357984004,0.47734878587388785,9.862086464412965
4050000000.0,20.7,-0.09011879189889196,-0.10353640481193721,0.003087495984213141,-0.3767005386788054,0.43850723599917235,9.836487235999172
4055000000.0,20.7,-0.011492581000044036,-0.12702772026061188,0.002246404732266581,-0.38592587258105876,0.6335315327972153,10.048973490324235
4060000000.0,20.7,-0.05449874307535176,-0.17495919662626042,0.005876906891376409,-0.10751499759924998,0.33785348215673483,9.936743938229938
4065000000.0,20.7,-0.09143999372440702,-0.1755378343683992,0.0063879050622992,0.10202557915495579,0.2943,9.900840442084503
4070000000.0,20.7,-0.044566850776886366,-0.17287624151424916,0.003641080146724419,0.33844697637166976,0.36179343243893436,9.991093469603536
4075000000.0,20.7,-0.05975942440800257,-0.135445051459198,0.0022889907238550717,0.5562287413436874,0.15597694204836943,9.914475629328155
4080000000.0,20.7,-0.0773433477557041,-0.09578823790536756,0.003023616996830406,0.5968404792491048,0.060036645256266445,9.88180904150179
4085000000.0,20.7,-0.04364177913687272,-0.06295848003078314,0.0005429460966489162,0.6961185521546855,0.06533475869244759,9.870527620653776
4090000000.0,20.7,-0.03534255966527914,-0.006862134274339397,-0.0017460446272061577,0.6919971616699717,-0.03590563276345633,9.796461485009916
4095000000.0,20.7,-0.022215293899575855,0.03186876678591204,-0.0012669258717270427,0.607238204595382,-0.01912910229769102,9.764677640919077
4100000000.0,20.7,0.01321247114872285,0.08095927510816237,-0.0019163801615253357,0.6042961592751616,0.02943039818790398,9.713861522174515
4105000000.0,20.7,0.0356088781053504,0.13705838119831534,-0.002129301687433,0.36797062822430626,0.031490020265300206,9.7175899594694
4110000000.0,20.7,0.05104925672843359,0.13915953500854297,-0.0029597380094476705,0.15872428319544282,0.10594879831818799,9.752317519327274
4115000000.0,20.7,0.07072789609693352,0.14947519752912158,-0.002374162707032052,0.027074640852746412,0.2332829190051292,9.791165119715751
4120000000.0,20.7,0.08049324109092865,0.14206898139069626,-0.0029384450136534256,-0.2013033607035336,0.30960408015634083,9.86729112023451
4125000000.0,20.7,0.07642790693353088,0.1105183069305565,-0.0015969588745030688,-0.3090154807390548,0.44145128197081285,9.925267900615879
4130000000.0,20.7,0.08245188452864642,0.07833361486908587,-0.002640351504568787,-0.3672868813217688,0.5895822033044221,9.988346361542066
4135000000.0,20.7,0.07433083267304193,0.036869356425148964,-0.0008623410335625724,-0.41839690158706905,0.8498427898398279,10.013361380317415
4140000000.0,20.7,0.06033661692011692,0.0022616934799930127,0.0,-0.4528298412435984,0.967266402072664,10.171402169119721
4145000000.0,20.7,0.006546502115661532,-0.048743695881306545,0.0,-0.3496271118135711,0.7859749456737494,9.974118321068882
4150000000.0,20.7,-0.04889231979003983,-0.07797970576504545,0.0007452643388376203,-0.15303422660704225,0.6857187581736877,10.019935773392959
4155000000.0,20.7,-0.05216007175298384,-0.08750283273309313,0.003268504366538065,-0.07475203858822038,0.6227381543528816,10.023759173646992
4160000000.0,20.7,-0.07947012252819369,-0.0996186295523569,0.0035346320318227226,-0.0019611919699119157,0.3849418143037181,9.969706476787964
4165000000.0,20.7,-0.10266455211486145,-0.09796821895546423,0.0017673028408570215,0.15431283710242838,0.22533497189884974,9.970295561800256
4170000000.0,20.7,-0.09036177623783506,-0.06598495341394829,0.0031726858854639684,0.2611427669807277,0.09907978504129786,9.937921914016519
4175000000.0,20.7,-0.07509881156579742,-0.039362260860033554,0.002182507826809997,0.23347735124507352,-0.04022213532112135,9.828637864678878
4180000000.0,20.7,-0.057738806084949766,-0.018701366815516245,0.0010646508437165,0.23112392476593924,-0.10084696238296963,9.786848481191486
4185000000.0,20.7,-0.027246383780930673,0.006803697474248055,0.0010646508437165,0.18344618711396188,-0.08318847484558475,9.75947809355698
4190000000.0,20.7,-0.0006386138551016073,0.010440122049219465,-0.000255533867604796,0.14715,-0.056505437228554375,9.698754030299941
4195000000.0,20.7,0.019802673856929184,0.021985252302030377,-0.0004152049859529735,0.16510254444852543,-0.013144911102949117,9.720533451862734
4200000000.0,20.7,0.047511627505662846,0.038344972202680384,0.0,0.11183310262043102,0.09810122369941224,9.768798244739882
4205000000.0,20.7,0.07140890091826203,0.039462722731334963,-0.0006281528619692834,0.02236614658336146,0.2669316518645165,9.79793394503124
4210000000.0,20.7,0.08562909231737786,0.021832450665645473,-0.00044714447964433815,-0.015499881774198816,0.4799071625807716,9.878278581290386
4215000000.0,20.7,0.08812024212876553,-0.00391812835103608,0.0,0.036297818713178186,0.6626667280697673,9.933311781871318
4220000000.0,20.7,0.07077775665372922,-0.02028080611617687,0.0,0.1334168196843682,0.7698894557474946,9.948517363936874
4225000000.0,20.7,0.03984296368037185,-0.0268466901795236,0.0005855668703807972,0.2035579103277791,0.8098155820655559,9.989523492393335
4230000000.0,20.7,0.004947705109415574,-0.03163762793528499,0.0010646508437165,0.23622496432534965,0.7718501426986015,10.010712517837327
4235000000.0,20.7,-0.02526298266234637,-0.031264910918516325,0.0005003769691299459,0.2920444403381444,0.6837561774020618,10.021798146779382
4240000000.0,20.7,-0.04725460146164323,-0.0237803796826614,0.0016608821300683496,0.3284387176430872,0.5560294822893949,10.020326152929263
4245000000.0,20.7,-0.06406313360510917,-0.010484573092858449,0.001565009894772616,0.35374909472419097,0.39063271582742715,9.986187270183873
4250000000.0,20.7,-0.07563391495433922,0.01651112843702869,0.0,0.35315950469309504,0.20110326642583268,9.942434587244245
4255000000.0,20.7,-0.07571911783193866,0.045593241055504496,0.0,0.22759034703460349,0.016381294979412944,9.879454138813841
4260000000.0,20.7,-0.06267880956733167,0.06054973238282422,0.0,0.0757322898007229,-0.11575882745388827,9.825303351763834
4265000000.0,20.7,-0.03974858362149089,0.0679809773749719,-0.0005003948872038249,-0.026487828425078283,-0.15754843431498433,9.76850295441743
4270000000.0,20.7,-0.007355200410145323,0.07038701633543465,-0.0010646508437165,-0.10104341469813415,-0.12458658530186587,9.712684634120746
4275000000.0,20.7,0.02667761910484421,0.0764315939271264,-0.0010646508437165,-0.18050499644094997,-0.06278333570603337,9.719748332146983
4280000000.0,20.7,0.055855657712837486,0.07631609530153102,-0.0005961954502040397,-0.3013642807402428,0.0494437301418373,9.754279449401594
4285000000.0,20.7,0.07915676940337169,0.055814925075579155,0.0,-0.3601248503070485,0.23436281431262815,9.817162215540822
4290000000.0,20.7,0.09171884273834037,0.03427772753281516,0.0,-0.38455283328102835,0.45773651654636516,9.891030849984308
4295000000.0,20.7,0.08956809417047855,-0.0005296368209203074,0.0008730317996421911,-0.41329471602344714,0.6489327513783275,9.936255283976552
4300000000.0,20.7,0.07478371354542027,-0.04474004212734113,0.002129301687433,-0.2825260789861608,0.7867630857904309,9.992466334089363
4305000000.0,20.7,0.051035240250346475,-0.06806618624830098,0.0012988558793792949,-0.11654213104432132,0.8900618853362189,10.031313934477838
4310000000.0,20.7,0.017939250364047244,-0.08265862616789313,0.0008091528122594619,-0.012751744251317434,0.9170384651336846,10.062705767433158
4315000000.0,20.7,-0.01816974691133741,-0.09665879562851376,0.0033110914121309023,0.12929697339176974,0.8346334589808346,10.082129567627396
4320000000.0,20.7,-0.0574789073261675,-0.0991500877304881,0.004556687397911688,0.2511368391081684,0.672179689605297,10.076831580445916
4325000000.0,20.7,-0.08985585000493941,-0.0956046363440555,0.003566589443587966,0.36199017611110174,0.4939319038492191,10.02827207996032
4330000000.0,20.7,-0.10873796180536677,-0.07218683818230692,0.003534622545783576,0.44458903178989034,0.2827219291635193,9.98304806357978
4335000000.0,20.7,-0.11472199856239033,-0.04054959347263474,0.0024806456040771564,0.43487738420217387,0.039924931754349316,9.911826621169567
4340000000.0,20.7,-0.10290931649435717,-0.011674426140868274,0.0028532551124025663,0.4351714314014143,-0.15146783308797834,9.800974294204243
4345000000.0,20.7,-0.07620108516375304,0.030631804702648206,0.0008090980040334793,0.3549239432789394,-0.2770347375856474,9.733579340432293
4350000000.0,20.7,-0.03590279177877473,0.05220288962552841,-0.0014904928415274826,0.20601,-0.2982238310129383,9.67266
4355000000.0,20.7,0.005488334763693772,0.07046694281544261,-0.00030875792505563707,0.17187018491220185,-0.2531951695028517,9.675504984590651
4360000000.0,20.7,0.04179954277282386,0.09723369808292355,-0.0013627622708750156,0.04708672968346729,-0.14087049905900498,9.685216884687769
4365000000.0,20.7,0.07487417536906381,0.09685037778243596,-0.001841836758171606,-0.08269906306399064,0.0065744804826448,9.710821493494215
4370000000.0,20.7,0.1030727530345914,0.08764709062752962,-0.0013414692750807725,-0.17520753370207534,0.23348054646020544,9.781355479056055
4375000000.0,20.7,0.1256986865089358,0.060449137257727416,-0.001596957820498698,-0.25260741502087414,0.5174797944363979,9.861503264812132
4380000000.0,20.7,0.12723153451510005,0.02347790118720175,-0.00025552543557002936,-0.22876860446628605,0.763219701524897,9.944201395533714
4385000000.0,20.7,0.10401801134596884,-0.009064535102712235,-0.0010646508437165,-0.16304168895981688,0.9371502369070024,10.009928311040182
4390000000.0,20.7,0.0674579643666085,-0.04620611513959186,-0.0008304184039407136,-0.08534572094275722,1.0310314263524143,10.068199711622896
4395000000.0,20.7,0.021274466916207182,-0.07141979197972488,0.0006707578256360152,0.05827259514642595,1.054868702426787,10.12441092683801
4400000000.0,20.7,-0.024707307856297017,-0.07690624396336067,0.002981013087168037,0.18639085464720856,0.9574541197761413,10.149425401746953
4405000000.0,20.7,-0.07160440543704527,-0.07939735026683116,0.0023315946335174405,0.27978188449471886,0.7382003609540037,10.09449
4410000000.0,20.7,-0.10707433458145536,-0.06433963161915233,0.0031939525311496,0.3504135426358354,0.4936369728670698,10.076831143410411
4415000000.0,20.7,-0.12021570741778323,-0.043437577440754244,0.003012952580859404,0.37591885697568855,0.24112757034197574,9.983047713951377
4420000000.0,20.7,-0.12344148771816357,-0.022372095396059395,0.0017885947826468858,0.33707125658721254,-0.0082424604767246,9.903782827321228
4425000000.0,20.7,-0.1138249417876895,0.004634119827177319,-0.0001597069544959355,0.2893941404968414,-0.22514061735410618,9.81931889834779
4430000000.0,20.7,-0.08899048354693534,0.03268105323948544,-0.000915590387117686,0.19364862557308626,-0.3445278883794789,9.748588625573086
4435000000.0,20.7,-0.046342212673201634,0.04671551405762564,-0.0002768279174033848,0.1113430692772307,-0.403092296988123,9.670109227710892
4440000000.0,20.7,0.005625957372476884,0.06940981858220205,-0.0020015342266284293,0.05689713758327137,-0.3280452788582528,9.647153568791635
4445000000.0,20.7,0.051566302240651125,0.0878116507363965,-0.0009475298808090506,-0.04345942240429422,-0.19207790054657903,9.61586104972671
4450000000.0,20.7,0.09257253571808179,0.09927774346683195,0.0,-0.16873303723093036,0.024527160897771606,9.714843259307733
4455000000.0,20.7,0.1219101769341408,0.08883175044061867,-9.582796711320625e-05,-0.2826268787972688,0.27262258252392585,9.751042851863328
4460000000.0,20.7,0.1374272253020335,0.05799280124443974,-0.0009794693745004152,-0.3590455668492557,0.5713368256441683,9.857873752931637
4465000000.0,20.7,0.13548809416296465,0.02424738341845078,0.0,-0.30979927963639275,0.8508246823634469,9.961270720363608
4470000000.0,20.7,0.1078750369916267,-0.008795261199897736,0.0,-0.2574147472975475,1.2095734341219344,10.034847978380379
4475000000.0,20.7,0.07436157791069445,-0.032757731208984515,0.00015972592657416523,-0.2874317830989178,1.236056523139765,10.308834762375247
4480000000.0,20.7,-0.01316103819023078,-0.0888017392046811,0.0031939525311496,-0.1463628504971285,0.8621025389441255,9.920267097577371
4485000000.0,20.7,-0.07292073316633259,-0.09815998239813399,0.0032259015108800767,0.11055948404169484,0.8329668386527684,10.208088580379586
4490000000.0,20.7,-0.055632249448445456,-0.10321697930889752,0.0042159984111993865,0.1991443081929431,0.7944093521439936,10.073299702297097
4495000000.0,20.7,-0.11961990588874434,-0.09765907132526085,0.0021506136553054687,0.34325181269001814,0.30204806649038063,9.996782749239927
4500000000.0,20.7,-0.15020264634351954,-0.06391391926387584,0.004258574916748762,0.3335395629644956,0.09809886370768864,10.035628776300587
4505000000.0,20.7,-0.10697118940515576,-0.05969790188059814,0.0010965618792905286,0.2849800624789006,-0.028155837554858357,9.899662174940921
4510000000.0,20.7,-0.10234432382336421,-0.05548188449732052,0.0031513855116393364,0.3517872132093721,-0.23132163962811642,9.773309461182594
4515000000.0,20.7,-0.07850626164486912,-0.026463637198728397,0.0011285108590210072,0.41025472619074727,-0.3210820892861209,9.732696849206167
4520000000.0,20.7,-0.024590495250136436,0.0071540605966514785,-0.0009794978326177525,0.36493156102211566,-0.25780618543096184,9.656178497635386
4525000000.0,20.7,0.013041434183150877,0.026739488658859827,-5.322300344649529e-05,0.3256916484292165,-0.22710123632191237,9.65304
4530000000.0,20.7,0.04696292727099362,0.05573665906710604,-0.0020015626847457663,0.32373,-0.10575065613240658,9.67148297597963
4535000000.0,20.7,0.08268966182693985,0.08130552013191417,-0.00014903199848147674,0.19600256678292566,0.10261453791254539,9.727400328521602
4540000000.0,20.7,0.10285521761329927,0.08995154411350076,-0.00195897669315728,0.1322382708956827,0.30725105186511054,9.785671729104317
4545000000.0,20.7,0.10827939260976409,0.10411146747500752,-0.0030981435361146096,0.09182124687531246,0.48441938906109394,9.861797506249374
4550000000.0,20.7,0.10194112365317122,0.11217586898149307,-0.0031939525311496,-0.07063359080923591,0.6239172372960724,9.939492707026327
4555000000.0,20.7,0.09266625035464536,0.08448080342966147,-0.0022464036782622356,-0.20179285018032853,0.7686148271311484,10.034649884754097
4560000000.0,20.7,0.07004821921740809,0.0425221093354194,-0.002129301687433,-0.2503515542901156,0.8883946628703466,10.097237331435174
4565000000.0,20.7,0.04115756121832856,0.01132988430174546,-0.00027678997324693524,-0.2038512679821127,0.979333098026831,10.1043
4570000000.0,20.7,-0.0021059796123218052,-0.009028412559511211,0.0,-0.21307337753353378,0.8052028471311286,10.0789899336997
4575000000.0,20.7,-0.053795020728158685,-0.04160460461722827,0.0,-0.10741834476948343,0.6582497559055976,10.124901533183316
4580000000.0,20.7,-0.0644676046108043,-0.04866817643537102,0.002682949090205087,-0.03060657727296577,0.5470046214289462,9.977160709740907
4585000000.0,20.7,-0.08355016161858277,-0.05431086458902822,0.0005429429346358785,-0.027762389058123893,0.3668922188375222,9.955482389058124
4590000000.0,20.7,-0.10044907957642804,-0.05888884392872978,0.0,0.03492431324194313,0.17265421689514215,9.916928554223785
4595000000.0,20.7,-0.08866308493298858,-0.05016920826635245,0.0,0.06494237850472379,0.041985728971657296,9.836584296728743
4600000000.0,20.7,-0.07413796974833074,-0.036857736925731854,0.0,0.09221426804844268,-0.09810134024221341,9.796265731951557
4605000000.0,20.7,-0.05622700338355839,-0.017250814552899188,0.00084108387391606,0.05935005276700053,-0.18952991557279916,9.7593800422136
4610000000.0,20.7,-0.018958075431440062,-0.011945372748579462,0.0002342134676975615,0.033746220912562214,-0.12949110456281104,9.774095668631157
4615000000.0,20.7,0.014205517066808015,-0.008431995768394478,0.0,0.07475273784502737,-0.03237210359162103,9.757908631077486
4620000000.0,20.7,0.03911164653179468,0.0014480322764561767,-0.0016182887604493908,0.10320137947591379,0.09456965633139658,9.758595689737957
4625000000.0,20.7,0.06470832591602323,0.015450663856671038,-0.0005323059227778522,0.15205553901045538,0.23789384752613846,9.783022769505228
4630000000.0,20.7,0.07451791865177006,0.03021108786144438,0.0,0.1304725503390255,0.3835723489829235,9.79038
4635000000.0,20.7,0.06863027251011404,0.036417894951049266,0.0,0.0747516598241166,0.5077666803517669,9.88347807038108
4640000000.0,20.7,0.06067735017501172,0.02884809054760021,0.0007665583886362092,0.023543549367835495,0.6313727716436278,9.939099870379298
4645000000.0,20.7,0.05027567219131928,0.00665888427503019,0.0003087389529774123,0.06553152178841522,0.7019059511177596,9.954305190223552
4650000000.0,20.7,0.029726222207745352,-0.0003193854508745338,0.0,0.1088912709620127,0.71613,10.046422174168722
4655000000.0,20.7,0.004732224599186357,-0.012500564146766825,0.0007346188949448446,0.06356807665768077,0.6890540383288405,10.07791100958221
4660000000.0,20.7,-0.019857186063199483,-0.033319937973703896,0.0003406784466687769,0.059252671544726715,0.6301937663956377,10.048186437940364
4665000000.0,20.7,-0.03983660938190986,-0.05546572310311089,0.0007133258991506015,0.13439790612027908,0.5490648844917488,10.022484418775944
4670000000.0,20.7,-0.05354436627863965,-0.06214662696306225,0.00036197144246302,0.23151690709146905,0.45518309290853093,9.983636546454266
4675000000.0,20.7,-0.06444638117929691,-0.05348026068032258,0.0,0.2903763632250636,0.3198045470997455,9.909570682743606
4680000000.0,20.7,-0.07089810620473551,-0.038095492639710536,0.0006813864054592369,0.35433792722707924,0.1455786728356867,9.853556036386461
4685000000.0,20.7,-0.06639450478970536,-0.00981156591827596,0.0017353907512786153,0.36404882699848823,0.016676089994960897,9.814708435997984
4690000000.0,20.7,-0.04831643014824821,0.013106174879561984,0.0001490214584380185,0.3166662534142625,-0.05003145548811455,9.78194312670713
4695000000.0,20.7,-0.02381216195691766,0.04127301015021086,-0.0010646508437165,0.2883158088052581,-0.056701617610516175,9.782728382389484
4700000000.0,20.7,-0.0017032531047703175,0.07521003542622633,-0.00042585042984574924,0.2374012696651127,-0.07848045645930457,9.78449390870814
4705000000.0,20.7,0.017076819239031177,0.11355483415015874,-0.0012563078319472584,0.072886198053462,-0.08652401722204017,9.75741803444408
4710000000.0,20.7,0.04921484249348905,0.12422928534837242,-0.002129301687433,-0.15617739566637395,0.029627938235879392,9.775469348916594
4715000000.0,20.7,0.0810756594429834,0.11445582030489704,-0.003343023527791829,-0.24387641683356417,0.2085622484979225,9.805781791583218
4720000000.0,20.7,0.08982368917033545,0.10840864322747083,-0.003066174530301515,-0.35080752528707526,0.350414300164043,9.826481075041011
4725000000.0,20.7,0.09076065160357333,0.07665173444974985,-0.0009581658386627139,-0.49001032599710326,0.5802645286560453,9.887990325997103
4730000000.0,20.7,0.09210206185441078,0.027462326705328784,0.0,-0.5668224431220245,0.9431371668575718,9.985992410620325
4735000000.0,20.7,0.08088185838528937,-0.026358541613305066,0.0005642749285908999,-0.6192075678867757,1.0345609445095096,10.08762391971694
4740000000.0,20.7,0.01099378654068494,-0.09971425254154301,0.0010646508437165,-0.4131931489722315,0.7934299458667995,10.02660286655493
4745000000.0,20.7,-0.044189806795817944,-0.13518245716205568,0.0021506147093098647,-0.0909365801835658,0.7425206511527066,10.00276788248898
4750000000.0,20.7,-0.04047412527550074,-0.14220965791659568,0.004790958835848256,0.07357601489356015,0.7455583392650834,10.001293616054237
4755000000.0,20.7,-0.07330242630873407,-0.1523748830534884,0.0048228382512919095,0.24289781664407817,0.5274812062754121,9.95175496180085
4760000000.0,20.7,-0.10822991097617005,-0.14201797865604365,0.004216037409360232,0.4100589245728892,0.3547288603416886,9.962643322628134
4765000000.0,20.7,-0.1004488339934154,-0.12214245792806722,0.004322462336166312,0.5302318883161189,0.21709335635743354,9.933507622336776
4770000000.0,20.7,-0.10167080585408543,-0.08865356665171047,0.004173451417771744,0.6262707706061077,-0.01844539424275396,9.881808458787784
4775000000.0,20.7,-0.09726431934547472,-0.046658397026484125,0.0038859453823408274,0.6121432580108326,-0.18001377824593778,9.826186221754062
4780000000.0,20.7,-0.0614030319252057,-0.016660721425003536,0.0002554758973657759,0.5862459713830598,-0.20483298569152986,9.80136701430847
4785000000.0,20.7,-0.025071607162390964,0.016666633525445593,-0.0016714917378133154,0.5997832141142322,-0.23269357177153574,9.743977677628278
4790000000.0,20.7,0.005735545884687561,0.06460308838558837,-0.0019589777471616682,0.5473970695999707,-0.20149619047996192,9.694830879120008
4795000000.0,20.7,0.04598596022376146,0.10626944794681878,-0.0023209186234986762,0.4261449098060491,-0.0752414892174149,9.695811227451513
4800000000.0,20.7,0.07520637929249577,0.1352876035815903,-0.0014905212996448199,0.26290632178366324,0.06278549174785492,9.688356372936964
4805000000.0,20.7,0.0903881359016347,0.150277692662455,-0.003374973561526673,0.10722208669232086,0.21052390663903905,9.75398592664496
4810000000.0,20.7,0.10458652366576886,0.16074312947703476,-0.004514099298314508,-0.06003944228349442,0.3576741882841419,9.845905253999353
4815000000.0,20.7,0.11107028983584258,0.14827980002084135,-0.0031939525311496,-0.2749760769863608,0.519146696409567,9.932037522307175
4820000000.0,20.7,0.10435658422025117,0.10648563189263689,-0.0035772369954894336,-0.40652677449086777,0.8475900854766009,10.023858468113586
4825000000.0,20.7,0.09778738869987375,0.06946120127678204,-0.002022775576209792,-0.5552493739140938,1.2900159371983593,10.244097654590975
4830000000.0,20.7,0.05696484659874853,0.012764637834041657,0.0017673102188874093,-0.7381030865626309,1.1002824699114249,10.33129598846056
4835000000.0,20.7,-0.06184919630175985,-0.0694987727649408,0.001415995814364969,-0.5017772738666728,0.5661338791170388,9.832759575656295
4840000000.0,20.7,-0.09208062960909161,-0.08846093533149513,0.0017886032146816524,-0.20914929401119295,0.5403365862126659,9.93439305626863
4845000000.0,20.7,-0.04682013884868159,-0.09817636000146455,0.001394702818570726,-0.1702020883753209,0.5241438769093388,10.021501341400514
4850000000.0,20.7,-0.0958766831595162,-0.12207871806925807,0.002768112641347239,-0.01863739850767398,0.16774977532939775,9.873765471027154
4855000000.0,20.7,-0.11091039889711268,-0.11426420126082275,0.0030235674586261392,0.12085995442039954,0.0983949601178496,9.922324971512749
4860000000.0,20.7,-0.05884630115131948,-0.10465605080325951,0.0011924499246514734,0.22053031039470308,0.08122453440794536,9.926934161603642
4865000000.0,20.7,-0.06526607403501457,-0.08355857234863856,0.00397113739160036,0.3388375889935759,-0.08829,9.833347233019273
4870000000.0,20.7,-0.04942501372464704,-0.057074186244982214,0.0026403135604123372,0.37866694593906947,-0.0551309702792097,9.780177221624372
4875000000.0,20.7,-0.0002660907751324728,-0.034880065806740475,0.0015969968186595185,0.4414496212358962,0.024524431853844317,9.736424431853845
4880000000.0,20.7,0.007111939645603374,-0.004684309406116552,0.0024273730624264503,0.4214379791525798,-0.000784041694840417,9.69698898957629
4885000000.0,20.7,0.021354638685488765,0.018969944367033205,-0.0004897599833545073,0.449003605114736,0.09270592327895924,9.720925579541056
4890000000.0,20.7,0.05194736418995842,0.0633857293835772,-0.0016608346998727356,0.400442395334724,0.21680147491191476,9.768406359859064
4895000000.0,20.7,0.05791994200180055,0.08393618953528349,0.0,0.2385784393639844,0.2674211704770117,9.848161755715518
4900000000.0,20.7,0.057952036434130764,0.08181748269953461,-0.00021294049798588902,0.16284533376365332,0.35316190353241905,9.923796285529862
4905000000.0,20.7,0.06776797258272095,0.07427637632900198,-0.0016715328439828214,0.08740605198886052,0.5231679669161797,9.95479598109496
4910000000.0,20.7,0.06297689886039894,0.05777809537556837,-0.003492013366099498,-0.012361267596012675,0.5929171629668717,9.990111790741718
4915000000.0,20.7,0.04665286511059319,0.02511868357534659,0.0,-0.05199204532022045,0.6672767728078678,10.002864409064046
4920000000.0,20.7,0.030548566765609467,0.002470010700227822,0.0,0.02943,0.7114209133047091,9.981870913304709
4925000000.0,20.7,0.0031937448922934684,0.0015435672303612275,0.0001597080085002813,0.027958404337784043,0.6793420216889203,9.96450797831108
4930000000.0,20.7,-0.018485031697828846,-0.013393276436505506,0.0009155893331133402,0.023740487278004874,0.6184210593693107,10.002079512721997
4935000000.0,20.7,-0.0425526796429081,-0.011061753475283528,0.0,0.0554269792822698,0.48372985386609857,9.975494604143547
4940000000.0,20.7,-0.057483549420487876,-0.011412859186945498,0.0,0.10634107167501072,0.3527659687892597,9.962250816185708
4945000000.0,20.7,-0.06462724200101341,0.009552119551981913,0.0002342440338235903,0.1451860789861608,0.1919804513410045,9.92772
4950000000.0,20.7,-0.060293998254393716,0.03408617594501893,0.0019163506494036526,-0.03139219229562192,0.06768794237407942,9.923795615408757
4955000000.0,20.7,-0.04476973427642208,0.025462712909175858,-9.582902111755206e-05,-0.05434797746957978,-0.031195992489859926,9.88053303379563
4960000000.0,20.7,-0.02139399486218651,0.034384288426181804,-0.0009794683204960694,-0.11497406707844068,-0.04512551828975519,9.80097489634205
4965000000.0,20.7,0.0036212440959537207,0.02474795536110599,0.0,-0.19551320356083204,0.008928353709183537,9.805879221364993
4970000000.0,20.7,0.02465367287538141,0.01352101333118405,0.0,-0.18639,0.13400566189915664,9.751728696536286
4975000000.0,20.7,0.04382873981003496,0.008944023822514502,5.3243029529065904e-05,-0.18540880673318808,0.23985536970065371,9.76340298316703
4980000000.0,20.7,0.047049929835095386,0.016327027450444273,0.0010220543120845556,-0.16873248365262483,0.3276549673052497,9.811177490191575
4985000000.0,20.7,0.05117009711716863,-0.0016722252557229895,0.0,-0.21375922220649224,0.4268347460699474,9.842079571448796
4990000000.0,20.7,0.05211758378379949,-0.02188601487276108,0.0,-0.14656110922571108,0.5911518600219187,9.928505187699052
4995000000.0,20.7,0.04767759389822969,-0.05021203773294484,4.262815176231994e-05,-0.1157560595623606,0.7157372119124722,9.96745098510941
5000000000.0,20.7,0.021310227573063566,-0.06391405206842342,0.004258571754735725,0.07847941728599417,0.6768905827140059,10.016009514404995
5005000000.0,20.7,-0.0029491511405505197,-0.07340009118079822,0.001096558717277491,0.020208016703280172,0.7351619832967199,9.9674500139194
5010000000.0,20.7,-0.019904951138404403,-0.11630812750768263,0.002108019231682215,0.21189794626477948,0.6684527188073273,9.986187794626478
5015000000.0,20.7,-0.04814624022203756,-0.11305051841862473,0.0031620235775016905,0.37758855597608554,0.5528904310757043,10.03415898705179
5020000000.0,20.7,-0.07149450402377394,-0.10064114256367701,0.0011498017468065595,0.5238554626121547,0.4457653274177533,9.997959209970093
5025000000.0,20.7,-0.08256203370205402,-0.08394667687852443,0.0020760797379908505,0.6042967808367679,0.2736972431172724,9.93115281676783
5030000000.0,20.7,-0.08309512568745,-0.05805915950922522,0.002129301687433,0.6266629954034301,0.13576903217599032,9.936941497701715
5035000000.0,20.7,-0.07119726316964753,-0.01981014132221051,0.0011391657889528925,0.7190739779883398,-0.00019756918367572207,9.84629602201166
5040000000.0,20.7,-0.059527478863918286,0.048622094656942644,8.516144313351409e-05,0.6537376168323762,-0.13616417054334173,9.812354106312142
5045000000.0,20.7,-0.03726027645982388,0.09213285548986946,-0.0029065287080576835,0.49569763411777634,-0.23642197993071978,9.76536401003464
5050000000.0,20.7,-0.004472938044141377,0.1342302082791665,-0.0031939525311496,0.35708262673732627,-0.22759180381961802,9.716804509549045
5055000000.0,20.7,0.03306267940941408,0.1801996056540139,-0.005089052344932931,0.15999903806649038,-0.19070600725076006,9.72936199637462
5060000000.0,20.7,0.06821340439169708,0.20410739381396706,-0.0071970610365717,-0.1302798468172985,-0.06552942401799425,9.766051593137716
5065000000.0,20.7,0.10210175419193422,0.19368165543375854,-0.0046737851727234785,-0.35453556439405565,0.09604157248631573,9.796364395144645
5070000000.0,20.7,0.12026905373973816,0.17892332583929288,-0.0033429929616658432,-0.5766340650093407,0.32863746196667465,9.850810190872002
5075000000.0,20.7,0.13426919109642316,0.13336882092947056,-0.0031939525311496,-0.8083463658188637,1.2802158433364585,9.900742992878929
5080000000.0,20.7,0.16856987007495255,0.08184773739319734,-0.0005110002789314757,-1.412254408430444,1.6151204721310048,10.542618397813683
5085000000.0,20.7,0.01466161683390102,-0.10687445763795543,0.001767341839017784,-1.2355660430491604,0.7768433316074332,9.849230122997602
5090000000.0,20.7,-0.11857157362411508,-0.17700437026134536,0.0038753505306566224,-0.45321310195713105,0.4697012181257122,9.754868689804287
5095000000.0,20.7,-0.03620276234864797,-0.1756655364809344,0.007708115069724858,-0.270461403107214,0.7275131627134317,10.08860795857048
5100000000.0,20.7,-0.0466600733599205,-0.22818154415375824,0.00511028104646203,-0.10790801877238018,0.5042303347289034,9.92771702815857
5105000000.0,20.7,-0.1193467815352671,-0.26285627933933214,0.005099688302786585,0.2878299612909996,0.28439001598850017,9.9541099907435
5110000000.0,20.7,-0.08316983415479581,-0.2327130122687362,0.008645007938675914,0.6274507761798077,0.38298418660114186,10.129807985112379
5115000000.0,20.7,-0.07309131217565562,-0.20541856880974657,0.0063026898649440714,0.794709391585594,0.23298501618155015,9.931248420712384
5120000000.0,20.7,-0.10290708520171452,-0.17273905754406152,0.0053232542185827,1.017888185696282,0.06474450825214509,9.85905
5125000000.0,20.7,-0.07190702465072452,-0.10013740119539645,0.0013307595369229522,1.22625199093952,0.044145199093951995,9.82226200226512
5130000000.0,20.7,-0.05228788348197099,-0.007090287960035163,0.0,1.1809265046267652,-0.1179184918141849,9.69384800569448
5135000000.0,20.7,-0.04929629029917955,0.05465793792196575,-0.0015544118810753532,1.047510403623004,-0.24819399741213996,9.703169798188497
5140000000.0,20.7,-0.009889180724850927,0.11803662399925652,-0.003662420572714182,0.946860301455003,-0.21817360129333602,9.700520100485
5145000000.0,20.7,0.03179259930009143,0.19868095785722917,-0.0035026904301226664,0.775870801355508,-0.210130399870904,9.678349600129096
5150000000.0,20.7,0.05603050056715083,0.266203472663825,-0.004684485424842294,0.434578898664589,-0.202085799934858,9.761932300423423
5155000000.0,20.7,0.08750839668380464,0.288838617548674,-0.0053232542185827,0.036390994682709954,-0.07435799766557998,9.806959000129691
5160000000.0,20.7,0.12296788064514765,0.28067671652785536,-0.00894312147384318,-0.3217715079383151,0.12713980498979804,9.836683600907236
5165000000.0,20.7,0.1463540715664764,0.24949685700405155,-0.0070798736713905295,-0.6222512093939121,0.7614608278578083,9.91496800323928
5170000000.0,20.7,0.1888947594909244,0.21399481972525472,-0.0053232542185827,-1.1240361265259615,1.8103493501045937,10.35524612652596
5175000000.0,20.7,0.16341622466333197,0.10408028731369291,-0.002555118389139753,-1.7295092321262924,1.7927709663192097,10.221033572019035
5180000000.0,20.7,-0.062257034160189545,-0.07567811238034239,0.0016608989941378947,-1.4652139532383395,0.6529389101683891,10.07330100369171
5185000000.0,20.7,-0.16972444456078223,-0.15304575154958072,0.003864693492716061,-0.7950939536937396,0.24240681211086812,9.7854699643798
5190000000.0,20.7,-0.0631439556463797,-0.1750844066923893,0.004918697838535501,-0.5044292927142929,0.4257560161904602,9.810788227523782
5195000000.0,20.7,-0.06237894477802573,-0.2234584448304591,0.005972702184354918,-0.30930657552066576,0.17117895013468953,9.919577397280074
5200000000.0,20.7,-0.11504534238706121,-0.24649982061452191,0.007665507998049453,0.017661838142918385,0.0137349090338491,9.949302707026327
5205000000.0,20.7,-0.05380291888380599,-0.23350057421666184,0.006632741839798316,0.2941060242193602,0.22269003302640034,9.999922004403519
5210000000.0,20.7,-0.02385863147071522,-0.22414599259974885,0.005940762690663553,0.5419072335439723,0.22386207484202075,9.907901877238018
5215000000.0,20.7,-0.048213696914860237,-0.18666037268899646,0.005174181113931679,0.9033092569851926,0.1708908077707081,9.790477390934173
5220000000.0,20.7,-0.029015941344428513,-0.10741638914310955,0.003066172422292823,1.1163785069611851,0.2291622083534221,9.744468895823289
5225000000.0,20.7,-0.01917353496525496,-0.030197865117744707,0.001543732709043511,1.11098199255322,0.13096116574481168,9.693750789574509
5230000000.0,20.7,-0.027038258631389346,0.03853865611038326,-8.519411726823464e-05,1.0306374825487747,0.013537495240574952,9.710527514278276
5235000000.0,20.7,-0.002979533386017849,0.104113020956462,-0.0021932028089070446,0.9186071797968718,0.020797606734376067,9.782336410101564
5240000000.0,20.7,0.01815912576138085,0.1630653125947308,-0.0015330640770551756,0.6898357394557575,-0.011773017807130179,9.794696094657862
5245000000.0,20.7,0.028954862241836056,0.18850528883317638,-0.0021719319472040615,0.3646343380315434,-0.02884078873300789,9.820595615022656
5250000000.0,20.7,0.06018813336674923,0.1784335700719558,-0.0042586033748661,0.13243347037573472,0.10791224344892245,9.868860203949902
5255000000.0,20.7,0.087769064744808,0.1657450925357706,-0.0037369133838593403,-0.018052033153120324,0.2638900207207002,9.90270501036035
5260000000.0,20.7,0.09169746015217675,0.14602090480143512,-0.0037049960242592377,-0.2111136520605365,0.4033891412145914,9.92772
5265000000.0,20.7,0.08848223675932412,0.10592995710386627,-0.0022570153940159867,-0.31970759320107595,0.5786936385272364,9.936941604532617
5270000000.0,20.7,0.08097894390053845,0.07197198665349071,0.0,-0.29508459527314596,0.7483086425416865,9.974416214180563
5275000000.0,20.7,0.06630925481020679,0.058643813214431066,0.0,-0.3507090369081904,0.9760980738163807,10.02827301230273
5280000000.0,20.7,0.04533847747501011,0.03298068110243741,0.00046845750152115184,-0.48775453324964535,1.0257309335007094,10.05525
5285000000.0,20.7,-0.015983443839501982,-0.011633982508145856,0.0010646508437165,-0.42418111504691114,0.6761982699155827,10.013065973452159
5290000000.0,20.7,-0.0767072206251507,-0.022239630894478418,0.0006174863379895912,-0.2287687889923879,0.41869121100761214,9.98599211926332
5295000000.0,20.7,-0.0635973683244261,-0.009610552205170915,0.0008730360156595744,-0.29047625982946257,0.38916136296271364,9.973531362962714
5300000000.0,20.7,-0.06476271269577633,-0.04175922828155196,0.002129301687433,-0.35708255875402556,0.20404511750805115,9.93753102946141
5305000000.0,20.7,-0.0864949777602103,-0.0650849613062594,0.002129301687433,-0.22111595739435955,0.03158799391347994,9.96960797869718
5310000000.0,20.7,-0.05851977734370096,-0.0513016573002997,0.002129301687433,-0.15970741884227418,0.02334790314037903,9.890440968596211
5315000000.0,20.7,-0.03290448424272526,-0.051233952899176996,0.002523233703674338,-0.2070894097124941,0.02580019676250197,9.81147098381251
5320000000.0,20.7,-0.019770764359164795,-0.07827193581339678,0.0031939525311496,-0.14440082330380824,0.07612725335387253,9.76997488999615
5325000000.0,20.7,0.008576806306683405,-0.08122559724588821,0.0031939525311496,0.030902430885624308,0.1971816205904162,9.747706396568264
5330000000.0,20.7,0.022694460085250553,-0.0700737643950298,0.0028319600085996294,0.07161248235572482,0.26879503528855037,9.74800100705771
5335000000.0,20.7,0.02128924462733459,-0.09327930740351986,0.0024806477120858476,0.11693768702337685,0.37238884351168844,9.764187403625973
5340000000.0,20.7,0.026931871648739707,-0.11577605560842698,0.0028532530043938746,0.3343267707387677,0.4857923409540234,9.805292340954022
5345000000.0,20.7,0.02388131169173738,-0.10910573906662048,0.002459354716291603,0.5097292611233927,0.556128796179788,9.890834815280847
5350000000.0,20.7,0.007133036596589327,-0.09523212275012558,0.00287454600018812,0.6298024156693243,0.5640755195866552,9.92085310391733
5355000000.0,20.7,-0.005701112979567921,-0.08663509172424927,0.002129301687433,0.7369301124046012,0.5813399759132998,9.93625501204335
5360000000.0,20.7,-0.021523569819492876,-0.04865760328580917,0.0018311881522657927,0.9484314246694142,0.5038402465496026,9.965390712334708
5365000000.0,20.7,-0.03676341350662542,0.017491512238053508,0.00020224973190624302,0.9351851116175511,0.37758554528705546,9.989228804208688
5370000000.0,20.7,-0.047710005326686546,0.06019250029682034,-0.002129301687433,0.7720464784709649,0.2360266181896662,9.986187182776773
5375000000.0,20.7,-0.04900880007381388,0.09800973499441168,-0.0023954757289088675,0.7087713515678136,0.0588583295531833,9.93262395597074
5380000000.0,20.7,-0.04018909792999479,0.16690578505030115,-0.003705007618307066,0.5383688289982883,-0.0847595495004955,9.856695495499954
5385000000.0,20.7,-0.01649396147083686,0.21525627120208227,-0.004343730035856256,0.18059864829358646,-0.1712828091943281,9.842470786208509
5390000000.0,20.7,0.011396001614226067,0.2191206811676293,-0.0017673544870699556,-0.13989405491134055,-0.17344017183430172,9.815493390611435
5395000000.0,20.7,0.048307097855540285,0.20420130280202048,-0.0042586033748661,-0.433604095828041,-0.08838610896336109,9.804310409582804
5400000000.0,20.7,0.08395066732169894,0.18641467123052227,-0.0040456618228758645,-0.6356905173245052,0.13930630042936298,9.815885790222959
5405000000.0,20.7,0.1114963299864706,0.1416040666224052,-0.0031939525311496,-0.8669121146697213,0.6325584586788846,9.809510024928201
5410000000.0,20.7,0.12759707250092425,0.086282224443029,-0.0026190068625616065,-1.1256039185586393,1.3777172406620726,9.934003443972435
5415000000.0,20.7,0.11443227042661702,0.01797533812510479,0.00018100205829887022,-1.4281370653231706,1.2752894820121947,10.238397546185976
5420000000.0,20.7,-0.05151315744087136,-0.11044149320184185,0.001575717524921762,-1.1316759150421591,0.43752442084504417,9.82373294723003
5425000000.0,20.7,-0.09875130719058338,-0.1617070955707276,0.0042586033748661,-0.6454950495247506,0.3668977934681779,9.782534950475249
5430000000.0,20.7,-0.010265975390694616,-0.21282087130908453,0.0042586033748661,-0.3763088577478886,0.6258748358629485,10.002274945287649
5435000000.0,20.7,-0.042257366459057595,-0.24212676380623874,0.004950683708418046,-0.12635026635950267,0.3664029721582297,9.931939461251893
5440000000.0,20.7,-0.09003184077365796,-0.27552072072110106,0.009198548887009,0.12910414361534145,0.3531626416368264,10.036415750989256
5445000000.0,20.7,-0.04058268526953625,-0.292983224513319,0.006153658920466907,0.5510326708418267,0.5506335020359351,10.09252588474816
5450000000.0,20.7,-0.054653734397125786,-0.261844168573361,0.004578033093923168,0.9800210113345101,0.3884745179640452,9.911042258982022
5455000000.0,20.7,-0.0937611031745286,-0.20709721514633808,0.007165065680649998,1.1645471131797713,0.2631039880863399,9.84747398808634
5460000000.0,20.7,-0.07209042964886549,-0.15126403013661793,0.004003052643191763,1.344363778701338,0.23269150313681503,9.820201127352611
5465000000.0,20.7,-0.06899369037483598,-0.07046235001742389,0.0009901137643888451,1.4658108369064082,0.07249345852543458,9.711213193848932
5470000000.0,20.7,-0.07791951774537295,0.033665877889115646,0.0,1.5052436375471365,-0.1438157687300577,9.704444824992748
5475000000.0,20.7,-0.0453878365158036,0.14738422966872824,0.0,1.250771809640818,-0.2506466697983667,9.743292425381224
5480000000.0,20.7,-0.015901033658728716,0.21765370008743784,-0.00025558551381774905,0.9578447809575478,-0.35551503865455036,9.778607467787875
5485000000.0,20.7,0.01356536994640094,0.2782773411729333,-0.006419856150038369,0.6261681449577815,-0.40760390190683904,9.733875252316352
5490000000.0,20.7,0.07441261067583162,0.32109928656308123,-0.007495165085699797,0.24720773453347736,-0.261925400450054,9.810196306636664
5495000000.0,20.7,0.11956667659582929,0.34290297697499633,-0.0095818575934488,-0.14175930302019302,-0.1159522787919228,9.819711793266219
5500000000.0,20.7,0.14488003646716724,0.33236270144577973,-0.009581834405353191,-0.5787936322506364,0.05887581097335811,9.810001068309012
5505000000.0,20.7,0.16808541083496203,0.3007252923114296,-0.007473825713714337,-0.9089982355526823,1.4962370253469703,9.9071200692802
5510000000.0,20.7,0.28001139660437835,0.3087530263890248,-0.004322447580105419,-2.2198213554189135,2.683636657066967,11.484780752122807
5515000000.0,20.7,0.07356100932451753,0.015460662642979572,0.0029704572336446697,-2.6271222848903233,1.2897047387835474,9.556683732814836
5520000000.0,20.7,-0.25911878545825956,-0.1909901365106777,0.0031939525311496,-1.4805120120166202,-0.22329232622282325,10.004636189846362
5525000000.0,20.7,-0.15733835824504117,-0.2002233107709115,0.005216812427707088,-0.8171659171112592,0.19080997314129972,9.653035707340157
5530000000.0,20.7,0.007955320056758919,-0.24732976012035698,0.00732482111934585,-0.7940215074136151,0.335699596376996,9.771742611204226
5535000000.0,20.7,-0.09680429586577745,-0.3603027033526028,0.0094328298109847,-0.3840566620169666,-0.08545015300450148,9.890050890128808
5540000000.0,20.7,-0.07900655113163833,-0.3773940455274489,0.008602367138861469,0.28763684015756846,0.21621638149056382,10.060745536941356
5545000000.0,20.7,0.015396486011681032,-0.33454662829073567,0.00948605070642251,0.7093655159038552,0.4773574003292741,9.958816299835364
5550000000.0,20.7,-0.036851630974884,-0.3168032751916811,0.008623660134655712,1.0192623418648235,0.33255695176026945,9.920852676593727
5555000000.0,20.7,-0.050316528233479874,-0.2612697106496038,0.00567455386704431,1.4687583791620837,0.42742310268973105,9.81313790520948
5560000000.0,20.7,-0.01269434592136491,-0.14865953731130974,0.003449445292584921,1.719106883915569,0.47598163198531634,9.774291276011013
5565000000.0,20.7,-0.04916453344920483,-0.04154446929777311,0.0013414366009460647,1.6608319190655194,0.21611094910310946,9.753690383813103
5570000000.0,20.7,-0.07279336833518814,0.0483424066209925,0.00014903937651189762,1.6143331672377317,0.024719252569792516,9.734266583618865
5575000000.0,20.7,-0.03850671725600596,0.15308577351144975,-0.0027148949079225273,1.4587450508216506,-0.05837025801380258,9.764874433150744
5580000000.0,20.7,-0.02122515694709137,0.2454452568515763,-0.005876907945380762,1.1768042400710426,-0.22523965931129658,9.70483593292156
5585000000.0,20.7,-0.003260586530383476,0.33242196017919434,-0.008155249009325759,0.7698840267953403,-0.352768901783089,9.757419267855392
5590000000.0,20.7,0.03756871923758018,0.38570990598250804,-0.0085172067497323,0.2701616453107164,-0.40495723431617237,9.786848617158087
5595000000.0,20.7,0.0803241893339027,0.4044962527105077,-0.0085172067497323,-0.22867664248426642,-0.33255791323837913,9.806272417352325
5600000000.0,20.7,0.1335881269916698,0.3847784706271083,-0.009368939229554172,-0.7867684176235841,-0.04708430170844302,9.912025414052655
5605000000.0,20.7,0.17937809476175107,0.3135965216913577,-0.007058599647674467,-1.1970203370752035,1.515371711987217,9.929779991129601
5610000000.0,20.7,0.2674941251237082,0.2570895842050312,-0.0038965866102162318,-2.3312634375176344,2.3797164470186645,11.11376588996546
5615000000.0,20.7,0.05105197193002231,-0.0032909280670927743,0.0009050123995030194,-2.545988100288981,1.174335795559058,9.99038485052485
5620000000.0,20.7,-0.20079160377141378,-0.18625055967825904,0.0045567411521333125,-1.6339406097509062,0.0368747929860479,9.644408509941085
5625000000.0,20.7,-0.11398095440511702,-0.25087407765729486,0.007718754189591571,-0.949111490761815,0.26732938330919387,9.724163264812132
5630000000.0,20.7,-0.009291976177797694,-0.30118998008865344,0.006941499764853937,-0.6182232473881326,0.3347158877280589,9.72681098128801
5635000000.0,20.7,-0.08655533027367579,-0.35419701458894043,0.009496733040467435,-0.18412811789118122,0.031976440781664395,9.886422417421624
5640000000.0,20.7,-0.06958685279794417,-0.3662789499462276,0.009113387443875527,0.28998885841118854,0.2633055488609555,10.15217597695676
5645000000.0,20.7,-0.0028609153740854,-0.34798626490104684,0.0085172067497323,0.7979513209570133,0.4481216771788168,10.022873710579438
5650000000.0,20.7,-0.04292556911897802,-0.29092289864998855,0.007771939248881573,1.2056530605454308,0.32667069536610693,9.971865548722356
5655000000.0,20.7,-0.05935710854745572,-0.2070348289401267,0.005983313900108628,1.4837652460397526,0.3393291082574911,9.905351881900918
5660000000.0,20.7,-0.0358375703872669,-0.11522069975100421,0.002427356198356905,1.5664609099387092,0.3260836304290363,9.728770891287109
5665000000.0,20.7,-0.04947191451628839,-0.028123105096867322,0.0010646508437165,1.6353281003582811,0.1463625591401256,9.682568430107485
5670000000.0,20.7,-0.05861196014909605,0.09632496361394269,-0.001043393684070015,1.6159023189364232,-0.009026521595365211,9.67285586960116
5675000000.0,20.7,-0.04021383202535424,0.21172179264020374,-0.002821336698798115,1.2448830475764305,-0.17020559437125596,9.6819798306902
5680000000.0,20.7,-0.02339705411215207,0.27373511471464623,-0.005238118071553449,0.8397321385485215,-0.3484531858893319,9.736229572290295
5685000000.0,20.7,0.014377923840618083,0.3148648459503916,-0.007729389093440877,0.43801153090631534,-0.37493753745417535,9.754769589575695
5690000000.0,20.7,0.07701413141622973,0.3289135567344997,-0.0085172067497323,-0.017270905028309025,-0.2315137895715379,9.793716173649962
5695000000.0,20.7,0.11762201685839146,0.3014557428610894,-0.0065688596904025474,-0.417615792886058,-0.0552284194847842,9.831778421237084
5700000000.0,20.7,0.1427437987918246,0.24990257437852503,-0.005962056740462142,-0.6710061035975611,0.23936831791078322,9.874746664293966
5705000000.0,20.7,0.16973934222105996,0.19043915808881193,-0.004503436990352178,-0.8902602703195027,1.254813611104236,9.92144204325112
5710000000.0,20.7,0.21754867143992976,0.1298898580378358,-0.00010640490072354571,-1.508591892800819,2.0703066145761664,10.5748000219087
5715000000.0,20.7,0.0818227038569311,-0.03891112068447172,0.0015224386592449222,-1.6318885046841851,1.3657311049192113,10.253396459017464
5720000000.0,20.7,-0.13771612404005917,-0.16788643549714677,0.0022570839042984686,-0.8597366229614661,0.4304570225848703,9.712293399937234
5725000000.0,20.7,-0.12213450000518986,-0.15674832517811438,0.004365092595937325,-0.33206705438367057,0.44881250405652506,9.939986392043965
5730000000.0,20.7,-0.05032908491554804,-0.16068115201716443,0.00417340714958922,-0.3064650677902507,0.43026203676662034,9.977944751435748
5735000000.0,20.7,-0.10915862672389745,-0.20636927381817177,0.004322506604348836,-0.12036413278474131,0.08406824673968244,9.977458816514389
5740000000.0,20.7,-0.10886626596172849,-0.2036312442232876,0.004769623679880178,0.23701327925623283,0.08397672179316726,10.126275737911357
5745000000.0,20.7,-0.05360967629290637,-0.15390704115333267,0.0042586033748661,0.45744175066651754,0.07573007548750074,9.987654748000448
5750000000.0,20.7,-0.06178504379160994,-0.108655060268502,0.0037262658319578727,0.5493606701211067,-0.08338555843425559,9.785474664939446
5755000000.0,20.7,-0.042292492225165124,-0.06757617098854968,0.0016288793961162348,0.6412811531916115,-0.03099781145647812,9.765952988216029
5760000000.0,20.7,0.0003407975491598993,-0.014010798593364158,0.0,0.6592308811891088,0.025505440594554406,9.685607409902573
5765000000.0,20.7,0.0033216620217151565,0.023620896177086775,0.0,0.5344470083486701,0.0,9.617822435934624
5770000000.0,20.7,0.024099031183657322,0.03423544087846085,0.0,0.41967101547271013,0.11733051395850513,9.687572544903924
5775000000.0,20.7,0.06072024815188654,0.03174385365526972,0.0,0.4046630608622306,0.2992061217244612,9.75114
5780000000.0,20.7,0.061188158625152214,0.030807375010026564,0.0,0.4273234877304349,0.3747425613478256,9.789988610426086
5785000000.0,20.7,0.05237328840010833,0.038791963851694616,0.0,0.3712090515997905,0.469704597866946,9.864740474200104
5790000000.0,20.7,0.057866691594241036,0.022175799320012415,-0.0004471655597312546,0.33295218724662184,0.588012187246622,9.89829
5795000000.0,20.7,0.04534965598592054,0.011250064414406501,-0.001501169905550633,0.4250687632919876,0.6318622125609222,9.93851212560922
5800000000.0,20.7,0.024930111865181202,0.03409362860240314,-0.0012775565595589768,0.48068943670979436,0.6258776620258767,10.008162337974124
5805000000.0,20.7,0.007675887642780727,0.06365490740655375,0.0,0.4129998724483987,0.5584818341829183,10.02964601275516
5810000000.0,20.7,-0.017062694146660187,0.08961108279172718,-0.0004045795681427684,0.30842504577265045,0.4098596558066966,10.057997477113675
5815000000.0,20.7,-0.035033782768145325,0.11255004658910359,-0.0010646508437165,0.16647355396143554,0.26889130935421307,10.061821683455417
