#timestamp [ns], temperature [degC], w_RS_S_x [rad s^-1], w_RS_S_y [rad s^-1], w_RS_S_z [rad s^-1], a_RS_S_x [m s^-2], a_RS_S_y [m s^-2], a_RS_S_z [m s^-2]
0.0,21.78,0.0,0.0,0.0,0.33354,0.21582,9.85905
5000000.0,21.78,0.0,0.0,0.0,0.343251900097119,0.244955700291357,9.878473800194238
10000000.0,21.78,0.0,0.0,0.0,0.324122399611524,0.22602239961152398,9.87867
15000000.0,21.78,0.0,0.0,0.0,0.304698599417286,0.22563,9.888185700291357
20000000.0,21.78,0.0,0.0,0.0,0.32294520077695205,0.22563,9.897897600388475
25000000.0,21.78,0.0,0.0,0.0,0.333049500485595,0.20699099902881,9.87965099902881
30000000.0,21.78,0.0,0.0,0.0,0.315097198834572,0.224452801165428,9.869448599417286
35000000.0,21.78,0.0,0.0,0.0,0.332166601359666,0.20738339864033398,9.850613398640334
40000000.0,21.78,0.0,0.0,0.0,0.33354,0.20601,9.84924
45000000.0,21.78,0.0,0.0,0.0,0.36032130262221307,0.223864201748142,9.867094201748142
50000000.0,21.78,0.0,0.0,0.0,0.35414099902880997,0.21680099902881,9.86886
55000000.0,21.78,0.0,0.0,0.0,0.33569819786338195,0.207089098931691,9.886321802136617
60000000.0,21.78,0.0,0.0,0.0,0.29900879533828795,0.20601,9.879847198834572
65000000.0,21.78,0.0,0.0,0.0,0.302834701262547,0.22307940252509403,9.853065896212359
70000000.0,21.78,0.0,0.0,0.0,0.337856405438664,0.22563,9.840803398640334
75000000.0,21.78,0.0,0.0,0.0,0.36002700291357004,0.22563,9.847768501456786
80000000.0,21.78,0.0,0.0,0.0,0.346489196892192,0.21738959844609598,9.873961204661711
85000000.0,21.78,0.0,0.0,0.0,0.31892309504693095,0.22396230165102302,9.870527698348976
90000000.0,21.78,0.0,0.0,0.0,0.31392,0.217585798251858,9.876904201748141
95000000.0,21.78,0.0,0.0,0.0,0.30597389815473897,0.23965830553578304,9.862777796309478
100000000.0,21.78,0.0,0.0,0.0,0.33550200776952005,0.25309800194238,9.882594005827139
105000000.0,21.78,0.0,0.0,0.0,0.32785019592100195,0.25506,9.872980195921002
110000000.0,21.78,0.0,0.0,0.0,0.316078197863382,0.2168009893169099,9.86886
115000000.0,21.78,0.0,0.0,0.0,0.32147370223373706,0.198456297766263,9.846198893298789
120000000.0,21.78,0.0,0.0,0.0,0.31627439766914395,0.1962,9.846885602330856
125000000.0,21.78,0.0,0.0,0.0,0.306562497572025,0.18884249757202498,9.871312507283925
130000000.0,21.78,0.0,0.0,0.0,0.3331476101003761,0.2154276101003761,9.885929402525093
135000000.0,21.78,0.0,0.0,0.0,0.35051130262221303,0.23279130262221304,9.874157394755574
140000000.0,21.78,0.0,0.0,0.0,0.3390335945613359,0.22837679728066798,9.875923202719331
145000000.0,21.78,0.0,0.0,0.0,0.3126446915506469,0.21169979436709793,9.87867
150000000.0,21.78,0.0,0.0,0.0,0.30411,0.20601,9.86493599417286
155000000.0,21.78,0.0,0.0,0.0,0.3244167090320671,0.2263167090320671,9.85905
160000000.0,21.78,0.0,0.0,0.0,0.33354,0.22209839378438395,9.865720803107807
165000000.0,21.78,0.0,0.0,0.0,0.33354,0.20924729679507298,9.875432703204927
170000000.0,21.78,0.0,0.0,0.0,0.327065396697954,0.20601,9.872195396697954
175000000.0,21.78,0.0,0.0,0.0,0.31735349660083495,0.21238650339916504,9.881613006798329
180000000.0,21.78,0.0,0.0,0.0,0.3327552104888521,0.21582,9.863366386014864
185000000.0,21.78,0.0,0.0,0.0,0.33716969640659694,0.22200030359340303,9.861600607186807
190000000.0,21.78,0.0,0.0,0.0,0.3457044073810441,0.21954779630947796,9.862777796309478
195000000.0,21.78,0.0,0.0,0.0,0.3352076886370769,0.21582,9.85905
200000000.0,21.78,0.0,0.0,0.0,0.31784399611523995,0.20993399611523997,9.87670801165428
205000000.0,21.78,0.0,0.0,0.0,0.31392,0.19443419203624193,9.865328384072484
210000000.0,21.78,0.0,0.0,0.0,0.31392,0.20345941223699412,9.866309412236994
215000000.0,21.78,0.0,0.0,0.0,0.3306951125283511,0.23818681670446817,9.873078295823882
220000000.0,21.78,0.0,0.0,0.0,0.34335,0.24407279145352792,9.863366395726764
225000000.0,21.78,0.0,0.0,0.0,0.348745504370355,0.23004449562964496,9.85905
230000000.0,21.78,0.0,0.0,0.0,0.3425651910650519,0.2150351910650519,9.869644808934948
235000000.0,21.78,0.0,0.0,0.0,0.32834069543540695,0.20601,9.87867
240000000.0,21.78,0.0,0.0,0.0,0.318628795338288,0.20090879533828795,9.873568795338288
245000000.0,21.78,0.0,0.0,0.0,0.31392,0.20120310475883105,9.86886
250000000.0,21.78,0.0,0.0,0.0,0.31882500485595006,0.22072501456785015,9.8786700097119
255000000.0,21.78,0.0,0.0,0.0,0.3285369049530691,0.23063309504693094,9.88848
260000000.0,21.78,0.0,0.0,0.0,0.33354,0.2350476101003761,9.879062389899623
265000000.0,21.78,0.0,0.0,0.0,0.3427614102946141,0.22680717941077178,9.86886
270000000.0,21.78,0.0,0.0,0.0,0.3441347895111479,0.20601,9.86886
275000000.0,21.78,0.0,0.0,0.0,0.329125494658455,0.20159549465845494,9.873274505341545
280000000.0,21.78,0.0,0.0,0.0,0.32373,0.21346562175465622,9.865720783684008
285000000.0,21.78,0.0,0.0,0.0,0.33638491660734915,0.25231322214313223,9.866113222143133
290000000.0,21.78,0.0,0.0,0.0,0.35316,0.2540789718354897,9.88848
295000000.0,21.78,0.0,0.0,0.0,0.3451157885399579,0.22160789426997896,9.876413682809936
300000000.0,21.78,0.0,0.0,0.0,0.31784397669143977,0.21582,9.87082201748142
305000000.0,21.78,0.0,0.0,0.0,0.2981259059242591,0.2081681881514819,9.869350470378704
310000000.0,21.78,0.0,0.0,0.0,0.3003821939786219,0.21111122408551225,9.850613418064134
315000000.0,21.78,0.0,0.0,0.0,0.3051891183554912,0.23181029388150295,9.865230293881503
320000000.0,21.78,0.0,0.0,0.0,0.33785642486246426,0.22916160621561607,9.866113212431232
325000000.0,21.78,0.0,0.0,0.0,0.36983701262547014,0.22857298737452988,9.87867
330000000.0,21.78,0.0,0.0,0.0,0.3625775615408756,0.21248459359014593,9.875334593590146
335000000.0,21.78,0.0,0.0,0.0,0.3269673065069731,0.19953538698605386,9.862385386986054
340000000.0,21.78,0.0,0.0,0.0,0.3241223801877238,0.1958076198122762,9.855518413208184
345000000.0,21.78,0.0,0.0,0.0,0.31019221340242215,0.2279844268048443,9.865818893298789
350000000.0,21.78,0.0,0.0,0.0,0.3325590203949902,0.24917398640333988,9.861993006798329
355000000.0,21.78,0.0,0.0,0.0,0.3446252793136528,0.24112981379089815,9.86886
360000000.0,21.78,0.0,0.0,0.0,0.32373,0.2385791580445916,9.863366386014864
365000000.0,21.78,0.0,0.0,0.0,0.32373,0.1962,9.857186121269061
370000000.0,21.78,0.0,0.0,0.0,0.3288312143736122,0.1962,9.87867
375000000.0,21.78,0.0,0.0,0.0,0.33844498543214985,0.2060100291357003,9.876217492716075
380000000.0,21.78,0.0,0.0,0.0,0.32843881476208814,0.23308559261895592,9.875923222143133
385000000.0,21.78,0.0,0.0,0.0,0.34560630747816307,0.22563,9.89152107756551
390000000.0,21.78,0.0,0.0,0.0,0.34884358484943584,0.22131358484943583,9.871018207575283
395000000.0,21.78,0.0,0.0,0.0,0.32941978465519783,0.20601,9.876609892327599
400000000.0,21.78,0.0,0.0,0.0,0.31392,0.20797200776952007,9.86493598446096
405000000.0,21.78,0.0,0.0,0.0,0.31764781573327816,0.21582,9.852967815733278
410000000.0,21.78,0.0,0.0,0.0,0.33883742389127425,0.21935161592751617,9.870625807963759
415000000.0,21.78,0.0,0.0,0.0,0.36130229193912294,0.23710770806087708,9.880337708060877
420000000.0,21.78,0.0,0.0,0.0,0.34845117552601174,0.24211078368400785,9.885340783684008
425000000.0,21.78,0.0,0.0,0.0,0.32373,0.22415849174488492,9.870331508255115
430000000.0,21.78,0.0,0.0,0.0,0.3209831832955318,0.21444659164776592,9.875923183295532
435000000.0,21.78,0.0,0.0,0.0,0.3053853084493531,0.20856061689870617,9.856499383101294
440000000.0,21.78,0.0,0.0,0.0,0.31862883418588833,0.22680720854647207,9.841784417092944
445000000.0,21.78,0.0,0.0,0.0,0.35316,0.23328178271281783,9.85905
450000000.0,21.78,0.0,0.0,0.0,0.35217899125928986,0.2168010087407101,9.85905
455000000.0,21.78,0.0,0.0,0.0,0.3424670911621709,0.2247470911621709,9.861698726513486
460000000.0,21.78,0.0,0.0,0.0,0.3319703821301038,0.21268076426020766,9.88769519106505
465000000.0,21.78,0.0,0.0,0.0,0.31460670903206706,0.17795341806413417,9.877296581935866
470000000.0,21.78,0.0,0.0,0.0,0.32373,0.1973772182583722,9.860815827387558
475000000.0,21.78,0.0,0.0,0.0,0.3247110184526102,0.2163105092263051,9.887008472321083
480000000.0,21.78,0.0,0.0,0.0,0.34335,0.22563,9.859834818646847
485000000.0,21.78,0.0,0.0,0.0,0.3430556905794569,0.22621861884108618,9.878081381158914
490000000.0,21.78,0.0,0.0,0.0,0.3329513714470137,0.2444651619293516,9.859246209517663
495000000.0,21.78,0.0,0.0,0.0,0.3043062192295622,0.2059118903852189,9.868761890385219
500000000.0,21.78,0.0,0.0,0.0,0.3237300194238002,0.19620001942380022,9.8590500291357
505000000.0,21.78,0.0,0.0,0.0,0.3431538196180382,0.2156238196180382,9.888185729427057
510000000.0,21.78,0.0,0.0,0.0,0.34335,0.2638890495306905,9.869252380187724
515000000.0,21.78,0.0,0.0,0.0,0.3338342899967429,0.2458385799934858,9.859344289996743
520000000.0,21.78,0.0,0.0,0.0,0.33354,0.2546676101003761,9.840214779799249
525000000.0,21.78,0.0,0.0,0.0,0.3242204898025049,0.1991429388150294,9.848749510197495
530000000.0,21.78,0.0,0.0,0.0,0.31450858970538587,0.2054214102946141,9.858461410294614
535000000.0,21.78,0.0,0.0,0.0,0.3412899311751993,0.1968866896082669,9.868173310391732
540000000.0,21.78,0.0,0.0,0.0,0.34335,0.21425042097770422,9.895935631466555
545000000.0,21.78,0.0,0.0,0.0,0.3522771105859711,0.2693826635158266,9.889362889414029
550000000.0,21.78,0.0,0.0,0.0,0.35316,0.2570219786338198,9.879650989316909
555000000.0,21.78,0.0,0.0,0.0,0.3356981784395818,0.24632908921979088,9.86120817843958
560000000.0,21.78,0.0,0.0,0.0,0.33354,0.18482032385870323,9.867682810877328
565000000.0,21.78,0.0,0.0,0.0,0.3250052890255529,0.19364942194889423,9.86886
570000000.0,21.78,0.0,0.0,0.0,0.32373,0.21307322214313223,9.860423388928433
575000000.0,21.78,0.0,0.0,0.0,0.33206851116868513,0.24083553350605533,9.87572702233737
580000000.0,21.78,0.0,0.0,0.0,0.35826123379741237,0.22876917746839176,9.853948766202588
585000000.0,21.78,0.0,0.0,0.0,0.34668537727415377,0.23377231136292312,9.873666934088769
590000000.0,21.78,0.0,0.0,0.0,0.3353057885399579,0.21130736561987365,9.870625788539957
595000000.0,21.78,0.0,0.0,0.0,0.3255938884428389,0.19011777688567777,9.86091388844284
600000000.0,21.78,0.0,0.0,0.0,0.32373,0.19423801165428012,9.86689801165428
605000000.0,21.78,0.0,0.0,0.0,0.31598008824860085,0.22719964700559647,9.861110088248601
610000000.0,21.78,0.0,0.0,0.0,0.31392,0.2430918118485181,9.866701811848518
615000000.0,21.78,0.0,0.0,0.0,0.31392,0.23769628805436288,9.846198864163089
620000000.0,21.78,0.0,0.0,0.0,0.3362868361282684,0.22052877591448777,9.861796836128269
625000000.0,21.78,0.0,0.0,0.0,0.33599248786012487,0.2084624878601249,9.876217512139874
630000000.0,21.78,0.0,0.0,0.0,0.3262805877630059,0.1987505877630059,9.907707648947977
635000000.0,21.78,0.0,0.0,0.0,0.32373,0.21052262466822627,9.889264750663546
640000000.0,21.78,0.0,0.0,0.0,0.3096035751375357,0.21582,9.87867
645000000.0,21.78,0.0,0.0,0.0,0.3250053375850534,0.23671533758505336,9.857774662414947
650000000.0,21.78,0.0,0.0,0.0,0.34040701262547013,0.2177819494981195,9.85610701262547
655000000.0,21.78,0.0,0.0,0.0,0.32981217455482176,0.21954782544517826,9.865818912722588
660000000.0,21.78,0.0,0.0,0.0,0.3304008128197081,0.21228837436058373,9.86886
665000000.0,21.78,0.0,0.0,0.0,0.33354,0.19286457416634573,9.895150851667308
670000000.0,21.78,0.0,0.0,0.0,0.3205907739721077,0.2058138390418384,9.869252321916322
675000000.0,21.78,0.0,0.0,0.0,0.32029651311106516,0.22219651311106514,9.87474605244426
680000000.0,21.78,0.0,0.0,0.0,0.3425652396245524,0.2444652396245524,9.869644760375447
685000000.0,21.78,0.0,0.0,0.0,0.3407993733893937,0.23033874677878746,9.865230313305302
690000000.0,21.78,0.0,0.0,0.0,0.33354,0.20973778659757786,9.844531146390311
695000000.0,21.78,0.0,0.0,0.0,0.33354,0.20601,9.847572340498623
700000000.0,21.78,0.0,0.0,0.0,0.3158819592100196,0.21189601359666013,9.85905
705000000.0,21.78,0.0,0.0,0.0,0.3098979136937791,0.21003208630622086,9.876413741081336
710000000.0,21.78,0.0,0.0,0.0,0.32529962758179626,0.24014888274538881,9.905549441372694
715000000.0,21.78,0.0,0.0,0.0,0.3223565722239657,0.24250314444793145,9.884359716671897
720000000.0,21.78,0.0,0.0,0.0,0.30842638601486383,0.21464277202972773,9.85905
725000000.0,21.78,0.0,0.0,0.0,0.29871448591774485,0.21140551408225514,9.853654485917744
730000000.0,21.78,0.0,0.0,0.0,0.30489482835874826,0.1893329291031293,9.865132242538122
735000000.0,21.78,0.0,0.0,0.0,0.32951794282947944,0.18756725710597258,9.868271371447014
740000000.0,21.78,0.0,0.0,0.0,0.34845121437361215,0.20601,9.864151214373612
745000000.0,21.78,0.0,0.0,0.0,0.3581631144707311,0.21601622894146227,9.878866228941462
750000000.0,21.78,0.0,0.0,0.0,0.35315997086429973,0.22563,9.88357498543215
755000000.0,21.78,0.0,0.0,0.0,0.3337361706700617,0.2160161706700617,9.87867
760000000.0,21.78,0.0,0.0,0.0,0.31902118523791184,0.20601,9.869252370475824
765000000.0,21.78,0.0,0.0,0.0,0.3231414297184143,0.20601,9.85905
770000000.0,21.78,0.0,0.0,0.0,0.3245147700873477,0.21052261495632615,9.854537385043674
775000000.0,21.78,0.0,0.0,0.0,0.33157806021378056,0.22023451505344516,9.85806903010689
780000000.0,21.78,0.0,0.0,0.0,0.35316,0.2169971696988717,9.877492830301128
785000000.0,21.78,0.0,0.0,0.0,0.34894168475231685,0.2144466304953663,9.896916630495365
790000000.0,21.78,0.0,0.0,0.0,0.3392297846551978,0.22150978465519786,9.895739353965594
795000000.0,21.78,0.0,0.0,0.0,0.33756211544192116,0.21582,9.874647884558078
800000000.0,21.78,0.0,0.0,0.0,0.3355019689219197,0.21974401553904016,9.86886
805000000.0,21.78,0.0,0.0,0.0,0.3199040843638408,0.22563,9.87268591563616
810000000.0,21.78,0.0,0.0,0.0,0.3213756314665563,0.22935781573327815,9.874942184266722
815000000.0,21.78,0.0,0.0,0.0,0.32991028416960283,0.22455085250880852,9.865230284169602
820000000.0,21.78,0.0,0.0,0.0,0.3272616159275162,0.20247838407248384,9.866113231855032
825000000.0,21.78,0.0,0.0,0.0,0.31980593590145934,0.20993406409854065,9.87180296795073
830000000.0,21.78,0.0,0.0,0.0,0.31097708060877083,0.23210458387824584,9.865720832243507
835000000.0,21.78,0.0,0.0,0.0,0.34335,0.22563,9.87867
840000000.0,21.78,0.0,0.0,0.0,0.3402107836840078,0.22876921631599217,9.875530783684008
845000000.0,21.78,0.0,0.0,0.0,0.3244166507606665,0.22935776717377768,9.862777767173778
850000000.0,21.78,0.0,0.0,0.0,0.30411,0.20699095046930951,9.86689809906138
855000000.0,21.78,0.0,0.0,0.0,0.30126508339265085,0.19207983321469832,9.896720333570602
860000000.0,21.78,0.0,0.0,0.0,0.3025404501134045,0.20601,9.874353633408935
865000000.0,21.78,0.0,0.0,0.0,0.31843256639682566,0.21130743360317433,9.88848
870000000.0,21.78,0.0,0.0,0.0,0.30666061689870616,0.22563,9.875726915506469
875000000.0,21.78,0.0,0.0,0.0,0.3188250339916503,0.22317748300417484,9.846787550987475
880000000.0,21.78,0.0,0.0,0.0,0.33589441709294415,0.21582,9.866505582907056
885000000.0,21.78,0.0,0.0,0.0,0.3456063171900632,0.21582,9.85905
890000000.0,21.78,0.0,0.0,0.0,0.35316,0.21582,9.861208217287182
895000000.0,21.78,0.0,0.0,0.0,0.3490397652313976,0.21582,9.872980234768603
900000000.0,21.78,0.0,0.0,0.0,0.33550201748142017,0.21385798251857985,9.88651798251858
905000000.0,21.78,0.0,0.0,0.0,0.34335,0.20787391757853918,9.88053391757854
910000000.0,21.78,0.0,0.0,0.0,0.34335,0.21582,9.883182546973025
915000000.0,21.78,0.0,0.0,0.0,0.34668543554555437,0.21415228222722282,9.860717717772777
920000000.0,21.78,0.0,0.0,0.0,0.35983076426020766,0.2122884714795847,9.867290382130104
925000000.0,21.78,0.0,0.0,0.0,0.33893544609895443,0.24377848203298483,9.85905
930000000.0,21.78,0.0,0.0,0.0,0.31392,0.23544,9.85905
935000000.0,21.78,0.0,0.0,0.0,0.31774595448375953,0.23544,9.857774681838746
940000000.0,21.78,0.0,0.0,0.0,0.34335,0.23190834522488346,9.855126091291861
945000000.0,21.78,0.0,0.0,0.0,0.34335,0.20708911835549118,9.893973526578035
950000000.0,21.78,0.0,0.0,0.0,0.34138796309477965,0.21778203690522038,9.86101203690522
955000000.0,21.78,0.0,0.0,0.0,0.3246129185497292,0.23544,9.87867
960000000.0,21.78,0.0,0.0,0.0,0.33354,0.2362248186468482,9.877885181353152
965000000.0,21.78,0.0,0.0,0.0,0.33354,0.24181640628016407,9.866113125024132
970000000.0,21.78,0.0,0.0,0.0,0.33354,0.1967886188410862,9.830208618841086
975000000.0,21.78,0.0,0.0,0.0,0.3350115568146156,0.20601,9.840411037876411
980000000.0,21.78,0.0,0.0,0.0,0.36257758096467585,0.20444032385870323,9.85905
985000000.0,21.78,0.0,0.0,0.0,0.3525713617351136,0.16824159566221597,9.85905
990000000.0,21.78,0.0,0.0,0.0,0.3337362192295622,0.2156237807704378,9.858657561540875
995000000.0,21.78,0.0,0.0,0.0,0.34295752269327523,0.20601,9.839724357980044
1000000000.0,21.78,0.0,0.0,0.0,0.30411001942380017,0.20601003884760039,9.86886
1005000000.0,21.78,0.0,0.0,0.0,0.31382191952091915,0.2254338390418384,9.86886
1010000000.0,21.78,0.0,0.0,0.0,0.3427614588541146,0.21601618038196183,9.86886
1015000000.0,21.78,0.0,0.0,0.0,0.3528657197151572,0.2063042802848428,9.859344280284843
1020000000.0,21.78,0.0,0.0,0.0,0.3343247603754476,0.23426285943682862,9.887302859436828
1025000000.0,21.78,0.0,0.0,0.0,0.3149009601812096,0.21680096018120962,9.86984096018121
1030000000.0,21.78,0.0,0.0,0.0,0.3323628400130284,0.1881557399804574,9.86886
1035000000.0,21.78,0.0,0.0,0.0,0.3244166798963668,0.2046366402072664,9.86886
1040000000.0,21.78,0.0,0.0,0.0,0.32373,0.2240604404015044,9.877885220200751
1045000000.0,21.78,0.0,0.0,0.0,0.3415842405957424,0.21670287970212881,9.869742879702128
1050000000.0,21.78,0.0,0.0,0.0,0.34335,0.2423070611849706,9.877689020394989
1055000000.0,21.78,0.0,0.0,0.0,0.29969539753945396,0.24525,9.904862761476327
1060000000.0,21.78,0.0,0.0,0.0,0.2943,0.2193515382323154,9.86493589705386
1065000000.0,21.78,0.0,0.0,0.0,0.32843888274538885,0.2243547206863472,9.85905
1070000000.0,21.78,0.0,0.0,0.0,0.3419766207834662,0.20032013764960138,9.85905
1075000000.0,21.78,0.0,0.0,0.0,0.34335,0.20453852088058522,9.867388520880585
1080000000.0,21.78,0.0,0.0,0.0,0.3268691580445916,0.21425042097770422,9.901821683910816
1085000000.0,21.78,0.0,0.0,0.0,0.32373,0.24024696322446965,9.891815357850353
1090000000.0,21.78,0.0,0.0,0.0,0.32373,0.22916155765611557,9.88848
1095000000.0,21.78,0.0,0.0,0.0,0.32373,0.2176838787309388,9.864641636192816
1100000000.0,21.78,0.0,0.0,0.0,0.3315780213661802,0.20797197863381978,9.87474604273236
1105000000.0,21.78,0.0,0.0,0.0,0.3257900785367008,0.19051015707340158,9.863170157073402
1110000000.0,21.78,0.0,0.0,0.0,0.33138182156041823,0.18639,9.874353643120836
1115000000.0,21.78,0.0,0.0,0.0,0.30332511336985113,0.20149744331507444,9.871116278342463
1120000000.0,21.78,0.0,0.0,0.0,0.34648935228259353,0.23583248701862486,9.86886
1125000000.0,21.78,0.0,0.0,0.0,0.34089743444467435,0.2526075218517752,9.876217521851775
1130000000.0,21.78,0.0,0.0,0.0,0.3262805780511058,0.24054115610221158,9.87867
1135000000.0,21.78,0.0,0.0,0.0,0.31656867795398674,0.22111735590797357,9.864347355907974
1140000000.0,21.78,0.0,0.0,0.0,0.31392,0.21582,9.873176444286264
1145000000.0,21.78,0.0,0.0,0.0,0.32785024448050243,0.20885487775974879,9.857774633279247
1150000000.0,21.78,0.0,0.0,0.0,0.3404070223373702,0.2334780893494809,9.86984106701211
1155000000.0,21.78,0.0,0.0,0.0,0.37042568973795686,0.2384810775655108,9.858363232696533
1160000000.0,21.78,0.0,0.0,0.0,0.38259,0.22209835493678357,9.869252467594825
1165000000.0,21.78,0.0,0.0,0.0,0.34972638685636387,0.22239272262872722,9.885242722628726
1170000000.0,21.78,0.0,0.0,0.0,0.32059075454830754,0.21268075454830754,9.882005377274153
1175000000.0,21.78,0.0,0.0,0.0,0.31392,0.20601,9.872293477177035
1180000000.0,21.78,0.0,0.0,0.0,0.3327552687602527,0.23112369168033692,9.856303154159832
1185000000.0,21.78,0.0,0.0,0.0,0.34335,0.25143032301720325,9.855420323017203
1190000000.0,21.78,0.0,0.0,0.0,0.3372677768856778,0.24897777688567777,9.846885553771356
1195000000.0,21.78,0.0,0.0,0.0,0.33354,0.24525,9.845414123211441
1200000000.0,21.78,0.0,0.0,0.0,0.33354,0.2099338601486386,9.86689806992568
1205000000.0,21.78,0.0,0.0,0.0,0.32775207659432076,0.19796584681135848,9.884457923405678
1210000000.0,21.78,0.0,0.0,0.0,0.32373,0.20601,9.905549470508394
1215000000.0,21.78,0.0,0.0,0.0,0.31813827640008274,0.23396861799958618,9.89554310560033
1220000000.0,21.78,0.0,0.0,0.0,0.32490724739407245,0.25506,9.856695505211855
1225000000.0,21.78,0.0,0.0,0.0,0.33354,0.23347790482337905,9.844825523794155
1230000000.0,21.78,0.0,0.0,0.0,0.312350304434903,0.21052257610872577,9.854537423891275
1235000000.0,21.78,0.0,0.0,0.0,0.31509729595357294,0.19041202803482027,9.879847295953573
1240000000.0,21.78,0.0,0.0,0.0,0.3284387759144878,0.1918836722565367,9.893188775914487
1245000000.0,21.78,0.0,0.0,0.0,0.3337362483652625,0.22101937254789372,9.868467503269475
1250000000.0,21.78,0.0,0.0,0.0,0.33844497572024973,0.2452500485595005,9.859050048559501
1255000000.0,21.78,0.0,0.0,0.0,0.33834692437686925,0.25025307562313076,9.873666924376868
1260000000.0,21.78,0.0,0.0,0.0,0.3339323510520235,0.22641470210404702,9.873961175526011
1265000000.0,21.78,0.0,0.0,0.0,0.31911927542889273,0.20601,9.859638550857785
1270000000.0,21.78,0.0,0.0,0.0,0.32294524933645247,0.1969847506635475,9.84924
1275000000.0,21.78,0.0,0.0,0.0,0.33795452476534527,0.1952190495306905,9.862483574296036
1280000000.0,21.78,0.0,0.0,0.0,0.33903357513753574,0.21895927458739275,9.865720725412608
1285000000.0,21.78,0.0,0.0,0.0,0.33775832495958324,0.23965832495958325,9.86189497487875
1290000000.0,21.78,0.0,0.0,0.0,0.3351095498865955,0.23288932482989325,9.87867
1295000000.0,21.78,0.0,0.0,0.0,0.33579637546146374,0.199731499384715,9.88269212515382
1300000000.0,21.78,0.0,0.0,0.0,0.34138792424717923,0.18835207575282076,9.880631949498119
1305000000.0,21.78,0.0,0.0,0.0,0.31990407465194076,0.1983581493038815,9.86886
1310000000.0,21.78,0.0,0.0,0.0,0.328831301780713,0.19757347633553476,9.861404349109643
1315000000.0,21.78,0.0,0.0,0.0,0.34590054891540545,0.22670917662689177,9.852869725542297
1320000000.0,21.78,0.0,0.0,0.0,0.3300083743605838,0.24525,9.862581625639416
1325000000.0,21.78,0.0,0.0,0.0,0.32373,0.23151589705385897,9.87572705147307
1330000000.0,21.78,0.0,0.0,0.0,0.32373,0.20934542583365426,9.88180914833269
1335000000.0,21.78,0.0,0.0,0.0,0.31725534813845346,0.21258267406922676,9.86886
1340000000.0,21.78,0.0,0.0,0.0,0.30724922602789223,0.20914922602789227,9.86886
1345000000.0,21.78,0.0,0.0,0.0,0.326084504500045,0.21582,9.86581887387499
1350000000.0,21.78,0.0,0.0,0.0,0.3472739475557395,0.21582,9.85905
1355000000.0,21.78,0.0,0.0,0.0,0.33354,0.21582,9.861894926319248
1360000000.0,21.78,0.0,0.0,0.0,0.33079317358363175,0.21032634716726348,9.863366347167263
1365000000.0,21.78,0.0,0.0,0.0,0.3210812734865127,0.19884872651348728,9.854537453026975
1370000000.0,21.78,0.0,0.0,0.0,0.31392,0.2136618798318188,9.876511879831819
1375000000.0,21.78,0.0,0.0,0.0,0.32127758012317575,0.23789252670772526,9.886027366461374
1380000000.0,21.78,0.0,0.0,0.0,0.3409955731951557,0.24525,9.853948853609689
1385000000.0,21.78,0.0,0.0,0.0,0.34030898070588983,0.24073734619607345,9.86209101929411
1390000000.0,21.78,0.0,0.0,0.0,0.3543370920036709,0.22131354600183545,9.84806290799633
1395000000.0,21.78,0.0,0.0,0.0,0.3216698729037987,0.20394987290379873,9.8766098729038
1400000000.0,21.78,0.0,0.0,0.0,0.31392,0.1981620271933203,9.87670810877328
1405000000.0,21.78,0.0,0.0,0.0,0.31578392729043925,0.20601,9.90623607270956
1410000000.0,21.78,0.0,0.0,0.0,0.33432496432534964,0.2130733095502331,9.891226690449766
1415000000.0,21.78,0.0,0.0,0.0,0.3742513625766136,0.24191454503064544,9.85905
1420000000.0,21.78,0.0,0.0,0.0,0.32883111725461117,0.22876925516359256,9.857480372418204
1425000000.0,21.78,0.0,0.0,0.0,0.3026384723210847,0.23642083392650834,9.84924
1430000000.0,21.78,0.0,0.0,0.0,0.29842028332810283,0.18501657222396573,9.851986855552068
1435000000.0,21.78,0.0,0.0,0.0,0.32628065574630655,0.18423196723891966,9.870135327873154
1440000000.0,21.78,0.0,0.0,0.0,0.34217277202972773,0.23426277202972773,9.876315544059455
1445000000.0,21.78,0.0,0.0,0.0,0.33354,0.22778825613478257,9.860129128067392
1450000000.0,21.78,0.0,0.0,0.0,0.3325589718354897,0.24623102816451028,9.87082205632902
1455000000.0,21.78,0.0,0.0,0.0,0.32373,0.2506453586918536,9.885831215215111
1460000000.0,21.78,0.0,0.0,0.0,0.32373,0.2052251716412517,9.859834828358748
1465000000.0,21.78,0.0,0.0,0.0,0.3244167284558673,0.1968867284558673,9.868173271544132
1470000000.0,21.78,0.0,0.0,0.0,0.3341286285529863,0.20601,9.859638628552986
1475000000.0,21.78,0.0,0.0,0.0,0.3423689426997894,0.20748158595031585,9.86886
1480000000.0,21.78,0.0,0.0,0.0,0.32373,0.23465514250555145,9.868467571252776
1485000000.0,21.78,0.0,0.0,0.0,0.32490731537737316,0.2155256711556567,9.859638657688686
1490000000.0,21.78,0.0,0.0,0.0,0.36257754211707544,0.20601,9.878081313175613
1495000000.0,21.78,0.0,0.0,0.0,0.34315374192283743,0.20620625807716259,9.849436258077162
1500000000.0,21.78,0.0,0.0,0.0,0.3237300291357003,0.2256299708642997,9.8688599708643
1505000000.0,21.78,0.0,0.0,0.0,0.3334419292328193,0.21591807076718073,9.85914807076718
1510000000.0,21.78,0.0,0.0,0.0,0.3046985120101851,0.2254338293299383,9.85905
1515000000.0,21.78,0.0,0.0,0.0,0.35168864713528647,0.24466145885411458,9.878081458854114
1520000000.0,21.78,0.0,0.0,0.0,0.35316,0.23583237047582373,9.859834740951648
1525000000.0,21.78,0.0,0.0,0.0,0.35316,0.20748141113611412,9.87768905924259
1530000000.0,21.78,0.0,0.0,0.0,0.3162742811263428,0.18756714056317142,9.869448570281586
1535000000.0,21.78,0.0,0.0,0.0,0.3230433298155333,0.2046366596310666,9.877983329815534
1540000000.0,21.78,0.0,0.0,0.0,0.32373,0.2330856897379569,9.87867
1545000000.0,21.78,0.0,0.0,0.0,0.35051139002931386,0.2532942600195426,9.851888609970686
1550000000.0,21.78,0.0,0.0,0.0,0.3443309698931097,0.2109148494655485,9.85806903010689
1555000000.0,21.78,0.0,0.0,0.0,0.3346190697959907,0.19727906979599072,9.85905
1560000000.0,21.78,0.0,0.0,0.0,0.31627433939774335,0.1962,9.893581321204513
1565000000.0,21.78,0.0,0.0,0.0,0.3224547303982473,0.2047347303982473,9.86415107840701
1570000000.0,21.78,0.0,0.0,0.0,0.3068567390092674,0.20601,9.884359891486099
1575000000.0,21.78,0.0,0.0,0.0,0.32078706118497063,0.24770265296242655,9.88848
1580000000.0,21.78,0.0,0.0,0.0,0.3402108613792086,0.2385791386207914,9.855518277241583
1585000000.0,21.78,0.0,0.0,0.0,0.31078067685310673,0.21101300763983008,9.857382330786724
1590000000.0,21.78,0.0,0.0,0.0,0.32019846176768463,0.20601,9.867094230883842
1595000000.0,21.78,0.0,0.0,0.0,0.32373,0.1980638690190387,9.860913869019038
1600000000.0,21.78,0.0,0.0,0.0,0.32373,0.2040480310780803,9.874746062156161
1605000000.0,21.78,0.0,0.0,0.0,0.3547297247007973,0.22150986235039863,9.8631701376496
1610000000.0,21.78,0.0,0.0,0.0,0.34766633745536335,0.22563,9.882005493816955
1615000000.0,21.78,0.0,0.0,0.0,0.3282425372611254,0.2180762686305627,9.85826507452225
1620000000.0,21.78,0.0,0.0,0.0,0.31627436853344365,0.2083643685334437,9.871606894399669
1625000000.0,21.78,0.0,0.0,0.0,0.32127753156367533,0.21336753156367533,9.87867
1630000000.0,21.78,0.0,0.0,0.0,0.34550829498238295,0.21582,9.856891705017617
1635000000.0,21.78,0.0,0.0,0.0,0.3173533412104334,0.23014266351582666,9.863562663515827
1640000000.0,21.78,0.0,0.0,0.0,0.31823646371006464,0.2213135362899354,9.875923231855031
1645000000.0,21.78,0.0,0.0,0.0,0.3515905278086053,0.22278513195215133,9.87867
1650000000.0,21.78,0.0,0.0,0.0,0.35610296795072965,0.2187629679507297,9.88553703204927
1655000000.0,21.78,0.0,0.0,0.0,0.35316,0.22258893214638933,9.88848
1660000000.0,21.78,0.0,0.0,0.0,0.33981833551298335,0.23230083224350834,9.875138335512982
1665000000.0,21.78,0.0,0.0,0.0,0.32039453531874534,0.24858546468125467,9.875432732340627
1670000000.0,21.78,0.0,0.0,0.0,0.31392,0.23563610268676102,9.872195367562254
1675000000.0,21.78,0.0,0.0,0.0,0.32029653253486534,0.2192534674651347,9.849730402395403
1680000000.0,21.78,0.0,0.0,0.0,0.3300084326319843,0.19698470210404703,9.845708432631984
1685000000.0,21.78,0.0,0.0,0.0,0.34590066545820664,0.16784900181269002,9.886321996374619
1690000000.0,21.78,0.0,0.0,0.0,0.34707776717377764,0.1995356297835563,9.895935534347554
1695000000.0,21.78,0.0,0.0,0.0,0.33736586707665867,0.22563,9.876511734153317
1700000000.0,21.78,0.0,0.0,0.0,0.3276539669795397,0.23740206604092065,9.86297396697954
1705000000.0,21.78,0.0,0.0,0.0,0.31794206688242066,0.227886200647262,9.86483793311758
1710000000.0,21.78,0.0,0.0,0.0,0.3196098332146983,0.21582,9.857480333570603
1715000000.0,21.78,0.0,0.0,0.0,0.32373,0.21022826668818267,9.84924
1720000000.0,21.78,0.0,0.0,0.0,0.33471726681787267,0.19502273318212732,9.854733633408935
1725000000.0,21.78,0.0,0.0,0.0,0.34335,0.2133676675302767,9.853654466493944
1730000000.0,21.78,0.0,0.0,0.0,0.35394486720634866,0.23544,9.865132300809522
1735000000.0,21.78,0.0,0.0,0.0,0.35777066629970666,0.23024066629970666,9.89426800110088
1740000000.0,21.78,0.0,0.0,0.0,0.3429575324051753,0.22052876620258766,9.88769506481035
1745000000.0,21.78,0.0,0.0,0.0,0.3285368661054687,0.21582,9.863856866105468
1750000000.0,21.78,0.0,0.0,0.0,0.3139199320166993,0.22072503399165033,9.8492399320167
1755000000.0,21.78,0.0,0.0,0.0,0.3089169340887693,0.21601613182246132,9.849043868177539
1760000000.0,21.78,0.0,0.0,0.0,0.328046502557665,0.21542766837177668,9.849632331628223
1765000000.0,21.78,0.0,0.0,0.0,0.33873926571699264,0.2164085314339853,9.848651468566015
1770000000.0,21.78,0.0,0.0,0.0,0.33805263438012634,0.2150352687602527,9.868075268760252
1775000000.0,21.78,0.0,0.0,0.0,0.34335,0.22121546552275467,9.874255465522754
1780000000.0,21.78,0.0,0.0,0.0,0.3347171308512713,0.2244528691487287,9.860227130851271
1785000000.0,21.78,0.0,0.0,0.0,0.33638500401445004,0.22700333065703332,9.866113338685933
1790000000.0,21.78,0.0,0.0,0.0,0.3449195304627953,0.21582,9.87199906092559
1795000000.0,21.78,0.0,0.0,0.0,0.33354,0.22386426973144272,9.857284269731442
1800000000.0,21.78,0.0,0.0,0.0,0.3296159650371597,0.23151596503715965,9.86886
1805000000.0,21.78,0.0,0.0,0.0,0.31990406494004064,0.2179781298800813,9.86503406494004
1810000000.0,21.78,0.0,0.0,0.0,0.325103505471235,0.20601,9.862777835157079
1815000000.0,21.78,0.0,0.0,0.0,0.34335,0.20963973525419735,9.861600529491605
1820000000.0,21.78,0.0,0.0,0.0,0.34335,0.2087567292973673,9.866898176756582
1825000000.0,21.78,0.0,0.0,0.0,0.33991646455156466,0.21336767724217678,9.894856464551564
1830000000.0,21.78,0.0,0.0,0.0,0.3302045644544456,0.24191456445444565,9.878473693363336
1835000000.0,21.78,0.0,0.0,0.0,0.31401799307198,0.23220266435732664,9.86876200692802
1840000000.0,21.78,0.0,0.0,0.0,0.3005784714795847,0.21935152852041528,9.875923057040831
1845000000.0,21.78,0.0,0.0,0.0,0.3200022716738227,0.20601,9.852281135836911
1850000000.0,21.78,0.0,0.0,0.0,0.3276539281319393,0.20601,9.87082214373612
1855000000.0,21.78,0.0,0.0,0.0,0.3196098720622987,0.21169987206229873,9.889755191906552
1860000000.0,21.78,0.0,0.0,0.0,0.33354,0.22563,9.871606836128269
1865000000.0,21.78,0.0,0.0,0.0,0.33089126377461264,0.22298126377461264,9.876021263774613
1870000000.0,21.78,0.0,0.0,0.0,0.32628063632250637,0.21837063632250636,9.863758727354988
1875000000.0,21.78,0.0,0.0,0.0,0.32863492716074927,0.22072492716074926,9.85414507283925
1880000000.0,21.78,0.0,0.0,0.0,0.32333774606697746,0.20365556348325564,9.86886
1885000000.0,21.78,0.0,0.0,0.0,0.3486473267722732,0.2029690098415901,9.864347326772274
1890000000.0,21.78,0.0,0.0,0.0,0.33569823671098237,0.22778823671098236,9.853556473421964
1895000000.0,21.78,0.0,0.0,0.0,0.34335,0.23544,9.8709201368081
1900000000.0,21.78,0.0,0.0,0.0,0.33942592618955925,0.23740203690522038,9.88259407381044
1905000000.0,21.78,0.0,0.0,0.0,0.32186606299766063,0.23779425199064252,9.89269818899298
1910000000.0,21.78,0.0,0.0,0.0,0.3192175112983751,0.20601,9.865328325801084
1915000000.0,21.78,0.0,0.0,0.0,0.34335,0.20601,9.847572262803423
1920000000.0,21.78,0.0,0.0,0.0,0.34178036270630363,0.20914927458739274,9.840999637293697
1925000000.0,21.78,0.0,0.0,0.0,0.3291253878275539,0.22710153739081537,9.84924
1930000000.0,21.78,0.0,0.0,0.0,0.31235062492760624,0.23544,9.850613437487935
1935000000.0,21.78,0.0,0.0,0.0,0.36169466241494663,0.2316139872448399,9.857774662414947
1940000000.0,21.78,0.0,0.0,0.0,0.35080552463565523,0.20601,9.85394895072869
1945000000.0,21.78,0.0,0.0,0.0,0.3292234488828345,0.20601,9.887400862220709
1950000000.0,21.78,0.0,0.0,0.0,0.29528103787641036,0.20797207575282076,9.876707924247178
1955000000.0,21.78,0.0,0.0,0.0,0.3076417518941175,0.22827881392058813,9.859932937973529
1960000000.0,21.78,0.0,0.0,0.0,0.34335,0.25192064771740647,9.866505485788055
1965000000.0,21.78,0.0,0.0,0.0,0.34472347633553474,0.21513326183223264,9.840116738167767
1970000000.0,21.78,0.0,0.0,0.0,0.3600268086755681,0.20424408520534085,9.849828638264887
1975000000.0,21.78,0.0,0.0,0.0,0.31539161508601615,0.17756107672401075,9.859540538362005
1980000000.0,21.78,0.0,0.0,0.0,0.34217268462262684,0.19737731537737316,9.86964487691825
1985000000.0,21.78,0.0,0.0,0.0,0.31509735422497354,0.22651301566873017,9.88759698433127
1990000000.0,21.78,0.0,0.0,0.0,0.3529637613466376,0.25427504538655044,9.858853761346637
1995000000.0,21.78,0.0,0.0,0.0,0.3430555837485558,0.21601627750096278,9.84914186124952
2000000000.0,21.78,0.0,0.0,0.0,0.3139200388476004,0.23543984460959846,9.839430077695202
2005000000.0,21.78,0.0,0.0,0.0,0.3236319389447194,0.19659224422112245,9.85885387788944
2010000000.0,21.78,0.0,0.0,0.0,0.3333438390418384,0.2058138390418384,9.849436160958161
2015000000.0,21.78,0.0,0.0,0.0,0.34305573913895737,0.20601,9.858755739138957
2020000000.0,21.78,0.0,0.0,0.0,0.34335,0.2154276392360764,9.868467639236076
2025000000.0,21.78,0.0,0.0,0.0,0.3526695393331954,0.2065004606668046,9.878179539333194
2030000000.0,21.78,0.0,0.0,0.0,0.3347171211393712,0.22445287886062879,9.869448560569685
2035000000.0,21.78,0.0,0.0,0.0,0.3244166604725666,0.21650666047256661,9.859736660472567
2040000000.0,21.78,0.0,0.0,0.0,0.3056795207508952,0.1887442811263428,9.877100479249105
2045000000.0,21.78,0.0,0.0,0.0,0.31303713972167135,0.2131714191650142,9.896524279443343
2050000000.0,21.78,0.0,0.0,0.0,0.31392,0.2246490398187904,9.845315761087258
2055000000.0,21.78,0.0,0.0,0.0,0.34884375966363756,0.2168990600840906,9.865622819747728
2060000000.0,21.78,0.0,0.0,0.0,0.3617928400130284,0.2244528400130284,9.886125680026057
2065000000.0,21.78,0.0,0.0,0.0,0.3117615593391156,0.22563,9.862875779669558
2070000000.0,21.78,0.0,0.0,0.0,0.31254664020726636,0.20875671958546718,9.875923280414533
2075000000.0,21.78,0.0,0.0,0.0,0.3305970806087708,0.2226870806087708,9.87867
2080000000.0,21.78,0.0,0.0,0.0,0.33354,0.2173895595984956,9.86218911919699
2085000000.0,21.78,0.0,0.0,0.0,0.3416823404986234,0.2076776595013766,9.850907659501377
2090000000.0,21.78,0.0,0.0,0.0,0.34335,0.20601,9.841195759404258
2095000000.0,21.78,0.0,0.0,0.0,0.31951157792141577,0.20601,9.855322281385723
2100000000.0,21.78,0.0,0.0,0.0,0.31392,0.2138580407899804,9.85905
2105000000.0,21.78,0.0,0.0,0.0,0.35266970443549706,0.21582,9.874549881774199
2110000000.0,21.78,0.0,0.0,0.0,0.34766631803156317,0.2005163180315632,9.871018159015781
2115000000.0,21.78,0.0,0.0,0.0,0.34335,0.21130748216267484,9.86886
2120000000.0,21.78,0.0,0.0,0.0,0.35080564117845636,0.21582,9.853948717643087
2125000000.0,21.78,0.0,0.0,0.0,0.3237298348976983,0.2231775412755754,9.84924
2130000000.0,21.78,0.0,0.0,0.0,0.29940111725461116,0.21111111725461118,9.841980558627306
2135000000.0,21.78,0.0,0.0,0.0,0.3086226829396268,0.20601,9.853752682939627
2140000000.0,21.78,0.0,0.0,0.0,0.3209832415669324,0.21307324156693241,9.866113241566932
2145000000.0,21.78,0.0,0.0,0.0,0.3515905666562057,0.20885485833594858,9.86886
2150000000.0,21.78,0.0,0.0,0.0,0.34236887471648875,0.24034520880585208,9.88259408352234
2155000000.0,21.78,0.0,0.0,0.0,0.3470778837165788,0.2618289418582894,9.88171105814171
2160000000.0,21.78,0.0,0.0,0.0,0.33981831608918317,0.2581991580445916,9.858657474133775
2165000000.0,21.78,0.0,0.0,0.0,0.34668548410505484,0.22876903178989033,9.862385484105054
2170000000.0,21.78,0.0,0.0,0.0,0.34021071570070716,0.18992143140141432,9.862385357850354
2175000000.0,21.78,0.0,0.0,0.0,0.33991654224676543,0.19570962674029627,9.890932711233827
2180000000.0,21.78,0.0,0.0,0.0,0.3496284423438844,0.21228844234388444,9.889264672968347
2185000000.0,21.78,0.0,0.0,0.0,0.35316,0.22200034244100342,9.891030684882006
2190000000.0,21.78,0.0,0.0,0.0,0.3409955149237551,0.2499589701524897,9.87396102984751
2195000000.0,21.78,0.0,0.0,0.0,0.33354,0.2409334294590343,9.847081714729518
2200000000.0,21.78,0.0,0.0,0.0,0.3276539572676396,0.22563,9.85708812819708
2205000000.0,21.78,0.0,0.0,0.0,0.31794205717052054,0.22563,9.86307205717052
2210000000.0,21.78,0.0,0.0,0.0,0.31960984292659844,0.2199401570734016,9.864739842926598
2215000000.0,21.78,0.0,0.0,0.0,0.31813825697628256,0.21582,9.852084770928847
2220000000.0,21.78,0.0,0.0,0.0,0.33040092936250925,0.22680728624167287,9.833936356879164
2225000000.0,21.78,0.0,0.0,0.0,0.3487455432179554,0.22464891356408914,9.851202172871822
2230000000.0,21.78,0.0,0.0,0.0,0.35316,0.2264148866301489,9.858265113369852
2235000000.0,21.78,0.0,0.0,0.0,0.3375619697634197,0.22504131317561316,9.859638686824386
2240000000.0,21.78,0.0,0.0,0.0,0.32373,0.2311237305279373,9.863758756490688
2245000000.0,21.78,0.0,0.0,0.0,0.30872056918070573,0.23524371278713713,9.864053143606432
2250000000.0,21.78,0.0,0.0,0.0,0.3090151311106513,0.21581991259289912,9.8590499125929
2255000000.0,21.78,0.0,0.0,0.0,0.3333438876013389,0.19639611239866112,9.84443305619933
2260000000.0,21.78,0.0,0.0,0.0,0.3480588438977884,0.20051653169336534,9.848847687795576
2265000000.0,21.78,0.0,0.0,0.0,0.35316,0.21582,9.868271487989814
2270000000.0,21.78,0.0,0.0,0.0,0.3486473559079735,0.2248452881840529,9.883182644092026
2275000000.0,21.78,0.0,0.0,0.0,0.3345209116217091,0.2442690883782909,9.884065455810854
2280000000.0,21.78,0.0,0.0,0.0,0.3150971114274711,0.2421106671412067,9.891619332858793
2285000000.0,21.78,0.0,0.0,0.0,0.3167650331501503,0.2171933112332331,9.887008278083082
2290000000.0,21.78,0.0,0.0,0.0,0.32117926655849266,0.19364926655849266,9.863170244480502
2295000000.0,21.78,0.0,0.0,0.0,0.3121542891552429,0.18864643373286433,9.864837855422378
2300000000.0,21.78,0.0,0.0,0.0,0.32765404467474046,0.21778213402422134,9.870822134024221
2305000000.0,21.78,0.0,0.0,0.0,0.3411918895437189,0.23161405522814055,9.88848
2310000000.0,21.78,0.0,0.0,0.0,0.35688784486897845,0.23681353460693536,9.892207844868977
2315000000.0,21.78,0.0,0.0,0.0,0.35571051006780513,0.2478005100678051,9.88377102013561
2320000000.0,21.78,0.0,0.0,0.0,0.32569177468391775,0.22484506481035066,9.866113290126433
2325000000.0,21.78,0.0,0.0,0.0,0.2943,0.20257645483966455,9.868369364518994
2330000000.0,21.78,0.0,0.0,0.0,0.31097722628727226,0.19286455474254555,9.85591089051491
2335000000.0,21.78,0.0,0.0,0.0,0.3368753092908531,0.1928646907091469,9.862385309290852
2340000000.0,21.78,0.0,0.0,0.0,0.3300084909033849,0.21228849090338492,9.86179698180677
2345000000.0,21.78,0.0,0.0,0.0,0.3403088544511885,0.22563,9.882397708902376
2350000000.0,21.78,0.0,0.0,0.0,0.3394260912918609,0.22563,9.86591695435407
2355000000.0,21.78,0.0,0.0,0.0,0.3474701085139011,0.21994010851390108,9.8647398914861
2360000000.0,21.78,0.0,0.0,0.0,0.3280463083196631,0.20326315415983154,9.870429462479494
2365000000.0,21.78,0.0,0.0,0.0,0.3086225081254251,0.20679498374914984,9.851888745937288
2370000000.0,21.78,0.0,0.0,0.0,0.2968506460344065,0.23544,9.856499353965594
2375000000.0,21.78,0.0,0.0,0.0,0.31146763839457636,0.23298745386847455,9.854145092263051
2380000000.0,21.78,0.0,0.0,0.0,0.33589444622864445,0.22092110754271108,9.866505553771356
2385000000.0,21.78,0.0,0.0,0.0,0.33883730734847306,0.20826634632576346,9.863562692651527
2390000000.0,21.78,0.0,0.0,0.0,0.3280464928457649,0.21797824642288247,9.876511753577118
2395000000.0,21.78,0.0,0.0,0.0,0.3412898534799985,0.22356985347999853,9.86886
2400000000.0,21.78,0.0,0.0,0.0,0.33354,0.21778204661712047,9.87082204661712
2405000000.0,21.78,0.0,0.0,0.0,0.32981210657152105,0.22376605328576055,9.87307815985728
2410000000.0,21.78,0.0,0.0,0.0,0.31392,0.21935169362271695,9.84924
2415000000.0,21.78,0.0,0.0,0.0,0.31392,0.2304367592745676,9.850907746908478
2420000000.0,21.78,0.0,0.0,0.0,0.3186289410167894,0.20130105898321057,9.863758941016789
2425000000.0,21.78,0.0,0.0,0.0,0.3462930942054309,0.18393773551357734,9.889951547102715
2430000000.0,21.78,0.0,0.0,0.0,0.36434344719983447,0.22700344719983448,9.892796211200661
2435000000.0,21.78,0.0,0.0,0.0,0.37278,0.23544,9.861600694593907
2440000000.0,21.78,0.0,0.0,0.0,0.3692482578177826,0.23897174218221742,9.875138257817783
2445000000.0,21.78,0.0,0.0,0.0,0.3379542625440426,0.26163255752642556,9.844923410035234
2450000000.0,21.78,0.0,0.0,0.0,0.28841371447013714,0.23642104758831048,9.81
2455000000.0,21.78,0.0,0.0,0.0,0.2363229476854295,0.2373034708311347,9.813531790741719
2460000000.0,21.78,-0.00042588626599352315,-0.0007665952787883369,0.0,0.24917423891274237,0.1530357610872576,9.855518782260388
2465000000.0,21.78,-0.004876069686773207,-0.009954511369956714,0.0,0.30116747879667477,0.1147774787966748,9.931153739398338
2470000000.0,21.78,0.0014479563881432621,-0.01497004335234423,0.0,0.3982864797678648,0.21071918381429183,9.973826760116069
2475000000.0,21.78,0.007239604867986348,-0.015453965603038758,0.0,0.4929527403695274,0.28399945192609455,9.923795615408757
2480000000.0,21.78,0.0029809962230985198,-0.004854750340870316,0.0,0.5368028628028287,0.27114796646077965,9.84924
2485000000.0,21.78,-0.0021931912148591905,0.006196236480020632,0.0,0.47029130346371306,0.1934543584354436,9.848651303463713
2490000000.0,21.78,-0.003917831121810535,-0.0012146994553077055,0.0,0.4487087712515877,0.42673620913156207,9.82883500653895
2495000000.0,21.78,0.01257342653414023,-0.06143402236573814,5.3258839594255194e-05,0.32991335313003356,0.6617799830314,9.791459633086196
2500000000.0,21.78,-0.007452724633104831,-0.1320861697967091,0.005323222598452326,0.9417643217955433,0.13733820329848204,9.898288786012488
2505000000.0,21.78,-0.04119814245909381,-0.06248732545309235,-0.001000803476464143,1.8061234304391345,-0.22200210029492104,9.655491283584514
2510000000.0,21.78,-0.018584847602696426,-0.07221828670003945,0.004152164746003528,1.9878992775672932,-0.4852039163509392,10.345237110269172
2515000000.0,21.78,0.009783760886221772,0.07533196161222515,-0.0019376963454151835,2.0580402419560024,0.12802367530573683,9.52197410112454
2520000000.0,21.78,0.046452473208215946,0.07683496278985098,-0.002129301687433,1.5327116589133167,0.05297351052023512,10.343668405317885
2525000000.0,21.78,0.045921347303778864,0.23760648045708216,-0.005163572560191054,0.4576309579042095,0.6455011388861114,9.344510055994402
2530000000.0,21.78,0.03979382392431859,0.19299997117703838,-0.0053232542185827,-1.2576508455986088,0.5477897120089972,10.092336075372662
2535000000.0,21.78,0.0037486002358820616,0.16583320320401507,-0.0013627317047490003,-1.7558940172913402,-0.02609765283867649,9.796852728905327
2540000000.0,21.78,-0.0018738015479672703,0.06114949133532767,-0.0010646508437165,-2.832348923028489,0.3284409708039097,10.267148713504886
2545000000.0,21.78,-0.015708911128873525,-0.10484419406929776,0.0028106996869401314,-1.7628505736357059,0.3718971494335715,10.48885298867143
2550000000.0,21.78,-0.016093675657217497,-0.19228681777174655,0.004152143665916613,-1.3743794645485947,0.03727611783376117,10.276954712202047
2555000000.0,21.78,-0.02546266231696728,-0.26095045546329915,0.0042586033748661,0.33237232853942333,0.0,10.27764284888343
2560000000.0,21.78,-0.012564893314956551,-0.23094244871856587,0.0033217052358933295,1.4632649205673491,-0.09496134697421348,9.771541866229219
2565000000.0,21.78,0.015303721966086082,-0.15725516156968078,0.0022677008900738637,1.811123495373235,0.14813249466142497,9.59967300213543
2570000000.0,21.78,0.018265563336239073,-0.0801248776823073,0.0012136965442544724,2.063632897898329,0.7263355948266561,9.516876800646669
2575000000.0,21.78,0.020831393571545405,-0.0022406009005333516,0.002874568134279397,2.1410327500814277,0.7975528999674291,9.047269749104299
2580000000.0,21.78,-0.008216491551706891,0.06505853244102694,0.0005110160889966629,2.0165427981855286,0.563877396824674,9.164110802721707
2585000000.0,21.78,-0.03152826028018163,0.10481505556623724,-0.0008836656494871629,1.5598854388422545,-0.06631921515769224,9.218064700421046
2590000000.0,21.78,-0.04826053019838719,0.1632032735907451,-0.003683708298486706,1.0451547336949474,-0.6690450184585501,9.454683258921634
2595000000.0,21.78,-0.005404121924471511,0.17039559485616754,-0.0008091127600943398,0.22052416276194164,-0.5842823902857239,10.101851280357113
2600000000.0,21.78,0.05049266592349271,0.13699068453807706,-0.0025551784673874746,-0.44537718161847184,0.5356329187576293,10.445689313048893
2605000000.0,21.78,0.07019545209958628,0.0657840145351518,-0.004035032189048276,-0.47598059281200594,1.2229173323459734,10.279701383228014
2610000000.0,21.78,0.042521956539346796,0.029895269057603504,-0.0009368707348598013,-0.6578599687951997,1.0510415242436153,9.977160777724208
2615000000.0,21.78,-0.024965237631288724,-0.0165117886584394,0.0008197866621044336,-0.71613,0.2913524286086243,10.028960012691801
2620000000.0,21.78,-0.0701407818099429,-0.04090012853597664,0.001873791007923812,-0.48500482239894827,-0.4783394676670947,9.938313934863938
2625000000.0,21.78,-0.044475114541037426,-0.08707913316326324,0.0005323143548126188,-0.3384444901252449,-0.6793426529624266,10.222022243448922
2630000000.0,21.78,0.012699337374929086,-0.09016432967284779,0.0,0.17246322266783232,-0.09868446214784465,10.199259880477298
2635000000.0,21.78,0.0458741818188166,-0.06606911979058558,-0.0007772006705159475,0.6083199937233998,0.6163659339016594,10.088897839364579
2640000000.0,21.78,0.04299158139387785,-0.04018083638475088,-0.00029809667109767404,1.052419312662793,0.8750525127883251,10.015617241048172
2645000000.0,21.78,0.01898763536345133,-0.008064284252821765,0.0,0.8039266743226667,0.6099836422100364,9.773505155969552
2650000000.0,21.78,-0.016940372501686573,0.005855607571556055,0.0007452611768245829,0.578789485269295,0.1883497351848974,9.703071154419211
2655000000.0,21.78,-0.033170714146431406,-0.0013628202411141111,0.0010646508437165,0.5967426609913267,-0.06975007983360082,9.72543790314038
2660000000.0,21.78,-0.01921176282166108,-0.012574804359722904,0.0003406826626861602,0.8715223633577236,-0.12753,9.691494889996148
2665000000.0,21.78,0.005408561114315941,-0.019553824363934227,-0.0007133216831332182,0.9973827517644276,0.06965255293282552,9.784396779995268
2670000000.0,21.78,0.022986757641716364,-0.0030293960853798145,-0.0010646508437165,1.0718411704770117,0.28331373350783734,9.748784873938348
2675000000.0,21.78,0.024238231792454993,0.0361678280830349,-0.002448708218394515,0.8981037853640379,0.4389982793799828,9.797738279379983
2680000000.0,21.78,0.0189682100633579,0.07129266943134985,-0.0025125703417076825,0.6780663150516633,0.4967784520557845,9.842961547944215
2685000000.0,21.78,0.00899204282637296,0.0820304748437334,-0.0007878303043435358,0.15450358853223584,0.3705226047890261,9.827069295694193
2690000000.0,21.78,-0.002342288561610191,0.06749769144916334,0.0,-0.22720054050040545,0.2638887387498874,9.783316486499865
2695000000.0,21.78,-0.008985675845301279,0.02999393117328762,0.0,-0.3361890664299907,0.13753525775145256,9.790870761735707
2700000000.0,21.78,-0.009368916041458605,-0.01640634549348453,0.0,-0.36297,0.027467632890176327,9.81
2705000000.0,21.78,-0.003492009150082156,-0.057146468169700024,0.0006281496999562459,-0.13723985088619853,0.16206267115862671,9.925759050827592
2710000000.0,21.78,0.004940025616473168,-0.07923382218372768,0.0004471476416573756,0.38946042150240423,0.31450896846948967,9.989130442084505
2715000000.0,21.78,0.006696636637246235,-0.061079324831889464,0.0,0.858573098482231,0.2930242253794423,9.965586494528765
2720000000.0,21.78,0.004130833806052881,-0.013251643427580385,0.0,0.9884553886690539,0.18364251317442515,9.907707124505372
2725000000.0,21.78,0.003779516239517359,0.03935832895729715,-0.0005855637083677597,0.8039278591744786,0.09515668242086683,9.847277788280579
2730000000.0,21.78,0.007133189427219399,0.07780657870885575,-0.0004897336332458618,0.3227455532466556,0.11104962421579623,9.78194292275723
2735000000.0,21.78,0.007889045455728197,0.07812447557729754,0.0,-0.1733447718396477,0.28753253435052534,9.803722237489122
2740000000.0,21.78,0.00915602613568128,0.02389799357402756,-0.0011072484293527902,-0.35316,0.4222225064424251,9.935568798318188
2745000000.0,21.78,0.005738404396309687,-0.038801181327043945,-0.0010433462538744528,-0.2180748604050486,0.41162738672667387,9.976181080090011
2750000000.0,21.78,-0.00799369502452571,-0.07989265529793405,0.000532331218882152,0.24034857883518584,0.28448882486008825,10.03563096147811
2755000000.0,21.78,-0.014935294297757173,-0.0938480411333476,0.00210802028568661,0.7900998615781987,0.06602006921090069,10.066236557849166
2760000000.0,21.78,-0.007196964068171944,-0.0730788555376065,0.0016608378618858254,1.1850498763390989,-0.020796878341868788,9.992073439170936
2765000000.0,21.78,0.005504308977098849,-0.03743831260172994,-0.0005003917251907874,1.3958652759476529,0.11124658154976581,9.88455492586385
2770000000.0,21.78,0.01612689493680856,0.008026357409689506,-0.0005749056164228341,1.3781081543528817,0.3068577684706777,9.681291616313617
2775000000.0,21.78,0.017948924983543682,0.059707127874376056,-0.0009581974587930885,1.1600306134634062,0.3801372304947723,9.538262676593726
2780000000.0,21.78,0.008219034190321706,0.1010742697012963,-0.002129301687433,0.6560888581339885,0.2797802820312028,9.566320355974305
2785000000.0,21.78,0.0015224565773188012,0.10801778629482664,-0.0012136902202283975,-0.023351370288713758,0.21170012457170123,9.778217331049074
2790000000.0,21.78,0.006600894044484964,0.06589660606125257,0.00044715923570517964,-0.49128610061766104,0.2864525419240254,10.064276609002466
2795000000.0,21.78,0.007537657270901539,0.004410524865786036,0.0006281381059084418,-0.4669538284191383,0.2910619942362199,10.171988457104785
2800000000.0,21.78,-0.002129331199554763,-0.03643565882927602,0.0,-0.11379431401414314,0.17657945613359458,10.11411
2805000000.0,21.78,-0.004077594992541177,-0.05184078116250043,0.0,0.1796226800290268,0.11006809103248091,10.014635183422252
2810000000.0,21.78,0.003534723730200861,-0.03822780434521898,0.0,0.3196093087720931,0.1465621095514211,9.818043599610336
2815000000.0,21.78,0.012381883378378828,-0.010944787554687488,0.00039392674621957193,0.27575926403399265,0.3127441122719411,9.711212698542028
2820000000.0,21.78,0.009411477790947125,0.002768003024895364,0.0010646508437165,0.3225532382009324,0.46107,9.703268131176982
2825000000.0,21.78,0.0023421842151799643,-0.013420804662828165,0.0014372845941418289,0.40368199385011994,0.38896534768305346,9.796265780511058
2830000000.0,21.78,-0.008267708283799254,-0.02812429522328251,0.002129301687433,0.5377854642951547,0.19168635558226355,9.827462734479028
2835000000.0,21.78,-0.013894668895625772,-0.03796165717221452,0.0014266201781708283,0.7255482607976826,0.02658438413584384,9.93753
2840000000.0,21.78,-0.0022570059079769257,-0.03549147572328264,-0.0003406942567339642,0.9111546755621468,-0.011771172546111729,9.93753
2845000000.0,21.78,0.00921473037641627,-0.005233833803069115,-0.0013946986025533427,1.0801780500464806,0.1460719499535195,9.891912671089328
2850000000.0,21.78,0.0202458193231342,0.03749866342187697,-0.002129301687433,0.8868227821277278,0.33942721787227215,9.752120280348203
2855000000.0,21.78,0.018696983954428627,0.07153688132250195,-0.0018205469243904003,0.5935022272525223,0.48481008909010087,9.691299554549495
2860000000.0,21.78,0.010731596099994667,0.07217559952403378,-0.0007665425785710219,0.09966665574036654,0.40495546675035465,9.752709433343794
2865000000.0,21.78,-0.00316207943973203,0.05741469339002669,0.0,-0.3276551129837511,0.17981613136706132,9.803036402528063
2870000000.0,21.78,-0.01088071347282817,0.021625055215407904,0.0,-0.4555760655221607,0.02943,10.024447213209372
2875000000.0,21.78,-0.004790843949374587,-0.02556061375726215,0.00026616877145411343,-0.2795819844550198,0.039240223373702234,10.128825558434256
2880000000.0,21.78,0.008432083250755206,-0.06046448240332568,0.000809128570159508,0.14832792722707927,0.12046803069198031,10.167083160891831
2885000000.0,21.78,0.014415360260711736,-0.057451471852227196,0.0,0.321966105280561,0.32736076471560765,10.02366101547271
2890000000.0,21.78,0.010901975902496343,-0.04913657912866626,0.0,0.6370629156391292,0.45793046319130465,9.889852670247826
2895000000.0,21.78,0.002022775576209764,-0.04066882363646827,0.0002235827798656273,0.8828029684061296,0.3708168753619688,9.755357344057673
2900000000.0,21.78,-0.006600841344267706,-0.015557699794980059,0.0008517145617479942,1.03005,0.18246504240665043,9.62753411265804
2905000000.0,21.78,-0.006036527417515973,0.01413143500634002,0.0002022897840713842,0.9704033943635338,0.039730217869302184,9.663733520687536
2910000000.0,21.78,0.001149859717045612,0.04528963474083725,0.0006813642713679746,0.675515299965053,0.02472199132561991,9.779393704372136
2915000000.0,21.78,0.00946781762347427,0.055535087474684386,-0.0008836540554393588,0.4071121689811217,0.16902737578717375,9.924777566203776
2920000000.0,21.78,0.02331197066534013,0.04121264239687926,0.0,-0.004708970152489701,0.3535534776324348,10.003060686565009
2925000000.0,21.78,0.015931322149645523,0.011297294072682585,-0.0003194075849657961,-0.016185988668459887,0.49981910229769105,9.980693772741537
2930000000.0,21.78,0.007345998174662083,-0.021012355577679134,-0.001831187098261447,0.09594333661683337,0.4139808617653086,9.915750491030105
2935000000.0,21.78,-0.006803137452365177,-0.017794791483077093,0.0,0.32373,0.2324964299114643,9.730637499061976
2940000000.0,21.78,-0.008559743203116496,-0.007750620956983064,0.00012776429879153342,0.32255274289402747,0.14597274289402742,9.78567097157611
2945000000.0,21.78,-0.0004790618392444296,-0.0023635372892218346,0.0009475330428220881,0.33442398685873986,0.13410252839072528,9.764089886437098
2950000000.0,21.78,0.0042586033748661,-0.004684488586855281,-0.00010647130299729033,0.49148048429810487,0.10889105730021058,9.86787894269979
2955000000.0,21.78,0.004546077790166615,-0.008133907529331607,-0.0011604756488166688,0.4111370426026704,0.13008140356261405,9.863464786986647
2960000000.0,21.78,0.008048804056437054,-0.004173425067663053,-0.0019589450730269054,0.4100585749444858,0.2629085749444858,9.906530285011103
2965000000.0,21.78,0.01460698457480779,-0.0015530308934797326,-7.453180930592571e-05,0.4982497272252973,0.35934081832410814,9.882985939267458
2970000000.0,21.78,0.010390967191530171,0.02011804870031659,-0.0010007655323076958,0.46263879235838795,0.4343861077357611,9.817063892264239
2975000000.0,21.78,0.005908755740694041,0.01806327882218942,5.323881351168263e-05,0.320785497569055,0.31833386435613864,9.920852190998723
2980000000.0,21.78,-0.0034069141092224133,0.015901176035709202,0.001149835474945626,0.08358195247801951,0.21071804752198048,9.795089494595096
2985000000.0,21.78,-0.008421369296579979,-0.012254761884008186,0.003098115077997278,0.2089535798004358,0.08770128403991283,9.90486206221952
2990000000.0,21.78,-0.005195458299660788,-0.02991287419586428,-2.1299319820318e-05,0.3107827746235277,0.06925877423148774,9.801760064617302
2995000000.0,21.78,0.0011498734191020747,-0.03387304921656029,-0.0010646508437165,0.6387297399170975,0.09957237261422373,9.87867
3000000000.0,21.78,0.009581908289329958,-0.012775613976117518,-0.0010646634917686499,0.7455600582714006,0.24525093234240933,9.8786698834572
3005000000.0,21.78,0.01803122181565287,0.01991579950405189,-0.003172672183407506,0.7552719583685196,0.40064133389631335,9.85924608326296
3010000000.0,21.78,0.019159881807649434,0.027549368526772818,-6.386001530450658e-05,0.47656810449648107,0.44066543386255436,9.955188584656387
3015000000.0,21.78,0.006771626592867367,0.025632939881047485,0.0,0.2900805873076059,0.34629241437242414,9.861992414372423
3020000000.0,21.78,-0.004854877875396161,0.012265392986530357,0.0010220711761540888,0.20914873072098733,0.1361615094827151,9.877885317319754
3025000000.0,21.78,-0.011391802288124694,0.006654035889596874,5.322616545953276e-05,0.20601,-0.012263381354933822,9.776154853673047
3030000000.0,21.78,-0.000702599296923222,-0.001618320380579753,0.0,0.15068124687531248,-0.0011770822917708222,9.881417506249374
3035000000.0,21.78,0.014868206903867,-0.008070091782209625,0.0,0.11977992314629923,0.35581099909811,9.9158500768537
3040000000.0,21.78,0.023823097424793098,-0.013414632672560496,0.0,0.37945251240222516,0.6172467352571673,9.91791
3045000000.0,21.78,0.009955959796551783,-0.021607053063083966,0.0,0.48255443230924433,0.43232533965415343,9.944691477436415
3050000000.0,21.78,-0.011604829214466969,-0.009902914487870743,0.0,0.5699615331833153,0.1383191634796916,9.850220348331504
3055000000.0,21.78,-0.017646177267728064,-0.0009368412227381299,0.0,0.48274944726319446,-0.08417110547361106,9.874353837358838
3060000000.0,21.78,-0.0031107715449031,0.014068846897820798,0.0,0.41044998394219984,0.06474718873657187,9.800974265068543
3065000000.0,21.78,0.01932809291845528,0.003930746441816433,0.0,0.40221,0.4552846599597466,9.815984278601844
3070000000.0,21.78,0.019628302419018508,-0.007026760284395991,0.0,0.46970327704853276,0.5776132770485328,9.7691900422136
3075000000.0,21.78,0.007401856983796114,0.002342309641697061,0.0,0.48069,0.3634588873389889,9.744272880543628
3080000000.0,21.78,-0.0143662970841218,0.01768796226785002,0.0,0.34884264279512645,0.060035285590252896,9.873177357204874
3085000000.0,21.78,-0.012800031075350334,0.02466415284059191,0.0,0.283018200387882,0.0016676400775764,9.955286519456966
3090000000.0,21.78,0.007495285242195272,0.005475297006396124,0.0,0.1459718396873184,0.16088520039085202,10.039358340175882
3095000000.0,21.78,0.01689953880096238,-0.008421459940953745,0.0,0.2448585618665856,0.4504771237331713,9.91221911790009
3100000000.0,21.78,0.015547373265156277,-0.017474288856711026,0.0,0.40809702363427025,0.4787277591448776,9.823733578503536
3105000000.0,21.78,0.002288901133485767,-0.005710088880576867,0.0,0.5034496824871968,0.2848809525384095,9.701500555647407
3110000000.0,21.78,-0.011029861411787703,0.004514172024614363,0.0,0.37454465224764655,0.05179535020755352,9.795089766528298
3115000000.0,21.78,-0.006462371523335677,0.009667055926734471,0.0,0.1749110293921103,0.07553760505137606,9.867388802525689
3120000000.0,21.78,0.006260232461885758,-0.012022710282896441,0.0,0.2990101938519019,0.30685849686318495,9.990504909033849
3125000000.0,21.78,0.014385915992718417,-0.02157665264036136,0.0,0.5076687746868878,0.35070731790187315,9.930171710908116
3130000000.0,21.78,0.002580880622541743,-0.0042416963503363325,0.0,0.6608024511509245,0.20542024486660243,9.876511617610516
3135000000.0,21.78,-0.002129301687433,0.017686077189716876,0.0,0.5103146167660462,0.13547591731915917,9.833053195531932
3140000000.0,21.78,0.004769695352175689,0.021140106174414214,0.0,0.3001847801853478,0.254668697833187,9.869252826935128
3145000000.0,21.78,0.013512217682196915,0.0051152528022401,0.0,0.2661454832635548,0.4364480606691806,9.902410322175703
3150000000.0,21.78,0.009267638457187245,-0.010753059844492922,0.0,0.3364835506647355,0.3874940822254408,9.839429388150293
3155000000.0,21.78,-0.003896715198746445,-0.006089723016849468,0.0,0.45773545794925463,0.10643635512686353,9.78292415487164
3160000000.0,21.78,-0.014320828978125349,0.013085920596411236,0.0,0.3468801882782019,-0.05336689103366891,9.804114306896043
3165000000.0,21.78,-0.0020603954967322695,0.0152408663478081,0.0,0.27468,0.11213008281350084,9.944692468050226
3170000000.0,21.78,0.023604355721445404,0.0050463714929532685,0.0,0.20993338426553382,0.47147112451131123,9.960877368985875
3175000000.0,21.78,0.02540930229295585,-0.0023954978630001695,0.0,0.34237060343470604,0.6018434383294343,9.899270629976606
3180000000.0,21.78,0.0056274853504818916,-0.0035772201314199004,0.0,0.3625769205554692,0.384942299898723,9.828442305858523
3185000000.0,21.78,-0.014607472889837601,-0.0031939525311496,0.0,0.23720493389274933,0.08563950592069502,9.781648914405588
3190000000.0,21.78,-0.016679017281685995,-0.009134764760017393,0.0,0.22896583373345836,-0.0013732141142321422,9.849829405504993
3195000000.0,21.78,-0.001501029722972714,-0.022528112989769762,0.0,0.3867115652989157,0.15342988941699887,9.850416703527667
3200000000.0,21.78,0.011498283077161085,-0.021736256302431416,0.0,0.6474618646848187,0.2982245594054456,9.831582124312321
3205000000.0,21.78,0.012392508796189075,-0.005734855667349947,0.0,0.6609966794409669,0.32196407549344075,9.798914264227042
3210000000.0,21.78,0.005706474388657406,0.016342022597484573,0.0,0.5430811011968111,0.32529972470079727,9.816278898803189
3215000000.0,21.78,0.0027361594455994056,0.025420008869100646,0.0,0.4542023755248238,0.3111729502099295,9.888382337132622
3220000000.0,21.78,0.0020015300106110898,0.02569684521853881,0.0,0.31862773674117734,0.2283760494643605,9.86846703709827
3225000000.0,21.78,-0.0024487377305162433,0.020778076761712127,0.0,0.11036093395610935,0.14960218679122186,9.861993375850533
3230000000.0,21.78,-0.004173417689632678,0.007354017091561383,0.0,0.0,0.18580209012762092,9.851397760827878
3235000000.0,21.78,0.0018844933680513213,-0.02032303395363297,0.0,0.1455821594078216,0.30823107970391084,9.887401716867918
3240000000.0,21.78,0.008048780868341474,-0.043336586908518986,0.0,0.37160399572913994,0.3931850517324505,9.901428633601986
3245000000.0,21.78,0.003066112344045164,-0.03544678153293614,0.0,0.6361807060581071,0.276934598183746,9.85905
3250000000.0,21.78,-0.006387946168468687,-0.005864080090456834,0.0,0.7161288637076887,0.07847911621709115,9.834524684363247
3255000000.0,21.78,-0.0043649998435548905,0.017979940806574137,0.0,0.6134191103265911,0.10114230126492302,9.853262669020227
3260000000.0,21.78,0.009249656970259978,0.02041610848126212,0.0,0.5136504602114046,0.2668329498238295,9.902998863321589
3265000000.0,21.78,0.015606350579410639,0.024493893194585593,0.0,0.3572793121380931,0.3571822902561229,9.843549312138093
3270000000.0,21.78,0.006898854749022076,0.03359653401015119,0.0,0.20326205671512057,0.33667869187338695,9.802348644610786
3275000000.0,21.78,-0.0009581995668017802,0.027272432046921796,0.0,-0.024526908388369073,0.2898854363870544,9.826186309161164
3280000000.0,21.78,-0.0011923951164254628,0.001960782064371683,0.0,-0.1259595080590951,0.2974393911301939,9.909278665331486
3285000000.0,21.78,0.0013734203628199839,-0.02726195840573733,0.0,0.04797236756522367,0.28860981715689815,9.980791270506613
3290000000.0,21.78,-0.002619131235074442,-0.035598091424875265,0.0,0.3537513478850135,0.17677498581824985,9.9081
3295000000.0,21.78,-0.010209994645352955,-0.03141393026894565,0.0,0.5461218679815187,0.04051485199004852,9.875922687988627
3300000000.0,21.78,-0.0027679808908040813,-0.02023876832779954,0.0,0.5415131537737315,0.11772192295621924,9.809999679507298
3305000000.0,21.78,0.012026791560511028,-0.009688253008133235,0.0,0.6895456061522561,0.3937750690871507,9.769092107413021
3310000000.0,21.78,0.015128793132664103,0.00814076018178287,0.0,0.7441864071216641,0.4673469855588699,9.717589221364992
3315000000.0,21.78,0.0014265063457015205,0.034912666022926545,0.0,0.5880089531838896,0.2536851834222518,9.706407172678773
3320000000.0,21.78,-0.011029789739492197,0.04287006125873358,0.0,0.23661507192845072,0.10359334205193342,9.808823315896134
3325000000.0,21.78,-0.006494272018866279,0.022262364921558454,0.0,0.0740663395937634,0.16088555001925547,9.893385645841356
3330000000.0,21.78,0.0079057347506063,-0.006606980055644208,0.0,0.19698557617505574,0.32059092936250927,9.970491858725019
3335000000.0,21.78,0.011424638152036568,-0.019260412120118385,0.0,0.2973415534486155,0.28174216354602166,9.934880069210902
3340000000.0,21.78,-0.0020441718644299244,-0.0014479110659563798,0.0,0.2680076429881764,0.18599779462647795,9.831974854128449
3345000000.0,21.78,-0.00341746574672841,-0.002310341689888382,0.0,0.1444039796713398,0.2729156293974563,9.857381845191718
3350000000.0,21.78,0.0060685733656462935,-0.010651815158980182,0.0,0.31392195209191953,0.4453745205578452,9.818829195209192
3355000000.0,21.78,0.006909449600706263,-0.012862607175131578,0.0,0.5256199303336994,0.3922013236597133,9.816670278665203
3360000000.0,21.78,-0.01252530136958177,0.003279202510648175,0.0,0.5065876168323762,0.04237717681697177,9.785671787375717
3365000000.0,21.78,-0.02039003025390162,0.010273845174618334,0.0,0.3794497542225975,-0.11565839669498396,9.851888765361087
3370000000.0,21.78,0.0016443062875269449,0.004450190798810082,0.0,0.30057931641489316,0.16638061107750612,9.879455323665653
3375000000.0,21.78,0.02636761147620959,0.0005323681090343055,0.0,0.42183052444260527,0.515025393331954,9.925267172223371
3380000000.0,21.78,0.02300947323235975,0.012482096297309613,0.0,0.4312462212986622,0.4955994273839943,9.874353206085331
3385000000.0,21.78,-0.009000421037802863,0.02951474967863174,0.0,0.23406541650785415,0.25368541650785414,9.852183657495637
3390000000.0,21.78,-0.017558945017072662,0.006196132133590448,0.0,0.09162520245995202,0.1436191901601919,9.912612139073222
3395000000.0,21.78,-0.0013520135345563653,-0.011150609739290654,0.0,0.12223431453884315,0.241620497831405,9.865230497831405
3400000000.0,21.78,0.006600734889828777,-0.01428019064833786,0.0,0.33354033020460333,0.23740107542711075,9.876707603754475
3405000000.0,21.78,-0.006132417570885639,-0.004003115883452539,0.0,0.3746439661380397,0.12566603386196035,9.848259661380396
3410000000.0,21.78,-0.005557326449697896,-0.010905295739725521,0.0,0.3808241337648413,0.17246185328991853,9.924188267529683
3415000000.0,21.78,0.014588755725155667,-0.026452726543151915,0.0,0.4278162889651629,0.4618563919746639,9.898093402006333
3420000000.0,21.78,0.01951889828845335,-0.02113714594273334,0.0,0.7027886657175866,0.5882046771065468,9.842961334282414
3425000000.0,21.78,-0.005059890118135251,0.006443950654826254,0.0,0.6886598711514987,0.16235263935982638,9.801170600840907
3430000000.0,21.78,-0.025161939723632728,0.029997977668758825,0.0,0.384746401161864,-0.15087560142005602,9.762127732989077
3435000000.0,21.78,-0.004458350071074922,0.02214915218948653,0.0,0.15823536672075367,0.18747223587542236,9.827069266558492
3440000000.0,21.78,0.02855002338862416,0.00664343576789097,0.0,0.1856062690859627,0.5721182645497827,9.811177266817873
3445000000.0,21.78,0.01507816859550524,0.00910280102422611,0.0,0.30862166319011664,0.4091724903153249,9.820889166914991
3450000000.0,21.78,-0.01843593470670602,0.012669265041296953,0.0,0.17461719585467195,0.07357533506055335,9.835506402072664
3455000000.0,21.78,-0.018050820041574066,0.00011538773051510002,0.0,0.0810315395292154,0.14685791460457914,9.895543736873837
3460000000.0,21.78,0.015247225639831698,-0.020330998684341593,0.0,0.21699814088888142,0.44772893765078936,9.958326460730165
3465000000.0,21.78,0.016719140289742154,-0.022428463116504815,0.0,0.3612059498901595,0.4855916348266164,9.862483836517338
3470000000.0,21.78,-0.017201056891117898,-0.035234821811912134,0.0,0.5954666629970666,0.016479317187093175,9.892205980184158
3475000000.0,21.78,-0.03413835436104373,-0.0026615538559893004,0.0,0.5454354600183546,-0.16431446260324462,9.649116809972469
3480000000.0,21.78,0.006516566819873101,0.007879187854165753,0.0,0.4704875324051753,0.2699737686033377,9.762519870379299
3485000000.0,21.78,0.03441562936635606,0.018435986352918966,0.0,0.45753758769667585,0.6210695430852955,9.803428044611382
3490000000.0,21.78,0.00992194654067066,0.028635223829918514,0.0,0.33824703748437035,0.3935742172812422,9.909473874523439
3495000000.0,21.78,-0.0254517062528102,0.022279061473515684,0.0,0.08750465691054657,-0.027662978048729782,9.975984656910546
3500000000.0,21.78,-0.01384026176149364,0.01277559604076488,0.0,0.009811019749510196,0.14715190353241903,9.898290815799607
3505000000.0,21.78,0.014617855575630567,-0.017807808747765674,0.0,0.15548952120629522,0.41908510625175105,10.014833616965035
3510000000.0,21.78,0.00864492045631524,-0.0181165176357011,0.0,0.23387094542030945,0.3545329227572292,9.891029713691996
3515000000.0,21.78,-0.018350409994927114,-0.02018195509181231,0.0,0.444786902042469,0.02962387866163879,9.812353853802739
3520000000.0,21.78,-0.016114951788942202,-0.0171796026326588,0.0,0.44184233162822334,0.17030269394842693,9.78174699488467
3525000000.0,21.78,0.01742299471577489,-0.016040441059723194,0.0,0.6185218009090181,0.4561670540668705,9.808528705406687
3530000000.0,21.78,0.0191811684794176,0.010049450362158669,0.0,0.4987394400757944,0.43399412573594126,9.800778531433986
3535000000.0,21.78,-0.014515807928872755,0.03450044390382978,0.0,0.4357597880211979,0.05758188481151888,9.84580684331567
3540000000.0,21.78,-0.021949297984834526,0.03523609574031226,0.0,0.07062924958989247,-0.024721612561516126,9.88534107504101
3545000000.0,21.78,0.011550152531682432,0.008976375518298857,0.0,-0.06788602628846026,0.4080012740112127,9.915261506572115
3550000000.0,21.78,0.024502752325736107,-0.01470805436471423,0.0,0.10693044804430449,0.6190123101353231,9.891422793136528
3555000000.0,21.78,-0.007610596082229474,-0.029369974475406634,0.0,0.41565197870311976,0.30587317603883174,9.818632247587123
3560000000.0,21.78,-0.029527622993972664,-0.02246022553746609,0.0,0.5030572148923722,-0.06317902765169031,9.784101392553815
3565000000.0,21.78,-0.012490465385554293,0.0009348042988641288,0.0,0.34795938432889384,0.07985492340864925,9.73789615377076
3570000000.0,21.78,0.015154548143544437,0.0051742106260534056,0.0,0.48402671751636717,0.42850343503273436,9.891816717516367
3575000000.0,21.78,0.011021686277621333,-0.0028213925610284327,0.0,0.51012,0.3305957500784575,9.901232861119828
3580000000.0,21.78,-0.015473602446988088,0.010050424711421936,0.0,0.5266009390744094,0.05689591388385912,9.832366243702362
3585000000.0,21.78,-0.009627319876503223,0.024277977328725234,0.0,0.21218758426137585,0.14823028378350284,9.811667630365676
3590000000.0,21.78,0.01088089054555827,0.01964955430864329,0.0,0.15519426973144268,0.4983507892577079,9.84217707892577
3595000000.0,21.78,0.011455612765224974,-0.008631237268225223,0.0,0.1966908491428085,0.44978745257157454,9.952540207771301
3600000000.0,21.78,-0.014919302235393245,-0.006387829173986281,0.0,0.2530984195540842,0.1392994826754948,9.804112461635023
3605000000.0,21.78,-0.0255158789963877,-0.0042586033748661,0.0,0.2803699400455994,0.014420209840402098,9.838449700227997
3610000000.0,21.78,-0.0033679231882274667,-0.006749909178896918,0.0,0.22327503904065038,0.22955610359756104,9.843746259760163
3615000000.0,21.78,0.012211629002394286,-0.009911922216355229,0.0,0.39485425542594255,0.40005278303852787,9.922521472387416
3620000000.0,21.78,0.0011496931843589814,-0.0017459434427890552,0.0,0.4363486593716866,0.2601595827743958,9.88023896717259
3625000000.0,21.78,-0.009581918725700883,0.019443143747712475,0.0,0.3065613030083131,0.18393728876617288,9.836977288766173
3630000000.0,21.78,-0.000681269410976881,0.009799172451372497,0.0,0.17049688339086883,0.30725046915110465,9.938512057625921
3635000000.0,21.78,0.007079966423772941,-0.002736221631855871,0.0,0.1516627412110274,0.41761233544962334,9.855026699706267
3640000000.0,21.78,-0.004514250020935929,-0.017600721205027182,0.0,0.30528868475528687,0.2295518789210188,9.880632707026326
3645000000.0,21.78,-0.018665166949865267,-0.010268172523229178,0.0,0.36297,0.0008814132052141488,9.82451795040298
3650000000.0,21.78,-0.010438691022335541,-0.00010641122474963887,0.0,0.3286346455156465,0.07848141793741417,9.824715354484354
3655000000.0,21.78,0.010850357992159752,-0.0022783990341839863,0.0,0.266537203042072,0.3877919267776193,9.900350738945908
3660000000.0,21.78,0.014484797825111686,-0.0064305142419832624,0.0,0.4587178749154788,0.5403352265466523,9.907707386726674
3665000000.0,21.78,-0.0014906656982402663,-0.005312584532589903,0.0,0.5197333728706338,0.3225502372238024,9.904862771188228
3670000000.0,21.78,-0.014852821688824892,0.003470846850826769,0.0,0.3772912455784124,0.1024152594344526,9.817454602005146
3675000000.0,21.78,-0.01187689571043502,-0.002235875228851895,0.0,0.2756605717052057,0.10643914244219141,9.853655427972054
3680000000.0,21.78,-0.0030661323701277462,-0.013596184817455333,0.0,0.39946484403044846,0.18756777183667772,9.841783756683737
3685000000.0,21.78,0.0,-0.004967590698390537,0.0,0.5857563168039632,0.20345925684659258,9.785278513693186
3690000000.0,21.78,0.0,0.022602953207658757,0.0,0.41633367639473673,0.22052908669529087,9.776842271673823
3695000000.0,21.78,0.0,0.04295491541640341,0.0,0.1131073621845736,0.3551234354188344,9.798522515312825
3700000000.0,21.78,0.0006387983058620591,0.027481704557947944,0.0,0.00981,0.43164,9.921835365493154
3705000000.0,21.78,-0.005845019043898048,0.009443398312560261,0.0,0.00402202803482028,0.3043046167660462,9.932722308383022
3710000000.0,21.78,-0.013116529677436721,-0.005962201139057526,0.0,0.02275948824919488,0.11909217494092175,9.956758464747585
3715000000.0,21.78,-0.0149051118120315,-0.01794935437800267,0.0,0.016872911362329112,0.10496772159417722,9.9111398732899
3720000000.0,21.78,-0.0065581394122011995,-0.035757113466612825,0.0,0.14283547866995477,0.22955508384805084,9.883379378052293
3725000000.0,21.78,0.0005855658163764514,-0.04617789766354203,0.0,0.44930060473160605,0.3374645788292458,9.84237198704882
3730000000.0,21.78,-0.001809945748680203,-0.029209967129672103,0.0,0.7088719765647198,0.3092103305907033,9.785867472450775
3735000000.0,21.78,-0.007079967477777247,0.0015237422379969084,0.0,0.7270181568773817,0.17706941178159413,9.79038
3740000000.0,21.78,-0.007367352302708401,0.027017140600316524,0.0,0.55485200180972,0.15892272645012728,9.805683817935039
3745000000.0,21.78,0.0006495238540851203,0.029156844256638496,0.0,0.37120923612589235,0.24603538193705382,9.889854418389845
3750000000.0,21.78,0.0037262384278448817,0.021842787683676406,0.0,0.2599644901252449,0.3139204370355044,9.937529708642996
3755000000.0,21.78,-0.003108843788233376,0.014519989146833782,0.0,0.22563,0.27124540595445407,9.91310302706363
3760000000.0,21.78,-0.011029838223692048,0.0013200719328563025,0.0,0.1502880314641803,0.19149112696651127,9.898682253933021
3765000000.0,21.78,-0.009400779646837044,-0.011336183394570098,0.0,0.15166391635093918,0.22327618504486185,9.851593814955137
3770000000.0,21.78,-0.0017247105252424816,-0.010762278961324414,0.0,0.2723260393663604,0.2964587125940871,9.81
3775000000.0,21.78,-0.0014373025122157526,0.002661706686619494,0.0,0.3570848798981488,0.28497969342669693,9.823243719974538
3780000000.0,21.78,-0.0045993155496739865,0.012740975384641686,0.0,0.30528521760695215,0.19541468604624684,9.852379420265894
3785000000.0,21.78,-0.005930097220688207,0.013073126331396196,0.0,0.11477626480916264,0.20336210870992108,9.86886
3790000000.0,21.78,-0.003981770187441002,-0.0016609991245507359,0.0,0.14126547232405473,0.28135109446481094,9.88534109446481
3795000000.0,21.78,-0.0016927868416162502,-0.014529025488944467,0.0,0.3033260845598609,0.29606565257335654,9.887989131433391
3800000000.0,21.78,-0.003619860931234349,-0.014063806908220507,0.0,0.35708370475823703,0.24917333570603337,9.870822221431322
3805000000.0,21.78,-0.008282999606060753,-0.008751413893403748,0.0,0.2952802609244026,0.18854805218488052,9.842568313109282
3810000000.0,21.78,-0.009177282241323415,-0.008261706610266508,0.0,0.29508598407485986,0.23249811007018112,9.800582992037429
3815000000.0,21.78,-0.0041839893532212525,-0.0099757864476771,0.0,0.4323275151197752,0.32735977410179773,9.845610225898202
3820000000.0,21.78,-0.0017887181011554268,-0.00029160149890727904,0.0,0.5109050225967502,0.2593748418227484,9.82883497740325
3825000000.0,21.78,-0.01251579651390005,0.0233334196537776,0.0,0.4026977510466775,0.08632710844757109,9.830601445776214
3830000000.0,21.78,-0.011999398730549875,0.02831576776075281,0.0,0.13341525606845256,0.10653875740148758,9.87553094878631
3835000000.0,21.78,0.0013628824273705037,0.005467277398346447,0.0,0.11075586837355869,0.3849464857276649,9.937040617354105
3840000000.0,21.78,0.009368846477171712,-0.027826262846449984,0.0,0.27154259009742593,0.5218908811891089,9.969705233664753
3845000000.0,21.78,-0.008107654838333771,-0.03115287718533837,0.0,0.5137517164818172,0.2849771391969714,9.823537650630977
3850000000.0,21.78,-0.030253521022402745,-0.001591456090601141,0.0,0.5876162330796623,-0.054936897379568965,9.76879695305717
3855000000.0,21.78,-0.02042152896643131,0.026048207053256816,0.0,0.299400301455003,-0.006471155577511545,9.740939397089994
3860000000.0,21.78,0.007457646384152122,0.021475699412968344,0.0,0.2213137499517375,0.3853387493725875,9.927328124831082
3865000000.0,21.78,0.02030480660723291,0.005466526152429318,0.0,0.256630200583902,0.5186532736132328,9.931740823759208
3870000000.0,21.78,-0.005391924156801212,0.021629906209933887,0.0,0.26800784693807844,0.2831136683658367,9.83295607653096
3875000000.0,21.78,-0.027964480760343316,0.024504390023865633,0.0,0.03923698931096989,0.00981030106890301,9.893384849465548
3880000000.0,21.78,-0.015216249402439944,0.010059019529384289,0.0,-0.2103249680774497,0.13341901457379016,9.92811398265124
3885000000.0,21.78,0.007942311673352848,-0.03071552349029245,0.0,0.003534014766840149,0.4429218773073188,10.039552490770726
3890000000.0,21.78,0.003488001704607998,-0.04395842113538641,0.0,0.32726447122614477,0.39867552877385526,9.853947591062676
3895000000.0,21.78,-0.02102312117806735,-0.02401080450581976,0.0,0.5953680677872808,0.06670648688596488,9.733580175655701
3900000000.0,21.78,-0.026842966451284856,0.0010647741622250607,0.0,0.48461301521333017,-0.03531395467383954,9.757026606022565
3905000000.0,21.78,-0.0013272914997712179,0.012019833939594242,0.0,0.3881819275498193,0.238091203048012,9.847769637749098
3910000000.0,21.78,0.017942932865165157,0.005791766528329788,0.0,0.41908350378823506,0.4773536126882362,9.949301240529413
3915000000.0,21.78,0.002562618511276973,0.015674759660192914,0.0,0.4312466874698669,0.3227467186746672,9.867192223955822
3920000000.0,21.78,-0.020115210715861014,0.028124152932695826,0.0,0.2801710111959101,0.09260708527167084,9.85905
3925000000.0,21.78,-0.010965754759466281,0.01502619693711987,0.0,0.022073643576236437,0.19767310100673102,9.861993152476831
3930000000.0,21.78,0.00502513541339375,-0.010606481982818775,0.0,0.15264390534213906,0.3700330473289305,9.87867
3935000000.0,21.78,0.0004234253731911371,-0.021499722124509443,0.0,0.20807139935511398,0.31744945988569456,9.867191612106115
3940000000.0,21.78,-0.0181165176357011,-0.006856243461329314,0.0,0.3319690224640902,0.07965727652977275,9.789202723470227
3945000000.0,21.78,-0.01612355918584166,0.0053232542185827,0.0,0.1884509428958094,0.11742776892607769,9.791361766268919
3950000000.0,21.78,0.0011712075210658416,0.0039390998755048845,0.0,0.29724399741213997,0.35610323017203227,9.885537537068075
3955000000.0,21.78,0.010082101758031219,-0.007558937618643668,0.0,0.40495618543096185,0.36228153311401534,9.941159162252092
3960000000.0,21.78,-0.007411466445089476,0.0022996625178564856,0.0,0.32569123081751233,0.15382049232700493,9.87788512308175
3965000000.0,21.78,-0.01813647176951596,0.003960467705607623,0.0,0.23475322298463225,0.126648101199781,9.86267900686169
3970000000.0,21.78,-0.003939166277778614,0.0001277748388349916,0.0,0.23033941689989418,0.24995941689989418,9.781747354224974
3975000000.0,21.78,0.0009049280791553772,0.0024487472165552605,0.0,0.29920422790394224,0.31735249627512496,9.800680577209606
3980000000.0,21.78,-0.0026837274637750335,0.008901254831581315,0.0,0.20287018154620182,0.1962,9.811962386533624
3985000000.0,21.78,-0.0156033171030671,0.017381191607512746,0.0,0.12576373557693735,0.19943815144228152,9.862288151442282
3990000000.0,21.78,-0.0030874453920045498,-0.006558316484931283,0.0,0.0733806600231066,0.30411,9.966174889996148
3995000000.0,21.78,0.002044062247977893,-0.0149051118120315,0.0,0.3052881311769813,0.3021464480383645,9.928014532794245
4000000000.0,21.78,-0.0063880063849464765,-0.014904909443197103,0.0,0.4218292230479922,0.10790922304799223,9.95714891226719
4005000000.0,21.78,-0.019053337294547,0.010391194856468874,0.0,0.3247102220768022,0.01079022207680222,9.821182310907524
4010000000.0,21.78,-0.005600302474730649,0.0106465084371654,0.0,0.1987495874372959,0.2309291914570919,9.935176534673266
4015000000.0,21.78,0.01741351081922876,-0.013106046550213218,0.0,0.04394755221507554,0.5684922295295224,9.861403776107538
4020000000.0,21.78,0.003790736357681266,-0.019989655973032303,0.0,0.44420015759810155,0.4657778629958786,9.849632321916323
4025000000.0,21.78,-0.026154005037543566,-0.007080690334692143,0.0,0.4517504218192042,-0.06082637812456382,9.793322530915226
4030000000.0,21.78,-0.03370305695936141,0.022651129534624927,0.0,0.34060226066502264,-0.18972626105706264,9.864151826223319
4035000000.0,21.78,-0.00040549971393676054,0.015576986882274086,0.0,0.05983864874898648,0.18698189175141897,9.98746391887544
4040000000.0,21.78,0.028591515755670736,-0.0007666848691576661,0.0,0.05729055694430557,0.6580586451354864,9.924187772222776
4045000000.0,21.78,0.011499629230777051,-0.024428522600987157,0.0,0.2731122856625229,0.5179664286145643,9.97147307141563
4050000000.0,21.78,-0.024928845193860173,-0.01224510183050623,0.0,0.32078723599917236,0.05885606668046067,9.75604303334023
4055000000.0,21.78,-0.03350076506728133,0.0007240651494301101,0.0,0.34992293629052934,-0.12115468145264681,9.77517489381755
4060000000.0,21.78,-0.007837684826124479,0.017135081540927587,0.0,0.22366681709056818,0.061216213794462127,9.806468636581886
4065000000.0,21.78,0.006856454262198485,0.02659120690412744,0.0,0.18894044208450442,0.32726381081693817,9.852673894788738
4070000000.0,21.78,0.004854773528965867,0.013949240679059706,0.0,0.0935865303964653,0.4389001114938011,9.926543432438935
4075000000.0,21.78,-0.002076129276195174,-0.006388076865007562,0.0,0.08681857915198579,0.39288994593609944,9.879159945936099
4080000000.0,21.78,-0.009454159696931105,-0.03016577061629944,0.0,0.23661862648388626,0.20129945651969458,9.918302875494629
4085000000.0,21.78,-0.016846676491626036,-0.017282086498985744,0.0,0.3788633108471331,0.03649193046041929,9.86258096523021
4090000000.0,21.78,-0.015483138853685127,0.007112074558159629,0.0,0.3941657205566572,-0.02236711777337118,9.865328558886686
4095000000.0,21.78,-0.001107098760735779,0.021211430562101997,0.0,0.13812225470522255,0.22484774529477747,9.82118292275723
4100000000.0,21.78,0.00809140691209509,0.014056786582684458,0.0,0.16480887601338876,0.5042362298522624,9.825696159275163
4105000000.0,21.78,0.0036942778540665633,-0.001746165837706001,0.0,0.19413997973469982,0.44292030397950305,9.82962
4110000000.0,21.78,-0.016984347429100256,-0.006984126862611886,0.0,0.2650669184863692,0.12124856639088566,9.867879399159094
4115000000.0,21.78,-0.02565428030703726,-0.004173396609545738,0.0,0.2618286602131866,-0.1042818186498182,9.969315359147254
4120000000.0,21.78,-0.008819306563892921,-0.0031939525311496,0.0,0.20287023981760238,0.09888744085987439,9.959111599869717
4125000000.0,21.78,0.012789074147255258,-0.002395455702826297,0.0,0.3556143428330434,0.39730740369527406,9.976770320492703
4130000000.0,21.78,0.011012949082678563,0.008900602938532787,0.0,0.33216571757675717,0.4200636384579364,9.877687796695579
4135000000.0,21.78,-0.012480037774985967,0.0197833856637945,0.0,0.21817343619103435,0.12291616762086172,9.817945859047759
4140000000.0,21.78,-0.021778933992397997,0.032340366360781886,0.0,-0.11026777741037774,0.005493439170934391,9.767620317512803
4145000000.0,21.78,-0.006488601458207035,0.01201404322243952,0.0,-0.22563,0.2646768594427686,9.939199873814598
4150000000.0,21.78,0.009688436404889414,-0.026948224975412875,0.0,-0.026484662345646587,0.5169886927841869,10.01601
4155000000.0,21.78,-0.0008518958504954571,-0.05852164128991086,0.0,0.37700209317682093,0.34187567529385676,10.02954796141178
4160000000.0,21.78,-0.02049590846346985,-0.04972072912346735,0.0,0.6199932120451322,0.015300933500709324,9.948908549560885
4165000000.0,21.78,-0.021640450469409413,-0.025132364759100516,0.0,0.6736527809001279,-0.09486278090012781,9.848944971898849
4170000000.0,21.78,-0.007224117259013868,0.007564913996072068,0.0,0.6963140429917404,0.024918938947689387,9.780961914016519
4175000000.0,21.78,0.008623795047212002,0.05139859732839158,0.0,0.5532820537352205,0.28596401392534015,9.690807607961977
4180000000.0,21.78,0.011796304913950263,0.07294225804308294,0.0,0.2009053087661531,0.4551848119148481,9.747217217872272
4185000000.0,21.78,0.01131724729072317,0.06690551139266292,0.0,-0.24760830185298296,0.48431961871139617,9.824911525154416
4190000000.0,21.78,0.0011496815903111607,0.03271894949921283,0.0,-0.5495579091001791,0.3894557792141578,9.967157909100179
4195000000.0,21.78,-0.01442614288067837,-0.009135031578625767,0.0,-0.5201247333088473,0.171967099963271,10.07536090741421
4200000000.0,21.78,-0.024717414842199213,-0.0507056685731775,0.0,-0.18638632890176327,-0.0784820394990204,10.100376081579961
4205000000.0,21.78,-0.02078869374748759,-0.06691625485895988,0.0,0.1638294503123945,-0.11870018322920182,9.988540366458404
4210000000.0,21.78,-0.0036269656116756,-0.045037919461862336,0.0,0.4950156256453563,0.09790633500016338,9.794302364516023
4215000000.0,21.78,0.013829240867429895,-7.164642921231659e-05,0.0,0.619501090643411,0.3542409830403098,9.661573963158139
4220000000.0,21.78,0.016658765123822646,0.04623342973132882,0.0,0.3896500851994008,0.4842220918106209,9.65657209181062
4225000000.0,21.78,0.004471391042221915,0.06263634057022556,0.0,-0.05494026740890268,0.43458185108221853,9.817359551638896
4230000000.0,21.78,-0.009518076628470248,0.025631012107099026,0.0,-0.31627489297604894,0.31450769621057695,10.054859571904196
4235000000.0,21.78,-0.01547863607800475,-0.05112108613971186,0.0,-0.16657100316701,0.14528420802474207,10.241150733896907
4240000000.0,21.78,-0.01875535283171527,-0.11095576257028508,0.0,0.43910284740832844,0.008632305858523062,10.223588199932482
4245000000.0,21.78,-0.019138546651681406,-0.12511301002210298,0.0,1.2587277787765778,-0.04963909472419094,10.038473168465332
4250000000.0,21.78,-0.006928786761846191,-0.07882706058468639,0.0,1.7805172288810724,0.004906403369564036,9.751136863056269
4255000000.0,21.78,0.017288077632474967,0.007653132051808474,0.0,1.7110567287726672,0.29018327122733273,9.54071508675865
4260000000.0,21.78,0.026335523367905497,0.1145833578199666,0.0,1.2089792697858928,0.5332721792177219,9.341471338420615
4265000000.0,21.78,0.011230508158592804,0.20068282805206256,0.0,0.33941605889906057,0.3430516407171164,9.410933839180439
4270000000.0,21.78,8.515406510309332e-05,0.20931781014589224,0.0,-0.8937021968496219,0.05218853648298536,9.860033902886938
4275000000.0,21.78,-0.0005855489523069182,0.15131398964887088,0.0,-1.9266899786457,0.15990582324935826,10.133731660734917
4280000000.0,21.78,0.006089920115662203,0.028161985883047566,0.0,-2.2029314385195145,0.41673021327570214,10.323653179543431
4285000000.0,21.78,0.0037686652647772063,-0.10606560053439062,0.0,-1.705755808597358,0.47637293415212933,10.309915269532452
4290000000.0,21.78,-0.01987392327207833,-0.19213020874336809,0.0022358119885911697,-0.7086637340028374,0.29979093350070934,10.079184900094148
4295000000.0,21.78,-0.036705375690375894,-0.21618182160197152,0.004886738318761563,0.4861932773257328,0.05336506519645065,9.852082313818123
4300000000.0,21.78,-0.030246338241967388,-0.16980594769306145,0.0034068645710181116,1.4126454289521544,-0.06670858465638585,9.66481183295532
4305000000.0,21.78,-0.006185430827467324,-0.08996902218376218,0.0012988558793792949,1.9100095085837951,-0.023738360371883607,9.725733688769738
4310000000.0,21.78,0.010695799555154172,-0.005348090656036256,0.0,2.003788674518687,0.19365132548131325,9.80960693026737
4315000000.0,21.78,0.012435388906826307,0.05336319131179182,0.0,1.7223384312657841,0.3299102161863022,9.779098919068488
4320000000.0,21.78,0.0044714880106216884,0.0819343331634579,0.0,1.3117891722807917,0.2813497930701979,9.813531683910817
4325000000.0,21.78,0.0010646508437165,0.09842613430551854,-0.0007452738248767326,0.8112821275397213,0.18197491194444912,9.87818092813491
4330000000.0,21.78,0.00396057416004656,0.09648831464159481,-0.0017673112728917551,0.2780112788523128,0.14401096821010967,9.96656709536967
4335000000.0,21.78,0.008527825843516397,0.0799697470764508,-0.002118682593648903,-0.16549798388477982,0.24113198925651988,9.908295694786958
4340000000.0,21.78,0.005706510224805165,0.05509279770449937,-0.0035772085373720645,-0.45636212729222125,0.4402735586936356,9.831188588408486
4345000000.0,21.78,0.002278297849766788,0.031445872924650065,-0.0014691998457332395,-0.5753577659461777,0.42732157448611574,9.75114
4350000000.0,21.78,-0.006286795323900222,0.01885634452162752,0.0,-0.7180931829094319,0.18540671867466718,9.804115520883554
4355000000.0,21.78,-0.015987215948268,-0.004530057200570387,0.0006175158501112741,-0.7687102465496025,-0.002844984590649846,9.94763489213455
4360000000.0,21.78,-0.011212546041155227,-0.03119555603298187,0.002129301687433,-0.5913447674935477,0.08083719469637195,10.010124423438844
4365000000.0,21.78,0.005956267180984333,-0.05746237552718471,0.001841836758171606,-0.32382496295914964,0.36689569569775693,10.013654582581346
4370000000.0,21.78,0.01419389870778898,-0.07345319191974055,0.0007878324123522275,0.05081944992629451,0.4693090418878904,9.886909041887892
4375000000.0,21.78,-0.006658661810998147,-0.06311085659239903,-0.0002661719334671509,0.43900013435290136,0.2575091858140918,9.751139320166992
4380000000.0,21.78,-0.02561162264315326,-0.03412440962436715,-0.0008091254081464706,0.6600165447712656,-0.0435569104574691,9.71111588060996
4385000000.0,21.78,-0.01649401209760298,-0.010401629499492469,0.0,0.6286244593065446,-0.016085674452356744,9.809118547947184
4390000000.0,21.78,0.006242814124296842,-0.008879160274121419,0.0,0.6631585581144855,0.24937113797531138,9.96774599378676
4395000000.0,21.78,0.014365170146131019,-0.002810529992240438,-0.00022358594187866474,0.89271,0.2923362926479629,10.093411668308416
4400000000.0,21.78,0.0029809667109768206,0.014057030351427297,-0.0008517113997349567,0.8515062052408621,0.10987080349390803,10.155311658141116
4405000000.0,21.78,-0.0005109581187575888,0.03134296453647438,0.0,0.6382363753921638,0.03914369679863697,10.101552173257922
4410000000.0,21.78,0.008882450633786454,0.04841271529406607,-0.0001916464481873001,0.38572697286706975,0.24485948449709483,9.983243486433537
4415000000.0,21.78,0.019156852409093247,0.05503475055771962,-0.0008836508934263214,0.11653971278119712,0.43517228604862285,9.845314284878443
4420000000.0,21.78,0.010944452277632934,0.048324405971920635,-0.00017035345239305703,-0.2173918321831183,0.49089188488081886,9.68247
4425000000.0,21.78,-0.006497118884604296,0.01646072740062743,-0.0005855299802286935,-0.4183957264471573,0.40318876529178765,9.695714273552843
4430000000.0,21.78,-0.019777410305812884,-0.022867668213381164,0.002129301687433,-0.3090128488141285,0.15754679300386792,9.792735776758958
4435000000.0,21.78,-0.022053363185976626,-0.06233014895568562,0.0019908877287313077,-0.04325839578418396,-0.018344613855446137,9.935372316867324
4440000000.0,21.78,-0.011242600594943501,-0.0863315893758795,0.0009368833829119291,0.3931898882586989,0.006672007383420078,9.980693568791636
4445000000.0,21.78,0.0017587344593971695,-0.07403072280180745,-0.00023424192581489867,0.933816403824964,0.15774721748617218,9.912708714207788
4450000000.0,21.78,0.016306639343298995,-0.029291344593531547,-0.0019163527574123443,1.1811234813845348,0.41790738297457386,9.694240444153605
4455000000.0,21.78,0.017838005989552118,0.02756194539043237,-9.582796711320625e-05,1.0910645656127458,0.5459252020045521,9.524724161603642
4460000000.0,21.78,0.0024683961038001277,0.07145332604376142,-0.0008942879052843306,0.6729612353418124,0.38219430805434307,9.427803526191935
4465000000.0,21.78,-0.018414657520976967,0.09574302711466155,0.0010646508437165,0.13880673000026728,0.030311772545517722,9.566420388545303
4470000000.0,21.78,-0.021096304190107107,0.07587305727465429,0.0010007623702946583,-0.37356636283896366,-0.07769363716103636,9.865723231082832
4475000000.0,21.78,-0.00015866444052532866,0.009845755832196896,-0.00010648395104944016,-0.5238512185118123,0.10055467303764673,10.132750564587106
4480000000.0,21.78,0.016753000162072908,-0.04696497076079631,-0.002044110732177803,-0.20365072695700726,0.3339324870186249,10.2989300519255
4485000000.0,21.78,0.009326265755604975,-0.07424097584789291,0.0,0.3346223232825233,0.3421724515370245,10.254783483453634
4490000000.0,21.78,0.0009155334708830078,-0.06312541615918445,0.0,0.6894480209800803,0.3023434150842341,10.041514255742742
4495000000.0,21.78,-0.006377249078362966,-0.02407783396402843,0.0,0.8237454380700545,0.2151326888301269,9.846981691870416
4500000000.0,21.78,-0.0053232731906609244,0.018116992093165557,-9.486039112374406e-09,0.7946073777869738,0.14714702815857028,9.62361
4505000000.0,21.78,-0.007431281882299683,0.07083448814390404,-0.0010540138318584909,0.5032503748734038,-0.18305757514347576,9.62361
4510000000.0,21.78,-0.0022357192362086583,0.12774255791301214,0.0010220838242062387,-0.3937815469245155,-0.29214276361472763,9.815887752026779
4515000000.0,21.78,0.01647660321149564,0.1464657493226456,-0.004098953336604836,-1.1637672281781721,0.2385841111136412,10.010125753969158
4520000000.0,21.78,0.037493353555327895,0.07336946459638896,-0.0022144546985317514,-1.3282753169336534,0.6694382630053828,10.392717511823076
4525000000.0,21.78,0.0383448836663154,-0.0015426759573749504,0.0009049818333770141,-1.716263103600531,0.8171742304977424,10.259296593716867
4530000000.0,21.78,-0.009709027019099044,-0.09544279378668857,0.0020654321860893833,-1.1738592326212924,0.5566168482953686,10.23300702402037
4535000000.0,21.78,-0.0514235324966784,-0.1517235305364208,0.0041095713763846155,-0.5175696100884961,-0.06259361373763617,9.894264640783446
4540000000.0,21.78,-0.05139363457484739,-0.2172661698516903,0.0042586033748661,0.5038511238777112,-0.3967192218896922,9.995214034576742
4545000000.0,21.78,-0.023025850818411638,-0.17417622429706173,0.0042586033748661,1.7223529117088292,-0.4753931296870313,9.693748410158985
4550000000.0,21.78,0.022904387703174624,-0.12431760617817189,0.00042582197172842196,2.0463681210789813,0.22563707026327068,10.042500800266508
4555000000.0,21.78,0.044769788168873795,-0.07474484440512415,0.0,2.6025002970000033,0.609694596639346,10.006101103721312
4560000000.0,21.78,0.047816446063557845,0.017940784752472058,0.0,2.081283577068036,0.6388271114274712,9.61654290280873
4565000000.0,21.78,0.013642358795345831,0.10026867562239848,-0.003705023428372216,1.8049398605980986,0.6291152113303522,9.479402113303522
4570000000.0,21.78,-0.01988169337483694,0.17766300411689412,-0.002427384656474192,1.3959590054954902,0.020398408792784095,9.205112648230228
4575000000.0,21.78,-0.042618515380719424,0.2320158073487762,-0.002129301687433,0.2584820365587206,-0.3870077879637779,9.220910122047203
4580000000.0,21.78,-0.008224283753999237,0.2334258516325693,-0.002129301687433,-0.9119481863595817,-0.3013616876629169,9.742120315582303
4585000000.0,21.78,0.053751853600042934,0.15619444266325822,-0.003896641418442175,-2.132803410381734,0.5232741276961415,9.969708224929983
4590000000.0,21.78,0.05799442111088916,0.04540438333002862,-0.0042586033748661,-2.071084168721742,1.2498002408670026,10.149231493949614
4595000000.0,21.78,0.0167637906438751,-0.050564776943997754,0.0009156578433957988,-1.5183862663535626,0.9045748341106484,10.158941432242914
4600000000.0,21.78,-0.044530922360551325,-0.12868730536057832,0.0029810320592462613,-1.269412481058825,0.0019529757024298044,10.15335
4605000000.0,21.78,-0.06593689088489399,-0.18083660907686894,0.0057172041528978585,-0.45331106589341064,-0.42869968339799686,10.037100158301003
4610000000.0,21.78,-0.03577188919068289,-0.18403372177222868,0.0030661555582232897,0.6194135184402353,-0.1920763077949631,9.845510319581905
4615000000.0,21.78,0.010283743519496302,-0.13294568295389061,0.0004897199311893661,1.5053521194712212,0.020504423894244256,9.69443694502827
4620000000.0,21.78,0.0213104701668507,-0.0397059932929337,0.0,1.6747629307861294,0.26016362292483625,9.64048293078613
4625000000.0,21.78,0.015707894861339007,0.019443387257273907,0.0,1.4911178439581785,0.4414514373612144,9.773214206866442
4630000000.0,21.78,0.009113352661732065,0.07976494478792165,0.0,1.2289942818985429,0.3282407114239071,9.747215100678051
4635000000.0,21.78,-0.0010966978458511563,0.09771279154229841,-0.0015544097730666616,0.7923491085049912,0.009708568915385685,10.151393401758833
4640000000.0,21.78,-0.0065582785407748,0.0719246857548882,-0.0005961849101605815,0.4665611665863117,-0.0953532901264329,10.380942901264328
4645000000.0,21.78,0.0031302105643318126,0.036071259237260414,0.0,0.2809569564231696,0.006377853353278534,10.317862527093826
4650000000.0,21.78,0.024605877406838016,0.02333327736319093,-0.0014905307856839323,0.2079716387173164,0.3924045160335452,10.04739892909719
4655000000.0,21.78,0.03489545418379562,0.024578977695401905,-0.002129301687433,-0.02040769336927692,0.6207778850134789,9.852574134150942
4660000000.0,21.78,0.01158865207930719,0.0328087975121944,-0.0006813568933375538,-0.15774534308945343,0.4304597224930972,9.709936642276366
4665000000.0,21.78,-0.01713151544681427,0.04978046792994343,0.0,-0.36061813713678137,0.03452721307077211,9.702286743672168
4670000000.0,21.78,-0.01994763833168886,0.050839966091988466,0.0,-0.7167223190750232,-0.10143530929085309,9.812355669928056
4675000000.0,21.78,0.007191974428877597,0.010551728167650737,0.0,-0.9108593172563932,0.16971681386316811,10.018464770156648
4680000000.0,21.78,0.022971364944971213,-0.039585199971540294,0.0,-0.6529494184442942,0.48971774529477746,10.072907545483075
4685000000.0,21.78,0.015103068255940792,-0.0812897736180053,0.0,-0.18766084097530839,0.5267960899949609,9.987265698994458
4690000000.0,21.78,-0.006271205441948716,-0.09851130945070853,0.001980280228995043,0.2760576815882768,0.3688541780475418,9.783118140364182
4695000000.0,21.78,-0.018585003595339614,-0.11247967718118941,0.0025445056193816665,0.7923588981002889,0.16863198491041984,9.676485808805259
4700000000.0,21.78,-0.01769061766765108,-0.10311727519760562,0.0008517008596914985,1.3459372036360722,0.029429087081390866,9.584368630622087
4705000000.0,21.78,-0.009067225267377915,-0.06332481100800813,0.0,1.7374517502804174,0.0017659827779598278,9.675997776113478
4710000000.0,21.78,0.008719175477168484,-0.009067476327757423,-0.0012350148361530153,1.785811302166813,0.10653815526368154,9.67815195325022
4715000000.0,21.78,0.016285986335487782,0.06455598664197092,-0.003343023527791829,1.6301259599188596,0.2380897074153971,9.564847458917475
4720000000.0,21.78,0.011924039700620065,0.13758281780369608,-0.00246996010801925,1.1269657406140574,0.31195845840168457,9.562788458401684
4725000000.0,21.78,0.013104864613930048,0.17906489189302396,-0.002821354616871984,0.21188608803476094,0.25800171511561715,9.7678201204335
4730000000.0,21.78,0.014827948153874091,0.16430660222977217,-0.003108760521890003,-0.7363467768371679,0.2173899674982997,9.976182410620323
4735000000.0,21.78,0.011019086325360394,0.09983783372170985,-0.0010007518302512,-1.335536894924369,0.32902905549049055,10.062215743801858
4740000000.0,21.78,0.007409949888344691,0.019681667160131464,0.0,-1.500537415862374,0.44262775241287755,10.063882247587122
4745000000.0,21.78,-0.00012787813126088551,-0.052863850999132864,0.0005429819327966569,-1.240960391703404,0.3558065801835658,10.095668305991182
4750000000.0,21.78,-0.01757567600559806,-0.10599423614637395,0.0010646508437165,-0.6572635415864354,0.029425940425759384,10.14844490773695
4755000000.0,21.78,-0.02354613670284217,-0.12206806313932622,0.0010646508437165,-0.03992143547031435,-0.15754804583898047,10.124312030559322
4760000000.0,21.78,-0.0037989515958490472,-0.1084853067692056,0.0005536084046112077,0.556036902181069,0.013736773718667744,10.10900889245729
4765000000.0,21.78,0.018724905669947507,-0.07503767995305403,0.0,1.0540877394042774,0.2635966436425664,9.994229393585394
4770000000.0,21.78,0.020258952942990963,-0.019032920038134157,0.0,1.2766742338637425,0.34570384409083843,9.84551192204542
4775000000.0,21.78,0.0070265747796310896,0.033126732031053735,0.0,1.1345225118082252,0.22562814502708145,9.820790814502708
4780000000.0,21.78,0.004216108027651386,0.0553967504583,-0.000936912895033612,0.6262644578710446,0.1608849284576493,9.822949478537295
4785000000.0,21.78,0.011413097391927625,0.03798496221046868,-0.0007558718385739466,0.2704616070571161,0.29596946591479467,9.940671430629214
4790000000.0,21.78,0.0116046437097021,0.002384535163799318,0.000617487391993937,0.35139615384006156,0.3362853113599531,10.050148241759983
4795000000.0,21.78,0.002842486350001356,-0.01796788650444622,-0.0004365169538254414,0.5714348284280483,0.16078394412043945,10.01601
4800000000.0,21.78,-0.0031939019389410207,-0.013424859953188168,-0.0006387803877881801,0.6925854405945544,0.05886046617120466,9.953224508252145
4805000000.0,21.78,0.006235166320599852,0.01246352569106806,-0.0008304479160623966,0.599880100029601,0.1915918199467182,9.77105215337872
4810000000.0,21.78,0.017605525788804383,0.04693297704635678,-0.002533879147567115,0.394555303717153,0.36807157371391575,9.59614106571521
4815000000.0,21.78,0.016300051816137643,0.07334262580985977,-0.002012159644438697,-0.022666992112669926,0.37425103237201035,9.538949793525598
4820000000.0,21.78,0.0053657284857105214,0.06788539459345976,0.0,-0.4932489533224895,0.36807185535901854,9.573383548981736
4825000000.0,21.78,-0.0010113877881048636,0.03169549213455637,0.0,-0.6479507811595079,0.3914184376809844,9.69914906183639
4830000000.0,21.78,-2.1323561920271773e-05,-0.021965406782499378,0.0,-0.5703506793083069,0.3364825309152253,9.879455925803459
4835000000.0,21.78,-0.0031833365993784732,-0.06731639141865227,0.0,-0.2498568495229685,0.23936212171852123,9.989523939140739
4840000000.0,21.78,-0.008735824166961066,-0.09629674513572477,0.0003406984727513475,0.20797764067157642,0.08907423593284236,9.986185531753755
4845000000.0,21.78,-0.014001493411030201,-0.0864005850705559,0.0010646508437165,0.7876504523904044,0.07337955286649553,9.82422402945844
4850000000.0,21.78,-0.004790775439092083,-0.057094464908463045,0.0010646508437165,1.1987823768217236,0.15107475364344755,9.72857502168595
4855000000.0,21.78,0.00762294097853919,-0.00493612103145594,0.0004471328855965342,1.2205600113949002,0.23730493732804936,9.595749977210199
4860000000.0,21.78,0.010348395956002511,0.04678709208022801,-0.0010646508437165,1.0747790688158907,0.3029324224013242,9.642838260797681
4865000000.0,21.78,0.0095818575934488,0.07929441447454247,-0.0007771848604507601,0.587417508179875,0.27468,9.771743834903639
4870000000.0,21.78,0.0095818575934488,0.0749304032697852,0.00027681948536861827,0.11752124596451245,0.2568251378426514,10.052898059441581
4875000000.0,21.78,0.007718646681148247,0.037013854304279864,0.0007984778562450032,-0.10300594691025947,0.1790314583987146,10.236734810617948
4880000000.0,21.78,0.0008516692395611001,0.016153206531098557,0.0,-0.16009853648298536,0.06749156775411569,10.21731101042371
4885000000.0,21.78,-0.002459312556117816,0.002459312556117816,0.0,-0.12596115908211158,0.01569789770527898,10.13922094321261
4890000000.0,21.78,0.0037515757938229163,-0.0032792689129219595,-0.0002342334937801321,-0.1389075103875751,0.24231032438340327,9.925561705017618
4895000000.0,21.78,0.01772262777963365,-0.016921060135566917,-0.0008410638478334894,0.05209214587452146,0.5224811704770117,9.899368244284481
4900000000.0,21.78,0.0166223400295381,-0.023652660706056726,0.00021294049798588902,0.16284723729607237,0.5003066688182667,9.839430475883105
4905000000.0,21.78,-0.0011074023139873747,-0.018219563027163016,0.0012669448438052675,0.24809404253634043,0.18089411343024114,9.8973099527374
4910000000.0,21.78,-0.013371931794498278,-0.008240325078107224,0.002129301687433,0.19070716296687162,-0.01510768611257686,9.983833581483436
4915000000.0,21.78,-0.0029488859807031173,-0.005571287998607708,0.001767299678843951,0.2617311818719118,-0.007551886108418858,10.027684568275845
4920000000.0,21.78,0.014524671690730824,-0.024419375087336197,-0.0003407090127948057,0.32255452017174524,0.18325299799723,10.051716393132965
4925000000.0,21.78,0.01683623540362502,-0.036109179186167434,-0.0018098856704324372,0.5253290395019904,0.37572319132443194,9.852181278080112
4930000000.0,21.78,0.008985611551036147,-0.03631923969503284,-0.00029812302120631954,0.8379704872780049,0.39514699151866994,9.66912610177596
4935000000.0,21.78,0.0053232542185827,0.00031136114300227714,-0.0018524716620209234,0.8569030207177303,0.4081938124306381,9.476853166851631
4940000000.0,21.78,0.004939948674155926,0.03523855182961947,0.0,0.7647835699499358,0.3590440809285408,9.552193775721438
4945000000.0,21.78,0.0011923255521386167,0.06828104994136404,0.0,0.35796296192162963,0.17451884344238844,9.624494724963148
4950000000.0,21.78,-0.005642576429196465,0.07350935970765675,-0.0001064755190146736,-0.039243845912438464,0.08240438459124384,9.809020826808409
4955000000.0,21.78,0.00221459909712717,0.029589705975228874,-0.0009688218225989479,-0.37915505632605057,0.1371459173884592,9.97588700375507
4960000000.0,21.78,0.01392564349153543,-0.028594318854310272,0.0,-0.22091821339648213,0.33746448171024485,9.955186554869266
4965000000.0,21.78,0.01386160745750514,-0.049720740700236396,0.0,0.0822110789317108,0.37915601780416014,9.80676086765581
4970000000.0,21.78,-0.00025555810970475577,-0.029102373623064216,0.0,0.39593217921772184,0.3282417311734173,9.635774786145147
4975000000.0,21.78,-0.0041521173158079626,-0.0003724914598386232,0.0,0.43899508416485084,0.24525,9.676094176433843
4980000000.0,21.78,-0.0020867051558010555,0.012477634403174781,4.259653163194436e-05,0.2071874901915749,0.24446500653895006,9.747217450957875
4985000000.0,21.78,-0.0011285509111861485,0.004971803847499637,0.0010327008099816771,0.23573439682764397,0.2182700793089008,9.89142396827644
4990000000.0,21.78,-0.0033004702103381104,-0.006601289658968643,0.0,0.24917593849525937,-0.020405187699051877,9.988346672322868
4995000000.0,21.78,-0.008378665256504759,-0.016977092820860528,0.0,0.44223557617505577,-0.05719065062800651,10.075459182131292
5000000000.0,21.78,0.0053234757322829195,-0.009581615172449261,-1.0540043458193785e-08,0.5199295144049951,0.10791330204603303,10.133728348976984
5005000000.0,21.78,0.027474845754258244,0.014660484781397237,-0.0010540148858628367,0.47137001391940014,0.4381179053480791,9.96862604732596
5010000000.0,21.78,0.028741743617115716,0.02222579492759457,-0.0010646508437165,0.41319661612056613,0.6145001516383015,10.024643383879434
5015000000.0,21.78,0.00809165840444349,0.02547328668077318,-3.192895364790638e-05,0.16460926733069267,0.4277140517928405,9.864051444023914
5020000000.0,21.78,-0.014011027329585885,0.014309488893532377,-0.002044150784342944,0.034529932402799335,0.026286704685967055,9.906138487537385
5025000000.0,21.78,-0.018967408190674533,0.004737600919845465,0.0009049849953900514,0.0014712071862120722,-0.15794275688272758,9.926739195209192
5030000000.0,21.78,-0.0011506790758337923,-0.0057492205889064715,6.3868447339271e-05,0.06455048391200484,-0.08377652068456519,10.029156474718864
5035000000.0,21.78,0.022789357401083926,-0.011338584554699924,0.0009901358984801074,0.11428698899416989,0.2864559119533591,10.08124698899417
5040000000.0,21.78,0.029401869700915413,-0.013670138082047964,8.516144313351409e-05,0.24407417054334174,0.6298054263583543,9.976376425248565
5045000000.0,21.78,0.01917040498703813,-0.032264358789882944,0.0009688429026858643,0.40682236588222365,0.6126340100346401,9.904469614048496
5050000000.0,21.78,-0.005854100621801753,-0.017796941410039943,0.00010645443892775717,0.5277791770822918,0.29920156684331567,9.642246155384461
5055000000.0,21.78,-0.025588638678813166,-0.0017584337398621752,0.0009475499068916213,0.58320499093655,-0.1192939202416392,9.65745499093655
5060000000.0,21.78,-0.017392437730210063,0.028122461342114605,0.00012774743472200025,0.3814104411737044,-0.14087130514671303,9.619685508577854
5065000000.0,21.78,0.009963162101985692,0.033809492426210945,0.0,0.2422076210398762,0.24672592716965927,9.716217580578576
5070000000.0,21.78,0.034914510478695496,0.014843451607469301,0.0,0.08220612586266124,0.6415779391466794,9.81588698478667
5075000000.0,21.78,0.025675388852071,0.00266152012785021,0.0,0.15892318290943183,0.663155605696856,9.81294280284843
5080000000.0,21.78,-0.007875998696196769,-0.0007239839910955271,0.0,0.25898498672904985,0.2370045676818457,9.867683490710334
5085000000.0,21.78,-0.027110011169465383,-0.001948321763225392,0.0,0.2176832086098321,-0.0465999692505997,9.837958006149881
5090000000.0,21.78,-0.013225901030194612,-0.015238979887374224,0.0,0.23014289660142898,0.00019728753857287118,9.869841494335715
5095000000.0,21.78,0.011129349918715184,-0.02070365140684513,0.0,0.33874058653540584,0.30568316271343166,9.727692219679023
5100000000.0,21.78,0.015987215948268,-0.017903544463580508,-0.0008517314258175274,0.5356281793503819,0.42771669342966695,9.723672396245524
5105000000.0,21.78,0.004198238679874986,0.0031479597556127864,-0.00022356591579609413,0.5477900033660001,0.27095001851300016,9.754769997475499
5110000000.0,21.78,-0.0064092950264932926,0.02846134281504635,0.0,0.39416391414323915,0.11850341042133408,9.891032287345523
5115000000.0,21.78,-0.001139079360596604,0.02834773676656583,0.0,0.20208401294524012,0.12605899676368995,10.063688388349284
5120000000.0,21.78,0.006728668883320016,0.015292423626976743,0.0,0.15696,0.23426409284814093,10.119211398899713
5125000000.0,21.78,0.010114204622396214,0.0013306731085666445,0.0,0.17903279864092797,0.235439601812096,10.072416803171167
5130000000.0,21.78,0.005919393806556389,0.007324927573784872,0.0,0.12831400284724004,0.21837050035590502,9.902800507474005
5135000000.0,21.78,0.005035809315403849,0.00986930249662765,0.0,0.021973203105432035,0.237304199223642,9.88504699870607
5140000000.0,21.78,0.006856373103863811,-0.00038341516087870425,0.0,-0.038063199353331995,0.31588299838333,9.905353299838332
5145000000.0,21.78,0.0074525559060157,-0.015609689561505668,0.0,0.076323598838136,0.364245599806356,9.94292599967726
5150000000.0,21.78,0.0022356907780913763,-0.025462684451058593,0.0,0.23740360052113602,0.276640599544006,9.970884200065143
5155000000.0,21.78,-0.005142339642644472,-0.023290655535454653,0.0,0.39279400207504006,0.10682899753588998,9.97000099987031
5160000000.0,21.78,-0.0052806355528594254,-0.02058649671579863,0.0,0.514829902494899,0.062391800453618,9.980301800453619
5165000000.0,21.78,0.005014647016148484,-0.02238580018259911,0.0,0.6085152029153521,0.19355320615463206,9.874842394493225
5170000000.0,21.78,0.017322861953010724,-0.0107800043079169,0.0,0.7347705063157051,0.3716046075788461,9.748588295368483
5175000000.0,21.78,0.015070819731631003,0.014437658292846666,0.0,0.6763977911911779,0.45076980155449803,9.629004193263842
5180000000.0,21.78,0.004215897226782235,0.04563860422759289,0.0,0.4924599876942999,0.35433548954015487,9.58437
5185000000.0,21.78,-0.0020122228846994462,0.05618457022260008,0.0,0.08190796081777962,0.25721759572557595,9.701797613535675
5190000000.0,21.78,-0.0025338580674801985,0.036243189791172484,0.0,-0.16029610566666105,0.21111079676190797,9.861994512142845
5195000000.0,21.78,-0.00018095779011634587,-0.0008453413430440822,0.0,-0.13851639274686392,0.21415260271992603,9.94783100453321
5200000000.0,21.78,0.0004258493758414034,-0.02599508734223625,0.0,0.056900828105308304,0.20208559598495596,9.896326787954868
5205000000.0,21.78,-0.000628154969977975,-0.0319569786040161,0.0,0.28253002201760025,0.19796600220176003,9.83187599669736
5210000000.0,21.78,0.002640399988768736,-0.02331185999488386,0.0,0.3914195059899951,0.31980802395998026,9.768600889218009
5215000000.0,21.78,0.007750702115317684,-0.01400760836411196,0.0,0.49030521813165223,0.41898540388535405,9.742703602590236
5220000000.0,21.78,0.005408349259442359,0.00021315024485069924,0.0,0.4724481805086818,0.36571558329315584,9.707190388862104
5225000000.0,21.78,-0.004311957074851542,0.019546129717519532,0.0,0.3796463910638639,0.15205195531931953,9.75359402234034
5230000000.0,21.78,-0.009006935112956433,0.028848220190134735,0.0,0.17304494605984946,-0.028057514278275145,9.8833800190377
5235000000.0,21.78,-0.003438722906374929,0.0179686308561382,0.0,0.06641461515234616,0.061315042089850405,10.025919828621099
5240000000.0,21.78,0.011039057461474901,-0.0036200337879471476,0.0,0.19463213027212128,0.29901124273711244,10.119603905342139
5245000000.0,21.78,0.01807388737593009,-0.009496597073906826,0.0,0.31470561502265615,0.4470424131448241,10.038669164321192
5250000000.0,21.78,0.0074611052981186764,-0.004258581240774888,0.0,0.3090140822254408,0.3874930624759306,9.94243489802505
5255000000.0,21.78,-0.004194790789757156,-0.0037156425221563593,0.0,0.2408349896396499,0.2510369813513698,9.90868798756758
5260000000.0,21.78,-0.005919425426686738,-0.013976807506131712,0.0,0.30058023904540243,0.14950317396973173,9.916341217353512
5265000000.0,21.78,-0.0012562214035909541,-0.017490661535595094,0.0,0.4016216045326161,0.06523598866845988,9.915652779603228
5270000000.0,21.78,0.003108802682063836,-0.0012560991390868099,0.0,0.43909621418056216,0.05729080945370809,9.91398702363427
5275000000.0,21.78,0.006654123371957556,0.011878788909585221,0.0,0.3958317581707176,0.16235744675037445,9.94488698769727
5280000000.0,21.78,0.011924145101054648,0.009421131295799152,0.0,0.29979349744233497,0.36846606138396065,9.922226502557665
5285000000.0,21.78,0.013989489804783395,-0.003971270196148006,0.0,0.3449208318574083,0.5087468053095681,9.910846389380865
5290000000.0,21.78,0.005174013527240699,-0.0039390408512615166,0.0,0.42026060550380606,0.39220061469100614,9.814314550465745
5295000000.0,21.78,-0.009695590329795962,0.01187818036894498,0.0,0.3511959430195595,0.11928713162347132,9.723966608547066
5300000000.0,21.78,-0.010869776328912999,0.019181112617187294,0.0,0.13733742634647428,0.039241544192115445,9.73740589705386
5305000000.0,21.78,0.003034422649383757,0.008506358764217532,0.0,0.05905805477868056,0.25378810042758104,9.74682401217304
5310000000.0,21.78,0.015614492158225501,-0.008055527135468851,0.0,0.21896064396530643,0.45126,9.781943709421137
5315000000.0,21.78,0.010391061015195725,-0.009677845786501382,0.0,0.3295186226624862,0.34599570611255703,9.78204098381251
5320000000.0,21.78,-0.009843758096550128,0.004130934990470044,0.0,0.266828899961489,0.13145296665382966,9.768798516673085
5325000000.0,21.78,-0.00964624376426705,0.005110189348083965,0.0,0.0990816205904162,0.16481089608860894,9.81735801715868
5330000000.0,21.78,0.006841138784230724,-0.009353759718147102,0.0,0.24741161645221615,0.3900470494039705,9.85591100705771
5335000000.0,21.78,0.011765303881538125,-0.0156831740015095,0.0,0.46107,0.40299231297662313,9.810586734732468
5340000000.0,21.78,-0.004647721822375158,-0.0005109085805533771,0.0,0.4108411404305114,0.16676740692267406,9.723673037230931
5345000000.0,21.78,-0.01833458220173232,0.005472237732864207,0.0,0.28586277707872776,0.027370834381908342,9.80558601910106
5350000000.0,21.78,-0.004684215599729754,-0.0008517883420522615,0.0,0.33648622143726226,0.17658311751993117,9.862974831338649
5355000000.0,21.78,0.01511258128447595,-0.0028531739540679836,0.0,0.5351349799277498,0.3740549879566499,9.93213502007225
5360000000.0,21.78,0.01568393283280226,0.012738472763634469,0.0,0.4453719177686192,0.31195643832646436,9.947731671219017
5365000000.0,21.78,-0.005121004486676383,0.030951245428275206,0.0,0.22199706953067067,0.20601,9.940670867339009
5370000000.0,21.78,-0.003023427276048145,0.0074735885627365915,0.0,0.028057747363877474,0.24682126889291267,10.027192252636121
5375000000.0,21.78,0.009848031634924667,-0.013046438319324727,0.0,0.15696208805852088,0.3580647911941479,9.94734
5380000000.0,21.78,0.0057914851091695335,-0.016919772280486453,0.0,0.3158825225002252,0.2797783784987838,9.921440450499505
5385000000.0,21.78,-0.010806262821856844,-0.004673737742527957,0.0,0.355416404597164,0.06494157241701572,9.859737641374476
5390000000.0,21.78,-0.00998618630855731,-0.00010652189520591162,0.0,0.3392286483628865,0.08005253143992533,9.921245085917151
5395000000.0,21.78,0.010586453982305833,-0.005600131674190301,0.0,0.3045049149936492,0.34786532457645325,9.904470614374207
5400000000.0,21.78,0.01960338998957954,-0.008942976021243441,0.0,0.4944242097770421,0.49638316800993176,9.917909475557396
5405000000.0,21.78,0.002445038814576499,0.0027290959231640647,0.0,0.47470390527283907,0.22297783547387837,9.86189395512924
5410000000.0,21.78,-0.021328495956518038,0.02171179306891004,0.0,0.2919437085103371,-0.01981504408965044,9.800975430496555
5415000000.0,21.78,-0.005192117935264981,0.011125430093831861,0.0,0.12880414302134144,0.15873147971341478,9.84090097410061
5420000000.0,21.78,0.026293013264629888,-0.004173568412254064,0.0,0.0926099794178998,0.59841,9.80646882110799
5425000000.0,21.78,0.01859256920397636,-0.012669184936966645,0.0,0.35806394625883947,0.5248297312941973,9.812941103265912
5430000000.0,21.78,-0.017292556494351803,-0.0010434379522525673,0.0,0.27330649452876493,0.08730741793147419,9.682079076597292
5435000000.0,21.78,-0.02752539535343595,-0.010223146356071204,0.0,0.27252243341012433,-0.0022532385177323755,9.804016216705064
5440000000.0,21.78,0.004175709371540579,-0.026077770544692586,0.0,0.35551725296777253,0.265264196313042,9.819024249010743
5445000000.0,21.78,0.017071033152584104,-0.004279689785808597,0.0,0.5864415884748159,0.3861190616977906,9.75212205762592
5450000000.0,21.78,-0.0011712423032092536,0.014481180810493252,0.0,0.5395468242086683,0.17756110585971105,9.830600047262601
5455000000.0,21.78,-0.009986217928687684,0.028869376165363985,0.0,0.26231791660437914,0.2075821429639214,9.75555502978415
5460000000.0,21.78,0.008220604553124376,0.018242752677859374,0.0,0.14047962421579624,0.43281868475528684,9.803329624215797
5465000000.0,21.78,0.01496360665147695,0.006334499716100843,0.0,0.18550847996388478,0.5275769170508692,9.845611255359612
5470000000.0,21.78,-0.013607435069776195,-0.008965488206326876,0.0,0.29704552502175524,0.09024881255438813,9.927131293751813
5475000000.0,21.78,-0.025887434362137193,-0.015507146342638861,0.0,0.194239701524897,-0.1716718096408181,9.91545696827347
5480000000.0,21.78,-0.010219545462535683,-0.006345307476662909,0.0,0.34609754509697543,0.12439527058185271,9.870822532212125
5485000000.0,21.78,0.025441269190760223,-0.005195449867626019,0.0,0.41643609809316096,0.51993,9.919087626158175
5490000000.0,21.78,0.020670983216018086,-0.0008303003554539739,0.0,0.5562254004500541,0.5116851212601512,9.955579546906696
5495000000.0,21.78,-0.010838528814992835,0.010870503090827615,0.0,0.41054689899326896,0.10692793266217933,9.878277173064872
5500000000.0,21.78,-0.029827305716986916,0.033021408970758066,0.0,0.26486871802918716,0.009812991265229913,9.839431709294416
5505000000.0,21.78,0.003918112109001871,0.012978047640421497,0.0,0.14832591686375918,0.28174619398456197,9.994822110848322
5510000000.0,21.78,0.026186466073319696,-0.0070482092728333424,0.0,0.08946655784916557,0.4671542334776424,9.957934371899444
5515000000.0,21.78,-0.002299447932938993,-0.010550724738234712,0.0,0.23102710683387107,0.2425006290658063,9.919086771510967
5520000000.0,21.78,-0.021608083913891702,-0.018839875358148843,0.0,0.32019936497439366,0.09417439170934391,9.908492292780622
5525000000.0,21.78,-0.0011185112778896236,-0.023226888272532577,0.0,0.4355652877979529,0.32128018291240185,9.842862748784528
5530000000.0,21.78,0.01803050839294079,-0.024440555304665375,0.0,0.5889941186178412,0.42575507413615077,9.83943
5535000000.0,21.78,-0.002618076228560494,0.007196191534822691,0.0,0.6257802225322023,0.2400484422745844,9.784689554935596
5540000000.0,21.78,-0.015049055595894175,0.01841332890530212,0.0,0.5195363087057631,0.05414915545079155,9.834721845647119
5545000000.0,21.78,0.002436701916661184,0.021118856392798112,0.0,0.2869398073756981,0.34276506196905066,9.75908513065525
5550000000.0,21.78,0.01673087849423894,0.008838195047477864,0.0,0.26487,0.5228748326355483,9.768798215604182
5555000000.0,21.78,0.0010450667172633397,0.0036623520624317427,0.0,0.24740798420157983,0.31254379462053794,9.82314604739526
5560000000.0,21.78,-0.021691908119249217,0.0050677614571473795,0.0,0.29704744797797444,-0.0003959638788596509,9.786455460018356
5565000000.0,21.78,-0.011521626629770732,0.016453534356608734,0.0,0.1163442219441422,0.08024731330827316,9.754965575719655
5570000000.0,21.78,0.01056159468505314,0.015354673210034623,0.0,0.08829,0.4186949112415491,9.827070373715104
5575000000.0,21.78,0.014745425937622481,-0.009528942359271333,0.0,0.18001469116454694,0.5209116497261165,9.897800258013802
5580000000.0,21.78,-0.008347168444638599,-0.017432395812504282,0.0,0.32804813415688133,0.27428424007104235,9.84217593292156
