#timestamp [ns], temperature [degC], w_RS_S_x [rad s^-1], w_RS_S_y [rad s^-1], w_RS_S_z [rad s^-1], a_RS_S_x [m s^-2], a_RS_S_y [m s^-2], a_RS_S_z [m s^-2]
0,22.35,0.0,0.0,0.0,-0.2943,-1.4813100000000001,9.72171
5050505,22.35,0.0,0.0,0.0,-0.2943,-1.46169,9.73152
10101010,22.35,0.0,0.0,0.0,-0.28449,-1.46169,9.69228
15151515,22.35,0.0,0.0,0.0,-0.27468000000000004,-1.45188,9.69228
20202020,22.35,0.0,0.0,0.0,-0.27468000000000004,-1.4715,9.70209
25252525,22.35,0.0,0.0,0.0,-0.28449,-1.45188,9.72171
30303030,22.35,0.0,0.0,0.0,-0.2943,-1.4715,9.67266
35353535,22.35,0.0,0.0,0.0,-0.28449,-1.49112,9.69228
40404040,22.35,0.0,0.0,0.0,-0.27468000000000004,-1.49112,9.751140000000001
45454545,22.35,0.0,0.0,0.0,-0.28449,-1.4715,9.74133
50505050,22.35,0.0,0.0,0.0,-0.2943,-1.4813100000000001,9.73152
55555555,22.35,0.0,0.0,0.0,-0.30411,-1.4715,9.74133
60606060,22.35,0.0,0.0,0.0,-0.2943,-1.4813100000000001,9.73152
65656565,22.35,0.0,0.0,0.0,-0.2943,-1.46169,9.70209
70707070,22.35,0.0,0.0,0.0,-0.28449,-1.4715,9.7119
75757575,22.35,0.0,0.0,0.0,-0.27468000000000004,-1.4715,9.7119
80808080,22.35,0.0,0.0,0.0,-0.27468000000000004,-1.4813100000000001,9.7119
85858585,22.35,0.0,0.0,0.0,-0.30411,-1.4715,9.7119
90909090,22.35,0.0,0.0,0.0,-0.28449,-1.4813100000000001,9.73152
95959595,22.35,0.0,0.0,0.0,-0.30411,-1.46169,9.73152
101010100,22.35,0.0,0.0,0.0,-0.2943,-1.45188,9.72171
106060605,22.35,0.0,0.0,0.0,-0.26487,-1.46169,9.73152
111111110,22.35,0.0,0.0,0.0,-0.28449,-1.49112,9.69228
116161615,22.35,0.0,0.0,0.0,-0.28449,-1.4813100000000001,9.70209
121212120,22.35,0.0,0.0,0.0,-0.27468000000000004,-1.45188,9.7119
126262625,22.35,0.0,0.0,0.0,-0.26487,-1.46169,9.69228
131313130,22.35,0.0,0.0,0.0,-0.31392000000000003,-1.52055,9.69228
136363635,22.35,0.0,0.0,0.0,-0.2943,-1.4715,9.7119
141414140,22.35,0.0,0.0,0.0,-0.27468000000000004,-1.45188,9.74133
146464645,22.35,0.0,0.0,0.0,-0.27468000000000004,-1.51074,9.73152
151515150,22.35,0.0,0.0,0.0,-0.27468000000000004,-1.46169,9.7119
156565655,22.35,0.0,0.0,0.0,-0.2943,-1.46169,9.72171
161616160,22.35,0.0,0.0,0.0,-0.28449,-1.49112,9.74133
166666665,22.35,0.0,0.0,0.0,-0.28449,-1.50093,9.7119
171717170,22.35,0.0,0.0,0.0,-0.28449,-1.4715,9.7119
176767675,22.35,0.0,0.0,0.0,-0.2943,-1.49112,9.70209
181818180,22.35,0.0,0.0,0.0,-0.27468000000000004,-1.46169,9.70209
186868685,22.35,0.0,0.0,0.0,-0.28449,-1.4715,9.70209
191919190,22.35,0.0,0.0,0.0,-0.30411,-1.4813100000000001,9.70209
196969695,22.35,0.0,0.0,0.0,-0.26487,-1.4813100000000001,9.73152
202020200,22.35,0.0,0.0,0.0,-0.28449,-1.4715,9.73152
207070705,22.35,0.0,0.0,0.0,-0.30411,-1.4813100000000001,9.7119
212121210,22.35,0.0,0.0,0.0,-0.28449,-1.49112,9.7119
217171715,22.35,0.0,0.0,0.0,-0.2943,-1.49112,9.74133
222222220,22.35,0.0,0.0,0.0,-0.28449,-1.4715,9.70209
227272725,22.35,0.0,0.0,0.0,-0.30411,-1.4813100000000001,9.68247
232323230,22.35,0.0,0.0,0.0,-0.27468000000000004,-1.45188,9.69228
237373735,22.35,0.0,0.0,0.0,-0.2943,-1.4715,9.7119
242424240,22.35,0.0,0.0,0.0,-0.28449,-1.4813100000000001,9.69228
247474745,22.35,0.0,0.0,0.0,-0.2943,-1.4715,9.7119
252525250,22.35,0.0,0.0,0.0,-0.27468000000000004,-1.44207,9.73152
257575755,22.35,0.0,0.0,0.0,-0.26487,-1.4715,9.73152
262626260,22.35,0.0,0.0,0.0,-0.31392000000000003,-1.50093,9.73152
267676765,22.35,0.0,0.0,0.0,-0.28449,-1.4715,9.7119
272727270,22.35,0.0,0.0,0.0,-0.30411,-1.4715,9.70209
277777775,22.35,0.0,0.0,0.0,-0.2943,-1.4715,9.68247
282828280,22.35,0.0,0.0,0.0,-0.26487,-1.49112,9.70209
287878785,22.35,0.0,0.0,0.0,-0.28449,-1.46169,9.7119
292929290,22.35,0.0,0.0,0.0,-0.2943,-1.51074,9.73152
297979795,22.35,0.0,0.0,0.0,-0.28449,-1.49112,9.73152
303030300,22.35,0.0,0.0,0.0,-0.28449,-1.46169,9.72171
308080805,22.35,0.0,0.0,0.0,-0.30411,-1.4715,9.72171
313131310,22.35,0.0,0.0,0.0,-0.27468000000000004,-1.46169,9.7119
318181815,22.35,0.0,0.0,0.0,-0.30411,-1.45188,9.7119
323232320,22.35,0.0,0.0,0.0,-0.30411,-1.4715,9.73152
328282825,22.35,0.0,0.0,0.0,-0.2943,-1.46169,9.69228
333333330,22.35,0.0,0.0,0.0,-0.28449,-1.4715,9.70209
338383835,22.35,0.0,0.0,0.0,-0.26487,-1.4715,9.68247
343434340,22.35,0.0,0.0,0.0,-0.27468000000000004,-1.46169,9.7119
348484845,22.35,0.0,0.0,0.0,-0.30411,-1.4813100000000001,9.751140000000001
353535350,22.35,0.0,0.0,0.0,-0.28449,-1.4715,9.73152
358585855,22.35,0.0,0.0,0.0,-0.30411,-1.4715,9.73152
363636360,22.35,0.0,0.0,0.0,-0.2943,-1.4813100000000001,9.73152
368686865,22.35,0.0,0.0,0.0,-0.28449,-1.46169,9.7119
373737370,22.35,0.0,0.0,0.0,-0.28449,-1.44207,9.72171
378787875,22.35,0.0,0.0,0.0,-0.30411,-1.46169,9.68247
383838380,22.35,0.0,0.0,0.0,-0.28449,-1.4813100000000001,9.72171
388888885,22.35,0.0,0.0,0.0,-0.28449,-1.4715,9.72171
393939390,22.35,0.0,0.0,0.0,-0.28449,-1.44207,9.70209
398989895,22.35,0.0,0.0,0.0,-0.28449,-1.49112,9.72171
404040400,22.35,0.0,0.0,0.0,-0.30411,-1.52055,9.74133
409090905,22.35,0.0,0.0,0.0,-0.2943,-1.45188,9.72171
414141410,22.35,0.0,0.0,0.0,-0.28449,-1.4715,9.72171
419191915,22.35,0.0,0.0,0.0,-0.28449,-1.50093,9.7119
424242420,22.35,0.0,0.0,0.0,-0.30411,-1.46169,9.7119
429292925,22.35,0.0,0.0,0.0,-0.28449,-1.44207,9.7119
434343430,22.35,0.0,0.0,0.0,-0.2943,-1.4715,9.70209
439393935,22.35,0.0,0.0,0.0,-0.2943,-1.49112,9.68247
444444440,22.35,0.0,0.0,0.0,-0.27468000000000004,-1.45188,9.7119
449494945,22.35,0.0,0.0,0.0,-0.27468000000000004,-1.4715,9.72171
454545450,22.35,0.0,0.0,0.0,-0.30411,-1.49112,9.73152
459595955,22.35,0.0,0.0,0.0,-0.2943,-1.45188,9.73152
464646460,22.35,0.0,0.0,0.0,-0.2943,-1.49112,9.73152
469696965,22.35,0.0,0.0,0.0,-0.28449,-1.4715,9.72171
474747470,22.35,0.0,0.0,0.0,-0.26487,-1.44207,9.73152
479797975,22.35,0.0,0.0,0.0,-0.27468000000000004,-1.52055,9.7119
484848480,22.35,0.0,0.0,0.0,-0.32373,-1.45188,9.74133
489898985,22.35,0.004258603374866164,-0.014905111812031574,0.0,-0.30411,-1.3341600000000002,9.770760000000001
494949490,22.35,-0.02982767691658309,-0.09800023749948161,-0.008517206749732328,0.65727,-1.8737100000000002,9.97677
499999995,22.35,-0.014905111812031574,-0.02556907354171693,-0.007452555906015787,1.24587,-1.6677000000000002,9.87867
505050500,22.35,0.02982767691658309,0.09587093581204853,-0.003193952531149623,0.25506,-1.79523,9.79038
510101005,22.35,0.05113814708343386,0.17151350559348277,0.007452555906015787,-0.94176,-1.39302,9.67266
515151510,22.35,0.09906488834319814,0.10759954838545042,0.007452555906015787,-2.03067,-0.49050000000000005,9.65304
520202015,22.35,0.004258603374866164,-0.07030186227033158,0.0,-1.3734000000000002,-0.74556,9.79038
525252520,22.35,-0.09267698328089889,-0.15872024217636432,-0.002129301687433082,-0.47088,-2.86452,9.74133
530303025,22.35,-0.11505210429146619,-0.1352804703220805,-0.004258603374866164,0.59841,-1.80504,10.025820000000001
535353530,22.35,0.05539675045830002,-0.044732788728614664,-0.003193952531149623,1.70694,-1.3243500000000001,10.006200000000002
540404035,22.35,0.03621558197888234,0.11079350091660004,0.003193952531149623,1.1183400000000001,-1.5303600000000002,9.162540000000002
545454540,22.35,0.03515093113516579,0.18854791909294744,0.006387905062299246,-0.8240400000000001,-1.72656,9.70209
550505045,22.35,0.05220279792715039,0.07670722062515077,0.006387905062299246,-1.75599,-0.7651800000000001,10.006200000000002
555555550,22.35,0.05326744877086694,-0.06604325889546543,0.0,-1.13796,-0.60822,9.72171
560606055,22.35,-0.07670722062515077,-0.13208651779093086,-0.004258603374866164,-0.22563,-2.6781300000000003,9.6138
565656560,22.35,-0.05965535383316618,-0.1097288500728835,-0.002129301687433082,0.24525000000000002,-1.71675,9.84924
570707065,22.35,0.06284930636431581,0.01811651763570114,0.0,0.46107000000000004,-1.26549,10.163160000000001
575757570,22.35,0.04260348704118158,0.08841837990603273,0.006387905062299246,0.16677000000000003,-1.44207,9.24102
580808075,22.35,0.024504422698000388,0.10438814256178083,0.004258603374866164,-1.03986,-1.4813100000000001,9.819809999999999
585858580,22.35,0.011711159280881954,-0.014905111812031574,-0.002129301687433082,-1.2753,-1.22625,10.24164
590909085,22.35,0.013840460968315033,-0.08948303074974927,-0.002129301687433082,-0.37278,-1.2851100000000002,9.86886
595959590,22.35,-0.03089232776029963,-0.07670722062515077,-0.003193952531149623,0.31392000000000003,-1.95219,9.69228
601010095,22.35,0.003193952531149623,-0.015987215948268057,0.0,0.52974,-1.5303600000000002,9.760950000000001
606060600,22.35,0.05539675045830002,0.04581489286485115,0.0,0.28449,-1.26549,9.72171
611111105,22.35,0.02769837522915001,0.08309512568745003,0.002129301687433082,-0.25506,-1.54017,9.70209
616161610,22.35,0.0170518667919846,0.05326744877086694,0.0,-0.89271,-1.51074,9.908100000000001
621212115,22.35,0.031956978604016174,-0.01918116847941768,-0.001064650843716541,-0.9123300000000001,-1.1183400000000001,9.99639
626262620,22.35,0.020245819323134222,-0.06391395720803235,-0.005323254218582705,-0.34335000000000004,-1.3537800000000002,9.73152
631313125,22.35,-0.013840460968315033,-0.044732788728614664,-0.003193952531149623,0.12753,-1.71675,9.57456
636363630,22.35,0.01064650843716541,-0.011711159280881954,0.0,0.07848000000000001,-1.5696,9.65304
641414135,22.35,0.04153883619746504,-0.003193952531149623,0.001064650843716541,0.20601000000000003,-1.1772,9.74133
646464640,22.35,0.04581489286485115,0.04794419455228423,0.001064650843716541,0.039240000000000004,-1.49112,9.67266
651515145,22.35,0.020245819323134222,0.08203047484373349,0.003193952531149623,-0.73575,-1.6480800000000002,9.770760000000001
656565650,22.35,0.03515093113516579,0.023439771854283843,0.005323254218582705,-1.26549,-1.15758,9.95715
661616155,22.35,0.04366813788489812,-0.06178465552059926,-0.004258603374866164,-0.7651800000000001,-0.84366,9.68247
666666660,22.35,-0.022375121010567305,-0.1097288500728835,-0.004258603374866164,0.18639,-2.0601,9.751140000000001
671717165,22.35,-0.00958185759344887,-0.046879543708567686,0.0,0.60822,-1.78542,9.79038
676767670,22.35,0.04581489286485115,0.04260348704118158,0.001064650843716541,0.32373,-1.21644,9.819809999999999
681818175,22.35,0.0852244273748831,0.08203047484373349,0.005323254218582705,-0.12753,-1.34397,9.633420000000001
686868680,22.35,0.05752605214573309,0.08628907821859966,0.002129301687433082,-0.8829,-1.34397,9.7119
691919185,22.35,0.01811651763570114,0.006387905062299246,0.0,-1.41264,-0.95157,9.96696
696969690,22.35,0.005323254218582705,-0.1374272253020335,-0.005323254218582705,-0.5886,-1.65789,9.85905
702020195,22.35,-0.013840460968315033,-0.11079350091660004,-0.004258603374866164,1.06929,-1.9718100000000003,9.7119
707070700,22.35,0.039409534510031964,0.0756251164889143,0.004258603374866164,0.52974,-1.6382700000000001,9.85905
712121205,22.35,0.08203047484373349,0.12995721610349775,0.008517206749732328,-0.65727,-1.1772,9.65304
717171710,22.35,0.10225884087434776,0.049008845396000776,0.003193952531149623,-0.9613800000000001,-0.59841,9.79038
722222215,22.35,0.020245819323134222,-0.039409534510031964,-0.003193952531149623,-0.79461,-1.70694,10.03563
727272720,22.35,-0.05752605214573309,-0.10866419922916695,-0.002129301687433082,-0.06867000000000001,-1.9914300000000003,9.99639
732323225,22.35,0.060720004676882725,-0.04581489286485115,-0.002129301687433082,0.02943,-1.10853,9.81
737373730,22.35,0.05007349623971732,0.028763026072866547,0.001064650843716541,0.23544,-1.29492,9.39798
742424235,22.35,0.03834488366631542,0.05220279792715039,0.0,-0.28449,-1.40283,9.58437
747474740,22.35,0.03089232776029963,-0.021310470166850764,0.0,-0.47088,-1.50093,10.01601
752525245,22.35,0.05646140130201656,-0.015987215948268057,-0.001064650843716541,-0.02943,-1.20663,9.78057
757575750,22.35,0.04153883619746504,0.03621558197888234,0.001064650843716541,-0.2943,-1.5696,9.73152
762626255,22.35,0.03408628029144926,0.008517206749732328,0.002129301687433082,-0.75537,-1.16739,9.73152
767676760,22.35,0.05539675045830002,-0.046879543708567686,0.001064650843716541,-0.31392000000000003,-1.2851100000000002,9.819809999999999
772727265,22.35,0.021310470166850764,-0.03834488366631542,-0.003193952531149623,0.23544,-1.75599,9.819809999999999
777777770,22.35,0.04153883619746504,0.03621558197888234,-0.001064650843716541,0.0,-1.52055,10.006200000000002
782828275,22.35,0.07456046564519776,0.044732788728614664,0.003193952531149623,-0.5591700000000001,-0.9711900000000001,9.84924
787878780,22.35,0.05646140130201656,-0.022375121010567305,-0.003193952531149623,-0.35316,-1.29492,9.83943
792929285,22.35,0.01811651763570114,-0.03515093113516579,-0.005323254218582705,0.0,-1.7756100000000001,9.937529999999999
797979790,22.35,0.04153883619746504,0.01918116847941768,-0.003193952531149623,-0.20601000000000003,-1.26549,9.888480000000001
803030295,22.35,0.07883652231258387,0.02663372438543347,-0.001064650843716541,-0.46107000000000004,-1.01043,9.70209
808080800,22.35,0.05113814708343386,-0.00958185759344887,0.0,-0.3924,-1.29492,9.54513
813131305,22.35,0.021310470166850764,-0.028763026072866547,-0.003193952531149623,-0.17658,-1.71675,9.908100000000001
818181810,22.35,0.05965535383316618,0.006387905062299246,0.0,-0.08829,-1.1281500000000002,9.85905
823232315,22.35,0.07136651311404815,0.021310470166850764,0.0,-0.28449,-1.1183400000000001,9.68247
828282820,22.35,0.04581489286485115,0.003193952531149623,-0.001064650843716541,-0.42183,-1.4813100000000001,9.69228
833333325,22.35,0.039409534510031964,-0.02663372438543347,-0.002129301687433082,-0.21582,-1.52055,10.045440000000001
838383830,22.35,0.0756251164889143,0.001064650843716541,-0.001064650843716541,-0.10791,-1.06929,10.025820000000001
843434335,22.35,0.06178465552059926,0.024504422698000388,0.002129301687433082,-0.27468000000000004,-1.19682,9.66285
848484840,22.35,0.046879543708567686,-0.006387905062299246,0.0,-0.46107000000000004,-1.4813100000000001,9.72171
853535345,22.35,0.054332099614583476,-0.0170518667919846,-0.002129301687433082,-0.22563,-1.3243500000000001,9.96696
858585850,22.35,0.0756251164889143,-0.002129301687433082,0.0,-0.15696000000000002,-1.0987200000000001,9.96696
863636355,22.35,0.05220279792715039,0.01064650843716541,0.0,-0.11772,-1.29492,9.6138
868686860,22.35,0.05965535383316618,0.002129301687433082,0.001064650843716541,-0.33354000000000006,-1.49112,9.760950000000001
873737365,22.35,0.06391395720803235,-0.002129301687433082,-0.003193952531149623,-0.34335000000000004,-1.1477700000000002,9.99639
878787870,22.35,0.07777187146886733,-0.004258603374866164,-0.001064650843716541,-0.23544,-0.9908100000000001,9.908100000000001
883838375,22.35,0.05539675045830002,-0.005323254218582705,0.0,-0.25506,-1.41264,9.60399
888888880,22.35,0.05220279792715039,0.011711159280881954,0.0,-0.36297,-1.3635900000000003,9.74133
893939385,22.35,0.07243116395776468,-0.01811651763570114,0.001064650843716541,-0.28449,-1.08891,9.94734
898989890,22.35,0.08203047484373349,-0.022375121010567305,0.0,0.10791,-1.08891,9.81
904040395,22.35,0.06284930636431581,0.02982767691658309,-0.001064650843716541,-0.10791,-1.4813100000000001,9.7119
909090900,22.35,0.05859070298944965,0.028763026072866547,0.002129301687433082,-0.5886,-1.3243500000000001,9.888480000000001
914141405,22.35,0.09054768159346581,-0.0170518667919846,-0.001064650843716541,-0.50031,-0.8338500000000001,9.99639
919191910,22.35,0.07990117315630041,-0.0170518667919846,-0.002129301687433082,-0.12753,-1.10853,9.78057
924242415,22.35,0.04260348704118158,0.001064650843716541,0.0,-0.21582,-1.5499800000000001,9.66285
929292920,22.35,0.05859070298944965,-0.013840460968315033,0.001064650843716541,-0.34335000000000004,-1.22625,9.819809999999999
934343425,22.35,0.10332349171806432,-0.021310470166850764,-0.002129301687433082,0.019620000000000002,-0.9221400000000001,9.937529999999999
939393930,22.35,0.08628907821859966,0.02769837522915001,0.001064650843716541,0.06867000000000001,-1.2851100000000002,9.82962
944444435,22.35,0.054332099614583476,0.04153883619746504,-0.001064650843716541,-0.5886,-1.31454,9.83943
949494940,22.35,0.0852244273748831,-0.013840460968315033,0.0,-0.69651,-0.9221400000000001,9.84924
954545445,22.35,0.09267698328089889,-0.02982767691658309,-0.001064650843716541,-0.20601000000000003,-1.03986,9.819809999999999
959595950,22.35,0.05113814708343386,-0.00958185759344887,0.0,-0.039240000000000004,-1.54017,9.83943
964646455,22.35,0.06710790973918197,0.001064650843716541,0.0,-0.23544,-1.1183400000000001,9.83943
969696960,22.35,0.09906488834319814,0.0,-0.003193952531149623,-0.0981,-1.03005,9.82962
974747465,22.35,0.08203047484373349,0.0170518667919846,-0.001064650843716541,-0.12753,-1.24587,9.888480000000001
979797970,22.35,0.06923721142661506,0.033021629447732716,0.0,-0.5591700000000001,-1.1870100000000001,9.89829
984848475,22.35,0.10012953918691468,0.006387905062299246,0.0,-0.6670800000000001,-0.6768900000000001,9.73152
989898980,22.35,0.0852244273748831,-0.04581489286485115,0.0,-0.28449,-1.3243500000000001,9.80019
994949485,22.35,0.02663372438543347,-0.03834488366631542,-0.004258603374866164,0.13734000000000002,-1.41264,9.97677
999999990,22.35,0.10119419003063122,0.002129301687433082,0.0,0.10791,-0.94176,10.01601
1005050495,22.35,0.09693558665576507,0.02769837522915001,-0.001064650843716541,0.02943,-1.01043,9.64323
1010101000,22.35,0.09587093581204853,0.06284930636431581,0.003193952531149623,-0.44145,-1.0987200000000001,9.69228
1015151505,22.35,0.08841837990603273,0.02663372438543347,0.003193952531149623,-0.9221400000000001,-1.13796,10.006200000000002
1020202010,22.35,0.09267698328089889,-0.03515093113516579,-0.003193952531149623,-0.60822,-0.6180300000000001,9.91791
1025252515,22.35,0.07243116395776468,-0.05752605214573309,-0.005323254218582705,-0.20601000000000003,-1.2360600000000002,9.819809999999999
1030303020,22.35,0.04794419455228423,-0.028763026072866547,-0.004258603374866164,0.15696000000000002,-1.3734000000000002,9.74133
1035353525,22.35,0.09906488834319814,0.021310470166850764,0.0,0.0,-0.9319500000000001,9.937529999999999
1040404030,22.35,0.11398745344774965,0.02982767691658309,0.0,-0.22563,-0.85347,9.7119
1045454535,22.35,0.11185815176031658,0.04366813788489812,0.0,-0.37278,-0.90252,9.65304
1050505040,22.35,0.06923721142661506,0.00958185759344887,0.0,-0.7749900000000001,-1.05948,9.96696
1055555545,22.35,0.08096582400001695,-0.05007349623971732,-0.002129301687433082,-0.51012,-0.86328,9.937529999999999
1060606050,22.35,0.09374163412461543,-0.04366813788489812,-0.005323254218582705,-0.05886,-0.9711900000000001,9.78057
1065656555,22.35,0.06710790973918197,-0.001064650843716541,-0.001064650843716541,0.039240000000000004,-1.29492,9.73152
1070707060,22.35,0.09374163412461543,0.01918116847941768,-0.001064650843716541,-0.23544,-0.89271,9.85905
1075757565,22.35,0.1278279144160647,0.021310470166850764,0.0,-0.34335000000000004,-0.73575,9.89829
1080808070,22.35,0.10759954838545042,0.015987215948268057,0.0,-0.26487,-0.80442,9.770760000000001
1085858575,22.35,0.07456046564519776,0.011711159280881954,0.0,-0.52974,-0.94176,9.7119
1090909080,22.35,0.0852244273748831,-0.02663372438543347,-0.002129301687433082,-0.56898,-1.03005,9.770760000000001
1095959585,22.35,0.07243116395776468,-0.0404741853537485,-0.007452555906015787,-0.04905,-1.03005,9.94734
1101010090,22.35,0.09800023749948161,0.002129301687433082,-0.002129301687433082,-0.039240000000000004,-0.84366,9.92772
1106060595,22.35,0.10119419003063122,0.01918116847941768,0.0,-0.25506,-0.86328,9.760950000000001
1111111100,22.35,0.09480628496833199,0.004258603374866164,0.0,-0.20601000000000003,-0.87309,9.819809999999999
1116161605,22.35,0.09480628496833199,0.003193952531149623,-0.002129301687433082,-0.32373,-0.94176,9.96696
1121212110,22.35,0.10012953918691468,-0.005323254218582705,-0.002129301687433082,-0.30411,-0.9319500000000001,9.86886
1126262615,22.35,0.10759954838545042,0.01918116847941768,0.0,-0.2943,-0.6768900000000001,9.78057
1131313120,22.35,0.10225884087434776,0.0,0.0,-0.38259000000000004,-0.8338500000000001,9.91791
1136363625,22.35,0.09267698328089889,-0.01918116847941768,-0.004258603374866164,-0.35316,-0.9319500000000001,9.85905
1141414130,22.35,0.09374163412461543,-0.00958185759344887,-0.001064650843716541,-0.25506,-0.8338500000000001,9.82962
1146464635,22.35,0.09906488834319814,-0.01064650843716541,-0.002129301687433082,-0.06867000000000001,-0.90252,9.84924
1151515140,22.35,0.10866419922916695,0.021310470166850764,-0.004258603374866164,-0.25506,-0.6867000000000001,9.70209
1156565645,22.35,0.11292280260403312,0.013840460968315033,0.0,-0.33354000000000006,-0.86328,9.78057
1161616150,22.35,0.09587093581204853,0.00958185759344887,-0.002129301687433082,-0.2943,-0.70632,9.85905
1166666655,22.35,0.11079350091660004,-0.003193952531149623,-0.001064650843716541,-0.51993,-0.5886,9.81
1171717160,22.35,0.10119419003063122,-0.031956978604016174,-0.003193952531149623,-0.1962,-0.80442,9.66285
1176767665,22.35,0.08309512568745003,0.012775810124598492,0.0,-0.08829,-1.00062,9.85905
1181818170,22.35,0.08841837990603273,0.001064650843716541,-0.001064650843716541,-0.52974,-0.8142300000000001,10.01601
1186868675,22.35,0.12995721610349775,-0.012775810124598492,-0.002129301687433082,-0.16677000000000003,-0.51012,9.78057
1191919180,22.35,0.1171814059788993,0.022375121010567305,-0.001064650843716541,-0.06867000000000001,-0.65727,9.81
1196969685,22.35,0.08309512568745003,0.01811651763570114,0.0,-0.5591700000000001,-0.9711900000000001,9.95715
1202020190,22.35,0.09693558665576507,-0.021310470166850764,-0.004258603374866164,-0.43164,-0.63765,9.87867
1207070695,22.35,0.13421581947836395,-0.007452555906015787,0.0,-0.21582,-0.44145,9.82962
1212121200,22.35,0.09161233243718235,0.0,0.0,-0.14715,-0.85347,9.82962
1217171705,22.35,0.09693558665576507,0.014905111812031574,-0.001064650843716541,-0.33354000000000006,-0.8142300000000001,9.78057
1222222210,22.35,0.11824605682261582,0.0,-0.003193952531149623,-0.45126,-0.47088,9.89829
1227272715,22.35,0.12037535851004891,-0.01811651763570114,-0.004258603374866164,-0.16677000000000003,-0.48069000000000006,9.81
1232323220,22.35,0.10119419003063122,0.01064650843716541,0.0,-0.14715,-0.74556,9.69228
1237373725,22.35,0.09161233243718235,0.0170518667919846,0.0,-0.37278,-0.79461,9.89829
1242424230,22.35,0.11292280260403312,-0.007452555906015787,-0.001064650843716541,-0.51993,-0.48069000000000006,9.937529999999999
1247474735,22.35,0.1331511686346474,-0.00958185759344887,-0.002129301687433082,-0.22563,-0.44145,9.7119
1252525240,22.35,0.09906488834319814,0.0170518667919846,0.001064650843716541,-0.24525000000000002,-0.72594,9.751140000000001
1257575745,22.35,0.08096582400001695,0.0,-0.002129301687433082,-0.52974,-0.6670800000000001,9.98658
1262626250,22.35,0.11931070766633237,-0.028763026072866547,-0.004258603374866164,-0.34335000000000004,-0.52974,9.86886
1267676755,22.35,0.11611675513518273,0.001064650843716541,-0.001064650843716541,-0.04905,-0.57879,9.80019
1272727260,22.35,0.10012953918691468,0.024504422698000388,0.001064650843716541,-0.42183,-0.6278400000000001,9.82962
1277777765,22.35,0.11931070766633237,-0.003193952531149623,0.0,-0.45126,-0.5395500000000001,9.82962
1282828270,22.35,0.12356931104119852,0.004258603374866164,0.0,-0.21582,-0.36297,9.86886
1287878775,22.35,0.11292280260403312,-0.002129301687433082,-0.003193952531149623,-0.33354000000000006,-0.50031,9.84924
1292929280,22.35,0.09480628496833199,-0.01918116847941768,-0.003193952531149623,-0.24525000000000002,-0.7651800000000001,9.68247
1297979785,22.35,0.10866419922916695,0.023439771854283843,0.0,-0.31392000000000003,-0.47088,9.819809999999999
1303030290,22.35,0.12250466019748199,0.001064650843716541,-0.004258603374866164,-0.51993,-0.2943,9.99639
1308080795,22.35,0.11824605682261582,-0.01811651763570114,-0.005323254218582705,-0.13734000000000002,-0.46107000000000004,9.70209
1313131300,22.35,0.10332349171806432,0.021310470166850764,0.0,-0.33354000000000006,-0.5493600000000001,9.760950000000001
1318181805,22.35,0.09480628496833199,0.0,-0.001064650843716541,-0.52974,-0.45126,9.96696
1323232310,22.35,0.12356931104119852,-0.033021629447732716,-0.004258603374866164,-0.25506,-0.26487,9.819809999999999
1328282815,22.35,0.11292280260403312,0.005323254218582705,-0.002129301687433082,-0.039240000000000004,-0.48069000000000006,9.70209
1333333320,22.35,0.09906488834319814,0.02769837522915001,0.002129301687433082,-0.41202000000000005,-0.6180300000000001,9.82962
1338383825,22.35,0.11611675513518273,0.001064650843716541,0.0,-0.63765,-0.32373,9.87867
1343434330,22.35,0.1374272253020335,-0.014905111812031574,-0.002129301687433082,-0.20601000000000003,-0.06867000000000001,9.819809999999999
1348484835,22.35,0.10438814256178083,0.005323254218582705,-0.002129301687433082,-0.18639,-0.51993,9.87867
1353535340,22.35,0.07670722062515077,0.0,-0.002129301687433082,-0.46107000000000004,-0.5886,9.819809999999999
1358585845,22.35,0.11292280260403312,-0.024504422698000388,-0.001064650843716541,-0.37278,-0.11772,9.74133
1363636350,22.35,0.1278279144160647,-0.01064650843716541,-0.004258603374866164,0.17658,-0.38259000000000004,9.91791
1368686855,22.35,0.10866419922916695,0.05539675045830002,0.0,-0.30411,-0.63765,9.81
1373737360,22.35,0.11505210429146619,0.024504422698000388,0.003193952531149623,-0.8338500000000001,-0.08829,9.81
1378787865,22.35,0.14275047952061623,-0.028763026072866547,-0.004258603374866164,-0.34335000000000004,0.12753,9.888480000000001
1383838370,22.35,0.10225884087434776,-0.013840460968315033,-0.002129301687433082,-0.019620000000000002,-0.63765,9.908100000000001
1388888875,22.35,0.06284930636431581,0.0170518667919846,0.0,-0.56898,-0.57879,9.80019
1393939380,22.35,0.11611675513518273,-0.04260348704118158,-0.001064650843716541,-0.5395500000000001,0.04905,9.908100000000001
1398989885,22.35,0.13955652698946658,-0.04153883619746504,-0.008517206749732328,0.33354000000000006,-0.25506,9.770760000000001
1404040390,22.35,0.10438814256178083,0.07777187146886733,0.0,-0.06867000000000001,-0.69651,9.70209
1409090895,22.35,0.10653489754173388,0.05859070298944965,0.001064650843716541,-1.00062,-0.08829,9.888480000000001
1414141400,22.35,0.16084954386379738,-0.03515093113516579,-0.005323254218582705,-0.51993,0.3924,9.819809999999999
1419191905,22.35,0.1171814059788993,-0.02769837522915001,-0.002129301687433082,0.019620000000000002,-0.31392000000000003,9.70209
1424242410,22.35,0.04260348704118158,0.01064650843716541,0.0,-0.40221,-0.84366,9.89829
1429292915,22.35,0.10332349171806432,-0.014905111812031574,0.0,-0.72594,-0.06867000000000001,9.98658
1434343420,22.35,0.16084954386379738,-0.0404741853537485,0.0,-0.019620000000000002,0.31392000000000003,9.69228
1439393925,22.35,0.10545279340549739,0.006387905062299246,-0.001064650843716541,0.34335000000000004,-0.5395500000000001,9.72171
1444444430,22.35,0.07777187146886733,0.07243116395776468,0.0,-0.51012,-0.71613,9.94734
1449494935,22.35,0.150203035426632,0.0404741853537485,0.001064650843716541,-1.05948,0.34335000000000004,9.888480000000001
1454545440,22.35,0.1704488547497662,-0.02556907354171693,-0.002129301687433082,-0.44145,0.60822,9.7119
1459595945,22.35,0.07243116395776468,-0.04581489286485115,-0.003193952531149623,-0.019620000000000002,-0.5493600000000001,9.78057
1464646450,22.35,0.028763026072866547,-0.011711159280881954,-0.002129301687433082,-0.40221,-0.85347,9.94734
1469696955,22.35,0.12144000935376545,-0.005323254218582705,0.0,-0.5395500000000001,0.08829,9.95715
1474747460,22.35,0.17257815643719931,-0.012775810124598492,0.0,-0.05886,0.3924,9.69228
1479797965,22.35,0.1097288500728835,0.014905111812031574,0.001064650843716541,0.039240000000000004,-0.16677000000000003,9.60399
1484848470,22.35,0.07670722062515077,0.021310470166850764,-0.001064650843716541,-0.36297,-0.56898,9.95715
1489898975,22.35,0.12037535851004891,0.02663372438543347,0.0,-0.60822,-0.039240000000000004,9.95715
1494949480,22.35,0.15978489302008084,0.03728023282259888,0.001064650843716541,-0.69651,0.51012,9.7119
1499999985,22.35,0.1171814059788993,-0.0170518667919846,0.0,-0.63765,0.28449,9.73152
1505050490,22.35,0.05007349623971732,-0.08415977653116657,-0.003193952531149623,-0.24525000000000002,-0.35316,9.84924
1510100995,22.35,0.05646140130201656,-0.05220279792715039,-0.003193952531149623,0.009810000000000001,-0.46107000000000004,9.888480000000001
1515151500,22.35,0.11185815176031658,0.01918116847941768,0.0,-0.019620000000000002,-0.2943,9.86886
1520202005,22.35,0.15126768627034853,0.05965535383316618,0.0,-0.26487,0.13734000000000002,9.80019
1525252510,22.35,0.16831955306233315,0.07243116395776468,0.0,-0.5591700000000001,0.48069000000000006,9.81
1530303015,22.35,0.12995721610349775,0.024504422698000388,0.0,-0.74556,0.35316,9.84924
1535353520,22.35,0.06923721142661506,-0.04581489286485115,-0.002129301687433082,-0.64746,-0.06867000000000001,9.73152
1540404025,22.35,0.04366813788489812,-0.09480628496833199,-0.005323254218582705,-0.30411,-0.35316,9.908100000000001
1545454530,22.35,0.08735372906231618,-0.049008845396000776,-0.001064650843716541,0.21582,-0.2943,9.94734
1550505035,22.35,0.13421581947836395,0.05007349623971732,0.003193952531149623,0.039240000000000004,-0.07848000000000001,9.82962
1555555540,22.35,0.16510814723866357,0.11505210429146619,0.003193952531149623,-0.6278400000000001,0.57879,9.633420000000001
1560606045,22.35,0.15659094048893124,0.044732788728614664,0.002129301687433082,-1.02024,0.73575,9.80019
1565656550,22.35,0.08415977653116657,-0.06497860805174888,0.0,-0.80442,0.28449,9.86886
1570707055,22.35,0.046879543708567686,-0.09267698328089889,-0.003193952531149623,-0.04905,-0.26487,9.92772
1575757560,22.35,0.033021629447732716,-0.05326744877086694,-0.003193952531149623,-0.08829,-0.50031,9.97677
1580808065,22.35,0.1171814059788993,-0.005323254218582705,-0.002129301687433082,0.04905,-0.11772,9.819809999999999
1585858570,22.35,0.17470745812463237,0.07030186227033158,0.002129301687433082,0.039240000000000004,0.38259000000000004,9.85905
1590909075,22.35,0.1757721089683489,0.13421581947836395,0.004258603374866164,-0.52974,0.5886,9.68247
1595959580,22.35,0.13102186694721432,0.06391395720803235,0.003193952531149623,-1.34397,0.51993,9.50589
1601010085,22.35,0.08096582400001695,-0.060720004676882725,-0.001064650843716541,-0.9908100000000001,0.25506,9.623610000000001
1606060590,22.35,0.03621558197888234,-0.11505210429146619,-0.005323254218582705,-0.37278,0.11772,9.94734
1611111095,22.35,0.04260348704118158,-0.10438814256178083,-0.004258603374866164,0.1962,-0.32373,9.98658
1616161600,22.35,0.08096582400001695,-0.01811651763570114,-0.004258603374866164,0.46107000000000004,-0.16677000000000003,9.69228
1621212105,22.35,0.1288925652597812,0.06178465552059926,0.0,0.11772,0.04905,9.91791
1626262610,22.35,0.17364280728091586,0.08628907821859966,0.0,-0.25506,0.63765,9.888480000000001
1631313115,22.35,0.16831955306233315,0.09267698328089889,0.001064650843716541,-0.57879,0.6670800000000001,9.73152
1636363620,22.35,0.09161233243718235,0.044732788728614664,0.0,-0.94176,0.47088,9.48627
1641414125,22.35,0.06497860805174888,-0.04581489286485115,-0.001064650843716541,-1.1281500000000002,0.14715,9.72171
1646464630,22.35,0.060720004676882725,-0.10545279340549739,-0.004258603374866164,-0.47088,0.18639,9.87867
1651515135,22.35,0.07670722062515077,-0.05539675045830002,-0.001064650843716541,0.20601000000000003,0.16677000000000003,9.84924
1656565640,22.35,0.0852244273748831,0.003193952531149623,-0.001064650843716541,0.02943,-0.07848000000000001,9.633420000000001
1661616145,22.35,0.11185815176031658,0.04153883619746504,0.0,-0.23544,0.1962,9.70209
1666666650,22.35,0.13849187614575004,0.039409534510031964,0.002129301687433082,-0.43164,0.6768900000000001,10.006200000000002
1671717155,22.35,0.12676326357234816,0.014905111812031574,0.0,-0.31392000000000003,0.5493600000000001,9.81
1676767660,22.35,0.09054768159346581,0.011711159280881954,0.0,-0.51012,0.24525000000000002,9.54513
1681818165,22.35,0.05326744877086694,-0.020245819323134222,0.0,-0.70632,0.019620000000000002,9.819809999999999
1686868670,22.35,0.08628907821859966,-0.04794419455228423,-0.001064650843716541,-0.35316,0.41202000000000005,10.05525
1691919175,22.35,0.11185815176031658,-0.02556907354171693,-0.004258603374866164,0.02943,0.48069000000000006,9.79038
1696969680,22.35,0.08948303074974927,0.02769837522915001,-0.001064650843716541,-0.07848000000000001,0.30411,9.53532
1702020185,22.35,0.08948303074974927,0.02982767691658309,0.0,-0.45126,0.1962,9.72171
1707070690,22.35,0.09800023749948161,0.004258603374866164,-0.003193952531149623,-0.46107000000000004,0.38259000000000004,9.92772
1712121195,22.35,0.1097288500728835,0.001064650843716541,0.0,-0.31392000000000003,0.7848,9.78057
1717171700,22.35,0.09374163412461543,0.0,0.0,-0.22563,0.52974,9.57456
1722222205,22.35,0.05752605214573309,-0.005323254218582705,0.0,-0.37278,0.0,9.60399
1727272710,22.35,0.06923721142661506,-0.002129301687433082,0.0,-0.51012,0.27468000000000004,9.89829
1732323215,22.35,0.11292280260403312,-0.012775810124598492,-0.002129301687433082,-0.33354000000000006,0.60822,9.937529999999999
1737373720,22.35,0.10225884087434776,0.011711159280881954,-0.002129301687433082,-0.16677000000000003,0.44145,9.67266
1742424225,22.35,0.08628907821859966,0.044732788728614664,0.001064650843716541,-0.60822,0.33354000000000006,9.760950000000001
1747474730,22.35,0.08415977653116657,-0.003193952531149623,-0.002129301687433082,-0.7848,0.41202000000000005,10.025820000000001
1752525235,22.35,0.09800023749948161,-0.01811651763570114,0.0,-0.51012,0.71613,9.84924
1757575740,22.35,0.08203047484373349,-0.02663372438543347,-0.001064650843716541,-0.30411,0.51993,9.7119
1762626245,22.35,0.05752605214573309,-0.023439771854283843,0.0,-0.18639,0.24525000000000002,9.65304
1767676750,22.35,0.07243116395776468,-0.003193952531149623,0.0,-0.20601000000000003,0.38259000000000004,9.751140000000001
1772727255,22.35,0.10332349171806432,0.00958185759344887,0.0,-0.21582,0.70632,9.760950000000001
1777777760,22.35,0.09693558665576507,0.005323254218582705,0.0,-0.039240000000000004,0.5493600000000001,9.58437
1782828265,22.35,0.07777187146886733,0.03515093113516579,0.0,-0.41202000000000005,0.41202000000000005,9.623610000000001
1787878770,22.35,0.0756251164889143,0.004258603374866164,0.0,-0.5886,0.5493600000000001,9.82962
1792929275,22.35,0.08948303074974927,-0.01918116847941768,0.0,-0.2943,0.7749900000000001,9.79038
1797979780,22.35,0.07883652231258387,-0.002129301687433082,-0.001064650843716541,-0.28449,0.42183,9.6138
1803030285,22.35,0.0404741853537485,-0.004258603374866164,-0.002129301687433082,-0.36297,0.24525000000000002,9.81
1808080790,22.35,0.0852244273748831,-0.004258603374866164,-0.001064650843716541,-0.45126,0.5886,10.006200000000002
1813131295,22.35,0.09906488834319814,-0.002129301687433082,-0.001064650843716541,-0.23544,0.59841,9.83943
1818181800,22.35,0.09054768159346581,0.039409534510031964,0.003193952531149623,-0.38259000000000004,0.73575,9.65304
1823232305,22.35,0.06817256058289851,0.014905111812031574,-0.003193952531149623,-0.6867000000000001,0.50031,9.81
1828282810,22.35,0.07030186227033158,-0.014905111812031574,-0.002129301687433082,-0.56898,0.5591700000000001,9.73152
1833333315,22.35,0.07243116395776468,-0.01918116847941768,0.003193952531149623,-0.45126,0.7651800000000001,9.81
1838383820,22.35,0.060720004676882725,-0.03621558197888234,-0.001064650843716541,-0.22563,0.63765,9.751140000000001
1843434325,22.35,0.05646140130201656,-0.022375121010567305,-0.003193952531149623,-0.06867000000000001,0.43164,9.60399
1848484830,22.35,0.05965535383316618,-0.004258603374866164,0.002129301687433082,-0.08829,0.52974,9.760950000000001
1853535335,22.35,0.08309512568745003,0.005323254218582705,-0.002129301687433082,-0.05886,0.63765,9.72171
1858585840,22.35,0.09267698328089889,0.05220279792715039,0.004258603374866164,-0.24525000000000002,0.5493600000000001,9.623610000000001
1863636345,22.35,0.08628907821859966,0.06178465552059926,0.001064650843716541,-0.8338500000000001,0.73575,9.760950000000001
1868686850,22.35,0.0756251164889143,0.003193952531149623,0.0,-0.8142300000000001,0.8142300000000001,9.908100000000001
1873737355,22.35,0.07136651311404815,-0.022375121010567305,-0.002129301687433082,-0.70632,0.9319500000000001,9.73152
1878787860,22.35,0.02982767691658309,-0.054332099614583476,-0.001064650843716541,-0.3924,0.63765,9.633420000000001
1883838365,22.35,0.006387905062299246,-0.08203047484373349,-0.004258603374866164,-0.019620000000000002,0.41202000000000005,9.73152
1888888870,22.35,0.03408628029144926,-0.05752605214573309,-0.002129301687433082,0.32373,0.13734000000000002,9.85905
1893939375,22.35,0.06817256058289851,0.028763026072866547,0.001064650843716541,0.41202000000000005,0.35316,9.888480000000001
1898989880,22.35,0.12144000935376545,0.12569861272863161,0.003193952531149623,-0.20601000000000003,0.75537,9.85905
1904040385,22.35,0.1416858286768997,0.13102186694721432,0.0,-1.1281500000000002,1.22625,9.66285
1909090890,22.35,0.09800023749948161,0.03408628029144926,0.0,-1.46169,1.3243500000000001,9.53532
1914141395,22.35,0.0170518667919846,-0.10119419003063122,0.0,-0.8829,1.04967,9.55494
1919191900,22.35,-0.04260348704118158,-0.16084954386379738,-0.002129301687433082,-0.10791,0.24525000000000002,9.68247
1924242405,22.35,-0.03408628029144926,-0.11505210429146619,-0.008517206749732328,0.5886,-0.25506,9.81
1929292910,22.35,0.06284930636431581,0.03408628029144926,0.001064650843716541,0.6278400000000001,0.27468000000000004,9.82962
1934343415,22.35,0.15233233711406508,0.15339698795778162,0.001064650843716541,-0.14715,1.10853,9.78057
1939393920,22.35,0.15659094048893124,0.14913838458291545,0.005323254218582705,-1.01043,1.68732,9.819809999999999
1944444425,22.35,0.07777187146886733,0.021310470166850764,-0.001064650843716541,-1.19682,1.16739,9.68247
1949494930,22.35,-0.0170518667919846,-0.09374163412461543,-0.002129301687433082,-0.8338500000000001,0.42183,9.58437
1954545435,22.35,-0.04581489286485115,-0.1171814059788993,-0.004258603374866164,-0.34335000000000004,0.20601000000000003,9.82962
1959595940,22.35,0.02982767691658309,-0.05646140130201656,0.0,0.25506,0.5493600000000001,9.89829
1964646445,22.35,0.07777187146886733,0.022375121010567305,-0.001064650843716541,0.23544,0.75537,9.55494
1969696950,22.35,0.09587093581204853,0.07136651311404815,0.004258603374866164,-0.16677000000000003,0.9908100000000001,9.53532
1974747455,22.35,0.06178465552059926,0.05539675045830002,0.0,-0.2943,0.9221400000000001,9.86886
1979797960,22.35,0.0404741853537485,0.03089232776029963,-0.001064650843716541,-0.65727,0.63765,9.81
1984848465,22.35,0.05326744877086694,0.011711159280881954,0.001064650843716541,-0.9613800000000001,0.9123300000000001,9.6138
1989898970,22.35,0.03408628029144926,-0.05220279792715039,0.0,-0.56898,1.1281500000000002,9.74133
1994949475,22.35,0.01064650843716541,-0.08415977653116657,-0.005323254218582705,0.05886,0.5886,9.770760000000001
1999999980,22.35,0.0,-0.02769837522915001,0.002129301687433082,0.18639,0.21582,9.72171
2005050485,22.35,0.03834488366631542,0.05646140130201656,0.003193952531149623,-0.11772,0.6180300000000001,9.87867
2010100990,22.35,0.09587093581204853,0.06178465552059926,0.001064650843716541,-0.59841,1.21644,9.66285
2015151495,22.35,0.0852244273748831,0.023439771854283843,0.003193952531149623,-0.51012,1.3832099999999998,9.48627
2020202000,22.35,0.005323254218582705,-0.008517206749732328,0.0,-0.28449,0.6180300000000001,9.633420000000001
2025252505,22.35,-0.02556907354171693,-0.00958185759344887,-0.002129301687433082,-0.6670800000000001,0.32373,9.81
2030303010,22.35,0.03515093113516579,-0.028763026072866547,0.003193952531149623,-0.72594,0.9319500000000001,9.770760000000001
2035353515,22.35,0.046879543708567686,-0.04366813788489812,0.002129301687433082,-0.019620000000000002,1.1281500000000002,9.87867
2040404020,22.35,0.015987215948268057,-0.01811651763570114,-0.003193952531149623,0.21582,0.44145,9.72171
2045454525,22.35,0.00958185759344887,0.05007349623971732,0.0,-0.22563,0.40221,9.72171
2050505030,22.35,0.07243116395776468,0.07030186227033158,0.003193952531149623,-0.75537,1.19682,9.819809999999999
2055555535,22.35,0.05965535383316618,-0.002129301687433082,-0.003193952531149623,-0.64746,1.31454,9.67266
2060606040,22.35,0.015987215948268057,-0.04260348704118158,-0.002129301687433082,-0.22563,0.9613800000000001,9.46665
2065656545,22.35,-0.03408628029144926,-0.022375121010567305,-0.002129301687433082,-0.14715,0.21582,9.73152
2070707050,22.35,-0.006387905062299246,0.006387905062299246,-0.004258603374866164,-0.36297,0.59841,9.770760000000001
2075757555,22.35,0.05539675045830002,-0.004258603374866164,0.001064650843716541,-0.52974,1.26549,9.58437
2080808060,22.35,0.0404741853537485,-0.02556907354171693,-0.005323254218582705,0.20601000000000003,1.02024,9.64323
2085858565,22.35,-0.001064650843716541,0.054332099614583476,0.0,-0.019620000000000002,0.34335000000000004,9.74133
2090909070,22.35,0.0,0.06710790973918197,0.001064650843716541,-1.10853,0.8142300000000001,9.760950000000001
2095959575,22.35,0.046879543708567686,-0.044732788728614664,0.001064650843716541,-0.8338500000000001,1.46169,9.73152
2101010080,22.35,0.02556907354171693,-0.07030186227033158,-0.001064650843716541,0.30411,0.84366,9.68247
2106060585,22.35,-0.039409534510031964,0.02556907354171693,0.001064650843716541,-0.10791,0.06867000000000001,9.65304
2111111090,22.35,-0.011711159280881954,0.02663372438543347,0.003193952531149623,-0.85347,0.9319500000000001,9.85905
2116161595,22.35,0.06604325889546543,-0.05007349623971732,-0.004258603374866164,-0.27468000000000004,1.3341600000000002,9.84924
2121212100,22.35,0.01918116847941768,-0.012775810124598492,-0.003193952531149623,0.37278,0.51993,9.59418
2126262605,22.35,-0.03515093113516579,0.07349581480148122,0.0,-0.40221,0.5395500000000001,9.79038
2131313110,22.35,0.02663372438543347,0.015987215948268057,0.003193952531149623,-0.9123300000000001,1.1772,9.91791
2136363615,22.35,0.049008845396000776,-0.033021629447732716,-0.003193952531149623,-0.2943,1.24587,9.46665
2141414120,22.35,-0.01811651763570114,-0.004258603374866164,0.0,-0.06867000000000001,0.6670800000000001,9.4176
2146464625,22.35,-0.054332099614583476,-0.014905111812031574,0.0,-0.41202000000000005,0.50031,9.89829
2151515130,22.35,0.021310470166850764,-0.012775810124598492,0.0,-0.27468000000000004,0.90252,9.770760000000001
2156565635,22.35,0.033021629447732716,0.02769837522915001,0.003193952531149623,-0.1962,0.9613800000000001,9.57456
2161616140,22.35,-0.008517206749732328,0.02556907354171693,0.0,-0.43164,0.89271,9.78057
2166666645,22.35,0.002129301687433082,-0.00958185759344887,-0.002129301687433082,-0.51012,0.80442,9.94734
2171717150,22.35,0.002129301687433082,-0.004258603374866164,0.0,-0.42183,0.7651800000000001,9.73152
2176767655,22.35,-0.021310470166850764,-0.012775810124598492,0.001064650843716541,-0.46107000000000004,0.8338500000000001,9.82962
2181818160,22.35,-0.006387905062299246,-0.05113814708343386,-0.001064650843716541,-0.20601000000000003,0.8142300000000001,9.92772
2186868665,22.35,0.008517206749732328,-0.004258603374866164,-0.001064650843716541,0.22563,0.69651,9.633420000000001
2191919170,22.35,0.0,0.07349581480148122,0.003193952531149623,-0.24525000000000002,0.87309,9.53532
2196969675,22.35,0.00958185759344887,0.03515093113516579,0.002129301687433082,-0.85347,1.10853,9.45684
2202020180,22.35,0.015987215948268057,-0.022375121010567305,-0.002129301687433082,-0.47088,1.15758,9.46665
2207070685,22.35,-0.02769837522915001,-0.011711159280881954,-0.003193952531149623,-0.10791,0.6670800000000001,9.55494
2212121190,22.35,-0.06284930636431581,-0.001064650843716541,0.0,-0.56898,0.6670800000000001,9.60399
2217171695,22.35,-0.011711159280881954,-0.03515093113516579,0.0,-0.45126,1.0791000000000002,9.55494
2222222200,22.35,0.0,-0.02982767691658309,-0.002129301687433082,0.16677000000000003,0.73575,9.72171
2227272705,22.35,-0.04794419455228423,0.03515093113516579,0.0,-0.11772,0.35316,9.83943
2232323210,22.35,-0.01811651763570114,0.03621558197888234,0.004258603374866164,-0.8240400000000001,0.9319500000000001,9.94734
2237373715,22.35,0.02769837522915001,-0.01811651763570114,0.0,-0.41202000000000005,1.2360600000000002,9.937529999999999
2242424220,22.35,-0.022375121010567305,-0.011711159280881954,-0.002129301687433082,-0.02943,0.6278400000000001,9.80019
2247474725,22.35,-0.06284930636431581,0.01064650843716541,0.004258603374866164,-0.51012,0.51993,9.79038
2252525230,22.35,-0.01811651763570114,-0.01811651763570114,0.0,-0.44145,1.04967,9.819809999999999
2257575735,22.35,0.008517206749732328,-0.021310470166850764,-0.002129301687433082,0.04905,0.94176,9.6138
2262626240,22.35,-0.04153883619746504,0.031956978604016174,0.002129301687433082,-0.10791,0.45126,9.45684
2267676745,22.35,-0.031956978604016174,0.046879543708567686,0.003193952531149623,-0.6768900000000001,1.06929,9.67266
2272727250,22.35,0.01064650843716541,-0.01811651763570114,0.0,-0.50031,1.1183400000000001,9.67266
2277777755,22.35,-0.03834488366631542,-0.014905111812031574,0.0,-0.11772,0.72594,9.33912
2282828260,22.35,-0.07136651311404815,0.014905111812031574,0.003193952531149623,-0.51012,0.70632,9.64323
2287878765,22.35,-0.04260348704118158,-0.054332099614583476,-0.003193952531149623,-0.34335000000000004,0.70632,9.91791
2292929270,22.35,-0.0170518667919846,-0.003193952531149623,0.0,0.12753,0.7848,9.60399
2297979775,22.35,-0.03408628029144926,0.049008845396000776,0.005323254218582705,-0.41202000000000005,0.6867000000000001,9.7119
2303030280,22.35,-0.039409534510031964,-0.004258603374866164,0.0,-0.50031,0.80442,10.006200000000002
2308080785,22.35,-0.01064650843716541,-0.015987215948268057,0.0,-0.26487,0.86328,9.86886
2313131290,22.35,-0.04366813788489812,0.01064650843716541,0.002129301687433082,-0.28449,0.6278400000000001,9.79038
2318181795,22.35,-0.06178465552059926,-0.00958185759344887,0.0,-0.3924,0.75537,9.85905
2323232300,22.35,-0.015987215948268057,-0.022375121010567305,0.001064650843716541,-0.24525000000000002,0.7749900000000001,9.82962
2328282805,22.35,-0.03408628029144926,0.003193952531149623,-0.001064650843716541,0.0,0.75537,9.53532
2333333310,22.35,-0.049008845396000776,0.04153883619746504,0.0,-0.30411,0.8142300000000001,9.6138
2338383815,22.35,-0.024504422698000388,0.00958185759344887,0.0,-0.63765,0.94176,9.47646
2343434320,22.35,-0.0404741853537485,-0.006387905062299246,0.0,-0.25506,0.7848,9.47646
2348484825,22.35,-0.06497860805174888,0.008517206749732328,0.002129301687433082,-0.36297,0.6867000000000001,9.69228
2353535330,22.35,-0.060720004676882725,-0.01064650843716541,0.004258603374866164,-0.5886,0.74556,9.68247
2358585835,22.35,-0.046879543708567686,-0.033021629447732716,0.0,-0.23544,0.8142300000000001,9.6138
2363636340,22.35,-0.06923721142661506,-0.011711159280881954,0.001064650843716541,-0.009810000000000001,0.44145,9.937529999999999
2368686845,22.35,-0.06710790973918197,0.002129301687433082,0.001064650843716541,-0.28449,0.50031,9.99639
2373737350,22.35,-0.022375121010567305,0.01064650843716541,0.0,-0.36297,0.9221400000000001,9.888480000000001
2378787855,22.35,-0.03515093113516579,0.008517206749732328,-0.002129301687433082,-0.039240000000000004,0.73575,9.89829
2383838360,22.35,-0.060720004676882725,0.020245819323134222,0.0,-0.40221,0.5395500000000001,9.7119
2388888865,22.35,-0.04794419455228423,-0.002129301687433082,0.004258603374866164,-0.59841,0.9319500000000001,9.66285
2393939370,22.35,-0.03728023282259888,-0.020245819323134222,0.002129301687433082,-0.039240000000000004,0.86328,9.67266
2398989875,22.35,-0.0756251164889143,0.020245819323134222,0.0,-0.14715,0.43164,9.54513
2404040380,22.35,-0.07243116395776468,0.012775810124598492,0.003193952531149623,-0.70632,0.65727,9.5157
2409090885,22.35,-0.04153883619746504,-0.02769837522915001,-0.001064650843716541,-0.20601000000000003,0.90252,9.760950000000001
2414141390,22.35,-0.05539675045830002,0.007452555906015787,0.001064650843716541,-0.039240000000000004,0.63765,9.68247
2419191895,22.35,-0.09374163412461543,0.0170518667919846,0.001064650843716541,-0.49050000000000005,0.51993,9.633420000000001
2424242400,22.35,-0.05965535383316618,-0.024504422698000388,-0.001064650843716541,-0.38259000000000004,0.7651800000000001,9.81
2429292905,22.35,-0.05326744877086694,-0.01918116847941768,0.0,0.019620000000000002,0.63765,9.81
2434343410,22.35,-0.08309512568745003,0.02663372438543347,0.001064650843716541,-0.23544,0.51012,9.70209
2439393915,22.35,-0.06391395720803235,0.01064650843716541,0.003193952531149623,-0.49050000000000005,0.63765,9.89829
2444444420,22.35,-0.04794419455228423,-0.015987215948268057,-0.001064650843716541,-0.30411,0.6768900000000001,9.82962
2449494925,22.35,-0.06497860805174888,0.0,0.004258603374866164,-0.21582,0.57879,9.7119
2454545430,22.35,-0.07777187146886733,0.013840460968315033,0.002129301687433082,-0.32373,0.6278400000000001,9.81
2459595935,22.35,-0.06604325889546543,-0.006387905062299246,0.0,-0.34335000000000004,0.73575,9.74133
2464646440,22.35,-0.06391395720803235,-0.022375121010567305,0.002129301687433082,-0.12753,0.57879,9.5157
2469696945,22.35,-0.08096582400001695,0.013840460968315033,0.0,-0.06867000000000001,0.42183,9.56475
2474747450,22.35,-0.0756251164889143,0.031956978604016174,0.001064650843716541,-0.48069000000000006,0.60822,9.760950000000001
2479797955,22.35,-0.054332099614583476,-0.001064650843716541,-0.001064650843716541,-0.5395500000000001,0.89271,9.78057
2484848460,22.35,-0.07136651311404815,-0.015987215948268057,0.0,-0.15696000000000002,0.49050000000000005,9.70209
2489898965,22.35,-0.10438814256178083,0.003193952531149623,0.001064650843716541,-0.41202000000000005,0.45126,9.7119
2494949470,22.35,-0.0852244273748831,-0.02556907354171693,0.001064650843716541,-0.48069000000000006,0.60822,9.85905
2499999975,22.35,-0.07136651311404815,-0.03089232776029963,0.0,0.08829,0.52974,9.760950000000001
2505050480,22.35,-0.08841837990603273,0.021310470166850764,0.005323254218582705,-0.05886,0.26487,9.81
2510100985,22.35,-0.07777187146886733,0.01918116847941768,0.003193952531149623,-0.50031,0.5886,9.83943
2515151490,22.35,-0.049008845396000776,0.002129301687433082,0.001064650843716541,-0.11772,0.74556,9.82962
2520201995,22.35,-0.07349581480148122,0.03089232776029963,0.001064650843716541,-0.26487,0.5493600000000001,9.633420000000001
2525252500,22.35,-0.10332349171806432,0.014905111812031574,0.0,-0.75537,0.46107000000000004,9.65304
2530303005,22.35,-0.08415977653116657,-0.03834488366631542,0.0,-0.34335000000000004,0.63765,9.74133
2535353510,22.35,-0.08628907821859966,-0.00958185759344887,0.0,-0.11772,0.43164,9.7119
2540404015,22.35,-0.11398745344774965,-0.00958185759344887,0.004258603374866164,-0.28449,0.32373,9.70209
2545454520,22.35,-0.08841837990603273,-0.003193952531149623,0.0,-0.12753,0.51012,9.760950000000001
2550505025,22.35,-0.06604325889546543,0.01918116847941768,0.003193952531149623,-0.12753,0.43164,9.85905
2555555530,22.35,-0.09161233243718235,0.024504422698000388,0.0,-0.43164,0.44145,9.69228
2560606035,22.35,-0.08309512568745003,-0.003193952531149623,0.002129301687433082,-0.52974,0.65727,9.73152
2565656540,22.35,-0.09374163412461543,-0.031956978604016174,0.0,-0.10791,0.34335000000000004,9.92772
2570707045,22.35,-0.1097288500728835,-0.007452555906015787,-0.002129301687433082,-0.0981,0.1962,9.78057
2575757550,22.35,-0.09693558665576507,0.008517206749732328,0.004258603374866164,-0.3924,0.40221,9.73152
2580808055,22.35,-0.0756251164889143,0.0,0.0,-0.10791,0.51993,9.79038
2585858560,22.35,-0.07990117315630041,0.024504422698000388,0.002129301687433082,-0.1962,0.41202000000000005,9.73152
2590909065,22.35,-0.10012953918691468,0.011711159280881954,0.001064650843716541,-0.48069000000000006,0.35316,9.65304
2595959570,22.35,-0.09054768159346581,-0.011711159280881954,0.001064650843716541,-0.36297,0.5591700000000001,9.73152
2601010075,22.35,-0.09374163412461543,-0.005323254218582705,0.0,-0.24525000000000002,0.32373,9.79038
2606060580,22.35,-0.12569861272863161,-0.01918116847941768,0.003193952531149623,-0.27468000000000004,0.17658,9.760950000000001
2611111085,22.35,-0.10332349171806432,-0.01811651763570114,0.004258603374866164,-0.15696000000000002,0.41202000000000005,9.85905
2616161590,22.35,-0.07670722062515077,0.003193952531149623,0.0,-0.02943,0.22563,9.81
2621212095,22.35,-0.09693558665576507,0.04366813788489812,0.004258603374866164,-0.27468000000000004,0.28449,9.633420000000001
2626262600,22.35,-0.09374163412461543,0.008517206749732328,0.004258603374866164,-0.57879,0.56898,9.85905
2631313105,22.35,-0.08415977653116657,-0.03728023282259888,0.0,-0.18639,0.24525000000000002,9.89829
2636363610,22.35,-0.11824605682261582,0.00958185759344887,0.002129301687433082,-0.0981,0.07848000000000001,9.70209
2641414115,22.35,-0.11824605682261582,0.00958185759344887,0.003193952531149623,-0.5493600000000001,0.42183,9.83943
2646464620,22.35,-0.08309512568745003,-0.04366813788489812,-0.002129301687433082,-0.08829,0.41202000000000005,9.751140000000001
2651515125,22.35,-0.10119419003063122,0.007452555906015787,0.0,0.20601000000000003,-0.10791,9.64323
2656565630,22.35,-0.11398745344774965,0.054332099614583476,0.004258603374866164,-0.56898,0.27468000000000004,9.79038
2661616135,22.35,-0.06497860805174888,-0.014905111812031574,-0.001064650843716541,-0.6180300000000001,0.69651,9.82962
2666666640,22.35,-0.09267698328089889,-0.031956978604016174,0.001064650843716541,0.039240000000000004,0.1962,9.67266
2671717145,22.35,-0.1555262896452147,0.024504422698000388,0.001064650843716541,-0.25506,-0.18639,9.78057
2676767650,22.35,-0.11398745344774965,-0.008517206749732328,0.001064650843716541,-0.74556,0.26487,10.045440000000001
2681818155,22.35,-0.060720004676882725,-0.05007349623971732,0.001064650843716541,0.0,0.64746,9.69228
2686868660,22.35,-0.12356931104119852,0.002129301687433082,0.002129301687433082,0.36297,-0.15696000000000002,9.633420000000001
2691919165,22.35,-0.1374272253020335,0.04153883619746504,0.004258603374866164,-0.43164,-0.2943,9.91791
2696969670,22.35,-0.07456046564519776,0.012775810124598492,0.003193952531149623,-0.71613,0.52974,9.95715
2702020175,22.35,-0.05646140130201656,-0.00958185759344887,0.001064650843716541,-0.11772,0.79461,9.65304
2707070680,22.35,-0.1352804703220805,-0.00958185759344887,0.004258603374866164,-0.07848000000000001,-0.15696000000000002,9.65304
2712121185,22.35,-0.15659094048893124,-0.01064650843716541,0.003193952531149623,-0.38259000000000004,-0.27468000000000004,9.81
2717171690,22.35,-0.09374163412461543,-0.002129301687433082,0.001064650843716541,-0.2943,0.22563,9.81
2722222195,22.35,-0.07136651311404815,0.01064650843716541,0.005323254218582705,-0.17658,0.52974,9.68247
2727272700,22.35,-0.11185815176031658,0.0,0.001064650843716541,-0.16677000000000003,0.10791,9.66285
2732323205,22.35,-0.1416858286768997,-0.013840460968315033,0.0,-0.27468000000000004,-0.26487,9.888480000000001
2737373710,22.35,-0.12569861272863161,0.002129301687433082,0.003193952531149623,-0.27468000000000004,-0.0981,9.98658
2742424215,22.35,-0.0852244273748831,0.013840460968315033,0.002129301687433082,-0.48069000000000006,0.43164,9.84924
2747474720,22.35,-0.08628907821859966,-0.003193952531149623,0.003193952531149623,-0.18639,0.1962,9.72171
2752525225,22.35,-0.13955652698946658,-0.020245819323134222,0.002129301687433082,-0.15696000000000002,-0.07848000000000001,9.79038
2757575730,22.35,-0.1416858286768997,-0.03089232776029963,0.0,-0.18639,-0.15696000000000002,9.95715
2762626235,22.35,-0.11931070766633237,-0.011711159280881954,0.0,0.12753,-0.22563,9.819809999999999
2767676740,22.35,-0.06817256058289851,0.07349581480148122,0.006387905062299246,-0.32373,0.07848000000000001,9.751140000000001
2772727245,22.35,-0.08735372906231618,0.03728023282259888,0.001064650843716541,-0.6867000000000001,0.30411,9.78057
2777777750,22.35,-0.10119419003063122,-0.0170518667919846,0.0,-0.45126,0.48069000000000006,9.751140000000001
2782828255,22.35,-0.150203035426632,-0.05859070298944965,0.002129301687433082,-0.12753,-0.21582,9.751140000000001
2787878760,22.35,-0.17896606149949854,-0.054332099614583476,0.0,-0.07848000000000001,-0.63765,9.73152
2792929265,22.35,-0.12144000935376545,0.0,0.004258603374866164,-0.04905,-0.34335000000000004,9.84924
2797979770,22.35,-0.06178465552059926,0.04794419455228423,0.004258603374866164,-0.12753,0.1962,9.92772
2803030275,22.35,-0.06391395720803235,0.07030186227033158,0.001064650843716541,-0.33354000000000006,0.38259000000000004,9.819809999999999
2808080780,22.35,-0.10545279340549739,0.03408628029144926,0.003193952531149623,-0.7651800000000001,0.05886,9.79038
2813131285,22.35,-0.14913838458291545,-0.05859070298944965,0.0,-0.57879,-0.12753,9.83943
2818181790,22.35,-0.16510814723866357,-0.09161233243718235,0.0,-0.05886,-0.27468000000000004,9.96696
2823232295,22.35,-0.1555262896452147,-0.05646140130201656,-0.002129301687433082,0.48069000000000006,-0.7651800000000001,9.86886
2828282800,22.35,-0.10545279340549739,0.07243116395776468,0.002129301687433082,0.08829,-0.47088,9.78057
2833333305,22.35,-0.039409534510031964,0.11611675513518273,0.005323254218582705,-0.6180300000000001,0.34335000000000004,9.937529999999999
2838383810,22.35,-0.04366813788489812,0.049008845396000776,0.002129301687433082,-0.8142300000000001,0.51012,9.78057
2843434315,22.35,-0.12569861272863161,-0.00958185759344887,0.001064650843716541,-0.60822,0.12753,9.56475
2848484820,22.35,-0.19280652246781357,-0.07777187146886733,-0.001064650843716541,-0.60822,-0.56898,9.79038
2853535325,22.35,-0.20027653166634932,-0.12676326357234816,0.0,-0.12753,-0.5395500000000001,9.94734
2858585830,22.35,-0.13634512116579703,-0.09161233243718235,-0.005323254218582705,0.59841,-0.31392000000000003,9.83943
2863636335,22.35,-0.09906488834319814,0.02663372438543347,0.001064650843716541,0.8240400000000001,-0.72594,9.770760000000001
2868686840,22.35,-0.07777187146886733,0.1331511686346474,0.006387905062299246,-0.019620000000000002,-0.38259000000000004,9.83943
2873737345,22.35,-0.023439771854283843,0.1171814059788993,0.008517206749732328,-0.8338500000000001,0.57879,9.98658
2878787850,22.35,-0.04153883619746504,0.031956978604016174,0.001064650843716541,-0.8142300000000001,0.21582,9.89829
2883838355,22.35,-0.1555262896452147,-0.013840460968315033,0.003193952531149623,-0.64746,-0.31392000000000003,9.65304
2888888860,22.35,-0.18641861740551433,-0.06391395720803235,0.004258603374866164,-0.89271,-0.47088,9.92772
2893939365,22.35,-0.15765559133264778,-0.12995721610349775,-0.003193952531149623,-0.009810000000000001,-0.35316,9.82962
2898989870,22.35,-0.12569861272863161,-0.0404741853537485,0.0,0.5886,-0.51993,9.7119
2904040375,22.35,-0.12463396188491506,0.05007349623971732,0.002129301687433082,0.11772,-0.6867000000000001,9.751140000000001
2909090880,22.35,-0.07456046564519776,0.05539675045830002,0.002129301687433082,-0.20601000000000003,-0.11772,9.92772
2914141385,22.35,-0.04366813788489812,0.05646140130201656,0.004258603374866164,-0.33354000000000006,0.05886,9.92772
2919191890,22.35,-0.1097288500728835,0.03728023282259888,0.002129301687433082,-0.5395500000000001,-0.24525000000000002,9.79038
2924242395,22.35,-0.13634512116579703,-0.014905111812031574,0.002129301687433082,-0.79461,-0.2943,9.83943
2929292900,22.35,-0.14487978120804929,-0.07456046564519776,-0.003193952531149623,-0.30411,-0.38259000000000004,9.91791
2934343405,22.35,-0.14062117783318315,-0.05539675045830002,0.002129301687433082,0.11772,-0.6670800000000001,9.83943
2939393910,22.35,-0.1331511686346474,0.011711159280881954,0.0,-0.009810000000000001,-0.6278400000000001,9.79038
2944444415,22.35,-0.08415977653116657,0.02556907354171693,0.003193952531149623,-0.16677000000000003,-0.31392000000000003,9.770760000000001
2949494920,22.35,-0.07349581480148122,0.03408628029144926,0.002129301687433082,-0.1962,-0.18639,9.770760000000001
2954545425,22.35,-0.09693558665576507,0.03408628029144926,0.002129301687433082,-0.35316,-0.42183,9.81
2959595930,22.35,-0.12356931104119852,0.011711159280881954,0.002129301687433082,-0.6278400000000001,-0.42183,9.85905
2964646435,22.35,-0.11505210429146619,-0.020245819323134222,0.0,-0.5395500000000001,-0.24525000000000002,9.83943
2969696940,22.35,-0.12569861272863161,-0.046879543708567686,0.0,-0.26487,-0.48069000000000006,9.81
2974747445,22.35,-0.14913838458291545,-0.02769837522915001,0.0,0.019620000000000002,-0.6867000000000001,9.84924
2979797950,22.35,-0.12676326357234816,-0.006387905062299246,0.001064650843716541,-0.15696000000000002,-0.59841,9.85905
2984848455,22.35,-0.09906488834319814,0.0,0.003193952531149623,-0.009810000000000001,-0.52974,9.85905
2989898960,22.35,-0.08948303074974927,0.02769837522915001,0.003193952531149623,-0.08829,-0.3924,9.86886
2994949465,22.35,-0.09906488834319814,0.022375121010567305,0.003193952531149623,-0.30411,-0.37278,9.86886
2999999970,22.35,-0.11292280260403312,-0.00958185759344887,0.001064650843716541,-0.27468000000000004,-0.51993,9.82962
3005050475,22.35,-0.12676326357234816,-0.00958185759344887,0.002129301687433082,-0.28449,-0.57879,9.819809999999999
3010100980,22.35,-0.11292280260403312,-0.023439771854283843,0.001064650843716541,-0.17658,-0.57879,9.85905
3015151485,22.35,-0.10653489754173388,0.0,0.002129301687433082,-0.02943,-0.73575,9.83943
3020201990,22.35,-0.10225884087434776,0.03621558197888234,0.006387905062299246,-0.36297,-0.5591700000000001,9.83943
3025252495,22.35,-0.08415977653116657,0.011711159280881954,0.002129301687433082,-0.47088,-0.41202000000000005,9.89829
3030303000,22.35,-0.08948303074974927,-0.001064650843716541,-0.001064650843716541,-0.25506,-0.51012,9.87867
3035353505,22.35,-0.11824605682261582,0.013840460968315033,0.007452555906015787,-0.44145,-0.6180300000000001,9.81
3040404010,22.35,-0.12995721610349775,-0.03089232776029963,0.001064650843716541,-0.51012,-0.5886,9.86886
3045454515,22.35,-0.11398745344774965,-0.05220279792715039,0.0,-0.04905,-0.57879,9.81
3050505020,22.35,-0.1171814059788993,-0.011711159280881954,0.002129301687433082,0.15696000000000002,-0.8240400000000001,9.79038
3055555525,22.35,-0.1171814059788993,0.015987215948268057,0.005323254218582705,-0.1962,-0.79461,9.78057
3060606030,22.35,-0.0852244273748831,0.013840460968315033,0.002129301687433082,-0.15696000000000002,-0.45126,9.83943
3065656535,22.35,-0.08735372906231618,0.003193952531149623,0.001064650843716541,-0.14715,-0.64746,9.85905
3070707040,22.35,-0.11079350091660004,0.01811651763570114,0.004258603374866164,-0.1962,-0.72594,9.81
3075757545,22.35,-0.10225884087434776,0.015987215948268057,0.002129301687433082,-0.46107000000000004,-0.6278400000000001,9.81
3080808050,22.35,-0.09693558665576507,0.002129301687433082,0.002129301687433082,-0.37278,-0.6670800000000001,9.82962
3085858555,22.35,-0.11292280260403312,-0.008517206749732328,0.002129301687433082,-0.33354000000000006,-0.75537,9.91791
3090909060,22.35,-0.09906488834319814,0.0,0.0,-0.37278,-0.6867000000000001,9.83943
3095959565,22.35,-0.09693558665576507,0.002129301687433082,0.003193952531149623,-0.41202000000000005,-0.6768900000000001,9.78057
3101010070,22.35,-0.12356931104119852,-0.01918116847941768,0.004258603374866164,-0.33354000000000006,-0.6768900000000001,9.81
3106060575,22.35,-0.12144000935376545,-0.05007349623971732,0.0,-0.07848000000000001,-0.7749900000000001,9.94734
3111111080,22.35,-0.11931070766633237,-0.03728023282259888,-0.002129301687433082,0.30411,-0.9810000000000001,9.82962
3116161585,22.35,-0.10866419922916695,0.01918116847941768,0.001064650843716541,0.17658,-1.02024,9.770760000000001
3121212090,22.35,-0.08309512568745003,0.054332099614583476,0.005323254218582705,-0.26487,-0.80442,9.819809999999999
3126262595,22.35,-0.05007349623971732,0.04260348704118158,-0.001064650843716541,-0.45126,-0.60822,9.99639
3131313100,22.35,-0.06604325889546543,0.05646140130201656,0.001064650843716541,-0.5493600000000001,-0.63765,9.85905
3136363605,22.35,-0.09480628496833199,0.028763026072866547,0.001064650843716541,-1.02024,-0.5493600000000001,9.72171
3141414110,22.35,-0.12356931104119852,-0.06923721142661506,0.001064650843716541,-0.75537,-0.49050000000000005,9.84924
3146464615,22.35,-0.1672549022186166,-0.13955652698946658,-0.003193952531149623,0.23544,-1.5794100000000002,9.937529999999999
3151515120,22.35,-0.1278279144160647,-0.04581489286485115,-0.002129301687433082,1.0791000000000002,-1.04967,9.7119
3156565625,22.35,-0.06391395720803235,0.08096582400001695,0.004258603374866164,0.35316,-1.3341600000000002,9.888480000000001
3161616130,22.35,-0.03834488366631542,0.14275047952061623,0.008517206749732328,-0.3924,-0.5395500000000001,9.751140000000001
3166666635,22.35,-0.0170518667919846,0.10866419922916695,0.004258603374866164,-1.10853,-0.37278,10.2024
3171717140,22.35,-0.0756251164889143,0.0,0.0,-1.2556800000000001,-0.17658,9.81
3176767645,22.35,-0.15339698795778162,-0.11611675513518273,-0.003193952531149623,-0.73575,-0.72594,9.60399
3181818150,22.35,-0.2162462943220974,-0.16831955306233315,-0.002129301687433082,0.07848000000000001,-2.1974400000000003,9.82962
3186868655,22.35,-0.09587093581204853,-0.03408628029144926,-0.001064650843716541,1.22625,-0.80442,9.82962
3191919160,22.35,-0.024504422698000388,0.12463396188491506,0.005323254218582705,0.1962,-1.1870100000000001,9.87867
3196969665,22.35,0.003193952531149623,0.18854791909294744,0.013840460968315033,-0.56898,-0.07848000000000001,9.4176
3202020170,22.35,-0.0404741853537485,0.05859070298944965,0.004258603374866164,-1.45188,-0.40221,10.212209999999999
3207070675,22.35,-0.13849187614575004,-0.1171814059788993,-0.003193952531149623,-0.73575,-0.65727,9.97677
3212121180,22.35,-0.19067722078038052,-0.1555262896452147,-0.004258603374866164,-0.05886,-2.04048,9.86886
3217171685,22.35,-0.11398745344774965,-0.06710790973918197,0.001064650843716541,0.7749900000000001,-1.03005,9.50589
3222222190,22.35,-0.03834488366631542,0.07777187146886733,0.004258603374866164,0.06867000000000001,-1.1870100000000001,9.99639
3227272695,22.35,-0.03728023282259888,0.09267698328089889,0.005323254218582705,-0.37278,-0.38259000000000004,9.73152
3232323200,22.35,-0.04794419455228423,0.02663372438543347,0.002129301687433082,-0.64746,-0.80442,10.143540000000002
3237373705,22.35,-0.10438814256178083,-0.006387905062299246,0.0,-0.5395500000000001,-0.9711900000000001,9.72171
3242424210,22.35,-0.12250466019748199,-0.03089232776029963,0.003193952531149623,-0.69651,-1.19682,9.85905
3247474715,22.35,-0.10866419922916695,-0.06710790973918197,0.0,-0.3924,-1.00062,9.86886
3252525220,22.35,-0.08309512568745003,-0.05007349623971732,-0.004258603374866164,0.34335000000000004,-1.04967,9.86886
3257575725,22.35,-0.08841837990603273,0.012775810124598492,0.002129301687433082,0.31392000000000003,-1.3243500000000001,9.760950000000001
3262626230,22.35,-0.06604325889546543,0.07136651311404815,0.003193952531149623,-0.20601000000000003,-1.26549,9.83943
3267676735,22.35,-0.02769837522915001,0.07030186227033158,0.004258603374866164,-0.72594,-0.49050000000000005,9.87867
3272727240,22.35,-0.049008845396000776,0.004258603374866164,0.0,-0.64746,-0.60822,9.937529999999999
3277777745,22.35,-0.1171814059788993,-0.060720004676882725,0.0,-0.37278,-1.22625,9.72171
3282828250,22.35,-0.13634512116579703,-0.05752605214573309,0.0,-0.14715,-1.6186500000000001,9.819809999999999
3287878755,22.35,-0.060720004676882725,-0.004258603374866164,0.001064650843716541,-0.14715,-0.86328,9.84924
3292929260,22.35,-0.049008845396000776,0.024504422698000388,0.002129301687433082,-0.08829,-0.7749900000000001,9.60399
3297979765,22.35,-0.06604325889546543,0.015987215948268057,0.0,-0.18639,-1.03005,9.67266
3303030270,22.35,-0.10012953918691468,0.0,0.001064650843716541,-0.30411,-1.51074,10.03563
3308080775,22.35,-0.06178465552059926,0.01064650843716541,0.003193952531149623,-0.5591700000000001,-1.02024,9.99639
3313131280,22.35,-0.05113814708343386,-0.008517206749732328,0.005323254218582705,-0.41202000000000005,-0.6768900000000001,9.81
3318181785,22.35,-0.07136651311404815,-0.03621558197888234,0.001064650843716541,-0.07848000000000001,-1.3047300000000002,9.760950000000001
3323232290,22.35,-0.10759954838545042,-0.00958185759344887,-0.002129301687433082,0.039240000000000004,-1.52055,9.95715
3328282795,22.35,-0.05326744877086694,0.03834488366631542,0.0,-0.33354000000000006,-1.19682,9.98658
3333333300,22.35,-0.03408628029144926,0.03515093113516579,0.005323254218582705,-0.37278,-0.48069000000000006,9.67266
3338383805,22.35,-0.04794419455228423,-0.020245819323134222,0.0,-0.33354000000000006,-1.20663,9.89829
3343434310,22.35,-0.11931070766633237,-0.0170518667919846,0.0,-0.31392000000000003,-1.5696,9.81
3348484815,22.35,-0.06178465552059926,-0.004258603374866164,0.0,-0.41202000000000005,-0.9810000000000001,9.85905
3353535320,22.35,-0.04581489286485115,-0.024504422698000388,0.004258603374866164,-0.16677000000000003,-1.03005,9.751140000000001
3358585825,22.35,-0.07456046564519776,0.011711159280881954,0.001064650843716541,0.04905,-1.4715,9.72171
3363636330,22.35,-0.06604325889546543,0.022375121010567305,0.002129301687433082,-0.38259000000000004,-1.2753,10.13373
3368686835,22.35,-0.031956978604016174,0.002129301687433082,-0.001064650843716541,-0.34335000000000004,-0.9123300000000001,9.95715
3373737340,22.35,-0.04153883619746504,0.015987215948268057,0.001064650843716541,-0.28449,-0.9123300000000001,9.52551
3378787845,22.35,-0.08841837990603273,0.001064650843716541,0.001064650843716541,-0.44145,-1.7658,9.908100000000001
3383838350,22.35,-0.07243116395776468,-0.0170518667919846,-0.002129301687433082,-0.45126,-0.95157,10.1043
3388888855,22.35,-0.04260348704118158,-0.03408628029144926,-0.002129301687433082,-0.02943,-1.08891,9.94734
3393939360,22.35,-0.06817256058289851,0.013840460968315033,0.001064650843716541,0.10791,-1.4813100000000001,9.54513
3398989865,22.35,-0.06178465552059926,0.03728023282259888,0.004258603374866164,-0.50031,-1.40283,10.05525
3404040370,22.35,-0.03089232776029963,-0.011711159280881954,0.0,-0.45126,-0.8142300000000001,10.025820000000001
3409090875,22.35,-0.04153883619746504,-0.012775810124598492,-0.001064650843716541,0.11772,-1.0987200000000001,9.70209
3414141380,22.35,-0.07883652231258387,0.03621558197888234,0.003193952531149623,-0.32373,-1.69713,9.751140000000001
3419191885,22.35,-0.06391395720803235,0.012775810124598492,0.003193952531149623,-0.85347,-1.06929,9.819809999999999
3424242390,22.35,-0.021310470166850764,-0.06497860805174888,-0.002129301687433082,-0.18639,-0.8829,9.94734
3429292895,22.35,-0.046879543708567686,-0.0170518667919846,0.002129301687433082,0.42183,-1.5794100000000002,9.73152
3434343400,22.35,-0.0852244273748831,0.039409534510031964,0.003193952531149623,-0.30411,-1.6186500000000001,9.86886
3439393905,22.35,-0.02556907354171693,-0.003193952531149623,0.0,-0.44145,-0.8142300000000001,9.94734
3444444410,22.35,-0.005323254218582705,-0.007452555906015787,-0.003193952531149623,0.02943,-1.03005,9.81
3449494915,22.35,-0.06710790973918197,0.05007349623971732,0.002129301687433082,-0.43164,-1.6480800000000002,9.69228
3454545420,22.35,-0.07243116395776468,0.008517206749732328,0.003193952531149623,-0.9319500000000001,-1.1281500000000002,9.64323
3459595925,22.35,-0.011711159280881954,-0.054332099614583476,-0.001064650843716541,-0.2943,-1.00062,9.84924
3464646430,22.35,-0.05326744877086694,-0.02663372438543347,-0.002129301687433082,0.21582,-1.6480800000000002,9.888480000000001
3469696935,22.35,-0.07136651311404815,0.013840460968315033,0.004258603374866164,-0.08829,-1.43226,9.92772
3474747440,22.35,-0.021310470166850764,0.006387905062299246,-0.001064650843716541,-0.28449,-1.00062,9.888480000000001
3479797945,22.35,-0.011711159280881954,0.020245819323134222,0.0,-0.10791,-1.2360600000000002,9.83943
3484848450,22.35,-0.05965535383316618,0.02556907354171693,0.003193952531149623,-0.51012,-1.54017,9.91791
3489898955,22.35,-0.03621558197888234,-0.004258603374866164,0.004258603374866164,-0.69651,-0.9908100000000001,9.83943
3494949460,22.35,-0.014905111812031574,-0.039409534510031964,-0.002129301687433082,-0.23544,-1.15758,9.751140000000001
3499999965,22.35,-0.06497860805174888,-0.02556907354171693,0.0,0.12753,-1.80504,9.73152
3505050470,22.35,-0.04153883619746504,0.020245819323134222,0.004258603374866164,-0.13734000000000002,-1.16739,9.87867
3510100975,22.35,0.002129301687433082,0.01918116847941768,-0.001064650843716541,-0.37278,-0.9613800000000001,9.78057
3515151480,22.35,-0.024504422698000388,0.005323254218582705,0.0,-0.17658,-1.46169,9.60399
3520201985,22.35,-0.06604325889546543,0.023439771854283843,0.003193952531149623,-0.5591700000000001,-1.68732,9.99639
3525252490,22.35,-0.00958185759344887,-0.01918116847941768,0.003193952531149623,-0.73575,-0.94176,10.08468
3530302995,22.35,-0.011711159280881954,-0.04366813788489812,0.0,-0.039240000000000004,-1.1183400000000001,9.74133
3535353500,22.35,-0.05326744877086694,-0.001064650843716541,0.001064650843716541,0.17658,-1.9129500000000002,9.73152
3540404005,22.35,-0.03834488366631542,0.03621558197888234,0.002129301687433082,-0.43164,-1.3537800000000002,10.006200000000002
3545454510,22.35,0.014905111812031574,-0.007452555906015787,-0.001064650843716541,-0.3924,-0.9711900000000001,9.937529999999999
3550505015,22.35,-0.012775810124598492,0.007452555906015787,0.0,0.04905,-1.0987200000000001,9.7119
3555555520,22.35,-0.054332099614583476,0.0170518667919846,0.003193952531149623,-0.50031,-1.95219,9.92772
3560606025,22.35,-0.039409534510031964,-0.022375121010567305,0.0,-0.56898,-1.01043,9.73152
3565656530,22.35,0.020245819323134222,-0.020245819323134222,-0.001064650843716541,-0.05886,-0.9613800000000001,9.760950000000001
3570707035,22.35,-0.03621558197888234,0.008517206749732328,0.0,-0.0981,-1.83447,9.623610000000001
3575757540,22.35,-0.05220279792715039,0.023439771854283843,0.0,-0.51012,-1.42245,9.87867
3580808045,22.35,0.0170518667919846,-0.005323254218582705,0.0,-0.5493600000000001,-0.9123300000000001,9.95715
3585858550,22.35,-0.002129301687433082,-0.021310470166850764,0.0,-0.06867000000000001,-1.34397,9.79038
3590909055,22.35,-0.05220279792715039,0.008517206749732328,0.002129301687433082,-0.18639,-1.78542,9.83943
3595959560,22.35,-0.01811651763570114,0.012775810124598492,0.0,-0.57879,-1.20663,9.908100000000001
3601010065,22.35,0.01811651763570114,-0.02769837522915001,-0.003193952531149623,-0.18639,-1.0791000000000002,9.92772
3606060570,22.35,-0.01811651763570114,0.007452555906015787,-0.001064650843716541,-0.009810000000000001,-1.58922,9.78057
3611111075,22.35,-0.02982767691658309,0.03834488366631542,0.005323254218582705,-0.51012,-1.5794100000000002,9.97677
3616161580,22.35,0.007452555906015787,-0.02769837522915001,0.001064650843716541,-0.5395500000000001,-1.03005,10.01601
3621212085,22.35,0.013840460968315033,-0.03621558197888234,0.0,0.019620000000000002,-1.29492,9.81
3626262590,22.35,-0.024504422698000388,0.024504422698000388,0.002129301687433082,-0.019620000000000002,-1.6677000000000002,9.78057
3631313095,22.35,-0.00958185759344887,0.03089232776029963,-0.001064650843716541,-0.56898,-1.16739,9.819809999999999
3636363600,22.35,0.01918116847941768,-0.00958185759344887,-0.001064650843716541,-0.48069000000000006,-0.9810000000000001,9.6138
3641414105,22.35,0.002129301687433082,-0.003193952531149623,0.0,-0.20601000000000003,-1.4715,9.56475
3646464610,22.35,-0.04581489286485115,0.0,0.001064650843716541,-0.35316,-1.6382700000000001,9.89829
3651515115,22.35,0.006387905062299246,-0.011711159280881954,-0.004258603374866164,-0.34335000000000004,-1.10853,9.81
3656565620,22.35,0.014905111812031574,0.0,0.0,-0.14715,-1.31454,9.67266
3661616125,22.35,-0.0170518667919846,0.012775810124598492,-0.003193952531149623,-0.1962,-1.6677000000000002,9.937529999999999
3666666630,22.35,0.0,0.014905111812031574,0.002129301687433082,-0.5886,-1.24587,10.025820000000001
3671717135,22.35,0.021310470166850764,-0.01811651763570114,0.001064650843716541,-0.38259000000000004,-1.06929,9.84924
3676767640,22.35,-0.007452555906015787,-0.023439771854283843,-0.002129301687433082,0.0,-1.5990300000000002,9.80019
3681818145,22.35,-0.014905111812031574,0.014905111812031574,0.0,-0.16677000000000003,-1.5499800000000001,9.888480000000001
3686868650,22.35,0.020245819323134222,0.021310470166850764,0.002129301687433082,-0.41202000000000005,-1.04967,9.79038
3691919155,22.35,0.020245819323134222,0.001064650843716541,0.001064650843716541,-0.30411,-1.20663,9.72171
3696969660,22.35,-0.006387905062299246,0.0,0.0,-0.45126,-1.71675,9.86886
3702020165,22.35,-0.004258603374866164,-0.0170518667919846,0.0,-0.48069000000000006,-1.3635900000000003,10.01601
3707070670,22.35,0.024504422698000388,-0.02556907354171693,-0.001064650843716541,-0.07848000000000001,-1.22625,9.99639
3712121175,22.35,0.01811651763570114,0.015987215948268057,0.0,-0.039240000000000004,-1.4715,9.85905
3717171680,22.35,0.002129301687433082,0.022375121010567305,0.002129301687433082,-0.48069000000000006,-1.4813100000000001,9.91791
3722222185,22.35,0.024504422698000388,-0.006387905062299246,-0.001064650843716541,-0.42183,-0.9908100000000001,9.82962
3727272690,22.35,0.03089232776029963,-0.01064650843716541,-0.001064650843716541,-0.1962,-1.29492,9.67266
3732323195,22.35,-0.012775810124598492,-0.0,-0.001064650843716541,-0.23544,-1.75599,9.67266
3737373700,22.35,0.013840460968315033,-0.001064650843716541,0.001064650843716541,-0.32373,-1.13796,9.86886
3742424205,22.35,0.05646140130201656,0.003193952531149623,0.0,-0.26487,-1.0987200000000001,9.82962
3747474710,22.35,0.01918116847941768,0.022375121010567305,0.0,-0.27468000000000004,-1.6186500000000001,9.72171
3752525215,22.35,-0.006387905062299246,0.01064650843716541,0.002129301687433082,-0.60822,-1.54017,10.025820000000001
3757575720,22.35,0.0404741853537485,-0.02556907354171693,-0.003193952531149623,-0.43164,-1.00062,10.08468
3762626225,22.35,0.03089232776029963,-0.02982767691658309,-0.001064650843716541,0.009810000000000001,-1.3734000000000002,9.80019
3767676730,22.35,0.001064650843716541,0.015987215948268057,0.004258603374866164,-0.009810000000000001,-1.69713,9.78057
3772727235,22.35,0.028763026072866547,0.04366813788489812,0.0,-0.5591700000000001,-1.2360600000000002,9.92772
3777777740,22.35,0.06284930636431581,0.007452555906015787,0.002129301687433082,-0.6278400000000001,-0.89271,9.82962
3782828245,22.35,0.028763026072866547,-0.02769837522915001,0.001064650843716541,-0.22563,-1.3734000000000002,9.760950000000001
3787878750,22.35,-0.011711159280881954,-0.012775810124598492,0.0,-0.17658,-1.6677000000000002,9.84924
3792929255,22.35,0.03089232776029963,-0.0170518667919846,-0.001064650843716541,-0.25506,-1.20663,9.86886
3797979760,22.35,0.054332099614583476,-0.004258603374866164,0.0,0.04905,-1.06929,9.65304
3803030265,22.35,0.02982767691658309,0.02982767691658309,0.0,-0.08829,-1.5303600000000002,9.751140000000001
3808080770,22.35,0.024504422698000388,0.044732788728614664,0.003193952531149623,-0.72594,-1.22625,9.84924
3813131275,22.35,0.04794419455228423,-0.023439771854283843,-0.001064650843716541,-0.70632,-0.9613800000000001,9.79038
3818181780,22.35,0.023439771854283843,-0.04366813788489812,-0.004258603374866164,0.0,-1.52055,9.78057
3823232285,22.35,0.011711159280881954,0.001064650843716541,-0.001064650843716541,-0.15696000000000002,-1.5794100000000002,9.91791
3828282790,22.35,0.04366813788489812,0.006387905062299246,0.002129301687433082,-0.32373,-1.0987200000000001,9.99639
3833333295,22.35,0.06497860805174888,-0.002129301687433082,-0.004258603374866164,-0.12753,-1.05948,9.81
3838383800,22.35,0.03515093113516579,0.033021629447732716,0.0,-0.40221,-1.6284600000000002,9.92772
3843434305,22.35,0.02556907354171693,0.00958185759344887,-0.001064650843716541,-0.6867000000000001,-1.20663,10.01601
3848484810,22.35,0.05007349623971732,-0.039409534510031964,-0.004258603374866164,-0.3924,-1.00062,9.908100000000001
3853535315,22.35,0.04581489286485115,-0.023439771854283843,-0.003193952531149623,0.05886,-1.44207,9.68247
3858585820,22.35,0.020245819323134222,0.022375121010567305,0.001064650843716541,-0.21582,-1.45188,9.74133
3863636325,22.35,0.05646140130201656,0.006387905062299246,0.0,-0.5395500000000001,-0.9123300000000001,9.79038
3868686830,22.35,0.06497860805174888,-0.013840460968315033,0.0,-0.15696000000000002,-1.1281500000000002,9.6138
3873737335,22.35,0.04260348704118158,0.033021629447732716,0.0,-0.32373,-1.5696,9.70209
3878787840,22.35,0.02556907354171693,0.006387905062299246,0.0,-0.8338500000000001,-1.2753,10.006200000000002
3883838345,22.35,0.07136651311404815,-0.054332099614583476,0.0,-0.26487,-0.89271,10.01601
3888888850,22.35,0.04794419455228423,-0.01918116847941768,0.0,0.16677000000000003,-1.54017,9.82962
3893939355,22.35,0.020245819323134222,0.039409534510031964,0.0,-0.20601000000000003,-1.5794100000000002,9.91791
3898989860,22.35,0.07243116395776468,0.01811651763570114,0.0,-0.70632,-0.8829,9.92772
3904040365,22.35,0.07883652231258387,-0.021310470166850764,0.0,-0.12753,-0.79461,9.68247
3909090870,22.35,0.0404741853537485,0.01064650843716541,0.0,-0.04905,-1.81485,9.79038
3914141375,22.35,0.012775810124598492,0.02769837522915001,0.0,-0.65727,-1.3047300000000002,9.937529999999999
3919191880,22.35,0.09374163412461543,-0.022375121010567305,0.0,-0.65727,-0.73575,9.95715
3924242385,22.35,0.06391395720803235,-0.04794419455228423,0.0,0.13734000000000002,-1.2556800000000001,9.67266
3929292890,22.35,0.01918116847941768,0.014905111812031574,0.0,0.07848000000000001,-1.68732,10.006200000000002
3934343395,22.35,0.07030186227033158,0.04794419455228423,0.0,-0.6670800000000001,-1.13796,9.937529999999999
3939393900,22.35,0.09587093581204853,0.0,0.0,-0.34335000000000004,-0.47088,9.633420000000001
3944444405,22.35,0.07243116395776468,-0.01918116847941768,0.0,-0.10791,-1.1477700000000002,9.760950000000001
3949494910,22.35,-0.001064650843716541,-0.005323254218582705,0.0,-0.3924,-1.9227600000000002,9.80019
3954545415,22.35,0.07456046564519776,0.020245819323134222,0.0,-0.6768900000000001,-0.84366,9.83943
3959595920,22.35,0.10119419003063122,-0.0170518667919846,0.0,-0.3924,-0.63765,9.87867
3964646425,22.35,0.06178465552059926,-0.024504422698000388,0.0,-0.04905,-1.5303600000000002,9.74133
3969696930,22.35,0.0,-0.004258603374866164,0.0,-0.02943,-1.50093,10.045440000000001
3974747435,22.35,0.10545279340549739,0.03089232776029963,0.0,-0.44145,-1.0987200000000001,10.025820000000001
3979797940,22.35,0.10438814256178083,0.039409534510031964,0.0,-0.56898,-0.6670800000000001,9.53532
3984848445,22.35,0.06710790973918197,0.008517206749732328,0.0,-0.5886,-1.02024,9.94734
3989898950,22.35,0.01918116847941768,-0.07030186227033158,-0.006387905062299246,-0.47088,-1.5990300000000002,10.09449
3994949455,22.35,0.0756251164889143,-0.0404741853537485,-0.004258603374866164,0.04905,-0.9613800000000001,9.84924
3999999960,22.35,0.08628907821859966,0.06604325889546543,0.004258603374866164,-0.13734000000000002,-1.22625,9.53532
4005050465,22.35,0.09693558665576507,0.08415977653116657,0.005323254218582705,-0.95157,-0.75537,9.633420000000001
4010100970,22.35,0.09054768159346581,-0.0404741853537485,-0.005323254218582705,-0.9810000000000001,-0.5886,9.888480000000001
4015151475,22.35,0.04260348704118158,-0.10225884087434776,-0.005323254218582705,0.039240000000000004,-1.6284600000000002,9.85905
4020201980,22.35,0.02556907354171693,-0.01811651763570114,0.0,0.1962,-1.5499800000000001,9.87867
4025252485,22.35,0.09906488834319814,0.06391395720803235,0.0,-0.46107000000000004,-1.20663,10.03563
4030302990,22.35,0.13634512116579703,0.04794419455228423,0.0,-0.38259000000000004,-0.47088,9.760950000000001
4035353495,22.35,0.12463396188491506,0.0404741853537485,0.002129301687433082,-0.48069000000000006,-0.71613,9.87867
4040404000,22.35,0.03089232776029963,-0.012775810124598492,0.001064650843716541,-0.85347,-1.10853,9.67266
4045454505,22.35,0.0170518667919846,-0.09374163412461543,-0.003193952531149623,-0.5395500000000001,-1.52055,9.83943
4050505010,22.35,0.08628907821859966,-0.05539675045830002,-0.00958185759344887,0.44145,-0.87309,9.94734
4055555515,22.35,0.10225884087434776,0.054332099614583476,-0.004258603374866164,0.21582,-1.41264,9.908100000000001
4060606020,22.35,0.11292280260403312,0.12676326357234816,0.004258603374866164,-0.70632,-0.79461,9.7119
4065656525,22.35,0.13849187614575004,0.05007349623971732,0.002129301687433082,-1.26549,-0.45126,10.03563
4070707030,22.35,0.0852244273748831,-0.06710790973918197,-0.003193952531149623,-0.7651800000000001,-0.5591700000000001,9.89829
4075757535,22.35,0.00958185759344887,-0.12037535851004891,-0.005323254218582705,-0.23544,-1.8639000000000001,9.91791
4080808040,22.35,0.03728023282259888,-0.08203047484373349,-0.004258603374866164,0.33354000000000006,-1.05948,9.80019
4085858545,22.35,0.11824605682261582,0.031956978604016174,-0.002129301687433082,0.44145,-1.1281500000000002,10.03563
4090909050,22.35,0.1171814059788993,0.10119419003063122,0.002129301687433082,-0.10791,-1.0987200000000001,9.66285
4095959555,22.35,0.1480737337391989,0.12144000935376545,0.002129301687433082,-1.10853,-0.56898,9.92772
4101010060,22.35,0.1374272253020335,0.024504422698000388,0.0,-1.3341600000000002,-0.11772,9.74133
4106060565,22.35,0.07777187146886733,-0.05539675045830002,-0.001064650843716541,-0.7848,-0.6670800000000001,9.67266
4111111070,22.35,-0.005323254218582705,-0.10332349171806432,-0.002129301687433082,-0.5395500000000001,-2.10915,9.888480000000001
4116161575,22.35,0.023439771854283843,-0.09374163412461543,-0.003193952531149623,0.23544,-0.8829,10.31031
4121212080,22.35,0.14700908289548237,-0.0170518667919846,-0.005323254218582705,0.85347,-0.79461,10.17297
4126262585,22.35,0.09374163412461543,0.08948303074974927,0.0,0.32373,-1.1183400000000001,9.42741
4131313090,22.35,0.11824605682261582,0.11931070766633237,0.003193952531149623,-0.9221400000000001,-0.95157,9.937529999999999
4136363595,22.35,0.14487978120804929,0.022375121010567305,0.0,-1.1477700000000002,-0.34335000000000004,10.03563
4141414100,22.35,0.12356931104119852,-0.020245819323134222,-0.002129301687433082,-0.47088,-0.37278,9.751140000000001
4146464605,22.35,0.04260348704118158,-0.03408628029144926,-0.002129301687433082,-0.5395500000000001,-1.1477700000000002,9.65304
4151515110,22.35,0.033021629447732716,-0.06604325889546543,-0.002129301687433082,-0.5395500000000001,-1.3243500000000001,9.84924
4156565615,22.35,0.11079350091660004,-0.049008845396000776,-0.002129301687433082,-0.06867000000000001,-0.6768900000000001,9.937529999999999
4161616120,22.35,0.11292280260403312,0.01064650843716541,0.001064650843716541,0.04905,-0.87309,9.80019
4166666625,22.35,0.1097288500728835,0.054332099614583476,0.0,-0.23544,-0.8829,9.68247
4171717130,22.35,0.11292280260403312,0.04153883619746504,-0.001064650843716541,-0.63765,-0.60822,9.95715
4176767635,22.35,0.12250466019748199,-0.002129301687433082,0.0,-0.52974,-0.60822,9.92772
4181818140,22.35,0.0852244273748831,-0.01811651763570114,0.001064650843716541,-0.3924,-0.75537,9.73152
4186868645,22.35,0.06710790973918197,-0.03515093113516579,-0.002129301687433082,-0.31392000000000003,-1.03005,9.86886
4191919150,22.35,0.0852244273748831,-0.02769837522915001,-0.004258603374866164,-0.08829,-0.87309,10.006200000000002
4196969655,22.35,0.12676326357234816,0.013840460968315033,-0.002129301687433082,-0.17658,-0.7651800000000001,9.908100000000001
4202020160,22.35,0.11505210429146619,0.02556907354171693,0.0,-0.32373,-0.6180300000000001,9.72171
4207070665,22.35,0.11824605682261582,0.020245819323134222,0.0,-0.37278,-0.5591700000000001,9.760950000000001
4212121170,22.35,0.10866419922916695,-0.005323254218582705,-0.002129301687433082,-0.41202000000000005,-0.8142300000000001,9.89829
4217171675,22.35,0.09587093581204853,0.003193952531149623,0.0,-0.41202000000000005,-0.72594,9.81
4222222180,22.35,0.10012953918691468,-0.011711159280881954,-0.002129301687433082,-0.47088,-0.57879,9.819809999999999
4227272685,22.35,0.10545279340549739,-0.02769837522915001,-0.001064650843716541,-0.12753,-0.6278400000000001,9.760950000000001
4232323190,22.35,0.09161233243718235,-0.004258603374866164,-0.001064650843716541,-0.08829,-1.01043,9.888480000000001
4237373695,22.35,0.1097288500728835,0.031956978604016174,0.0,-0.43164,-0.6867000000000001,9.89829
4242424200,22.35,0.1331511686346474,0.015987215948268057,0.0,-0.51012,-0.48069000000000006,9.87867
4247474705,22.35,0.12676326357234816,0.021310470166850764,-0.001064650843716541,-0.45126,-0.46107000000000004,9.819809999999999
4252525210,22.35,0.10759954838545042,0.007452555906015787,-0.001064650843716541,-0.65727,-0.65727,9.937529999999999
4257575715,22.35,0.09800023749948161,-0.01811651763570114,-0.002129301687433082,-0.57879,-0.64746,9.888480000000001
4262626220,22.35,0.09480628496833199,-0.023439771854283843,0.0,-0.46107000000000004,-0.52974,9.80019
4267676725,22.35,0.10012953918691468,-0.031956978604016174,0.0,-0.18639,-0.56898,9.82962
4272727230,22.35,0.10332349171806432,-0.01918116847941768,-0.003193952531149623,-0.009810000000000001,-0.8338500000000001,9.83943
4277777735,22.35,0.10866419922916695,0.02663372438543347,0.0,-0.26487,-0.6180300000000001,9.79038
4282828240,22.35,0.1374272253020335,0.022375121010567305,0.0,-0.40221,-0.28449,9.770760000000001
4287878745,22.35,0.12250466019748199,-0.002129301687433082,-0.003193952531149623,-0.15696000000000002,-0.50031,9.81
4292929250,22.35,0.1097288500728835,0.014905111812031574,0.0,-0.32373,-0.56898,9.819809999999999
4297979755,22.35,0.10012953918691468,-0.011711159280881954,-0.001064650843716541,-0.56898,-0.6180300000000001,9.82962
4303030260,22.35,0.11398745344774965,-0.013840460968315033,-0.001064650843716541,-0.24525000000000002,-0.38259000000000004,9.760950000000001
4308080765,22.35,0.1097288500728835,-0.01064650843716541,0.0,-0.26487,-0.6278400000000001,9.937529999999999
4313131270,22.35,0.11185815176031658,0.001064650843716541,-0.001064650843716541,-0.15696000000000002,-0.59841,9.91791
4318181775,22.35,0.13208651779093086,0.022375121010567305,-0.002129301687433082,-0.45126,-0.57879,9.92772
4323232280,22.35,0.1171814059788993,0.024504422698000388,0.001064650843716541,-0.50031,-0.36297,9.819809999999999
4328282785,22.35,0.13421581947836395,0.0,-0.003193952531149623,-0.5493600000000001,-0.22563,9.888480000000001
4333333290,22.35,0.10653489754173388,-0.007452555906015787,-0.005323254218582705,-0.34335000000000004,-0.52974,9.89829
4338383795,22.35,0.09800023749948161,0.005323254218582705,0.0,-0.52974,-0.51993,9.760950000000001
4343434300,22.35,0.10759954838545042,-0.021310470166850764,0.001064650843716541,-0.6768900000000001,-0.30411,9.80019
4348484805,22.35,0.12144000935376545,-0.05007349623971732,-0.005323254218582705,-0.02943,-0.25506,9.79038
4353535310,22.35,0.09800023749948161,-0.011711159280881954,-0.003193952531149623,0.07848000000000001,-0.64746,9.85905
4358585815,22.35,0.08948303074974927,0.001064650843716541,0.0,-0.18639,-0.6670800000000001,9.819809999999999
4363636320,22.35,0.13421581947836395,0.012775810124598492,-0.001064650843716541,-0.18639,-0.31392000000000003,9.79038
4368686825,22.35,0.15659094048893124,0.046879543708567686,-0.001064650843716541,-0.18639,-0.24525000000000002,9.81
4373737330,22.35,0.13955652698946658,0.06817256058289851,0.001064650843716541,-0.60822,-0.3924,9.79038
4378787835,22.35,0.12569861272863161,0.04260348704118158,0.003193952531149623,-1.03986,-0.15696000000000002,9.82962
4383838340,22.35,0.12250466019748199,-0.02556907354171693,-0.002129301687433082,-0.9711900000000001,0.17658,9.85905
4388888845,22.35,0.07670722062515077,-0.10225884087434776,-0.008517206749732328,-0.22563,-0.38259000000000004,9.97677
4393939350,22.35,0.03621558197888234,-0.08203047484373349,-0.005323254218582705,0.12753,-1.06929,9.84924
4398989855,22.35,0.07670722062515077,-0.03408628029144926,-0.002129301687433082,0.3924,-0.46107000000000004,10.01601
4404040360,22.35,0.16617279808238014,0.031956978604016174,-0.003193952531149623,0.38259000000000004,-0.44145,9.87867
4409090865,22.35,0.19280652246781357,0.14700908289548237,0.002129301687433082,-0.08829,-0.16677000000000003,9.5157
4414141370,22.35,0.17470745812463237,0.150203035426632,0.006387905062299246,-1.3243500000000001,0.13734000000000002,9.84924
4419191875,22.35,0.1480737337391989,0.005323254218582705,0.0,-1.49112,0.60822,9.79038
4424242380,22.35,0.07670722062515077,-0.1352804703220805,-0.01064650843716541,-0.57879,0.009810000000000001,9.67266
4429292885,22.35,-0.01064650843716541,-0.15339698795778162,-0.004258603374866164,0.1962,-1.69713,9.81
4434343390,22.35,0.031956978604016174,-0.060720004676882725,-0.003193952531149623,0.87309,-0.5493600000000001,10.27107
4439393895,22.35,0.20347048419749894,0.06284930636431581,0.002129301687433082,0.38259000000000004,-0.28449,10.09449
4444444400,22.35,0.21944024685324706,0.1555262896452147,0.003193952531149623,-0.039240000000000004,0.59841,9.11349
4449494905,22.35,0.17257815643719931,0.13849187614575004,0.004258603374866164,-1.24587,0.16677000000000003,9.80019
4454545410,22.35,0.09480628496833199,-0.031956978604016174,0.0,-1.2360600000000002,0.04905,9.83943
4459595915,22.35,0.06710790973918197,-0.1278279144160647,-0.006387905062299246,-0.50031,-0.07848000000000001,9.888480000000001
4464646420,22.35,0.04260348704118158,-0.10225884087434776,-0.007452555906015787,0.05886,-0.87309,9.92772
4469696925,22.35,0.07883652231258387,-0.005323254218582705,-0.001064650843716541,0.0,-0.5591700000000001,9.86886
4474747430,22.35,0.15233233711406508,0.02556907354171693,0.0,-0.15696000000000002,0.20601000000000003,9.92772
4479797935,22.35,0.18428931571808121,0.02769837522915001,-0.002129301687433082,0.11772,0.22563,9.67266
4484848440,22.35,0.12144000935376545,0.07456046564519776,0.001064650843716541,-0.17658,-0.41202000000000005,9.66285
4489898945,22.35,0.10332349171806432,0.0756251164889143,0.002129301687433082,-1.05948,-0.0981,9.888480000000001
4494949450,22.35,0.15233233711406508,-0.022375121010567305,-0.002129301687433082,-1.08891,0.5395500000000001,9.87867
4499999955,22.35,0.11292280260403312,-0.08841837990603273,-0.006387905062299246,-0.1962,0.20601000000000003,9.68247
4505050460,22.35,0.03408628029144926,-0.06178465552059926,-0.002129301687433082,0.14715,-0.71613,9.73152
4510100965,22.35,0.060720004676882725,-0.0170518667919846,-0.002129301687433082,-0.22563,-0.79461,10.025820000000001
4515151470,22.35,0.16510814723866357,0.031956978604016174,0.0,-0.24525000000000002,0.37278,9.908100000000001
4520201975,22.35,0.19067722078038052,0.04153883619746504,-0.001064650843716541,-0.039240000000000004,0.49050000000000005,9.78057
4525252480,22.35,0.11611675513518273,0.0404741853537485,-0.001064650843716541,-0.24525000000000002,-0.08829,9.64323
4530302985,22.35,0.07777187146886733,0.023439771854283843,-0.002129301687433082,-0.80442,-0.2943,9.888480000000001
4535353490,22.35,0.11292280260403312,-0.01918116847941768,0.0,-0.84366,0.27468000000000004,10.006200000000002
4540403995,22.35,0.12995721610349775,-0.05965535383316618,0.0,-0.27468000000000004,0.32373,9.80019
4545454500,22.35,0.0852244273748831,-0.03834488366631542,-0.001064650843716541,0.06867000000000001,-0.25506,9.633420000000001
4550505005,22.35,0.07136651311404815,0.006387905062299246,-0.003193952531149623,-0.05886,-0.5493600000000001,9.937529999999999
4555555510,22.35,0.13849187614575004,0.05220279792715039,0.002129301687433082,-0.46107000000000004,0.26487,9.888480000000001
4560606015,22.35,0.18748326824923087,0.04260348704118158,0.0,-0.56898,0.79461,9.6138
4565656520,22.35,0.1097288500728835,-0.005323254218582705,0.0,-0.27468000000000004,0.21582,9.57456
4570707025,22.35,0.049008845396000776,-0.01918116847941768,-0.003193952531149623,-0.35316,-0.27468000000000004,9.80019
4575757530,22.35,0.08948303074974927,-0.02769837522915001,-0.001064650843716541,-0.6180300000000001,-0.08829,9.95715
4580808035,22.35,0.13208651779093086,-0.01918116847941768,-0.002129301687433082,-0.15696000000000002,0.41202000000000005,9.751140000000001
4585858540,22.35,0.10759954838545042,-0.008517206749732328,-0.004258603374866164,-0.07848000000000001,0.04905,9.78057
4590909045,22.35,0.09800023749948161,0.01811651763570114,-0.003193952531149623,-0.11772,-0.17658,9.82962
4595959550,22.35,0.12463396188491506,0.05113814708343386,-0.002129301687433082,-0.49050000000000005,0.20601000000000003,9.89829
4601010055,22.35,0.1374272253020335,0.02663372438543347,0.0,-0.69651,0.6768900000000001,9.80019
4606060560,22.35,0.11079350091660004,-0.04581489286485115,-0.003193952531149623,-0.41202000000000005,0.2943,9.6138
4611111065,22.35,0.06178465552059926,-0.03728023282259888,-0.002129301687433082,0.0,-0.32373,9.81
4616161570,22.35,0.08948303074974927,0.01811651763570114,0.0,-0.33354000000000006,0.0,9.96696
4621212075,22.35,0.1374272253020335,0.012775810124598492,0.002129301687433082,-0.5591700000000001,0.50031,9.70209
4626262580,22.35,0.14487978120804929,0.002129301687433082,-0.002129301687433082,-0.0981,0.49050000000000005,9.633420000000001
4631313085,22.35,0.08203047484373349,0.023439771854283843,-0.001064650843716541,-0.34335000000000004,-0.08829,9.92772
4636363590,22.35,0.08948303074974927,0.00958185759344887,-0.004258603374866164,-0.6867000000000001,0.25506,9.888480000000001
4641414095,22.35,0.1171814059788993,-0.02556907354171693,-0.002129301687433082,-0.52974,0.60822,9.64323
4646464600,22.35,0.09374163412461543,-0.02769837522915001,-0.003193952531149623,0.009810000000000001,0.26487,9.67266
4651515105,22.35,0.06497860805174888,-0.012775810124598492,-0.002129301687433082,-0.16677000000000003,-0.2943,9.89829
4656565610,22.35,0.09480628496833199,0.006387905062299246,-0.002129301687433082,-0.21582,0.25506,9.83943
4661616115,22.35,0.15126768627034853,0.04260348704118158,0.0,-0.28449,0.7749900000000001,9.72171
4666666620,22.35,0.11824605682261582,0.023439771854283843,0.0,-0.41202000000000005,0.28449,9.770760000000001
4671717125,22.35,0.06604325889546543,-0.011711159280881954,-0.002129301687433082,-0.48069000000000006,0.12753,9.770760000000001
4676767630,22.35,0.10012953918691468,-0.020245819323134222,0.0,-0.43164,0.43164,9.908100000000001
4681818135,22.35,0.11611675513518273,-0.01064650843716541,0.001064650843716541,-0.2943,0.49050000000000005,9.73152
4686868640,22.35,0.08415977653116657,-0.008517206749732328,0.0,-0.21582,0.17658,9.60399
4691919145,22.35,0.07777187146886733,-0.012775810124598492,-0.002129301687433082,-0.24525000000000002,0.20601000000000003,9.87867
4696969650,22.35,0.11185815176031658,0.002129301687433082,-0.004258603374866164,-0.16677000000000003,0.34335000000000004,9.95715
4702020155,22.35,0.11824605682261582,0.05220279792715039,0.0,-0.33354000000000006,0.56898,9.60399
4707070660,22.35,0.09480628496833199,0.01811651763570114,0.0,-0.63765,0.60822,9.64323
4712121165,22.35,0.08628907821859966,-0.03515093113516579,-0.003193952531149623,-0.48069000000000006,0.22563,9.91791
4717171670,22.35,0.07349581480148122,-0.013840460968315033,-0.001064650843716541,-0.20601000000000003,0.26487,9.79038
4722222175,22.35,0.08203047484373349,-0.001064650843716541,0.001064650843716541,-0.3924,0.44145,9.770760000000001
4727272680,22.35,0.10759954838545042,-0.012775810124598492,0.0,-0.08829,0.5886,9.6138
4732323185,22.35,0.08948303074974927,0.007452555906015787,-0.002129301687433082,-0.14715,0.14715,9.751140000000001
4737373690,22.35,0.07670722062515077,0.03621558197888234,0.0,-0.42183,0.40221,9.79038
4742424195,22.35,0.1171814059788993,0.015987215948268057,0.0,-0.70632,0.7749900000000001,9.86886
4747474700,22.35,0.10225884087434776,-0.0170518667919846,-0.002129301687433082,-0.41202000000000005,0.65727,9.64323
4752525205,22.35,0.05859070298944965,-0.024504422698000388,0.001064650843716541,-0.20601000000000003,0.28449,9.74133
4757575710,22.35,0.05539675045830002,-0.01918116847941768,-0.001064650843716541,-0.27468000000000004,0.20601000000000003,9.937529999999999
4762626215,22.35,0.09161233243718235,-0.003193952531149623,-0.002129301687433082,-0.25506,0.49050000000000005,9.72171
4767676720,22.35,0.10332349171806432,0.014905111812031574,0.001064650843716541,-0.0981,0.59841,9.64323
4772727225,22.35,0.09267698328089889,0.022375121010567305,-0.002129301687433082,-0.2943,0.45126,9.85905
4777777730,22.35,0.09267698328089889,0.02769837522915001,0.0,-0.48069000000000006,0.60822,9.72171
4782828235,22.35,0.09054768159346581,0.006387905062299246,0.0,-0.56898,0.6867000000000001,9.58437
4787878740,22.35,0.06178465552059926,-0.03089232776029963,-0.002129301687433082,-0.34335000000000004,0.41202000000000005,9.72171
4792929245,22.35,0.060720004676882725,-0.033021629447732716,-0.001064650843716541,-0.27468000000000004,0.34335000000000004,9.819809999999999
4797979750,22.35,0.0756251164889143,-0.014905111812031574,0.0,-0.0981,0.5395500000000001,9.80019
4803030255,22.35,0.09800023749948161,0.03089232776029963,0.0,-0.10791,0.6180300000000001,9.67266
4808080760,22.35,0.08203047484373349,0.033021629447732716,-0.001064650843716541,-0.52974,0.48069000000000006,9.60399
4813131265,22.35,0.07670722062515077,-0.001064650843716541,0.001064650843716541,-0.50031,0.6768900000000001,9.770760000000001
4818181770,22.35,0.08309512568745003,-0.023439771854283843,-0.004258603374866164,-0.28449,0.70632,9.91791
4823232275,22.35,0.05646140130201656,-0.022375121010567305,-0.001064650843716541,-0.17658,0.42183,9.633420000000001
4828282780,22.35,0.054332099614583476,0.0,0.0,-0.21582,0.51012,9.64323
4833333285,22.35,0.09054768159346581,0.00958185759344887,0.001064650843716541,-0.14715,0.5493600000000001,9.86886
4838383790,22.35,0.08309512568745003,0.02769837522915001,-0.001064650843716541,-0.24525000000000002,0.6180300000000001,9.64323
4843434295,22.35,0.08203047484373349,0.03728023282259888,0.002129301687433082,-0.60822,0.8829,9.56475
4848484800,22.35,0.07136651311404815,-0.021310470166850764,0.002129301687433082,-0.5493600000000001,0.6670800000000001,9.82962
4853535305,22.35,0.039409534510031964,-0.04366813788489812,-0.003193952531149623,-0.11772,0.42183,9.84924
4858585810,22.35,0.05646140130201656,-0.004258603374866164,0.001064650843716541,-0.22563,0.57879,9.73152
4863636315,22.35,0.07243116395776468,-0.002129301687433082,-0.002129301687433082,-0.17658,0.70632,9.65304
4868686820,22.35,0.07136651311404815,0.006387905062299246,0.0,-0.11772,0.5591700000000001,9.751140000000001
4873737325,22.35,0.06497860805174888,0.022375121010567305,0.0,-0.37278,0.60822,9.819809999999999
4878787830,22.35,0.07670722062515077,0.00958185759344887,0.0,-0.40221,0.84366,9.87867
4883838335,22.35,0.06923721142661506,-0.01064650843716541,0.0,-0.36297,0.8142300000000001,9.68247
4888888840,22.35,0.05220279792715039,-0.008517206749732328,0.003193952531149623,-0.30411,0.60822,9.55494
4893939345,22.35,0.046879543708567686,-0.01064650843716541,-0.001064650843716541,-0.33354000000000006,0.5886,9.7119
4898989850,22.35,0.05646140130201656,-0.0170518667919846,0.0,-0.18639,0.70632,9.73152
4904040355,22.35,0.06391395720803235,0.012775810124598492,-0.001064650843716541,-0.16677000000000003,0.74556,9.6138
4909090860,22.35,0.05326744877086694,0.01918116847941768,0.001064650843716541,-0.32373,0.6278400000000001,9.81
4914141365,22.35,0.05859070298944965,-0.001064650843716541,0.0,-0.38259000000000004,0.7749900000000001,9.85905
4919191870,22.35,0.07030186227033158,0.008517206749732328,-0.001064650843716541,-0.3924,0.80442,9.64323
4924242375,22.35,0.04581489286485115,-0.002129301687433082,0.002129301687433082,-0.37278,0.7848,9.58437
4929292880,22.35,0.033021629447732716,-0.023439771854283843,-0.003193952531149623,-0.31392000000000003,0.64746,9.82962
4934343385,22.35,0.04366813788489812,-0.0170518667919846,-0.003193952531149623,-0.16677000000000003,0.6278400000000001,9.760950000000001
4939393890,22.35,0.05007349623971732,0.00958185759344887,0.0,-0.14715,0.6867000000000001,9.65304
4944444395,22.35,0.05646140130201656,0.00958185759344887,0.002129301687433082,-0.31392000000000003,0.80442,9.7119
4949494900,22.35,0.060720004676882725,0.012775810124598492,0.0,-0.36297,0.8142300000000001,9.74133
4954545405,22.35,0.046879543708567686,0.004258603374866164,-0.001064650843716541,-0.26487,0.72594,9.81
4959595910,22.35,0.039409534510031964,0.0,0.001064650843716541,-0.37278,0.79461,9.69228
4964646415,22.35,0.049008845396000776,-0.00958185759344887,0.0,-0.37278,0.8142300000000001,9.54513
4969696920,22.35,0.03621558197888234,-0.005323254218582705,0.0,-0.15696000000000002,0.71613,9.64323
4974747425,22.35,0.028763026072866547,0.002129301687433082,0.0,-0.18639,0.6867000000000001,9.81
4979797930,22.35,0.05539675045830002,0.013840460968315033,0.0,-0.51012,0.8240400000000001,9.55494
4984848435,22.35,0.044732788728614664,0.0,0.0,-0.31392000000000003,0.86328,9.633420000000001
4989898940,22.35,0.023439771854283843,-0.00958185759344887,0.0,-0.1962,0.69651,9.95715
4994949445,22.35,0.033021629447732716,-0.002129301687433082,0.0,-0.37278,0.65727,9.82962
4999999950,22.35,0.04366813788489812,-0.008517206749732328,0.0,-0.30411,0.89271,9.6138
5005050455,22.35,0.03834488366631542,0.0,0.0,-0.10791,0.86328,9.70209
5010100960,22.35,0.03515093113516579,0.007452555906015787,0.0,-0.26487,0.63765,9.74133
5015151465,22.35,0.02769837522915001,0.008517206749732328,0.0,-0.37278,0.84366,9.72171
5020201970,22.35,0.04153883619746504,-0.006387905062299246,0.0,-0.23544,0.9908100000000001,9.65304
5025252475,22.35,0.03515093113516579,0.014905111812031574,0.0,-0.32373,0.8142300000000001,9.47646
5030302980,22.35,0.01064650843716541,0.001064650843716541,0.0,-0.36297,0.71613,9.623610000000001
5035353485,22.35,0.0170518667919846,-0.00958185759344887,0.0,-0.35316,0.89271,9.85905
5040403990,22.35,0.031956978604016174,-0.012775810124598492,0.0,-0.22563,0.7651800000000001,9.74133
5045454495,22.35,0.01918116847941768,0.006387905062299246,0.0,-0.27468000000000004,0.7749900000000001,9.60399
5050505000,22.35,0.015987215948268057,-0.00958185759344887,0.0,-0.26487,0.72594,9.91791
5055555505,22.35,0.02982767691658309,0.0,0.0,-0.20601000000000003,0.8142300000000001,9.83943
5060606010,22.35,0.033021629447732716,0.01811651763570114,0.0,-0.25506,0.8338500000000001,9.623610000000001
5065656515,22.35,0.012775810124598492,0.002129301687433082,0.0,-0.36297,0.87309,9.633420000000001
5070707020,22.35,0.02769837522915001,0.001064650843716541,0.0,-0.31392000000000003,0.9221400000000001,9.72171
5075757525,22.35,0.01811651763570114,0.001064650843716541,0.0,-0.2943,0.73575,9.65304
5080808030,22.35,0.0,-0.002129301687433082,0.0,-0.25506,0.8829,9.58437
5085858535,22.35,0.015987215948268057,-0.013840460968315033,0.0,-0.33354000000000006,0.89271,9.633420000000001
5090909040,22.35,0.01811651763570114,-0.005323254218582705,0.0,0.0,0.74556,9.64323
5095959545,22.35,0.003193952531149623,0.02556907354171693,0.0,-0.26487,0.72594,9.73152
5101010050,22.35,0.01811651763570114,0.00958185759344887,0.0,-0.5886,0.9613800000000001,9.70209
5106060555,22.35,0.02982767691658309,-0.013840460968315033,0.0,-0.26487,1.00062,9.633420000000001
5111111060,22.35,-0.003193952531149623,0.003193952531149623,0.0,-0.14715,0.7848,9.70209
5116161565,22.35,-0.01918116847941768,-0.011711159280881954,0.0,-0.43164,0.72594,9.751140000000001
5121212070,22.35,0.005323254218582705,-0.023439771854283843,0.0,-0.17658,0.80442,9.7119
5126262575,22.35,0.015987215948268057,0.01064650843716541,0.0,-0.06867000000000001,0.7651800000000001,9.73152
5131313080,22.35,-0.002129301687433082,0.015987215948268057,0.0,-0.32373,0.7651800000000001,9.85905
5136363585,22.35,0.015987215948268057,0.0,0.0,-0.26487,1.02024,9.770760000000001
5141414090,22.35,0.014905111812031574,0.013840460968315033,0.0,-0.13734000000000002,0.8338500000000001,9.67266
5146464595,22.35,-0.022375121010567305,0.012775810124598492,0.0,-0.43164,0.75537,9.64323
5151515100,22.35,0.0,-0.021310470166850764,0.0,-0.42183,1.04967,9.64323
5156565605,22.35,0.0,-0.02982767691658309,0.0,0.06867000000000001,0.71613,9.64323
5161616110,22.35,-0.020245819323134222,0.031956978604016174,0.0,-0.14715,0.56898,9.69228
5166666615,22.35,0.006387905062299246,0.02663372438543347,0.0,-0.6768900000000001,1.06929,9.79038
5171717120,22.35,0.022375121010567305,-0.02982767691658309,0.0,-0.22563,1.1281500000000002,9.73152
5176767625,22.35,-0.020245819323134222,-0.002129301687433082,0.0,0.039240000000000004,0.44145,9.770760000000001
5181818130,22.35,-0.03621558197888234,0.024504422698000388,0.0,-0.57879,0.5886,9.92772
5186868635,22.35,0.011711159280881954,-0.03089232776029963,0.0,-0.49050000000000005,1.16739,9.908100000000001
5191919140,22.35,0.021310470166850764,-0.03834488366631542,0.0,0.22563,0.9613800000000001,9.68247
5196969645,22.35,-0.03408628029144926,0.03515093113516579,0.0,0.06867000000000001,0.41202000000000005,9.58437
5202020150,22.35,-0.013840460968315033,0.05646140130201656,0.0,-0.6180300000000001,0.89271,9.69228
5207070655,22.35,0.03408628029144926,0.0,0.0,-0.57879,1.34397,9.54513
5212121160,22.35,-0.001064650843716541,-0.023439771854283843,0.0,-0.08829,1.04967,9.3195
5217171665,22.35,-0.07670722062515077,-0.024504422698000388,0.0,-0.11772,0.33354000000000006,9.6138
5222222170,22.35,-0.04366813788489812,-0.013840460968315033,0.0,-0.25506,0.5886,9.81
5227272675,22.35,0.024504422698000388,0.02663372438543347,0.0,-0.28449,1.16739,9.57456
5232323180,22.35,-0.008517206749732328,0.020245819323134222,0.0,-0.30411,1.04967,9.52551
5237373685,22.35,-0.05007349623971732,-0.02982767691658309,0.0,-0.28449,0.56898,9.908100000000001
5242424190,22.35,-0.05113814708343386,-0.03621558197888234,0.0,-0.12753,0.35316,10.09449
5247474695,22.35,-0.01918116847941768,0.014905111812031574,0.0,-0.12753,0.7848,9.908100000000001
5252525200,22.35,0.011711159280881954,0.04260348704118158,0.0,-0.44145,1.1281500000000002,9.83943
5257575705,22.35,-0.008517206749732328,-0.007452555906015787,0.0,-0.38259000000000004,0.9711900000000001,9.68247
5262626210,22.35,-0.05220279792715039,-0.03515093113516579,0.0,0.0,0.7651800000000001,9.66285
5267676715,22.35,-0.054332099614583476,-0.012775810124598492,0.0,0.0,0.42183,9.73152
5272727220,22.35,-0.01811651763570114,0.046879543708567686,0.0,-0.28449,0.65727,9.59418
5277777725,22.35,0.014905111812031574,0.05113814708343386,0.0,-0.6670800000000001,1.29492,9.60399
5282828230,22.35,-0.001064650843716541,-0.0170518667919846,0.0,-0.41202000000000005,1.2556800000000001,9.57456
5287878735,22.35,-0.06178465552059926,-0.039409534510031964,0.0,-0.039240000000000004,0.74556,9.47646
5292929240,22.35,-0.10225884087434776,-0.03515093113516579,0.0,-0.21582,0.2943,9.56475
5297979745,22.35,-0.07670722062515077,-0.05859070298944965,0.0,0.019620000000000002,0.26487,9.92772
5303030250,22.35,0.007452555906015787,0.033021629447732716,0.0,0.23544,0.8240400000000001,9.94734
5308080755,22.35,0.013840460968315033,0.09587093581204853,0.0,-0.38259000000000004,0.95157,9.84924
5313131260,22.35,-0.00958185759344887,0.07030186227033158,0.0,-0.95157,1.1477700000000002,9.751140000000001
5318181765,22.35,-0.04366813788489812,-0.0404741853537485,0.0,-0.87309,1.03986,9.85905
5323232270,22.35,-0.10545279340549739,-0.12676326357234816,0.0,-0.02943,0.49050000000000005,9.888480000000001
5328282775,22.35,-0.10332349171806432,-0.08948303074974927,0.0,0.47088,0.24525000000000002,9.72171
5333333280,22.35,-0.05220279792715039,0.00958185759344887,0.0,0.42183,0.039240000000000004,9.73152
5338383785,22.35,0.022375121010567305,0.12995721610349775,0.0,-0.04905,0.89271,9.78057
5343434290,22.35,0.060720004676882725,0.1480737337391989,0.003193952531149623,-1.03986,1.6186500000000001,9.7119
5348484795,22.35,-0.004258603374866164,0.021310470166850764,-0.002129301687433082,-1.0987200000000001,1.4813100000000001,9.34893
5353535300,22.35,-0.10545279340549739,-0.06710790973918197,-0.002129301687433082,-0.80442,0.7749900000000001,9.2214
5358585805,22.35,-0.17364280728091586,-0.14487978120804929,-0.002129301687433082,-0.43164,0.22563,9.72171
5363636310,22.35,-0.1331511686346474,-0.15872024217636432,-0.003193952531149623,0.48069000000000006,0.1962,9.908100000000001
5368686815,22.35,-0.044732788728614664,-0.02663372438543347,0.0,1.0987200000000001,0.15696000000000002,9.83943
5373737320,22.35,-0.014905111812031574,0.1278279144160647,0.002129301687433082,0.40221,0.42183,9.937529999999999
5378787825,22.35,0.0404741853537485,0.15978489302008084,0.005323254218582705,-0.59841,1.3047300000000002,10.17297
5383838330,22.35,0.039409534510031964,0.08415977653116657,-0.001064650843716541,-1.03986,1.3243500000000001,9.91791
5388888835,22.35,-0.060720004676882725,0.004258603374866164,-0.003193952531149623,-0.95157,0.9123300000000001,9.496080000000001
5393939340,22.35,-0.13102186694721432,-0.06817256058289851,0.0,-0.9613800000000001,0.5493600000000001,9.7119
5398989845,22.35,-0.11185815176031658,-0.14487978120804929,-0.007452555906015787,-0.21582,0.40221,9.73152
5404040350,22.35,-0.0756251164889143,-0.06178465552059926,-0.003193952531149623,0.6768900000000001,0.37278,9.48627
5409090855,22.35,-0.05752605214573309,0.06923721142661506,0.005323254218582705,0.27468000000000004,0.46107000000000004,9.68247
5414141360,22.35,-0.006387905062299246,0.07456046564519776,0.002129301687433082,-0.24525000000000002,0.9123300000000001,9.70209
5419191865,22.35,0.0,0.05220279792715039,-0.003193952531149623,-0.42183,0.8829,9.65304
5424242370,22.35,-0.05965535383316618,0.03834488366631542,0.004258603374866164,-0.6867000000000001,0.80442,9.59418
5429292875,22.35,-0.09267698328089889,-0.031956978604016174,-0.001064650843716541,-0.8142300000000001,0.7749900000000001,9.937529999999999
5434343380,22.35,-0.09267698328089889,-0.10438814256178083,-0.005323254218582705,-0.16677000000000003,0.42183,9.86886
5439393885,22.35,-0.09906488834319814,-0.05007349623971732,0.0,0.28449,0.12753,9.760950000000001
5444444390,22.35,-0.06710790973918197,0.022375121010567305,0.007452555906015787,-0.04905,0.43164,9.86886
5449494895,22.35,-0.01064650843716541,0.039409534510031964,0.002129301687433082,-0.12753,0.89271,9.91791
5454545400,22.35,-0.024504422698000388,0.046879543708567686,0.002129301687433082,-0.15696000000000002,0.7848,9.68247
5459595905,22.35,-0.06284930636431581,0.03621558197888234,0.001064650843716541,-0.6768900000000001,0.60822,9.60399
5464646410,22.35,-0.07670722062515077,-0.01918116847941768,0.0,-0.63765,0.71613,9.69228
5469696915,22.35,-0.07883652231258387,-0.03621558197888234,0.0,-0.27468000000000004,0.70632,9.6138
5474747420,22.35,-0.09267698328089889,-0.0170518667919846,0.002129301687433082,-0.17658,0.42183,9.6138
5479797925,22.35,-0.08735372906231618,-0.012775810124598492,0.001064650843716541,-0.22563,0.38259000000000004,9.6138
5484848430,22.35,-0.06923721142661506,0.002129301687433082,0.001064650843716541,-0.18639,0.6278400000000001,9.78057
5489898935,22.35,-0.05646140130201656,0.0,0.002129301687433082,-0.18639,0.6180300000000001,9.81
5494949440,22.35,-0.07777187146886733,0.005323254218582705,0.001064650843716541,-0.13734000000000002,0.49050000000000005,9.908100000000001
5499999945,22.35,-0.07456046564519776,0.006387905062299246,0.001064650843716541,-0.34335000000000004,0.56898,9.80019
5505050450,22.35,-0.07349581480148122,-0.01918116847941768,0.001064650843716541,-0.22563,0.5886,9.74133
5510100955,22.35,-0.08628907821859966,-0.020245819323134222,0.001064650843716541,0.02943,0.46107000000000004,9.760950000000001
5515151460,22.35,-0.09800023749948161,0.005323254218582705,0.0,-0.04905,0.23544,9.888480000000001
5520201965,22.35,-0.06604325889546543,0.01064650843716541,0.002129301687433082,-0.1962,0.48069000000000006,9.83943
5525252470,22.35,-0.039409534510031964,0.03408628029144926,0.004258603374866164,-0.2943,0.6670800000000001,9.7119
5530302975,22.35,-0.05539675045830002,0.04260348704118158,0.002129301687433082,-0.48069000000000006,0.6768900000000001,9.68247
5535353480,22.35,-0.08309512568745003,0.008517206749732328,0.0,-0.64746,0.50031,9.751140000000001
5540403985,22.35,-0.09267698328089889,-0.02556907354171693,0.001064650843716541,-0.5591700000000001,0.51993,9.760950000000001
5545454490,22.35,-0.09374163412461543,-0.04153883619746504,0.0,-0.33354000000000006,0.51993,9.68247
5550504995,22.35,-0.10759954838545042,-0.046879543708567686,-0.001064650843716541,0.05886,0.31392000000000003,9.73152
5555555500,22.35,-0.09374163412461543,-0.002129301687433082,0.005323254218582705,0.04905,0.33354000000000006,9.751140000000001
5560606005,22.35,-0.07456046564519776,0.006387905062299246,0.0,-0.11772,0.32373,9.78057
5565656510,22.35,-0.06817256058289851,0.024504422698000388,-0.001064650843716541,-0.08829,0.60822,9.72171
5570707015,22.35,-0.07243116395776468,0.024504422698000388,0.002129301687433082,-0.32373,0.41202000000000005,9.819809999999999
5575757520,22.35,-0.09161233243718235,0.002129301687433082,0.002129301687433082,-0.33354000000000006,0.42183,9.83943
5580808025,22.35,-0.08628907821859966,-0.00958185759344887,0.001064650843716541,-0.2943,0.45126,9.82962
5585858530,22.35,-0.09480628496833199,-0.005323254218582705,-0.001064650843716541,-0.28449,0.24525000000000002,9.80019
5590909035,22.35,-0.09054768159346581,0.006387905062299246,0.003193952531149623,-0.27468000000000004,0.2943,9.80019
5595959540,22.35,-0.07777187146886733,0.00958185759344887,0.002129301687433082,-0.48069000000000006,0.43164,9.85905
5601010045,22.35,-0.06817256058289851,0.014905111812031574,0.001064650843716541,-0.37278,0.56898,9.78057
5606060550,22.35,-0.09161233243718235,0.001064650843716541,0.002129301687433082,-0.45126,0.56898,9.66285
5611111055,22.35,-0.11185815176031658,-0.044732788728614664,0.0,-0.32373,0.36297,9.65304
5616161560,22.35,-0.12676326357234816,-0.06284930636431581,0.0,0.11772,0.04905,9.7119
5621212065,22.35,-0.1171814059788993,-0.014905111812031574,0.001064650843716541,0.17658,0.13734000000000002,9.83943
5626262570,22.35,-0.08628907821859966,0.006387905062299246,0.0,0.21582,0.17658,9.760950000000001
5631313075,22.35,-0.05220279792715039,0.07456046564519776,0.002129301687433082,-0.009810000000000001,0.27468000000000004,9.72171
5636363580,22.35,-0.054332099614583476,0.08948303074974927,0.005323254218582705,-0.79461,0.41202000000000005,9.84924
5641414085,22.35,-0.06817256058289851,0.03089232776029963,0.001064650843716541,-0.9613800000000001,0.73575,9.86886
5646464590,22.35,-0.08948303074974927,-0.04260348704118158,0.0,-0.7651800000000001,0.60822,9.81
5651515095,22.35,-0.16084954386379738,-0.10438814256178083,-0.002129301687433082,-0.26487,0.10791,9.78057
5656565600,22.35,-0.17896606149949854,-0.1171814059788993,-0.002129301687433082,0.28449,-0.30411,9.94734
5661616105,22.35,-0.13102186694721432,-0.044732788728614664,0.0,0.65727,-0.2943,9.92772
5666666610,22.35,-0.05113814708343386,0.06604325889546543,0.004258603374866164,0.50031,0.039240000000000004,9.79038
5671717115,22.35,-0.004258603374866164,0.16510814723866357,0.008517206749732328,-0.24525000000000002,0.6670800000000001,9.65304
5676767620,22.35,-0.006387905062299246,0.1480737337391989,0.006387905062299246,-1.34397,0.95157,9.79038
5681818125,22.35,-0.09267698328089889,-0.015987215948268057,0.0,-1.34397,0.87309,9.59418
5686868630,22.35,-0.17896606149949854,-0.14913838458291545,-0.001064650843716541,-0.60822,0.20601000000000003,9.78057
5691919135,22.35,-0.2279749068954993,-0.17151350559348277,-0.008517206749732328,0.20601000000000003,-0.75537,9.85905
5696969640,22.35,-0.16831955306233315,-0.06923721142661506,0.0,0.64746,-0.6180300000000001,9.85905
5702020145,22.35,-0.039409534510031964,0.07349581480148122,0.002129301687433082,0.40221,0.16677000000000003,9.89829
5707070650,22.35,0.013840460968315033,0.14381513036433274,0.006387905062299246,-0.14715,0.71613,9.760950000000001
5712121155,22.35,-0.03515093113516579,0.10545279340549739,0.005323254218582705,-0.89271,0.75537,9.78057
5717171660,22.35,-0.11931070766633237,-0.006387905062299246,0.003193952531149623,-0.9123300000000001,0.27468000000000004,9.81
5722222165,22.35,-0.16084954386379738,-0.0756251164889143,0.002129301687433082,-0.6278400000000001,-0.18639,9.85905
5727272670,22.35,-0.14913838458291545,-0.07883652231258387,-0.001064650843716541,-0.44145,-0.12753,9.74133
5732323175,22.35,-0.11611675513518273,-0.06178465552059926,-0.001064650843716541,0.14715,0.1962,9.70209
5737373680,22.35,-0.09480628496833199,0.001064650843716541,0.0,0.45126,0.08829,9.79038
5742424185,22.35,-0.10225884087434776,0.03728023282259888,0.003193952531149623,0.02943,-0.31392000000000003,9.78057
5747474690,22.35,-0.08628907821859966,0.06391395720803235,0.002129301687433082,-0.3924,0.11772,9.7119
5752525195,22.35,-0.04260348704118158,0.06178465552059926,0.006387905062299246,-0.60822,0.5591700000000001,9.91791
5757575700,22.35,-0.08841837990603273,0.003193952531149623,0.003193952531149623,-0.6768900000000001,0.33354000000000006,9.770760000000001
5762626205,22.35,-0.15126768627034853,-0.054332099614583476,0.0,-0.46107000000000004,0.009810000000000001,9.65304
5767676710,22.35,-0.1629788455512305,-0.0852244273748831,-0.001064650843716541,-0.21582,-0.49050000000000005,9.98658
5772727215,22.35,-0.12676326357234816,-0.02556907354171693,0.0,0.23544,-0.2943,10.01601
5777777720,22.35,-0.07243116395776468,0.049008845396000776,0.004258603374866164,-0.20601000000000003,0.22563,9.82962
