#timestamp [ns], temperature [degC], w_RS_S_x [rad s^-1], w_RS_S_y [rad s^-1], w_RS_S_z [rad s^-1], a_RS_S_x [m s^-2], a_RS_S_y [m s^-2], a_RS_S_z [m s^-2]
0,22.41,0.0,0.0,0.002129301687433082,0.009810000000000001,0.13734000000000002,9.79038
5050505,22.41,-0.002129301687433082,0.003193952531149623,0.0,0.019620000000000002,0.16677000000000003,9.80019
10101010,22.41,-0.002129301687433082,-0.0,-0.001064650843716541,0.039240000000000004,0.12753,9.80019
15151515,22.41,0.002129301687433082,0.0,0.0,0.009810000000000001,0.14715,9.81
20202020,22.41,0.002129301687433082,0.0,0.0,0.019620000000000002,0.17658,9.819809999999999
25252525,22.41,0.003193952531149623,-0.001064650843716541,0.002129301687433082,0.009810000000000001,0.15696000000000002,9.79038
30303030,22.41,0.0,0.002129301687433082,-0.001064650843716541,0.019620000000000002,0.16677000000000003,9.79038
35353535,22.41,0.0,0.0,0.002129301687433082,0.019620000000000002,0.14715,9.78057
40404040,22.41,0.0,0.0,0.0,0.02943,0.15696000000000002,9.78057
45454545,22.41,0.0,0.001064650843716541,-0.001064650843716541,0.039240000000000004,0.16677000000000003,9.80019
50505050,22.41,0.0,0.001064650843716541,-0.004258603374866164,0.02943,0.18639,9.80019
55555555,22.41,0.001064650843716541,0.0,0.0,0.009810000000000001,0.13734000000000002,9.83943
60606060,22.41,0.005323254218582705,-0.002129301687433082,0.001064650843716541,0.039240000000000004,0.15696000000000002,9.78057
65656565,22.41,0.002129301687433082,0.0,0.002129301687433082,0.019620000000000002,0.18639,9.78057
70707070,22.41,0.002129301687433082,0.0,0.0,0.009810000000000001,0.15696000000000002,9.80019
75757575,22.41,0.0,0.001064650843716541,0.0,0.019620000000000002,0.17658,9.80019
80808080,22.41,0.0,0.0,-0.001064650843716541,0.039240000000000004,0.15696000000000002,9.79038
85858585,22.41,0.0,0.0,0.0,0.02943,0.17658,9.81
90909090,22.41,0.0,-0.001064650843716541,-0.001064650843716541,0.019620000000000002,0.13734000000000002,9.81
95959595,22.41,0.002129301687433082,-0.003193952531149623,0.0,0.04905,0.15696000000000002,9.80019
101010100,22.41,0.0,-0.001064650843716541,-0.001064650843716541,0.02943,0.15696000000000002,9.79038
106060605,22.41,0.0,0.001064650843716541,0.0,0.009810000000000001,0.14715,9.79038
111111110,22.41,0.001064650843716541,0.001064650843716541,-0.001064650843716541,0.019620000000000002,0.16677000000000003,9.80019
116161615,22.41,0.003193952531149623,-0.001064650843716541,0.001064650843716541,0.02943,0.14715,9.79038
121212120,22.41,0.002129301687433082,-0.001064650843716541,0.001064650843716541,0.019620000000000002,0.18639,9.81
126262625,22.41,0.001064650843716541,0.0,0.0,0.04905,0.18639,9.81
131313130,22.41,0.0,0.0,-0.001064650843716541,0.039240000000000004,0.14715,9.79038
136363635,22.41,0.0,0.0,0.0,0.009810000000000001,0.15696000000000002,9.78057
141414140,22.41,-0.001064650843716541,0.001064650843716541,0.001064650843716541,0.019620000000000002,0.16677000000000003,9.81
146464645,22.41,0.0,0.0,-0.001064650843716541,0.009810000000000001,0.15696000000000002,9.81
151515150,22.41,0.0,0.0,-0.001064650843716541,0.02943,0.17658,9.81
156565655,22.41,0.002129301687433082,-0.001064650843716541,0.0,0.02943,0.15696000000000002,9.78057
161616160,22.41,0.001064650843716541,-0.001064650843716541,-0.001064650843716541,0.019620000000000002,0.16677000000000003,9.81
166666665,22.41,0.001064650843716541,-0.001064650843716541,0.001064650843716541,0.019620000000000002,0.14715,9.78057
171717170,22.41,0.0,0.001064650843716541,0.0,0.039240000000000004,0.15696000000000002,9.78057
176767675,22.41,0.0,-0.001064650843716541,-0.001064650843716541,0.02943,0.13734000000000002,9.770760000000001
181818180,22.41,0.002129301687433082,0.0,0.0,0.039240000000000004,0.17658,9.80019
186868685,22.41,0.0,0.0,-0.002129301687433082,0.0,0.17658,9.78057
191919190,22.41,0.0,-0.001064650843716541,0.001064650843716541,0.02943,0.15696000000000002,9.81
196969695,22.41,0.0,0.0,0.001064650843716541,0.009810000000000001,0.14715,9.80019
202020200,22.41,-0.001064650843716541,0.002129301687433082,-0.002129301687433082,0.019620000000000002,0.16677000000000003,9.81
207070705,22.41,0.001064650843716541,-0.001064650843716541,-0.001064650843716541,0.019620000000000002,0.13734000000000002,9.81
212121210,22.41,0.0,0.0,0.0,0.009810000000000001,0.15696000000000002,9.79038
217171715,22.41,0.001064650843716541,-0.001064650843716541,0.001064650843716541,0.009810000000000001,0.1962,9.80019
222222220,22.41,0.0,-0.001064650843716541,-0.003193952531149623,0.02943,0.17658,9.81
227272725,22.41,0.001064650843716541,0.0,0.0,0.02943,0.17658,9.81
232323230,22.41,-0.003193952531149623,-0.001064650843716541,-0.001064650843716541,0.02943,0.14715,9.79038
237373735,22.41,-0.001064650843716541,-0.001064650843716541,0.0,0.02943,0.14715,9.770760000000001
242424240,22.41,-0.001064650843716541,0.001064650843716541,-0.001064650843716541,0.019620000000000002,0.12753,9.79038
247474745,22.41,0.0,-0.001064650843716541,0.001064650843716541,0.019620000000000002,0.16677000000000003,9.81
252525250,22.41,0.001064650843716541,0.0,0.002129301687433082,0.039240000000000004,0.16677000000000003,9.819809999999999
257575755,22.41,0.002129301687433082,0.001064650843716541,-0.001064650843716541,0.04905,0.16677000000000003,9.79038
262626260,22.41,0.0,0.0,0.0,0.04905,0.17658,9.80019
267676765,22.41,0.0,-0.002129301687433082,0.0,0.019620000000000002,0.14715,9.80019
272727270,22.41,-0.003193952531149623,-0.001064650843716541,-0.001064650843716541,0.039240000000000004,0.14715,9.760950000000001
277777775,22.41,-0.003193952531149623,0.001064650843716541,0.001064650843716541,0.019620000000000002,0.16677000000000003,9.80019
282828280,22.41,0.002129301687433082,0.0,0.001064650843716541,0.019620000000000002,0.15696000000000002,9.78057
287878785,22.41,0.0,0.0,0.0,0.009810000000000001,0.16677000000000003,9.81
292929290,22.41,0.001064650843716541,0.0,-0.004258603374866164,0.039240000000000004,0.14715,9.78057
297979795,22.41,0.0,0.0,0.0,0.019620000000000002,0.14715,9.81
303030300,22.41,0.0,0.0,0.0,0.02943,0.14715,9.79038
308080805,22.41,0.0,0.0,-0.002129301687433082,0.02943,0.15696000000000002,9.78057
313131310,22.41,0.0,0.0,-0.004258603374866164,0.06867000000000001,0.15696000000000002,9.80019
318181815,22.41,-0.002129301687433082,0.0,0.0,0.05886,0.16677000000000003,9.81
323232320,22.41,0.0,-0.001064650843716541,0.0,0.02943,0.14715,9.81
328282825,22.41,0.002129301687433082,0.0,0.0,0.02943,0.15696000000000002,9.80019
333333330,22.41,0.0,0.0,0.0,0.0,0.16677000000000003,9.78057
338383835,22.41,0.0,0.0,0.0,0.019620000000000002,0.16677000000000003,9.80019
343434340,22.41,0.0,-0.001064650843716541,0.0,0.02943,0.12753,9.80019
348484845,22.41,-0.002129301687433082,-0.001064650843716541,0.0,0.009810000000000001,0.13734000000000002,9.81
353535350,22.41,0.0,0.0,0.0,0.019620000000000002,0.16677000000000003,9.81
358585855,22.41,0.001064650843716541,-0.004258603374866164,0.0,0.019620000000000002,0.15696000000000002,9.81
363636360,22.41,0.004258603374866164,-0.001064650843716541,0.0,0.039240000000000004,0.14715,9.760950000000001
368686865,22.41,-0.001064650843716541,0.0,0.0,0.04905,0.15696000000000002,9.80019
373737370,22.41,-0.005323254218582705,0.001064650843716541,0.0,0.039240000000000004,0.13734000000000002,9.770760000000001
378787875,22.41,-0.001064650843716541,0.0,0.0,0.02943,0.13734000000000002,9.81
383838380,22.41,-0.002129301687433082,0.0,0.0,0.02943,0.14715,9.81
388888885,22.41,0.002129301687433082,0.0,0.0,0.02943,0.1962,9.80019
393939390,22.41,0.0,0.0,0.0,0.039240000000000004,0.15696000000000002,9.81
398989895,22.41,0.003193952531149623,0.0,0.0,0.05886,0.14715,9.80019
404040400,22.41,-0.001064650843716541,0.0,0.0,0.02943,0.16677000000000003,9.770760000000001
409090905,22.41,0.0,0.002129301687433082,0.0,0.019620000000000002,0.14715,9.80019
414141410,22.41,0.001064650843716541,-0.001064650843716541,0.0,0.009810000000000001,0.14715,9.79038
419191915,22.41,0.003193952531149623,-0.001064650843716541,0.0,0.019620000000000002,0.16677000000000003,9.81
424242420,22.41,0.0,-0.002129301687433082,0.0,0.02943,0.18639,9.82962
429292925,22.41,0.001064650843716541,0.001064650843716541,0.0,0.039240000000000004,0.14715,9.80019
434343430,22.41,-0.001064650843716541,0.0,0.0,0.039240000000000004,0.16677000000000003,9.79038
439393935,22.41,-0.003193952531149623,0.0,0.0,0.009810000000000001,0.15696000000000002,9.79038
444444440,22.41,-0.001064650843716541,0.001064650843716541,0.0,0.04905,0.16677000000000003,9.81
449494945,22.41,0.003193952531149623,-0.003193952531149623,0.0,0.02943,0.16677000000000003,9.78057
454545450,22.41,0.0,-0.001064650843716541,0.0,0.02943,0.17658,9.81
459595955,22.41,-0.001064650843716541,0.001064650843716541,0.0,0.04905,0.17658,9.79038
464646460,22.41,-0.001064650843716541,0.0,0.0,0.05886,0.15696000000000002,9.80019
469696965,22.41,-0.002129301687433082,0.001064650843716541,0.0,0.02943,0.13734000000000002,9.78057
474747470,22.41,0.0,0.0,0.0,0.009810000000000001,0.14715,9.78057
479797975,22.41,0.0,0.001064650843716541,0.0,0.02943,0.14715,9.81
484848480,22.41,0.0,0.001064650843716541,0.0,0.02943,0.15696000000000002,9.80019
489898985,22.41,0.003193952531149623,-0.003193952531149623,0.0,0.019620000000000002,0.16677000000000003,9.82962
494949490,22.41,0.001064650843716541,0.0,0.0,0.009810000000000001,0.17658,9.80019
499999995,22.41,0.002129301687433082,-0.001064650843716541,0.0,0.039240000000000004,0.15696000000000002,9.770760000000001
505050500,22.41,-0.002129301687433082,0.003193952531149623,0.0,0.009810000000000001,0.15696000000000002,9.770760000000001
510101005,22.41,-0.003193952531149623,0.002129301687433082,0.0,0.039240000000000004,0.12753,9.79038
515151510,22.41,0.001064650843716541,0.0,0.0,0.039240000000000004,0.16677000000000003,9.80019
520202015,22.41,0.0,0.0,0.0,0.039240000000000004,0.17658,9.81
525252520,22.41,0.002129301687433082,-0.003193952531149623,0.0,0.039240000000000004,0.18639,9.819809999999999
530303025,22.41,0.0,-0.001064650843716541,0.0,0.019620000000000002,0.18639,9.78057
535353530,22.41,0.0,0.0,0.0,0.04905,0.16677000000000003,9.80019
540404035,22.41,-0.003193952531149623,0.002129301687433082,0.0,0.019620000000000002,0.14715,9.78057
545454540,22.41,-0.001064650843716541,0.0,0.0,0.019620000000000002,0.12753,9.79038
550505045,22.41,0.0,0.001064650843716541,0.0,0.019620000000000002,0.16677000000000003,9.81
555555550,22.41,0.0,-0.002129301687433082,0.0,0.019620000000000002,0.15696000000000002,9.82962
560606055,22.41,0.001064650843716541,0.0,0.0,0.019620000000000002,0.16677000000000003,9.819809999999999
565656560,22.41,0.003193952531149623,0.0,0.0,0.02943,0.16677000000000003,9.80019
570707065,22.41,0.0,-0.002129301687433082,0.0,0.019620000000000002,0.17658,9.79038
575757570,22.41,0.002129301687433082,-0.001064650843716541,0.0,0.039240000000000004,0.14715,9.78057
580808075,22.41,-0.002129301687433082,0.0,0.0,0.019620000000000002,0.16677000000000003,9.80019
585858580,22.41,0.002129301687433082,0.0,0.0,0.02943,0.15696000000000002,9.81
590909085,22.41,0.0,0.0,0.0,0.02943,0.16677000000000003,9.819809999999999
595959590,22.41,0.001064650843716541,0.0,0.0,0.02943,0.15696000000000002,9.81
601010095,22.41,0.002129301687433082,-0.001064650843716541,0.0,0.019620000000000002,0.14715,9.80019
606060600,22.41,0.001064650843716541,0.0,0.0,0.009810000000000001,0.15696000000000002,9.78057
611111105,22.41,0.001064650843716541,0.001064650843716541,0.0,0.04905,0.16677000000000003,9.79038
616161610,22.41,0.001064650843716541,0.001064650843716541,0.0,0.039240000000000004,0.14715,9.79038
621212115,22.41,-0.002129301687433082,0.0,0.0,0.04905,0.17658,9.79038
626262620,22.41,0.001064650843716541,-0.003193952531149623,0.0,0.019620000000000002,0.15696000000000002,9.80019
631313125,22.41,0.0,0.0,0.0,0.009810000000000001,0.14715,9.81
636363630,22.41,-0.001064650843716541,0.0,0.0,0.019620000000000002,0.14715,9.78057
641414135,22.41,-0.003193952531149623,0.001064650843716541,0.0,0.02943,0.13734000000000002,9.79038
646464640,22.41,-0.001064650843716541,0.0,0.0,0.0,0.14715,9.79038
651515145,22.41,0.002129301687433082,0.0,0.0,0.02943,0.15696000000000002,9.78057
656565650,22.41,0.001064650843716541,-0.001064650843716541,0.0,0.039240000000000004,0.16677000000000003,9.81
661616155,22.41,0.0,0.0,0.0,0.02943,0.17658,9.79038
666666660,22.41,0.0,0.0,0.0,0.04905,0.15696000000000002,9.78057
671717165,22.41,0.0,0.0,0.0,0.009810000000000001,0.15696000000000002,9.760950000000001
676767670,22.41,0.001064650843716541,0.0,0.0,0.039240000000000004,0.13734000000000002,9.81
681818175,22.41,0.001064650843716541,0.0,0.0,0.019620000000000002,0.15696000000000002,9.80019
686868680,22.41,0.001064650843716541,0.0,0.0,0.02943,0.17658,9.81
691919185,22.41,0.001064650843716541,-0.001064650843716541,0.0,0.019620000000000002,0.1962,9.79038
696969690,22.41,0.003193952531149623,-0.001064650843716541,0.0,0.02943,0.1962,9.79038
702020195,22.41,-0.001064650843716541,0.003193952531149623,0.0,0.019620000000000002,0.16677000000000003,9.770760000000001
707070700,22.41,-0.002129301687433082,0.001064650843716541,0.0,0.039240000000000004,0.13734000000000002,9.770760000000001
712121205,22.41,0.0,0.001064650843716541,0.0,0.019620000000000002,0.13734000000000002,9.770760000000001
717171710,22.41,-0.002129301687433082,0.0,0.0,0.009810000000000001,0.15696000000000002,9.80019
722222215,22.41,0.0,0.0,0.0,0.039240000000000004,0.13734000000000002,9.80019
727272720,22.41,0.001064650843716541,0.0,0.0,0.0,0.18639,9.81
732323225,22.41,0.002129301687433082,0.0,0.0,0.04905,0.15696000000000002,9.80019
737373730,22.41,0.0,-0.002129301687433082,0.0,0.04905,0.15696000000000002,9.78057
742424235,22.41,-0.003193952531149623,0.002129301687433082,0.0,0.039240000000000004,0.16677000000000003,9.79038
747474740,22.41,0.0,-0.002129301687433082,0.0,0.039240000000000004,0.16677000000000003,9.80019
752525245,22.41,0.0,0.001064650843716541,0.0,0.02943,0.14715,9.83943
757575750,22.41,0.0,0.001064650843716541,0.0,0.039240000000000004,0.16677000000000003,9.81
762626255,22.41,0.003193952531149623,-0.001064650843716541,0.0,0.019620000000000002,0.13734000000000002,9.80019
767676760,22.41,0.001064650843716541,0.0,0.0,0.039240000000000004,0.11772,9.79038
772727265,22.41,0.0,0.0,0.0,0.039240000000000004,0.15696000000000002,9.78057
777777770,22.41,-0.002129301687433082,0.001064650843716541,0.0,0.039240000000000004,0.13734000000000002,9.79038
782828275,22.41,0.002129301687433082,0.0,0.0,0.039240000000000004,0.17658,9.78057
787878780,22.41,0.002129301687433082,0.0,0.0,0.019620000000000002,0.16677000000000003,9.81
792929285,22.41,0.001064650843716541,-0.001064650843716541,0.0,0.02943,0.17658,9.80019
797979790,22.41,0.0,0.001064650843716541,0.0,0.04905,0.17658,9.81
803030295,22.41,0.001064650843716541,0.0,0.0,0.039240000000000004,0.15696000000000002,9.770760000000001
808080800,22.41,0.0,0.0,0.0,0.039240000000000004,0.13734000000000002,9.79038
813131305,22.41,0.002129301687433082,-0.002129301687433082,0.0,0.009810000000000001,0.15696000000000002,9.81
818181810,22.41,0.002129301687433082,0.0,0.0,0.02943,0.15696000000000002,9.81
823232315,22.41,0.003193952531149623,0.0,0.0,0.02943,0.17658,9.80019
828282820,22.41,-0.001064650843716541,0.0,0.0,0.04905,0.18639,9.819809999999999
833333325,22.41,-0.001064650843716541,0.0,0.0,0.05886,0.12753,9.80019
838383830,22.41,0.0,0.0,0.0,0.02943,0.13734000000000002,9.80019
843434335,22.41,0.003193952531149623,0.001064650843716541,0.0,0.009810000000000001,0.14715,9.80019
848484840,22.41,0.001064650843716541,0.0,0.0,0.0,0.15696000000000002,9.78057
853535345,22.41,0.0,-0.003193952531149623,0.0,0.05886,0.16677000000000003,9.81
858585850,22.41,0.002129301687433082,-0.004258603374866164,0.0,0.02943,0.16677000000000003,9.80019
863636355,22.41,-0.003193952531149623,0.0,0.0,0.019620000000000002,0.14715,9.79038
868686860,22.41,0.0,0.0,0.0,0.02943,0.15696000000000002,9.80019
873737365,22.41,0.001064650843716541,0.0,0.0,0.02943,0.13734000000000002,9.79038
878787870,22.41,0.001064650843716541,0.001064650843716541,0.0,0.019620000000000002,0.14715,9.81
883838375,22.41,0.001064650843716541,-0.001064650843716541,0.0,0.019620000000000002,0.14715,9.78057
888888880,22.41,0.001064650843716541,0.0,0.0,0.02943,0.18639,9.79038
893939385,22.41,0.002129301687433082,0.0,0.0,0.019620000000000002,0.17658,9.81
898989890,22.41,0.001064650843716541,0.0,0.0,0.06867000000000001,0.16677000000000003,9.80019
904040395,22.41,0.003193952531149623,0.0,0.0,0.019620000000000002,0.17658,9.78057
909090900,22.41,0.0,0.002129301687433082,0.0,0.019620000000000002,0.15696000000000002,9.760950000000001
914141405,22.41,0.001064650843716541,0.0,0.0,0.019620000000000002,0.14715,9.80019
919191910,22.41,-0.002129301687433082,0.0,0.0,0.039240000000000004,0.15696000000000002,9.81
924242415,22.41,0.0,0.0,0.0,0.009810000000000001,0.16677000000000003,9.819809999999999
929292920,22.41,0.004258603374866164,-0.001064650843716541,0.0,0.04905,0.15696000000000002,9.84924
934343425,22.41,0.002129301687433082,-0.001064650843716541,0.0,0.009810000000000001,0.13734000000000002,9.760950000000001
939393930,22.41,0.0,0.001064650843716541,0.0,0.039240000000000004,0.14715,9.80019
944444435,22.41,0.0,0.001064650843716541,0.0,0.019620000000000002,0.14715,9.79038
949494940,22.41,0.0,0.0,0.0,0.019620000000000002,0.14715,9.80019
954545445,22.41,0.001064650843716541,-0.001064650843716541,0.0,0.019620000000000002,0.14715,9.819809999999999
959595950,22.41,0.0,0.0,0.0,0.039240000000000004,0.17658,9.819809999999999
964646455,22.41,0.0,0.0,0.0,0.039240000000000004,0.16677000000000003,9.80019
969696960,22.41,0.0,0.0,0.0,0.019620000000000002,0.16677000000000003,9.79038
974747465,22.41,0.0,0.0,0.0,0.02943,0.16677000000000003,9.79038
979797970,22.41,0.0,0.0,0.0,0.04905,0.17658,9.78057
984848475,22.41,0.0,0.0,0.0,0.02943,0.16677000000000003,9.80019
989898980,22.41,0.0,0.0,0.0,0.02943,0.14715,9.81
994949485,22.41,0.0,0.0,0.0,0.02943,0.15696000000000002,9.81
999999990,22.41,0.0,0.0,0.0,0.009810000000000001,0.15696000000000002,9.80019
1005050495,22.41,0.0,0.0,0.0,0.039240000000000004,0.13734000000000002,9.80019
1010101000,22.41,0.0,0.0,0.0,0.039240000000000004,0.14715,9.819809999999999
1015151505,22.41,0.0,0.0,0.0,0.02943,0.15696000000000002,9.81
1020202010,22.41,0.0,0.0,0.0,0.009810000000000001,0.17658,9.78057
1025252515,22.41,0.0,0.0,0.0,0.039240000000000004,0.18639,9.81
1030303020,22.41,0.0,0.0,0.0,0.039240000000000004,0.17658,9.819809999999999
1035353525,22.41,0.0,0.0,0.0,0.02943,0.16677000000000003,9.79038
1040404030,22.41,0.0,0.0,0.0,0.019620000000000002,0.13734000000000002,9.79038
1045454535,22.41,0.0,0.0,0.0,0.009810000000000001,0.12753,9.79038
1050505040,22.41,0.0,0.0,0.0,0.009810000000000001,0.13734000000000002,9.78057
1055555545,22.41,0.0,0.0,0.0,0.019620000000000002,0.17658,9.81
1060606050,22.41,0.0,0.0,0.0,0.019620000000000002,0.15696000000000002,9.78057
1065656555,22.41,0.0,0.0,0.0,0.019620000000000002,0.16677000000000003,9.81
1070707060,22.41,0.0,0.0,0.0,0.04905,0.16677000000000003,9.80019
1075757565,22.41,0.0,0.0,0.0,0.02943,0.14715,9.770760000000001
1080808070,22.41,0.0,0.0,0.0,0.02943,0.12753,9.79038
1085858575,22.41,0.0,0.0,0.0,0.019620000000000002,0.16677000000000003,9.79038
1090909080,22.41,0.0,0.0,0.0,0.019620000000000002,0.15696000000000002,9.81
1095959585,22.41,0.0,0.0,0.0,0.02943,0.18639,9.81
1101010090,22.41,0.0,0.0,0.0,0.009810000000000001,0.15696000000000002,9.79038
1106060595,22.41,0.0,0.0,0.0,0.04905,0.15696000000000002,9.760950000000001
1111111100,22.41,0.0,0.0,0.0,0.019620000000000002,0.16677000000000003,9.770760000000001
1116161605,22.41,0.0,0.0,0.0,0.02943,0.15696000000000002,9.80019
1121212110,22.41,0.0,0.0,0.0,0.009810000000000001,0.14715,9.81
1126262615,22.41,0.0,0.0,0.0,0.039240000000000004,0.14715,9.819809999999999
1131313120,22.41,0.0,0.0,0.0,0.039240000000000004,0.17658,9.81
1136363625,22.41,0.0,0.0,0.0,0.02943,0.15696000000000002,9.79038
1141414130,22.41,0.0,0.0,0.0,0.039240000000000004,0.13734000000000002,9.79038
1146464635,22.41,0.0,0.0,0.0,0.02943,0.17658,9.760950000000001
1151515140,22.41,0.0,0.0,0.0,0.02943,0.17658,9.79038
1156565645,22.41,0.0,0.0,0.0,0.019620000000000002,0.14715,9.79038
1161616150,22.41,0.0,0.0,0.0,0.02943,0.18639,9.819809999999999
1166666655,22.41,0.0,0.0,0.0,0.0,0.14715,9.80019
1171717160,22.41,0.0,0.0,0.0,0.039240000000000004,0.15696000000000002,9.81
1176767665,22.41,0.0,0.0,0.0,0.039240000000000004,0.15696000000000002,9.78057
1181818170,22.41,0.0,0.0,0.0,0.04905,0.15696000000000002,9.79038
1186868675,22.41,0.0,0.0,0.0,0.039240000000000004,0.17658,9.81
1191919180,22.41,0.0,0.0,0.0,0.04905,0.17658,9.80019
1196969685,22.41,0.0,0.0,0.0,0.02943,0.15696000000000002,9.80019
1202020190,22.41,0.0,0.0,0.0,0.019620000000000002,0.12753,9.80019
1207070695,22.41,0.0,0.0,0.0,0.019620000000000002,0.13734000000000002,9.81
1212121200,22.41,0.0,0.0,0.0,0.009810000000000001,0.13734000000000002,9.80019
1217171705,22.41,0.0,0.0,0.0,0.009810000000000001,0.16677000000000003,9.79038
1222222210,22.41,0.0,0.0,0.0,0.02943,0.16677000000000003,9.80019
1227272715,22.41,0.0,0.0,0.0,0.019620000000000002,0.18639,9.81
1232323220,22.41,0.0,0.0,0.0,0.04905,0.18639,9.80019
1237373725,22.41,0.0,0.0,0.0,0.05886,0.12753,9.78057
1242424230,22.41,0.0,0.0,0.0,0.02943,0.13734000000000002,9.81
1247474735,22.41,0.0,0.0,0.0,0.02943,0.11772,9.81
1252525240,22.41,0.0,0.0,0.0,0.039240000000000004,0.12753,9.81
1257575745,22.41,0.0,0.0,0.0,0.02943,0.18639,9.80019
1262626250,22.41,0.0,0.0,0.0,0.039240000000000004,0.18639,9.819809999999999
1267676755,22.41,0.0,0.0,0.0,0.04905,0.1962,9.79038
1272727260,22.41,0.0,0.0,0.0,0.04905,0.13734000000000002,9.770760000000001
1277777765,22.41,0.0,0.0,0.0,0.02943,0.15696000000000002,9.80019
1282828270,22.41,0.0,0.0,0.0,0.039240000000000004,0.17658,9.81
1287878775,22.41,0.0,0.0,0.0,0.019620000000000002,0.16677000000000003,9.80019
1292929280,22.41,0.0,0.0,0.0,0.039240000000000004,0.17658,9.81
1297979785,22.41,0.0,0.0,0.0,0.039240000000000004,0.14715,9.80019
1303030290,22.41,0.0,0.0,0.0,0.039240000000000004,0.17658,9.81
1308080795,22.41,0.0,0.0,0.0,0.039240000000000004,0.14715,9.79038
1313131300,22.41,0.0,0.0,0.0,0.05886,0.15696000000000002,9.770760000000001
1318181805,22.41,0.0,0.0,0.0,0.009810000000000001,0.15696000000000002,9.79038
1323232310,22.41,0.0,0.0,0.0,0.009810000000000001,0.13734000000000002,9.81
1328282815,22.41,0.0,0.0,0.0,0.039240000000000004,0.15696000000000002,9.819809999999999
1333333320,22.41,0.0,0.0,0.0,0.039240000000000004,0.16677000000000003,9.78057
1338383825,22.41,0.0,0.0,0.0,0.019620000000000002,0.16677000000000003,9.79038
1343434330,22.41,0.0,0.0,0.0,0.05886,0.15696000000000002,9.770760000000001
1348484835,22.41,0.0,0.0,0.0,0.04905,0.16677000000000003,9.79038
1353535340,22.41,0.0,0.0,0.0,0.009810000000000001,0.17658,9.79038
1358585845,22.41,0.0,0.0,0.0,0.009810000000000001,0.15696000000000002,9.819809999999999
1363636350,22.41,0.0,0.0,0.0,0.019620000000000002,0.14715,9.819809999999999
1368686855,22.41,0.0,0.0,0.0,0.02943,0.16677000000000003,9.81
1373737360,22.41,0.0,0.0,0.0,0.02943,0.12753,9.770760000000001
1378787865,22.41,0.0,0.0,0.0,0.019620000000000002,0.13734000000000002,9.79038
1383838370,22.41,0.0,0.0,0.0,0.04905,0.16677000000000003,9.78057
1388888875,22.41,0.0,0.0,0.0,0.039240000000000004,0.14715,9.81
1393939380,22.41,0.0,0.0,0.0,0.039240000000000004,0.13734000000000002,9.79038
1398989885,22.41,0.0,0.0,0.0,0.009810000000000001,0.13734000000000002,9.81
1404040390,22.41,0.0,0.0,0.0,0.0,0.15696000000000002,9.79038
1409090895,22.41,0.0,0.0,0.0,0.009810000000000001,0.15696000000000002,9.79038
1414141400,22.41,0.0,0.0,0.0,0.019620000000000002,0.16677000000000003,9.81
1419191905,22.41,0.0,0.0,0.0,0.02943,0.14715,9.79038
1424242410,22.41,0.0,0.0,0.0,0.039240000000000004,0.15696000000000002,9.80019
1429292915,22.41,0.0,0.0,0.0,0.039240000000000004,0.1962,9.80019
1434343420,22.41,0.0,0.0,0.0,0.039240000000000004,0.15696000000000002,9.81
1439393925,22.41,0.0,0.0,0.0,0.039240000000000004,0.13734000000000002,9.79038
1444444430,22.41,0.0,0.0,0.0,0.04905,0.14715,9.79038
1449494935,22.41,0.0,0.0,0.0,0.0,0.14715,9.78057
1454545440,22.41,0.0,0.0,0.0,0.02943,0.13734000000000002,9.80019
1459595945,22.41,0.0,0.0,0.0,0.009810000000000001,0.16677000000000003,9.81
1464646450,22.41,0.0,0.0,0.0,0.02943,0.16677000000000003,9.80019
1469696955,22.41,0.0,0.0,0.0,0.039240000000000004,0.15696000000000002,9.81
1474747460,22.41,0.0,0.0,0.0,0.02943,0.15696000000000002,9.78057
1479797965,22.41,0.0,0.0,0.0,0.039240000000000004,0.16677000000000003,9.80019
1484848470,22.41,0.0,0.0,0.0,0.019620000000000002,0.13734000000000002,9.80019
1489898975,22.41,0.0,0.0,0.0,0.039240000000000004,0.14715,9.81
1494949480,22.41,0.0,0.0,0.0,0.009810000000000001,0.16677000000000003,9.80019
1499999985,22.41,0.0,0.0,0.0,0.039240000000000004,0.15696000000000002,9.80019
1505050490,22.41,0.0,0.0,0.0,0.039240000000000004,0.15696000000000002,9.760950000000001
1510100995,22.41,0.0,0.0,0.0,0.039240000000000004,0.15696000000000002,9.81
1515151500,22.41,0.0,0.0,0.0,0.039240000000000004,0.15696000000000002,9.770760000000001
1520202005,22.41,0.0,0.0,0.0,0.06867000000000001,0.14715,9.79038
1525252510,22.41,0.0,0.0,0.0,0.039240000000000004,0.14715,9.81
1530303015,22.41,0.0,0.0,0.0,0.039240000000000004,0.16677000000000003,9.81
1535353520,22.41,0.0,0.0,0.0,0.019620000000000002,0.16677000000000003,9.80019
1540404025,22.41,0.0,0.0,0.0,0.039240000000000004,0.16677000000000003,9.79038
1545454530,22.41,0.0,0.0,0.0,0.009810000000000001,0.14715,9.79038
1550505035,22.41,0.0,0.0,0.0,0.039240000000000004,0.15696000000000002,9.80019
1555555540,22.41,0.0,0.0,0.0,0.02943,0.17658,9.78057
1560606045,22.41,0.0,0.0,0.0,0.039240000000000004,0.17658,9.79038
1565656550,22.41,0.0,0.0,0.0,0.0,0.15696000000000002,9.81
1570707055,22.41,0.0,0.0,0.0,0.02943,0.15696000000000002,9.80019
1575757560,22.41,0.0,0.0,0.0,0.039240000000000004,0.13734000000000002,9.819809999999999
1580808065,22.41,0.0,0.0,0.0,0.019620000000000002,0.16677000000000003,9.81
1585858570,22.41,0.0,0.0,0.0,0.039240000000000004,0.14715,9.79038
1590909075,22.41,0.0,0.0,0.0,0.04905,0.15696000000000002,9.80019
1595959580,22.41,0.0,0.0,0.0,0.04905,0.18639,9.78057
1601010085,22.41,0.0,0.0,0.0,0.02943,0.17658,9.81
1606060590,22.41,0.0,0.0,0.0,0.019620000000000002,0.16677000000000003,9.80019
1611111095,22.41,0.0,0.0,0.0,0.02943,0.15696000000000002,9.80019
1616161600,22.41,0.0,0.0,0.0,0.02943,0.14715,9.80019
1621212105,22.41,0.0,0.0,0.0,0.039240000000000004,0.15696000000000002,9.79038
1626262610,22.41,0.0,0.0,0.0,0.02943,0.14715,9.79038
1631313115,22.41,0.0,0.0,0.0,0.02943,0.15696000000000002,9.80019
1636363620,22.41,0.0,0.0,0.0,0.04905,0.15696000000000002,9.79038
1641414125,22.41,0.0,0.0,0.0,0.04905,0.16677000000000003,9.80019
1646464630,22.41,0.0,0.0,0.0,0.05886,0.15696000000000002,9.81
1651515135,22.41,0.0,0.0,0.0,0.0,0.13734000000000002,9.80019
1656565640,22.41,0.0,0.0,0.0,0.039240000000000004,0.13734000000000002,9.81
1661616145,22.41,0.0,0.0,0.0,0.019620000000000002,0.16677000000000003,9.80019
1666666650,22.41,0.0,0.0,0.0,0.039240000000000004,0.15696000000000002,9.79038
1671717155,22.41,0.0,0.0,0.0,0.039240000000000004,0.18639,9.79038
1676767660,22.41,0.0,0.0,0.0,0.039240000000000004,0.15696000000000002,9.81
1681818165,22.41,0.0,0.0,0.0,0.02943,0.16677000000000003,9.79038
1686868670,22.41,0.0,0.0,0.0,0.02943,0.15696000000000002,9.80019
1691919175,22.41,0.0,0.0,0.0,0.009810000000000001,0.14715,9.80019
1696969680,22.41,0.0,0.0,0.0,0.02943,0.15696000000000002,9.79038
1702020185,22.41,0.0,0.0,0.0,0.039240000000000004,0.17658,9.80019
1707070690,22.41,0.0,0.0,0.0,0.039240000000000004,0.15696000000000002,9.81
1712121195,22.41,0.0,0.0,0.0,0.04905,0.15696000000000002,9.79038
1717171700,22.41,0.0,0.0,0.0,0.019620000000000002,0.16677000000000003,9.78057
1722222205,22.41,0.0,0.0,0.0,0.039240000000000004,0.16677000000000003,9.79038
1727272710,22.41,0.0,0.0,0.0,0.009810000000000001,0.14715,9.819809999999999
1732323215,22.41,0.0,0.0,0.0,0.019620000000000002,0.14715,9.819809999999999
1737373720,22.41,0.0,0.0,0.0,0.039240000000000004,0.13734000000000002,9.81
1742424225,22.41,0.0,0.0,0.0,0.019620000000000002,0.17658,9.80019
1747474730,22.41,0.0,0.0,0.0,0.05886,0.16677000000000003,9.79038
1752525235,22.41,0.0,0.0,0.0,0.039240000000000004,0.17658,9.78057
1757575740,22.41,0.0,0.0,0.0,0.039240000000000004,0.14715,9.770760000000001
1762626245,22.41,0.0,0.0,0.0,0.02943,0.16677000000000003,9.80019
1767676750,22.41,0.0,0.0,0.0,0.019620000000000002,0.14715,9.80019
1772727255,22.41,0.0,0.0,0.0,0.019620000000000002,0.14715,9.80019
1777777760,22.41,0.0,0.0,0.0,0.009810000000000001,0.16677000000000003,9.81
1782828265,22.41,0.0,0.0,0.0,0.039240000000000004,0.15696000000000002,9.79038
1787878770,22.41,0.0,0.0,0.0,0.04905,0.16677000000000003,9.80019
1792929275,22.41,0.0,0.0,0.0,0.019620000000000002,0.18639,9.78057
1797979780,22.41,0.0,0.0,0.0,0.019620000000000002,0.15696000000000002,9.81
1803030285,22.41,0.0,0.0,0.0,0.019620000000000002,0.15696000000000002,9.79038
1808080790,22.41,0.0,0.0,0.0,0.039240000000000004,0.15696000000000002,9.78057
1813131295,22.41,0.0,0.0,0.0,0.039240000000000004,0.15696000000000002,9.81
1818181800,22.41,0.0,0.0,0.0,0.02943,0.12753,9.81
1823232305,22.41,0.0,0.0,0.0,0.009810000000000001,0.14715,9.81
1828282810,22.41,0.0,0.0,0.0,0.019620000000000002,0.15696000000000002,9.81
1833333315,22.41,0.0,0.0,0.0,0.009810000000000001,0.17658,9.770760000000001
1838383820,22.41,0.0,0.0,0.0,0.019620000000000002,0.15696000000000002,9.79038
1843434325,22.41,0.0,0.0,0.0,0.039240000000000004,0.17658,9.770760000000001
1848484830,22.41,0.0,0.0,0.0,0.02943,0.12753,9.80019
1853535335,22.41,0.0,0.0,0.0,0.04905,0.13734000000000002,9.80019
1858585840,22.41,0.0,0.0,0.0,0.039240000000000004,0.14715,9.80019
1863636345,22.41,0.0,0.0,0.0,0.009810000000000001,0.14715,9.81
1868686850,22.41,0.0,0.0,0.0,0.039240000000000004,0.15696000000000002,9.81
1873737355,22.41,0.0,0.0,0.0,0.02943,0.14715,9.79038
1878787860,22.41,0.0,0.0,0.0,0.02943,0.15696000000000002,9.79038
1883838365,22.41,0.0,0.0,0.0,0.02943,0.16677000000000003,9.79038
1888888870,22.41,0.0,0.0,0.0,0.04905,0.14715,9.770760000000001
1893939375,22.41,0.0,0.0,0.0,0.02943,0.15696000000000002,9.80019
1898989880,22.41,0.0,0.0,0.0,0.009810000000000001,0.16677000000000003,9.81
1904040385,22.41,0.0,0.0,0.0,0.019620000000000002,0.14715,9.81
1909090890,22.41,0.0,0.0,0.0,0.02943,0.18639,9.79038
1914141395,22.41,0.0,0.0,0.0,0.02943,0.17658,9.80019
1919191900,22.41,0.0,0.0,0.0,0.039240000000000004,0.15696000000000002,9.770760000000001
1924242405,22.41,0.0,0.0,0.0,0.02943,0.18639,9.79038
1929292910,22.41,0.0,0.0,0.0,0.04905,0.16677000000000003,9.78057
1934343415,22.41,0.0,0.0,0.0,0.019620000000000002,0.16677000000000003,9.83943
1939393920,22.41,0.0,0.0,0.0,0.009810000000000001,0.15696000000000002,9.79038
1944444425,22.41,0.0,0.0,0.0,0.039240000000000004,0.17658,9.80019
1949494930,22.41,0.0,0.0,0.0,0.039240000000000004,0.16677000000000003,9.760950000000001
1954545435,22.41,0.0,0.0,0.0,0.04905,0.16677000000000003,9.78057
1959595940,22.41,0.0,0.0,0.0,0.019620000000000002,0.16677000000000003,9.79038
1964646445,22.41,0.0,0.0,0.0,0.04905,0.15696000000000002,9.819809999999999
1969696950,22.41,0.0,0.0,0.0,0.02943,0.15696000000000002,9.81
1974747455,22.41,0.0,0.0,0.0,0.019620000000000002,0.12753,9.80019
1979797960,22.41,0.0,0.0,0.0,0.04905,0.15696000000000002,9.80019
1984848465,22.41,0.0,0.0,0.0,0.019620000000000002,0.13734000000000002,9.80019
1989898970,22.41,0.0,0.0,0.0,0.019620000000000002,0.15696000000000002,9.79038
1994949475,22.41,0.0,0.0,0.0,0.02943,0.15696000000000002,9.80019
1999999980,22.41,0.0,0.0,0.0,0.02943,0.15696000000000002,9.80019
2005050485,22.41,0.0,0.0,0.0,0.02943,0.13734000000000002,9.79038
2010100990,22.41,0.0,0.0,0.0,0.019620000000000002,0.15696000000000002,9.819809999999999
2015151495,22.41,0.0,0.0,0.0,0.019620000000000002,0.16677000000000003,9.81
2020202000,22.41,0.0,0.0,0.0,0.04905,0.15696000000000002,9.79038
2025252505,22.41,0.0,0.0,0.0,0.04905,0.13734000000000002,9.80019
2030303010,22.41,0.0,0.0,0.0,0.02943,0.16677000000000003,9.80019
2035353515,22.41,0.0,0.0,0.0,0.05886,0.17658,9.80019
2040404020,22.41,0.0,0.0,0.0,0.019620000000000002,0.14715,9.78057
2045454525,22.41,0.0,0.0,0.0,0.039240000000000004,0.17658,9.79038
2050505030,22.41,0.0,0.0,0.0,0.04905,0.15696000000000002,9.79038
2055555535,22.41,0.0,0.0,0.0,0.02943,0.16677000000000003,9.80019
2060606040,22.41,0.0,0.0,0.0,0.0,0.16677000000000003,9.80019
2065656545,22.41,0.0,0.0,0.0,0.039240000000000004,0.14715,9.81
2070707050,22.41,0.0,0.0,0.0,0.039240000000000004,0.15696000000000002,9.79038
2075757555,22.41,0.0,0.0,0.0,0.02943,0.15696000000000002,9.78057
2080808060,22.41,0.0,0.0,0.0,0.04905,0.13734000000000002,9.81
2085858565,22.41,0.0,0.0,0.0,0.02943,0.11772,9.78057
2090909070,22.41,0.0,0.0,0.0,0.02943,0.14715,9.81
2095959575,22.41,0.0,0.0,0.0,0.02943,0.14715,9.80019
2101010080,22.41,0.0,0.0,0.0,0.019620000000000002,0.15696000000000002,9.81
2106060585,22.41,0.0,0.0,0.0,0.039240000000000004,0.15696000000000002,9.79038
2111111090,22.41,0.0,0.0,0.0,0.02943,0.16677000000000003,9.81
2116161595,22.41,0.0,0.0,0.0,0.019620000000000002,0.16677000000000003,9.78057
2121212100,22.41,0.0,0.0,0.0,0.019620000000000002,0.16677000000000003,9.79038
2126262605,22.41,0.0,0.0,0.0,0.039240000000000004,0.17658,9.78057
2131313110,22.41,0.0,0.0,0.0,0.0,0.12753,9.80019
2136363615,22.41,0.0,0.0,0.0,0.02943,0.14715,9.79038
2141414120,22.41,0.0,0.0,0.0,0.019620000000000002,0.13734000000000002,9.81
2146464625,22.41,0.0,0.0,0.0,0.009810000000000001,0.13734000000000002,9.81
2151515130,22.41,0.0,0.0,0.0,0.02943,0.15696000000000002,9.80019
2156565635,22.41,0.0,0.0,0.0,0.039240000000000004,0.17658,9.80019
2161616140,22.41,0.0,0.0,0.0,0.02943,0.18639,9.80019
2166666645,22.41,0.0,0.0,0.0,0.019620000000000002,0.13734000000000002,9.80019
2171717150,22.41,0.0,0.0,0.0,0.039240000000000004,0.16677000000000003,9.80019
2176767655,22.41,0.0,0.0,0.0,0.04905,0.14715,9.78057
2181818160,22.41,0.0,0.0,0.0,0.039240000000000004,0.15696000000000002,9.78057
2186868665,22.41,0.0,0.0,0.0,0.0,0.15696000000000002,9.79038
2191919170,22.41,0.0,0.0,0.0,0.02943,0.14715,9.79038
2196969675,22.41,0.0,0.0,0.0,0.039240000000000004,0.16677000000000003,9.79038
2202020180,22.41,0.0,0.0,0.0,0.02943,0.13734000000000002,9.770760000000001
2207070685,22.41,0.0,0.0,0.0,0.019620000000000002,0.14715,9.80019
2212121190,22.41,0.0,0.0,0.0,0.06867000000000001,0.13734000000000002,9.79038
2217171695,22.41,0.0,0.0,0.0,0.02943,0.14715,9.80019
2222222200,22.41,0.0,0.0,0.0,0.019620000000000002,0.14715,9.819809999999999
2227272705,22.41,0.0,0.0,0.0,0.02943,0.13734000000000002,9.80019
2232323210,22.41,0.0,0.0,0.0,0.039240000000000004,0.16677000000000003,9.81
2237373715,22.41,0.0,0.0,0.0,0.009810000000000001,0.16677000000000003,9.80019
2242424220,22.41,0.0,0.0,0.0,0.02943,0.17658,9.80019
2247474725,22.41,0.0,0.0,0.0,0.019620000000000002,0.16677000000000003,9.79038
2252525230,22.41,0.0,0.0,0.0,0.02943,0.14715,9.79038
2257575735,22.41,0.0,0.0,0.0,0.02943,0.15696000000000002,9.81
2262626240,22.41,0.0,0.0,0.0,0.02943,0.15696000000000002,9.770760000000001
2267676745,22.41,0.0,0.0,0.0,0.039240000000000004,0.12753,9.79038
2272727250,22.41,0.0,0.0,0.0,0.009810000000000001,0.13734000000000002,9.81
2277777755,22.41,0.0,0.0,0.0,0.0,0.15696000000000002,9.80019
2282828260,22.41,0.0,0.0,0.0,0.02943,0.16677000000000003,9.79038
2287878765,22.41,0.0,0.0,0.0,0.0,0.17658,9.81
2292929270,22.41,0.0,0.0,0.0,0.019620000000000002,0.17658,9.81
2297979775,22.41,0.0,0.0,0.0,0.019620000000000002,0.14715,9.819809999999999
2303030280,22.41,0.0,0.0,0.0,0.02943,0.15696000000000002,9.81
2308080785,22.41,0.0,0.0,0.0,0.02943,0.17658,9.80019
2313131290,22.41,0.0,0.0,0.0,0.02943,0.15696000000000002,9.80019
2318181795,22.41,0.0,0.0,0.0,0.02943,0.16677000000000003,9.80019
2323232300,22.41,0.0,0.0,0.0,0.02943,0.17658,9.81
2328282805,22.41,0.0,0.0,0.0,0.019620000000000002,0.1962,9.80019
2333333310,22.41,0.0,0.0,0.0,0.009810000000000001,0.17658,9.80019
2338383815,22.41,0.0,0.0,0.0,0.019620000000000002,0.1962,9.80019
2343434320,22.41,0.0,0.0,0.0,0.04905,0.15696000000000002,9.81
2348484825,22.41,0.0,0.0,0.0,0.02943,0.15696000000000002,9.770760000000001
2353535330,22.41,0.0,0.0,0.0,0.02943,0.15696000000000002,9.81
2358585835,22.41,0.0,0.0,0.0,0.02943,0.15696000000000002,9.79038
2363636340,22.41,0.0,0.0,0.0,0.039240000000000004,0.16677000000000003,9.80019
2368686845,22.41,0.0,0.0,0.0,0.02943,0.15696000000000002,9.79038
2373737350,22.41,0.0,0.0,0.0,0.019620000000000002,0.15696000000000002,9.81
2378787855,22.41,0.0,0.0,0.0,0.02943,0.13734000000000002,9.79038
2383838360,22.41,0.0,0.0,0.0,0.019620000000000002,0.15696000000000002,9.79038
2388888865,22.41,0.0,0.0,0.0,0.039240000000000004,0.15696000000000002,9.79038
2393939370,22.41,0.0,0.0,0.0,0.019620000000000002,0.17658,9.80019
2398989875,22.41,0.0,0.0,0.0,0.0,0.15696000000000002,9.80019
2404040380,22.41,0.0,0.0,0.0,0.02943,0.15696000000000002,9.80019
2409090885,22.41,0.0,0.0,0.0,0.02943,0.14715,9.80019
2414141390,22.41,0.0,0.0,0.0,0.039240000000000004,0.16677000000000003,9.79038
2419191895,22.41,0.0,0.0,0.0,0.039240000000000004,0.13734000000000002,9.79038
2424242400,22.41,0.0,0.0,0.0,0.02943,0.15696000000000002,9.78057
2429292905,22.41,0.0,0.0,0.0,0.02943,0.17658,9.79038
2434343410,22.41,0.0,0.0,0.0,0.02943,0.18639,9.80019
2439393915,22.41,0.0,0.0,0.0,0.019620000000000002,0.15696000000000002,9.80019
2444444420,22.41,0.0,0.0,0.0,0.039240000000000004,0.14715,9.79038
2449494925,22.41,0.0,0.0,0.0,0.019620000000000002,0.14715,9.770760000000001
2454545430,22.41,0.0,0.0,0.0,0.019620000000000002,0.17658,9.819809999999999
2459595935,22.41,0.0,0.0,0.0,0.02943,0.12753,9.79038
2464646440,22.41,0.0,0.0,0.0,0.009810000000000001,0.14715,9.819809999999999
2469696945,22.41,0.0,0.0,0.0,0.039240000000000004,0.14715,9.80019
2474747450,22.41,0.0,0.0,0.0,0.05886,0.15696000000000002,9.79038
2479797955,22.41,0.0,0.0,0.0,0.019620000000000002,0.15696000000000002,9.78057
2484848460,22.41,0.0,0.0,0.0,0.039240000000000004,0.15696000000000002,9.81
2489898965,22.41,0.0,0.0,0.0,0.04905,0.14715,9.80019
2494949470,22.41,0.0,0.0,0.0,0.039240000000000004,0.16677000000000003,9.79038
2499999975,22.41,0.0,0.0,0.0,0.019620000000000002,0.13734000000000002,9.81
2505050480,22.41,0.0,0.0,0.0,0.039240000000000004,0.12753,9.80019
2510100985,22.41,0.0,0.0,0.0,0.02943,0.16677000000000003,9.81
2515151490,22.41,0.0,0.0,0.0,0.019620000000000002,0.16677000000000003,9.81
2520201995,22.41,0.0,0.0,0.0,0.019620000000000002,0.15696000000000002,9.80019
2525252500,22.41,0.0,0.0,0.0,0.039240000000000004,0.17658,9.79038
2530303005,22.41,0.0,0.0,0.0,0.009810000000000001,0.16677000000000003,9.770760000000001
2535353510,22.41,0.0,0.0,0.0,0.02943,0.16677000000000003,9.78057
2540404015,22.41,0.0,0.0,0.0,0.02943,0.13734000000000002,9.79038
2545454520,22.41,0.0,0.0,0.0,0.02943,0.16677000000000003,9.81
2550505025,22.41,0.0,0.0,0.0,0.0,0.16677000000000003,9.81
2555555530,22.41,0.0,0.0,0.0,0.019620000000000002,0.16677000000000003,9.79038
2560606035,22.41,0.0,0.0,0.0,0.039240000000000004,0.17658,9.80019
2565656540,22.41,0.0,0.0,0.0,0.039240000000000004,0.17658,9.770760000000001
2570707045,22.41,0.0,0.0,0.0,0.02943,0.16677000000000003,9.78057
2575757550,22.41,0.0,0.0,0.0,0.04905,0.15696000000000002,9.79038
2580808055,22.41,0.0,0.0,0.0,0.02943,0.14715,9.81
2585858560,22.41,0.0,0.0,0.0,0.02943,0.16677000000000003,9.78057
2590909065,22.41,0.0,0.0,0.0,0.039240000000000004,0.16677000000000003,9.78057
2595959570,22.41,0.0,0.0,0.0,0.019620000000000002,0.16677000000000003,9.81
2601010075,22.41,0.0,0.0,0.0,0.02943,0.16677000000000003,9.81
2606060580,22.41,0.0,0.0,0.0,0.039240000000000004,0.14715,9.770760000000001
2611111085,22.41,0.0,0.0,0.0,0.039240000000000004,0.15696000000000002,9.81
2616161590,22.41,0.0,0.0,0.0,0.039240000000000004,0.15696000000000002,9.80019
2621212095,22.41,0.0,0.0,0.0,0.019620000000000002,0.16677000000000003,9.78057
2626262600,22.41,0.0,0.0,0.0,0.04905,0.15696000000000002,9.770760000000001
2631313105,22.41,0.0,0.0,0.0,0.039240000000000004,0.14715,9.80019
2636363610,22.41,0.0,0.0,0.0,0.019620000000000002,0.15696000000000002,9.80019
2641414115,22.41,0.0,0.0,0.0,0.039240000000000004,0.14715,9.81
2646464620,22.41,0.0,0.0,0.0,0.039240000000000004,0.15696000000000002,9.80019
2651515125,22.41,0.0,0.0,0.0,0.0,0.16677000000000003,9.79038
2656565630,22.41,0.0,0.0,0.0,0.039240000000000004,0.15696000000000002,9.81
2661616135,22.41,0.0,0.0,0.0,0.02943,0.16677000000000003,9.770760000000001
2666666640,22.41,0.0,0.0,0.0,0.02943,0.14715,9.81
2671717145,22.41,0.0,0.0,0.0,0.019620000000000002,0.16677000000000003,9.80019
2676767650,22.41,0.0,0.0,0.0,0.019620000000000002,0.13734000000000002,9.79038
2681818155,22.41,0.0,0.0,0.0,0.04905,0.14715,9.770760000000001
2686868660,22.41,0.0,0.0,0.0,0.039240000000000004,0.15696000000000002,9.79038
2691919165,22.41,0.0,0.0,0.0,0.02943,0.16677000000000003,9.79038
2696969670,22.41,0.0,0.0,0.0,0.009810000000000001,0.17658,9.819809999999999
2702020175,22.41,0.0,0.0,0.0,0.039240000000000004,0.14715,9.81
2707070680,22.41,0.0,0.0,0.0,0.02943,0.15696000000000002,9.81
2712121185,22.41,0.0,0.0,0.0,0.039240000000000004,0.16677000000000003,9.78057
2717171690,22.41,0.0,0.0,0.0,0.02943,0.15696000000000002,9.79038
2722222195,22.41,0.0,0.0,0.0,0.039240000000000004,0.16677000000000003,9.79038
2727272700,22.41,0.0,0.0,0.0,0.019620000000000002,0.14715,9.80019
2732323205,22.41,0.0,0.0,0.0,0.02943,0.14715,9.81
2737373710,22.41,0.0,0.0,0.0,0.019620000000000002,0.12753,9.78057
2742424215,22.41,0.0,0.0,0.0,0.019620000000000002,0.16677000000000003,9.78057
2747474720,22.41,0.0,0.0,0.0,0.039240000000000004,0.14715,9.81
2752525225,22.41,0.0,0.0,0.0,0.02943,0.15696000000000002,9.80019
2757575730,22.41,0.0,0.0,0.0,0.02943,0.17658,9.81
2762626235,22.41,0.0,0.0,0.0,0.039240000000000004,0.14715,9.78057
2767676740,22.41,0.0,0.0,0.0,0.009810000000000001,0.16677000000000003,9.80019
2772727245,22.41,0.0,0.0,0.0,0.04905,0.16677000000000003,9.78057
2777777750,22.41,0.0,0.0,0.0,0.02943,0.14715,9.80019
2782828255,22.41,0.0,0.0,0.0,0.02943,0.16677000000000003,9.79038
2787878760,22.41,0.0,0.0,0.0,0.019620000000000002,0.14715,9.81
2792929265,22.41,0.0,0.0,0.0,0.04905,0.17658,9.81
2797979770,22.41,0.0,0.0,0.0,0.039240000000000004,0.17658,9.81
2803030275,22.41,0.0,0.0,0.0,0.019620000000000002,0.14715,9.80019
2808080780,22.41,0.0,0.0,0.0,0.019620000000000002,0.17658,9.78057
2813131285,22.41,0.0,0.0,0.0,0.009810000000000001,0.15696000000000002,9.80019
2818181790,22.41,0.0,0.0,0.0,0.02943,0.16677000000000003,9.81
2823232295,22.41,0.0,0.0,0.0,0.05886,0.14715,9.78057
2828282800,22.41,0.0,0.0,0.0,0.02943,0.14715,9.82962
2833333305,22.41,0.0,0.0,0.0,0.039240000000000004,0.17658,9.79038
2838383810,22.41,0.0,0.0,0.0,0.039240000000000004,0.15696000000000002,9.80019
2843434315,22.41,0.0,0.0,0.0,0.02943,0.13734000000000002,9.80019
2848484820,22.41,0.0,0.0,0.0,0.019620000000000002,0.14715,9.78057
2853535325,22.41,0.0,0.0,0.0,0.009810000000000001,0.16677000000000003,9.81
2858585830,22.41,0.0,0.0,0.0,0.02943,0.15696000000000002,9.78057
2863636335,22.41,0.0,0.0,0.0,0.02943,0.15696000000000002,9.79038
2868686840,22.41,0.0,0.0,0.0,0.02943,0.14715,9.79038
2873737345,22.41,0.0,0.0,0.0,0.02943,0.16677000000000003,9.80019
2878787850,22.41,0.0,0.0,0.0,0.02943,0.16677000000000003,9.79038
2883838355,22.41,0.0,0.0,0.0,0.039240000000000004,0.11772,9.81
2888888860,22.41,0.0,0.0,0.0,0.019620000000000002,0.13734000000000002,9.770760000000001
2893939365,22.41,0.0,0.0,0.0,0.02943,0.15696000000000002,9.81
2898989870,22.41,0.0,0.0,0.0,0.019620000000000002,0.16677000000000003,9.80019
2904040375,22.41,0.0,0.0,0.0,0.039240000000000004,0.18639,9.79038
2909090880,22.41,0.0,0.0,0.0,0.04905,0.13734000000000002,9.79038
2914141385,22.41,0.0,0.0,0.0,0.02943,0.17658,9.80019
2919191890,22.41,0.0,0.0,0.0,0.019620000000000002,0.14715,9.79038
2924242395,22.41,0.0,0.0,0.0,0.02943,0.12753,9.81
2929292900,22.41,0.0,0.0,0.0,0.02943,0.16677000000000003,9.81
2934343405,22.41,0.0,0.0,0.0,0.019620000000000002,0.13734000000000002,9.81
2939393910,22.41,0.0,0.0,0.0,0.039240000000000004,0.15696000000000002,9.82962
2944444415,22.41,0.0,0.0,0.0,0.02943,0.17658,9.79038
2949494920,22.41,0.0,0.0,0.0,0.019620000000000002,0.16677000000000003,9.79038
2954545425,22.41,0.0,0.0,0.0,0.009810000000000001,0.15696000000000002,9.79038
2959595930,22.41,0.0,0.0,0.0,0.04905,0.13734000000000002,9.79038
2964646435,22.41,0.0,0.0,0.0,0.019620000000000002,0.17658,9.79038
2969696940,22.41,0.0,0.0,0.0,0.0,0.14715,9.80019
2974747445,22.41,0.0,0.0,0.0,0.02943,0.15696000000000002,9.80019
2979797950,22.41,0.0,0.0,0.0,0.02943,0.15696000000000002,9.81
2984848455,22.41,0.0,0.0,0.0,0.019620000000000002,0.15696000000000002,9.770760000000001
2989898960,22.41,0.0,0.0,0.0,0.009810000000000001,0.16677000000000003,9.78057
2994949465,22.41,0.0,0.0,0.0,0.039240000000000004,0.15696000000000002,9.81
2999999970,22.41,0.0,0.0,0.0,0.02943,0.14715,9.79038
3005050475,22.41,0.0,0.0,0.0,0.009810000000000001,0.15696000000000002,9.770760000000001
3010100980,22.41,0.0,0.0,0.0,0.039240000000000004,0.12753,9.819809999999999
3015151485,22.41,0.0,0.0,0.0,0.019620000000000002,0.16677000000000003,9.79038
3020201990,22.41,0.0,0.0,0.0,0.02943,0.13734000000000002,9.81
3025252495,22.41,0.0,0.0,0.0,0.039240000000000004,0.15696000000000002,9.819809999999999
3030303000,22.41,0.0,0.0,0.0,0.02943,0.1962,9.81
3035353505,22.41,0.0,0.0,0.0,0.02943,0.17658,9.78057
3040404010,22.41,0.0,0.0,0.0,0.009810000000000001,0.14715,9.78057
3045454515,22.41,0.0,0.0,0.0,0.019620000000000002,0.14715,9.79038
3050505020,22.41,0.0,0.0,0.0,0.02943,0.13734000000000002,9.80019
3055555525,22.41,0.0,0.0,0.0,0.02943,0.14715,9.81
3060606030,22.41,0.0,0.0,0.0,0.039240000000000004,0.17658,9.81
3065656535,22.41,0.0,0.0,0.0,0.019620000000000002,0.14715,9.819809999999999
3070707040,22.41,0.0,0.0,0.0,0.02943,0.15696000000000002,9.81
3075757545,22.41,0.0,0.0,0.0,0.02943,0.17658,9.80019
3080808050,22.41,0.0,0.0,0.0,0.02943,0.16677000000000003,9.79038
3085858555,22.41,0.0,0.0,0.0,0.019620000000000002,0.18639,9.79038
3090909060,22.41,0.0,0.0,0.0,0.039240000000000004,0.14715,9.80019
3095959565,22.41,0.0,0.0,0.0,0.039240000000000004,0.14715,9.80019
3101010070,22.41,0.0,0.0,0.0,0.019620000000000002,0.14715,9.770760000000001
3106060575,22.41,0.0,0.0,0.0,0.039240000000000004,0.18639,9.81
3111111080,22.41,0.0,0.0,0.0,0.02943,0.14715,9.80019
3116161585,22.41,0.0,0.0,0.0,0.04905,0.14715,9.78057
3121212090,22.41,0.0,0.0,0.0,0.039240000000000004,0.16677000000000003,9.79038
3126262595,22.41,0.0,0.0,0.0,0.009810000000000001,0.14715,9.81
3131313100,22.41,0.0,0.0,0.0,0.039240000000000004,0.18639,9.81
3136363605,22.41,0.0,0.0,0.0,0.039240000000000004,0.15696000000000002,9.81
3141414110,22.41,0.0,0.0,0.0,0.039240000000000004,0.13734000000000002,9.78057
3146464615,22.41,0.0,0.0,0.0,0.019620000000000002,0.14715,9.770760000000001
3151515120,22.41,0.0,0.0,0.0,0.019620000000000002,0.12753,9.78057
3156565625,22.41,0.0,0.0,0.0,0.019620000000000002,0.16677000000000003,9.78057
3161616130,22.41,0.0,0.0,0.0,0.009810000000000001,0.15696000000000002,9.80019
3166666635,22.41,0.0,0.0,0.0,0.039240000000000004,0.15696000000000002,9.80019
3171717140,22.41,0.0,0.0,0.0,0.019620000000000002,0.16677000000000003,9.81
3176767645,22.41,0.0,0.0,0.0,0.04905,0.13734000000000002,9.79038
3181818150,22.41,0.0,0.0,0.0,0.02943,0.12753,9.80019
3186868655,22.41,0.0,0.0,0.0,0.019620000000000002,0.14715,9.79038
3191919160,22.41,0.0,0.0,0.0,0.019620000000000002,0.14715,9.81
3196969665,22.41,0.0,0.0,0.0,0.02943,0.15696000000000002,9.81
3202020170,22.41,0.0,0.0,0.0,0.019620000000000002,0.16677000000000003,9.82962
3207070675,22.41,0.0,0.0,0.0,0.019620000000000002,0.18639,9.80019
3212121180,22.41,0.0,0.0,0.0,0.02943,0.13734000000000002,9.79038
3217171685,22.41,0.0,0.0,0.0,0.039240000000000004,0.17658,9.81
3222222190,22.41,0.0,0.0,0.0,0.04905,0.15696000000000002,9.80019
3227272695,22.41,0.0,0.0,0.0,0.04905,0.18639,9.81
3232323200,22.41,0.0,0.0,0.0,0.04905,0.16677000000000003,9.819809999999999
3237373705,22.41,0.0,0.0,0.0,0.0,0.17658,9.819809999999999
3242424210,22.41,0.0,0.0,0.0,0.019620000000000002,0.15696000000000002,9.80019
3247474715,22.41,0.0,0.0,0.0,0.019620000000000002,0.15696000000000002,9.80019
3252525220,22.41,0.0,0.0,0.0,0.02943,0.13734000000000002,9.79038
3257575725,22.41,0.0,0.0,0.0,0.02943,0.16677000000000003,9.81
3262626230,22.41,0.0,0.0,0.0,0.02943,0.14715,9.819809999999999
3267676735,22.41,0.0,0.0,0.0,0.02943,0.16677000000000003,9.79038
3272727240,22.41,0.0,0.0,0.0,0.039240000000000004,0.17658,9.79038
3277777745,22.41,0.0,0.0,0.0,0.039240000000000004,0.15696000000000002,9.81
3282828250,22.41,0.0,0.0,0.0,0.0,0.16677000000000003,9.80019
3287878755,22.41,0.0,0.0,0.0,0.02943,0.15696000000000002,9.79038
3292929260,22.41,0.0,0.0,0.0,0.02943,0.16677000000000003,9.79038
3297979765,22.41,0.0,0.0,0.0,0.019620000000000002,0.16677000000000003,9.81
3303030270,22.41,0.0,0.0,0.0,0.0,0.12753,9.819809999999999
3308080775,22.41,0.0,0.0,0.0,0.019620000000000002,0.15696000000000002,9.78057
3313131280,22.41,0.0,0.0,0.0,0.039240000000000004,0.14715,9.80019
3318181785,22.41,0.0,0.0,0.0,0.02943,0.17658,9.79038
3323232290,22.41,0.0,0.0,0.0,0.04905,0.18639,9.79038
3328282795,22.41,0.0,0.0,0.0,0.039240000000000004,0.17658,9.81
3333333300,22.41,0.0,0.0,0.0,0.02943,0.15696000000000002,9.80019
3338383805,22.41,0.0,0.0,0.0,0.009810000000000001,0.12753,9.81
3343434310,22.41,0.0,0.0,0.0,0.039240000000000004,0.14715,9.81
3348484815,22.41,0.0,0.0,0.0,0.02943,0.13734000000000002,9.80019
3353535320,22.41,0.0,0.0,0.0,0.039240000000000004,0.16677000000000003,9.80019
3358585825,22.41,0.0,0.0,0.0,0.039240000000000004,0.16677000000000003,9.78057
3363636330,22.41,0.0,0.0,0.0,0.02943,0.17658,9.81
3368686835,22.41,0.0,0.0,0.0,0.019620000000000002,0.17658,9.770760000000001
3373737340,22.41,0.0,0.0,0.0,0.02943,0.16677000000000003,9.81
3378787845,22.41,0.0,0.0,0.0,0.009810000000000001,0.15696000000000002,9.79038
3383838350,22.41,0.0,0.0,0.0,0.05886,0.13734000000000002,9.81
3388888855,22.41,0.0,0.0,0.0,0.0,0.12753,9.819809999999999
3393939360,22.41,0.0,0.0,0.0,0.009810000000000001,0.15696000000000002,9.770760000000001
3398989865,22.41,0.0,0.0,0.0,0.019620000000000002,0.1962,9.819809999999999
3404040370,22.41,0.0,0.0,0.0,0.02943,0.17658,9.81
3409090875,22.41,0.0,0.0,0.0,0.039240000000000004,0.18639,9.79038
3414141380,22.41,0.0,0.0,0.0,0.039240000000000004,0.13734000000000002,9.760950000000001
3419191885,22.41,0.0,0.0,0.0,0.02943,0.14715,9.81
3424242390,22.41,0.0,0.0,0.0,0.039240000000000004,0.13734000000000002,9.80019
3429292895,22.41,0.0,0.0,0.0,0.019620000000000002,0.15696000000000002,9.80019
3434343400,22.41,0.0,0.0,0.0,0.02943,0.15696000000000002,9.80019
3439393905,22.41,0.0,0.0,0.0,0.019620000000000002,0.17658,9.819809999999999
3444444410,22.41,0.0,0.0,0.0,0.04905,0.14715,9.79038
3449494915,22.41,0.0,0.0,0.0,0.02943,0.17658,9.81
3454545420,22.41,0.0,0.0,0.0,0.04905,0.18639,9.81
3459595925,22.41,0.0,0.0,0.0,0.039240000000000004,0.14715,9.819809999999999
3464646430,22.41,0.0,0.0,0.0,0.019620000000000002,0.15696000000000002,9.80019
3469696935,22.41,0.0,0.0,0.0,0.019620000000000002,0.15696000000000002,9.80019
3474747440,22.41,0.0,0.0,0.0,0.009810000000000001,0.17658,9.81
3479797945,22.41,0.0,0.0,0.0,0.019620000000000002,0.17658,9.78057
3484848450,22.41,0.0,0.0,0.0,0.019620000000000002,0.17658,9.770760000000001
3489898955,22.41,0.0,0.0,0.0,0.02943,0.17658,9.78057
3494949460,22.41,0.0,0.0,0.0,0.02943,0.13734000000000002,9.80019
3499999965,22.41,0.0,0.0,0.0,0.009810000000000001,0.16677000000000003,9.81
3505050470,22.41,0.0,0.0,0.0,0.02943,0.14715,9.81
3510100975,22.41,0.0,0.0,0.0,0.019620000000000002,0.14715,9.80019
3515151480,22.41,0.0,0.0,0.0,0.009810000000000001,0.15696000000000002,9.79038
3520201985,22.41,0.0,0.0,0.0,0.02943,0.16677000000000003,9.80019
3525252490,22.41,0.0,0.0,0.0,0.02943,0.17658,9.78057
3530302995,22.41,0.0,0.0,0.0,0.04905,0.16677000000000003,9.80019
3535353500,22.41,0.0,0.0,0.0,0.019620000000000002,0.15696000000000002,9.81
3540404005,22.41,0.0,0.0,0.0,0.02943,0.14715,9.79038
3545454510,22.41,0.0,0.0,0.0,0.019620000000000002,0.14715,9.80019
3550505015,22.41,0.0,0.0,0.0,0.009810000000000001,0.13734000000000002,9.80019
3555555520,22.41,0.0,0.0,0.0,0.019620000000000002,0.15696000000000002,9.80019
3560606025,22.41,0.0,0.0,0.0,0.019620000000000002,0.15696000000000002,9.78057
3565656530,22.41,0.0,0.0,0.0,0.04905,0.16677000000000003,9.81
3570707035,22.41,0.0,0.0,0.0,0.019620000000000002,0.16677000000000003,9.81
3575757540,22.41,0.0,0.0,0.0,0.04905,0.14715,9.81
3580808045,22.41,0.0,0.0,0.0,0.02943,0.12753,9.79038
3585858550,22.41,0.0,0.0,0.0,0.019620000000000002,0.12753,9.81
3590909055,22.41,0.0,0.0,0.0,0.019620000000000002,0.14715,9.81
3595959560,22.41,0.0,0.0,0.0,0.009810000000000001,0.18639,9.819809999999999
3601010065,22.41,0.0,0.0,0.0,0.019620000000000002,0.18639,9.819809999999999
3606060570,22.41,0.0,0.0,0.0,0.02943,0.16677000000000003,9.81
3611111075,22.41,0.0,0.0,0.0,0.039240000000000004,0.15696000000000002,9.79038
3616161580,22.41,0.0,0.0,0.0,0.04905,0.12753,9.78057
3621212085,22.41,0.0,0.0,0.0,0.02943,0.13734000000000002,9.770760000000001
3626262590,22.41,0.0,0.0,0.0,0.019620000000000002,0.13734000000000002,9.78057
3631313095,22.41,0.0,0.0,0.0,0.019620000000000002,0.15696000000000002,9.819809999999999
3636363600,22.41,0.0,0.0,0.0,0.019620000000000002,0.16677000000000003,9.819809999999999
3641414105,22.41,0.0,0.0,0.0,0.039240000000000004,0.17658,9.80019
3646464610,22.41,0.0,0.0,0.0,0.009810000000000001,0.17658,9.79038
3651515115,22.41,0.0,0.0,0.0,0.04905,0.15696000000000002,9.78057
3656565620,22.41,0.0,0.0,0.0,0.039240000000000004,0.12753,9.79038
3661616125,22.41,0.0,0.0,0.0,0.04905,0.14715,9.80019
3666666630,22.41,0.0,0.0,0.0,0.02943,0.15696000000000002,9.81
3671717135,22.41,0.0,0.0,0.0,0.02943,0.13734000000000002,9.80019
3676767640,22.41,0.0,0.0,0.0,0.009810000000000001,0.15696000000000002,9.78057
3681818145,22.41,0.0,0.0,0.0,0.02943,0.13734000000000002,9.78057
3686868650,22.41,0.0,0.0,0.0,0.009810000000000001,0.16677000000000003,9.760950000000001
3691919155,22.41,0.0,0.0,0.0,0.039240000000000004,0.17658,9.78057
3696969660,22.41,0.0,0.0,0.0,0.039240000000000004,0.14715,9.81
3702020165,22.41,0.0,0.0,0.0,0.019620000000000002,0.17658,9.81
3707070670,22.41,0.0,0.0,0.0,0.019620000000000002,0.14715,9.80019
3712121175,22.41,0.0,0.0,0.0,0.019620000000000002,0.14715,9.80019
3717171680,22.41,0.0,0.0,0.0,0.019620000000000002,0.13734000000000002,9.78057
3722222185,22.41,0.0,0.0,0.0,0.039240000000000004,0.15696000000000002,9.78057
3727272690,22.41,0.0,0.0,0.0,0.039240000000000004,0.16677000000000003,9.79038
3732323195,22.41,0.0,0.0,0.0,0.009810000000000001,0.14715,9.81
3737373700,22.41,0.0,0.0,0.0,0.05886,0.18639,9.80019
3742424205,22.41,0.0,0.0,0.0,0.039240000000000004,0.15696000000000002,9.79038
3747474710,22.41,0.0,0.0,0.0,0.019620000000000002,0.16677000000000003,9.80019
3752525215,22.41,0.0,0.0,0.0,0.019620000000000002,0.14715,9.79038
3757575720,22.41,0.0,0.0,0.0,0.019620000000000002,0.15696000000000002,9.80019
3762626225,22.41,0.0,0.0,0.0,0.02943,0.16677000000000003,9.78057
3767676730,22.41,0.0,0.0,0.0,0.019620000000000002,0.17658,9.80019
3772727235,22.41,0.0,0.0,0.0,0.039240000000000004,0.15696000000000002,9.81
3777777740,22.41,0.0,0.0,0.0,0.02943,0.17658,9.819809999999999
3782828245,22.41,0.0,0.0,0.0,0.019620000000000002,0.14715,9.79038
3787878750,22.41,0.0,0.0,0.0,0.04905,0.14715,9.78057
3792929255,22.41,0.0,0.0,0.0,0.019620000000000002,0.14715,9.80019
3797979760,22.41,0.0,0.0,0.0,0.039240000000000004,0.14715,9.80019
3803030265,22.41,0.0,0.0,0.0,0.04905,0.17658,9.80019
3808080770,22.41,0.0,0.0,0.0,0.039240000000000004,0.17658,9.79038
3813131275,22.41,0.0,0.0,0.0,0.019620000000000002,0.15696000000000002,9.80019
3818181780,22.41,0.0,0.0,0.0,0.009810000000000001,0.13734000000000002,9.81
3823232285,22.41,0.0,0.0,0.0,0.02943,0.15696000000000002,9.80019
3828282790,22.41,0.0,0.0,0.0,0.0,0.13734000000000002,9.81
3833333295,22.41,0.0,0.0,0.0,0.05886,0.17658,9.81
3838383800,22.41,0.0,0.0,0.0,0.05886,0.16677000000000003,9.81
3843434305,22.41,0.0,0.0,0.0,0.019620000000000002,0.14715,9.78057
3848484810,22.41,0.0,0.0,0.0,0.039240000000000004,0.17658,9.80019
3853535315,22.41,0.0,0.0,0.0,0.019620000000000002,0.16677000000000003,9.78057
3858585820,22.41,0.0,0.0,0.0,0.019620000000000002,0.14715,9.81
3863636325,22.41,0.0,0.0,0.0,0.009810000000000001,0.15696000000000002,9.80019
3868686830,22.41,0.0,0.0,0.0,0.02943,0.17658,9.79038
3873737335,22.41,0.0,0.0,0.0,0.009810000000000001,0.15696000000000002,9.81
3878787840,22.41,0.0,0.0,0.0,0.04905,0.15696000000000002,9.80019
3883838345,22.41,0.0,0.0,0.0,0.0,0.15696000000000002,9.81
3888888850,22.41,0.0,0.0,0.0,0.039240000000000004,0.15696000000000002,9.80019
3893939355,22.41,0.0,0.0,0.0,0.019620000000000002,0.16677000000000003,9.80019
3898989860,22.41,0.0,0.0,0.0,0.04905,0.15696000000000002,9.81
3904040365,22.41,0.0,0.0,0.0,0.019620000000000002,0.15696000000000002,9.81
3909090870,22.41,0.0,0.0,0.0,0.02943,0.15696000000000002,9.81
3914141375,22.41,0.0,0.0,0.0,0.039240000000000004,0.17658,9.81
3919191880,22.41,0.0,0.0,0.0,0.019620000000000002,0.15696000000000002,9.78057
3924242385,22.41,0.0,0.0,0.0,0.02943,0.16677000000000003,9.78057
3929292890,22.41,0.0,0.0,0.0,0.019620000000000002,0.15696000000000002,9.80019
3934343395,22.41,0.0,0.0,0.0,0.04905,0.18639,9.80019
3939393900,22.41,0.0,0.0,0.0,0.05886,0.13734000000000002,9.819809999999999
3944444405,22.41,0.0,0.0,0.0,0.039240000000000004,0.16677000000000003,9.79038
3949494910,22.41,0.0,0.0,0.0,0.039240000000000004,0.13734000000000002,9.80019
3954545415,22.41,0.0,0.0,0.0,0.02943,0.13734000000000002,9.78057
3959595920,22.41,0.0,0.0,0.0,0.0,0.14715,9.79038
3964646425,22.41,0.0,0.0,0.0,0.02943,0.15696000000000002,9.80019
3969696930,22.41,0.0,0.0,0.0,0.009810000000000001,0.17658,9.80019
3974747435,22.41,0.0,0.0,0.0,0.02943,0.17658,9.80019
3979797940,22.41,0.0,0.0,0.0,0.04905,0.17658,9.80019
3984848445,22.41,0.0,0.0,0.0,0.02943,0.15696000000000002,9.79038
3989898950,22.41,0.0,0.0,0.0,0.02943,0.16677000000000003,9.79038
3994949455,22.41,0.0,0.0,0.0,0.009810000000000001,0.14715,9.79038
3999999960,22.41,0.0,0.0,0.0,0.019620000000000002,0.14715,9.819809999999999
4005050465,22.41,0.0,0.0,0.0,0.02943,0.16677000000000003,9.78057
4010100970,22.41,0.0,0.0,0.0,0.02943,0.16677000000000003,9.81
4015151475,22.41,0.0,0.0,0.0,0.04905,0.16677000000000003,9.770760000000001
4020201980,22.41,0.0,0.0,0.0,0.04905,0.18639,9.80019
4025252485,22.41,0.0,0.0,0.0,0.039240000000000004,0.13734000000000002,9.78057
4030302990,22.41,0.0,0.0,0.0,0.02943,0.14715,9.80019
4035353495,22.41,0.0,0.0,0.0,0.009810000000000001,0.16677000000000003,9.79038
4040404000,22.41,0.0,0.0,0.0,0.04905,0.14715,9.819809999999999
4045454505,22.41,0.0,0.0,0.0,0.02943,0.12753,9.80019
4050505010,22.41,0.0,0.0,0.0,0.039240000000000004,0.16677000000000003,9.81
4055555515,22.41,0.0,0.0,0.0,0.009810000000000001,0.16677000000000003,9.81
4060606020,22.41,0.0,0.0,0.0,0.02943,0.16677000000000003,9.80019
4065656525,22.41,0.0,0.0,0.0,0.04905,0.13734000000000002,9.81
4070707030,22.41,0.0,0.0,0.0,0.039240000000000004,0.17658,9.80019
4075757535,22.41,0.0,0.0,0.0,0.009810000000000001,0.14715,9.819809999999999
4080808040,22.41,0.0,0.0,0.0,0.019620000000000002,0.16677000000000003,9.80019
4085858545,22.41,0.0,0.0,0.0,0.019620000000000002,0.14715,9.78057
4090909050,22.41,0.0,0.0,0.0,0.009810000000000001,0.16677000000000003,9.770760000000001
4095959555,22.41,0.0,0.0,0.0,0.0,0.12753,9.80019
4101010060,22.41,0.0,0.0,0.0,0.02943,0.16677000000000003,9.819809999999999
4106060565,22.41,0.0,0.0,0.0,0.04905,0.14715,9.81
4111111070,22.41,0.0,0.0,0.0,0.039240000000000004,0.18639,9.81
4116161575,22.41,0.0,0.0,0.0,0.039240000000000004,0.16677000000000003,9.80019
4121212080,22.41,0.0,0.0,0.0,0.009810000000000001,0.14715,9.80019
4126262585,22.41,0.0,0.0,0.0,0.019620000000000002,0.16677000000000003,9.81
4131313090,22.41,0.0,0.0,0.0,0.039240000000000004,0.15696000000000002,9.81
4136363595,22.41,0.0,0.0,0.0,0.039240000000000004,0.15696000000000002,9.80019
4141414100,22.41,0.0,0.0,0.0,0.039240000000000004,0.14715,9.80019
4146464605,22.41,0.0,0.0,0.0,0.05886,0.15696000000000002,9.79038
4151515110,22.41,0.0,0.0,0.0,0.04905,0.13734000000000002,9.80019
4156565615,22.41,0.0,0.0,0.0,0.02943,0.14715,9.81
4161616120,22.41,0.0,0.0,0.0,0.019620000000000002,0.13734000000000002,9.80019
4166666625,22.41,0.0,0.0,0.0,0.02943,0.15696000000000002,9.79038
4171717130,22.41,0.0,0.0,0.0,0.02943,0.16677000000000003,9.81
4176767635,22.41,0.0,0.0,0.0,0.039240000000000004,0.15696000000000002,9.78057
4181818140,22.41,0.0,0.0,0.0,0.02943,0.13734000000000002,9.80019
4186868645,22.41,0.0,0.0,0.0,0.02943,0.16677000000000003,9.770760000000001
4191919150,22.41,0.0,0.0,0.0,0.009810000000000001,0.15696000000000002,9.78057
4196969655,22.41,0.0,0.0,0.0,0.019620000000000002,0.17658,9.79038
4202020160,22.41,0.0,0.0,0.0,0.0,0.15696000000000002,9.81
4207070665,22.41,0.0,0.0,0.0,0.02943,0.15696000000000002,9.819809999999999
4212121170,22.41,0.0,0.0,0.0,0.02943,0.15696000000000002,9.79038
4217171675,22.41,0.0,0.0,0.0,0.039240000000000004,0.16677000000000003,9.81
4222222180,22.41,0.0,0.0,0.0,0.009810000000000001,0.15696000000000002,9.78057
4227272685,22.41,0.0,0.0,0.0,0.0,0.16677000000000003,9.79038
4232323190,22.41,0.0,0.0,0.0,0.019620000000000002,0.14715,9.79038
4237373695,22.41,0.0,0.0,0.0,0.019620000000000002,0.15696000000000002,9.80019
4242424200,22.41,0.0,0.0,0.0,0.02943,0.16677000000000003,9.81
4247474705,22.41,0.0,0.0,0.0,0.039240000000000004,0.17658,9.819809999999999
4252525210,22.41,0.0,0.0,0.0,0.019620000000000002,0.16677000000000003,9.81
4257575715,22.41,0.0,0.0,0.0,0.02943,0.13734000000000002,9.81
4262626220,22.41,0.0,0.0,0.0,0.039240000000000004,0.14715,9.80019
4267676725,22.41,0.0,0.0,0.0,0.019620000000000002,0.16677000000000003,9.81
4272727230,22.41,0.0,0.0,0.0,0.019620000000000002,0.16677000000000003,9.79038
4277777735,22.41,0.0,0.0,0.0,0.019620000000000002,0.11772,9.78057
4282828240,22.41,0.0,0.0,0.0,0.019620000000000002,0.15696000000000002,9.81
4287878745,22.41,0.0,0.0,0.0,0.039240000000000004,0.15696000000000002,9.79038
4292929250,22.41,0.0,0.0,0.0,0.039240000000000004,0.15696000000000002,9.78057
4297979755,22.41,0.0,0.0,0.0,0.019620000000000002,0.17658,9.78057
4303030260,22.41,0.0,0.0,0.0,0.039240000000000004,0.14715,9.78057
4308080765,22.41,0.0,0.0,0.0,0.019620000000000002,0.15696000000000002,9.79038
4313131270,22.41,0.0,0.0,0.0,0.009810000000000001,0.16677000000000003,9.80019
4318181775,22.41,0.0,0.0,0.0,0.019620000000000002,0.15696000000000002,9.819809999999999
4323232280,22.41,0.0,0.0,0.0,0.039240000000000004,0.14715,9.81
4328282785,22.41,0.0,0.0,0.0,0.009810000000000001,0.14715,9.81
4333333290,22.41,0.0,0.0,0.0,0.02943,0.15696000000000002,9.81
4338383795,22.41,0.0,0.0,0.0,0.019620000000000002,0.18639,9.78057
4343434300,22.41,0.0,0.0,0.0,0.0,0.17658,9.79038
4348484805,22.41,0.0,0.0,0.0,0.04905,0.17658,9.80019
4353535310,22.41,0.0,0.0,0.0,0.039240000000000004,0.14715,9.80019
4358585815,22.41,0.0,0.0,0.0,0.019620000000000002,0.13734000000000002,9.80019
4363636320,22.41,0.0,0.0,0.0,0.019620000000000002,0.13734000000000002,9.80019
4368686825,22.41,0.0,0.0,0.0,0.009810000000000001,0.15696000000000002,9.81
4373737330,22.41,0.0,0.0,0.0,0.02943,0.16677000000000003,9.81
4378787835,22.41,0.0,0.0,0.0,0.04905,0.15696000000000002,9.81
4383838340,22.41,0.0,0.0,0.0,0.04905,0.15696000000000002,9.80019
4388888845,22.41,0.0,0.0,0.0,0.039240000000000004,0.15696000000000002,9.78057
4393939350,22.41,0.0,0.0,0.0,0.019620000000000002,0.15696000000000002,9.80019
4398989855,22.41,0.0,0.0,0.0,0.009810000000000001,0.16677000000000003,9.79038
4404040360,22.41,0.0,0.0,0.0,0.019620000000000002,0.13734000000000002,9.81
4409090865,22.41,0.0,0.0,0.0,0.02943,0.16677000000000003,9.819809999999999
4414141370,22.41,0.0,0.0,0.0,0.039240000000000004,0.15696000000000002,9.79038
4419191875,22.41,0.0,0.0,0.0,0.039240000000000004,0.16677000000000003,9.80019
4424242380,22.41,0.0,0.0,0.0,0.02943,0.17658,9.79038
4429292885,22.41,0.0,0.0,0.0,0.02943,0.14715,9.80019
4434343390,22.41,0.0,0.0,0.0,0.019620000000000002,0.15696000000000002,9.81
4439393895,22.41,0.0,0.0,0.0,0.039240000000000004,0.16677000000000003,9.79038
4444444400,22.41,0.0,0.0,0.0,0.02943,0.14715,9.79038
4449494905,22.41,0.0,0.0,0.0,0.02943,0.14715,9.80019
4454545410,22.41,0.0,0.0,0.0,0.02943,0.14715,9.79038
4459595915,22.41,0.0,0.0,0.0,0.009810000000000001,0.15696000000000002,9.79038
4464646420,22.41,0.0,0.0,0.0,0.02943,0.14715,9.78057
4469696925,22.41,0.0,0.0,0.0,0.019620000000000002,0.14715,9.770760000000001
4474747430,22.41,0.0,0.0,0.0,0.039240000000000004,0.16677000000000003,9.819809999999999
4479797935,22.41,0.0,0.0,0.0,0.009810000000000001,0.16677000000000003,9.81
4484848440,22.41,0.0,0.0,0.0,0.039240000000000004,0.16677000000000003,9.81
4489898945,22.41,0.0,0.0,0.0,0.02943,0.17658,9.78057
4494949450,22.41,0.0,0.0,0.0,0.039240000000000004,0.12753,9.78057
4499999955,22.41,0.0,0.0,0.0,0.019620000000000002,0.14715,9.81
4505050460,22.41,0.0,0.0,0.0,0.019620000000000002,0.15696000000000002,9.80019
4510100965,22.41,0.0,0.0,0.0,0.04905,0.15696000000000002,9.80019
4515151470,22.41,0.0,0.0,0.0,0.04905,0.15696000000000002,9.80019
4520201975,22.41,0.0,0.0,0.0,0.04905,0.16677000000000003,9.79038
4525252480,22.41,0.0,0.0,0.0,0.02943,0.13734000000000002,9.80019
4530302985,22.41,0.0,0.0,0.0,0.009810000000000001,0.14715,9.78057
4535353490,22.41,0.0,0.0,0.0,0.039240000000000004,0.15696000000000002,9.79038
4540403995,22.41,0.0,0.0,0.0,0.04905,0.15696000000000002,9.79038
4545454500,22.41,0.0,0.0,0.0,0.009810000000000001,0.15696000000000002,9.80019
4550505005,22.41,0.0,0.0,0.0,0.04905,0.16677000000000003,9.819809999999999
4555555510,22.41,0.0,0.0,0.0,0.039240000000000004,0.14715,9.81
4560606015,22.41,0.0,0.0,0.0,0.019620000000000002,0.15696000000000002,9.79038
4565656520,22.41,0.0,0.0,0.0,0.02943,0.13734000000000002,9.79038
4570707025,22.41,0.0,0.0,0.0,0.039240000000000004,0.15696000000000002,9.81
4575757530,22.41,0.0,0.0,0.0,0.039240000000000004,0.14715,9.81
4580808035,22.41,0.0,0.0,0.0,0.04905,0.17658,9.78057
4585858540,22.41,0.0,0.0,0.0,0.02943,0.17658,9.80019
4590909045,22.41,0.0,0.0,0.0,0.009810000000000001,0.16677000000000003,9.81
4595959550,22.41,0.0,0.0,0.0,0.039240000000000004,0.15696000000000002,9.79038
4601010055,22.41,0.0,0.0,0.0,0.009810000000000001,0.14715,9.81
4606060560,22.41,0.0,0.0,0.0,0.02943,0.15696000000000002,9.79038
4611111065,22.41,0.0,0.0,0.0,0.039240000000000004,0.17658,9.80019
4616161570,22.41,0.0,0.0,0.0,0.019620000000000002,0.16677000000000003,9.82962
4621212075,22.41,0.0,0.0,0.0,0.039240000000000004,0.14715,9.819809999999999
4626262580,22.41,0.0,0.0,0.0,0.02943,0.15696000000000002,9.79038
4631313085,22.41,0.0,0.0,0.0,0.039240000000000004,0.13734000000000002,9.78057
4636363590,22.41,0.0,0.0,0.0,0.019620000000000002,0.16677000000000003,9.770760000000001
4641414095,22.41,0.0,0.0,0.0,0.02943,0.14715,9.80019
4646464600,22.41,0.0,0.0,0.0,0.039240000000000004,0.15696000000000002,9.78057
4651515105,22.41,0.0,0.0,0.0,0.02943,0.13734000000000002,9.80019
4656565610,22.41,0.0,0.0,0.0,0.02943,0.16677000000000003,9.81
4661616115,22.41,0.0,0.0,0.0,0.019620000000000002,0.16677000000000003,9.79038
4666666620,22.41,0.0,0.0,0.0,0.019620000000000002,0.15696000000000002,9.81
4671717125,22.41,0.0,0.0,0.0,0.019620000000000002,0.15696000000000002,9.819809999999999
4676767630,22.41,0.0,0.0,0.0,0.019620000000000002,0.14715,9.80019
4681818135,22.41,0.0,0.0,0.0,0.039240000000000004,0.15696000000000002,9.81
4686868640,22.41,0.0,0.0,0.0,0.019620000000000002,0.13734000000000002,9.83943
4691919145,22.41,0.0,0.0,0.0,0.02943,0.15696000000000002,9.81
4696969650,22.41,0.0,0.0,0.0,0.019620000000000002,0.14715,9.80019
4702020155,22.41,0.0,0.0,0.0,0.039240000000000004,0.16677000000000003,9.80019
4707070660,22.41,0.0,0.0,0.0,0.02943,0.15696000000000002,9.78057
4712121165,22.41,0.0,0.0,0.0,0.039240000000000004,0.17658,9.81
4717171670,22.41,0.0,0.0,0.0,0.04905,0.14715,9.81
4722222175,22.41,0.0,0.0,0.0,0.0,0.15696000000000002,9.81
4727272680,22.41,0.0,0.0,0.0,0.02943,0.12753,9.81
4732323185,22.41,0.0,0.0,0.0,0.02943,0.12753,9.80019
4737373690,22.41,0.0,0.0,0.0,0.019620000000000002,0.15696000000000002,9.79038
4742424195,22.41,0.0,0.0,0.0,0.06867000000000001,0.17658,9.81
4747474700,22.41,0.0,0.0,0.0,0.039240000000000004,0.13734000000000002,9.79038
4752525205,22.41,0.0,0.0,0.0,0.02943,0.15696000000000002,9.81
4757575710,22.41,0.0,0.0,0.0,0.02943,0.18639,9.79038
4762626215,22.41,0.0,0.0,0.0,0.02943,0.16677000000000003,9.80019
4767676720,22.41,0.0,0.0,0.0,0.019620000000000002,0.14715,9.79038
4772727225,22.41,0.0,0.0,0.0,0.039240000000000004,0.14715,9.80019
4777777730,22.41,0.0,0.0,0.0,0.04905,0.15696000000000002,9.770760000000001
4782828235,22.41,0.0,0.0,0.0,0.02943,0.15696000000000002,9.79038
4787878740,22.41,0.0,0.0,0.0,0.02943,0.14715,9.81
4792929245,22.41,0.0,0.0,0.0,0.02943,0.15696000000000002,9.79038
4797979750,22.41,0.0,0.0,0.0,0.02943,0.14715,9.79038
4803030255,22.41,0.0,0.0,0.0,0.039240000000000004,0.14715,9.80019
4808080760,22.41,0.0,0.0,0.0,0.02943,0.16677000000000003,9.79038
4813131265,22.41,0.0,0.0,0.0,0.019620000000000002,0.13734000000000002,9.81
4818181770,22.41,0.0,0.0,0.0,0.019620000000000002,0.13734000000000002,9.81
4823232275,22.41,0.0,0.0,0.0,0.0,0.14715,9.819809999999999
4828282780,22.41,0.0,0.0,0.0,0.02943,0.15696000000000002,9.770760000000001
4833333285,22.41,0.0,0.0,0.0,0.04905,0.15696000000000002,9.770760000000001
4838383790,22.41,0.0,0.0,0.0,0.009810000000000001,0.16677000000000003,9.770760000000001
4843434295,22.41,0.0,0.0,0.0,0.02943,0.16677000000000003,9.79038
4848484800,22.41,0.0,0.0,0.0,0.019620000000000002,0.16677000000000003,9.79038
4853535305,22.41,0.0,0.0,0.0,0.02943,0.17658,9.80019
4858585810,22.41,0.0,0.0,0.0,0.019620000000000002,0.17658,9.80019
4863636315,22.41,0.0,0.0,0.0,0.02943,0.17658,9.81
4868686820,22.41,0.0,0.0,0.0,0.05886,0.15696000000000002,9.80019
4873737325,22.41,0.0,0.0,0.0,0.039240000000000004,0.12753,9.81
4878787830,22.41,0.0,0.0,0.0,0.0,0.15696000000000002,9.770760000000001
4883838335,22.41,0.0,0.0,0.0,0.039240000000000004,0.14715,9.80019
4888888840,22.41,0.0,0.0,0.0,0.04905,0.14715,9.78057
4893939345,22.41,0.0,0.0,0.0,0.009810000000000001,0.16677000000000003,9.81
4898989850,22.41,0.0,0.0,0.0,0.019620000000000002,0.18639,9.819809999999999
4904040355,22.41,0.0,0.0,0.0,0.019620000000000002,0.15696000000000002,9.770760000000001
4909090860,22.41,0.0,0.0,0.0,0.039240000000000004,0.17658,9.80019
4914141365,22.41,0.0,0.0,0.0,0.019620000000000002,0.14715,9.79038
4919191870,22.41,0.0,0.0,0.0,0.04905,0.13734000000000002,9.79038
4924242375,22.41,0.0,0.0,0.0,0.02943,0.14715,9.81
4929292880,22.41,0.0,0.0,0.0,0.009810000000000001,0.16677000000000003,9.81
4934343385,22.41,0.0,0.0,0.0,0.019620000000000002,0.17658,9.81
4939393890,22.41,0.0,0.0,0.0,0.02943,0.17658,9.80019
4944444395,22.41,0.0,0.0,0.0,0.039240000000000004,0.16677000000000003,9.81
4949494900,22.41,0.0,0.0,0.0,0.02943,0.17658,9.78057
4954545405,22.41,0.0,0.0,0.0,0.02943,0.17658,9.81
4959595910,22.41,0.0,0.0,0.0,0.019620000000000002,0.16677000000000003,9.79038
4964646415,22.41,0.0,0.0,0.0,0.04905,0.13734000000000002,9.78057
4969696920,22.41,0.0,0.0,0.0,0.02943,0.14715,9.78057
4974747425,22.41,0.0,0.0,0.0,0.009810000000000001,0.11772,9.78057
4979797930,22.41,0.0,0.0,0.0,0.04905,0.16677000000000003,9.78057
4984848435,22.41,0.0,0.0,0.0,0.05886,0.15696000000000002,9.770760000000001
4989898940,22.41,0.0,0.0,0.0,0.02943,0.15696000000000002,9.770760000000001
4994949445,22.41,0.0,0.0,0.0,0.02943,0.16677000000000003,9.80019
4999999950,22.41,0.0,0.0,0.0,0.06867000000000001,0.15696000000000002,9.81
5005050455,22.41,0.0,0.0,0.0,0.019620000000000002,0.14715,9.81
5010100960,22.41,0.0,0.0,0.0,0.009810000000000001,0.12753,9.80019
5015151465,22.41,0.0,0.0,0.0,0.0,0.12753,9.78057
5020201970,22.41,0.0,0.0,0.0,0.019620000000000002,0.17658,9.79038
5025252475,22.41,0.0,0.0,0.0,0.019620000000000002,0.17658,9.78057
5030302980,22.41,0.0,0.0,0.0,0.019620000000000002,0.18639,9.79038
5035353485,22.41,0.0,0.0,0.0,0.02943,0.15696000000000002,9.78057
5040403990,22.41,0.0,0.0,0.0,0.02943,0.14715,9.79038
5045454495,22.41,0.0,0.0,0.0,0.039240000000000004,0.12753,9.80019
5050505000,22.41,0.0,0.0,0.0,0.039240000000000004,0.13734000000000002,9.760950000000001
5055555505,22.41,0.0,0.0,0.0,0.02943,0.18639,9.770760000000001
5060606010,22.41,0.0,0.0,0.0,0.019620000000000002,0.15696000000000002,9.81
5065656515,22.41,0.0,0.0,0.0,0.019620000000000002,0.16677000000000003,9.770760000000001
5070707020,22.41,0.0,0.0,0.0,0.02943,0.17658,9.81
5075757525,22.41,0.0,0.0,0.0,0.019620000000000002,0.15696000000000002,9.79038
5080808030,22.41,0.0,0.0,0.0,0.009810000000000001,0.14715,9.79038
5085858535,22.41,0.0,0.0,0.0,0.009810000000000001,0.14715,9.80019
5090909040,22.41,0.0,0.0,0.0,0.02943,0.1962,9.770760000000001
5095959545,22.41,0.0,0.0,0.0,0.039240000000000004,0.13734000000000002,9.79038
5101010050,22.41,0.0,0.0,0.0,0.019620000000000002,0.16677000000000003,9.79038
5106060555,22.41,0.0,0.0,0.0,0.009810000000000001,0.12753,9.78057
5111111060,22.41,0.0,0.0,0.0,0.039240000000000004,0.14715,9.81
5116161565,22.41,0.0,0.0,0.0,0.02943,0.14715,9.79038
5121212070,22.41,0.0,0.0,0.0,0.0,0.13734000000000002,9.79038
5126262575,22.41,0.0,0.0,0.0,0.019620000000000002,0.15696000000000002,9.81
5131313080,22.41,0.0,0.0,0.0,0.009810000000000001,0.15696000000000002,9.79038
5136363585,22.41,0.0,0.0,0.0,0.019620000000000002,0.15696000000000002,9.80019
5141414090,22.41,0.0,0.0,0.0,0.02943,0.16677000000000003,9.79038
5146464595,22.41,0.0,0.0,0.0,0.04905,0.15696000000000002,9.78057
5151515100,22.41,0.0,0.0,0.0,0.019620000000000002,0.12753,9.81
5156565605,22.41,0.0,0.0,0.0,0.039240000000000004,0.15696000000000002,9.79038
5161616110,22.41,0.0,0.0,0.0,0.019620000000000002,0.14715,9.79038
5166666615,22.41,0.0,0.0,0.0,0.009810000000000001,0.12753,9.80019
5171717120,22.41,0.0,0.0,0.0,0.02943,0.17658,9.79038
5176767625,22.41,0.0,0.0,0.0,0.0,0.16677000000000003,9.80019
5181818130,22.41,0.0,0.0,0.0,0.039240000000000004,0.16677000000000003,9.79038
5186868635,22.41,0.0,0.0,0.0,0.019620000000000002,0.16677000000000003,9.770760000000001
5191919140,22.41,0.0,0.0,0.0,0.02943,0.17658,9.80019
5196969645,22.41,0.0,0.0,0.0,0.02943,0.15696000000000002,9.819809999999999
5202020150,22.41,0.0,0.0,0.0,0.019620000000000002,0.15696000000000002,9.81
5207070655,22.41,0.0,0.0,0.0,0.019620000000000002,0.15696000000000002,9.81
5212121160,22.41,0.0,0.0,0.0,0.009810000000000001,0.15696000000000002,9.78057
5217171665,22.41,0.0,0.0,0.0,0.039240000000000004,0.14715,9.79038
5222222170,22.41,0.0,0.0,0.0,0.009810000000000001,0.16677000000000003,9.81
5227272675,22.41,0.0,0.0,0.0,0.039240000000000004,0.16677000000000003,9.81
5232323180,22.41,0.0,0.0,0.0,0.02943,0.14715,9.819809999999999
5237373685,22.41,0.0,0.0,0.0,0.02943,0.16677000000000003,9.78057
5242424190,22.41,0.0,0.0,0.0,0.009810000000000001,0.14715,9.80019
5247474695,22.41,0.0,0.0,0.0,0.019620000000000002,0.14715,9.78057
5252525200,22.41,0.0,0.0,0.0,0.0,0.13734000000000002,9.81
5257575705,22.41,0.0,0.0,0.0,0.02943,0.15696000000000002,9.81
5262626210,22.41,0.0,0.0,0.0,0.019620000000000002,0.17658,9.80019
5267676715,22.41,0.0,0.0,0.0,0.009810000000000001,0.14715,9.81
5272727220,22.41,0.0,0.0,0.0,0.02943,0.15696000000000002,9.819809999999999
5277777725,22.41,0.0,0.0,0.0,0.04905,0.16677000000000003,9.80019
5282828230,22.41,0.0,0.0,0.0,0.019620000000000002,0.14715,9.81
5287878735,22.41,0.0,0.0,0.0,0.02943,0.14715,9.79038
5292929240,22.41,0.0,0.0,0.0,0.019620000000000002,0.17658,9.81
5297979745,22.41,0.0,0.0,0.0,0.019620000000000002,0.14715,9.81
5303030250,22.41,0.0,0.0,0.0,0.04905,0.14715,9.819809999999999
5308080755,22.41,0.0,0.0,0.0,0.02943,0.16677000000000003,9.79038
5313131260,22.41,0.0,0.0,0.0,0.02943,0.17658,9.81
5318181765,22.41,0.0,0.0,0.0,0.04905,0.15696000000000002,9.80019
5323232270,22.41,0.0,0.0,0.0,0.019620000000000002,0.15696000000000002,9.79038
5328282775,22.41,0.0,0.0,0.0,0.009810000000000001,0.16677000000000003,9.81
5333333280,22.41,0.0,0.0,0.0,0.039240000000000004,0.15696000000000002,9.81
5338383785,22.41,0.0,0.0,0.0,0.02943,0.17658,9.81
5343434290,22.41,0.0,0.0,0.0,0.039240000000000004,0.15696000000000002,9.80019
5348484795,22.41,0.0,0.0,0.0,0.019620000000000002,0.17658,9.80019
5353535300,22.41,0.0,0.0,0.0,0.04905,0.17658,9.78057
5358585805,22.41,0.0,0.0,0.0,0.02943,0.15696000000000002,9.81
5363636310,22.41,0.0,0.0,0.0,0.019620000000000002,0.14715,9.79038
5368686815,22.41,0.0,0.0,0.0,0.019620000000000002,0.15696000000000002,9.80019
5373737320,22.41,0.0,0.0,0.0,0.019620000000000002,0.16677000000000003,9.80019
5378787825,22.41,0.0,0.0,0.0,0.02943,0.14715,9.81
5383838330,22.41,0.0,0.0,0.0,0.039240000000000004,0.15696000000000002,9.78057
5388888835,22.41,0.0,0.0,0.0,0.039240000000000004,0.15696000000000002,9.770760000000001
5393939340,22.41,0.0,0.0,0.0,0.039240000000000004,0.16677000000000003,9.80019
5398989845,22.41,0.0,0.0,0.0,0.04905,0.12753,9.79038
5404040350,22.41,0.0,0.0,0.0,0.009810000000000001,0.17658,9.80019
5409090855,22.41,0.0,0.0,0.0,0.039240000000000004,0.15696000000000002,9.80019
5414141360,22.41,0.0,0.0,0.0,0.02943,0.14715,9.80019
5419191865,22.41,0.0,0.0,0.0,0.009810000000000001,0.16677000000000003,9.770760000000001
5424242370,22.41,0.0,0.0,0.0,0.009810000000000001,0.16677000000000003,9.79038
5429292875,22.41,0.0,0.0,0.0,0.039240000000000004,0.13734000000000002,9.80019
5434343380,22.41,0.0,0.0,0.0,0.039240000000000004,0.15696000000000002,9.81
5439393885,22.41,0.0,0.0,0.0,0.019620000000000002,0.16677000000000003,9.819809999999999
5444444390,22.41,0.0,0.0,0.0,0.019620000000000002,0.15696000000000002,9.81
5449494895,22.41,0.0,0.0,0.0,0.02943,0.15696000000000002,9.79038
5454545400,22.41,0.0,0.0,0.0,0.009810000000000001,0.15696000000000002,9.78057
5459595905,22.41,0.0,0.0,0.0,0.019620000000000002,0.15696000000000002,9.80019
5464646410,22.41,0.0,0.0,0.0,0.039240000000000004,0.14715,9.80019
5469696915,22.41,0.0,0.0,0.0,0.0,0.18639,9.80019
5474747420,22.41,0.0,0.0,0.0,0.02943,0.13734000000000002,9.770760000000001
5479797925,22.41,0.0,0.0,0.0,0.019620000000000002,0.11772,9.80019
5484848430,22.41,0.0,0.0,0.0,0.039240000000000004,0.13734000000000002,9.819809999999999
5489898935,22.41,0.0,0.0,0.0,0.039240000000000004,0.13734000000000002,9.770760000000001
5494949440,22.41,0.0,0.0,0.0,0.019620000000000002,0.16677000000000003,9.80019
5499999945,22.41,0.0,0.0,0.0,0.02943,0.15696000000000002,9.81
5505050450,22.41,0.0,0.0,0.0,0.02943,0.16677000000000003,9.80019
5510100955,22.41,0.0,0.0,0.0,0.009810000000000001,0.17658,9.80019
5515151460,22.41,0.0,0.0,0.0,0.009810000000000001,0.18639,9.81
5520201965,22.41,0.0,0.0,0.0,0.009810000000000001,0.14715,9.79038
5525252470,22.41,0.0,0.0,0.0,0.019620000000000002,0.14715,9.79038
5530302975,22.41,0.0,0.0,0.0,0.02943,0.17658,9.79038
5535353480,22.41,0.0,0.0,0.0,0.019620000000000002,0.14715,9.81
5540403985,22.41,0.0,0.0,0.0,0.009810000000000001,0.16677000000000003,9.81
5545454490,22.41,0.0,0.0,0.0,0.039240000000000004,0.14715,9.79038
5550504995,22.41,0.0,0.0,0.0,0.019620000000000002,0.14715,9.79038
5555555500,22.41,0.0,0.0,0.0,0.019620000000000002,0.14715,9.80019
5560606005,22.41,0.0,0.0,0.0,0.02943,0.15696000000000002,9.78057
5565656510,22.41,0.0,0.0,0.0,0.019620000000000002,0.15696000000000002,9.78057
5570707015,22.41,0.0,0.0,0.0,0.04905,0.16677000000000003,9.80019
5575757520,22.41,0.0,0.0,0.0,0.009810000000000001,0.15696000000000002,9.79038
5580808025,22.41,0.0,0.0,0.0,0.039240000000000004,0.13734000000000002,9.80019
5585858530,22.41,0.0,0.0,0.0,0.04905,0.12753,9.79038
5590909035,22.41,0.0,0.0,0.0,0.02943,0.14715,9.80019
5595959540,22.41,0.0,0.0,0.0,0.019620000000000002,0.16677000000000003,9.80019
5601010045,22.41,0.0,0.0,0.0,0.019620000000000002,0.17658,9.80019
5606060550,22.41,0.0,0.0,0.0,0.039240000000000004,0.14715,9.819809999999999
5611111055,22.41,0.0,0.0,0.0,0.04905,0.16677000000000003,9.81
5616161560,22.41,0.0,0.0,0.0,0.02943,0.15696000000000002,9.79038
5621212065,22.41,0.0,0.0,0.0,0.02943,0.17658,9.79038
5626262570,22.41,0.0,0.0,0.0,0.05886,0.15696000000000002,9.78057
5631313075,22.41,0.0,0.0,0.0,0.02943,0.16677000000000003,9.80019
5636363580,22.41,0.0,0.0,0.0,0.019620000000000002,0.16677000000000003,9.81
5641414085,22.41,0.0,0.0,0.0,0.02943,0.15696000000000002,9.819809999999999
5646464590,22.41,0.0,0.0,0.0,0.019620000000000002,0.14715,9.82962
5651515095,22.41,0.0,0.0,0.0,0.039240000000000004,0.17658,9.80019
5656565600,22.41,0.0,0.0,0.0,0.02943,0.16677000000000003,9.79038
5661616105,22.41,0.0,0.0,0.0,0.04905,0.14715,9.80019
5666666610,22.41,0.0,0.0,0.0,0.02943,0.16677000000000003,9.81
5671717115,22.41,0.0,0.0,0.0,0.0,0.15696000000000002,9.79038
5676767620,22.41,0.0,0.0,0.0,0.009810000000000001,0.16677000000000003,9.81
5681818125,22.41,0.0,0.0,0.0,0.019620000000000002,0.11772,9.79038
5686868630,22.41,0.0,0.0,0.0,0.04905,0.14715,9.79038
5691919135,22.41,0.0,0.0,0.0,0.009810000000000001,0.17658,9.82962
5696969640,22.41,0.0,0.0,0.0,0.019620000000000002,0.13734000000000002,9.80019
5702020145,22.41,0.0,0.0,0.0,0.02943,0.16677000000000003,9.79038
5707070650,22.41,0.0,0.0,0.0,0.019620000000000002,0.17658,9.79038
5712121155,22.41,0.0,0.0,0.0,0.02943,0.16677000000000003,9.81
5717171660,22.41,0.0,0.0,0.0,0.039240000000000004,0.11772,9.80019
5722222165,22.41,0.0,0.0,0.0,0.05886,0.14715,9.770760000000001
5727272670,22.41,0.0,0.0,0.0,0.019620000000000002,0.15696000000000002,9.819809999999999
5732323175,22.41,0.0,0.0,0.0,0.039240000000000004,0.15696000000000002,9.80019
5737373680,22.41,0.0,0.0,0.0,0.019620000000000002,0.14715,9.79038
5742424185,22.41,0.0,0.0,0.0,0.02943,0.17658,9.78057
5747474690,22.41,0.0,0.0,0.0,0.04905,0.15696000000000002,9.79038
5752525195,22.41,0.0,0.0,0.0,0.05886,0.16677000000000003,9.79038
5757575700,22.41,0.0,0.0,0.0,0.039240000000000004,0.17658,9.79038
5762626205,22.41,0.0,0.0,0.0,0.02943,0.14715,9.83943
5767676710,22.41,0.0,0.0,0.0,0.02943,0.15696000000000002,9.78057
5772727215,22.41,0.0,0.0,0.0,0.0,0.14715,9.82962
5777777720,22.47,0.0,0.0,0.0,0.039240000000000004,0.16677000000000003,9.79038
5782828225,22.47,0.0,0.0,0.0,0.019620000000000002,0.18639,9.80019
5787878730,22.47,0.0,0.0,0.0,0.019620000000000002,0.18639,9.80019
5792929235,22.47,0.0,0.0,0.0,0.05886,0.17658,9.819809999999999
5797979740,22.47,0.0,0.0,0.0,0.019620000000000002,0.15696000000000002,9.80019
5803030245,22.47,0.0,0.0,0.0,0.02943,0.14715,9.80019
5808080750,22.47,0.0,0.0,0.0,0.04905,0.15696000000000002,9.79038
5813131255,22.47,0.0,0.0,0.0,0.009810000000000001,0.17658,9.819809999999999
5818181760,22.47,0.0,0.0,0.0,0.039240000000000004,0.13734000000000002,9.82962
5823232265,22.47,0.0,0.0,0.0,0.039240000000000004,0.15696000000000002,9.760950000000001
5828282770,22.47,0.0,0.0,0.0,0.039240000000000004,0.15696000000000002,9.79038
5833333275,22.47,0.0,0.0,0.0,0.02943,0.1962,9.78057
5838383780,22.47,0.0,0.0,0.0,0.02943,0.18639,9.83943
5843434285,22.47,0.0,0.0,0.0,0.019620000000000002,0.15696000000000002,9.819809999999999
5848484790,22.47,0.0,0.0,0.0,0.009810000000000001,0.13734000000000002,9.83943
5853535295,22.47,0.0,0.0,0.0,0.019620000000000002,0.13734000000000002,9.79038
5858585800,22.47,0.0,0.0,0.0,0.02943,0.14715,9.81
5863636305,22.47,0.0,0.0,0.0,0.009810000000000001,0.16677000000000003,9.83943
5868686810,22.47,0.0,0.0,0.0,0.02943,0.18639,9.80019
5873737315,22.47,0.0,0.0,0.0,0.0,0.16677000000000003,9.81
5878787820,22.47,0.0,0.0,0.0,0.009810000000000001,0.15696000000000002,9.82962
5883838325,22.47,0.0,0.0,0.0,0.05886,0.15696000000000002,9.819809999999999
5888888830,22.47,0.0,0.0,0.0,0.02943,0.16677000000000003,9.79038
5893939335,22.47,0.0,0.0,0.0,0.019620000000000002,0.14715,9.760950000000001
5898989840,22.47,0.0,0.0,0.0,0.019620000000000002,0.15696000000000002,9.81
5904040345,22.47,0.0,0.0,0.0,0.019620000000000002,0.18639,9.81
5909090850,22.47,0.0,0.0,0.0,0.039240000000000004,0.16677000000000003,9.80019
5914141355,22.47,0.0,0.0,0.0,0.02943,0.16677000000000003,9.79038
5919191860,22.47,0.0,0.0,0.0,0.019620000000000002,0.14715,9.80019
5924242365,22.47,0.0,0.0,0.0,0.04905,0.15696000000000002,9.79038
5929292870,22.47,0.0,0.0,0.0,0.019620000000000002,0.12753,9.80019
5934343375,22.47,0.0,0.0,0.0,0.0,0.13734000000000002,9.80019
5939393880,22.47,0.0,0.0,0.0,0.019620000000000002,0.14715,9.770760000000001
5944444385,22.47,0.0,0.0,0.0,0.039240000000000004,0.14715,9.79038
5949494890,22.47,0.0,0.0,0.0,0.039240000000000004,0.17658,9.80019
5954545395,22.47,0.0,0.0,0.0,0.02943,0.15696000000000002,9.760950000000001
5959595900,22.47,0.0,0.0,0.0,0.039240000000000004,0.14715,9.770760000000001
5964646405,22.47,0.0,0.0,0.0,0.0,0.16677000000000003,9.78057
5969696910,22.47,0.0,0.0,0.0,0.0,0.14715,9.82962
5974747415,22.47,0.0,0.0,0.0,0.0,0.16677000000000003,9.80019
5979797920,22.47,0.0,0.0,0.0,0.009810000000000001,0.14715,9.80019
5984848425,22.47,0.0,0.0,0.0,0.02943,0.16677000000000003,9.80019
5989898930,22.47,0.0,0.0,0.0,0.05886,0.16677000000000003,9.770760000000001
5994949435,22.47,0.0,0.0,0.0,0.06867000000000001,0.16677000000000003,9.80019
5999999940,22.47,0.0,0.0,0.0,0.019620000000000002,0.16677000000000003,9.80019
6005050445,22.47,0.0,0.0,0.0,0.009810000000000001,0.15696000000000002,9.80019
6010100950,22.47,0.0,0.0,0.0,0.02943,0.13734000000000002,9.81
6015151455,22.47,0.0,0.0,0.0,0.02943,0.13734000000000002,9.81
6020201960,22.47,0.0,0.0,0.0,0.019620000000000002,0.15696000000000002,9.819809999999999
6025252465,22.47,0.0,0.0,0.0,0.019620000000000002,0.16677000000000003,9.81
6030302970,22.47,0.0,0.0,0.0,0.02943,0.18639,9.79038
6035353475,22.47,0.0,0.0,0.0,0.019620000000000002,0.13734000000000002,9.81
6040403980,22.47,0.0,0.0,0.0,0.04905,0.15696000000000002,9.78057
6045454485,22.47,0.0,0.0,0.0,0.009810000000000001,0.12753,9.80019
6050504990,22.47,0.0,0.0,0.0,0.039240000000000004,0.16677000000000003,9.78057
6055555495,22.47,0.0,0.0,0.0,0.02943,0.16677000000000003,9.819809999999999
6060606000,22.47,0.0,0.0,0.0,0.039240000000000004,0.13734000000000002,9.80019
6065656505,22.47,0.0,0.0,0.0,0.039240000000000004,0.14715,9.80019
6070707010,22.47,0.0,0.0,0.0,0.019620000000000002,0.14715,9.78057
6075757515,22.47,0.0,0.0,0.0,0.019620000000000002,0.15696000000000002,9.81
6080808020,22.47,0.0,0.0,0.0,0.039240000000000004,0.17658,9.80019
6085858525,22.47,0.0,0.0,0.0,0.04905,0.16677000000000003,9.80019
6090909030,22.47,0.0,0.0,0.0,0.009810000000000001,0.14715,9.819809999999999
6095959535,22.47,0.0,0.0,0.0,0.039240000000000004,0.13734000000000002,9.81
6101010040,22.47,0.0,0.0,0.0,0.02943,0.17658,9.819809999999999
6106060545,22.47,0.0,0.0,0.0,0.019620000000000002,0.13734000000000002,9.819809999999999
6111111050,22.47,0.0,0.0,0.0,0.05886,0.15696000000000002,9.80019
6116161555,22.47,0.0,0.0,0.0,0.04905,0.17658,9.78057
6121212060,22.47,0.0,0.0,0.0,0.039240000000000004,0.16677000000000003,9.81
6126262565,22.47,0.0,0.0,0.0,0.039240000000000004,0.14715,9.819809999999999
6131313070,22.47,0.0,0.0,0.0,0.039240000000000004,0.15696000000000002,9.770760000000001
6136363575,22.47,0.0,0.0,0.0,0.039240000000000004,0.11772,9.78057
6141414080,22.47,0.0,0.0,0.0,0.0,0.13734000000000002,9.81
6146464585,22.47,0.0,0.0,0.0,0.039240000000000004,0.15696000000000002,9.81
6151515090,22.47,0.0,0.0,0.0,0.05886,0.15696000000000002,9.80019
6156565595,22.47,0.0,0.0,0.0,0.039240000000000004,0.16677000000000003,9.81
6161616100,22.47,0.0,0.0,0.0,0.02943,0.13734000000000002,9.79038
6166666605,22.47,0.0,0.0,0.0,0.02943,0.14715,9.760950000000001
6171717110,22.47,0.0,0.0,0.0,0.039240000000000004,0.15696000000000002,9.81
6176767615,22.47,0.0,0.0,0.0,0.02943,0.14715,9.81
6181818120,22.47,0.0,0.0,0.0,0.039240000000000004,0.16677000000000003,9.79038
6186868625,22.47,0.0,0.0,0.0,0.039240000000000004,0.15696000000000002,9.79038
6191919130,22.47,0.0,0.0,0.0,0.039240000000000004,0.14715,9.78057
6196969635,22.47,0.0,0.0,0.0,0.04905,0.15696000000000002,9.81
6202020140,22.47,0.0,0.0,0.0,0.04905,0.13734000000000002,9.78057
6207070645,22.47,0.0,0.0,0.0,0.019620000000000002,0.18639,9.819809999999999
6212121150,22.47,0.0,0.0,0.0,0.02943,0.16677000000000003,9.819809999999999
6217171655,22.47,0.0,0.0,0.0,0.02943,0.16677000000000003,9.80019
6222222160,22.47,0.0,0.0,0.0,0.04905,0.14715,9.80019
6227272665,22.47,0.0,0.0,0.0,0.009810000000000001,0.15696000000000002,9.80019
6232323170,22.47,0.0,0.0,0.0,0.019620000000000002,0.13734000000000002,9.80019
6237373675,22.47,0.0,0.0,0.0,0.039240000000000004,0.13734000000000002,9.80019
6242424180,22.47,0.0,0.0,0.0,0.02943,0.18639,9.81
6247474685,22.47,0.0,0.0,0.0,0.039240000000000004,0.14715,9.81
6252525190,22.47,0.0,0.0,0.0,0.04905,0.15696000000000002,9.78057
6257575695,22.47,0.0,0.0,0.0,0.039240000000000004,0.14715,9.80019
6262626200,22.47,0.0,0.0,0.0,0.02943,0.13734000000000002,9.78057
6267676705,22.47,0.0,0.0,0.0,0.02943,0.17658,9.79038
6272727210,22.47,0.0,0.0,0.0,0.04905,0.16677000000000003,9.81
6277777715,22.47,0.0,0.0,0.0,0.009810000000000001,0.16677000000000003,9.80019
6282828220,22.47,0.0,0.0,0.0,0.04905,0.15696000000000002,9.79038
6287878725,22.47,0.0,0.0,0.0,0.039240000000000004,0.15696000000000002,9.80019
6292929230,22.47,0.0,0.0,0.0,0.019620000000000002,0.13734000000000002,9.80019
6297979735,22.47,0.0,0.0,0.0,0.019620000000000002,0.12753,9.81
6303030240,22.47,0.0,0.0,0.0,0.02943,0.15696000000000002,9.81
6308080745,22.47,0.0,0.0,0.0,0.02943,0.16677000000000003,9.81
6313131250,22.47,0.0,0.0,0.0,0.039240000000000004,0.15696000000000002,9.81
6318181755,22.47,0.0,0.0,0.0,0.019620000000000002,0.16677000000000003,9.81
6323232260,22.47,0.0,0.0,0.0,0.039240000000000004,0.15696000000000002,9.79038
6328282765,22.47,0.0,0.0,0.0,0.02943,0.15696000000000002,9.79038
6333333270,22.47,0.0,0.0,0.0,0.02943,0.13734000000000002,9.770760000000001
6338383775,22.47,0.0,0.0,0.0,0.019620000000000002,0.15696000000000002,9.79038
6343434280,22.47,0.0,0.0,0.0,0.039240000000000004,0.16677000000000003,9.81
6348484785,22.47,0.0,0.0,0.0,0.009810000000000001,0.15696000000000002,9.82962
6353535290,22.47,0.0,0.0,0.0,0.009810000000000001,0.15696000000000002,9.80019
6358585795,22.47,0.0,0.0,0.0,0.02943,0.14715,9.78057
6363636300,22.47,0.0,0.0,0.0,0.019620000000000002,0.15696000000000002,9.79038
6368686805,22.47,0.0,0.0,0.0,0.039240000000000004,0.17658,9.78057
6373737310,22.47,0.0,0.0,0.0,0.019620000000000002,0.15696000000000002,9.79038
6378787815,22.47,0.0,0.0,0.0,0.02943,0.14715,9.81
6383838320,22.47,0.0,0.0,0.0,0.02943,0.15696000000000002,9.79038
6388888825,22.47,0.0,0.0,0.0,0.009810000000000001,0.16677000000000003,9.80019
6393939330,22.47,0.0,0.0,0.0,0.04905,0.15696000000000002,9.79038
6398989835,22.47,0.0,0.0,0.0,0.04905,0.16677000000000003,9.79038
6404040340,22.47,0.0,0.0,0.0,0.009810000000000001,0.16677000000000003,9.79038
6409090845,22.47,0.0,0.0,0.0,0.019620000000000002,0.16677000000000003,9.80019
6414141350,22.47,0.0,0.0,0.0,0.039240000000000004,0.18639,9.81
6419191855,22.47,0.0,0.0,0.0,0.019620000000000002,0.13734000000000002,9.80019
6424242360,22.47,0.0,0.0,0.0,0.02943,0.17658,9.81
6429292865,22.47,0.0,0.0,0.0,0.019620000000000002,0.12753,9.79038
6434343370,22.47,0.0,0.0,0.0,0.039240000000000004,0.14715,9.79038
6439393875,22.47,0.0,0.0,0.0,0.039240000000000004,0.17658,9.78057
6444444380,22.47,0.0,0.0,0.0,0.019620000000000002,0.16677000000000003,9.80019
6449494885,22.47,0.0,0.0,0.0,0.019620000000000002,0.17658,9.81
6454545390,22.47,0.0,0.0,0.0,0.02943,0.14715,9.80019
6459595895,22.47,0.0,0.0,0.0,0.009810000000000001,0.16677000000000003,9.79038
6464646400,22.47,0.0,0.0,0.0,0.009810000000000001,0.11772,9.78057
6469696905,22.47,0.0,0.0,0.0,0.02943,0.10791,9.80019
6474747410,22.47,0.0,0.0,0.0,0.039240000000000004,0.14715,9.819809999999999
6479797915,22.47,0.0,0.0,0.0,0.039240000000000004,0.16677000000000003,9.79038
6484848420,22.47,0.0,0.0,0.0,0.05886,0.16677000000000003,9.80019
6489898925,22.47,0.0,0.0,0.0,0.019620000000000002,0.15696000000000002,9.81
6494949430,22.47,0.0,0.0,0.0,0.019620000000000002,0.15696000000000002,9.80019
6499999935,22.47,0.0,0.0,0.0,0.019620000000000002,0.15696000000000002,9.81
6505050440,22.47,0.0,0.0,0.0,0.019620000000000002,0.15696000000000002,9.81
6510100945,22.47,0.0,0.0,0.0,0.02943,0.17658,9.80019
6515151450,22.47,0.0,0.0,0.0,0.019620000000000002,0.15696000000000002,9.80019
6520201955,22.47,0.0,0.0,0.0,0.04905,0.17658,9.82962
6525252460,22.47,0.0,0.0,0.0,0.04905,0.17658,9.80019
6530302965,22.47,0.0,0.0,0.0,0.02943,0.15696000000000002,9.80019
6535353470,22.47,0.0,0.0,0.0,0.02943,0.12753,9.78057
6540403975,22.47,0.0,0.0,0.0,0.009810000000000001,0.12753,9.79038
6545454480,22.47,0.0,0.0,0.0,0.02943,0.16677000000000003,9.78057
6550504985,22.47,0.0,0.0,0.0,0.02943,0.11772,9.80019
6555555490,22.47,0.0,0.0,0.0,0.05886,0.15696000000000002,9.81
6560605995,22.47,0.0,0.0,0.0,0.02943,0.16677000000000003,9.81
6565656500,22.47,0.0,0.0,0.0,0.05886,0.13734000000000002,9.79038
6570707005,22.47,0.0,0.0,0.0,0.039240000000000004,0.12753,9.770760000000001
6575757510,22.47,0.0,0.0,0.0,0.019620000000000002,0.13734000000000002,9.81
6580808015,22.47,0.0,0.0,0.0,0.039240000000000004,0.14715,9.80019
6585858520,22.47,0.0,0.0,0.0,0.02943,0.18639,9.81
6590909025,22.47,0.0,0.0,0.0,0.04905,0.14715,9.82962
6595959530,22.47,0.0,0.0,0.0,0.02943,0.16677000000000003,9.81
6601010035,22.47,0.0,0.0,0.0,0.019620000000000002,0.16677000000000003,9.770760000000001
6606060540,22.47,0.0,0.0,0.0,0.02943,0.15696000000000002,9.79038
6611111045,22.47,0.0,0.0,0.0,0.019620000000000002,0.15696000000000002,9.80019
6616161550,22.47,0.0,0.0,0.0,0.05886,0.14715,9.819809999999999
6621212055,22.47,0.0,0.0,0.0,0.039240000000000004,0.15696000000000002,9.81
6626262560,22.47,0.0,0.0,0.0,0.039240000000000004,0.13734000000000002,9.81
6631313065,22.47,0.0,0.0,0.0,0.02943,0.14715,9.79038
6636363570,22.47,0.0,0.0,0.0,0.039240000000000004,0.15696000000000002,9.79038
6641414075,22.47,0.0,0.0,0.0,0.019620000000000002,0.15696000000000002,9.80019
6646464580,22.47,0.0,0.0,0.0,0.039240000000000004,0.16677000000000003,9.80019
6651515085,22.47,0.0,0.0,0.0,0.039240000000000004,0.18639,9.81
6656565590,22.47,0.0,0.0,0.0,0.019620000000000002,0.13734000000000002,9.81
6661616095,22.47,0.0,0.0,0.0,0.02943,0.13734000000000002,9.81
6666666600,22.47,0.0,0.0,0.0,0.019620000000000002,0.13734000000000002,9.81
6671717105,22.47,0.0,0.0,0.0,0.039240000000000004,0.15696000000000002,9.78057
6676767610,22.47,0.0,0.0,0.0,0.019620000000000002,0.13734000000000002,9.81
6681818115,22.47,0.0,0.0,0.0,0.019620000000000002,0.15696000000000002,9.81
6686868620,22.47,0.0,0.0,0.0,0.039240000000000004,0.1962,9.81
6691919125,22.47,0.0,0.0,0.0,0.019620000000000002,0.16677000000000003,9.79038
6696969630,22.47,0.0,0.0,0.0,0.009810000000000001,0.14715,9.79038
6702020135,22.47,0.0,0.0,0.0,0.039240000000000004,0.13734000000000002,9.79038
6707070640,22.47,0.0,0.0,0.0,0.019620000000000002,0.12753,9.79038
6712121145,22.47,0.0,0.0,0.0,0.019620000000000002,0.13734000000000002,9.79038
6717171650,22.47,0.0,0.0,0.0,0.039240000000000004,0.13734000000000002,9.819809999999999
6722222155,22.47,0.0,0.0,0.0,0.039240000000000004,0.15696000000000002,9.80019
6727272660,22.47,0.0,0.0,0.0,0.04905,0.18639,9.79038
6732323165,22.47,0.0,0.0,0.0,0.02943,0.15696000000000002,9.760950000000001
6737373670,22.47,0.0,0.0,0.0,0.009810000000000001,0.13734000000000002,9.78057
6742424175,22.47,0.0,0.0,0.0,0.009810000000000001,0.14715,9.78057
6747474680,22.47,0.0,0.0,0.0,0.02943,0.15696000000000002,9.80019
6752525185,22.47,0.0,0.0,0.0,0.019620000000000002,0.14715,9.81
6757575690,22.47,0.0,0.0,0.0,0.009810000000000001,0.16677000000000003,9.81
6762626195,22.47,0.0,0.0,0.0,0.02943,0.14715,9.78057
6767676700,22.47,0.0,0.0,0.0,0.04905,0.16677000000000003,9.78057
6772727205,22.47,0.0,0.0,0.0,0.039240000000000004,0.16677000000000003,9.760950000000001
6777777710,22.47,0.0,0.0,0.0,0.039240000000000004,0.17658,9.79038
6782828215,22.47,0.0,0.0,0.0,0.039240000000000004,0.18639,9.81
6787878720,22.47,0.0,0.0,0.0,0.019620000000000002,0.14715,9.81
6792929225,22.47,0.0,0.0,0.0,0.019620000000000002,0.16677000000000003,9.82962
6797979730,22.47,0.0,0.0,0.0,0.02943,0.16677000000000003,9.78057
6803030235,22.47,0.0,0.0,0.0,0.039240000000000004,0.14715,9.78057
6808080740,22.47,0.0,0.0,0.0,0.019620000000000002,0.15696000000000002,9.79038
6813131245,22.47,0.0,0.0,0.0,0.02943,0.16677000000000003,9.80019
6818181750,22.47,0.0,0.0,0.0,0.009810000000000001,0.14715,9.81
6823232255,22.47,0.0,0.0,0.0,0.009810000000000001,0.15696000000000002,9.81
6828282760,22.47,0.0,0.0,0.0,0.039240000000000004,0.14715,9.81
6833333265,22.47,0.0,0.0,0.0,0.019620000000000002,0.14715,9.78057
6838383770,22.47,0.0,0.0,0.0,0.02943,0.15696000000000002,9.80019
6843434275,22.47,0.0,0.0,0.0,0.02943,0.13734000000000002,9.81
6848484780,22.47,0.0,0.0,0.0,0.009810000000000001,0.15696000000000002,9.79038
6853535285,22.47,0.0,0.0,0.0,0.02943,0.16677000000000003,9.81
6858585790,22.47,0.0,0.0,0.0,0.05886,0.16677000000000003,9.81
6863636295,22.47,0.0,0.0,0.0,0.02943,0.15696000000000002,9.81
6868686800,22.47,0.0,0.0,0.0,0.019620000000000002,0.14715,9.78057
6873737305,22.47,0.0,0.0,0.0,0.009810000000000001,0.14715,9.79038
6878787810,22.47,0.0,0.0,0.0,0.02943,0.14715,9.79038
6883838315,22.47,0.0,0.0,0.0,0.02943,0.17658,9.79038
6888888820,22.47,0.0,0.0,0.0,0.05886,0.18639,9.81
6893939325,22.47,0.0,0.0,0.0,0.02943,0.14715,9.80019
6898989830,22.47,0.0,0.0,0.0,0.039240000000000004,0.15696000000000002,9.751140000000001
6904040335,22.47,0.0,0.0,0.0,0.04905,0.14715,9.81
6909090840,22.47,0.0,0.0,0.0,0.009810000000000001,0.14715,9.78057
6914141345,22.47,0.0,0.0,0.0,0.039240000000000004,0.13734000000000002,9.82962
6919191850,22.47,0.0,0.0,0.0,0.019620000000000002,0.18639,9.819809999999999
6924242355,22.47,0.0,0.0,0.0,0.039240000000000004,0.17658,9.819809999999999
6929292860,22.47,0.0,0.0,0.0,0.019620000000000002,0.14715,9.79038
6934343365,22.47,0.0,0.0,0.0,0.009810000000000001,0.15696000000000002,9.80019
6939393870,22.47,0.0,0.0,0.0,0.019620000000000002,0.15696000000000002,9.78057
6944444375,22.47,0.0,0.0,0.0,0.04905,0.13734000000000002,9.80019
6949494880,22.47,0.0,0.0,0.0,0.02943,0.14715,9.819809999999999
6954545385,22.47,0.0,0.0,0.0,0.02943,0.15696000000000002,9.81
6959595890,22.47,0.0,0.0,0.0,0.019620000000000002,0.15696000000000002,9.83943
6964646395,22.47,0.0,0.0,0.0,0.02943,0.15696000000000002,9.81
6969696900,22.47,0.0,0.0,0.0,0.05886,0.15696000000000002,9.79038
6974747405,22.47,0.0,0.0,0.0,0.019620000000000002,0.15696000000000002,9.80019
6979797910,22.47,0.0,0.0,0.0,0.019620000000000002,0.13734000000000002,9.81
6984848415,22.47,0.0,0.0,0.0,0.019620000000000002,0.16677000000000003,9.81
6989898920,22.47,0.0,0.0,0.0,0.019620000000000002,0.17658,9.84924
6994949425,22.47,0.0,0.0,0.0,0.019620000000000002,0.14715,9.80019
6999999930,22.47,0.0,0.0,0.0,0.02943,0.12753,9.79038
7005050435,22.47,0.0,0.0,0.0,0.019620000000000002,0.13734000000000002,9.79038
7010100940,22.47,0.0,0.0,0.0,0.02943,0.13734000000000002,9.80019
7015151445,22.47,0.0,0.0,0.0,0.009810000000000001,0.15696000000000002,9.79038
7020201950,22.47,0.0,0.0,0.0,0.019620000000000002,0.16677000000000003,9.81
7025252455,22.47,0.0,0.0,0.0,0.019620000000000002,0.15696000000000002,9.81
7030302960,22.47,0.0,0.0,0.0,0.05886,0.13734000000000002,9.80019
7035353465,22.47,0.0,0.0,0.0,0.009810000000000001,0.13734000000000002,9.81
7040403970,22.47,0.0,0.0,0.0,0.02943,0.13734000000000002,9.819809999999999
7045454475,22.47,0.0,0.0,0.0,0.039240000000000004,0.12753,9.81
7050504980,22.47,0.0,0.0,0.0,0.02943,0.16677000000000003,9.80019
7055555485,22.47,0.0,0.0,0.0,0.02943,0.16677000000000003,9.819809999999999
7060605990,22.47,0.0,0.0,0.0,0.02943,0.17658,9.81
7065656495,22.47,0.0,0.0,0.0,0.039240000000000004,0.16677000000000003,9.82962
7070707000,22.47,0.0,0.0,0.0,0.02943,0.15696000000000002,9.80019
7075757505,22.47,0.0,0.0,0.0,0.039240000000000004,0.15696000000000002,9.78057
7080808010,22.47,0.0,0.0,0.0,0.019620000000000002,0.15696000000000002,9.79038
7085858515,22.47,0.0,0.0,0.0,0.0,0.15696000000000002,9.81
7090909020,22.47,0.0,0.0,0.0,0.02943,0.16677000000000003,9.819809999999999
7095959525,22.47,0.0,0.0,0.0,0.02943,0.14715,9.80019
7101010030,22.47,0.0,0.0,0.0,0.039240000000000004,0.14715,9.770760000000001
7106060535,22.47,0.0,0.0,0.0,0.02943,0.14715,9.79038
7111111040,22.47,0.0,0.0,0.0,0.0,0.15696000000000002,9.78057
7116161545,22.47,0.0,0.0,0.0,0.009810000000000001,0.15696000000000002,9.80019
7121212050,22.47,0.0,0.0,0.0,0.009810000000000001,0.15696000000000002,9.819809999999999
7126262555,22.47,0.0,0.0,0.0,0.009810000000000001,0.17658,9.81
7131313060,22.47,0.0,0.0,0.0,0.039240000000000004,0.17658,9.80019
7136363565,22.47,0.0,0.0,0.0,0.039240000000000004,0.16677000000000003,9.79038
7141414070,22.47,0.0,0.0,0.0,0.02943,0.15696000000000002,9.770760000000001
7146464575,22.47,0.0,0.0,0.0,0.019620000000000002,0.13734000000000002,9.79038
7151515080,22.47,0.0,0.0,0.0,0.02943,0.16677000000000003,9.80019
7156565585,22.47,0.0,0.0,0.0,0.02943,0.12753,9.819809999999999
7161616090,22.47,0.0,0.0,0.0,0.02943,0.17658,9.81
7166666595,22.47,0.0,0.0,0.0,0.019620000000000002,0.15696000000000002,9.79038
7171717100,22.47,0.0,0.0,0.0,0.04905,0.15696000000000002,9.79038
7176767605,22.47,0.0,0.0,0.0,0.04905,0.13734000000000002,9.770760000000001
7181818110,22.47,0.0,0.0,0.0,0.02943,0.16677000000000003,9.78057
7186868615,22.47,0.0,0.0,0.0,0.019620000000000002,0.15696000000000002,9.80019
7191919120,22.47,0.0,0.0,0.0,0.039240000000000004,0.16677000000000003,9.81
7196969625,22.47,0.0,0.0,0.0,0.02943,0.14715,9.81
7202020130,22.47,0.0,0.0,0.0,0.04905,0.14715,9.80019
7207070635,22.47,0.0,0.0,0.0,0.02943,0.14715,9.78057
7212121140,22.47,0.0,0.0,0.0,0.02943,0.15696000000000002,9.79038
7217171645,22.47,0.0,0.0,0.0,0.04905,0.16677000000000003,9.81
7222222150,22.47,0.0,0.0,0.0,0.039240000000000004,0.18639,9.81
7227272655,22.47,0.0,0.0,0.0,0.039240000000000004,0.15696000000000002,9.81
7232323160,22.47,0.0,0.0,0.0,0.04905,0.14715,9.80019
7237373665,22.47,0.0,0.0,0.0,0.019620000000000002,0.13734000000000002,9.78057
7242424170,22.47,0.0,0.0,0.0,0.02943,0.15696000000000002,9.79038
7247474675,22.47,0.0,0.0,0.0,0.02943,0.13734000000000002,9.79038
7252525180,22.47,0.0,0.0,0.0,0.039240000000000004,0.15696000000000002,9.819809999999999
7257575685,22.47,0.0,0.0,0.0,0.039240000000000004,0.17658,9.80019
7262626190,22.47,0.0,0.0,0.0,0.019620000000000002,0.18639,9.81
7267676695,22.47,0.0,0.0,0.0,0.02943,0.16677000000000003,9.79038
7272727200,22.47,0.0,0.0,0.0,0.039240000000000004,0.13734000000000002,9.79038
7277777705,22.47,0.0,0.0,0.0,0.02943,0.14715,9.79038
7282828210,22.47,0.0,0.0,0.0,0.019620000000000002,0.17658,9.81
7287878715,22.47,0.0,0.0,0.0,0.02943,0.15696000000000002,9.81
7292929220,22.47,0.0,0.0,0.0,0.039240000000000004,0.17658,9.79038
7297979725,22.47,0.0,0.0,0.0,0.02943,0.15696000000000002,9.80019
7303030230,22.47,0.0,0.0,0.0,0.039240000000000004,0.16677000000000003,9.80019
7308080735,22.47,0.0,0.0,0.0,0.04905,0.15696000000000002,9.79038
7313131240,22.47,0.0,0.0,0.0,0.009810000000000001,0.16677000000000003,9.80019
7318181745,22.47,0.0,0.0,0.0,0.02943,0.13734000000000002,9.78057
7323232250,22.47,0.0,0.0,0.0,0.02943,0.15696000000000002,9.81
7328282755,22.47,0.0,0.0,0.0,0.019620000000000002,0.17658,9.81
7333333260,22.47,0.0,0.0,0.0,0.039240000000000004,0.17658,9.79038
7338383765,22.47,0.0,0.0,0.0,0.04905,0.16677000000000003,9.80019
7343434270,22.47,0.0,0.0,0.0,0.039240000000000004,0.17658,9.80019
7348484775,22.47,0.0,0.0,0.0,0.039240000000000004,0.14715,9.81
7353535280,22.47,0.0,0.0,0.0,0.019620000000000002,0.15696000000000002,9.80019
7358585785,22.47,0.0,0.0,0.0,0.0,0.16677000000000003,9.79038
7363636290,22.47,0.0,0.0,0.0,0.02943,0.13734000000000002,9.81
7368686795,22.47,0.0,0.0,0.0,0.02943,0.15696000000000002,9.81
7373737300,22.47,0.0,0.0,0.0,0.02943,0.16677000000000003,9.78057
7378787805,22.47,0.0,0.0,0.0,0.04905,0.15696000000000002,9.79038
7383838310,22.47,0.0,0.0,0.0,0.039240000000000004,0.14715,9.78057
7388888815,22.47,0.0,0.0,0.0,0.019620000000000002,0.17658,9.81
7393939320,22.47,0.0,0.0,0.0,0.039240000000000004,0.14715,9.79038
7398989825,22.47,0.0,0.0,0.0,0.019620000000000002,0.16677000000000003,9.819809999999999
7404040330,22.47,0.0,0.0,0.0,0.06867000000000001,0.15696000000000002,9.80019
7409090835,22.47,0.0,0.0,0.0,0.0,0.15696000000000002,9.81
7414141340,22.47,0.0,0.0,0.0,0.009810000000000001,0.13734000000000002,9.79038
7419191845,22.47,0.0,0.0,0.0,0.019620000000000002,0.13734000000000002,9.80019
7424242350,22.47,0.0,0.0,0.0,0.02943,0.16677000000000003,9.81
7429292855,22.47,0.0,0.0,0.0,0.0,0.17658,9.81
7434343360,22.47,0.0,0.0,0.0,0.019620000000000002,0.14715,9.78057
7439393865,22.47,0.0,0.0,0.0,0.04905,0.14715,9.770760000000001
7444444370,22.47,0.0,0.0,0.0,0.019620000000000002,0.16677000000000003,9.770760000000001
7449494875,22.47,0.0,0.0,0.0,0.02943,0.14715,9.79038
7454545380,22.47,0.0,0.0,0.0,0.019620000000000002,0.14715,9.81
7459595885,22.47,0.0,0.0,0.0,0.02943,0.15696000000000002,9.81
7464646390,22.47,0.0,0.0,0.0,0.009810000000000001,0.16677000000000003,9.80019
7469696895,22.47,0.0,0.0,0.0,0.039240000000000004,0.15696000000000002,9.78057
7474747400,22.47,0.0,0.0,0.0,0.04905,0.13734000000000002,9.79038
7479797905,22.47,0.0,0.0,0.0,0.06867000000000001,0.15696000000000002,9.78057
7484848410,22.47,0.0,0.0,0.0,0.019620000000000002,0.14715,9.80019
7489898915,22.47,0.0,0.0,0.0,0.04905,0.16677000000000003,9.80019
7494949420,22.47,0.0,0.0,0.0,0.039240000000000004,0.15696000000000002,9.819809999999999
7499999925,22.47,0.0,0.0,0.0,0.04905,0.17658,9.819809999999999
7505050430,22.47,0.0,0.0,0.0,0.02943,0.17658,9.81
7510100935,22.47,0.0,0.0,0.0,0.039240000000000004,0.13734000000000002,9.79038
7515151440,22.47,0.0,0.0,0.0,0.02943,0.16677000000000003,9.751140000000001
7520201945,22.47,0.0,0.0,0.0,0.04905,0.14715,9.80019
7525252450,22.47,0.0,0.0,0.0,0.019620000000000002,0.18639,9.79038
7530302955,22.47,0.0,0.0,0.0,0.02943,0.14715,9.80019
7535353460,22.47,0.0,0.0,0.0,0.02943,0.16677000000000003,9.81
7540403965,22.47,0.0,0.0,0.0,0.02943,0.14715,9.81
7545454470,22.47,0.0,0.0,0.0,0.02943,0.12753,9.770760000000001
7550504975,22.47,0.0,0.0,0.0,0.019620000000000002,0.14715,9.770760000000001
7555555480,22.47,0.0,0.0,0.0,0.0,0.15696000000000002,9.79038
7560605985,22.47,0.0,0.0,0.0,0.04905,0.1962,9.81
7565656490,22.47,0.0,0.0,0.0,0.039240000000000004,0.15696000000000002,9.819809999999999
7570706995,22.47,0.0,0.0,0.0,0.039240000000000004,0.13734000000000002,9.78057
7575757500,22.47,0.0,0.0,0.0,0.019620000000000002,0.14715,9.79038
7580808005,22.47,0.0,0.0,0.0,0.019620000000000002,0.15696000000000002,9.79038
7585858510,22.47,0.0,0.0,0.0,0.0,0.16677000000000003,9.78057
7590909015,22.47,0.0,0.0,0.0,0.019620000000000002,0.16677000000000003,9.81
7595959520,22.47,0.0,0.0,0.0,0.009810000000000001,0.16677000000000003,9.81
7601010025,22.47,0.0,0.0,0.0,0.009810000000000001,0.16677000000000003,9.79038
7606060530,22.47,0.0,0.0,0.0,0.02943,0.15696000000000002,9.78057
7611111035,22.47,0.0,0.0,0.0,0.039240000000000004,0.16677000000000003,9.770760000000001
7616161540,22.47,0.0,0.0,0.0,0.019620000000000002,0.15696000000000002,9.81
7621212045,22.47,0.0,0.0,0.0,0.019620000000000002,0.15696000000000002,9.78057
7626262550,22.47,0.0,0.0,0.0,0.02943,0.14715,9.80019
7631313055,22.47,0.0,0.0,0.0,0.02943,0.15696000000000002,9.80019
7636363560,22.47,0.0,0.0,0.0,0.02943,0.15696000000000002,9.770760000000001
7641414065,22.47,0.0,0.0,0.0,0.019620000000000002,0.14715,9.79038
7646464570,22.47,0.0,0.0,0.0,0.039240000000000004,0.16677000000000003,9.770760000000001
7651515075,22.47,0.0,0.0,0.0,0.009810000000000001,0.14715,9.80019
7656565580,22.47,0.0,0.0,0.0,0.019620000000000002,0.15696000000000002,9.81
7661616085,22.47,0.0,0.0,0.0,0.039240000000000004,0.16677000000000003,9.819809999999999
7666666590,22.47,0.0,0.0,0.0,0.019620000000000002,0.17658,9.79038
7671717095,22.47,0.0,0.0,0.0,0.02943,0.13734000000000002,9.79038
7676767600,22.47,0.0,0.0,0.0,0.039240000000000004,0.14715,9.78057
7681818105,22.47,0.0,0.0,0.0,0.02943,0.14715,9.81
7686868610,22.47,0.0,0.0,0.0,0.05886,0.14715,9.79038
7691919115,22.47,0.0,0.0,0.0,0.009810000000000001,0.16677000000000003,9.80019
7696969620,22.47,0.0,0.0,0.0,0.019620000000000002,0.17658,9.81
7702020125,22.47,0.0,0.0,0.0,0.02943,0.18639,9.81
7707070630,22.47,0.0,0.0,0.0,0.05886,0.16677000000000003,9.80019
7712121135,22.47,0.0,0.0,0.0,0.039240000000000004,0.15696000000000002,9.80019
7717171640,22.47,0.0,0.0,0.0,0.009810000000000001,0.14715,9.78057
7722222145,22.47,0.0,0.0,0.0,0.019620000000000002,0.15696000000000002,9.81
7727272650,22.47,0.0,0.0,0.0,0.009810000000000001,0.16677000000000003,9.81
7732323155,22.47,0.0,0.0,0.0,0.019620000000000002,0.18639,9.81
7737373660,22.47,0.0,0.0,0.0,0.019620000000000002,0.08829,9.80019
7742424165,22.47,0.002129301687433082,0.04366813788489812,0.0,-0.019620000000000002,-0.039240000000000004,9.80019
7747474670,22.47,-0.007452555906015787,0.10119419003063122,0.0,-0.20601000000000003,0.10791,9.7119
7752525175,22.47,0.006387905062299246,0.1352804703220805,0.0,-0.64746,0.14715,9.751140000000001
7757575680,22.47,0.012775810124598492,0.11292280260403312,0.0,-0.89271,0.25506,9.89829
7762626185,22.47,0.01811651763570114,0.05646140130201656,0.0,-0.90252,0.15696000000000002,9.54513
7767676690,22.47,0.014905111812031574,-0.02556907354171693,0.0,-0.94176,0.34335000000000004,9.58437
7772727195,22.47,0.008517206749732328,-0.13421581947836395,0.0,-0.72594,1.1281500000000002,9.52551
7777777700,22.47,-0.00958185759344887,-0.22156954854068012,0.0,0.02943,1.06929,10.27107
7782828205,22.47,-0.05646140130201656,-0.28761280743614553,0.0,0.9319500000000001,0.65727,10.27107
7787878710,22.47,-0.14062117783318315,-0.2428800187075309,0.0,1.4813100000000001,0.009810000000000001,9.53532
7792929215,22.47,-0.14275047952061623,-0.19280652246781357,0.0,1.46169,-0.34335000000000004,9.3195
7797979720,22.47,-0.1331511686346474,-0.049008845396000776,0.0,1.6186500000000001,-0.6867000000000001,9.57456
7803030225,22.47,-0.09267698328089889,0.07349581480148122,0.0,1.41264,-0.69651,9.72171
7808080730,22.47,-0.06391395720803235,0.22903955773921586,0.0,1.06929,-0.57879,10.38879
7813131235,22.47,0.013840460968315033,0.27270769562411395,0.0,0.45126,-0.56898,10.143540000000002
7818181740,22.47,0.044732788728614664,0.3036000233844136,0.0,-0.33354000000000006,-0.16677000000000003,10.09449
7823232245,22.47,0.08948303074974927,0.2599318854995155,0.0,-0.84366,-0.17658,9.55494
7828282750,22.47,0.12463396188491506,0.12995721610349775,0.0,-1.16739,-0.05886,9.819809999999999
7833333255,22.47,0.12569861272863161,-0.008517206749732328,0.0,-1.1477700000000002,0.22563,9.57456
7838383760,22.47,0.12676326357234816,-0.12144000935376545,0.0,-0.9711900000000001,0.47088,9.81
7843434265,22.47,0.1480737337391989,-0.18428931571808121,0.0,-0.59841,1.90314,9.7119
7848484770,22.47,0.02982767691658309,-0.15659094048893124,0.0,0.27468000000000004,1.2753,10.89891
7853535275,22.47,0.00958185759344887,-0.11611675513518273,0.0,0.20601000000000003,0.35316,8.99577
7858585780,22.47,-0.150203035426632,0.0170518667919846,0.0,0.009810000000000001,0.17658,8.789760000000001
7863636285,22.47,-0.08309512568745003,0.011711159280881954,0.0,0.10791,-0.23544,9.4176
7868686790,22.47,-0.09693558665576507,0.008517206749732328,0.0,-0.02943,-0.10791,10.23183
7873737295,22.47,-0.08415977653116657,-0.0404741853537485,0.0,0.009810000000000001,-0.18639,10.24164
7878787800,22.47,-0.01918116847941768,-0.11398745344774965,0.0,0.11772,-0.22563,10.08468
7883838305,22.47,-0.004258603374866164,-0.1171814059788993,0.0,0.40221,-0.15696000000000002,9.73152
7888888810,22.47,0.023439771854283843,-0.10225884087434776,-0.005323254218582705,0.73575,-0.02943,9.66285
7893939315,22.47,0.033021629447732716,-0.015987215948268057,-0.003193952531149623,0.94176,-0.12753,9.770760000000001
7898989820,22.47,0.033021629447732716,0.08309512568745003,-0.002129301687433082,0.65727,0.07848000000000001,9.65304
7904040325,22.47,0.04260348704118158,0.16191419470751395,0.0,0.32373,0.019620000000000002,9.66285
7909090830,22.47,0.05326744877086694,0.18854791909294744,-0.002129301687433082,-0.12753,0.17658,9.82962
7914141335,22.47,0.05646140130201656,0.20027653166634932,-0.003193952531149623,-0.48069000000000006,0.28449,9.74133
7919191840,22.47,0.06178465552059926,0.15339698795778162,-0.004258603374866164,-0.84366,0.38259000000000004,9.82962
7924242345,22.47,0.04366813788489812,0.09374163412461543,-0.008517206749732328,-1.0987200000000001,0.69651,9.819809999999999
7929292850,22.47,0.023439771854283843,0.023439771854283843,0.001064650843716541,-1.08891,0.51993,10.03563
7934343355,22.47,-0.002129301687433082,-0.05859070298944965,0.0,-1.00062,0.49050000000000005,9.760950000000001
7939393860,22.47,-0.033021629447732716,-0.11079350091660004,0.0,-0.73575,0.43164,9.66285
7944444365,22.47,-0.054332099614583476,-0.16831955306233315,0.007452555906015787,-0.40221,0.30411,9.70209
7949494870,22.47,-0.06604325889546543,-0.2162462943220974,0.001064650843716541,-0.04905,0.48069000000000006,9.79038
7954545375,22.47,-0.08203047484373349,-0.2279749068954993,0.002129301687433082,0.6670800000000001,0.27468000000000004,10.025820000000001
7959595880,22.47,-0.08415977653116657,-0.19708257913519966,0.001064650843716541,1.06929,0.13734000000000002,9.81
7964646385,22.47,-0.08948303074974927,-0.1374272253020335,0.001064650843716541,1.40283,-0.18639,9.7119
7969696890,22.47,-0.08841837990603273,-0.05539675045830002,-0.002129301687433082,1.43226,-0.45126,9.67266
7974747395,22.47,-0.06391395720803235,0.04581489286485115,-0.003193952531149623,1.22625,-0.43164,9.7119
7979797900,22.47,-0.028763026072866547,0.1352804703220805,-0.002129301687433082,0.9123300000000001,-0.42183,10.11411
7984848405,22.47,0.021310470166850764,0.18961256993666398,-0.001064650843716541,0.51012,-0.32373,10.05525
7989898910,22.47,0.060720004676882725,0.20666443672864854,0.0,0.07848000000000001,-0.16677000000000003,9.72171
7994949415,22.47,0.09054768159346581,0.19174187162409706,-0.004258603374866164,-0.31392000000000003,-0.05886,9.55494
7999999920,22.47,0.11079350091660004,0.17257815643719931,-0.006387905062299246,-0.64746,0.13734000000000002,9.57456
8005050425,22.47,0.10759954838545042,0.12676326357234816,-0.004258603374866164,-0.9319500000000001,0.31392000000000003,9.68247
8010100930,22.47,0.10545279340549739,0.07030186227033158,-0.002129301687433082,-1.1183400000000001,0.95157,9.83943
8015151435,22.47,0.09267698328089889,0.003193952531149623,0.0,-1.00062,0.8338500000000001,10.143540000000002
8020201940,22.47,0.023439771854283843,-0.04581489286485115,0.0,-0.9613800000000001,0.9221400000000001,9.84924
8025252445,22.47,-0.03621558197888234,-0.09267698328089889,0.005323254218582705,-0.60822,0.5395500000000001,9.30969
8030302950,22.47,-0.05752605214573309,-0.14700908289548237,0.004258603374866164,-0.51993,0.49050000000000005,9.44703
8035353455,22.47,-0.09267698328089889,-0.1629788455512305,0.005323254218582705,-0.13734000000000002,0.2943,9.5157
8040403960,22.47,-0.09693558665576507,-0.17257815643719931,0.002129301687433082,0.24525000000000002,0.07848000000000001,9.85905
8045454465,22.47,-0.09693558665576507,-0.16084954386379738,0.0,0.5395500000000001,-0.12753,9.908100000000001
8050504970,22.47,-0.09480628496833199,-0.11931070766633237,0.003193952531149623,0.7749900000000001,-0.28449,10.045440000000001
8055555475,22.47,-0.07777187146886733,-0.06497860805174888,0.0,0.84366,-0.36297,9.97677
8060605980,22.47,-0.03089232776029963,0.0,0.0,0.89271,-0.40221,9.97677
8065656485,22.47,-0.002129301687433082,0.03834488366631542,0.0,0.8142300000000001,-0.30411,9.70209
8070706990,22.47,0.02982767691658309,0.06710790973918197,0.0,0.6278400000000001,-0.21582,9.7119
8075757495,22.47,0.05859070298944965,0.08735372906231618,-0.002129301687433082,0.48069000000000006,-0.06867000000000001,9.6138
8080808000,22.47,0.07883652231258387,0.11292280260403312,-0.001064650843716541,0.26487,0.06867000000000001,9.72171
8085858505,22.47,0.09374163412461543,0.12037535851004891,-0.002129301687433082,0.0,0.38259000000000004,9.83943
8090909010,22.47,0.09267698328089889,0.12037535851004891,-0.003193952531149623,-0.1962,0.57879,10.025820000000001
8095959515,22.47,0.04581489286485115,0.1171814059788993,-0.001064650843716541,-0.45126,0.5886,10.182780000000001
8101010020,22.47,0.01918116847941768,0.08203047484373349,-0.001064650843716541,-0.6278400000000001,0.37278,9.64323
8106060525,22.47,0.005323254218582705,0.05539675045830002,-0.002129301687433082,-0.7848,0.43164,9.60399
8111111030,22.47,-0.0170518667919846,0.004258603374866164,0.001064650843716541,-0.7749900000000001,0.38259000000000004,9.623610000000001
8116161535,22.47,-0.024504422698000388,-0.05326744877086694,0.001064650843716541,-0.6670800000000001,0.34335000000000004,9.68247
8121212040,22.47,-0.044732788728614664,-0.10119419003063122,0.0,-0.47088,0.26487,9.79038
8126262545,22.47,-0.054332099614583476,-0.13102186694721432,0.002129301687433082,-0.21582,0.12753,9.888480000000001
8131313050,22.47,-0.060720004676882725,-0.14062117783318315,0.0,0.039240000000000004,0.07848000000000001,9.95715
8136363555,22.47,-0.05646140130201656,-0.13634512116579703,0.0,0.3924,0.0,10.006200000000002
8141414060,22.47,-0.05220279792715039,-0.10332349171806432,0.001064650843716541,0.6180300000000001,-0.08829,10.006200000000002
8146464565,22.47,-0.031956978604016174,-0.05646140130201656,0.001064650843716541,0.73575,-0.22563,9.74133
8151515070,22.47,-0.0170518667919846,-0.007452555906015787,-0.002129301687433082,0.70632,-0.15696000000000002,9.6138
8156565575,22.47,0.0,0.03834488366631542,-0.004258603374866164,0.65727,-0.12753,9.64323
8161616080,22.47,0.020245819323134222,0.07456046564519776,-0.004258603374866164,0.51993,-0.05886,9.770760000000001
8166666585,22.47,0.031956978604016174,0.10332349171806432,-0.002129301687433082,0.26487,0.009810000000000001,9.92772
8171717090,22.47,0.05007349623971732,0.10653489754173388,-0.001064650843716541,0.039240000000000004,0.07848000000000001,9.92772
8176767595,22.47,0.05113814708343386,0.09800023749948161,-0.001064650843716541,-0.1962,0.33354000000000006,9.937529999999999
8181818100,22.47,0.05859070298944965,0.07670722062515077,-0.001064650843716541,-0.31392000000000003,0.42183,9.92772
8186868605,22.47,0.04153883619746504,0.05859070298944965,-0.002129301687433082,-0.40221,0.51012,9.80019
8191919110,22.47,0.020245819323134222,0.03408628029144926,0.0,-0.44145,0.42183,9.60399
8196969615,22.47,-0.004258603374866164,0.01064650843716541,-0.002129301687433082,-0.49050000000000005,0.35316,9.5157
8202020120,22.47,-0.028763026072866547,-0.015987215948268057,-0.001064650843716541,-0.44145,0.30411,9.52551
8207070625,22.47,-0.039409534510031964,-0.04581489286485115,0.001064650843716541,-0.38259000000000004,0.22563,9.7119
8212121130,22.47,-0.04581489286485115,-0.07349581480148122,0.0,-0.27468000000000004,0.10791,9.87867
8217171635,22.47,-0.044732788728614664,-0.09374163412461543,0.002129301687433082,-0.10791,0.019620000000000002,9.95715
8222222140,22.47,-0.03728023282259888,-0.10438814256178083,0.0,0.0981,0.08829,9.95715
8227272645,22.47,-0.021310470166850764,-0.09480628496833199,-0.001064650843716541,0.40221,0.009810000000000001,9.84924
8232323150,22.47,-0.01811651763570114,-0.05539675045830002,0.0,0.56898,0.039240000000000004,9.66285
8237373655,22.47,-0.015987215948268057,-0.00958185759344887,0.0,0.6180300000000001,-0.019620000000000002,9.5157
8242424160,22.47,-0.003193952531149623,0.02556907354171693,0.0,0.51012,-0.039240000000000004,9.59418
8247474665,22.47,-0.001064650843716541,0.05326744877086694,0.0,0.35316,0.0,9.72171
8252525170,22.47,0.01064650843716541,0.06391395720803235,0.0,0.21582,0.039240000000000004,9.908100000000001
8257575675,22.47,0.02663372438543347,0.05965535383316618,0.0,0.009810000000000001,0.22563,9.95715
8262626180,22.47,0.033021629447732716,0.05326744877086694,0.0,-0.02943,0.25506,9.95715
8267676685,22.47,0.03089232776029963,0.04794419455228423,-0.001064650843716541,-0.10791,0.27468000000000004,9.80019
8272727190,22.47,0.014905111812031574,0.04794419455228423,-0.002129301687433082,-0.1962,0.27468000000000004,9.64323
8277777695,22.47,0.001064650843716541,0.0404741853537485,0.0,-0.27468000000000004,0.24525000000000002,9.59418
8282828200,22.47,-0.008517206749732328,0.0170518667919846,-0.001064650843716541,-0.34335000000000004,0.31392000000000003,9.60399
