Time,Device name,Chip Time(),Acceleration X(g),Acceleration Y(g),Acceleration Z(g),Angular velocity X(°/s),Angular velocity Y(°/s),Angular velocity Z(°/s),Angle X(°),Angle Y(°),Angle Z(°),Magnetic field X(ʯt),Magnetic field Y(ʯt),Magnetic field Z(ʯt),Temperature(℃),Quaternions 0(),Quaternions 1(),Quaternions 2(),Quaternions 3()
 15:36:48.547,c2:22:89:2b:7b:c3, 2015-01-01 00:51:53.240, 0.025, -0.031, 1.001, 0, 0, 0, -1.747, -1.478, 126.189, 57.428, -41.846, -12.740, 22.47, 0.45258, 0.00458, -0.01944, 0.89145,
 15:36:48.547,c2:22:89:2b:7b:c3, 2015-01-01 00:51:53.240, 0.027, -0.029, 1.003, 0, 0, 0, -1.747, -1.478, 126.189, 57.428, -41.846, -12.740, 22.47, 0.45258, 0.00458, -0.01944, 0.89145,
 15:36:48.547,c2:22:89:2b:7b:c3, 2015-01-01 00:51:53.240, 0.028, -0.032, 1.001, 0, 0, 0, -1.747, -1.478, 126.189, 57.428, -41.846, -12.740, 22.47, 0.45258, 0.00458, -0.01944, 0.89145,
 15:36:48.547,c2:22:89:2b:7b:c3, 2015-01-01 00:51:53.240, 0.027, -0.027, 1.006, 0, 0, 0, -1.747, -1.478, 126.189, 57.428, -41.846, -12.740, 22.47, 0.45258, 0.00458, -0.01944, 0.89145,
 15:36:48.607,c2:22:89:2b:7b:c3, 2015-01-01 00:51:53.625, 0.027, -0.031, 1.004, 0, 0, 0, -1.747, -1.478, 126.189, 57.428, -41.846, -12.740, 22.47, 0.45258, 0.00458, -0.01944, 0.89145,
 15:36:48.607,c2:22:89:2b:7b:c3, 2015-01-01 00:51:53.625, 0.028, -0.03, 1.001, 0, 0, 0, -1.747, -1.478, 126.189, 57.428, -41.846, -12.740, 22.47, 0.45258, 0.00458, -0.01944, 0.89145,
 15:36:48.607,c2:22:89:2b:7b:c3, 2015-01-01 00:51:53.625, 0.026, -0.034, 1.001, 0, 0, 0, -1.747, -1.478, 126.189, 57.428, -41.846, -12.740, 22.47, 0.45258, 0.00458, -0.01944, 0.89145,
 15:36:48.607,c2:22:89:2b:7b:c3, 2015-01-01 00:51:53.625, 0.025, -0.033, 0.998, 0, 0, 0, -1.747, -1.478, 126.189, 57.428, -41.846, -12.740, 22.47, 0.45258, 0.00458, -0.01944, 0.89145,
 15:36:48.636,c2:22:89:2b:7b:c3, 2015-01-01 00:51:53.625, 0.025, -0.028, 1.003, 0, 0, 0, -1.747, -1.478, 126.189, 57.428, -41.846, -12.740, 22.47, 0.45258, 0.00458, -0.01944, 0.89145,
 15:36:48.636,c2:22:89:2b:7b:c3, 2015-01-01 00:51:53.625, 0.025, -0.031, 1.002, 0, 0, 0, -1.747, -1.478, 126.189, 57.428, -41.846, -12.740, 22.47, 0.45258, 0.00458, -0.01944, 0.89145,
 15:36:48.636,c2:22:89:2b:7b:c3, 2015-01-01 00:51:53.625, 0.025, -0.03, 1.002, 0, 0, 0, -1.747, -1.478, 126.189, 57.428, -41.846, -12.740, 22.47, 0.45258, 0.00458, -0.01944, 0.89145,
 15:36:48.636,c2:22:89:2b:7b:c3, 2015-01-01 00:51:53.625, 0.023, -0.03, 1.001, 0, 0, 0, -1.747, -1.478, 126.189, 57.428, -41.846, -12.740, 22.47, 0.45258, 0.00458, -0.01944, 0.89145,
 15:36:48.669,c2:22:89:2b:7b:c3, 2015-01-01 00:51:53.625, 0.024, -0.032, 1.003, 0, 0, 0, -1.747, -1.478, 126.189, 57.428, -41.846, -12.740, 22.47, 0.45258, 0.00458, -0.01944, 0.89145,
 15:36:48.669,c2:22:89:2b:7b:c3, 2015-01-01 00:51:53.625, 0.024, -0.03, 1.004, 0, 0, 0, -1.747, -1.478, 126.189, 57.428, -41.846, -12.740, 22.47, 0.45258, 0.00458, -0.01944, 0.89145,
 15:36:48.669,c2:22:89:2b:7b:c3, 2015-01-01 00:51:53.625, 0.024, -0.033, 1.002, 0, 0, 0, -1.747, -1.478, 126.189, 57.428, -41.846, -12.740, 22.47, 0.45258, 0.00458, -0.01944, 0.89145,
 15:36:48.669,c2:22:89:2b:7b:c3, 2015-01-01 00:51:53.625, 0.026, -0.031, 1.003, 0, 0, 0, -1.747, -1.478, 126.189, 57.428, -41.846, -12.740, 22.47, 0.45258, 0.00458, -0.01944, 0.89145,
 15:36:48.758,c2:22:89:2b:7b:c3, 2015-01-01 00:51:53.625, 0.025, -0.031, 1, 0, 0, 0, -1.747, -1.478, 126.189, 57.428, -41.846, -12.740, 22.47, 0.45258, 0.00458, -0.01944, 0.89145,
 15:36:48.758,c2:22:89:2b:7b:c3, 2015-01-01 00:51:53.625, 0.025, -0.029, 1.002, 0, 0, 0, -1.747, -1.478, 126.189, 57.428, -41.846, -12.740, 22.47, 0.45258, 0.00458, -0.01944, 0.89145,
 15:36:48.758,c2:22:89:2b:7b:c3, 2015-01-01 00:51:53.625, 0.025, -0.029, 1.002, 0, 0, 0, -1.747, -1.478, 126.189, 57.428, -41.846, -12.740, 22.47, 0.45258, 0.00458, -0.01944, 0.89145,
 15:36:48.758,c2:22:89:2b:7b:c3, 2015-01-01 00:51:53.625, 0.028, -0.027, 1.002, 0, 0, 0, -1.747, -1.478, 126.189, 57.428, -41.846, -12.740, 22.47, 0.45258, 0.00458, -0.01944, 0.89145,
 15:36:48.758,c2:22:89:2b:7b:c3, 2015-01-01 00:51:53.625, 0.025, -0.028, 1.002, 0, 0, 0, -1.747, -1.478, 126.189, 57.428, -41.846, -12.740, 22.47, 0.45258, 0.00458, -0.01944, 0.89145,
 15:36:48.758,c2:22:89:2b:7b:c3, 2015-01-01 00:51:53.625, 0.026, -0.029, 1.001, 0, 0, 0, -1.747, -1.478, 126.189, 57.428, -41.846, -12.740, 22.47, 0.45258, 0.00458, -0.01944, 0.89145,
 15:36:48.758,c2:22:89:2b:7b:c3, 2015-01-01 00:51:53.625, 0.025, -0.029, 1.002, 0, 0, 0, -1.747, -1.478, 126.189, 57.428, -41.846, -12.740, 22.47, 0.45258, 0.00458, -0.01944, 0.89145,
 15:36:48.758,c2:22:89:2b:7b:c3, 2015-01-01 00:51:53.625, 0.025, -0.03, 1.002, 0, 0, 0, -1.747, -1.478, 126.189, 57.428, -41.846, -12.740, 22.47, 0.45258, 0.00458, -0.01944, 0.89145,
 15:36:48.786,c2:22:89:2b:7b:c3, 2015-01-01 00:51:53.625, 0.026, -0.031, 1.004, 0, 0, 0, -1.747, -1.478, 126.189, 57.428, -41.846, -12.642, 22.47, 0.45258, 0.00458, -0.01944, 0.89145,
 15:36:48.786,c2:22:89:2b:7b:c3, 2015-01-01 00:51:53.625, 0.027, -0.033, 1, 0, 0, 0, -1.747, -1.478, 126.189, 57.428, -41.846, -12.642, 22.47, 0.45258, 0.00458, -0.01944, 0.89145,
 15:36:48.786,c2:22:89:2b:7b:c3, 2015-01-01 00:51:53.625, 0.025, -0.029, 1.002, 0, 0, 0, -1.747, -1.478, 126.189, 57.428, -41.846, -12.642, 22.47, 0.45258, 0.00458, -0.01944, 0.89145,
 15:36:48.786,c2:22:89:2b:7b:c3, 2015-01-01 00:51:53.625, 0.023, -0.032, 1.004, 0, 0, 0, -1.747, -1.478, 126.189, 57.428, -41.846, -12.642, 22.47, 0.45258, 0.00458, -0.01944, 0.89145,
 15:36:48.877,c2:22:89:2b:7b:c3, 2015-01-01 00:51:53.625, 0.024, -0.03, 1.002, 0, 0, 0, -1.747, -1.478, 126.189, 57.428, -41.846, -12.642, 22.47, 0.45258, 0.00458, -0.01944, 0.89145,
 15:36:48.877,c2:22:89:2b:7b:c3, 2015-01-01 00:51:53.625, 0.028, -0.033, 1.003, 0, 0, 0, -1.747, -1.478, 126.189, 57.428, -41.846, -12.642, 22.47, 0.45258, 0.00458, -0.01944, 0.89145,
 15:36:48.877,c2:22:89:2b:7b:c3, 2015-01-01 00:51:53.625, 0.026, -0.034, 1.004, 0, 0, 0, -1.747, -1.478, 126.189, 57.428, -41.846, -12.642, 22.47, 0.45258, 0.00458, -0.01944, 0.89145,
 15:36:48.878,c2:22:89:2b:7b:c3, 2015-01-01 00:51:53.625, 0.024, -0.025, 1.002, 0, 0, 0, -1.747, -1.478, 126.189, 57.428, -41.846, -12.642, 22.47, 0.45258, 0.00458, -0.01944, 0.89145,
 15:36:48.878,c2:22:89:2b:7b:c3, 2015-01-01 00:51:53.625, 0.025, -0.033, 1.003, 0, 0, 0, -1.747, -1.478, 126.189, 57.428, -41.846, -12.642, 22.47, 0.45258, 0.00458, -0.01944, 0.89145,
 15:36:48.879,c2:22:89:2b:7b:c3, 2015-01-01 00:51:53.625, 0.026, -0.03, 1.003, 0, 0, 0, -1.747, -1.478, 126.189, 57.428, -41.846, -12.642, 22.47, 0.45258, 0.00458, -0.01944, 0.89145,
 15:36:48.879,c2:22:89:2b:7b:c3, 2015-01-01 00:51:53.625, 0.025, -0.029, 1.004, 0, 0, 0, -1.747, -1.478, 126.189, 57.428, -41.846, -12.642, 22.47, 0.45258, 0.00458, -0.01944, 0.89145,
 15:36:48.879,c2:22:89:2b:7b:c3, 2015-01-01 00:51:53.625, 0.027, -0.028, 1.002, 0, 0, 0, -1.747, -1.478, 126.189, 57.428, -41.846, -12.642, 22.47, 0.45258, 0.00458, -0.01944, 0.89145,
 15:36:48.938,c2:22:89:2b:7b:c3, 2015-01-01 00:51:53.625, 0.024, -0.029, 1, 0, 0, 0, -1.747, -1.478, 126.189, 57.428, -41.846, -12.642, 22.47, 0.45258, 0.00458, -0.01944, 0.89145,
 15:36:48.938,c2:22:89:2b:7b:c3, 2015-01-01 00:51:53.625, 0.026, -0.028, 1.002, 0, 0, 0, -1.747, -1.478, 126.189, 57.428, -41.846, -12.642, 22.47, 0.45258, 0.00458, -0.01944, 0.89145,
 15:36:48.938,c2:22:89:2b:7b:c3, 2015-01-01 00:51:53.625, 0.025, -0.032, 1.003, 0, 0, 0, -1.747, -1.478, 126.189, 57.428, -41.846, -12.642, 22.47, 0.45258, 0.00458, -0.01944, 0.89145,
 15:36:48.938,c2:22:89:2b:7b:c3, 2015-01-01 00:51:53.625, 0.025, -0.029, 1.003, 0, 0, 0, -1.747, -1.478, 126.189, 57.428, -41.846, -12.642, 22.47, 0.45258, 0.00458, -0.01944, 0.89145,
 15:36:48.966,c2:22:89:2b:7b:c3, 2015-01-01 00:51:53.625, 0.026, -0.03, 1, 0, 0, 0, -1.747, -1.478, 126.189, 57.428, -41.846, -12.642, 22.47, 0.45258, 0.00458, -0.01944, 0.89145,
 15:36:48.966,c2:22:89:2b:7b:c3, 2015-01-01 00:51:53.625, 0.026, -0.03, 1, 0, 0, 0, -1.747, -1.478, 126.189, 57.428, -41.846, -12.642, 22.47, 0.45258, 0.00458, -0.01944, 0.89145,
 15:36:48.966,c2:22:89:2b:7b:c3, 2015-01-01 00:51:53.625, 0.028, -0.029, 1.004, 0, 0, 0, -1.747, -1.478, 126.189, 57.428, -41.846, -12.642, 22.47, 0.45258, 0.00458, -0.01944, 0.89145,
 15:36:48.966,c2:22:89:2b:7b:c3, 2015-01-01 00:51:53.625, 0.022, -0.03, 1.004, 0, 0, 0, -1.747, -1.478, 126.189, 57.428, -41.846, -12.642, 22.47, 0.45258, 0.00458, -0.01944, 0.89145,
 15:36:48.996,c2:22:89:2b:7b:c3, 2015-01-01 00:51:54.015, 0.027, -0.031, 1.003, 0, 0, 0, -1.747, -1.472, 126.189, 57.428, -41.846, -12.642, 22.47, 0.45258, 0.00458, -0.01944, 0.89145,
 15:36:48.996,c2:22:89:2b:7b:c3, 2015-01-01 00:51:54.015, 0.026, -0.031, 1.004, 0, 0, 0, -1.747, -1.472, 126.189, 57.428, -41.846, -12.642, 22.47, 0.45258, 0.00458, -0.01944, 0.89145,
 15:36:48.996,c2:22:89:2b:7b:c3, 2015-01-01 00:51:54.015, 0.026, -0.03, 1.002, 0, 0, 0, -1.747, -1.472, 126.189, 57.428, -41.846, -12.642, 22.47, 0.45258, 0.00458, -0.01944, 0.89145,
 15:36:48.996,c2:22:89:2b:7b:c3, 2015-01-01 00:51:54.015, 0.027, -0.03, 1.002, 0, 0, 0, -1.747, -1.472, 126.189, 57.428, -41.846, -12.642, 22.47, 0.45258, 0.00458, -0.01944, 0.89145,
 15:36:49.027,c2:22:89:2b:7b:c3, 2015-01-01 00:51:54.015, 0.024, -0.032, 1.002, 0, 0, 0, -1.747, -1.472, 126.189, 57.428, -41.846, -12.642, 22.47, 0.45258, 0.00458, -0.01944, 0.89145,
 15:36:49.027,c2:22:89:2b:7b:c3, 2015-01-01 00:51:54.015, 0.026, -0.031, 1, 0, 0, 0, -1.747, -1.472, 126.189, 57.428, -41.846, -12.642, 22.47, 0.45258, 0.00458, -0.01944, 0.89145,
 15:36:49.027,c2:22:89:2b:7b:c3, 2015-01-01 00:51:54.015, 0.023, -0.032, 1.002, 0, 0, 0, -1.747, -1.472, 126.189, 57.428, -41.846, -12.642, 22.47, 0.45258, 0.00458, -0.01944, 0.89145,
 15:36:49.027,c2:22:89:2b:7b:c3, 2015-01-01 00:51:54.015, 0.027, -0.03, 1.002, 0, 0, 0, -1.747, -1.472, 126.189, 57.428, -41.846, -12.642, 22.47, 0.45258, 0.00458, -0.01944, 0.89145,
 15:36:49.086,c2:22:89:2b:7b:c3, 2015-01-01 00:51:54.015, 0.025, -0.031, 1.003, 0, 0, 0, -1.747, -1.472, 126.189, 57.428, -41.846, -12.642, 22.47, 0.45258, 0.00458, -0.01944, 0.89145,
 15:36:49.086,c2:22:89:2b:7b:c3, 2015-01-01 00:51:54.015, 0.025, -0.029, 1.003, 0, 0, 0, -1.747, -1.472, 126.189, 57.428, -41.846, -12.642, 22.47, 0.45258, 0.00458, -0.01944, 0.89145,
 15:36:49.086,c2:22:89:2b:7b:c3, 2015-01-01 00:51:54.015, 0.028, -0.028, 1.003, 0, 0, 0, -1.747, -1.472, 126.189, 57.428, -41.846, -12.642, 22.47, 0.45258, 0.00458, -0.01944, 0.89145,
 15:36:49.086,c2:22:89:2b:7b:c3, 2015-01-01 00:51:54.015, 0.024, -0.03, 1.003, 0, 0, 0, -1.747, -1.472, 126.189, 57.428, -41.846, -12.642, 22.47, 0.45258, 0.00458, -0.01944, 0.89145,
 15:36:49.118,c2:22:89:2b:7b:c3, 2015-01-01 00:51:54.015, 0.024, -0.03, 1, 0, 0, 0, -1.747, -1.472, 126.189, 57.428, -41.846, -12.642, 22.47, 0.45258, 0.00458, -0.01944, 0.89145,
 15:36:49.118,c2:22:89:2b:7b:c3, 2015-01-01 00:51:54.015, 0.026, -0.031, 1.002, 0, 0, 0, -1.747, -1.472, 126.189, 57.428, -41.846, -12.642, 22.47, 0.45258, 0.00458, -0.01944, 0.89145,
 15:36:49.118,c2:22:89:2b:7b:c3, 2015-01-01 00:51:54.015, 0.025, -0.029, 1.002, 0, 0, 0, -1.741, -1.472, 126.189, 57.428, -41.846, -12.642, 22.47, 0.45258, 0.00458, -0.01944, 0.89145,
 15:36:49.118,c2:22:89:2b:7b:c3, 2015-01-01 00:51:54.015, 0.025, -0.031, 1.002, 0, 0, 0, -1.741, -1.472, 126.189, 57.428, -41.846, -12.642, 22.47, 0.45258, 0.00458, -0.01944, 0.89145,
 15:36:49.148,c2:22:89:2b:7b:c3, 2015-01-01 00:51:54.015, 0.022, -0.029, 1, 0, 0, 0, -1.741, -1.472, 126.189, 57.428, -41.846, -12.642, 22.47, 0.45258, 0.00458, -0.01944, 0.89145,
 15:36:49.148,c2:22:89:2b:7b:c3, 2015-01-01 00:51:54.015, 0.024, -0.029, 1, 0, 0, 0, -1.741, -1.472, 126.189, 57.428, -41.846, -12.642, 22.47, 0.45258, 0.00458, -0.01944, 0.89145,
 15:36:49.148,c2:22:89:2b:7b:c3, 2015-01-01 00:51:54.015, 0.027, -0.03, 1.001, 0, 0, 0, -1.741, -1.472, 126.189, 57.428, -41.846, -12.642, 22.47, 0.45258, 0.00458, -0.01944, 0.89145,
 15:36:49.148,c2:22:89:2b:7b:c3, 2015-01-01 00:51:54.015, 0.023, -0.031, 1, 0, 0, 0, -1.741, -1.472, 126.189, 57.428, -41.846, -12.642, 22.47, 0.45258, 0.00458, -0.01944, 0.89145,
 15:36:49.207,c2:22:89:2b:7b:c3, 2015-01-01 00:51:54.015, 0.024, -0.031, 1.003, 0, 0, 0, -1.741, -1.472, 126.189, 57.428, -41.846, -12.642, 22.47, 0.45258, 0.00458, -0.01944, 0.89145,
 15:36:49.207,c2:22:89:2b:7b:c3, 2015-01-01 00:51:54.015, 0.027, -0.031, 1.001, 0, 0, 0, -1.741, -1.472, 126.189, 57.428, -41.846, -12.642, 22.47, 0.45258, 0.00458, -0.01944, 0.89145,
 15:36:49.207,c2:22:89:2b:7b:c3, 2015-01-01 00:51:54.015, 0.027, -0.028, 1.004, 0, 0, 0, -1.741, -1.472, 126.189, 57.428, -41.846, -12.642, 22.47, 0.45258, 0.00458, -0.01944, 0.89145,
 15:36:49.207,c2:22:89:2b:7b:c3, 2015-01-01 00:51:54.015, 0.025, -0.031, 1.001, 0, 0, 0, -1.741, -1.472, 126.189, 57.428, -41.846, -12.642, 22.47, 0.45258, 0.00458, -0.01944, 0.89145,
 15:36:49.238,c2:22:89:2b:7b:c3, 2015-01-01 00:51:54.015, 0.025, -0.033, 1.002, 0, 0, 0, -1.741, -1.472, 126.189, 57.526, -41.846, -12.740, 22.47, 0.45258, 0.00458, -0.01944, 0.89145,
 15:36:49.238,c2:22:89:2b:7b:c3, 2015-01-01 00:51:54.015, 0.026, -0.033, 1.002, 0, 0, 0, -1.741, -1.472, 126.189, 57.526, -41.846, -12.740, 22.47, 0.45258, 0.00458, -0.01944, 0.89145,
 15:36:49.238,c2:22:89:2b:7b:c3, 2015-01-01 00:51:54.015, 0.024, -0.031, 1.003, 0, 0, 0, -1.741, -1.472, 126.189, 57.526, -41.846, -12.740, 22.47, 0.45258, 0.00458, -0.01944, 0.89145,
 15:36:49.238,c2:22:89:2b:7b:c3, 2015-01-01 00:51:54.015, 0.025, -0.031, 1.002, 0, 0, 0, -1.741, -1.472, 126.189, 57.526, -41.846, -12.740, 22.47, 0.45258, 0.00458, -0.01944, 0.89145,
 15:36:49.268,c2:22:89:2b:7b:c3, 2015-01-01 00:51:54.015, 0.026, -0.032, 1.002, 0, 0, 0, -1.741, -1.472, 126.189, 57.526, -41.846, -12.740, 22.47, 0.45258, 0.00458, -0.01944, 0.89145,
 15:36:49.268,c2:22:89:2b:7b:c3, 2015-01-01 00:51:54.015, 0.025, -0.031, 1.001, 0, 0, 0, -1.741, -1.472, 126.189, 57.526, -41.846, -12.740, 22.47, 0.45258, 0.00458, -0.01944, 0.89145,
 15:36:49.268,c2:22:89:2b:7b:c3, 2015-01-01 00:51:54.015, 0.022, -0.032, 1.003, 0, 0, 0, -1.741, -1.472, 126.189, 57.526, -41.846, -12.740, 22.47, 0.45258, 0.00458, -0.01944, 0.89145,
 15:36:49.268,c2:22:89:2b:7b:c3, 2015-01-01 00:51:54.015, 0.025, -0.03, 1.002, 0, 0, 0, -1.741, -1.472, 126.189, 57.526, -41.846, -12.740, 22.47, 0.45258, 0.00458, -0.01944, 0.89145,
 15:36:49.327,c2:22:89:2b:7b:c3, 2015-01-01 00:51:54.015, 0.025, -0.029, 1.003, 0, 0, 0, -1.741, -1.472, 126.189, 57.526, -41.846, -12.740, 22.47, 0.45258, 0.00458, -0.01941, 0.89145,
 15:36:49.327,c2:22:89:2b:7b:c3, 2015-01-01 00:51:54.015, 0.025, -0.03, 1, 0, 0, 0, -1.741, -1.472, 126.189, 57.526, -41.846, -12.740, 22.47, 0.45258, 0.00458, -0.01941, 0.89145,
 15:36:49.327,c2:22:89:2b:7b:c3, 2015-01-01 00:51:54.015, 0.026, -0.033, 1.002, 0, 0, 0, -1.741, -1.472, 126.189, 57.526, -41.846, -12.740, 22.47, 0.45258, 0.00458, -0.01941, 0.89145,
 15:36:49.327,c2:22:89:2b:7b:c3, 2015-01-01 00:51:54.015, 0.025, -0.03, 1, 0, 0, 0, -1.741, -1.472, 126.189, 57.526, -41.846, -12.740, 22.47, 0.45258, 0.00458, -0.01941, 0.89145,
 15:36:49.357,c2:22:89:2b:7b:c3, 2015-01-01 00:51:54.400, 0.026, -0.028, 1.003, 0, 0, 0, -1.741, -1.472, 126.189, 57.526, -41.846, -12.740, 22.47, 0.45258, 0.00458, -0.01941, 0.89145,
 15:36:49.357,c2:22:89:2b:7b:c3, 2015-01-01 00:51:54.400, 0.027, -0.03, 1.001, 0, 0, 0, -1.741, -1.472, 126.189, 57.526, -41.846, -12.740, 22.47, 0.45258, 0.00458, -0.01941, 0.89145,
 15:36:49.357,c2:22:89:2b:7b:c3, 2015-01-01 00:51:54.400, 0.026, -0.031, 1.001, 0, 0, 0, -1.741, -1.472, 126.189, 57.526, -41.846, -12.740, 22.47, 0.45258, 0.00458, -0.01941, 0.89145,
 15:36:49.357,c2:22:89:2b:7b:c3, 2015-01-01 00:51:54.400, 0.025, -0.032, 1.002, 0, 0, 0, -1.741, -1.472, 126.189, 57.526, -41.846, -12.740, 22.47, 0.45258, 0.00458, -0.01941, 0.89145,
 15:36:49.387,c2:22:89:2b:7b:c3, 2015-01-01 00:51:54.400, 0.026, -0.029, 1.002, 0, 0, 0, -1.741, -1.472, 126.189, 57.526, -41.846, -12.740, 22.47, 0.45258, 0.00458, -0.01941, 0.89145,
 15:36:49.387,c2:22:89:2b:7b:c3, 2015-01-01 00:51:54.400, 0.025, -0.03, 1.002, 0, 0, 0, -1.741, -1.472, 126.189, 57.526, -41.846, -12.740, 22.47, 0.45258, 0.00458, -0.01941, 0.89145,
 15:36:49.387,c2:22:89:2b:7b:c3, 2015-01-01 00:51:54.400, 0.026, -0.031, 1.001, 0, 0, 0, -1.741, -1.472, 126.189, 57.526, -41.846, -12.740, 22.47, 0.45258, 0.00458, -0.01941, 0.89145,
 15:36:49.387,c2:22:89:2b:7b:c3, 2015-01-01 00:51:54.400, 0.023, -0.028, 1.003, 0, 0, 0, -1.741, -1.472, 126.189, 57.526, -41.846, -12.740, 22.47, 0.45258, 0.00458, -0.01941, 0.89145,
 15:36:49.446,c2:22:89:2b:7b:c3, 2015-01-01 00:51:54.400, 0.028, -0.03, 1.001, 0, 0, 0, -1.741, -1.472, 126.189, 57.526, -41.846, -12.740, 22.47, 0.45258, 0.00458, -0.01941, 0.89145,
 15:36:49.446,c2:22:89:2b:7b:c3, 2015-01-01 00:51:54.400, 0.026, -0.031, 1.001, 0, 0, 0, -1.741, -1.472, 126.189, 57.526, -41.846, -12.740, 22.47, 0.45258, 0.00458, -0.01941, 0.89145,
 15:36:49.446,c2:22:89:2b:7b:c3, 2015-01-01 00:51:54.400, 0.026, -0.03, 1.001, 0, 0, 0, -1.741, -1.472, 126.189, 57.526, -41.846, -12.740, 22.47, 0.45258, 0.00458, -0.01941, 0.89145,
 15:36:49.446,c2:22:89:2b:7b:c3, 2015-01-01 00:51:54.400, 0.025, -0.031, 1.001, 0, 0, 0, -1.741, -1.472, 126.189, 57.526, -41.846, -12.740, 22.47, 0.45258, 0.00458, -0.01941, 0.89145,
 15:36:49.477,c2:22:89:2b:7b:c3, 2015-01-01 00:51:54.400, 0.026, -0.03, 1.002, 0, 0, 0, -1.741, -1.472, 126.189, 57.526, -41.846, -12.740, 22.47, 0.45258, 0.00458, -0.01941, 0.89145,
 15:36:49.477,c2:22:89:2b:7b:c3, 2015-01-01 00:51:54.400, 0.025, -0.032, 1.003, 0, 0, 0, -1.741, -1.472, 126.189, 57.526, -41.846, -12.740, 22.47, 0.45258, 0.00458, -0.01941, 0.89145,
 15:36:49.477,c2:22:89:2b:7b:c3, 2015-01-01 00:51:54.400, 0.027, -0.03, 1.001, 0, 0, 0, -1.741, -1.472, 126.189, 57.526, -41.846, -12.740, 22.47, 0.45258, 0.00458, -0.01941, 0.89145,
 15:36:49.477,c2:22:89:2b:7b:c3, 2015-01-01 00:51:54.400, 0.027, -0.03, 1.003, 0, 0, 0, -1.741, -1.472, 126.189, 57.526, -41.846, -12.740, 22.47, 0.45258, 0.00458, -0.01941, 0.89145,
 15:36:49.506,c2:22:89:2b:7b:c3, 2015-01-01 00:51:54.400, 0.026, -0.031, 1.001, 0, 0, 0, -1.741, -1.472, 126.189, 57.526, -41.846, -12.740, 22.47, 0.45258, 0.00458, -0.01941, 0.89145,
 15:36:49.506,c2:22:89:2b:7b:c3, 2015-01-01 00:51:54.400, 0.025, -0.031, 1.001, 0, 0, 0, -1.741, -1.472, 126.189, 57.526, -41.846, -12.740, 22.47, 0.45258, 0.00458, -0.01941, 0.89145,
 15:36:49.506,c2:22:89:2b:7b:c3, 2015-01-01 00:51:54.400, 0.028, -0.033, 1.001, 0, 0, 0, -1.741, -1.472, 126.189, 57.526, -41.846, -12.740, 22.47, 0.45258, 0.00458, -0.01941, 0.89145,
 15:36:49.506,c2:22:89:2b:7b:c3, 2015-01-01 00:51:54.400, 0.025, -0.03, 1.003, 0, 0, 0, -1.741, -1.472, 126.189, 57.526, -41.846, -12.740, 22.47, 0.45258, 0.00458, -0.01941, 0.89145,
 15:36:49.566,c2:22:89:2b:7b:c3, 2015-01-01 00:51:54.400, 0.024, -0.029, 1.002, 0, 0, 0, -1.741, -1.472, 126.189, 57.526, -41.846, -12.740, 22.47, 0.45258, 0.00458, -0.01941, 0.89145,
 15:36:49.566,c2:22:89:2b:7b:c3, 2015-01-01 00:51:54.400, 0.024, -0.031, 1.001, 0, 0, 0, -1.747, -1.472, 126.189, 57.526, -41.846, -12.740, 22.47, 0.45258, 0.00458, -0.01941, 0.89145,
 15:36:49.566,c2:22:89:2b:7b:c3, 2015-01-01 00:51:54.400, 0.026, -0.029, 1.003, 0, 0, 0, -1.747, -1.472, 126.189, 57.526, -41.846, -12.740, 22.47, 0.45258, 0.00458, -0.01941, 0.89145,
 15:36:49.566,c2:22:89:2b:7b:c3, 2015-01-01 00:51:54.400, 0.025, -0.031, 1.004, 0, 0, 0, -1.747, -1.472, 126.189, 57.526, -41.846, -12.740, 22.47, 0.45258, 0.00458, -0.01941, 0.89145,
 15:36:49.596,c2:22:89:2b:7b:c3, 2015-01-01 00:51:54.400, 0.024, -0.032, 1.001, 0, 0, 0, -1.747, -1.472, 126.189, 57.428, -41.944, -12.642, 22.47, 0.45258, 0.00458, -0.01941, 0.89145,
 15:36:49.597,c2:22:89:2b:7b:c3, 2015-01-01 00:51:54.400, 0.027, -0.031, 1.001, 0, 0, 0, -1.747, -1.472, 126.189, 57.428, -41.944, -12.642, 22.47, 0.45258, 0.00458, -0.01941, 0.89145,
 15:36:49.597,c2:22:89:2b:7b:c3, 2015-01-01 00:51:54.400, 0.026, -0.031, 1, 0, 0, 0, -1.747, -1.472, 126.189, 57.428, -41.944, -12.642, 22.47, 0.45258, 0.00458, -0.01941, 0.89145,
 15:36:49.597,c2:22:89:2b:7b:c3, 2015-01-01 00:51:54.400, 0.026, -0.031, 1.004, 0, 0, 0, -1.747, -1.472, 126.189, 57.428, -41.944, -12.642, 22.47, 0.45258, 0.00458, -0.01941, 0.89145,
 15:36:49.628,c2:22:89:2b:7b:c3, 2015-01-01 00:51:54.400, 0.026, -0.03, 1.003, 0, 0, 0, -1.747, -1.472, 126.189, 57.428, -41.944, -12.642, 22.47, 0.45258, 0.00458, -0.01941, 0.89145,
 15:36:49.628,c2:22:89:2b:7b:c3, 2015-01-01 00:51:54.400, 0.027, -0.03, 1.003, 0, 0, 0, -1.747, -1.472, 126.189, 57.428, -41.944, -12.642, 22.47, 0.45258, 0.00458, -0.01941, 0.89145,
 15:36:49.628,c2:22:89:2b:7b:c3, 2015-01-01 00:51:54.400, 0.025, -0.032, 1.005, 0, 0, 0, -1.747, -1.472, 126.189, 57.428, -41.944, -12.642, 22.47, 0.45258, 0.00458, -0.01941, 0.89145,
 15:36:49.628,c2:22:89:2b:7b:c3, 2015-01-01 00:51:54.400, 0.027, -0.03, 1.001, 0, 0, 0, -1.747, -1.472, 126.189, 57.428, -41.944, -12.642, 22.47, 0.45258, 0.00458, -0.01941, 0.89145,
 15:36:49.686,c2:22:89:2b:7b:c3, 2015-01-01 00:51:54.400, 0.027, -0.03, 1, 0, 0, 0, -1.747, -1.472, 126.189, 57.428, -41.944, -12.642, 22.47, 0.45258, 0.00455, -0.01941, 0.89145,
 15:36:49.686,c2:22:89:2b:7b:c3, 2015-01-01 00:51:54.400, 0.024, -0.031, 1.002, 0, 0, 0, -1.747, -1.472, 126.189, 57.428, -41.944, -12.642, 22.47, 0.45258, 0.00455, -0.01941, 0.89145,
 15:36:49.686,c2:22:89:2b:7b:c3, 2015-01-01 00:51:54.400, 0.025, -0.032, 1.003, 0, 0, 0, -1.747, -1.472, 126.189, 57.428, -41.944, -12.642, 22.47, 0.45258, 0.00455, -0.01941, 0.89145,
 15:36:49.686,c2:22:89:2b:7b:c3, 2015-01-01 00:51:54.400, 0.024, -0.031, 1, 0, 0, 0, -1.747, -1.472, 126.189, 57.428, -41.944, -12.642, 22.47, 0.45258, 0.00455, -0.01941, 0.89145,
 15:36:49.716,c2:22:89:2b:7b:c3, 2015-01-01 00:51:54.760, 0.026, -0.033, 1.004, 0, 0, 0, -1.747, -1.472, 126.189, 57.428, -41.944, -12.642, 22.47, 0.45258, 0.00455, -0.01941, 0.89145,
 15:36:49.716,c2:22:89:2b:7b:c3, 2015-01-01 00:51:54.760, 0.025, -0.029, 1.002, 0, 0, 0, -1.747, -1.472, 126.189, 57.428, -41.944, -12.642, 22.47, 0.45258, 0.00455, -0.01941, 0.89145,
 15:36:49.716,c2:22:89:2b:7b:c3, 2015-01-01 00:51:54.760, 0.025, -0.033, 1.005, 0, 0, 0, -1.747, -1.472, 126.189, 57.428, -41.944, -12.642, 22.47, 0.45258, 0.00455, -0.01941, 0.89145,
 15:36:49.716,c2:22:89:2b:7b:c3, 2015-01-01 00:51:54.760, 0.026, -0.031, 1.003, 0, 0, 0, -1.747, -1.472, 126.189, 57.428, -41.944, -12.642, 22.47, 0.45258, 0.00455, -0.01941, 0.89145,
 15:36:49.746,c2:22:89:2b:7b:c3, 2015-01-01 00:51:54.760, 0.025, -0.03, 1.006, 0, 0, 0, -1.747, -1.472, 126.189, 57.428, -41.944, -12.642, 22.47, 0.45258, 0.00455, -0.01941, 0.89145,
 15:36:49.746,c2:22:89:2b:7b:c3, 2015-01-01 00:51:54.760, 0.027, -0.031, 1.001, 0, 0, 0, -1.747, -1.472, 126.189, 57.428, -41.944, -12.642, 22.47, 0.45258, 0.00455, -0.01941, 0.89145,
 15:36:49.746,c2:22:89:2b:7b:c3, 2015-01-01 00:51:54.760, 0.026, -0.031, 1.004, 0, 0, 0, -1.747, -1.472, 126.189, 57.428, -41.944, -12.642, 22.47, 0.45258, 0.00455, -0.01941, 0.89145,
 15:36:49.746,c2:22:89:2b:7b:c3, 2015-01-01 00:51:54.760, 0.026, -0.032, 1, 0, 0, 0, -1.747, -1.472, 126.189, 57.428, -41.944, -12.642, 22.47, 0.45258, 0.00455, -0.01941, 0.89145,
 15:36:49.807,c2:22:89:2b:7b:c3, 2015-01-01 00:51:54.760, 0.024, -0.029, 1, 0, 0, 0, -1.747, -1.472, 126.189, 57.428, -41.944, -12.642, 22.47, 0.45258, 0.00455, -0.01941, 0.89145,
 15:36:49.807,c2:22:89:2b:7b:c3, 2015-01-01 00:51:54.760, 0.026, -0.029, 1.001, 0, 0, 0, -1.747, -1.472, 126.189, 57.428, -41.944, -12.642, 22.47, 0.45258, 0.00455, -0.01941, 0.89145,
 15:36:49.807,c2:22:89:2b:7b:c3, 2015-01-01 00:51:54.760, 0.027, -0.033, 1.004, 0, 0, 0, -1.747, -1.472, 126.189, 57.428, -41.944, -12.642, 22.47, 0.45258, 0.00455, -0.01941, 0.89145,
 15:36:49.807,c2:22:89:2b:7b:c3, 2015-01-01 00:51:54.760, 0.025, -0.033, 1.004, 0, 0, 0, -1.747, -1.472, 126.189, 57.428, -41.944, -12.642, 22.47, 0.45258, 0.00455, -0.01941, 0.89145,
 15:36:49.866,c2:22:89:2b:7b:c3, 2015-01-01 00:51:54.760, 0.023, -0.032, 1.001, 0, 0, 0, -1.747, -1.472, 126.189, 57.428, -41.944, -12.642, 22.47, 0.45258, 0.00455, -0.01941, 0.89145,
 15:36:49.866,c2:22:89:2b:7b:c3, 2015-01-01 00:51:54.760, 0.025, -0.028, 1.004, 0, 0, 0, -1.747, -1.472, 126.189, 57.428, -41.944, -12.642, 22.47, 0.45258, 0.00455, -0.01941, 0.89145,
 15:36:49.866,c2:22:89:2b:7b:c3, 2015-01-01 00:51:54.760, 0.028, -0.03, 1, 0, 0, 0, -1.747, -1.467, 126.189, 57.428, -41.944, -12.642, 22.47, 0.45258, 0.00455, -0.01941, 0.89145,
 15:36:49.866,c2:22:89:2b:7b:c3, 2015-01-01 00:51:54.760, 0.024, -0.032, 1.001, 0, 0, 0, -1.747, -1.467, 126.189, 57.428, -41.944, -12.642, 22.47, 0.45258, 0.00455, -0.01941, 0.89145,
 15:36:49.896,c2:22:89:2b:7b:c3, 2015-01-01 00:51:54.760, 0.027, -0.03, 1.002, 0, 0, 0, -1.747, -1.467, 126.189, 57.428, -41.944, -12.642, 22.47, 0.45258, 0.00455, -0.01941, 0.89145,
 15:36:49.896,c2:22:89:2b:7b:c3, 2015-01-01 00:51:54.760, 0.026, -0.03, 1.001, 0, 0, 0, -1.747, -1.467, 126.189, 57.428, -41.944, -12.642, 22.47, 0.45258, 0.00455, -0.01941, 0.89145,
 15:36:49.896,c2:22:89:2b:7b:c3, 2015-01-01 00:51:54.760, 0.025, -0.03, 1.003, 0, 0, 0, -1.747, -1.467, 126.189, 57.428, -41.944, -12.642, 22.47, 0.45258, 0.00455, -0.01941, 0.89145,
 15:36:49.896,c2:22:89:2b:7b:c3, 2015-01-01 00:51:54.760, 0.026, -0.031, 1, 0, 0, 0, -1.747, -1.467, 126.189, 57.428, -41.944, -12.642, 22.47, 0.45258, 0.00455, -0.01941, 0.89145,
 15:36:49.928,c2:22:89:2b:7b:c3, 2015-01-01 00:51:54.760, 0.029, -0.031, 1.001, 0, 0, 0, -1.747, -1.467, 126.189, 57.428, -41.846, -12.544, 22.47, 0.45258, 0.00455, -0.01941, 0.89145,
 15:36:49.928,c2:22:89:2b:7b:c3, 2015-01-01 00:51:54.760, 0.025, -0.032, 1, 0, 0, 0, -1.747, -1.467, 126.189, 57.428, -41.846, -12.544, 22.47, 0.45258, 0.00455, -0.01941, 0.89145,
 15:36:49.928,c2:22:89:2b:7b:c3, 2015-01-01 00:51:54.760, 0.025, -0.029, 1.002, 0, 0, 0, -1.747, -1.472, 126.189, 57.428, -41.846, -12.544, 22.47, 0.45258, 0.00455, -0.01941, 0.89145,
 15:36:49.928,c2:22:89:2b:7b:c3, 2015-01-01 00:51:54.760, 0.027, -0.03, 1.001, 0, 0, 0, -1.747, -1.472, 126.189, 57.428, -41.846, -12.544, 22.47, 0.45258, 0.00455, -0.01941, 0.89145,
 15:36:49.987,c2:22:89:2b:7b:c3, 2015-01-01 00:51:54.760, 0.026, -0.031, 1.005, 0, 0, 0, -1.747, -1.472, 126.189, 57.428, -41.846, -12.544, 22.47, 0.45258, 0.00455, -0.01941, 0.89145,
 15:36:49.987,c2:22:89:2b:7b:c3, 2015-01-01 00:51:54.760, 0.024, -0.03, 1.002, 0, 0, 0, -1.747, -1.472, 126.189, 57.428, -41.846, -12.544, 22.47, 0.45258, 0.00455, -0.01941, 0.89145,
 15:36:49.987,c2:22:89:2b:7b:c3, 2015-01-01 00:51:54.760, 0.028, -0.03, 1.003, 0, 0, 0, -1.747, -1.472, 126.189, 57.428, -41.846, -12.544, 22.47, 0.45258, 0.00455, -0.01941, 0.89145,
 15:36:49.987,c2:22:89:2b:7b:c3, 2015-01-01 00:51:54.760, 0.025, -0.032, 1.003, 0, 0, 0, -1.747, -1.472, 126.189, 57.428, -41.846, -12.544, 22.47, 0.45258, 0.00455, -0.01941, 0.89145,
 15:36:50.017,c2:22:89:2b:7b:c3, 2015-01-01 00:51:54.760, 0.023, -0.031, 1.005, 0, 0, 0, -1.747, -1.472, 126.189, 57.428, -41.846, -12.544, 22.47, 0.45258, 0.00455, -0.01941, 0.89145,
 15:36:50.017,c2:22:89:2b:7b:c3, 2015-01-01 00:51:54.760, 0.027, -0.032, 1.001, 0, 0, 0, -1.747, -1.472, 126.189, 57.428, -41.846, -12.544, 22.47, 0.45258, 0.00455, -0.01941, 0.89145,
 15:36:50.017,c2:22:89:2b:7b:c3, 2015-01-01 00:51:54.760, 0.027, -0.032, 1.003, 0, 0, 0, -1.747, -1.472, 126.189, 57.428, -41.846, -12.544, 22.47, 0.45258, 0.00455, -0.01941, 0.89145,
 15:36:50.017,c2:22:89:2b:7b:c3, 2015-01-01 00:51:54.760, 0.027, -0.031, 1, 0, 0, 0, -1.747, -1.472, 126.189, 57.428, -41.846, -12.544, 22.47, 0.45258, 0.00455, -0.01941, 0.89145,
 15:36:50.078,c2:22:89:2b:7b:c3, 2015-01-01 00:51:54.760, 0.025, -0.031, 1.001, 0, 0, 0, -1.747, -1.472, 126.189, 57.428, -41.846, -12.544, 22.47, 0.45258, 0.00455, -0.01941, 0.89145,
 15:36:50.078,c2:22:89:2b:7b:c3, 2015-01-01 00:51:54.760, 0.025, -0.031, 1.004, 0, 0, 0, -1.747, -1.472, 126.189, 57.428, -41.846, -12.544, 22.47, 0.45258, 0.00455, -0.01941, 0.89145,
 15:36:50.078,c2:22:89:2b:7b:c3, 2015-01-01 00:51:54.760, 0.024, -0.028, 1, 0, 0, 0, -1.747, -1.472, 126.189, 57.428, -41.846, -12.544, 22.47, 0.45258, 0.00455, -0.01941, 0.89145,
 15:36:50.078,c2:22:89:2b:7b:c3, 2015-01-01 00:51:54.760, 0.027, -0.03, 1, 0, 0, 0, -1.747, -1.472, 126.189, 57.428, -41.846, -12.544, 22.47, 0.45258, 0.00455, -0.01941, 0.89145,
 15:36:50.078,c2:22:89:2b:7b:c3, 2015-01-01 00:51:54.760, 0.026, -0.028, 1.002, 0, 0, 0, -1.747, -1.472, 126.189, 57.428, -41.846, -12.544, 22.47, 0.45258, 0.00455, -0.01941, 0.89145,
 15:36:50.078,c2:22:89:2b:7b:c3, 2015-01-01 00:51:54.760, 0.025, -0.032, 1.002, 0, 0, 0, -1.747, -1.472, 126.189, 57.428, -41.846, -12.544, 22.47, 0.45258, 0.00455, -0.01941, 0.89145,
 15:36:50.078,c2:22:89:2b:7b:c3, 2015-01-01 00:51:54.760, 0.026, -0.033, 1.002, 0, 0, 0, -1.747, -1.472, 126.189, 57.428, -41.846, -12.544, 22.47, 0.45258, 0.00455, -0.01941, 0.89145,
 15:36:50.078,c2:22:89:2b:7b:c3, 2015-01-01 00:51:54.760, 0.029, -0.029, 1.001, 0, 0, 0, -1.747, -1.472, 126.189, 57.428, -41.846, -12.544, 22.47, 0.45258, 0.00455, -0.01941, 0.89145,
 15:36:50.135,c2:22:89:2b:7b:c3, 2015-01-01 00:51:55.115, 0.026, -0.031, 1.004, 0, 0, 0, -1.747, -1.472, 126.189, 57.428, -41.846, -12.544, 22.47, 0.45258, 0.00455, -0.01941, 0.89145,
 15:36:50.135,c2:22:89:2b:7b:c3, 2015-01-01 00:51:55.115, 0.023, -0.031, 1.003, 0, 0, 0, -1.747, -1.472, 126.189, 57.428, -41.846, -12.544, 22.47, 0.45258, 0.00455, -0.01941, 0.89145,
 15:36:50.135,c2:22:89:2b:7b:c3, 2015-01-01 00:51:55.115, 0.027, -0.03, 1.003, 0, 0, 0, -1.747, -1.472, 126.189, 57.428, -41.846, -12.544, 22.47, 0.45258, 0.00455, -0.01941, 0.89145,
 15:36:50.135,c2:22:89:2b:7b:c3, 2015-01-01 00:51:55.115, 0.027, -0.032, 1.003, 0, 0, 0, -1.747, -1.472, 126.189, 57.428, -41.846, -12.544, 22.47, 0.45258, 0.00455, -0.01941, 0.89145,
 15:36:50.167,c2:22:89:2b:7b:c3, 2015-01-01 00:51:55.115, 0.023, -0.032, 1.004, 0, 0, 0, -1.747, -1.472, 126.189, 57.428, -41.846, -12.544, 22.47, 0.45258, 0.00455, -0.01941, 0.89145,
 15:36:50.167,c2:22:89:2b:7b:c3, 2015-01-01 00:51:55.115, 0.024, -0.031, 1.001, 0, 0, 0, -1.747, -1.472, 126.189, 57.428, -41.846, -12.544, 22.47, 0.45258, 0.00455, -0.01941, 0.89145,
 15:36:50.167,c2:22:89:2b:7b:c3, 2015-01-01 00:51:55.115, 0.027, -0.029, 1.002, 0, 0, 0, -1.747, -1.472, 126.189, 57.428, -41.846, -12.544, 22.47, 0.45258, 0.00455, -0.01941, 0.89145,
 15:36:50.167,c2:22:89:2b:7b:c3, 2015-01-01 00:51:55.115, 0.025, -0.031, 1, 0, 0, 0, -1.747, -1.472, 126.189, 57.428, -41.846, -12.544, 22.47, 0.45258, 0.00455, -0.01941, 0.89145,
 15:36:50.197,c2:22:89:2b:7b:c3, 2015-01-01 00:51:55.115, 0.027, -0.033, 1.003, 0, 0, 0, -1.747, -1.472, 126.189, 57.428, -41.846, -12.544, 22.47, 0.45258, 0.00455, -0.01941, 0.89145,
 15:36:50.197,c2:22:89:2b:7b:c3, 2015-01-01 00:51:55.115, 0.024, -0.031, 1, 0, 0, 0, -1.747, -1.472, 126.189, 57.428, -41.846, -12.544, 22.47, 0.45258, 0.00455, -0.01941, 0.89145,
 15:36:50.197,c2:22:89:2b:7b:c3, 2015-01-01 00:51:55.115, 0.023, -0.028, 1, 0, 0, 0, -1.747, -1.472, 126.189, 57.428, -41.846, -12.544, 22.47, 0.45258, 0.00455, -0.01941, 0.89145,
 15:36:50.197,c2:22:89:2b:7b:c3, 2015-01-01 00:51:55.115, 0.026, -0.03, 1, 0, 0, 0, -1.747, -1.472, 126.189, 57.428, -41.846, -12.544, 22.47, 0.45258, 0.00455, -0.01941, 0.89145,
 15:36:50.256,c2:22:89:2b:7b:c3, 2015-01-01 00:51:55.115, 0.028, -0.031, 1.001, 0, 0, 0, -1.747, -1.472, 126.189, 57.428, -41.846, -12.544, 22.47, 0.45258, 0.00455, -0.01941, 0.89145,
 15:36:50.257,c2:22:89:2b:7b:c3, 2015-01-01 00:51:55.115, 0.025, -0.03, 0.999, 0, 0, 0, -1.747, -1.472, 126.189, 57.428, -41.846, -12.544, 22.47, 0.45258, 0.00455, -0.01941, 0.89145,
 15:36:50.257,c2:22:89:2b:7b:c3, 2015-01-01 00:51:55.115, 0.028, -0.031, 1.001, 0, 0, 0, -1.747, -1.472, 126.189, 57.428, -41.846, -12.544, 22.47, 0.45258, 0.00455, -0.01941, 0.89145,
 15:36:50.257,c2:22:89:2b:7b:c3, 2015-01-01 00:51:55.115, 0.029, -0.032, 1, 0, 0, 0, -1.747, -1.472, 126.189, 57.428, -41.846, -12.544, 22.47, 0.45258, 0.00455, -0.01941, 0.89145,
 15:36:50.287,c2:22:89:2b:7b:c3, 2015-01-01 00:51:55.115, 0.026, -0.03, 1.003, 0, 0, 0, -1.747, -1.472, 126.189, 57.428, -41.846, -12.544, 22.47, 0.45258, 0.00455, -0.01941, 0.89145,
 15:36:50.287,c2:22:89:2b:7b:c3, 2015-01-01 00:51:55.115, 0.024, -0.031, 1.002, 0, 0, 0, -1.747, -1.472, 126.189, 57.428, -41.846, -12.544, 22.47, 0.45258, 0.00455, -0.01941, 0.89145,
 15:36:50.287,c2:22:89:2b:7b:c3, 2015-01-01 00:51:55.115, 0.027, -0.03, 1.002, 0, 0, 0, -1.747, -1.472, 126.189, 57.428, -41.846, -12.544, 22.47, 0.45258, 0.00455, -0.01941, 0.89145,
 15:36:50.287,c2:22:89:2b:7b:c3, 2015-01-01 00:51:55.115, 0.026, -0.031, 1.003, 0, 0, 0, -1.747, -1.472, 126.189, 57.428, -41.846, -12.544, 22.47, 0.45258, 0.00455, -0.01941, 0.89145,
 15:36:50.318,c2:22:89:2b:7b:c3, 2015-01-01 00:51:55.115, 0.026, -0.032, 1.002, 0, 0, 0, -1.747, -1.472, 126.189, 57.428, -41.748, -12.642, 22.47, 0.45258, 0.00455, -0.01941, 0.89145,
 15:36:50.318,c2:22:89:2b:7b:c3, 2015-01-01 00:51:55.115, 0.023, -0.031, 1.002, 0, 0, 0, -1.747, -1.472, 126.189, 57.428, -41.748, -12.642, 22.47, 0.45258, 0.00455, -0.01941, 0.89145,
 15:36:50.318,c2:22:89:2b:7b:c3, 2015-01-01 00:51:55.115, 0.026, -0.03, 1.003, 0, 0, 0, -1.747, -1.472, 126.189, 57.428, -41.748, -12.642, 22.47, 0.45258, 0.00455, -0.01941, 0.89145,
 15:36:50.318,c2:22:89:2b:7b:c3, 2015-01-01 00:51:55.115, 0.026, -0.03, 1.003, 0, 0, 0, -1.747, -1.472, 126.189, 57.428, -41.748, -12.642, 22.47, 0.45258, 0.00455, -0.01941, 0.89145,
 15:36:50.377,c2:22:89:2b:7b:c3, 2015-01-01 00:51:55.115, 0.026, -0.029, 1.002, 0, 0, 0, -1.747, -1.472, 126.189, 57.428, -41.748, -12.642, 22.47, 0.45258, 0.00455, -0.01941, 0.89145,
 15:36:50.377,c2:22:89:2b:7b:c3, 2015-01-01 00:51:55.115, 0.028, -0.03, 1.004, 0, 0, 0, -1.747, -1.472, 126.189, 57.428, -41.748, -12.642, 22.47, 0.45258, 0.00455, -0.01941, 0.89145,
 15:36:50.377,c2:22:89:2b:7b:c3, 2015-01-01 00:51:55.115, 0.023, -0.031, 1.003, 0, 0, 0, -1.747, -1.472, 126.189, 57.428, -41.748, -12.642, 22.47, 0.45258, 0.00455, -0.01941, 0.89145,
 15:36:50.377,c2:22:89:2b:7b:c3, 2015-01-01 00:51:55.115, 0.028, -0.028, 1.002, 0, 0, 0, -1.747, -1.472, 126.189, 57.428, -41.748, -12.642, 22.47, 0.45258, 0.00455, -0.01941, 0.89145,
 15:36:50.407,c2:22:89:2b:7b:c3, 2015-01-01 00:51:55.115, 0.025, -0.03, 1.002, 0, 0, 0, -1.747, -1.472, 126.189, 57.428, -41.748, -12.642, 22.47, 0.45258, 0.00455, -0.01944, 0.89145,
 15:36:50.407,c2:22:89:2b:7b:c3, 2015-01-01 00:51:55.115, 0.022, -0.028, 1.002, 0, 0, 0, -1.747, -1.472, 126.189, 57.428, -41.748, -12.642, 22.47, 0.45258, 0.00455, -0.01944, 0.89145,
 15:36:50.407,c2:22:89:2b:7b:c3, 2015-01-01 00:51:55.115, 0.024, -0.031, 1, 0, 0, 0, -1.747, -1.472, 126.189, 57.428, -41.748, -12.642, 22.47, 0.45258, 0.00455, -0.01944, 0.89145,
 15:36:50.407,c2:22:89:2b:7b:c3, 2015-01-01 00:51:55.115, 0.027, -0.032, 0.999, 0, 0, 0, -1.747, -1.472, 126.189, 57.428, -41.748, -12.642, 22.47, 0.45258, 0.00455, -0.01944, 0.89145,
 15:36:50.466,c2:22:89:2b:7b:c3, 2015-01-01 00:51:55.115, 0.026, -0.031, 1.001, 0, 0, 0, -1.747, -1.472, 126.189, 57.428, -41.748, -12.642, 22.47, 0.45258, 0.00455, -0.01944, 0.89145,
 15:36:50.466,c2:22:89:2b:7b:c3, 2015-01-01 00:51:55.115, 0.027, -0.028, 1.002, 0, 0, 0, -1.747, -1.472, 126.189, 57.428, -41.748, -12.642, 22.47, 0.45258, 0.00455, -0.01944, 0.89145,
 15:36:50.466,c2:22:89:2b:7b:c3, 2015-01-01 00:51:55.115, 0.026, -0.03, 1.001, 0, 0, 0, -1.747, -1.472, 126.189, 57.428, -41.748, -12.642, 22.47, 0.45258, 0.00455, -0.01944, 0.89145,
 15:36:50.466,c2:22:89:2b:7b:c3, 2015-01-01 00:51:55.115, 0.029, -0.03, 1.005, 0, 0, 0, -1.747, -1.472, 126.189, 57.428, -41.748, -12.642, 22.47, 0.45258, 0.00455, -0.01944, 0.89145,
 15:36:50.526,c2:22:89:2b:7b:c3, 2015-01-01 00:51:55.505, 0.026, -0.031, 1.002, 0, 0, 0, -1.747, -1.472, 126.189, 57.428, -41.748, -12.642, 22.47, 0.45258, 0.00455, -0.01944, 0.89145,
 15:36:50.526,c2:22:89:2b:7b:c3, 2015-01-01 00:51:55.505, 0.025, -0.033, 1.002, 0, 0, 0, -1.747, -1.472, 126.189, 57.428, -41.748, -12.642, 22.47, 0.45258, 0.00455, -0.01944, 0.89145,
 15:36:50.526,c2:22:89:2b:7b:c3, 2015-01-01 00:51:55.505, 0.023, -0.031, 1.003, 0, 0, 0, -1.747, -1.472, 126.189, 57.428, -41.748, -12.642, 22.47, 0.45258, 0.00455, -0.01944, 0.89145,
 15:36:50.526,c2:22:89:2b:7b:c3, 2015-01-01 00:51:55.505, 0.027, -0.029, 1.002, 0, 0, 0, -1.747, -1.472, 126.189, 57.428, -41.748, -12.642, 22.47, 0.45258, 0.00455, -0.01944, 0.89145,
 15:36:50.528,c2:22:89:2b:7b:c3, 2015-01-01 00:51:55.505, 0.025, -0.032, 1, 0, 0, 0, -1.747, -1.472, 126.189, 57.428, -41.748, -12.642, 22.47, 0.45258, 0.00455, -0.01944, 0.89145,
 15:36:50.528,c2:22:89:2b:7b:c3, 2015-01-01 00:51:55.505, 0.025, -0.029, 1.004, 0, 0, 0, -1.747, -1.472, 126.189, 57.428, -41.748, -12.642, 22.47, 0.45258, 0.00455, -0.01944, 0.89145,
 15:36:50.528,c2:22:89:2b:7b:c3, 2015-01-01 00:51:55.505, 0.023, -0.031, 1.002, 0, 0, 0, -1.747, -1.472, 126.189, 57.428, -41.748, -12.642, 22.47, 0.45258, 0.00455, -0.01944, 0.89145,
 15:36:50.528,c2:22:89:2b:7b:c3, 2015-01-01 00:51:55.505, 0.028, -0.031, 1, 0, 0, 0, -1.747, -1.472, 126.189, 57.428, -41.748, -12.642, 22.47, 0.45258, 0.00455, -0.01944, 0.89145,
 15:36:50.556,c2:22:89:2b:7b:c3, 2015-01-01 00:51:55.505, 0.026, -0.031, 1.001, 0, 0, 0, -1.747, -1.472, 126.189, 57.428, -41.748, -12.642, 22.47, 0.45258, 0.00455, -0.01944, 0.89145,
 15:36:50.556,c2:22:89:2b:7b:c3, 2015-01-01 00:51:55.505, 0.024, -0.032, 1.004, 0, 0, 0, -1.747, -1.472, 126.189, 57.428, -41.748, -12.642, 22.47, 0.45258, 0.00455, -0.01944, 0.89145,
 15:36:50.556,c2:22:89:2b:7b:c3, 2015-01-01 00:51:55.505, 0.022, -0.029, 1.003, 0, 0, 0, -1.747, -1.472, 126.189, 57.428, -41.748, -12.642, 22.47, 0.45258, 0.00455, -0.01944, 0.89145,
 15:36:50.556,c2:22:89:2b:7b:c3, 2015-01-01 00:51:55.505, 0.025, -0.029, 1.001, 0, 0, 0, -1.747, -1.472, 126.189, 57.428, -41.748, -12.642, 22.47, 0.45258, 0.00455, -0.01944, 0.89145,
 15:36:50.616,c2:22:89:2b:7b:c3, 2015-01-01 00:51:55.505, 0.026, -0.029, 1.002, 0, 0, 0, -1.747, -1.472, 126.189, 57.428, -41.748, -12.642, 22.47, 0.45258, 0.00455, -0.01944, 0.89145,
 15:36:50.616,c2:22:89:2b:7b:c3, 2015-01-01 00:51:55.505, 0.025, -0.03, 1.003, 0, 0, 0, -1.747, -1.472, 126.189, 57.428, -41.748, -12.642, 22.47, 0.45258, 0.00455, -0.01944, 0.89145,
 15:36:50.616,c2:22:89:2b:7b:c3, 2015-01-01 00:51:55.505, 0.026, -0.031, 1.001, 0, 0, 0, -1.747, -1.472, 126.189, 57.428, -41.748, -12.642, 22.47, 0.45258, 0.00455, -0.01944, 0.89145,
 15:36:50.616,c2:22:89:2b:7b:c3, 2015-01-01 00:51:55.505, 0.025, -0.032, 1, 0, 0, 0, -1.747, -1.472, 126.189, 57.428, -41.748, -12.642, 22.47, 0.45258, 0.00455, -0.01944, 0.89145,
 15:36:50.647,c2:22:89:2b:7b:c3, 2015-01-01 00:51:55.505, 0.027, -0.032, 1.002, 0, 0, 0, -1.747, -1.472, 126.189, 57.428, -41.748, -12.642, 22.47, 0.45258, 0.00455, -0.01944, 0.89145,
 15:36:50.647,c2:22:89:2b:7b:c3, 2015-01-01 00:51:55.505, 0.026, -0.029, 1, 0, 0, 0, -1.747, -1.472, 126.189, 57.428, -41.748, -12.642, 22.47, 0.45258, 0.00455, -0.01944, 0.89145,
 15:36:50.647,c2:22:89:2b:7b:c3, 2015-01-01 00:51:55.505, 0.024, -0.032, 1.001, 0, 0, 0, -1.747, -1.472, 126.189, 57.428, -41.748, -12.642, 22.47, 0.45258, 0.00455, -0.01944, 0.89145,
 15:36:50.647,c2:22:89:2b:7b:c3, 2015-01-01 00:51:55.505, 0.024, -0.03, 1.002, 0, 0, 0, -1.747, -1.472, 126.189, 57.428, -41.748, -12.642, 22.47, 0.45258, 0.00455, -0.01944, 0.89145,
 15:36:50.676,c2:22:89:2b:7b:c3, 2015-01-01 00:51:55.505, 0.027, -0.029, 1.003, 0, 0, 0, -1.747, -1.472, 126.189, 57.428, -41.748, -12.642, 22.47, 0.45258, 0.00455, -0.01944, 0.89145,
 15:36:50.676,c2:22:89:2b:7b:c3, 2015-01-01 00:51:55.505, 0.026, -0.032, 1.002, 0, 0, 0, -1.747, -1.472, 126.189, 57.428, -41.748, -12.642, 22.47, 0.45258, 0.00455, -0.01944, 0.89145,
 15:36:50.676,c2:22:89:2b:7b:c3, 2015-01-01 00:51:55.505, 0.025, -0.03, 1.004, 0, 0, 0, -1.747, -1.472, 126.189, 57.428, -41.748, -12.642, 22.47, 0.45258, 0.00455, -0.01944, 0.89145,
 15:36:50.676,c2:22:89:2b:7b:c3, 2015-01-01 00:51:55.505, 0.025, -0.033, 1.001, 0, 0, 0, -1.747, -1.472, 126.189, 57.428, -41.748, -12.642, 22.47, 0.45258, 0.00455, -0.01944, 0.89145,
 15:36:50.736,c2:22:89:2b:7b:c3, 2015-01-01 00:51:55.505, 0.025, -0.03, 1.003, 0, 0, 0, -1.747, -1.472, 126.189, 57.526, -41.846, -12.740, 22.47, 0.45258, 0.00455, -0.01944, 0.89145,
 15:36:50.736,c2:22:89:2b:7b:c3, 2015-01-01 00:51:55.505, 0.024, -0.031, 1.003, 0, 0, 0, -1.747, -1.472, 126.189, 57.526, -41.846, -12.740, 22.47, 0.45258, 0.00455, -0.01944, 0.89145,
 15:36:50.736,c2:22:89:2b:7b:c3, 2015-01-01 00:51:55.505, 0.028, -0.031, 1, 0, 0, 0, -1.747, -1.472, 126.189, 57.526, -41.846, -12.740, 22.47, 0.45258, 0.00455, -0.01944, 0.89145,
 15:36:50.736,c2:22:89:2b:7b:c3, 2015-01-01 00:51:55.505, 0.027, -0.03, 1.002, 0, 0, 0, -1.747, -1.472, 126.189, 57.526, -41.846, -12.740, 22.47, 0.45258, 0.00455, -0.01944, 0.89145,
 15:36:50.767,c2:22:89:2b:7b:c3, 2015-01-01 00:51:55.505, 0.025, -0.035, 1.003, 0, 0, 0, -1.747, -1.472, 126.189, 57.526, -41.846, -12.740, 22.47, 0.45258, 0.00455, -0.01944, 0.89145,
 15:36:50.767,c2:22:89:2b:7b:c3, 2015-01-01 00:51:55.505, 0.023, -0.029, 1.001, 0, 0, 0, -1.747, -1.472, 126.189, 57.526, -41.846, -12.740, 22.47, 0.45258, 0.00455, -0.01944, 0.89145,
 15:36:50.767,c2:22:89:2b:7b:c3, 2015-01-01 00:51:55.505, 0.027, -0.029, 1.001, 0, 0, 0, -1.747, -1.472, 126.189, 57.526, -41.846, -12.740, 22.47, 0.45258, 0.00455, -0.01944, 0.89145,
 15:36:50.767,c2:22:89:2b:7b:c3, 2015-01-01 00:51:55.505, 0.026, -0.03, 1.002, 0, 0, 0, -1.747, -1.472, 126.189, 57.526, -41.846, -12.740, 22.47, 0.45258, 0.00455, -0.01944, 0.89145,
 15:36:50.798,c2:22:89:2b:7b:c3, 2015-01-01 00:51:55.505, 0.025, -0.031, 1.004, 0, 0, 0, -1.747, -1.472, 126.189, 57.526, -41.846, -12.740, 22.47, 0.45258, 0.00455, -0.01944, 0.89145,
 15:36:50.798,c2:22:89:2b:7b:c3, 2015-01-01 00:51:55.505, 0.024, -0.03, 0.999, 0, 0, 0, -1.752, -1.472, 126.189, 57.526, -41.846, -12.740, 22.47, 0.45258, 0.00455, -0.01944, 0.89145,
 15:36:50.798,c2:22:89:2b:7b:c3, 2015-01-01 00:51:55.505, 0.024, -0.03, 1, 0, 0, 0, -1.752, -1.472, 126.189, 57.526, -41.846, -12.740, 22.47, 0.45258, 0.00455, -0.01944, 0.89145,
 15:36:50.798,c2:22:89:2b:7b:c3, 2015-01-01 00:51:55.505, 0.027, -0.029, 1.001, 0, 0, 0, -1.752, -1.472, 126.189, 57.526, -41.846, -12.740, 22.47, 0.45258, 0.00455, -0.01944, 0.89145,
 15:36:50.857,c2:22:89:2b:7b:c3, 2015-01-01 00:51:55.860, 0.026, -0.03, 1.002, 0, 0, 0, -1.752, -1.472, 126.189, 57.526, -41.846, -12.740, 22.47, 0.45258, 0.00455, -0.01944, 0.89145,
 15:36:50.857,c2:22:89:2b:7b:c3, 2015-01-01 00:51:55.860, 0.025, -0.03, 1.004, 0, 0, 0, -1.752, -1.472, 126.189, 57.526, -41.846, -12.740, 22.47, 0.45258, 0.00455, -0.01944, 0.89145,
 15:36:50.857,c2:22:89:2b:7b:c3, 2015-01-01 00:51:55.860, 0.025, -0.029, 1.003, 0, 0, 0, -1.752, -1.472, 126.189, 57.526, -41.846, -12.740, 22.47, 0.45258, 0.00455, -0.01944, 0.89145,
 15:36:50.857,c2:22:89:2b:7b:c3, 2015-01-01 00:51:55.860, 0.026, -0.027, 1.001, 0, 0, 0, -1.752, -1.472, 126.189, 57.526, -41.846, -12.740, 22.47, 0.45258, 0.00455, -0.01944, 0.89145,
 15:36:50.886,c2:22:89:2b:7b:c3, 2015-01-01 00:51:55.860, 0.025, -0.029, 1.001, 0, 0, 0, -1.752, -1.472, 126.189, 57.526, -41.846, -12.740, 22.47, 0.45258, 0.00455, -0.01944, 0.89145,
 15:36:50.886,c2:22:89:2b:7b:c3, 2015-01-01 00:51:55.860, 0.024, -0.029, 1.002, 0, 0, 0, -1.747, -1.472, 126.189, 57.526, -41.846, -12.740, 22.47, 0.45258, 0.00455, -0.01944, 0.89145,
 15:36:50.886,c2:22:89:2b:7b:c3, 2015-01-01 00:51:55.860, 0.027, -0.029, 1, 0, 0, 0, -1.747, -1.472, 126.189, 57.526, -41.846, -12.740, 22.47, 0.45258, 0.00455, -0.01944, 0.89145,
 15:36:50.886,c2:22:89:2b:7b:c3, 2015-01-01 00:51:55.860, 0.027, -0.031, 1.001, 0, 0, 0, -1.747, -1.472, 126.189, 57.526, -41.846, -12.740, 22.47, 0.45258, 0.00455, -0.01944, 0.89145,
 15:36:50.917,c2:22:89:2b:7b:c3, 2015-01-01 00:51:55.860, 0.025, -0.03, 1.003, 0, 0, 0, -1.747, -1.472, 126.189, 57.526, -41.846, -12.740, 22.47, 0.45258, 0.00455, -0.01944, 0.89145,
 15:36:50.917,c2:22:89:2b:7b:c3, 2015-01-01 00:51:55.860, 0.024, -0.029, 1.004, 0, 0, 0, -1.747, -1.472, 126.189, 57.526, -41.846, -12.740, 22.47, 0.45258, 0.00455, -0.01944, 0.89145,
 15:36:50.917,c2:22:89:2b:7b:c3, 2015-01-01 00:51:55.860, 0.027, -0.031, 1, 0, 0, 0, -1.747, -1.472, 126.189, 57.526, -41.846, -12.740, 22.47, 0.45258, 0.00455, -0.01944, 0.89145,
 15:36:50.917,c2:22:89:2b:7b:c3, 2015-01-01 00:51:55.860, 0.025, -0.028, 1.002, 0, 0, 0, -1.747, -1.472, 126.189, 57.526, -41.846, -12.740, 22.47, 0.45258, 0.00455, -0.01944, 0.89145,
 15:36:50.977,c2:22:89:2b:7b:c3, 2015-01-01 00:51:55.860, 0.026, -0.027, 1.004, 0, 0, 0, -1.747, -1.472, 126.189, 57.526, -41.846, -12.740, 22.47, 0.45258, 0.00455, -0.01944, 0.89145,
 15:36:50.977,c2:22:89:2b:7b:c3, 2015-01-01 00:51:55.860, 0.024, -0.029, 1, 0, 0, 0, -1.747, -1.472, 126.189, 57.526, -41.846, -12.740, 22.47, 0.45258, 0.00455, -0.01944, 0.89145,
 15:36:50.977,c2:22:89:2b:7b:c3, 2015-01-01 00:51:55.860, 0.025, -0.03, 1, 0, 0, 0, -1.747, -1.472, 126.189, 57.526, -41.846, -12.740, 22.47, 0.45258, 0.00455, -0.01944, 0.89145,
 15:36:50.977,c2:22:89:2b:7b:c3, 2015-01-01 00:51:55.860, 0.024, -0.032, 1.001, 0, 0, 0, -1.747, -1.472, 126.189, 57.526, -41.846, -12.740, 22.47, 0.45258, 0.00455, -0.01944, 0.89145,
 15:36:51.007,c2:22:89:2b:7b:c3, 2015-01-01 00:51:55.860, 0.025, -0.031, 1, 0, 0, 0, -1.747, -1.472, 126.189, 57.526, -41.846, -12.740, 22.47, 0.45258, 0.00455, -0.01944, 0.89145,
 15:36:51.007,c2:22:89:2b:7b:c3, 2015-01-01 00:51:55.860, 0.026, -0.03, 1.001, 0, 0, 0, -1.747, -1.472, 126.189, 57.526, -41.846, -12.740, 22.47, 0.45258, 0.00455, -0.01944, 0.89145,
 15:36:51.007,c2:22:89:2b:7b:c3, 2015-01-01 00:51:55.860, 0.025, -0.031, 1.002, 0, 0, 0, -1.747, -1.472, 126.189, 57.526, -41.846, -12.740, 22.47, 0.45258, 0.00455, -0.01944, 0.89145,
 15:36:51.007,c2:22:89:2b:7b:c3, 2015-01-01 00:51:55.860, 0.027, -0.029, 1.003, 0, 0, 0, -1.747, -1.472, 126.189, 57.526, -41.846, -12.740, 22.47, 0.45258, 0.00455, -0.01944, 0.89145,
 15:36:51.036,c2:22:89:2b:7b:c3, 2015-01-01 00:51:55.860, 0.025, -0.031, 1.002, 0, 0, 0, -1.747, -1.472, 126.189, 57.428, -41.846, -12.740, 22.47, 0.45258, 0.00455, -0.01944, 0.89145,
 15:36:51.036,c2:22:89:2b:7b:c3, 2015-01-01 00:51:55.860, 0.024, -0.028, 1, 0, 0, 0, -1.747, -1.472, 126.189, 57.428, -41.846, -12.740, 22.47, 0.45258, 0.00455, -0.01944, 0.89145,
 15:36:51.036,c2:22:89:2b:7b:c3, 2015-01-01 00:51:55.860, 0.028, -0.032, 1.003, 0, 0, 0, -1.747, -1.472, 126.189, 57.428, -41.846, -12.740, 22.47, 0.45258, 0.00455, -0.01944, 0.89145,
 15:36:51.036,c2:22:89:2b:7b:c3, 2015-01-01 00:51:55.860, 0.026, -0.033, 1.004, 0, 0, 0, -1.747, -1.472, 126.189, 57.428, -41.846, -12.740, 22.47, 0.45258, 0.00455, -0.01944, 0.89145,
 15:36:51.096,c2:22:89:2b:7b:c3, 2015-01-01 00:51:55.860, 0.024, -0.03, 1.003, 0, 0, 0, -1.747, -1.472, 126.189, 57.428, -41.846, -12.740, 22.47, 0.45258, 0.00455, -0.01944, 0.89145,
 15:36:51.096,c2:22:89:2b:7b:c3, 2015-01-01 00:51:55.860, 0.029, -0.031, 1.002, 0, 0, 0, -1.747, -1.472, 126.189, 57.428, -41.846, -12.740, 22.47, 0.45258, 0.00455, -0.01944, 0.89145,
 15:36:51.096,c2:22:89:2b:7b:c3, 2015-01-01 00:51:55.860, 0.026, -0.033, 1, 0, 0, 0, -1.747, -1.472, 126.189, 57.428, -41.846, -12.740, 22.47, 0.45258, 0.00455, -0.01944, 0.89145,
 15:36:51.096,c2:22:89:2b:7b:c3, 2015-01-01 00:51:55.860, 0.025, -0.03, 1.003, 0, 0, 0, -1.747, -1.472, 126.189, 57.428, -41.846, -12.740, 22.47, 0.45258, 0.00455, -0.01944, 0.89145,
 15:36:51.127,c2:22:89:2b:7b:c3, 2015-01-01 00:51:55.860, 0.026, -0.028, 1.001, 0, 0, 0, -1.747, -1.472, 126.189, 57.428, -41.846, -12.740, 22.47, 0.45258, 0.00455, -0.01944, 0.89145,
 15:36:51.127,c2:22:89:2b:7b:c3, 2015-01-01 00:51:55.860, 0.028, -0.03, 1.003, 0, 0, 0, -1.747, -1.472, 126.189, 57.428, -41.846, -12.740, 22.47, 0.45258, 0.00455, -0.01944, 0.89145,
 15:36:51.127,c2:22:89:2b:7b:c3, 2015-01-01 00:51:55.860, 0.025, -0.032, 1.004, 0, 0, 0, -1.747, -1.472, 126.189, 57.428, -41.846, -12.740, 22.47, 0.45258, 0.00455, -0.01944, 0.89145,
 15:36:51.127,c2:22:89:2b:7b:c3, 2015-01-01 00:51:55.860, 0.037, -0.035, 1.001, 0, 0, 0, -1.747, -1.472, 126.189, 57.428, -41.846, -12.740, 22.47, 0.45258, 0.00455, -0.01944, 0.89145,
 15:36:51.156,c2:22:89:2b:7b:c3, 2015-01-01 00:51:55.860, 0.094, -0.024, 1.013, -3.601, 0.244, 0, -1.769, -1.472, 126.189, 57.428, -41.846, -12.740, 22.47, 0.45258, 0.00455, -0.01944, 0.89145,
 15:36:51.156,c2:22:89:2b:7b:c3, 2015-01-01 00:51:55.860, -0.027, -0.229, 1.002, -12.451, 6.897, 0.427, -1.884, -1.428, 126.194, 57.428, -41.846, -12.740, 22.47, 0.45258, 0.00455, -0.01944, 0.89145,
 15:36:51.156,c2:22:89:2b:7b:c3, 2015-01-01 00:51:55.860, -0.038, -0.306, 1.011, -5.249, 4.211, 0.244, -1.972, -1.373, 126.194, 57.428, -41.846, -12.740, 22.47, 0.45258, 0.00455, -0.01944, 0.89145,
 15:36:51.156,c2:22:89:2b:7b:c3, 2015-01-01 00:51:55.860, -0.111, -0.201, 1.007, 7.019, -0.61, 0.488, -1.95, -1.368, 126.2, 57.428, -41.846, -12.740, 22.47, 0.45258, 0.00455, -0.01944, 0.89145,
 15:36:51.217,c2:22:89:2b:7b:c3, 2015-01-01 00:51:56.220, 0.185, -0.012, 1.08, 18.188, -10.376, -0.122, -1.807, -1.428, 126.2, 57.428, -41.846, -12.740, 22.47, 0.45258, 0.00455, -0.01944, 0.89145,
 15:36:51.217,c2:22:89:2b:7b:c3, 2015-01-01 00:51:56.220, 0.202, 0.268, 1.006, 20.203, -15.93, -0.916, -1.626, -1.571, 126.194, 57.428, -41.846, -12.740, 22.47, 0.45258, 0.00455, -0.01944, 0.89145,
 15:36:51.217,c2:22:89:2b:7b:c3, 2015-01-01 00:51:56.220, 0.047, 0.238, 0.995, -0.366, 4.578, 0, -1.571, -1.56, 126.194, 57.428, -41.846, -12.740, 22.47, 0.45258, 0.00455, -0.01944, 0.89145,
 15:36:51.217,c2:22:89:2b:7b:c3, 2015-01-01 00:51:56.220, 0.048, 0.122, 0.956, -13.672, 3.601, 0.183, -1.692, -1.511, 126.2, 57.428, -41.846, -12.740, 22.47, 0.45258, 0.00455, -0.01944, 0.89145,
 15:36:51.247,c2:22:89:2b:7b:c3, 2015-01-01 00:51:56.220, -0.099, -0.11, 0.999, -19.531, 11.536, 0.671, -1.873, -1.417, 126.2, 57.428, -41.846, -12.740, 22.47, 0.45258, 0.00455, -0.01944, 0.89145,
 15:36:51.247,c2:22:89:2b:7b:c3, 2015-01-01 00:51:56.220, -0.01, -0.286, 1.036, -6.47, 2.38, 0.122, -1.983, -1.362, 126.2, 57.428, -41.846, -12.740, 22.47, 0.45258, 0.00455, -0.01944, 0.89145,
 15:36:51.247,c2:22:89:2b:7b:c3, 2015-01-01 00:51:56.220, -0.085, -0.182, 1.016, 5.859, -2.258, 0.061, -1.956, -1.379, 126.2, 57.428, -41.846, -12.740, 22.47, 0.45258, 0.00455, -0.01944, 0.89145,
 15:36:51.247,c2:22:89:2b:7b:c3, 2015-01-01 00:51:56.220, 0.053, -0.058, 1.007, 16.968, -8.545, -0.549, -1.818, -1.439, 126.2, 57.428, -41.846, -12.740, 22.47, 0.45258, 0.00455, -0.01944, 0.89145,
 15:36:51.306,c2:22:89:2b:7b:c3, 2015-01-01 00:51:56.220, 0.208, 0.12, 0.951, 17.273, -12.085, -0.854, -1.648, -1.555, 126.2, 57.428, -41.846, -12.740, 22.47, 0.45258, 0.00455, -0.01944, 0.89145,
 15:36:51.306,c2:22:89:2b:7b:c3, 2015-01-01 00:51:56.220, 0.03, 0.136, 0.979, -0.854, 3.418, -0.122, -1.615, -1.555, 126.2, 57.428, -41.846, -12.740, 22.47, 0.45258, 0.00455, -0.01944, 0.89145,
 15:36:51.306,c2:22:89:2b:7b:c3, 2015-01-01 00:51:56.220, 0.052, 0.103, 0.952, -12.207, 3.479, 0.488, -1.714, -1.511, 126.2, 57.428, -41.846, -12.740, 22.47, 0.45258, 0.00455, -0.01944, 0.89145,
 15:36:51.306,c2:22:89:2b:7b:c3, 2015-01-01 00:51:56.220, -0.106, -0.083, 1.011, -17.273, 10.193, 0.916, -1.879, -1.423, 126.2, 57.428, -41.846, -12.740, 22.47, 0.45258, 0.00455, -0.01944, 0.89145,
 15:36:51.337,c2:22:89:2b:7b:c3, 2015-01-01 00:51:56.220, -0.017, -0.239, 1.044, -7.263, 1.892, 0.305, -1.978, -1.373, 126.2, 57.428, -41.846, -12.740, 22.47, 0.45258, 0.00455, -0.01944, 0.89145,
 15:36:51.337,c2:22:89:2b:7b:c3, 2015-01-01 00:51:56.220, -0.07, -0.175, 0.962, 3.479, -1.465, -0.122, -1.967, -1.384, 126.2, 57.428, -41.846, -12.740, 22.47, 0.45258, 0.00455, -0.01944, 0.89145,
 15:36:51.339,c2:22:89:2b:7b:c3, 2015-01-01 00:51:56.220, 0.007, -0.098, 0.979, 13.611, -5.981, -0.427, -1.862, -1.428, 126.2, 57.428, -41.846, -12.740, 22.47, 0.45258, 0.00455, -0.01944, 0.89145,
 15:36:51.339,c2:22:89:2b:7b:c3, 2015-01-01 00:51:56.220, 0.224, 0.066, 0.966, 17.212, -9.521, -0.427, -1.708, -1.522, 126.2, 57.428, -41.846, -12.740, 22.47, 0.45258, 0.00455, -0.01944, 0.89145,
 15:36:51.368,c2:22:89:2b:7b:c3, 2015-01-01 00:51:56.220, 0.056, 0.22, 1.014, 7.629, -1.648, -0.183, -1.593, -1.577, 126.2, 57.428, -41.846, -12.740, 22.47, 0.45258, 0.00455, -0.01944, 0.89145,
 15:36:51.368,c2:22:89:2b:7b:c3, 2015-01-01 00:51:56.220, 0.101, 0.107, 1.067, -10.315, 5.676, 0.305, -1.642, -1.533, 126.194, 57.428, -41.846, -12.740, 22.47, 0.45258, 0.00455, -0.01944, 0.89145,
 15:36:51.368,c2:22:89:2b:7b:c3, 2015-01-01 00:51:56.220, -0.079, -0.015, 0.952, -17.761, 8.789, 0.732, -1.796, -1.472, 126.2, 57.428, -41.846, -12.740, 22.47, 0.45258, 0.00455, -0.01944, 0.89145,
 15:36:51.368,c2:22:89:2b:7b:c3, 2015-01-01 00:51:56.220, -0.044, -0.2, 1.042, -12.329, 6.775, 0.427, -1.934, -1.39, 126.2, 57.428, -41.846, -12.740, 22.47, 0.45258, 0.00455, -0.01944, 0.89145,
 15:36:51.426,c2:22:89:2b:7b:c3, 2015-01-01 00:51:56.220, -0.021, -0.211, 0.969, 0.793, -0.122, -0.061, -1.961, -1.384, 126.2, 57.526, -41.846, -12.838, 22.47, 0.45258, 0.00455, -0.01944, 0.89145,
 15:36:51.426,c2:22:89:2b:7b:c3, 2015-01-01 00:51:56.220, -0.008, -0.146, 0.997, 8.301, -3.296, -0.183, -1.901, -1.406, 126.2, 57.526, -41.846, -12.838, 22.47, 0.45258, 0.00455, -0.01944, 0.89145,
 15:36:51.426,c2:22:89:2b:7b:c3, 2015-01-01 00:51:56.220, 0.059, -0.052, 0.998, 13.184, -7.446, -0.122, -1.785, -1.472, 126.2, 57.526, -41.846, -12.838, 22.47, 0.45258, 0.00455, -0.01944, 0.89145,
 15:36:51.426,c2:22:89:2b:7b:c3, 2015-01-01 00:51:56.220, 0.169, 0.121, 1.004, 14.648, -8.24, -0.122, -1.642, -1.549, 126.2, 57.526, -41.846, -12.838, 22.47, 0.45258, 0.00455, -0.01944, 0.89145,
 15:36:51.458,c2:22:89:2b:7b:c3, 2015-01-01 00:51:56.220, 0.014, 0.187, 1.017, 2.197, 1.099, -0.427, -1.588, -1.566, 126.194, 57.526, -41.846, -12.838, 22.47, 0.45255, 0.00565, -0.01868, 0.89148,
 15:36:51.458,c2:22:89:2b:7b:c3, 2015-01-01 00:51:56.220, 0.084, 0.096, 0.977, -12.268, 4.639, 0.61, -1.67, -1.522, 126.194, 57.526, -41.846, -12.838, 22.47, 0.45255, 0.00565, -0.01868, 0.89148,
 15:36:51.458,c2:22:89:2b:7b:c3, 2015-01-01 00:51:56.220, -0.089, -0.102, 0.939, -18.738, 8.606, 0.61, -1.84, -1.461, 126.194, 57.526, -41.846, -12.838, 22.47, 0.45255, 0.00565, -0.01868, 0.89148,
 15:36:51.458,c2:22:89:2b:7b:c3, 2015-01-01 00:51:56.220, -0.04, -0.229, 1.021, -7.141, 5.737, 0.244, -1.945, -1.39, 126.194, 57.526, -41.846, -12.838, 22.47, 0.45255, 0.00565, -0.01868, 0.89148,
 15:36:51.486,c2:22:89:2b:7b:c3, 2015-01-01 00:51:56.220, 0.015, -0.145, 1.006, 4.822, -1.16, -0.305, -1.923, -1.384, 126.194, 57.526, -41.846, -12.838, 22.47, 0.45255, 0.00565, -0.01868, 0.89148,
 15:36:51.486,c2:22:89:2b:7b:c3, 2015-01-01 00:51:56.220, 0.034, -0.106, 1.016, 5.31, -5.005, -0.244, -1.873, -1.423, 126.194, 57.526, -41.846, -12.838, 22.47, 0.45255, 0.00565, -0.01868, 0.89148,
 15:36:51.486,c2:22:89:2b:7b:c3, 2015-01-01 00:51:56.220, 0.015, -0.105, 1.002, 7.141, -5.188, 0, -1.818, -1.472, 126.194, 57.526, -41.846, -12.838, 22.47, 0.45255, 0.00565, -0.01868, 0.89148,
 15:36:51.486,c2:22:89:2b:7b:c3, 2015-01-01 00:51:56.220, 0.1, 0.055, 0.98, 12.39, -3.418, -0.061, -1.708, -1.511, 126.194, 57.526, -41.846, -12.838, 22.47, 0.45255, 0.00565, -0.01868, 0.89148,
 15:36:51.546,c2:22:89:2b:7b:c3, 2015-01-01 00:51:56.545, 0.092, 0.194, 1.041, 6.592, -3.723, -0.366, -1.62, -1.544, 126.194, 57.526, -41.846, -12.838, 22.47, 0.45255, 0.00565, -0.01868, 0.89148,
 15:36:51.546,c2:22:89:2b:7b:c3, 2015-01-01 00:51:56.545, 0.133, 0.137, 1.049, -8.545, 2.441, 0.061, -1.659, -1.538, 126.189, 57.526, -41.846, -12.838, 22.47, 0.45255, 0.00565, -0.01868, 0.89148,
 15:36:51.546,c2:22:89:2b:7b:c3, 2015-01-01 00:51:56.545, -0.056, -0.066, 0.98, -16.113, 6.042, 0.793, -1.796, -1.494, 126.194, 57.526, -41.846, -12.838, 22.47, 0.45255, 0.00565, -0.01868, 0.89148,
 15:36:51.546,c2:22:89:2b:7b:c3, 2015-01-01 00:51:56.545, -0.07, -0.17, 1.034, -9.399, 8.911, 0.244, -1.912, -1.406, 126.194, 57.526, -41.846, -12.838, 22.47, 0.45255, 0.00565, -0.01868, 0.89148,
 15:36:51.578,c2:22:89:2b:7b:c3, 2015-01-01 00:51:56.545, 0.004, -0.174, 1.004, 1.16, -0.854, -0.122, -1.923, -1.384, 126.194, 57.526, -41.846, -12.838, 22.47, 0.45255, 0.00565, -0.01868, 0.89148,
 15:36:51.578,c2:22:89:2b:7b:c3, 2015-01-01 00:51:56.545, 0.042, -0.117, 1.006, 3.601, -4.761, -0.122, -1.89, -1.428, 126.194, 57.526, -41.846, -12.838, 22.47, 0.45255, 0.00565, -0.01868, 0.89148,
 15:36:51.578,c2:22:89:2b:7b:c3, 2015-01-01 00:51:56.545, 0.02, -0.118, 1.011, 5.371, -3.357, 0, -1.851, -1.467, 126.194, 57.526, -41.846, -12.838, 22.47, 0.45255, 0.00565, -0.01868, 0.89148,
 15:36:51.578,c2:22:89:2b:7b:c3, 2015-01-01 00:51:56.545, -0.011, -0.005, 0.96, 10.376, -3.235, -0.122, -1.769, -1.494, 126.2, 57.526, -41.846, -12.838, 22.47, 0.45255, 0.00565, -0.01868, 0.89148,
 15:36:51.606,c2:22:89:2b:7b:c3, 2015-01-01 00:51:56.545, 0.131, 0.122, 1.001, 10.62, -5.798, -0.427, -1.659, -1.544, 126.194, 57.526, -41.846, -12.838, 22.47, 0.45255, 0.00565, -0.01868, 0.89148,
 15:36:51.606,c2:22:89:2b:7b:c3, 2015-01-01 00:51:56.545, 0.04, 0.179, 1, -1.343, 0.061, 0.061, -1.637, -1.56, 126.194, 57.526, -41.846, -12.838, 22.47, 0.45255, 0.00565, -0.01868, 0.89148,
 15:36:51.606,c2:22:89:2b:7b:c3, 2015-01-01 00:51:56.545, 0.08, 0.035, 0.985, -11.169, 3.357, 0.427, -1.719, -1.533, 126.194, 57.526, -41.846, -12.838, 22.47, 0.45255, 0.00565, -0.01868, 0.89148,
 15:36:51.606,c2:22:89:2b:7b:c3, 2015-01-01 00:51:56.545, -0.074, -0.112, 0.959, -14.526, 8.179, 0.488, -1.862, -1.467, 126.194, 57.526, -41.846, -12.838, 22.47, 0.45255, 0.00565, -0.01868, 0.89148,
 15:36:51.667,c2:22:89:2b:7b:c3, 2015-01-01 00:51:56.545, -0.029, -0.196, 1.026, -5.493, 5.249, 0.122, -1.945, -1.401, 126.194, 57.526, -41.846, -12.838, 22.47, 0.45255, 0.00565, -0.01868, 0.89148,
 15:36:51.667,c2:22:89:2b:7b:c3, 2015-01-01 00:51:56.545, -0.015, -0.112, 0.992, 3.235, -2.625, -0.183, -1.923, -1.417, 126.194, 57.526, -41.846, -12.838, 22.47, 0.45255, 0.00565, -0.01868, 0.89148,
 15:36:51.667,c2:22:89:2b:7b:c3, 2015-01-01 00:51:56.545, 0.042, -0.11, 1, 5.249, -4.15, 0, -1.884, -1.45, 126.194, 57.526, -41.846, -12.838, 22.47, 0.45255, 0.00565, -0.01868, 0.89148,
 15:36:51.667,c2:22:89:2b:7b:c3, 2015-01-01 00:51:56.545, 0.057, -0.086, 0.991, 9.644, -7.019, -0.122, -1.807, -1.511, 126.2, 57.526, -41.846, -12.838, 22.47, 0.45255, 0.00565, -0.01868, 0.89148,
 15:36:51.726,c2:22:89:2b:7b:c3, 2015-01-01 00:51:56.545, 0.077, 0.064, 1.005, 10.803, -3.845, -0.183, -1.703, -1.555, 126.2, 57.526, -41.846, -12.838, 22.47, 0.45255, 0.00565, -0.01868, 0.89148,
 15:36:51.726,c2:22:89:2b:7b:c3, 2015-01-01 00:51:56.545, 0.024, 0.18, 1.004, 2.991, 0.122, -0.244, -1.648, -1.571, 126.194, 57.526, -41.846, -12.838, 22.47, 0.45255, 0.00565, -0.01868, 0.89148,
 15:36:51.726,c2:22:89:2b:7b:c3, 2015-01-01 00:51:56.545, 0.077, 0.092, 0.981, -6.531, 1.282, 0.061, -1.686, -1.555, 126.194, 57.526, -41.846, -12.838, 22.47, 0.45255, 0.00565, -0.01868, 0.89148,
 15:36:51.726,c2:22:89:2b:7b:c3, 2015-01-01 00:51:56.545, 0.026, -0.022, 0.965, -11.353, 3.906, 0.366, -1.785, -1.527, 126.194, 57.526, -41.846, -12.838, 22.47, 0.45255, 0.00565, -0.01868, 0.89148,
 15:36:51.728,c2:22:89:2b:7b:c3, 2015-01-01 00:51:56.545, -0.017, -0.126, 1.041, -8.789, 5.798, 0.122, -1.873, -1.478, 126.194, 57.526, -41.846, -12.838, 22.47, 0.45255, 0.00565, -0.01868, 0.89148,
 15:36:51.728,c2:22:89:2b:7b:c3, 2015-01-01 00:51:56.545, -0.037, -0.157, 1.028, -3.418, 2.563, 0, -1.917, -1.439, 126.189, 57.526, -41.944, -13.034, 22.47, 0.45255, 0.00565, -0.01868, 0.89148,
 15:36:51.728,c2:22:89:2b:7b:c3, 2015-01-01 00:51:56.545, -0.044, -0.151, 0.981, 0.183, -0.183, 0.122, -1.928, -1.434, 126.194, 57.526, -41.944, -13.034, 22.47, 0.45255, 0.00565, -0.01868, 0.89148,
 15:36:51.728,c2:22:89:2b:7b:c3, 2015-01-01 00:51:56.545, 0.027, -0.125, 0.982, 8.362, -4.578, -0.183, -1.873, -1.467, 126.194, 57.526, -41.944, -13.034, 22.47, 0.45255, 0.00565, -0.01868, 0.89148,
 15:36:51.787,c2:22:89:2b:7b:c3, 2015-01-01 00:51:56.545, 0.17, 0.015, 1.013, 13.245, -8.057, -0.427, -1.752, -1.538, 126.194, 57.526, -41.944, -13.034, 22.47, 0.45255, 0.00565, -0.01868, 0.89148,
 15:36:51.787,c2:22:89:2b:7b:c3, 2015-01-01 00:51:56.545, 0.042, 0.139, 1.059, 5.371, -3.723, -0.366, -1.67, -1.588, 126.189, 57.526, -41.944, -13.034, 22.47, 0.45255, 0.00565, -0.01868, 0.89148,
 15:36:51.787,c2:22:89:2b:7b:c3, 2015-01-01 00:51:56.545, 0.087, 0.117, 1.028, -4.761, 3.357, 0.183, -1.692, -1.571, 126.189, 57.526, -41.944, -13.034, 22.47, 0.45255, 0.00565, -0.01868, 0.89148,
 15:36:51.787,c2:22:89:2b:7b:c3, 2015-01-01 00:51:56.545, -0.033, 0.003, 0.936, -10.803, 4.944, 0.671, -1.78, -1.533, 126.194, 57.526, -41.944, -13.034, 22.47, 0.45255, 0.00565, -0.01868, 0.89148,
 15:36:51.818,c2:22:89:2b:7b:c3, 2015-01-01 00:51:56.545, -0.01, -0.095, 1.045, -7.385, 4.028, 0, -1.862, -1.483, 126.194, 57.526, -41.944, -13.034, 22.47, 0.45255, 0.00406, -0.02045, 0.89145,
 15:36:51.818,c2:22:89:2b:7b:c3, 2015-01-01 00:51:56.545, 0.013, -0.1, 1.027, -1.343, 1.648, 0, -1.884, -1.467, 126.189, 57.526, -41.944, -13.034, 22.47, 0.45255, 0.00406, -0.02045, 0.89145,
 15:36:51.818,c2:22:89:2b:7b:c3, 2015-01-01 00:51:56.545, 0.014, -0.101, 0.991, -0.305, -0.244, 0, -1.884, -1.461, 126.189, 57.526, -41.944, -13.034, 22.47, 0.45255, 0.00406, -0.02045, 0.89145,
 15:36:51.818,c2:22:89:2b:7b:c3, 2015-01-01 00:51:56.545, 0.031, -0.125, 0.999, 1.343, -2.136, 0, -1.879, -1.478, 126.189, 57.526, -41.944, -13.034, 22.47, 0.45255, 0.00406, -0.02045, 0.89145,
 15:36:51.907,c2:22:89:2b:7b:c3, 2015-01-01 00:51:56.545, -0.011, -0.07, 0.998, 5.798, -1.892, 0, -1.835, -1.5, 126.194, 57.526, -41.944, -13.034, 22.47, 0.45255, 0.00406, -0.02045, 0.89145,
 15:36:51.907,c2:22:89:2b:7b:c3, 2015-01-01 00:51:56.545, 0.015, 0.034, 1.014, 9.216, -2.991, -0.183, -1.758, -1.522, 126.194, 57.526, -41.944, -13.034, 22.47, 0.45255, 0.00406, -0.02045, 0.89145,
 15:36:51.907,c2:22:89:2b:7b:c3, 2015-01-01 00:51:56.545, 0.112, 0.106, 0.99, 6.287, -4.883, -0.122, -1.681, -1.566, 126.194, 57.526, -41.944, -13.034, 22.47, 0.45255, 0.00406, -0.02045, 0.89145,
 15:36:51.907,c2:22:89:2b:7b:c3, 2015-01-01 00:51:56.545, 0.056, 0.105, 0.977, -1.343, -0.61, 0.122, -1.675, -1.588, 126.194, 57.526, -41.944, -13.034, 22.47, 0.45255, 0.00406, -0.02045, 0.89145,
 15:36:51.907,c2:22:89:2b:7b:c3, 2015-01-01 00:51:56.545, 0.07, 0.031, 1.001, -7.141, 3.235, 0.183, -1.73, -1.56, 126.194, 57.526, -41.944, -13.034, 22.47, 0.45255, 0.00406, -0.02045, 0.89145,
 15:36:51.907,c2:22:89:2b:7b:c3, 2015-01-01 00:51:56.545, -0.021, -0.064, 1.019, -12.512, 7.446, 0.305, -1.835, -1.505, 126.194, 57.526, -41.944, -13.034, 22.47, 0.45255, 0.00406, -0.02045, 0.89145,
 15:36:51.907,c2:22:89:2b:7b:c3, 2015-01-01 00:51:56.545, -0.071, -0.207, 1.004, -10.803, 6.47, 0.488, -1.956, -1.434, 126.194, 57.526, -41.944, -13.034, 22.47, 0.45255, 0.00406, -0.02045, 0.89145,
 15:36:51.907,c2:22:89:2b:7b:c3, 2015-01-01 00:51:56.545, -0.068, -0.209, 0.968, 0.793, 0, 0, -1.978, -1.417, 126.194, 57.526, -41.944, -13.034, 22.47, 0.45255, 0.00406, -0.02045, 0.89145,
 15:36:51.937,c2:22:89:2b:7b:c3, 2015-01-01 00:51:56.905, -0.013, -0.116, 1.004, 12.878, -5.371, -0.366, -1.884, -1.456, 126.194, 57.526, -41.944, -13.034, 22.47, 0.45255, 0.00406, -0.02045, 0.89145,
 15:36:51.937,c2:22:89:2b:7b:c3, 2015-01-01 00:51:56.905, 0.269, 0.044, 1.026, 18.921, -12.024, -0.61, -1.714, -1.56, 126.194, 57.526, -41.944, -13.034, 22.47, 0.45255, 0.00406, -0.02045, 0.89145,
 15:36:51.937,c2:22:89:2b:7b:c3, 2015-01-01 00:51:56.905, 0.019, 0.263, 0.972, 10.559, -2.38, -0.183, -1.566, -1.637, 126.194, 57.526, -41.944, -13.034, 22.47, 0.45255, 0.00406, -0.02045, 0.89145,
 15:36:51.937,c2:22:89:2b:7b:c3, 2015-01-01 00:51:56.905, 0.136, 0.138, 1.048, -10.498, 5.737, 0.427, -1.604, -1.588, 126.189, 57.526, -41.944, -13.034, 22.47, 0.45255, 0.00406, -0.02045, 0.89145,
 15:36:51.966,c2:22:89:2b:7b:c3, 2015-01-01 00:51:56.905, -0.049, 0, 0.96, -18.311, 7.019, 0.671, -1.758, -1.538, 126.194, 57.526, -41.944, -13.034, 22.47, 0.45255, 0.00406, -0.02045, 0.89145,
 15:36:51.966,c2:22:89:2b:7b:c3, 2015-01-01 00:51:56.905, -0.06, -0.231, 1.076, -14.343, 9.033, 0.488, -1.917, -1.45, 126.194, 57.526, -41.944, -13.034, 22.47, 0.45255, 0.00406, -0.02045, 0.89145,
 15:36:51.966,c2:22:89:2b:7b:c3, 2015-01-01 00:51:56.905, -0.069, -0.229, 0.971, 0.488, 0.916, 0, -1.945, -1.423, 126.194, 57.526, -41.944, -13.034, 22.47, 0.45255, 0.00406, -0.02045, 0.89145,
 15:36:51.966,c2:22:89:2b:7b:c3, 2015-01-01 00:51:56.905, -0.018, -0.127, 0.97, 9.888, -4.15, -0.183, -1.873, -1.45, 126.194, 57.526, -41.944, -13.034, 22.47, 0.45255, 0.00406, -0.02045, 0.89145,
 15:36:52.026,c2:22:89:2b:7b:c3, 2015-01-01 00:51:56.905, 0.241, -0.037, 1.023, 14.771, -10.742, -0.244, -1.741, -1.538, 126.194, 57.526, -41.944, -13.034, 22.47, 0.45255, 0.00406, -0.02045, 0.89145,
 15:36:52.026,c2:22:89:2b:7b:c3, 2015-01-01 00:51:56.905, 0.056, 0.218, 1.072, 10.315, -6.592, -0.305, -1.609, -1.62, 126.194, 57.526, -41.944, -13.034, 22.47, 0.45255, 0.00406, -0.02045, 0.89145,
 15:36:52.026,c2:22:89:2b:7b:c3, 2015-01-01 00:51:56.905, 0.085, 0.21, 1.053, -2.747, 5.371, -0.061, -1.599, -1.593, 126.189, 57.526, -41.944, -13.034, 22.47, 0.45255, 0.00406, -0.02045, 0.89145,
 15:36:52.026,c2:22:89:2b:7b:c3, 2015-01-01 00:51:56.905, 0.02, 0.063, 0.938, -14.893, 3.113, 0.427, -1.708, -1.555, 126.194, 57.526, -41.944, -13.034, 22.47, 0.45255, 0.00406, -0.02045, 0.89145,
 15:36:52.057,c2:22:89:2b:7b:c3, 2015-01-01 00:51:56.905, -0.038, -0.147, 1.028, -15.381, 7.324, 0.305, -1.862, -1.494, 126.194, 57.526, -41.944, -13.034, 22.47, 0.45255, 0.00406, -0.02045, 0.89145,
 15:36:52.057,c2:22:89:2b:7b:c3, 2015-01-01 00:51:56.905, -0.055, -0.21, 1.001, -4.15, 4.578, 0.305, -1.928, -1.445, 126.194, 57.526, -41.944, -13.034, 22.47, 0.45255, 0.00406, -0.02045, 0.89145,
 15:36:52.057,c2:22:89:2b:7b:c3, 2015-01-01 00:51:56.905, -0.035, -0.117, 0.973, 6.042, -1.709, -0.183, -1.884, -1.439, 126.194, 57.526, -41.944, -13.034, 22.47, 0.45255, 0.00406, -0.02045, 0.89145,
 15:36:52.057,c2:22:89:2b:7b:c3, 2015-01-01 00:51:56.905, 0.074, -0.039, 1.007, 9.827, -7.69, -0.061, -1.796, -1.5, 126.194, 57.526, -41.944, -13.034, 22.47, 0.45255, 0.00406, -0.02045, 0.89145,
 15:36:52.087,c2:22:89:2b:7b:c3, 2015-01-01 00:51:56.905, 0.169, 0.008, 1.005, 10.498, -7.385, -0.183, -1.697, -1.577, 126.194, 57.526, -41.944, -13.034, 22.47, 0.45255, 0.00406, -0.02045, 0.89145,
 15:36:52.087,c2:22:89:2b:7b:c3, 2015-01-01 00:51:56.905, 0.009, 0.121, 0.992, 5.005, 0.732, -0.183, -1.62, -1.604, 126.194, 57.526, -41.944, -13.034, 22.47, 0.45255, 0.00406, -0.02045, 0.89145,
 15:36:52.087,c2:22:89:2b:7b:c3, 2015-01-01 00:51:56.905, 0.048, 0.085, 1.014, -5.127, 3.296, 0.183, -1.642, -1.571, 126.194, 57.526, -41.944, -13.034, 22.47, 0.45255, 0.00406, -0.02045, 0.89145,
 15:36:52.087,c2:22:89:2b:7b:c3, 2015-01-01 00:51:56.905, 0.005, -0.013, 0.982, -10.254, 4.333, 0.366, -1.736, -1.533, 126.194, 57.526, -41.944, -13.034, 22.47, 0.45255, 0.00406, -0.02045, 0.89145,
 15:36:52.146,c2:22:89:2b:7b:c3, 2015-01-01 00:51:56.905, -0.029, -0.123, 1.009, -7.324, 3.662, 0.366, -1.813, -1.494, 126.194, 57.526, -41.944, -13.034, 22.47, 0.45255, 0.00406, -0.02045, 0.89145,
 15:36:52.146,c2:22:89:2b:7b:c3, 2015-01-01 00:51:56.905, -0.018, -0.13, 1.009, -0.183, 1.343, 0, -1.835, -1.478, 126.194, 57.526, -41.944, -13.034, 22.47, 0.45255, 0.00406, -0.02045, 0.89145,
 15:36:52.146,c2:22:89:2b:7b:c3, 2015-01-01 00:51:56.905, 0.007, -0.061, 0.993, 5.249, -2.869, 0, -1.791, -1.494, 126.194, 57.526, -41.944, -13.034, 22.47, 0.45255, 0.00406, -0.02045, 0.89145,
 15:36:52.146,c2:22:89:2b:7b:c3, 2015-01-01 00:51:56.905, 0.083, -0.036, 1.001, 6.592, -5.005, -0.122, -1.725, -1.538, 126.194, 57.526, -41.944, -13.034, 22.47, 0.45255, 0.00406, -0.02045, 0.89145,
 15:36:52.177,c2:22:89:2b:7b:c3, 2015-01-01 00:51:56.905, 0.068, 0.013, 1.002, 4.761, -3.357, -0.122, -1.67, -1.577, 126.194, 57.624, -41.944, -13.426, 22.47, 0.45255, 0.00406, -0.02045, 0.89145,
 15:36:52.177,c2:22:89:2b:7b:c3, 2015-01-01 00:51:56.905, 0.041, 0.036, 1.011, 1.526, 0.122, -0.061, -1.648, -1.582, 126.194, 57.624, -41.944, -13.426, 22.47, 0.45255, 0.00406, -0.02045, 0.89145,
 15:36:52.177,c2:22:89:2b:7b:c3, 2015-01-01 00:51:56.905, 0.012, 0.032, 0.997, -2.93, 2.441, 0.305, -1.664, -1.566, 126.194, 57.624, -41.944, -13.426, 22.47, 0.45255, 0.00406, -0.02045, 0.89145,
 15:36:52.177,c2:22:89:2b:7b:c3, 2015-01-01 00:51:56.905, 0.024, -0.003, 1, -4.15, 2.319, 0.061, -1.697, -1.538, 126.189, 57.624, -41.944, -13.426, 22.47, 0.45255, 0.00406, -0.02045, 0.89145,
 15:36:52.207,c2:22:89:2b:7b:c3, 2015-01-01 00:51:56.905, 0.021, -0.045, 1.007, -3.479, 0.916, 0, -1.73, -1.527, 126.189, 57.624, -41.944, -13.426, 22.47, 0.45255, 0.00406, -0.02045, 0.89145,
 15:36:52.207,c2:22:89:2b:7b:c3, 2015-01-01 00:51:56.905, 0.012, -0.068, 1.008, -1.465, 0.793, 0, -1.747, -1.522, 126.189, 57.624, -41.944, -13.426, 22.47, 0.45255, 0.00406, -0.02045, 0.89145,
 15:36:52.207,c2:22:89:2b:7b:c3, 2015-01-01 00:51:56.905, 0.021, -0.062, 1.001, 0.671, 0, 0, -1.747, -1.516, 126.189, 57.624, -41.944, -13.426, 22.47, 0.45255, 0.00406, -0.02045, 0.89145,
 15:36:52.207,c2:22:89:2b:7b:c3, 2015-01-01 00:51:56.905, 0.031, -0.049, 1, 1.038, -0.793, 0, -1.736, -1.527, 126.189, 57.624, -41.944, -13.426, 22.47, 0.45255, 0.00406, -0.02045, 0.89145,
 15:36:52.298,c2:22:89:2b:7b:c3, 2015-01-01 00:51:56.905, 0.041, -0.044, 1.007, 1.343, -1.099, 0, -1.719, -1.533, 126.189, 57.624, -41.944, -13.426, 22.47, 0.45255, 0.00491, -0.01959, 0.89145,
 15:36:52.298,c2:22:89:2b:7b:c3, 2015-01-01 00:51:56.905, 0.015, -0.034, 1.001, 1.099, 0, 0.122, -1.708, -1.538, 126.189, 57.624, -41.944, -13.426, 22.47, 0.45255, 0.00491, -0.01959, 0.89145,
 15:36:52.298,c2:22:89:2b:7b:c3, 2015-01-01 00:51:56.905, 0.02, -0.011, 0.997, 1.16, -0.183, 0, -1.697, -1.538, 126.189, 57.624, -41.944, -13.426, 22.47, 0.45255, 0.00491, -0.01959, 0.89145,
 15:36:52.298,c2:22:89:2b:7b:c3, 2015-01-01 00:51:56.905, 0.038, -0.002, 0.998, 1.221, -0.671, 0, -1.686, -1.544, 126.189, 57.624, -41.944, -13.426, 22.47, 0.45255, 0.00491, -0.01959, 0.89145,
 15:36:52.298,c2:22:89:2b:7b:c3, 2015-01-01 00:51:56.905, 0.044, 0.001, 1.007, 0.854, -0.854, 0.183, -1.675, -1.555, 126.194, 57.624, -41.944, -13.426, 22.47, 0.45255, 0.00491, -0.01959, 0.89145,
 15:36:52.298,c2:22:89:2b:7b:c3, 2015-01-01 00:51:56.905, 0.041, 0.001, 1.009, 0.061, -0.305, 0, -1.67, -1.56, 126.194, 57.624, -41.944, -13.426, 22.47, 0.45255, 0.00491, -0.01959, 0.89145,
 15:36:52.298,c2:22:89:2b:7b:c3, 2015-01-01 00:51:56.905, 0.025, -0.006, 1.001, -1.831, 1.404, 0, -1.681, -1.549, 126.189, 57.624, -41.944, -13.426, 22.47, 0.45255, 0.00491, -0.01959, 0.89145,
 15:36:52.298,c2:22:89:2b:7b:c3, 2015-01-01 00:51:56.905, 0.021, -0.036, 1.006, -2.747, 1.221, 0, -1.703, -1.538, 126.189, 57.624, -41.944, -13.426, 22.47, 0.45255, 0.00491, -0.01959, 0.89145,
 15:36:52.327,c2:22:89:2b:7b:c3, 2015-01-01 00:51:57.320, 0.007, -0.059, 1.005, -1.77, 1.16, 0.061, -1.725, -1.527, 126.189, 57.624, -41.944, -13.426, 22.47, 0.45255, 0.00491, -0.01959, 0.89145,
 15:36:52.327,c2:22:89:2b:7b:c3, 2015-01-01 00:51:57.320, 0.014, -0.054, 1.006, 0.183, 0.061, 0, -1.725, -1.522, 126.189, 57.624, -41.944, -13.426, 22.47, 0.45255, 0.00491, -0.01959, 0.89145,
 15:36:52.327,c2:22:89:2b:7b:c3, 2015-01-01 00:51:57.320, 0.025, -0.045, 0.998, 1.221, -0.854, 0, -1.714, -1.527, 126.189, 57.624, -41.944, -13.426, 22.47, 0.45255, 0.00491, -0.01959, 0.89145,
 15:36:52.327,c2:22:89:2b:7b:c3, 2015-01-01 00:51:57.320, 0.041, -0.032, 1.003, 2.014, -1.77, -0.305, -1.697, -1.544, 126.189, 57.624, -41.944, -13.426, 22.47, 0.45255, 0.00491, -0.01959, 0.89145,
 15:36:52.417,c2:22:89:2b:7b:c3, 2015-01-01 00:51:57.320, 0.029, -0.013, 1, 1.587, -0.61, -0.061, -1.681, -1.555, 126.189, 57.624, -41.944, -13.426, 22.47, 0.45255, 0.00491, -0.01959, 0.89145,
 15:36:52.417,c2:22:89:2b:7b:c3, 2015-01-01 00:51:57.320, 0.035, -0.004, 0.999, 0.61, 0, -0.061, -1.67, -1.555, 126.189, 57.624, -41.944, -13.426, 22.47, 0.45255, 0.00491, -0.01959, 0.89145,
 15:36:52.417,c2:22:89:2b:7b:c3, 2015-01-01 00:51:57.320, 0.03, -0.003, 0.995, -0.488, 0.122, 0, -1.67, -1.555, 126.189, 57.624, -41.944, -13.426, 22.47, 0.45255, 0.00491, -0.01959, 0.89145,
 15:36:52.417,c2:22:89:2b:7b:c3, 2015-01-01 00:51:57.320, 0.03, -0.02, 1.003, -1.221, 0.488, 0, -1.681, -1.549, 126.189, 57.624, -41.944, -13.426, 22.47, 0.45255, 0.00491, -0.01959, 0.89145,
 15:36:52.417,c2:22:89:2b:7b:c3, 2015-01-01 00:51:57.320, 0.027, -0.027, 1.006, -1.16, 0.549, 0, -1.692, -1.544, 126.183, 57.624, -41.944, -13.426, 22.47, 0.45255, 0.00491, -0.01959, 0.89145,
 15:36:52.417,c2:22:89:2b:7b:c3, 2015-01-01 00:51:57.320, 0.018, -0.044, 1.006, -1.587, 0.793, 0, -1.703, -1.538, 126.183, 57.624, -41.944, -13.426, 22.47, 0.45255, 0.00491, -0.01959, 0.89145,
 15:36:52.417,c2:22:89:2b:7b:c3, 2015-01-01 00:51:57.320, 0.014, -0.058, 1.01, -0.732, 0.305, 0.183, -1.714, -1.533, 126.183, 57.624, -41.944, -13.426, 22.47, 0.45255, 0.00491, -0.01959, 0.89145,
 15:36:52.417,c2:22:89:2b:7b:c3, 2015-01-01 00:51:57.320, 0.017, -0.045, 1.003, 1.282, -0.244, -0.122, -1.703, -1.533, 126.183, 57.624, -41.944, -13.426, 22.47, 0.45255, 0.00491, -0.01959, 0.89145,
 15:36:52.447,c2:22:89:2b:7b:c3, 2015-01-01 00:51:57.320, 0.04, -0.021, 1.001, 2.136, -1.343, -0.122, -1.686, -1.544, 126.183, 57.624, -41.944, -13.426, 22.47, 0.45255, 0.00491, -0.01959, 0.89145,
 15:36:52.447,c2:22:89:2b:7b:c3, 2015-01-01 00:51:57.320, 0.049, -0.011, 0.998, 1.038, -1.038, 0, -1.67, -1.555, 126.183, 57.624, -41.944, -13.426, 22.47, 0.45255, 0.00491, -0.01959, 0.89145,
 15:36:52.447,c2:22:89:2b:7b:c3, 2015-01-01 00:51:57.320, 0.034, -0.018, 0.998, -0.671, 0.183, 0, -1.67, -1.56, 126.183, 57.624, -41.944, -13.426, 22.47, 0.45255, 0.00491, -0.01959, 0.89145,
 15:36:52.447,c2:22:89:2b:7b:c3, 2015-01-01 00:51:57.320, 0.007, -0.03, 0.998, -1.892, 1.709, 0, -1.686, -1.544, 126.183, 57.624, -41.944, -13.426, 22.47, 0.45255, 0.00491, -0.01959, 0.89145,
 15:36:52.507,c2:22:89:2b:7b:c3, 2015-01-01 00:51:57.320, 0.012, -0.038, 0.998, -1.16, 0.977, 0, -1.703, -1.533, 126.183, 57.624, -41.944, -13.426, 22.47, 0.45255, 0.00491, -0.01959, 0.89145,
 15:36:52.507,c2:22:89:2b:7b:c3, 2015-01-01 00:51:57.320, 0.028, -0.042, 1.001, 0, -0.305, 0.061, -1.703, -1.533, 126.183, 57.624, -41.944, -13.426, 22.47, 0.45255, 0.00491, -0.01959, 0.89145,
 15:36:52.507,c2:22:89:2b:7b:c3, 2015-01-01 00:51:57.320, 0.04, -0.041, 1.01, 1.038, -0.977, 0, -1.697, -1.544, 126.183, 57.624, -41.944, -13.426, 22.47, 0.45255, 0.00491, -0.01959, 0.89145,
 15:36:52.507,c2:22:89:2b:7b:c3, 2015-01-01 00:51:57.320, 0.031, -0.025, 1.012, 0.793, -0.122, 0, -1.686, -1.544, 126.189, 57.624, -41.944, -13.426, 22.47, 0.45255, 0.00491, -0.01959, 0.89145,
 15:36:52.536,c2:22:89:2b:7b:c3, 2015-01-01 00:51:57.320, -0.005, -0.028, 1.005, 0.366, 0, 0, -1.681, -1.544, 126.189, 57.624, -42.042, -13.328, 22.47, 0.45255, 0.00491, -0.01959, 0.89145,
 15:36:52.536,c2:22:89:2b:7b:c3, 2015-01-01 00:51:57.320, 0.005, -0.001, 0.999, 3.479, -0.366, -0.122, -1.659, -1.549, 126.189, 57.624, -42.042, -13.328, 22.47, 0.45255, 0.00491, -0.01959, 0.89145,
 15:36:52.537,c2:22:89:2b:7b:c3, 2015-01-01 00:51:57.320, 0.072, 0.061, 0.996, 4.15, -2.93, -0.183, -1.609, -1.571, 126.183, 57.624, -42.042, -13.328, 22.47, 0.45255, 0.00491, -0.01959, 0.89145,
 15:36:52.537,c2:22:89:2b:7b:c3, 2015-01-01 00:51:57.320, 0.1, 0.052, 1.011, 0.122, -2.075, 0.061, -1.593, -1.593, 126.183, 57.624, -42.042, -13.328, 22.47, 0.45255, 0.00491, -0.01959, 0.89145,
 15:36:52.568,c2:22:89:2b:7b:c3, 2015-01-01 00:51:57.320, 0.063, 0, 1.006, -5.249, 1.892, 0, -1.626, -1.582, 126.183, 57.624, -42.042, -13.328, 22.47, 0.45255, 0.00491, -0.01959, 0.89145,
 15:36:52.568,c2:22:89:2b:7b:c3, 2015-01-01 00:51:57.320, -0.044, -0.075, 0.983, -9.521, 7.141, 0.183, -1.708, -1.527, 126.183, 57.624, -42.042, -13.328, 22.47, 0.45255, 0.00491, -0.01959, 0.89145,
 15:36:52.568,c2:22:89:2b:7b:c3, 2015-01-01 00:51:57.320, -0.04, -0.153, 0.996, -7.568, 5.127, 0.305, -1.791, -1.467, 126.183, 57.624, -42.042, -13.328, 22.47, 0.45255, 0.00491, -0.01959, 0.89145,
 15:36:52.568,c2:22:89:2b:7b:c3, 2015-01-01 00:51:57.320, -0.022, -0.163, 0.986, 1.953, -0.61, 0, -1.802, -1.461, 126.189, 57.624, -42.042, -13.328, 22.47, 0.45255, 0.00491, -0.01959, 0.89145,
 15:36:52.628,c2:22:89:2b:7b:c3, 2015-01-01 00:51:57.320, 0.018, -0.086, 1.008, 9.216, -5.31, -0.061, -1.73, -1.505, 126.189, 57.624, -42.042, -13.328, 22.47, 0.45258, 0.00436, -0.01974, 0.89145,
 15:36:52.628,c2:22:89:2b:7b:c3, 2015-01-01 00:51:57.320, 0.194, 0.018, 1.032, 13.123, -8.057, -0.183, -1.615, -1.571, 126.189, 57.624, -42.042, -13.328, 22.47, 0.45258, 0.00436, -0.01974, 0.89145,
 15:36:52.628,c2:22:89:2b:7b:c3, 2015-01-01 00:51:57.320, 0.035, 0.12, 1.022, 5.798, -3.052, 0, -1.527, -1.626, 126.189, 57.624, -42.042, -13.328, 22.47, 0.45258, 0.00436, -0.01974, 0.89145,
 15:36:52.628,c2:22:89:2b:7b:c3, 2015-01-01 00:51:57.320, 0.099, 0.125, 1.043, -4.517, 3.662, 0.183, -1.544, -1.599, 126.189, 57.624, -42.042, -13.328, 22.47, 0.45258, 0.00436, -0.01974, 0.89145,
 15:36:52.657,c2:22:89:2b:7b:c3, 2015-01-01 00:51:57.680, -0.009, 0.021, 0.979, -12.207, 5.005, 0.549, -1.637, -1.56, 126.189, 57.624, -42.042, -13.328, 22.47, 0.45258, 0.00436, -0.01974, 0.89145,
 15:36:52.659,c2:22:89:2b:7b:c3, 2015-01-01 00:51:57.680, -0.039, -0.152, 1.034, -12.756, 7.141, 0.366, -1.769, -1.494, 126.194, 57.624, -42.042, -13.328, 22.47, 0.45258, 0.00436, -0.01974, 0.89145,
 15:36:52.659,c2:22:89:2b:7b:c3, 2015-01-01 00:51:57.680, -0.059, -0.206, 0.997, -2.747, 2.869, 0.183, -1.818, -1.456, 126.194, 57.624, -42.042, -13.328, 22.47, 0.45258, 0.00436, -0.01974, 0.89145,
 15:36:52.659,c2:22:89:2b:7b:c3, 2015-01-01 00:51:57.680, -0.025, -0.121, 0.98, 7.568, -1.77, -0.061, -1.769, -1.461, 126.194, 57.624, -42.042, -13.328, 22.47, 0.45258, 0.00436, -0.01974, 0.89145,
 15:36:52.718,c2:22:89:2b:7b:c3, 2015-01-01 00:51:57.680, 0.1, -0.013, 1.012, 11.902, -8.179, -0.244, -1.659, -1.527, 126.194, 57.624, -42.042, -13.328, 22.47, 0.45258, 0.00436, -0.01974, 0.89145,
 15:36:52.718,c2:22:89:2b:7b:c3, 2015-01-01 00:51:57.680, 0.149, 0.092, 1.001, 11.414, -8.545, -0.427, -1.549, -1.609, 126.194, 57.624, -42.042, -13.328, 22.47, 0.45258, 0.00436, -0.01974, 0.89145,
 15:36:52.718,c2:22:89:2b:7b:c3, 2015-01-01 00:51:57.680, 0.041, 0.095, 0.991, 0.122, 3.601, 0, -1.522, -1.604, 126.194, 57.624, -42.042, -13.328, 22.47, 0.45258, 0.00436, -0.01974, 0.89145,
 15:36:52.718,c2:22:89:2b:7b:c3, 2015-01-01 00:51:57.680, 0.026, 0.093, 0.964, -10.254, 4.089, 0.244, -1.593, -1.566, 126.189, 57.624, -42.042, -13.328, 22.47, 0.45258, 0.00436, -0.01974, 0.89145,
 15:36:52.747,c2:22:89:2b:7b:c3, 2015-01-01 00:51:57.680, -0.028, -0.087, 1.024, -14.832, 7.385, 0.488, -1.736, -1.5, 126.194, 57.624, -42.042, -13.328, 22.47, 0.45258, 0.00436, -0.01974, 0.89145,
 15:36:52.747,c2:22:89:2b:7b:c3, 2015-01-01 00:51:57.680, -0.053, -0.205, 1, -6.287, 3.662, 0.183, -1.818, -1.456, 126.194, 57.624, -42.042, -13.328, 22.47, 0.45258, 0.00436, -0.01974, 0.89145,
 15:36:52.747,c2:22:89:2b:7b:c3, 2015-01-01 00:51:57.680, -0.044, -0.144, 0.97, 5.554, -1.404, 0, -1.796, -1.456, 126.194, 57.624, -42.042, -13.328, 22.47, 0.45258, 0.00436, -0.01974, 0.89145,
 15:36:52.747,c2:22:89:2b:7b:c3, 2015-01-01 00:51:57.680, 0.049, -0.038, 1.005, 11.597, -6.836, -0.366, -1.692, -1.505, 126.194, 57.624, -42.042, -13.328, 22.47, 0.45258, 0.00436, -0.01974, 0.89145,
 15:36:52.776,c2:22:89:2b:7b:c3, 2015-01-01 00:51:57.680, 0.178, 0.05, 1.004, 13, -8.85, -0.488, -1.571, -1.588, 126.194, 57.624, -42.042, -13.328, 22.47, 0.45258, 0.00436, -0.01974, 0.89145,
 15:36:52.776,c2:22:89:2b:7b:c3, 2015-01-01 00:51:57.680, 0, 0.187, 0.972, 2.563, 0.305, -0.244, -1.516, -1.62, 126.189, 57.624, -42.042, -13.328, 22.47, 0.45258, 0.00436, -0.01974, 0.89145,
 15:36:52.776,c2:22:89:2b:7b:c3, 2015-01-01 00:51:57.680, 0.081, 0.081, 1.004, -8.179, 4.639, 0.122, -1.56, -1.577, 126.189, 57.624, -42.042, -13.328, 22.47, 0.45258, 0.00436, -0.01974, 0.89145,
 15:36:52.776,c2:22:89:2b:7b:c3, 2015-01-01 00:51:57.680, -0.022, -0.035, 0.979, -16.052, 6.47, 0.549, -1.703, -1.527, 126.189, 57.624, -42.042, -13.328, 22.47, 0.45258, 0.00436, -0.01974, 0.89145,
 15:36:52.837,c2:22:89:2b:7b:c3, 2015-01-01 00:51:57.680, -0.036, -0.213, 1.042, -10.132, 6.104, 0.305, -1.824, -1.461, 126.189, 57.624, -42.042, -13.328, 22.47, 0.45258, 0.00436, -0.01974, 0.89145,
 15:36:52.837,c2:22:89:2b:7b:c3, 2015-01-01 00:51:57.680, -0.057, -0.191, 1.002, 0.854, 1.77, 0, -1.84, -1.434, 126.189, 57.624, -42.042, -13.328, 22.47, 0.45258, 0.00436, -0.01974, 0.89145,
 15:36:52.837,c2:22:89:2b:7b:c3, 2015-01-01 00:51:57.680, -0.002, -0.11, 0.985, 7.629, -3.723, -0.061, -1.785, -1.456, 126.189, 57.624, -42.042, -13.328, 22.47, 0.45258, 0.00436, -0.01974, 0.89145,
 15:36:52.837,c2:22:89:2b:7b:c3, 2015-01-01 00:51:57.680, 0.084, -0.046, 0.999, 11.414, -7.874, -0.244, -1.686, -1.522, 126.189, 57.624, -42.042, -13.328, 22.47, 0.45258, 0.00436, -0.01974, 0.89145,
 15:36:52.928,c2:22:89:2b:7b:c3, 2015-01-01 00:51:57.680, 0.102, 0.074, 0.992, 11.902, -6.409, -0.244, -1.571, -1.593, 126.194, 57.624, -41.944, -13.230, 22.47, 0.45258, 0.00436, -0.01974, 0.89145,
 15:36:52.928,c2:22:89:2b:7b:c3, 2015-01-01 00:51:57.680, 0.006, 0.151, 0.982, 3.113, 1.16, -0.305, -1.516, -1.599, 126.189, 57.624, -41.944, -13.230, 22.47, 0.45258, 0.00436, -0.01974, 0.89145,
 15:36:52.928,c2:22:89:2b:7b:c3, 2015-01-01 00:51:57.680, 0.083, 0.113, 0.96, -7.874, 2.319, 0.305, -1.566, -1.577, 126.189, 57.624, -41.944, -13.230, 22.47, 0.45258, 0.00436, -0.01974, 0.89145,
 15:36:52.928,c2:22:89:2b:7b:c3, 2015-01-01 00:51:57.680, 0.003, -0.04, 0.991, -14.038, 5.188, 0.244, -1.692, -1.533, 126.189, 57.624, -41.944, -13.230, 22.47, 0.45258, 0.00436, -0.01974, 0.89145,
 15:36:52.928,c2:22:89:2b:7b:c3, 2015-01-01 00:51:57.680, -0.049, -0.177, 1.043, -9.521, 6.775, 0.488, -1.796, -1.472, 126.194, 57.624, -41.944, -13.230, 22.47, 0.45258, 0.00436, -0.01974, 0.89145,
 15:36:52.928,c2:22:89:2b:7b:c3, 2015-01-01 00:51:57.680, -0.04, -0.194, 1.02, -1.16, 2.258, 0, -1.829, -1.434, 126.189, 57.624, -41.944, -13.230, 22.47, 0.45258, 0.00436, -0.01974, 0.89145,
 15:36:52.928,c2:22:89:2b:7b:c3, 2015-01-01 00:51:57.680, 0.013, -0.131, 0.989, 4.7, -2.991, 0, -1.802, -1.45, 126.194, 57.624, -41.944, -13.230, 22.47, 0.45258, 0.00436, -0.01974, 0.89145,
 15:36:52.928,c2:22:89:2b:7b:c3, 2015-01-01 00:51:57.680, 0.035, -0.091, 1.007, 8.911, -5.676, 0, -1.73, -1.5, 126.194, 57.624, -41.944, -13.230, 22.47, 0.45258, 0.00436, -0.01974, 0.89145,
 15:36:52.958,c2:22:89:2b:7b:c3, 2015-01-01 00:51:57.680, 0.115, 0.022, 0.992, 11.841, -5.859, -0.427, -1.62, -1.56, 126.194, 57.624, -41.944, -13.230, 22.47, 0.45255, 0.00449, -0.01959, 0.89145,
 15:36:52.958,c2:22:89:2b:7b:c3, 2015-01-01 00:51:57.680, 0.041, 0.149, 1.002, 7.263, -2.502, -0.366, -1.533, -1.593, 126.189, 57.624, -41.944, -13.230, 22.47, 0.45255, 0.00449, -0.01959, 0.89145,
 15:36:52.958,c2:22:89:2b:7b:c3, 2015-01-01 00:51:57.680, 0.078, 0.181, 1.024, -1.648, 1.709, 0, -1.527, -1.582, 126.189, 57.624, -41.944, -13.230, 22.47, 0.45255, 0.00449, -0.01959, 0.89145,
 15:36:52.958,c2:22:89:2b:7b:c3, 2015-01-01 00:51:57.680, 0.088, 0.068, 0.979, -10.864, 2.319, 0.183, -1.604, -1.56, 126.189, 57.624, -41.944, -13.230, 22.47, 0.45255, 0.00449, -0.01959, 0.89145,
 15:36:52.987,c2:22:89:2b:7b:c3, 2015-01-01 00:51:57.680, -0.026, -0.138, 1.011, -15.381, 7.812, 0.366, -1.747, -1.5, 126.194, 57.624, -41.944, -13.230, 22.47, 0.45255, 0.00449, -0.01959, 0.89145,
 15:36:52.987,c2:22:89:2b:7b:c3, 2015-01-01 00:51:57.680, -0.083, -0.24, 1.014, -9.521, 7.324, 0.305, -1.857, -1.423, 126.194, 57.624, -41.944, -13.230, 22.47, 0.45255, 0.00449, -0.01959, 0.89145,
 15:36:52.988,c2:22:89:2b:7b:c3, 2015-01-01 00:51:57.680, -0.07, -0.202, 0.975, 2.563, -0.61, 0, -1.862, -1.406, 126.194, 57.624, -41.944, -13.230, 22.47, 0.45255, 0.00449, -0.01959, 0.89145,
 15:36:52.988,c2:22:89:2b:7b:c3, 2015-01-01 00:51:57.680, -0.002, -0.116, 1, 12.268, -6.348, -0.305, -1.774, -1.45, 126.194, 57.624, -41.944, -13.230, 22.47, 0.45255, 0.00449, -0.01959, 0.89145,
 15:36:53.016,c2:22:89:2b:7b:c3, 2015-01-01 00:51:58.035, 0.247, 0.006, 1.007, 18.311, -11.963, -0.61, -1.609, -1.555, 126.194, 57.624, -41.944, -13.230, 22.47, 0.45255, 0.00449, -0.01959, 0.89145,
 15:36:53.016,c2:22:89:2b:7b:c3, 2015-01-01 00:51:58.035, 0.025, 0.249, 0.986, 13.794, -2.319, -0.305, -1.445, -1.631, 126.194, 57.624, -41.944, -13.230, 22.47, 0.45255, 0.00449, -0.01959, 0.89145,
 15:36:53.016,c2:22:89:2b:7b:c3, 2015-01-01 00:51:58.035, 0.138, 0.216, 1.071, -6.531, 5.188, 0.061, -1.445, -1.582, 126.189, 57.624, -41.944, -13.230, 22.47, 0.45255, 0.00449, -0.01959, 0.89145,
 15:36:53.016,c2:22:89:2b:7b:c3, 2015-01-01 00:51:58.035, 0.016, 0.077, 0.992, -20.447, 4.761, 0.671, -1.604, -1.549, 126.189, 57.624, -41.944, -13.230, 22.47, 0.45255, 0.00449, -0.01959, 0.89145,
 15:36:53.076,c2:22:89:2b:7b:c3, 2015-01-01 00:51:58.035, -0.101, -0.259, 1.056, -19.653, 11.475, 0.793, -1.807, -1.45, 126.194, 57.624, -41.944, -13.230, 22.47, 0.45255, 0.00449, -0.01959, 0.89145,
 15:36:53.076,c2:22:89:2b:7b:c3, 2015-01-01 00:51:58.035, -0.089, -0.318, 0.973, -2.93, 3.113, 0.244, -1.884, -1.39, 126.194, 57.624, -41.944, -13.230, 22.47, 0.45255, 0.00449, -0.01959, 0.89145,
 15:36:53.076,c2:22:89:2b:7b:c3, 2015-01-01 00:51:58.035, -0.06, -0.138, 0.944, 11.475, -2.808, -0.305, -1.802, -1.401, 126.194, 57.624, -41.944, -13.230, 22.47, 0.45255, 0.00449, -0.01959, 0.89145,
 15:36:53.076,c2:22:89:2b:7b:c3, 2015-01-01 00:51:58.035, 0.228, -0.037, 1.024, 17.09, -11.963, -0.305, -1.653, -1.494, 126.194, 57.624, -41.944, -13.230, 22.47, 0.45255, 0.00449, -0.01959, 0.89145,
 15:36:53.106,c2:22:89:2b:7b:c3, 2015-01-01 00:51:58.035, 0.121, 0.191, 1.023, 15.625, -12.512, -0.305, -1.5, -1.626, 126.194, 57.624, -41.944, -13.230, 22.47, 0.45255, 0.00449, -0.01959, 0.89145,
 15:36:53.106,c2:22:89:2b:7b:c3, 2015-01-01 00:51:58.035, 0.029, 0.158, 1.028, 0.793, 6.592, 0, -1.45, -1.593, 126.189, 57.624, -41.944, -13.230, 22.47, 0.45255, 0.00449, -0.01959, 0.89145,
 15:36:53.106,c2:22:89:2b:7b:c3, 2015-01-01 00:51:58.035, -0.007, 0.099, 0.923, -10.864, 2.93, 0.427, -1.533, -1.555, 126.189, 57.624, -41.944, -13.230, 22.47, 0.45255, 0.00449, -0.01959, 0.89145,
 15:36:53.106,c2:22:89:2b:7b:c3, 2015-01-01 00:51:58.035, 0, -0.041, 1.023, -11.658, 5.066, 0.122, -1.642, -1.505, 126.189, 57.624, -41.944, -13.230, 22.47, 0.45255, 0.00449, -0.01959, 0.89145,
 15:36:53.137,c2:22:89:2b:7b:c3, 2015-01-01 00:51:58.035, 0.014, -0.125, 1.021, -4.456, 1.648, 0.061, -1.697, -1.483, 126.189, 57.624, -41.944, -13.230, 22.47, 0.45255, 0.00449, -0.01959, 0.89145,
 15:36:53.137,c2:22:89:2b:7b:c3, 2015-01-01 00:51:58.035, 0.017, -0.125, 1.014, -0.244, 0.671, 0.061, -1.703, -1.472, 126.189, 57.624, -41.944, -13.230, 22.47, 0.45255, 0.00449, -0.01959, 0.89145,
 15:36:53.137,c2:22:89:2b:7b:c3, 2015-01-01 00:51:58.035, 0.014, -0.117, 1.014, 0, -0.183, 0.122, -1.703, -1.472, 126.189, 57.624, -41.944, -13.230, 22.47, 0.45255, 0.00449, -0.01959, 0.89145,
 15:36:53.137,c2:22:89:2b:7b:c3, 2015-01-01 00:51:58.035, 0.005, -0.11, 1.001, 3.052, -0.977, 0, -1.686, -1.483, 126.189, 57.624, -41.944, -13.230, 22.47, 0.45255, 0.00449, -0.01959, 0.89145,
 15:36:53.196,c2:22:89:2b:7b:c3, 2015-01-01 00:51:58.035, -0.003, -0.024, 0.993, 6.775, -2.441, -0.061, -1.631, -1.5, 126.189, 57.624, -41.944, -13.230, 22.47, 0.45255, 0.00449, -0.01959, 0.89145,
 15:36:53.196,c2:22:89:2b:7b:c3, 2015-01-01 00:51:58.035, 0.082, 0.045, 0.995, 7.202, -3.906, -0.244, -1.566, -1.533, 126.189, 57.624, -41.944, -13.230, 22.47, 0.45255, 0.00449, -0.01959, 0.89145,
 15:36:53.196,c2:22:89:2b:7b:c3, 2015-01-01 00:51:58.035, 0.07, 0.096, 1.001, 3.54, -3.967, -0.122, -1.516, -1.577, 126.189, 57.624, -41.944, -13.230, 22.47, 0.45255, 0.00449, -0.01959, 0.89145,
 15:36:53.196,c2:22:89:2b:7b:c3, 2015-01-01 00:51:58.035, 0.051, 0.046, 1, -2.258, 2.563, 0.122, -1.527, -1.566, 126.189, 57.624, -41.944, -13.230, 22.47, 0.45255, 0.00449, -0.01959, 0.89145,
 15:36:53.227,c2:22:89:2b:7b:c3, 2015-01-01 00:51:58.035, -0.009, 0.023, 0.97, -5.92, 3.662, 0.061, -1.577, -1.538, 126.189, 57.526, -41.944, -13.034, 22.47, 0.45255, 0.00449, -0.01959, 0.89145,
 15:36:53.227,c2:22:89:2b:7b:c3, 2015-01-01 00:51:58.035, 0, -0.034, 1.02, -6.836, 4.211, 0.061, -1.637, -1.489, 126.189, 57.526, -41.944, -13.034, 22.47, 0.45255, 0.00449, -0.01959, 0.89145,
 15:36:53.227,c2:22:89:2b:7b:c3, 2015-01-01 00:51:58.035, 0.022, -0.105, 1.022, -4.761, 1.343, 0, -1.686, -1.472, 126.189, 57.526, -41.944, -13.034, 22.47, 0.45255, 0.00449, -0.01959, 0.89145,
 15:36:53.227,c2:22:89:2b:7b:c3, 2015-01-01 00:51:58.035, -0.011, -0.141, 1.005, -1.404, 0.732, 0.122, -1.708, -1.467, 126.189, 57.526, -41.944, -13.034, 22.47, 0.45255, 0.00449, -0.01959, 0.89145,
 15:36:53.258,c2:22:89:2b:7b:c3, 2015-01-01 00:51:58.035, -0.01, -0.113, 0.996, 3.418, -0.732, 0, -1.692, -1.467, 126.189, 57.526, -41.944, -13.034, 22.47, 0.45255, 0.00449, -0.01959, 0.89145,
 15:36:53.258,c2:22:89:2b:7b:c3, 2015-01-01 00:51:58.035, 0.008, -0.046, 1, 6.714, -2.808, 0, -1.637, -1.489, 126.189, 57.526, -41.944, -13.034, 22.47, 0.45255, 0.00449, -0.01959, 0.89145,
 15:36:53.258,c2:22:89:2b:7b:c3, 2015-01-01 00:51:58.035, 0.115, 0.028, 1.007, 8.545, -5.066, -0.305, -1.56, -1.533, 126.189, 57.526, -41.944, -13.034, 22.47, 0.45255, 0.00449, -0.01959, 0.89145,
 15:36:53.258,c2:22:89:2b:7b:c3, 2015-01-01 00:51:58.035, 0.061, 0.14, 1.023, 5.371, -3.967, -0.183, -1.494, -1.577, 126.189, 57.526, -41.944, -13.034, 22.47, 0.45255, 0.00449, -0.01959, 0.89145,
 15:36:53.317,c2:22:89:2b:7b:c3, 2015-01-01 00:51:58.035, 0.085, 0.1, 1.018, -3.052, 2.686, 0.061, -1.494, -1.56, 126.189, 57.526, -41.944, -13.034, 22.47, 0.45255, 0.0061, -0.01797, 0.89148,
 15:36:53.317,c2:22:89:2b:7b:c3, 2015-01-01 00:51:58.035, 0.014, 0.003, 0.972, -9.46, 3.784, 0.427, -1.571, -1.527, 126.189, 57.526, -41.944, -13.034, 22.47, 0.45255, 0.0061, -0.01797, 0.89148,
 15:36:53.317,c2:22:89:2b:7b:c3, 2015-01-01 00:51:58.035, -0.032, -0.098, 1.021, -10.803, 6.287, 0.427, -1.67, -1.472, 126.194, 57.526, -41.944, -13.034, 22.47, 0.45255, 0.0061, -0.01797, 0.89148,
 15:36:53.317,c2:22:89:2b:7b:c3, 2015-01-01 00:51:58.035, -0.042, -0.167, 0.997, -4.395, 3.723, 0.061, -1.73, -1.428, 126.194, 57.526, -41.944, -13.034, 22.47, 0.45255, 0.0061, -0.01797, 0.89148,
 15:36:53.347,c2:22:89:2b:7b:c3, 2015-01-01 00:51:58.365, 0.001, -0.139, 0.975, 1.77, -0.916, 0, -1.73, -1.428, 126.194, 57.526, -41.944, -13.034, 22.47, 0.45255, 0.0061, -0.01797, 0.89148,
 15:36:53.347,c2:22:89:2b:7b:c3, 2015-01-01 00:51:58.365, 0.025, -0.111, 1.007, 6.531, -4.211, 0, -1.686, -1.456, 126.194, 57.526, -41.944, -13.034, 22.47, 0.45255, 0.0061, -0.01797, 0.89148,
 15:36:53.347,c2:22:89:2b:7b:c3, 2015-01-01 00:51:58.365, 0.059, -0.025, 1.005, 11.108, -5.371, -0.244, -1.593, -1.505, 126.194, 57.526, -41.944, -13.034, 22.47, 0.45255, 0.0061, -0.01797, 0.89148,
 15:36:53.347,c2:22:89:2b:7b:c3, 2015-01-01 00:51:58.365, 0.089, 0.118, 0.999, 9.888, -5.432, -0.366, -1.489, -1.56, 126.194, 57.526, -41.944, -13.034, 22.47, 0.45255, 0.0061, -0.01797, 0.89148,
 15:36:53.377,c2:22:89:2b:7b:c3, 2015-01-01 00:51:58.365, 0.047, 0.145, 1.006, 1.465, 0.916, -0.061, -1.45, -1.566, 126.194, 57.526, -41.944, -13.034, 22.47, 0.45255, 0.0061, -0.01797, 0.89148,
 15:36:53.377,c2:22:89:2b:7b:c3, 2015-01-01 00:51:58.365, 0.083, 0.08, 0.98, -8.667, 2.014, 0.183, -1.505, -1.549, 126.189, 57.526, -41.944, -13.034, 22.47, 0.45255, 0.0061, -0.01797, 0.89148,
 15:36:53.377,c2:22:89:2b:7b:c3, 2015-01-01 00:51:58.365, -0.034, -0.074, 0.986, -14.954, 7.324, 0.488, -1.642, -1.489, 126.194, 57.526, -41.944, -13.034, 22.47, 0.45255, 0.0061, -0.01797, 0.89148,
 15:36:53.377,c2:22:89:2b:7b:c3, 2015-01-01 00:51:58.365, -0.044, -0.187, 1.028, -8.789, 6.165, 0.305, -1.747, -1.423, 126.194, 57.526, -41.944, -13.034, 22.47, 0.45255, 0.0061, -0.01797, 0.89148,
 15:36:53.467,c2:22:89:2b:7b:c3, 2015-01-01 00:51:58.365, -0.04, -0.175, 0.994, 0.61, 1.099, -0.122, -1.763, -1.395, 126.194, 57.526, -41.944, -13.034, 22.47, 0.45255, 0.0061, -0.01797, 0.89148,
 15:36:53.467,c2:22:89:2b:7b:c3, 2015-01-01 00:51:58.365, 0.026, -0.126, 0.995, 6.409, -4.333, -0.183, -1.719, -1.428, 126.194, 57.526, -41.944, -13.034, 22.47, 0.45255, 0.0061, -0.01797, 0.89148,
 15:36:53.467,c2:22:89:2b:7b:c3, 2015-01-01 00:51:58.365, 0.055, -0.063, 1.008, 10.132, -6.592, -0.305, -1.637, -1.489, 126.194, 57.526, -41.944, -13.034, 22.47, 0.45255, 0.0061, -0.01797, 0.89148,
 15:36:53.467,c2:22:89:2b:7b:c3, 2015-01-01 00:51:58.365, 0.096, 0.047, 0.993, 11.353, -5.249, -0.244, -1.527, -1.544, 126.194, 57.526, -41.944, -13.034, 22.47, 0.45255, 0.0061, -0.01797, 0.89148,
 15:36:53.467,c2:22:89:2b:7b:c3, 2015-01-01 00:51:58.365, 0.044, 0.197, 0.981, 6.653, -0.61, -0.305, -1.445, -1.566, 126.194, 57.526, -41.944, -13.034, 22.47, 0.45255, 0.0061, -0.01797, 0.89148,
 15:36:53.467,c2:22:89:2b:7b:c3, 2015-01-01 00:51:58.365, 0.122, 0.143, 1.017, -6.531, 2.38, 0.061, -1.467, -1.544, 126.189, 57.526, -41.944, -13.034, 22.47, 0.45255, 0.0061, -0.01797, 0.89148,
 15:36:53.467,c2:22:89:2b:7b:c3, 2015-01-01 00:51:58.365, -0.002, -0.032, 1.006, -15.808, 5.127, 0.793, -1.593, -1.511, 126.194, 57.526, -41.944, -13.034, 22.47, 0.45255, 0.0061, -0.01797, 0.89148,
 15:36:53.467,c2:22:89:2b:7b:c3, 2015-01-01 00:51:58.365, -0.102, -0.196, 1.04, -11.963, 9.033, 0.488, -1.725, -1.428, 126.194, 57.526, -41.944, -13.034, 22.47, 0.45255, 0.0061, -0.01797, 0.89148,
 15:36:53.496,c2:22:89:2b:7b:c3, 2015-01-01 00:51:58.365, -0.05, -0.21, 1.001, -0.549, 2.563, 0, -1.763, -1.384, 126.194, 57.526, -41.944, -13.034, 22.47, 0.45255, 0.0061, -0.01797, 0.89148,
 15:36:53.496,c2:22:89:2b:7b:c3, 2015-01-01 00:51:58.365, 0.025, -0.122, 0.981, 6.409, -3.845, -0.061, -1.714, -1.406, 126.194, 57.526, -41.944, -13.034, 22.47, 0.45255, 0.0061, -0.01797, 0.89148,
 15:36:53.496,c2:22:89:2b:7b:c3, 2015-01-01 00:51:58.365, 0.071, -0.083, 1.029, 9.46, -8.301, -0.183, -1.631, -1.472, 126.194, 57.526, -41.944, -13.034, 22.47, 0.45255, 0.0061, -0.01797, 0.89148,
 15:36:53.496,c2:22:89:2b:7b:c3, 2015-01-01 00:51:58.365, 0.092, 0.014, 0.999, 11.841, -5.371, -0.122, -1.527, -1.538, 126.194, 57.526, -41.944, -13.034, 22.47, 0.45255, 0.0061, -0.01797, 0.89148,
 15:36:53.556,c2:22:89:2b:7b:c3, 2015-01-01 00:51:58.365, 0.036, 0.18, 0.978, 7.751, 0, -0.244, -1.434, -1.555, 126.194, 57.526, -41.944, -13.034, 22.47, 0.45255, 0.0061, -0.01797, 0.89148,
 15:36:53.556,c2:22:89:2b:7b:c3, 2015-01-01 00:51:58.365, 0.109, 0.158, 1.018, -4.883, 1.526, 0.061, -1.445, -1.538, 126.189, 57.526, -41.944, -13.034, 22.47, 0.45255, 0.0061, -0.01797, 0.89148,
 15:36:53.556,c2:22:89:2b:7b:c3, 2015-01-01 00:51:58.365, 0.036, 0.012, 1.008, -14.526, 3.601, 0.61, -1.56, -1.516, 126.194, 57.526, -41.944, -13.034, 22.47, 0.45255, 0.0061, -0.01797, 0.89148,
 15:36:53.556,c2:22:89:2b:7b:c3, 2015-01-01 00:51:58.365, -0.083, -0.159, 1.02, -12.512, 8.118, 0.366, -1.692, -1.445, 126.194, 57.526, -41.944, -13.034, 22.47, 0.45255, 0.0061, -0.01797, 0.89148,
 15:36:53.588,c2:22:89:2b:7b:c3, 2015-01-01 00:51:58.365, -0.06, -0.186, 0.981, -3.174, 4.7, 0.061, -1.747, -1.39, 126.194, 57.428, -41.846, -12.838, 22.47, 0.45255, 0.0061, -0.01797, 0.89148,
 15:36:53.588,c2:22:89:2b:7b:c3, 2015-01-01 00:51:58.365, 0.021, -0.113, 0.973, 5.005, -4.028, -0.366, -1.714, -1.406, 126.194, 57.428, -41.846, -12.838, 22.47, 0.45255, 0.0061, -0.01797, 0.89148,
 15:36:53.588,c2:22:89:2b:7b:c3, 2015-01-01 00:51:58.365, 0.065, -0.088, 1.015, 7.385, -6.531, -0.244, -1.653, -1.467, 126.194, 57.428, -41.846, -12.838, 22.47, 0.45255, 0.0061, -0.01797, 0.89148,
 15:36:53.588,c2:22:89:2b:7b:c3, 2015-01-01 00:51:58.365, 0.072, -0.035, 1.008, 9.766, -5.432, -0.305, -1.571, -1.516, 126.194, 57.428, -41.846, -12.838, 22.47, 0.45255, 0.0061, -0.01797, 0.89148,
 15:36:53.616,c2:22:89:2b:7b:c3, 2015-01-01 00:51:58.365, 0.065, 0.119, 1.001, 8.972, -3.113, -0.061, -1.478, -1.555, 126.194, 57.428, -41.846, -12.838, 22.47, 0.45255, 0.0061, -0.01797, 0.89148,
 15:36:53.616,c2:22:89:2b:7b:c3, 2015-01-01 00:51:58.365, 0.068, 0.156, 1.023, 0.366, 1.221, -0.061, -1.45, -1.549, 126.194, 57.428, -41.846, -12.838, 22.47, 0.45255, 0.0061, -0.01797, 0.89148,
 15:36:53.616,c2:22:89:2b:7b:c3, 2015-01-01 00:51:58.365, 0.063, 0.057, 0.986, -10.376, 2.014, 0.244, -1.522, -1.527, 126.194, 57.428, -41.846, -12.838, 22.47, 0.45255, 0.0061, -0.01797, 0.89148,
 15:36:53.616,c2:22:89:2b:7b:c3, 2015-01-01 00:51:58.365, -0.043, -0.112, 0.984, -12.939, 7.141, 0.549, -1.648, -1.472, 126.194, 57.428, -41.846, -12.838, 22.47, 0.45255, 0.0061, -0.01797, 0.89148,
 15:36:53.678,c2:22:89:2b:7b:c3, 2015-01-01 00:51:58.365, -0.052, -0.169, 0.988, -5.371, 5.31, 0.305, -1.719, -1.412, 126.194, 57.428, -41.846, -12.838, 22.47, 0.45251, 0.00589, -0.01788, 0.89151,
 15:36:53.678,c2:22:89:2b:7b:c3, 2015-01-01 00:51:58.365, 0.009, -0.127, 0.999, 3.296, -0.488, -0.183, -1.708, -1.401, 126.194, 57.428, -41.846, -12.838, 22.47, 0.45251, 0.00589, -0.01788, 0.89151,
 15:36:53.678,c2:22:89:2b:7b:c3, 2015-01-01 00:51:58.365, 0.033, -0.093, 1.012, 5.31, -5.371, 0, -1.664, -1.445, 126.194, 57.428, -41.846, -12.838, 22.47, 0.45251, 0.00589, -0.01788, 0.89151,
 15:36:53.678,c2:22:89:2b:7b:c3, 2015-01-01 00:51:58.365, 0.045, -0.084, 1.019, 7.874, -5.432, 0, -1.604, -1.5, 126.2, 57.428, -41.846, -12.838, 22.47, 0.45251, 0.00589, -0.01788, 0.89151,
 15:36:53.706,c2:22:89:2b:7b:c3, 2015-01-01 00:51:58.720, 0.095, 0.053, 1.001, 10.254, -3.54, -0.244, -1.505, -1.538, 126.2, 57.428, -41.846, -12.838, 22.47, 0.45251, 0.00589, -0.01788, 0.89151,
 15:36:53.706,c2:22:89:2b:7b:c3, 2015-01-01 00:51:58.720, 0.06, 0.143, 1.017, 3.479, -0.366, -0.122, -1.45, -1.555, 126.194, 57.428, -41.846, -12.838, 22.47, 0.45251, 0.00589, -0.01788, 0.89151,
 15:36:53.706,c2:22:89:2b:7b:c3, 2015-01-01 00:51:58.720, 0.075, 0.053, 1.024, -8.545, 1.892, 0.244, -1.5, -1.538, 126.194, 57.428, -41.846, -12.838, 22.47, 0.45251, 0.00589, -0.01788, 0.89151,
 15:36:53.706,c2:22:89:2b:7b:c3, 2015-01-01 00:51:58.720, -0.059, -0.072, 0.958, -12.146, 6.409, 0.61, -1.615, -1.494, 126.2, 57.428, -41.846, -12.838, 22.47, 0.45251, 0.00589, -0.01788, 0.89151,
 15:36:53.737,c2:22:89:2b:7b:c3, 2015-01-01 00:51:58.720, -0.025, -0.14, 1.003, -5.554, 5.249, 0.244, -1.686, -1.434, 126.2, 57.428, -41.846, -12.838, 22.47, 0.45251, 0.00589, -0.01788, 0.89151,
 15:36:53.737,c2:22:89:2b:7b:c3, 2015-01-01 00:51:58.720, 0.016, -0.125, 1.01, 0.977, -0.793, 0, -1.697, -1.428, 126.194, 57.428, -41.846, -12.838, 22.47, 0.45251, 0.00589, -0.01788, 0.89151,
 15:36:53.737,c2:22:89:2b:7b:c3, 2015-01-01 00:51:58.720, 0.025, -0.104, 1.013, 2.808, -3.601, 0, -1.675, -1.461, 126.2, 57.428, -41.846, -12.838, 22.47, 0.45251, 0.00589, -0.01788, 0.89151,
 15:36:53.737,c2:22:89:2b:7b:c3, 2015-01-01 00:51:58.720, 0.013, -0.102, 1.009, 5.371, -2.93, -0.183, -1.637, -1.489, 126.2, 57.428, -41.846, -12.838, 22.47, 0.45251, 0.00589, -0.01788, 0.89151,
 15:36:53.797,c2:22:89:2b:7b:c3, 2015-01-01 00:51:58.720, 0.043, 0.02, 0.989, 8.118, -2.625, -0.183, -1.56, -1.511, 126.2, 57.428, -41.846, -12.838, 22.47, 0.45251, 0.00589, -0.01788, 0.89151,
 15:36:53.797,c2:22:89:2b:7b:c3, 2015-01-01 00:51:58.720, 0.089, 0.082, 1.023, 4.883, -3.418, -0.122, -1.505, -1.544, 126.2, 57.428, -41.846, -12.838, 22.47, 0.45251, 0.00589, -0.01788, 0.89151,
 15:36:53.797,c2:22:89:2b:7b:c3, 2015-01-01 00:51:58.720, 0.074, 0.064, 1, -2.625, 0.488, 0.061, -1.511, -1.555, 126.2, 57.428, -41.846, -12.838, 22.47, 0.45251, 0.00589, -0.01788, 0.89151,
 15:36:53.797,c2:22:89:2b:7b:c3, 2015-01-01 00:51:58.720, -0.016, -0.011, 0.986, -7.019, 3.601, 0.305, -1.566, -1.527, 126.2, 57.428, -41.846, -12.838, 22.47, 0.45251, 0.00589, -0.01788, 0.89151,
 15:36:53.826,c2:22:89:2b:7b:c3, 2015-01-01 00:51:58.720, -0.003, -0.042, 1.006, -6.042, 4.822, 0.183, -1.626, -1.478, 126.2, 57.428, -41.846, -12.838, 22.47, 0.45251, 0.00589, -0.01788, 0.89151,
 15:36:53.826,c2:22:89:2b:7b:c3, 2015-01-01 00:51:58.720, 0.018, -0.097, 1.014, -3.784, 1.343, 0, -1.67, -1.456, 126.2, 57.428, -41.846, -12.838, 22.47, 0.45251, 0.00589, -0.01788, 0.89151,
 15:36:53.826,c2:22:89:2b:7b:c3, 2015-01-01 00:51:58.720, -0.012, -0.127, 0.984, -2.014, 0.366, 0.183, -1.697, -1.45, 126.2, 57.428, -41.846, -12.838, 22.47, 0.45251, 0.00589, -0.01788, 0.89151,
 15:36:53.826,c2:22:89:2b:7b:c3, 2015-01-01 00:51:58.720, -0.024, -0.127, 0.993, 3.052, -0.916, -0.061, -1.686, -1.45, 126.2, 57.428, -41.846, -12.838, 22.47, 0.45251, 0.00589, -0.01788, 0.89151,
 15:36:53.857,c2:22:89:2b:7b:c3, 2015-01-01 00:51:58.720, 0.032, -0.023, 0.979, 8.667, -4.028, -0.061, -1.62, -1.483, 126.2, 57.428, -41.846, -12.838, 22.47, 0.45251, 0.00589, -0.01788, 0.89151,
 15:36:53.857,c2:22:89:2b:7b:c3, 2015-01-01 00:51:58.720, 0.144, 0.046, 1.03, 7.935, -5.432, -0.244, -1.538, -1.533, 126.2, 57.428, -41.846, -12.838, 22.47, 0.45251, 0.00589, -0.01788, 0.89151,
 15:36:53.857,c2:22:89:2b:7b:c3, 2015-01-01 00:51:58.720, 0.041, 0.049, 1.021, -0.427, -1.16, 0, -1.522, -1.56, 126.2, 57.428, -41.846, -12.838, 22.47, 0.45251, 0.00589, -0.01788, 0.89151,
 15:36:53.857,c2:22:89:2b:7b:c3, 2015-01-01 00:51:58.720, 0.004, 0.023, 1.013, -3.357, 2.38, 0.244, -1.549, -1.538, 126.2, 57.428, -41.846, -12.838, 22.47, 0.45251, 0.00589, -0.01788, 0.89151,
 15:36:53.917,c2:22:89:2b:7b:c3, 2015-01-01 00:51:58.720, 0.006, 0.024, 0.98, -2.869, 3.296, 0, -1.577, -1.511, 126.2, 57.428, -41.846, -12.838, 22.47, 0.45251, 0.00589, -0.01788, 0.89151,
 15:36:53.917,c2:22:89:2b:7b:c3, 2015-01-01 00:51:58.720, 0.082, -0.02, 1.013, -4.822, 0.793, 0, -1.615, -1.494, 126.2, 57.428, -41.846, -12.838, 22.47, 0.45251, 0.00589, -0.01788, 0.89151,
 15:36:53.917,c2:22:89:2b:7b:c3, 2015-01-01 00:51:58.720, 0.007, -0.117, 1.02, -7.996, 1.953, 0.061, -1.686, -1.478, 126.2, 57.428, -41.846, -12.838, 22.47, 0.45251, 0.00589, -0.01788, 0.89151,
 15:36:53.917,c2:22:89:2b:7b:c3, 2015-01-01 00:51:58.720, -0.08, -0.175, 0.979, -3.906, 3.662, 0.244, -1.741, -1.445, 126.2, 57.428, -41.846, -12.838, 22.47, 0.45251, 0.00589, -0.01788, 0.89151,
 15:36:53.977,c2:22:89:2b:7b:c3, 2015-01-01 00:51:58.720, -0.016, -0.105, 0.97, 6.531, -0.793, -0.122, -1.708, -1.439, 126.2, 57.330, -41.846, -12.642, 22.47, 0.45251, 0.00589, -0.01788, 0.89151,
 15:36:53.977,c2:22:89:2b:7b:c3, 2015-01-01 00:51:58.720, 0.107, -0.019, 1.021, 9.521, -6.958, -0.366, -1.62, -1.489, 126.2, 57.330, -41.846, -12.642, 22.47, 0.45251, 0.00589, -0.01788, 0.89151,
 15:36:53.977,c2:22:89:2b:7b:c3, 2015-01-01 00:51:58.720, 0.098, 0.015, 1.046, 5.493, -6.409, -0.122, -1.56, -1.555, 126.2, 57.330, -41.846, -12.642, 22.47, 0.45251, 0.00589, -0.01788, 0.89151,
 15:36:53.977,c2:22:89:2b:7b:c3, 2015-01-01 00:51:58.720, -0.012, 0.017, 0.968, 1.648, 1.16, 0.122, -1.544, -1.566, 126.2, 57.330, -41.846, -12.642, 22.47, 0.45251, 0.00589, -0.01788, 0.89151,
 15:36:53.977,c2:22:89:2b:7b:c3, 2015-01-01 00:51:58.720, 0.016, 0.084, 0.978, 1.709, 1.404, 0, -1.522, -1.549, 126.2, 57.330, -41.846, -12.642, 22.47, 0.45251, 0.00589, -0.01788, 0.89151,
 15:36:53.977,c2:22:89:2b:7b:c3, 2015-01-01 00:51:58.720, 0.109, 0.095, 1.027, -2.991, 0.61, -0.122, -1.533, -1.538, 126.2, 57.330, -41.846, -12.642, 22.47, 0.45251, 0.00589, -0.01788, 0.89151,
 15:36:53.977,c2:22:89:2b:7b:c3, 2015-01-01 00:51:58.720, 0.075, -0.046, 1.035, -10.986, 1.953, 0.122, -1.615, -1.527, 126.2, 57.330, -41.846, -12.642, 22.47, 0.45251, 0.00589, -0.01788, 0.89151,
 15:36:53.977,c2:22:89:2b:7b:c3, 2015-01-01 00:51:58.720, -0.111, -0.173, 0.977, -12.024, 7.751, 0.61, -1.741, -1.467, 126.2, 57.330, -41.846, -12.642, 22.47, 0.45251, 0.00589, -0.01788, 0.89151,
 15:36:54.036,c2:22:89:2b:7b:c3, 2015-01-01 00:51:58.720, -0.097, -0.208, 0.957, -1.038, 4.944, 0.244, -1.785, -1.406, 126.2, 57.330, -41.846, -12.642, 22.47, 0.45251, 0.00589, -0.01788, 0.89151,
 15:36:54.036,c2:22:89:2b:7b:c3, 2015-01-01 00:51:58.720, 0.041, -0.073, 0.98, 10.742, -4.761, -0.427, -1.708, -1.428, 126.2, 57.330, -41.846, -12.642, 22.47, 0.45251, 0.00589, -0.01788, 0.89151,
 15:36:54.036,c2:22:89:2b:7b:c3, 2015-01-01 00:51:58.720, 0.167, 0.002, 1.032, 10.132, -9.644, -0.366, -1.609, -1.516, 126.2, 57.330, -41.846, -12.642, 22.47, 0.45251, 0.00589, -0.01788, 0.89151,
 15:36:54.036,c2:22:89:2b:7b:c3, 2015-01-01 00:51:58.720, 0.064, 0.028, 1.036, 6.592, -6.592, 0, -1.538, -1.588, 126.2, 57.330, -41.846, -12.642, 22.47, 0.45251, 0.00589, -0.01788, 0.89151,
 15:36:54.066,c2:22:89:2b:7b:c3, 2015-01-01 00:51:58.720, -0.016, 0.071, 0.989, 2.808, 3.601, 0.183, -1.505, -1.571, 126.2, 57.330, -41.846, -12.642, 22.47, 0.45245, 0.00436, -0.01895, 0.89151,
 15:36:54.066,c2:22:89:2b:7b:c3, 2015-01-01 00:51:58.720, 0.047, 0.126, 0.986, 0, 1.038, -0.183, -1.5, -1.555, 126.2, 57.330, -41.846, -12.642, 22.47, 0.45245, 0.00436, -0.01895, 0.89151,
 15:36:54.066,c2:22:89:2b:7b:c3, 2015-01-01 00:51:58.720, 0.1, 0.066, 1.028, -7.935, 1.282, -0.061, -1.549, -1.544, 126.194, 57.330, -41.846, -12.642, 22.47, 0.45245, 0.00436, -0.01895, 0.89151,
 15:36:54.066,c2:22:89:2b:7b:c3, 2015-01-01 00:51:58.720, 0.01, -0.128, 1.003, -13.428, 4.883, 0.366, -1.67, -1.505, 126.194, 57.330, -41.846, -12.642, 22.47, 0.45245, 0.00436, -0.01895, 0.89151,
 15:36:54.096,c2:22:89:2b:7b:c3, 2015-01-01 00:51:58.720, -0.123, -0.225, 0.981, -8.85, 7.141, 0.305, -1.774, -1.439, 126.2, 57.330, -41.846, -12.642, 22.47, 0.45245, 0.00436, -0.01895, 0.89151,
 15:36:54.096,c2:22:89:2b:7b:c3, 2015-01-01 00:51:58.720, -0.056, -0.196, 1.013, 4.639, 0.366, -0.183, -1.769, -1.412, 126.2, 57.330, -41.846, -12.642, 22.47, 0.45245, 0.00436, -0.01895, 0.89151,
 15:36:54.096,c2:22:89:2b:7b:c3, 2015-01-01 00:51:58.720, 0.049, -0.051, 1.017, 11.292, -6.47, -0.488, -1.67, -1.461, 126.194, 57.330, -41.846, -12.642, 22.47, 0.45245, 0.00436, -0.01895, 0.89151,
 15:36:54.096,c2:22:89:2b:7b:c3, 2015-01-01 00:51:58.720, 0.205, -0.006, 1.018, 9.766, -9.644, -0.244, -1.577, -1.544, 126.2, 57.330, -41.846, -12.642, 22.47, 0.45245, 0.00436, -0.01895, 0.89151,
 15:36:54.156,c2:22:89:2b:7b:c3, 2015-01-01 00:51:59.140, 0.019, 0.07, 1.007, 5.615, -4.211, 0, -1.505, -1.609, 126.2, 57.330, -41.846, -12.642, 22.47, 0.45245, 0.00436, -0.01895, 0.89151,
 15:36:54.156,c2:22:89:2b:7b:c3, 2015-01-01 00:51:59.140, 0.037, 0.154, 1.045, 0.732, 4.333, 0, -1.489, -1.577, 126.194, 57.330, -41.846, -12.642, 22.47, 0.45245, 0.00436, -0.01895, 0.89151,
 15:36:54.156,c2:22:89:2b:7b:c3, 2015-01-01 00:51:59.140, 0.051, 0.121, 0.991, -7.08, 2.014, 0.122, -1.527, -1.549, 126.194, 57.330, -41.846, -12.642, 22.47, 0.45245, 0.00436, -0.01895, 0.89151,
 15:36:54.156,c2:22:89:2b:7b:c3, 2015-01-01 00:51:59.140, 0.044, -0.059, 1.004, -13.916, 3.662, 0.366, -1.648, -1.522, 126.194, 57.330, -41.846, -12.642, 22.47, 0.45245, 0.00436, -0.01895, 0.89151,
 15:36:54.186,c2:22:89:2b:7b:c3, 2015-01-01 00:51:59.140, -0.074, -0.21, 0.991, -11.536, 5.676, 0.427, -1.769, -1.472, 126.2, 57.330, -41.846, -12.642, 22.47, 0.45245, 0.00436, -0.01895, 0.89151,
 15:36:54.186,c2:22:89:2b:7b:c3, 2015-01-01 00:51:59.140, -0.06, -0.254, 1.016, -2.502, 3.845, 0.122, -1.824, -1.423, 126.2, 57.330, -41.846, -12.642, 22.47, 0.45245, 0.00436, -0.01895, 0.89151,
 15:36:54.186,c2:22:89:2b:7b:c3, 2015-01-01 00:51:59.140, -0.03, -0.131, 0.983, 8.545, -2.869, -0.244, -1.769, -1.434, 126.2, 57.330, -41.846, -12.642, 22.47, 0.45245, 0.00436, -0.01895, 0.89151,
 15:36:54.186,c2:22:89:2b:7b:c3, 2015-01-01 00:51:59.140, 0.089, -0.033, 1.003, 13.306, -8.545, -0.244, -1.653, -1.5, 126.2, 57.330, -41.846, -12.642, 22.47, 0.45245, 0.00436, -0.01895, 0.89151,
 15:36:54.308,c2:22:89:2b:7b:c3, 2015-01-01 00:51:59.140, 0.188, 0.102, 0.999, 14.771, -10.62, -0.366, -1.516, -1.604, 126.2, 57.330, -41.846, -12.642, 22.47, 0.45245, 0.00436, -0.01895, 0.89151,
 15:36:54.308,c2:22:89:2b:7b:c3, 2015-01-01 00:51:59.140, -0.023, 0.152, 1.005, 2.441, 3.723, -0.244, -1.461, -1.604, 126.2, 57.330, -41.846, -12.642, 22.47, 0.45245, 0.00436, -0.01895, 0.89151,
 15:36:54.308,c2:22:89:2b:7b:c3, 2015-01-01 00:51:59.140, 0.076, 0.108, 0.969, -9.521, 3.479, 0.366, -1.527, -1.56, 126.2, 57.330, -41.846, -12.642, 22.47, 0.45245, 0.00436, -0.01895, 0.89151,
 15:36:54.308,c2:22:89:2b:7b:c3, 2015-01-01 00:51:59.140, -0.062, -0.053, 0.952, -17.761, 7.507, 0.488, -1.686, -1.505, 126.2, 57.330, -41.846, -12.642, 22.47, 0.45245, 0.00436, -0.01895, 0.89151,
 15:36:54.308,c2:22:89:2b:7b:c3, 2015-01-01 00:51:59.140, -0.028, -0.223, 1.011, -9.338, 4.578, 0.366, -1.802, -1.445, 126.2, 57.330, -41.846, -12.642, 22.47, 0.45245, 0.00436, -0.01895, 0.89151,
 15:36:54.308,c2:22:89:2b:7b:c3, 2015-01-01 00:51:59.140, -0.037, -0.207, 1.01, 2.625, -0.854, -0.061, -1.807, -1.439, 126.2, 57.330, -41.846, -12.642, 22.47, 0.45245, 0.00436, -0.01895, 0.89151,
 15:36:54.308,c2:22:89:2b:7b:c3, 2015-01-01 00:51:59.140, 0.031, -0.109, 1.012, 8.728, -3.662, -0.305, -1.741, -1.467, 126.2, 57.330, -41.846, -12.642, 22.47, 0.45245, 0.00436, -0.01895, 0.89151,
 15:36:54.308,c2:22:89:2b:7b:c3, 2015-01-01 00:51:59.140, 0.069, -0.042, 1.001, 8.728, -6.531, -0.305, -1.659, -1.522, 126.2, 57.330, -41.846, -12.642, 22.47, 0.45245, 0.00436, -0.01895, 0.89151,
 15:36:54.308,c2:22:89:2b:7b:c3, 2015-01-01 00:51:59.140, 0.084, 0.007, 0.98, 6.775, -4.456, 0.061, -1.599, -1.571, 126.205, 57.330, -41.846, -12.642, 22.47, 0.45245, 0.00436, -0.01895, 0.89151,
 15:36:54.308,c2:22:89:2b:7b:c3, 2015-01-01 00:51:59.140, 0.033, 0.095, 1.028, 4.822, -1.526, -0.183, -1.549, -1.593, 126.205, 57.330, -41.846, -12.642, 22.47, 0.45245, 0.00436, -0.01895, 0.89151,
 15:36:54.308,c2:22:89:2b:7b:c3, 2015-01-01 00:51:59.140, 0.048, 0.114, 1.033, 0.183, 2.441, -0.061, -1.533, -1.577, 126.205, 57.330, -41.846, -12.642, 22.47, 0.45245, 0.00436, -0.01895, 0.89151,
 15:36:54.308,c2:22:89:2b:7b:c3, 2015-01-01 00:51:59.140, 0.065, 0.075, 0.987, -6.165, 0.671, 0.061, -1.577, -1.566, 126.205, 57.330, -41.846, -12.642, 22.47, 0.45245, 0.00436, -0.01895, 0.89151,
 15:36:54.366,c2:22:89:2b:7b:c3, 2015-01-01 00:51:59.140, 0.036, -0.052, 1, -11.108, 3.906, 0.427, -1.675, -1.538, 126.205, 57.330, -41.846, -12.642, 22.47, 0.45245, 0.00436, -0.01895, 0.89151,
 15:36:54.366,c2:22:89:2b:7b:c3, 2015-01-01 00:51:59.140, -0.044, -0.165, 1.018, -9.644, 5.798, 0.244, -1.774, -1.489, 126.205, 57.330, -41.846, -12.642, 22.47, 0.45245, 0.00436, -0.01895, 0.89151,
 15:36:54.366,c2:22:89:2b:7b:c3, 2015-01-01 00:51:59.140, -0.075, -0.219, 1.015, -3.296, 3.601, 0.183, -1.829, -1.445, 126.205, 57.330, -41.846, -12.642, 22.47, 0.45245, 0.00436, -0.01895, 0.89151,
 15:36:54.366,c2:22:89:2b:7b:c3, 2015-01-01 00:51:59.140, -0.052, -0.141, 0.962, 6.287, -1.648, -0.061, -1.796, -1.445, 126.205, 57.330, -41.846, -12.642, 22.47, 0.45245, 0.00436, -0.01895, 0.89151,
 15:36:54.398,c2:22:89:2b:7b:c3, 2015-01-01 00:51:59.140, 0.09, -0.038, 0.995, 13.062, -8.484, -0.366, -1.686, -1.511, 126.205, 57.428, -41.846, -12.250, 22.47, 0.45245, 0.00436, -0.01895, 0.89151,
 15:36:54.398,c2:22:89:2b:7b:c3, 2015-01-01 00:51:59.140, 0.176, 0.066, 1.02, 12.512, -10.132, -0.488, -1.566, -1.609, 126.205, 57.428, -41.846, -12.250, 22.47, 0.45245, 0.00436, -0.01895, 0.89151,
 15:36:54.398,c2:22:89:2b:7b:c3, 2015-01-01 00:51:59.140, 0.01, 0.103, 1.002, -0.427, 3.418, 0, -1.544, -1.615, 126.205, 57.428, -41.846, -12.250, 22.47, 0.45245, 0.00436, -0.01895, 0.89151,
 15:36:54.398,c2:22:89:2b:7b:c3, 2015-01-01 00:51:59.140, 0.007, 0.112, 0.96, -9.155, 4.7, 0.427, -1.615, -1.56, 126.205, 57.428, -41.846, -12.250, 22.47, 0.45245, 0.00436, -0.01895, 0.89151,
 15:36:54.426,c2:22:89:2b:7b:c3, 2015-01-01 00:51:59.140, -0.025, -0.024, 0.997, -13.489, 6.653, 0.366, -1.741, -1.5, 126.205, 57.428, -41.846, -12.250, 22.47, 0.45245, 0.00436, -0.01895, 0.89151,
 15:36:54.426,c2:22:89:2b:7b:c3, 2015-01-01 00:51:59.140, -0.003, -0.176, 1.012, -5.676, 1.892, 0.305, -1.824, -1.467, 126.211, 57.428, -41.846, -12.250, 22.47, 0.45245, 0.00436, -0.01895, 0.89151,
 15:36:54.426,c2:22:89:2b:7b:c3, 2015-01-01 00:51:59.140, -0.022, -0.144, 1.006, 3.845, -1.038, -0.061, -1.807, -1.472, 126.211, 57.428, -41.846, -12.250, 22.47, 0.45245, 0.00436, -0.01895, 0.89151,
 15:36:54.426,c2:22:89:2b:7b:c3, 2015-01-01 00:51:59.140, 0.026, -0.058, 0.997, 7.874, -3.418, -0.061, -1.741, -1.494, 126.211, 57.428, -41.846, -12.250, 22.47, 0.45245, 0.00436, -0.01895, 0.89151,
 15:36:54.487,c2:22:89:2b:7b:c3, 2015-01-01 00:51:59.140, 0.114, 0.005, 0.976, 6.958, -5.859, -0.183, -1.67, -1.549, 126.211, 57.428, -41.846, -12.250, 22.47, 0.45239, 0.00452, -0.01968, 0.89154,
 15:36:54.487,c2:22:89:2b:7b:c3, 2015-01-01 00:51:59.140, 0.073, 0.012, 1.006, 1.526, -2.625, 0.061, -1.648, -1.582, 126.211, 57.428, -41.846, -12.250, 22.47, 0.45239, 0.00452, -0.01968, 0.89154,
 15:36:54.487,c2:22:89:2b:7b:c3, 2015-01-01 00:51:59.140, 0.012, 0.005, 1.023, -1.099, 2.563, -0.122, -1.659, -1.571, 126.211, 57.428, -41.846, -12.250, 22.47, 0.45239, 0.00452, -0.01968, 0.89154,
 15:36:54.487,c2:22:89:2b:7b:c3, 2015-01-01 00:51:59.140, -0.039, 0.018, 0.981, -3.662, 4.211, 0, -1.686, -1.533, 126.211, 57.428, -41.846, -12.250, 22.47, 0.45239, 0.00452, -0.01968, 0.89154,
 15:36:54.517,c2:22:89:2b:7b:c3, 2015-01-01 00:51:59.140, 0.047, -0.016, 0.992, -3.052, 0.671, 0.122, -1.719, -1.511, 126.211, 57.428, -41.846, -12.250, 22.47, 0.45239, 0.00452, -0.01968, 0.89154,
 15:36:54.517,c2:22:89:2b:7b:c3, 2015-01-01 00:51:59.140, 0.054, -0.065, 1.022, -1.77, -1.587, 0.122, -1.741, -1.527, 126.211, 57.428, -41.846, -12.250, 22.47, 0.45239, 0.00452, -0.01968, 0.89154,
 15:36:54.517,c2:22:89:2b:7b:c3, 2015-01-01 00:51:59.140, 0.015, -0.074, 1.029, 0.793, 0.305, 0.122, -1.741, -1.527, 126.211, 57.428, -41.846, -12.250, 22.47, 0.45239, 0.00452, -0.01968, 0.89154,
 15:36:54.517,c2:22:89:2b:7b:c3, 2015-01-01 00:51:59.140, 0, -0.032, 0.978, 1.038, 1.16, 0.061, -1.73, -1.516, 126.211, 57.428, -41.846, -12.250, 22.47, 0.45239, 0.00452, -0.01968, 0.89154,
 15:36:54.547,c2:22:89:2b:7b:c3, 2015-01-01 00:51:59.555, 0.048, -0.037, 0.971, -1.465, 0, 0, -1.741, -1.516, 126.211, 57.428, -41.846, -12.250, 22.47, 0.45239, 0.00452, -0.01968, 0.89154,
 15:36:54.547,c2:22:89:2b:7b:c3, 2015-01-01 00:51:59.555, 0.054, -0.083, 1.016, -1.587, -1.404, 0.061, -1.758, -1.527, 126.216, 57.428, -41.846, -12.250, 22.47, 0.45239, 0.00452, -0.01968, 0.89154,
 15:36:54.547,c2:22:89:2b:7b:c3, 2015-01-01 00:51:59.555, -0.035, -0.089, 1.025, 0.366, 1.587, 0.366, -1.769, -1.516, 126.216, 57.428, -41.846, -12.250, 22.47, 0.45239, 0.00452, -0.01968, 0.89154,
 15:36:54.547,c2:22:89:2b:7b:c3, 2015-01-01 00:51:59.555, -0.015, -0.01, 1.002, 4.944, -0.61, -0.061, -1.73, -1.516, 126.216, 57.428, -41.846, -12.250, 22.47, 0.45239, 0.00452, -0.01968, 0.89154,
 15:36:54.607,c2:22:89:2b:7b:c3, 2015-01-01 00:51:59.555, 0.08, 0.04, 0.982, 4.883, -4.028, -0.183, -1.681, -1.549, 126.216, 57.428, -41.846, -12.250, 22.47, 0.45239, 0.00452, -0.01968, 0.89154,
 15:36:54.607,c2:22:89:2b:7b:c3, 2015-01-01 00:51:59.555, 0.107, 0.031, 1.017, 2.075, -4.395, -0.122, -1.653, -1.593, 126.216, 57.428, -41.846, -12.250, 22.47, 0.45239, 0.00452, -0.01968, 0.89154,
 15:36:54.607,c2:22:89:2b:7b:c3, 2015-01-01 00:51:59.555, 0.029, 0.003, 0.998, -3.235, 2.625, 0, -1.675, -1.588, 126.216, 57.428, -41.846, -12.250, 22.47, 0.45239, 0.00452, -0.01968, 0.89154,
 15:36:54.607,c2:22:89:2b:7b:c3, 2015-01-01 00:51:59.555, -0.035, -0.021, 0.962, -7.202, 6.226, 0.244, -1.736, -1.533, 126.211, 57.428, -41.846, -12.250, 22.47, 0.45239, 0.00452, -0.01968, 0.89154,
 15:36:54.637,c2:22:89:2b:7b:c3, 2015-01-01 00:51:59.555, -0.011, -0.081, 0.992, -8.057, 4.089, 0.305, -1.813, -1.483, 126.211, 57.428, -41.846, -12.250, 22.47, 0.45239, 0.00452, -0.01968, 0.89154,
 15:36:54.637,c2:22:89:2b:7b:c3, 2015-01-01 00:51:59.555, 0.016, -0.16, 1.011, -3.357, -0.183, 0.305, -1.862, -1.478, 126.216, 57.428, -41.846, -12.250, 22.47, 0.45239, 0.00452, -0.01968, 0.89154,
 15:36:54.637,c2:22:89:2b:7b:c3, 2015-01-01 00:51:59.555, -0.026, -0.132, 1, 4.395, -2.014, 0, -1.84, -1.494, 126.216, 57.428, -41.846, -12.250, 22.47, 0.45239, 0.00452, -0.01968, 0.89154,
 15:36:54.637,c2:22:89:2b:7b:c3, 2015-01-01 00:51:59.555, 0.006, -0.041, 0.99, 9.46, -2.625, -0.244, -1.769, -1.516, 126.216, 57.428, -41.846, -12.250, 22.47, 0.45239, 0.00452, -0.01968, 0.89154,
 15:36:54.666,c2:22:89:2b:7b:c3, 2015-01-01 00:51:59.555, 0.167, 0.064, 0.991, 9.216, -6.836, -0.244, -1.675, -1.571, 126.216, 57.428, -41.846, -12.250, 22.47, 0.45239, 0.00452, -0.01968, 0.89154,
 15:36:54.666,c2:22:89:2b:7b:c3, 2015-01-01 00:51:59.555, 0.055, 0.09, 1.046, 1.648, -2.869, -0.061, -1.631, -1.615, 126.216, 57.428, -41.846, -12.250, 22.47, 0.45239, 0.00452, -0.01968, 0.89154,
 15:36:54.666,c2:22:89:2b:7b:c3, 2015-01-01 00:51:59.555, 0.058, 0.053, 1.05, -5.554, 4.15, 0.244, -1.67, -1.588, 126.216, 57.428, -41.846, -12.250, 22.47, 0.45239, 0.00452, -0.01968, 0.89154,
 15:36:54.666,c2:22:89:2b:7b:c3, 2015-01-01 00:51:59.555, -0.07, -0.02, 0.935, -11.719, 7.385, 0.488, -1.769, -1.533, 126.216, 57.428, -41.846, -12.250, 22.47, 0.45239, 0.00452, -0.01968, 0.89154,
 15:36:54.728,c2:22:89:2b:7b:c3, 2015-01-01 00:51:59.555, -0.016, -0.151, 1.002, -9.094, 3.845, 0.061, -1.868, -1.478, 126.216, 57.428, -41.846, -12.250, 22.47, 0.45239, 0.00452, -0.01968, 0.89154,
 15:36:54.728,c2:22:89:2b:7b:c3, 2015-01-01 00:51:59.555, -0.014, -0.184, 1.011, -0.793, -0.061, 0.122, -1.901, -1.472, 126.216, 57.428, -41.846, -12.250, 22.47, 0.45239, 0.00452, -0.01968, 0.89154,
 15:36:54.728,c2:22:89:2b:7b:c3, 2015-01-01 00:51:59.555, 0.002, -0.109, 1.008, 8.301, -2.869, 0, -1.846, -1.489, 126.216, 57.428, -41.846, -12.250, 22.47, 0.45239, 0.00452, -0.01968, 0.89154,
 15:36:54.728,c2:22:89:2b:7b:c3, 2015-01-01 00:51:59.555, 0.052, -0.019, 0.999, 9.766, -5.676, -0.366, -1.752, -1.538, 126.216, 57.428, -41.846, -12.250, 22.47, 0.45239, 0.00452, -0.01968, 0.89154,
 15:36:54.757,c2:22:89:2b:7b:c3, 2015-01-01 00:51:59.555, 0.146, 0.058, 1.001, 7.812, -5.615, -0.122, -1.67, -1.593, 126.216, 57.134, -41.650, -12.152, 22.47, 0.45239, 0.00452, -0.01968, 0.89154,
 15:36:54.757,c2:22:89:2b:7b:c3, 2015-01-01 00:51:59.555, 0.046, 0.109, 0.998, -0.488, 0.793, 0, -1.653, -1.609, 126.216, 57.134, -41.650, -12.152, 22.47, 0.45239, 0.00452, -0.01968, 0.89154,
 15:36:54.757,c2:22:89:2b:7b:c3, 2015-01-01 00:51:59.555, 0.029, 0.058, 1.025, -7.446, 4.395, 0.183, -1.708, -1.566, 126.216, 57.134, -41.650, -12.152, 22.47, 0.45239, 0.00452, -0.01968, 0.89154,
 15:36:54.757,c2:22:89:2b:7b:c3, 2015-01-01 00:51:59.555, -0.024, -0.044, 1, -11.169, 6.226, 0.183, -1.813, -1.511, 126.216, 57.134, -41.650, -12.152, 22.47, 0.45239, 0.00452, -0.01968, 0.89154,
 15:36:54.788,c2:22:89:2b:7b:c3, 2015-01-01 00:51:59.555, -0.024, -0.17, 0.99, -7.385, 3.235, 0.122, -1.901, -1.467, 126.216, 57.134, -41.650, -12.152, 22.47, 0.45239, 0.00452, -0.01968, 0.89154,
 15:36:54.788,c2:22:89:2b:7b:c3, 2015-01-01 00:51:59.555, -0.007, -0.177, 1.015, 2.197, -1.343, -0.183, -1.906, -1.467, 126.216, 57.134, -41.650, -12.152, 22.47, 0.45239, 0.00452, -0.01968, 0.89154,
 15:36:54.788,c2:22:89:2b:7b:c3, 2015-01-01 00:51:59.555, 0.008, -0.08, 1.013, 7.812, -3.845, -0.183, -1.84, -1.5, 126.216, 57.134, -41.650, -12.152, 22.47, 0.45239, 0.00452, -0.01968, 0.89154,
 15:36:54.788,c2:22:89:2b:7b:c3, 2015-01-01 00:51:59.555, 0.076, -0.017, 1.014, 9.155, -5.798, -0.122, -1.758, -1.549, 126.216, 57.134, -41.650, -12.152, 22.47, 0.45239, 0.00452, -0.01968, 0.89154,
 15:36:54.847,c2:22:89:2b:7b:c3, 2015-01-01 00:51:59.555, 0.088, 0.059, 0.993, 7.019, -4.456, -0.122, -1.686, -1.599, 126.216, 57.134, -41.650, -12.152, 22.47, 0.45236, 0.00473, -0.02005, 0.89154,
 15:36:54.847,c2:22:89:2b:7b:c3, 2015-01-01 00:51:59.555, 0.039, 0.098, 1.001, 0.427, 1.099, -0.122, -1.664, -1.599, 126.216, 57.134, -41.650, -12.152, 22.47, 0.45236, 0.00473, -0.02005, 0.89154,
