#timestamp [ns], temperature [degC], w_RS_S_x [rad s^-1], w_RS_S_y [rad s^-1], w_RS_S_z [rad s^-1], a_RS_S_x [m s^-2], a_RS_S_y [m s^-2], a_RS_S_z [m s^-2]
0.0,22.09,0.0,0.0,0.0,0.57879,-0.15696,9.82962
5000000.0,22.09,0.0,0.0,0.0,0.57879,-0.13753619980576198,9.82962
10000000.0,22.09,0.0,0.0,0.0,0.598017600388476,-0.146953800194238,9.820006199805762
15000000.0,22.09,0.0,0.0,0.0,0.59841,-0.16618140058271402,9.800778599417287
20000000.0,22.09,0.0,0.0,0.0,0.588992399611524,-0.15735239961152397,9.809607600388476
25000000.0,22.09,0.0,0.0,0.0,0.5886,-0.15696,9.819319500485596
30000000.0,22.09,0.0,0.0,0.0,0.5886,-0.15696,9.838252801165428
35000000.0,22.09,0.0,0.0,0.0,0.579476699320167,-0.166083300679833,9.821183398640335
40000000.0,22.09,0.0,0.0,0.0,0.596840401553904,-0.18482040155390403,9.792734397669145
45000000.0,22.09,0.0,0.0,0.0,0.607337100874071,-0.15960869737778696,9.772525798251857
50000000.0,22.09,0.0,0.0,0.0,0.59056199805762,-0.15696,9.77958900097119
55000000.0,22.09,0.0,0.0,0.0,0.5886,-0.174421802136618,9.841686307478163
60000000.0,22.09,0.0,0.0,0.0,0.5713343976691441,-0.14204879533828793,9.831974397669144
65000000.0,22.09,0.0,0.0,0.0,0.577514701262547,-0.145874701262547,9.786946493687266
70000000.0,22.09,0.0,0.0,0.0,0.587226601359666,-0.14715,9.805879804078998
75000000.0,22.09,0.0,0.0,0.0,0.60527700291357,-0.155488501456785,9.82667700291357
80000000.0,22.09,0.0,0.0,0.0,0.60822,-0.15696,9.837860401553904
85000000.0,22.09,0.0,0.0,0.0,0.6163623016510231,-0.14881769834897698,9.815003095046931
90000000.0,22.09,0.0,0.0,0.0,0.6019415965037159,-0.13910579825185798,9.785867394755575
95000000.0,22.09,0.0,0.0,0.0,0.59841,-0.14528610184526103,9.77262389815474
100000000.0,22.09,0.0,0.0,0.0,0.57486599417286,-0.16284600388476003,9.80215200776952
105000000.0,22.09,0.0,0.0,0.0,0.584479804078998,-0.15902009796050098,9.840999608157997
110000000.0,22.09,0.0,0.0,0.0,0.6039036042732361,-0.15696,9.856891802136618
115000000.0,22.09,0.0,0.0,0.0,0.5931125955325259,-0.164513702233737,9.828835191065052
120000000.0,22.09,0.0,0.0,0.0,0.5886,-0.16677,9.767620783684007
125000000.0,22.09,0.0,0.0,0.0,0.5886,-0.15941249757202497,9.79528501456785
130000000.0,22.09,0.0,0.0,0.0,0.603118805050188,-0.164219402525094,9.817259402525094
135000000.0,22.09,0.0,0.0,0.0,0.6225426052444261,-0.16677,9.834132605244426
140000000.0,22.09,0.0,0.0,0.0,0.606650391842004,-0.15970679728066797,9.818240391842004
145000000.0,22.09,0.0,0.0,0.0,0.591444897183549,-0.15696,9.7960697943671
150000000.0,22.09,0.0,0.0,0.0,0.60233400582714,-0.1363589912592899,9.77664599417286
155000000.0,22.09,0.0,0.0,0.0,0.594682193978622,-0.15460561204275614,9.797835612042757
160000000.0,22.09,0.0,0.0,0.0,0.595270803107808,-0.16009919689219196,9.816670803107808
165000000.0,22.09,0.0,0.0,0.0,0.591837296795073,-0.16353270320492702,9.826382703204928
170000000.0,22.09,0.0,0.0,0.0,0.5950746033020461,-0.17324460330204602,9.81667079339591
175000000.0,22.09,0.0,0.0,0.0,0.6047865033991651,-0.17020349660083497,9.81
180000000.0,22.09,0.0,0.0,0.0,0.595663193007432,-0.16049159650371597,9.82255680699257
185000000.0,22.09,0.0,0.0,0.0,0.6009606071868061,-0.15696,9.817259392813193
190000000.0,22.09,0.0,0.0,0.0,0.5899733889284339,-0.16304220369052203,9.81
195000000.0,22.09,0.0,0.0,0.0,0.57879,-0.16078589621235895,9.80401589621236
200000000.0,22.09,0.0,0.0,0.0,0.5905620077695201,-0.15696,9.811962007769521
205000000.0,22.09,0.0,0.0,0.0,0.59841,-0.14538419203624192,9.814022096018121
210000000.0,22.09,0.0,0.0,0.0,0.5870303918420039,-0.15440941223699411,9.815689804078998
215000000.0,22.09,0.0,0.0,0.0,0.5899734083522341,-0.14999488747164888,9.81981
220000000.0,22.09,0.0,0.0,0.0,0.59841,-0.14283360427323605,9.814316395726765
225000000.0,22.09,0.0,0.0,0.0,0.5930144956296449,-0.14175449562964496,9.79920899125929
230000000.0,22.09,0.0,0.0,0.0,0.5886,-0.1479348089349481,9.80097480893495
235000000.0,22.09,0.0,0.0,0.0,0.5989986091291861,-0.16215930456459304,9.81
240000000.0,22.09,0.0,0.0,0.0,0.6031187953382879,-0.16677,9.81
245000000.0,22.09,0.0,0.0,0.0,0.5834006857235069,-0.17177310475883104,9.820006209517663
250000000.0,22.09,0.0,0.0,0.0,0.5738850048559501,-0.16186498543214986,9.824714995144051
255000000.0,22.09,0.0,0.0,0.0,0.5884038099061382,-0.15195690495306904,9.815003095046931
260000000.0,22.09,0.0,0.0,0.0,0.5889923898996239,-0.15696,9.805291194949813
265000000.0,22.09,0.0,0.0,0.0,0.583400705147307,-0.16157070514730704,9.804800705147308
270000000.0,22.09,0.0,0.0,0.0,0.5886,-0.16225739475557394,9.83256302622213
275000000.0,22.09,0.0,0.0,0.0,0.5930145053415451,-0.14813098931690988,9.841391978633819
280000000.0,22.09,0.0,0.0,0.0,0.6070428108773281,-0.14165640543866406,9.815493594561337
285000000.0,22.09,0.0,0.0,0.0,0.6053750833926509,-0.15136830553578307,9.793126777856868
290000000.0,22.09,0.0,0.0,0.0,0.5927202056329021,-0.15696,9.787240822531608
295000000.0,22.09,0.0,0.0,0.0,0.594387894269979,-0.15696,9.822066317190064
300000000.0,22.09,0.0,0.0,0.0,0.5886,-0.15696,9.83550599417286
305000000.0,22.09,0.0,0.0,0.0,0.5771222822272228,-0.15696,9.814316376302964
310000000.0,22.09,0.0,0.0,0.0,0.5628978060213781,-0.15696,9.79038
315000000.0,22.09,0.0,0.0,0.0,0.5762394122369942,-0.15333029388150293,9.797639412236995
320000000.0,22.09,0.0,0.0,0.0,0.5921316062156161,-0.14715,9.820594818646848
325000000.0,22.09,0.0,0.0,0.0,0.5881094810617948,-0.15058350631273507,9.83943
330000000.0,22.09,0.0,0.0,0.0,0.5723154064098541,-0.15028918718029186,9.82275296795073
335000000.0,22.09,0.0,0.0,0.0,0.5820273065069731,-0.14057730650697306,9.783905386986055
340000000.0,22.09,0.0,0.0,0.0,0.585460793395908,-0.15342841320818412,9.783316826416367
345000000.0,22.09,0.0,0.0,0.0,0.5909544268048443,-0.16372889329878892,9.816082213402423
350000000.0,22.09,0.0,0.0,0.0,0.6121439864033399,-0.15696,9.82962
355000000.0,22.09,0.0,0.0,0.0,0.601254906895449,-0.15411509310455093,9.812550558627306
360000000.0,22.09,0.0,0.0,0.0,0.5999795790222958,-0.14989680699256808,9.779000420977704
365000000.0,22.09,0.0,0.0,0.0,0.5867361212690613,-0.15431129291031292,9.80019
370000000.0,22.09,0.0,0.0,0.0,0.6056693928131939,-0.14459939281319392,9.80784182156042
375000000.0,22.09,0.0,0.0,0.0,0.5910524781482248,-0.13734,9.827167492716075
380000000.0,22.09,0.0,0.0,0.0,0.5736888147620882,-0.14204881476208814,9.817455592618956
385000000.0,22.09,0.0,0.0,0.0,0.5863436925218369,-0.15696,9.803231077565512
390000000.0,22.09,0.0,0.0,0.0,0.5809482075752821,-0.15696,9.784886415150565
395000000.0,22.09,0.0,0.0,0.0,0.5906601076724011,-0.15696,9.808430430689604
400000000.0,22.09,0.0,0.0,0.0,0.60037200776952,-0.15696,9.82569594561336
405000000.0,22.09,0.0,0.0,0.0,0.6026282764000828,-0.15882390786663908,9.774487815733277
410000000.0,22.09,0.0,0.0,0.0,0.57879,-0.16147257610872576,9.795677423891275
415000000.0,22.09,0.0,0.0,0.0,0.57879,-0.14067541612175416,9.818142291939123
420000000.0,22.09,0.0,0.0,0.0,0.5772203918420039,-0.15696,9.808430391842004
425000000.0,22.09,0.0,0.0,0.0,0.5733945247653452,-0.15401698348976983,9.80019
430000000.0,22.09,0.0,0.0,0.0,0.5942897749432977,-0.13734,9.801563408352235
435000000.0,22.09,0.0,0.0,0.0,0.5702553084493531,-0.13989061689870616,9.811275308449353
440000000.0,22.09,0.0,0.0,0.0,0.5823216256394163,-0.1557827914535279,9.823341625639417
445000000.0,22.09,0.0,0.0,0.0,0.6060617827128179,-0.1493082172871822,9.841686239494862
450000000.0,22.09,0.0,0.0,0.0,0.5866379825185798,-0.16775100874071008,9.778607982518581
455000000.0,22.09,0.0,0.0,0.0,0.5725116353513164,-0.17481418232434182,9.764481635351316
460000000.0,22.09,0.0,0.0,0.0,0.607435191065052,-0.15696,9.80489885360969
465000000.0,22.09,0.0,0.0,0.0,0.59841,-0.15696,9.858363290967933
470000000.0,22.09,0.0,0.0,0.0,0.5989986091291861,-0.15813721825837218,9.845708345224883
475000000.0,22.09,0.0,0.0,0.0,0.6077294907736949,-0.1760894907736949,9.788908472321085
480000000.0,22.09,0.0,0.0,0.0,0.5976251813531518,-0.16677,9.762127227970272
485000000.0,22.09,0.0,0.0,0.0,0.5793786188410862,-0.1664756905794569,9.791851547102716
490000000.0,22.09,0.0,0.0,0.0,0.59841,-0.1563713714470137,9.839822419035324
495000000.0,22.09,0.0,0.0,0.0,0.59841,-0.1276281096147811,9.858559451926094
500000000.0,22.09,0.0,0.0,0.0,0.5984100097119001,-0.1373399902880999,9.8099999708643
505000000.0,22.09,0.0,0.0,0.0,0.608121909809019,-0.1276280901909809,9.780864270572943
510000000.0,22.09,0.0,0.0,0.0,0.5793785702815857,-0.15637142971841428,9.79018380990614
515000000.0,22.09,0.0,0.0,0.0,0.6073371300097713,-0.14744428999674292,9.8569899700228
520000000.0,22.09,0.0,0.0,0.0,0.5799671696988717,-0.1659852202007522,9.81196194949812
525000000.0,22.09,0.0,0.0,0.0,0.5881095101974951,-0.16677,9.800680489802506
530000000.0,22.09,0.0,0.0,0.0,0.5886,-0.1298843588215436,9.790968589705386
535000000.0,22.09,0.0,0.0,0.0,0.5886,-0.1457766207834662,9.79038
540000000.0,22.09,0.0,0.0,0.0,0.5795747895111479,-0.1290995790222958,9.808430420977706
545000000.0,22.09,0.0,0.0,0.0,0.5609357788280578,-0.16323844234388443,9.845708442343884
550000000.0,22.09,0.0,0.0,0.0,0.5944860427323604,-0.16677,9.81392395726764
555000000.0,22.09,0.0,0.0,0.0,0.5722172676593728,-0.1755009107802091,9.775076356879163
560000000.0,22.09,0.0,0.0,0.0,0.5948784326319844,-0.1506815673680157,9.77939281087733
565000000.0,22.09,0.0,0.0,0.0,0.59841,-0.1300805780511058,9.814708843897789
570000000.0,22.09,0.0,0.0,0.0,0.5815367778568677,-0.1359666110715661,9.845119833214698
575000000.0,22.09,0.0,0.0,0.0,0.5871285111686851,-0.13734,9.81588595532526
580000000.0,22.09,0.0,0.0,0.0,0.5886,-0.17854205632902057,9.793519177468392
585000000.0,22.09,0.0,0.0,0.0,0.5804576886370769,-0.15382075454830754,9.806664622725847
590000000.0,22.09,0.0,0.0,0.0,0.5948784229200842,-0.16323842292008423,9.818044211460043
595000000.0,22.09,0.0,0.0,0.0,0.5825177768856777,-0.1747161115571611,9.81186388844284
600000000.0,22.09,0.0,0.0,0.0,0.57879,-0.13733994172859942,9.81784801165428
605000000.0,22.09,0.0,0.0,0.0,0.57879,-0.15077973525419736,9.812060088248602
610000000.0,22.09,0.0,0.0,0.0,0.5864418118485182,-0.15696,9.817651811848519
615000000.0,22.09,0.0,0.0,0.0,0.6037074238912742,-0.15696,9.834917423891275
620000000.0,22.09,0.0,0.0,0.0,0.60822,-0.14950438795724388,9.794696327743464
625000000.0,22.09,0.0,0.0,0.0,0.5861474635803746,-0.16922253641962537,9.795285024279751
630000000.0,22.09,0.0,0.0,0.0,0.5933088244739882,-0.1475423510520235,9.807449412236995
635000000.0,22.09,0.0,0.0,0.0,0.5912486876658869,-0.15882393700233938,9.845806561670566
640000000.0,22.09,0.0,0.0,0.0,0.5956632124312321,-0.15264357513753576,9.830797150275071
645000000.0,22.09,0.0,0.0,0.0,0.5914448874716489,-0.1541151125283511,9.805879774943298
650000000.0,22.09,0.0,0.0,0.0,0.5817329873745299,-0.15696,9.77958896212359
655000000.0,22.09,0.0,0.0,0.0,0.57879,-0.14342217455482173,9.797835650890356
660000000.0,22.09,0.0,0.0,0.0,0.5854608128197082,-0.14401081281970812,9.85002487691825
665000000.0,22.09,0.0,0.0,0.0,0.5951727129168272,-0.15372271291682713,9.855714574166345
670000000.0,22.09,0.0,0.0,0.0,0.5919353869860539,-0.16343461301394613,9.823341547944215
675000000.0,22.09,0.0,0.0,0.0,0.5822234868889349,-0.16039348688893487,9.78449394755574
680000000.0,22.09,0.0,0.0,0.0,0.5662331735836318,-0.14440317358363172,9.777038413208185
685000000.0,22.09,0.0,0.0,0.0,0.5591700000000001,-0.1620612532212125,9.81765187983182
690000000.0,22.09,0.0,0.0,0.0,0.5713344268048443,-0.1400867195854672,9.83943
695000000.0,22.09,0.0,0.0,0.0,0.5907582269990823,-0.13567234049862342,9.815493546001836
700000000.0,22.09,0.0,0.0,0.0,0.59841,-0.15303601359666014,9.81196202719332
705000000.0,22.09,0.0,0.0,0.0,0.5868341726124418,-0.14538417261244171,9.802446258918664
710000000.0,22.09,0.0,0.0,0.0,0.5844798137908982,-0.1544094413726944,9.79038
715000000.0,22.09,0.0,0.0,0.0,0.5941917138880172,-0.16117828611198284,9.812746855552069
720000000.0,22.09,0.0,0.0,0.0,0.5929163860148638,-0.16245361398513614,9.818632772029728
725000000.0,22.09,0.0,0.0,0.0,0.5886,-0.15597897183548973,9.79920897183549
730000000.0,22.09,0.0,0.0,0.0,0.5991948283587483,-0.15774482835874828,9.806272242538123
735000000.0,22.09,0.0,0.0,0.0,0.5874227428940274,-0.16677,9.814610685723506
740000000.0,22.09,0.0,0.0,0.0,0.5842836431208365,-0.18207364312083643,9.815101214373612
745000000.0,22.09,0.0,0.0,0.0,0.6034131144707311,-0.16618131317561313,9.799797542117076
750000000.0,22.09,0.0,0.0,0.0,0.6033149854321499,-0.13734,9.78547501456785
755000000.0,22.09,0.0,0.0,0.0,0.59841,-0.14695382932993828,9.804800743994909
760000000.0,22.09,0.0,0.0,0.0,0.5937011852379118,-0.15696,9.829227629524176
765000000.0,22.09,0.0,0.0,0.0,0.5932107148592072,-0.15234928514079285,9.820987140563172
770000000.0,22.09,0.0,0.0,0.0,0.59841,-0.15166261495632616,9.791164770087349
775000000.0,22.09,0.0,0.0,0.0,0.6028245150534451,-0.17020354516033545,9.784984515053447
780000000.0,22.09,0.0,0.0,0.0,0.60822,-0.17344075454830754,9.807645660602256
785000000.0,22.09,0.0,0.0,0.0,0.5913467390092674,-0.16961494574304944,9.82962
790000000.0,22.09,0.0,0.0,0.0,0.5731002153448022,-0.16578892327598924,9.817259353965595
795000000.0,22.09,0.0,0.0,0.0,0.57879,-0.1534284617676846,9.784101538232315
800000000.0,22.09,0.0,0.0,0.0,0.57879,-0.16873196892191966,9.76879803107808
805000000.0,22.09,0.0,0.0,0.0,0.57879,-0.1646118312723183,9.803525493816956
810000000.0,22.09,0.0,0.0,0.0,0.5862456314665563,-0.1579409213336092,9.835702184266722
815000000.0,22.09,0.0,0.0,0.0,0.5947802841696028,-0.14204886332158864,9.822360568339207
820000000.0,22.09,0.0,0.0,0.0,0.5921316159275162,-0.17383323185503233,9.799405152217453
825000000.0,22.09,0.0,0.0,0.0,0.59841,-0.17265593590145936,9.784003516024637
830000000.0,22.09,0.0,0.0,0.0,0.6017454161217541,-0.14715,9.807057080608772
835000000.0,22.09,0.0,0.0,0.0,0.6017453675622537,-0.14391268378112684,9.842667316218874
840000000.0,22.09,0.0,0.0,0.0,0.5917392163159921,-0.13734,9.836683134736031
845000000.0,22.09,0.0,0.0,0.0,0.5953688835868889,-0.14342223282622232,9.803917767173779
850000000.0,22.09,0.0,0.0,0.0,0.5915430165102302,-0.16284603302046033,9.805095082551151
855000000.0,22.09,0.0,0.0,0.0,0.5898752501779525,-0.1680452501779525,9.830895250177953
860000000.0,22.09,0.0,0.0,0.0,0.5799672668178727,-0.14715,9.812746816704468
865000000.0,22.09,0.0,0.0,0.0,0.6055712831984128,-0.14715,9.814512566396827
870000000.0,22.09,0.0,0.0,0.0,0.59841,-0.14715,9.80019
875000000.0,22.09,0.0,0.0,0.0,0.6008625169958252,-0.14960251699582516,9.81490510197495
880000000.0,22.09,0.0,0.0,0.0,0.6058655829070558,-0.1546055829070558,9.84727791453528
885000000.0,22.09,0.0,0.0,0.0,0.59841,-0.15843158595031587,9.812256317190064
890000000.0,22.09,0.0,0.0,0.0,0.59841,-0.18540891356408915,9.811177130851272
895000000.0,22.09,0.0,0.0,0.0,0.5963498826156989,-0.14302976523139765,9.792930704305808
900000000.0,22.09,0.0,0.0,0.0,0.5984100874071009,-0.13930210488852104,9.83943
905000000.0,22.09,0.0,0.0,0.0,0.6283304121073041,-0.17707041210730412,9.83756608242146
910000000.0,22.09,0.0,0.0,0.0,0.5903658176756582,-0.14263745302697453,9.826088364648683
915000000.0,22.09,0.0,0.0,0.0,0.59841,-0.1651022822272228,9.806664564454445
920000000.0,22.09,0.0,0.0,0.0,0.5952707642602076,-0.1632384714795847,9.796658471479585
925000000.0,22.09,0.0,0.0,0.0,0.57879,-0.1903139281319393,9.828148482032985
930000000.0,22.09,0.0,0.0,0.0,0.5774165819358659,-0.15696,9.81981
935000000.0,22.09,0.0,0.0,0.0,0.5702553181612532,-0.15823531816125316,9.814708727354988
940000000.0,22.09,0.0,0.0,0.0,0.5799672182583722,-0.1655927817416278,9.781747218258372
945000000.0,22.09,0.0,0.0,0.0,0.5907582367109824,-0.15803911835549117,9.795775591777456
950000000.0,22.09,0.0,0.0,0.0,0.6062579630947796,-0.16480796309477963,9.83943
955000000.0,22.09,0.0,0.0,0.0,0.5894829185497292,-0.14979875564918757,9.83854708145027
960000000.0,22.09,0.0,0.0,0.0,0.5991948186468482,-0.1757951813531518,9.827265544059456
965000000.0,22.09,0.0,0.0,0.0,0.6075332812560328,-0.16470984376809844,9.80019
970000000.0,22.09,0.0,0.0,0.0,0.59841,-0.13851723768217236,9.80019
975000000.0,22.09,0.0,0.0,0.0,0.5979194810617948,-0.1559789621235896,9.802152075752822
980000000.0,22.09,0.0,0.0,0.0,0.5886,-0.13773241903532418,9.83943
985000000.0,22.09,0.0,0.0,0.0,0.5891886382648864,-0.1477386382648864,9.83854704260267
990000000.0,22.09,0.0,0.0,0.0,0.6080237807704378,-0.1665737807704378,9.81
995000000.0,22.09,0.0,0.0,0.0,0.5982137613466376,-0.1567637613466376,9.81
1000000000.0,22.09,0.0,0.0,0.0,0.5787900388476004,-0.13733998057619978,9.8100000194238
1005000000.0,22.09,0.0,0.0,0.0,0.5982138390418383,-0.1276280804790808,9.81971191952092
1010000000.0,22.09,0.0,0.0,0.0,0.6080238196180382,-0.15637145885411458,9.81981
1015000000.0,22.09,0.0,0.0,0.0,0.5796728408545284,-0.1474442802848428,9.838841439430315
1020000000.0,22.09,0.0,0.0,0.0,0.57879,-0.15656761981227618,9.79234190093862
1025000000.0,22.09,0.0,0.0,0.0,0.5974290398187904,-0.15696,9.781060480090606
1030000000.0,22.09,0.0,0.0,0.0,0.5799671599869716,-0.1385171599869716,9.808234260019542
1035000000.0,22.09,0.0,0.0,0.0,0.57879,-0.1464633201036332,9.791753359792734
1040000000.0,22.09,0.0,0.0,0.0,0.5878152202007522,-0.17422566060225658,9.83550610100376
1045000000.0,22.09,0.0,0.0,0.0,0.5707457594042576,-0.1587257594042576,9.83943
1050000000.0,22.09,0.0,0.0,0.0,0.5954670611849706,-0.1481309796050098,9.830600979605011
1055000000.0,22.09,0.0,0.0,0.0,0.5809481590157816,-0.14715,9.812158159015782
1060000000.0,22.09,0.0,0.0,0.0,0.5960556411784564,-0.14715,9.792734358821544
1065000000.0,22.09,0.0,0.0,0.0,0.59841,-0.16421944137269442,9.781845279313654
1070000000.0,22.09,0.0,0.0,0.0,0.6068466207834662,-0.1583333792165338,9.873372828618129
1075000000.0,22.09,0.0,0.0,0.0,0.5748659164776592,-0.16529852088058522,9.85512591647766
1080000000.0,22.09,0.0,0.0,0.0,0.5937012629331127,-0.1502891580445916,9.824518737066887
1085000000.0,22.09,0.0,0.0,0.0,0.5902676789251768,-0.14715,9.754671431401414
1090000000.0,22.09,0.0,0.0,0.0,0.5886,-0.14715,9.77350688468777
1095000000.0,22.09,0.0,0.0,0.0,0.5806538787309388,-0.14715,9.812354485076245
1100000000.0,22.09,0.0,0.0,0.0,0.5866380213661803,-0.1549980213661802,9.83550604273236
1105000000.0,22.09,0.0,0.0,0.0,0.5808500785367008,-0.15696,9.8471799214633
1110000000.0,22.09,0.0,0.0,0.0,0.5940936431208365,-0.15696,9.788025427516654
1115000000.0,22.09,0.0,0.0,0.0,0.59841,-0.14940627834246278,9.785867443315075
1120000000.0,22.09,0.0,0.0,0.0,0.5760431347360314,-0.16951686526396864,9.820202487018625
1125000000.0,22.09,0.0,0.0,0.0,0.5836950437035504,-0.17658,9.82962
1130000000.0,22.09,0.0,0.0,0.0,0.5886,-0.16932057805110579,9.815101156102212
1135000000.0,22.09,0.0,0.0,0.0,0.5742773559079736,-0.15960867795398678,9.81
1140000000.0,22.09,0.0,0.0,0.0,0.5972328885725289,-0.15696,9.81
1145000000.0,22.09,0.0,0.0,0.0,0.5803595110389952,-0.15696,9.81
1150000000.0,22.09,0.0,0.0,0.0,0.5621129776626298,-0.15009297766262977,9.82373404467474
1155000000.0,22.09,0.0,0.0,0.0,0.5930146121724461,-0.16068784486897844,9.809313232696534
1160000000.0,22.09,0.0,0.0,0.0,0.5948783549367835,-0.16009917746839178,9.813531645063216
1165000000.0,22.09,0.0,0.0,0.0,0.5820272773712728,-0.17010544525745444,9.806664554742547
1170000000.0,22.09,0.0,0.0,0.0,0.5723153772741538,-0.16363075454830753,9.80019
1175000000.0,22.09,0.0,0.0,0.0,0.5817330456459304,-0.14420695435406952,9.80019
1180000000.0,22.09,0.0,0.0,0.0,0.5886,-0.16873211460042115,9.793911577079916
1185000000.0,22.09,0.0,0.0,0.0,0.5886,-0.15548838491398384,9.802740646034406
1190000000.0,22.09,0.0,0.0,0.0,0.5946822231143223,-0.14950444622864445,9.816082223114323
1195000000.0,22.09,0.0,0.0,0.0,0.5924258767885587,-0.15097587678855875,9.81382587678856
1200000000.0,22.09,0.0,0.0,0.0,0.5827139766914398,-0.14715,9.78645590676576
1205000000.0,22.09,0.0,0.0,0.0,0.57879,-0.14715,9.793911693622716
1210000000.0,22.09,0.0,0.0,0.0,0.5901696470055965,-0.15283982350279823,9.8156898235028
1215000000.0,22.09,0.0,0.0,0.0,0.6040017235999172,-0.15696,9.814218276400084
1220000000.0,22.09,0.0,0.0,0.0,0.6027263763029638,-0.16245362369703623,9.815493623697037
1225000000.0,22.09,0.0,0.0,0.0,0.5876189524116895,-0.17216552379415523,9.803623428617534
1230000000.0,22.09,0.0,0.0,0.0,0.5893848477825485,-0.1659851522174515,9.785082576108726
1235000000.0,22.09,0.0,0.0,0.0,0.5880113520232135,-0.15696,9.801367295953574
1240000000.0,22.09,0.0,0.0,0.0,0.5889924481710245,-0.15696,9.830012448171026
1245000000.0,22.09,0.0,0.0,0.0,0.5884037516347376,-0.15195687581736875,9.829423751634737
1250000000.0,22.09,0.0,0.0,0.0,0.5935050728392507,-0.14715,9.79528487860125
1255000000.0,22.09,0.0,0.0,0.0,0.5937992268693922,-0.15195692437686925,9.789987697507478
1260000000.0,22.09,0.0,0.0,0.0,0.5882076489479765,-0.16166882447398823,9.824126473421964
1265000000.0,22.09,0.0,0.0,0.0,0.59841,-0.15293782628667826,9.830208550857785
1270000000.0,22.09,0.0,0.0,0.0,0.5938973753317738,-0.14636524933645248,9.815297375331774
1275000000.0,22.09,0.0,0.0,0.0,0.5930145247653452,-0.15254547523465475,9.81
1280000000.0,22.09,0.0,0.0,0.0,0.59841,-0.15146642486246426,9.797050725412609
1285000000.0,22.09,0.0,0.0,0.0,0.59841,-0.16117832495958323,9.79322497487875
1290000000.0,22.09,0.0,0.0,0.0,0.59841,-0.16264977494329774,9.814120225056703
1295000000.0,22.09,0.0,0.0,0.0,0.5903657496923576,-0.1489157496923575,9.81578787484618
1300000000.0,22.09,0.0,0.0,0.0,0.5944861010037611,-0.12949194949811949,9.81
1305000000.0,22.09,0.0,0.0,0.0,0.6103781493038816,-0.1253718506961185,9.81
1310000000.0,22.09,0.0,0.0,0.0,0.6021378254451782,-0.14106782544517826,9.81
1315000000.0,22.09,0.0,0.0,0.0,0.6009605489154055,-0.15803917662689176,9.806370274457704
1320000000.0,22.09,0.0,0.0,0.0,0.5921316256394162,-0.16951674872116748,9.796658374360584
1325000000.0,22.09,0.0,0.0,0.0,0.59841,-0.16039352573653526,9.80411410294614
1330000000.0,22.09,0.0,0.0,0.0,0.59841,-0.16009914833269148,9.82962
1335000000.0,22.09,0.0,0.0,0.0,0.6016473259307733,-0.15038732593077325,9.826382674069228
1340000000.0,22.09,0.0,0.0,0.0,0.6050807739721077,-0.15382077397210772,9.80725309588843
1345000000.0,22.09,0.0,0.0,0.0,0.586245495499955,-0.15019112612501126,9.78057
1350000000.0,22.09,0.0,0.0,0.0,0.570942104888521,-0.15990302622213026,9.798228157332781
1355000000.0,22.09,0.0,0.0,0.0,0.5927201473615015,-0.1582352210422522,9.836585073680752
1360000000.0,22.09,0.0,0.0,0.0,0.5870304792491048,-0.14283365283273652,9.82962
1365000000.0,22.09,0.0,0.0,0.0,0.6055712734865127,-0.15431127348651272,9.81902509394605
1370000000.0,22.09,0.0,0.0,0.0,0.5958593733893938,-0.15225125322121252,9.787829373389394
1375000000.0,22.09,0.0,0.0,0.0,0.5910525267077252,-0.16922252670772525,9.778117473292275
1380000000.0,22.09,0.0,0.0,0.0,0.5937011463903115,-0.16951671958546718,9.78253213402422
1385000000.0,22.09,0.0,0.0,0.0,0.5765336730980367,-0.14715,9.82657898070589
1390000000.0,22.09,0.0,0.0,0.0,0.5732964539981645,-0.14930822699908228,9.836290638005506
1395000000.0,22.09,0.0,0.0,0.0,0.5886,-0.15902012709620125,9.784199618711396
1400000000.0,22.09,0.0,0.0,0.0,0.5905620271933203,-0.16480797280667972,9.7707601359666
1405000000.0,22.09,0.0,0.0,0.0,0.59841,-0.15696,9.817455709161758
1410000000.0,22.09,0.0,0.0,0.0,0.5931125178373252,-0.15872582738755828,9.842176690449767
1415000000.0,22.09,0.0,0.0,0.0,0.5723154549693545,-0.16176681754596817,9.804996817545968
1420000000.0,22.09,0.0,0.0,0.0,0.5886,-0.14047925516359255,9.777430744836408
1425000000.0,22.09,0.0,0.0,0.0,0.5900715276789152,-0.15990305535783053,9.768307638394576
1430000000.0,22.09,0.0,0.0,0.0,0.59841,-0.17383314444793144,9.812746855552069
1435000000.0,22.09,0.0,0.0,0.0,0.5996853278731533,-0.15823532787315328,9.830895327873154
1440000000.0,22.09,0.0,0.0,0.0,0.6046883160891832,-0.16559277202972772,9.837075544059456
1445000000.0,22.09,0.0,0.0,0.0,0.5820273842021738,-0.15588087193260872,9.818730871932608
1450000000.0,22.09,0.0,0.0,0.0,0.6062579436709794,-0.1481310281645103,9.80803794367098
1455000000.0,22.09,0.0,0.0,0.0,0.5877170717383707,-0.15784292826162927,9.792145856523259
1460000000.0,22.09,0.0,0.0,0.0,0.5795748283587483,-0.16520034328250344,9.810784828358749
1465000000.0,22.09,0.0,0.0,0.0,0.5879132715441328,-0.1478367284558673,9.817749814632398
1470000000.0,22.09,0.0,0.0,0.0,0.5793786285529863,-0.15696,9.789791371447015
1475000000.0,22.09,0.0,0.0,0.0,0.5871284140496842,-0.15794105730021057,9.783513171900633
1480000000.0,22.09,0.0,0.0,0.0,0.5599548574944486,-0.17579514250555142,9.83943
1485000000.0,22.09,0.0,0.0,0.0,0.5784956711556567,-0.15607701346697012,9.839135671155656
1490000000.0,22.09,0.0,0.0,0.0,0.5697649157658492,-0.12753,9.828442626351226
1495000000.0,22.09,0.0,0.0,0.0,0.60822,-0.1277262580771626,9.771250645192906
1500000000.0,22.09,0.0,0.0,0.0,0.6082199417285994,-0.1471500291357003,9.8198099708643
1505000000.0,22.09,0.0,0.0,0.0,0.5887961415343614,-0.15686192923281927,9.81009807076718
1510000000.0,22.09,0.0,0.0,0.0,0.5886,-0.1665738293299383,9.81
1515000000.0,22.09,0.0,0.0,0.0,0.5886,-0.16677,9.819515729427058
1520000000.0,22.09,0.0,0.0,0.0,0.5886,-0.1479347409516474,9.791557111427473
1525000000.0,22.09,0.0,0.0,0.0,0.6072390592425906,-0.1564695296212953,9.80901905924259
1530000000.0,22.09,0.0,0.0,0.0,0.5989985702815857,-0.1661814297184143,9.81
1535000000.0,22.09,0.0,0.0,0.0,0.5892866701844667,-0.14852334036893342,9.819123329815534
1540000000.0,22.09,0.0,0.0,0.0,0.5886,-0.1652004598253046,9.810784770087349
1545000000.0,22.09,0.0,0.0,0.0,0.5796728699902287,-0.1489157399804574,9.792145739980459
1550000000.0,22.09,0.0,0.0,0.0,0.5876190301068903,-0.13832096989310969,9.825696120427562
1555000000.0,22.09,0.0,0.0,0.0,0.5886,-0.1460709302040093,9.847081860408018
1560000000.0,22.09,0.0,0.0,0.0,0.5886,-0.1644156606022566,9.806075848494359
1565000000.0,22.09,0.0,0.0,0.0,0.5886,-0.1411658088052581,9.80019
1570000000.0,22.09,0.0,0.0,0.0,0.5886,-0.13734,9.808626630495366
1575000000.0,22.09,0.0,0.0,0.0,0.5802614694075148,-0.13734,9.835015591777456
1580000000.0,22.09,0.0,0.0,0.0,0.5952708613792086,-0.1538208613792086,9.83943
1585000000.0,22.09,0.0,0.0,0.0,0.59841,-0.16510233078672332,9.815003007639831
1590000000.0,22.09,0.0,0.0,0.0,0.59841,-0.13459307646463076,9.785867307348473
1595000000.0,22.09,0.0,0.0,0.0,0.6063561309809613,-0.15136839294288393,9.788516130980963
1600000000.0,22.09,0.0,0.0,0.0,0.6003719689219197,-0.1491119689219197,9.813924093234242
1605000000.0,22.09,0.0,0.0,0.0,0.5829101376496014,-0.16264986235039863,9.8353098623504
1610000000.0,22.09,0.0,0.0,0.0,0.57879,-0.15911816872768167,9.824126337455363
1615000000.0,22.09,0.0,0.0,0.0,0.5938974627388747,-0.1494062686305627,9.782041343152812
1620000000.0,22.09,0.0,0.0,0.0,0.5834987370668874,-0.1396943685334437,9.778215631466557
1625000000.0,22.09,0.0,0.0,0.0,0.5861475315636754,-0.14469753156367532,9.817357657818377
1630000000.0,22.09,0.0,0.0,0.0,0.5740811366784114,-0.15440943166079432,9.84413886332159
1635000000.0,22.09,0.0,0.0,0.0,0.5761413317579134,-0.14979866824208668,9.80627200945252
1640000000.0,22.09,0.0,0.0,0.0,0.5858532318550324,-0.16127646371006465,9.783316768144969
1645000000.0,22.09,0.0,0.0,0.0,0.5886,-0.15980486804784869,9.787535131952152
1650000000.0,22.09,0.0,0.0,0.0,0.6023340640985406,-0.15009296795072968,9.831582192295622
1655000000.0,22.09,0.0,0.0,0.0,0.5946821357072214,-0.16745679643916794,9.862777864292779
1660000000.0,22.09,0.0,0.0,0.0,0.5952708322435083,-0.17658,9.835505838782458
1665000000.0,22.09,0.0,0.0,0.0,0.59841,-0.16343453531874533,9.780373605956235
1670000000.0,22.09,0.0,0.0,0.0,0.59841,-0.14401073512450735,9.773899264875492
1675000000.0,22.09,0.0,0.0,0.0,0.6047865325348654,-0.15646959760459597,9.831582260278923
1680000000.0,22.09,0.0,0.0,0.0,0.60822,-0.15421313473603135,9.865328432631983
1685000000.0,22.09,0.0,0.0,0.0,0.5958593345417933,-0.15333033272910332,9.837958336354484
1690000000.0,22.09,0.0,0.0,0.0,0.5825177671737777,-0.15087776717377765,9.789398835868887
1695000000.0,22.09,0.0,0.0,0.0,0.5907582658466827,-0.14715,9.752807601229975
1700000000.0,22.09,0.0,0.0,0.0,0.5925239669795397,-0.13537793395907935,9.794304297184143
1705000000.0,22.09,0.0,0.0,0.0,0.5886,-0.15068173247031733,9.83540793311758
1710000000.0,22.09,0.0,0.0,0.0,0.5942898332146983,-0.16677,9.845119833214698
1715000000.0,22.09,0.0,0.0,0.0,0.59841,-0.16677,9.82687306675273
1720000000.0,22.09,0.0,0.0,0.0,0.5929163665910637,-0.16127636659106365,9.81
1725000000.0,22.09,0.0,0.0,0.0,0.5832044664939446,-0.15696,9.788417865975779
1730000000.0,22.09,0.0,0.0,0.0,0.594682300809523,-0.15166256639682565,9.791949734412697
1735000000.0,22.09,0.0,0.0,0.0,0.5978213325994133,-0.14195066629970665,9.820398667400587
1740000000.0,22.09,0.0,0.0,0.0,0.5937012337974124,-0.14754246759482467,9.82962
1745000000.0,22.09,0.0,0.0,0.0,0.59841,-0.15696,9.819613732210938
1750000000.0,22.09,0.0,0.0,0.0,0.6033150339916503,-0.16677006798330066,9.8001899320167
1755000000.0,22.09,0.0,0.0,0.0,0.5986061318224614,-0.15735226364492264,9.775959197733693
1760000000.0,22.09,0.0,0.0,0.0,0.5838911658141117,-0.14675766837177667,9.784494170929442
1765000000.0,22.09,0.0,0.0,0.0,0.57879,-0.1477385314339853,9.842275139981052
1770000000.0,22.09,0.0,0.0,0.0,0.5878152687602527,-0.13282736561987366,9.869644731239747
1775000000.0,22.09,0.0,0.0,0.0,0.5939954655227546,-0.14077360343173603,9.832562793136528
1780000000.0,22.09,0.0,0.0,0.0,0.5929164345743644,-0.15264356542563565,9.774291392553813
1785000000.0,22.09,0.0,0.0,0.0,0.5941916653285166,-0.15136833467148333,9.770858342700384
1790000000.0,22.09,0.0,0.0,0.0,0.5927202347686024,-0.1487195304627953,9.830601173843013
1795000000.0,22.09,0.0,0.0,0.0,0.6024321348657213,-0.13734,9.851005730268557
1800000000.0,22.09,0.0,0.0,0.0,0.6003719300743193,-0.14126403496284035,9.82373386014864
1805000000.0,22.09,0.0,0.0,0.0,0.5847740649400407,-0.1394981298800813,9.773408454580284
1810000000.0,22.09,0.0,0.0,0.0,0.5899735054712351,-0.1424413406283134,9.75388701094247
1815000000.0,22.09,0.0,0.0,0.0,0.6045902647458027,-0.1595105294916053,9.81941788203358
1820000000.0,22.09,0.0,0.0,0.0,0.5913467292973673,-0.14715,9.865328364648683
1825000000.0,22.09,0.0,0.0,0.0,0.5822235354484354,-0.13684939365469395,9.835015251860952
1830000000.0,22.09,0.0,0.0,0.0,0.5952708710911088,-0.13439717772777177,9.773702822272229
1835000000.0,22.09,0.0,0.0,0.0,0.6017453287146532,-0.1602953287146533,9.754279342570694
1840000000.0,22.09,0.0,0.0,0.0,0.5886,-0.15028923573979236,9.79312694295917
1845000000.0,22.09,0.0,0.0,0.0,0.5886,-0.15696,9.844139086695291
1850000000.0,22.09,0.0,0.0,0.0,0.5886,-0.15696,9.874745712527757
1855000000.0,22.09,0.0,0.0,0.0,0.5857550639688507,-0.1626498720622987,9.802740383813104
1860000000.0,22.09,0.0,0.0,0.0,0.5815368361282683,-0.17383316387173162,9.76095
1865000000.0,22.09,0.0,0.0,0.0,0.5912487362253873,-0.16147252754922528,9.774193681126937
1870000000.0,22.09,0.0,0.0,0.0,0.6009606363225064,-0.15480190896751908,9.822753181612532
1875000000.0,22.09,0.0,0.0,0.0,0.60822,-0.16676985432149852,9.85414492716075
1880000000.0,22.09,0.0,0.0,0.0,0.6058655634832556,-0.13969443651674435,9.832366690449767
1885000000.0,22.09,0.0,0.0,0.0,0.5916409901584099,-0.14715,9.798718316930684
1890000000.0,22.09,0.0,0.0,0.0,0.5711382367109824,-0.14930823671098237,9.767424710132946
1895000000.0,22.09,0.0,0.0,0.0,0.5808501368081014,-0.15489986319189863,9.798620547232407
1900000000.0,22.09,0.0,0.0,0.0,0.5886,-0.15303611071566112,9.83354407381044
1905000000.0,22.09,0.0,0.0,0.0,0.5886,-0.17098818899298188,9.845512125995322
1910000000.0,22.09,0.0,0.0,0.0,0.5921316741989168,-0.14715,9.827854162900541
1915000000.0,22.09,0.0,0.0,0.0,0.6032167884102678,-0.14715,9.814806788410268
1920000000.0,22.09,0.0,0.0,0.0,0.5803596372936964,-0.14871963729369636,9.793519274587393
1925000000.0,22.09,0.0,0.0,0.0,0.5900715373908154,-0.15696,9.81
1930000000.0,22.09,0.0,0.0,0.0,0.5970365625120656,-0.15421312502413123,9.812746874975868
1935000000.0,22.09,0.0,0.0,0.0,0.5886,-0.13861533758505337,9.827069324829894
1940000000.0,22.09,0.0,0.0,0.0,0.5909544753643448,-0.14715,9.808822762317828
1945000000.0,22.09,0.0,0.0,0.0,0.6049825866621259,-0.14499172444141725,9.80019
1950000000.0,22.09,0.0,0.0,0.0,0.5807520757528207,-0.13047311362923114,9.801171037876411
1955000000.0,22.09,0.0,0.0,0.0,0.5975270620264707,-0.15607706202647062,9.812648813920589
1960000000.0,22.09,0.0,0.0,0.0,0.5886,-0.14950451421194513,9.837860323858703
1965000000.0,22.09,0.0,0.0,0.0,0.5865397854966978,-0.17451978549669783,9.81981
1970000000.0,22.09,0.0,0.0,0.0,0.5609359147946592,-0.14832727652977276,9.818044085205342
1975000000.0,22.09,0.0,0.0,0.0,0.5886,-0.16578892327598924,9.79038
1980000000.0,22.09,0.0,0.0,0.0,0.5882075615408756,-0.14832731537737315,9.791557315377373
1985000000.0,22.09,0.0,0.0,0.0,0.580261692781217,-0.17540264577502646,9.820104338556243
1990000000.0,22.09,0.0,0.0,0.0,0.6274475226932753,-0.13753623865336237,9.829423761346638
1995000000.0,22.09,0.0,0.0,0.0,0.6081218612495186,-0.1472481387504814,9.819221167497112
2000000000.0,22.09,0.0,0.0,0.0,0.5984099611523996,-0.15696,9.7609500776952
2005000000.0,22.09,0.0,0.0,0.0,0.5886980610552807,-0.15696,9.78037387788944
2010000000.0,22.09,0.0,0.0,0.0,0.5886,-0.1665738390418384,9.819025356167353
2015000000.0,22.09,0.0,0.0,0.0,0.5790842608610426,-0.1477385217220852,9.838841478277915
2020000000.0,22.09,0.0,0.0,0.0,0.6164605569443057,-0.14715,9.858265278472153
2025000000.0,22.09,0.0,0.0,0.0,0.6087104606668046,-0.14715,9.812452303334023
2030000000.0,22.09,0.0,0.0,0.0,0.5713342422787424,-0.1563714394303144,9.773114242278742
2035000000.0,22.09,0.0,0.0,0.0,0.5963500185823002,-0.1660833395274334,9.807253358109733
2040000000.0,22.09,0.0,0.0,0.0,0.59841,-0.16677,9.819025239624553
2045000000.0,22.09,0.0,0.0,0.0,0.59841,-0.1399885808349858,9.846591419165014
2050000000.0,22.09,0.0,0.0,0.0,0.5895809601812096,-0.15499807963758078,9.813923840724838
2055000000.0,22.09,0.0,0.0,0.0,0.5886,-0.1482290600840906,9.783807180252273
2060000000.0,22.09,0.0,0.0,0.0,0.5886,-0.1557828400130284,9.78920284001303
2065000000.0,22.09,0.0,0.0,0.0,0.5800652598898526,-0.15696,9.807449480220296
2070000000.0,22.09,0.0,0.0,0.0,0.57879,-0.1822699206217992,9.818436640207267
2075000000.0,22.09,0.0,0.0,0.0,0.5871285403043854,-0.1780514596956146,9.811471459695616
2080000000.0,22.09,0.0,0.0,0.0,0.5886,-0.14361823839398236,9.81
2085000000.0,22.09,0.0,0.0,0.0,0.6048846809972468,-0.1536246809972468,9.826284680997247
2090000000.0,22.09,0.0,0.0,0.0,0.5840872782127728,-0.1489157594042576,9.813531518808515
2095000000.0,22.09,0.0,0.0,0.0,0.5867361406928614,-0.13125771861427718,9.80205385930714
2100000000.0,22.09,0.0,0.0,0.0,0.6042960815799608,-0.16677020394990202,9.80019
2105000000.0,22.09,0.0,0.0,0.0,0.5927201182258012,-0.14558023645160234,9.8156898817742
2110000000.0,22.09,0.0,0.0,0.0,0.5962518409842185,-0.1526436819684368,9.804506318031564
2115000000.0,22.09,0.0,0.0,0.0,0.5908562589186626,-0.14940625891866258,9.807743741081337
2120000000.0,22.09,0.0,0.0,0.0,0.5886,-0.16951692353536923,9.81
2125000000.0,22.09,0.0,0.0,0.0,0.5959575412755754,-0.15450737617327376,9.824715082551151
2130000000.0,22.09,0.0,0.0,0.0,0.59841,-0.1544094413726944,9.822360558627306
2135000000.0,22.09,0.0,0.0,0.0,0.5840873170603732,-0.14263731706037316,9.826971341469815
2140000000.0,22.09,0.0,0.0,0.0,0.5929164831338648,-0.1444032415669324,9.808430275299203
2145000000.0,22.09,0.0,0.0,0.0,0.6053751416640514,-0.14715,9.793224858335948
2150000000.0,22.09,0.0,0.0,0.0,0.5876188747164888,-0.14715,9.804114083522341
2155000000.0,22.09,0.0,0.0,0.0,0.5990968255748682,-0.15391894185828942,9.81676894185829
2160000000.0,22.09,0.0,0.0,0.0,0.5815366321783664,-0.15696,9.81981
2165000000.0,22.09,0.0,0.0,0.0,0.5755527420525275,-0.15038725794747257,9.813237257947472
2170000000.0,22.09,0.0,0.0,0.0,0.5852646421496465,-0.16657392644893926,9.81
2175000000.0,22.09,0.0,0.0,0.0,0.5822234577532346,-0.17658,9.79724691550647
2180000000.0,22.09,0.0,0.0,0.0,0.5976253270316533,-0.17030155765611557,9.809215327031653
2185000000.0,22.09,0.0,0.0,0.0,0.5958593151179932,-0.14822897267698973,9.813629657558996
2190000000.0,22.09,0.0,0.0,0.0,0.5764355149237552,-0.14950448507624484,9.81
2195000000.0,22.09,0.0,0.0,0.0,0.5749641426352414,-0.16294414263524143,9.81
2200000000.0,22.09,0.0,0.0,0.0,0.5964481281970813,-0.16677,9.81
2205000000.0,22.09,0.0,0.0,0.0,0.6024320571705206,-0.16098205717052055,9.821575885658959
2210000000.0,22.09,0.0,0.0,0.0,0.6040998429265985,-0.15696,9.823930157073402
2215000000.0,22.09,0.0,0.0,0.0,0.5970365139525652,-0.15696,9.803034770928848
2220000000.0,22.09,0.0,0.0,0.0,0.5886,-0.15146635687916357,9.79038
2225000000.0,22.09,0.0,0.0,0.0,0.5993910864359109,-0.15254554321795544,9.811962172871823
2230000000.0,22.09,0.0,0.0,0.0,0.5976251133698511,-0.15696,9.82962
2235000000.0,22.09,0.0,0.0,0.0,0.5834006565878066,-0.15696,9.819221313175614
2240000000.0,22.09,0.0,0.0,0.0,0.5838912435093124,-0.15696,9.799797512981376
2245000000.0,22.09,0.0,0.0,0.0,0.5835968563935686,-0.15195685639356857,9.800386287212863
2250000000.0,22.09,0.0,0.0,0.0,0.5935051311106513,-0.14224495629644957,9.8198100874071
2255000000.0,22.09,0.0,0.0,0.0,0.6130269438006695,-0.14214694380066945,9.82481305619933
2260000000.0,22.09,0.0,0.0,0.0,0.5944857805110578,-0.1565676877955769,9.810392312204424
2265000000.0,22.09,0.0,0.0,0.0,0.5828122319847223,-0.15754851201018513,9.786357768015277
2270000000.0,22.09,0.0,0.0,0.0,0.5938973559079735,-0.15166264409202643,9.797835864552159
2275000000.0,22.09,0.0,0.0,0.0,0.6062581767565818,-0.1481309116217091,9.834034544189146
2280000000.0,22.09,0.0,0.0,0.0,0.6192071114274711,-0.14597288857252888,9.843746444286264
2285000000.0,22.09,0.0,0.0,0.0,0.5997833112332331,-0.15274165561661654,9.832366622466466
2290000000.0,22.09,0.0,0.0,0.0,0.5927202444805024,-0.15539048896100488,9.797639266558493
2295000000.0,22.09,0.0,0.0,0.0,0.5903657108447571,-0.15872571084475712,9.78057
2300000000.0,22.09,0.0,0.0,0.0,0.5827140446747404,-0.14322595532525956,9.792342134024222
2305000000.0,22.09,0.0,0.0,0.0,0.5924259447718595,-0.14116594477185945,9.81765188954372
2310000000.0,22.09,0.0,0.0,0.0,0.6021378448689785,-0.14715,9.822164310262043
2315000000.0,22.09,0.0,0.0,0.0,0.5973307651017077,-0.14352025503390256,9.81
2320000000.0,22.09,0.0,0.0,0.0,0.5893849351896494,-0.14793493518964934,9.802936709873567
2325000000.0,22.09,0.0,0.0,0.0,0.60822,-0.1736370903206709,9.797247090320672
2330000000.0,22.09,0.0,0.0,0.0,0.6015491094850911,-0.1730482189701822,9.813335445257454
2335000000.0,22.09,0.0,0.0,0.0,0.5853626546454266,-0.15038734535457346,9.81009796393628
2340000000.0,22.09,0.0,0.0,0.0,0.585068490903385,-0.1632384909033849,9.799797736355078
2345000000.0,22.09,0.0,0.0,0.0,0.6014511455488114,-0.16137427225594272,9.822851145548812
2350000000.0,22.09,0.0,0.0,0.0,0.60822,-0.14224522822965227,9.82962
2355000000.0,22.09,0.0,0.0,0.0,0.6025301085139011,-0.17658,9.818240217027803
2360000000.0,22.09,0.0,0.0,0.0,0.5886,-0.1683394624794946,9.787633154159833
2365000000.0,22.09,0.0,0.0,0.0,0.5886,-0.14979874593728745,9.78057
2370000000.0,22.09,0.0,0.0,0.0,0.593701292068813,-0.15185870793118705,9.793323230172033
2375000000.0,22.09,0.0,0.0,0.0,0.6033149077369491,-0.1422450922630509,9.836977638394577
2380000000.0,22.09,0.0,0.0,0.0,0.5933088924572889,-0.15460555377135554,9.849632215085423
2385000000.0,22.09,0.0,0.0,0.0,0.60822,-0.14715,9.817553653674237
2390000000.0,22.09,0.0,0.0,0.0,0.6017452607313526,-0.14930824642288246,9.805683507154235
2395000000.0,22.09,0.0,0.0,0.0,0.5870305860800059,-0.16108029304000293,9.800680732600007
2400000000.0,22.09,0.0,0.0,0.0,0.6141059067657592,-0.16873181353151812,9.83746795338288
2405000000.0,22.09,0.0,0.0,0.0,0.5965460532857605,-0.13920394671423947,9.822164213143042
2410000000.0,22.09,0.0,0.0,0.0,0.5868341531886415,-0.14715,9.788614153188643
2415000000.0,22.09,0.0,0.0,0.0,0.5804577469084775,-0.14715,9.785573240725434
2420000000.0,22.09,0.0,0.0,0.0,0.591739294011193,-0.14871964700559648,9.816278588022387
2425000000.0,22.09,0.0,0.0,0.0,0.6038053586918536,-0.15548845289728452,9.844825358691853
2430000000.0,22.09,0.0,0.0,0.0,0.5815368943996689,-0.14715,9.814316211200662
2435000000.0,22.09,0.0,0.0,0.0,0.59841,-0.14842534729695347,9.779294652703047
2440000000.0,22.09,0.0,0.0,0.0,0.5972327526059276,-0.15813724739407248,9.777823484364434
2445000000.0,22.09,0.0,0.0,0.0,0.590758294982383,-0.16677,9.830699147491192
2450000000.0,22.09,0.0,0.0,0.0,0.60822,-0.1628458096467581,9.83648685723507
2455000000.0,22.09,0.0,0.0,0.0,0.6073370523145705,-0.13194473842714738,9.807351156943712
2460000000.0,22.09,0.0,0.0,0.0,0.5952706088698061,-0.17422545665235456,9.78057
2465000000.0,22.09,0.0,0.0,0.0,0.560543495759335,-0.14783674787966747,9.781943495759336
2470000000.0,22.09,0.0,0.0,0.0,0.5793786479767865,-0.15578270404642702,9.801367295953574
2475000000.0,22.09,0.0,0.0,0.0,0.5890905480739055,-0.13832109614781096,9.820300548073906
2480000000.0,22.09,0.0,0.0,0.0,0.59841,-0.15735244817102448,9.828050207315902
2485000000.0,22.09,0.0,0.0,0.0,0.5987043482681434,-0.16647565173185652,9.791263044804431
2490000000.0,22.09,0.0,0.0,0.0,0.607827503269475,-0.1567637516347375,9.820202496730525
2495000000.0,22.09,0.0,0.0,0.0,0.5886981484623814,-0.14715,9.839037406150474
2500000000.0,22.09,0.0,0.0,0.0,0.598409902880999,-0.14715004855950048,9.80019
2505000000.0,22.09,0.0,0.0,0.0,0.5789861026867611,-0.15686194865661948,9.80019
2510000000.0,22.09,0.0,0.0,0.0,0.5884038487537385,-0.13773230249252302,9.761734604985046
2515000000.0,22.09,0.0,0.0,0.0,0.569568502298285,-0.1468557488508575,9.83707599080686
2520000000.0,22.09,0.0,0.0,0.0,0.56898,-0.17540294684392946,9.81117705315607
2525000000.0,22.09,0.0,0.0,0.0,0.5969386471352864,-0.14862135286471354,9.837958647135286
2530000000.0,22.09,0.0,0.0,0.0,0.6076314491422145,-0.14715,9.793322754288928
2535000000.0,22.09,0.0,0.0,0.0,0.5990966507606665,-0.1380266507606665,9.781256650760668
2540000000.0,22.09,0.0,0.0,0.0,0.5713342519906426,-0.15539049867290497,9.81667099734581
2545000000.0,22.09,0.0,0.0,0.0,0.604688597734286,-0.1480328505664285,9.855518597734285
2550000000.0,22.09,0.0,0.0,0.0,0.5817328514079285,-0.14715,9.85905
2555000000.0,22.09,0.0,0.0,0.0,0.596251899255619,-0.164611899255619,9.789202402977525
2560000000.0,22.09,0.0,0.0,0.0,0.581144300550143,-0.17540284972492848,9.78057
2565000000.0,22.09,0.0,0.0,0.0,0.595859499644095,-0.159510500355905,9.797639499644095
2570000000.0,22.09,0.0,0.0,0.0,0.581536700161667,-0.140086700161667,9.8254999497575
2575000000.0,22.09,0.0,0.0,0.0,0.5871285500162855,-0.170694200065142,9.837958550016285
2580000000.0,22.09,0.0,0.0,0.0,0.5803595498865955,-0.1518586496597865,9.806468199546382
2585000000.0,22.09,0.0,0.0,0.0,0.57879,-0.16343470042104702,9.783905299578954
2590000000.0,22.09,0.0,0.0,0.0,0.5868342503076425,-0.16677,9.788614250307644
2595000000.0,22.09,0.0,0.0,0.0,0.604492300809523,-0.150877699190477,9.83805690242857
2600000000.0,22.09,0.0,0.0,0.0,0.576827797992478,-0.1549980505018805,9.817847797992478
2605000000.0,22.09,0.0,0.0,0.0,0.599979802395998,-0.13371014820300148,9.817749950599
2610000000.0,22.09,0.0,0.0,0.0,0.592916298607763,-0.1504855520883555,9.781550746519407
2615000000.0,22.09,0.0,0.0,0.0,0.5961537507932375,-0.15696,9.793421252379712
2620000000.0,22.09,0.0,0.0,0.0,0.6058656508903565,-0.17932695267106952,9.82255695267107
2625000000.0,22.09,0.0,0.0,0.0,0.578789796050098,-0.1790324490125245,9.851692652962427
2630000000.0,22.09,0.0,0.0,0.0,0.5907583532537836,-0.1693205489154055,9.822752744577027
2635000000.0,22.09,0.0,0.0,0.0,0.5912486488182865,-0.13812459527314597,9.802838648818287
2640000000.0,22.09,0.0,0.0,0.0,0.5956632512788325,-0.14165650255766504,9.814316502557665
2645000000.0,22.09,0.0,0.0,0.0,0.5914448486240484,-0.16108030275190302,9.81981
2650000000.0,22.09,0.0,0.0,0.0,0.5817329485269295,-0.15303589705385898,9.81294294852693
2655000000.0,22.09,0.0,0.0,0.0,0.5855589515701896,-0.1539189515701895,9.82353790314038
2660000000.0,22.09,0.0,0.0,0.0,0.575258296665383,-0.1636308516673085,9.822949148332691
2665000000.0,22.09,0.0,0.0,0.0,0.5821255035288551,-0.14705174470671745,9.806664496471145
2670000000.0,22.09,0.0,0.0,0.0,0.601549303723093,-0.15028930372309302,9.787240696276907
2675000000.0,22.09,0.0,0.0,0.0,0.5827137921653379,-0.15058344804133447,9.799699655875997
2680000000.0,22.09,0.0,0.0,0.0,0.5878153561673536,-0.15970690411156904,9.81
2685000000.0,22.09,0.0,0.0,0.0,0.5798689435412895,-0.15440929569419296,9.81
2690000000.0,22.09,0.0,0.0,0.0,0.5872267567500675,-0.15323225225002252,9.81
2695000000.0,22.09,0.0,0.0,0.0,0.6043941523471416,-0.15696,9.798031695305717
2700000000.0,22.09,0.0,0.0,0.0,0.6023339475557394,-0.15107394755573947,9.77860789511148
2705000000.0,22.09,0.0,0.0,0.0,0.5926220474586205,-0.15872590508275905,9.799699762706897
2710000000.0,22.09,0.0,0.0,0.0,0.5942898526384985,-0.17245985263849853,9.848259263192492
2715000000.0,22.09,0.0,0.0,0.0,0.6040017527356175,-0.1542129890575299,9.840901236321912
2720000000.0,22.09,0.0,0.0,0.0,0.5917390415017905,-0.14283365283273652,9.80332904150179
2725000000.0,22.09,0.0,0.0,0.0,0.5733944470701445,-0.14715,9.774193341210433
2730000000.0,22.09,0.0,0.0,0.0,0.5848723590809236,-0.15244745302697452,9.782139812107898
2735000000.0,22.09,0.0,0.0,0.0,0.6036093531240935,-0.15696,9.831386118744561
2740000000.0,22.09,0.0,0.0,0.0,0.5929162403363624,-0.15185874677878747,9.848847493557574
2745000000.0,22.09,0.0,0.0,0.0,0.5837931533183316,-0.15215315331833154,9.799404773453347
2750000000.0,22.09,0.0,0.0,0.0,0.5836949465845495,-0.15696,9.775665160246351
2755000000.0,22.09,0.0,0.0,0.0,0.5932108605377087,-0.15215304648743047,9.804800860537709
2760000000.0,22.09,0.0,0.0,0.0,0.5988022927806229,-0.1330234391709344,9.829227707219378
2765000000.0,22.09,0.0,0.0,0.0,0.5932107537068075,-0.13616301482723014,9.834819246293193
2770000000.0,22.09,0.0,0.0,0.0,0.59841,-0.17501061521570616,9.80254407717644
2775000000.0,22.09,0.0,0.0,0.0,0.59841,-0.17854178439581786,9.766345446098954
2780000000.0,22.09,0.0,0.0,0.0,0.59841,-0.1699093619944936,9.791165177987152
2785000000.0,22.09,0.0,0.0,0.0,0.59841,-0.16951658361886585,9.84227506228585
2790000000.0,22.09,0.0,0.0,0.0,0.5942897458075974,-0.14302974580759745,9.850809491615195
2795000000.0,22.09,0.0,0.0,0.0,0.5926221542895216,-0.14538430857904308,9.81529707426287
2800000000.0,22.09,0.0,0.0,0.0,0.5905618912267189,-0.15696,9.764873782453439
2805000000.0,22.09,0.0,0.0,0.0,0.5864419089675191,-0.16078595448375954,9.771937635870076
2810000000.0,22.09,0.0,0.0,0.0,0.6021378545808785,-0.15558643625736435,9.842177127485272
2815000000.0,22.09,0.0,0.0,0.0,0.5973307359660074,-0.13734,9.86415098128801
2820000000.0,22.09,0.0,0.0,0.0,0.5893849643253497,-0.1444033095502331,9.821771726124418
2825000000.0,22.09,0.0,0.0,0.0,0.5979193353832933,-0.15009289025552888,9.78351289025553
2830000000.0,22.09,0.0,0.0,0.0,0.5854609099387091,-0.14067545496935455,9.777430909938708
2835000000.0,22.09,0.0,0.0,0.0,0.5886979348005794,-0.15038735506647355,9.803329420265895
2840000000.0,22.09,0.0,0.0,0.0,0.5783977654907777,-0.15696,9.832759255163593
2845000000.0,22.09,0.0,0.0,0.0,0.59841,-0.16000115526071154,9.827265378957154
2850000000.0,22.09,0.0,0.0,0.0,0.5954669446421694,-0.16677,9.79724694464217
2855000000.0,22.09,0.0,0.0,0.0,0.5772201781802018,-0.16108008909010088,9.801759821819799
2860000000.0,22.09,0.0,0.0,0.0,0.5658411333124114,-0.14715,9.824126288895863
2865000000.0,22.09,0.0,0.0,0.0,0.6055712443508124,-0.1524475112983751,9.804702488701626
2870000000.0,22.09,0.0,0.0,0.0,0.5958593442536935,-0.16421934425369344,9.79038
2875000000.0,22.09,0.0,0.0,0.0,0.5886,-0.15696,9.795285111686852
2880000000.0,22.09,0.0,0.0,0.0,0.5862455440594555,-0.14989663217836632,9.81470891188109
2885000000.0,22.09,0.0,0.0,0.0,0.5833027120753271,-0.1320427120753271,9.825107287924673
2890000000.0,22.09,0.0,0.0,0.0,0.5919352315956523,-0.15146651226956512,9.807841743865218
2895000000.0,22.09,0.0,0.0,0.0,0.5731003124638031,-0.15852937507239376,9.80019
2900000000.0,22.09,0.0,0.0,0.0,0.5846758873419589,-0.13341616898706168,9.806076168987062
2905000000.0,22.09,0.0,0.0,0.0,0.5764358257045583,-0.15509604357386042,9.82962
2910000000.0,22.09,0.0,0.0,0.0,0.6029224304302243,-0.15068171304651715,9.822556573906967
2915000000.0,22.09,0.0,0.0,0.0,0.5804577566203776,-0.16510224337962243,9.792047756620379
2920000000.0,22.09,0.0,0.0,0.0,0.5886,-0.15696,9.801759656717497
2925000000.0,22.09,0.0,0.0,0.0,0.5915431136292312,-0.15401688637076885,9.814414670443847
2930000000.0,22.09,0.0,0.0,0.0,0.6095934569117346,-0.14008691382346913,9.83943
2935000000.0,22.09,0.0,0.0,0.0,0.6116532149557322,-0.15823535700885355,9.827951786920318
2940000000.0,22.09,0.0,0.0,0.0,0.5713345142119451,-0.16559274289402742,9.752317257105972
2945000000.0,22.09,0.0,0.0,0.0,0.5896791572030916,-0.15803915720309156,9.766345786015457
2950000000.0,22.09,0.0,0.0,0.0,0.5993910573002106,-0.16480788539957886,9.815886343801264
2955000000.0,22.09,0.0,0.0,0.0,0.6073370426026704,-0.14891591479465915,9.86886
2960000000.0,22.09,0.0,0.0,0.0,0.5960554275166543,-0.16441542751665428,9.86336599753886
2965000000.0,22.09,0.0,0.0,0.0,0.5703535151831352,-0.13871351518313516,9.79469593926746
2970000000.0,22.09,0.0,0.0,0.0,0.5886,-0.15754865768868656,9.726419261509493
2975000000.0,22.09,0.0,0.0,0.0,0.5886,-0.16677,9.802152231143223
2980000000.0,22.09,0.0,0.0,0.0,0.5886,-0.16716245788292458,9.841392289414623
2985000000.0,22.09,0.0,0.0,0.0,0.5886,-0.17540256807982565,9.885830778179606
2990000000.0,22.09,0.0,0.0,0.0,0.5887962580771626,-0.1381250323086503,9.7986199353827
2995000000.0,22.09,0.0,0.0,0.0,0.59841,-0.17658,9.72239710721997
3000000000.0,22.09,0.0,0.0,0.0,0.5984099417285994,-0.17658005827140058,9.790380349628403
3005000000.0,22.09,0.0,0.0,0.0,0.5886980416314804,-0.18629195836851958,9.848651750211118
3010000000.0,22.09,0.0,0.0,0.0,0.5886,-0.15754842460308424,9.868467716931278
3015000000.0,22.09,0.0,0.0,0.0,0.5886,-0.15696,9.821281207186212
3020000000.0,22.09,0.0,0.0,0.0,0.5697646826802468,-0.14754234134012342,9.76330404804074
3025000000.0,22.09,0.0,0.0,0.0,0.5969386762709867,-0.12851088248600884,9.770269558756995
3030000000.0,22.09,0.0,0.0,0.0,0.6076314588541146,-0.13675145885411458,9.816867294270573
3035000000.0,22.09,0.0,0.0,0.0,0.5990966410487664,-0.15558671790246717,9.856303435804934
3040000000.0,22.09,0.0,0.0,0.0,0.6074352590483526,-0.15696,9.85905
3045000000.0,22.09,0.0,0.0,0.0,0.5725113634181137,-0.15696,9.787632726836229
3050000000.0,22.09,0.0,0.0,0.0,0.5778090592425906,-0.13930188151481881,9.762911881514817
3055000000.0,22.09,0.0,0.0,0.0,0.5875209593397096,-0.18099479669854796,9.804604796698548
3060000000.0,22.09,0.0,0.0,0.0,0.5713342811263429,-0.1604914216895142,9.835898578310486
3065000000.0,22.09,0.0,0.0,0.0,0.6031190381357904,-0.15696,9.830895240466052
3070000000.0,22.09,0.0,0.0,0.0,0.6166566596310666,-0.14852334036893342,9.8043100211068
3075000000.0,22.09,0.0,0.0,0.0,0.5930143208154433,-0.14715,9.791851440271815
3080000000.0,22.09,0.0,0.0,0.0,0.6050809196506092,-0.13066908034939081,9.77389908034939
3085000000.0,22.09,0.0,0.0,0.0,0.6000776400775764,-0.1600994396896944,9.803329439689694
3090000000.0,22.09,0.0,0.0,0.0,0.5742772199413723,-0.16677,9.818044260019542
3095000000.0,22.09,0.0,0.0,0.0,0.6007646404666463,-0.16677,9.811863839883339
3100000000.0,22.09,0.0,0.0,0.0,0.6003719397862194,-0.1432258193586582,9.794303879572439
3105000000.0,22.09,0.0,0.0,0.0,0.5829100793782008,-0.15283992062179919,9.7981299603109
3110000000.0,22.09,0.0,0.0,0.0,0.5864418604080186,-0.1493081395919814,9.80019
3115000000.0,22.09,0.0,0.0,0.0,0.5961537605051376,-0.14715,9.80019
3120000000.0,22.09,0.0,0.0,0.0,0.59841,-0.14715,9.844923963613539
3125000000.0,22.09,0.0,0.0,0.0,0.5910524393006245,-0.14715,9.822262196503122
3130000000.0,22.09,0.0,0.0,0.0,0.5668216176105162,-0.16892838238948382,9.81
3135000000.0,22.09,0.0,0.0,0.0,0.5806540826808408,-0.14793455642554554,9.774193195531932
3140000000.0,22.09,0.0,0.0,0.0,0.5886,-0.15852978297219783,9.782139782972198
3145000000.0,22.09,0.0,0.0,0.0,0.5677045167364452,-0.1598048389121484,9.846101288702814
3150000000.0,22.09,0.0,0.0,0.0,0.5729041223699413,-0.16382706118497062,9.834524694075148
3155000000.0,22.09,0.0,0.0,0.0,0.5990968838462688,-0.1532320774358208,9.82657896128209
3160000000.0,22.09,0.0,0.0,0.0,0.574865693103957,-0.1538208613792086,9.789594831724749
3165000000.0,22.09,0.0,0.0,0.0,0.5854610459053105,-0.16353276147632761,9.777332761476329
3170000000.0,22.09,0.0,0.0,0.0,0.5919353384265534,-0.15382067685310677,9.81941796944068
3175000000.0,22.09,0.0,0.0,0.0,0.5886,-0.15990312334113124,9.852183123341131
3180000000.0,22.09,0.0,0.0,0.0,0.5823215382323154,-0.15421307646463076,9.833936152929262
3185000000.0,22.09,0.0,0.0,0.0,0.57879,-0.15951072372960723,9.807449276270393
3190000000.0,22.09,0.0,0.0,0.0,0.5909545239238453,-0.16677,9.781943214114232
3195000000.0,22.09,0.0,0.0,0.0,0.59841,-0.15480167588191676,9.812649134413292
3200000000.0,22.09,0.0,0.0,0.0,0.6042960621561606,-0.15892212431232125,9.851202124312321
3205000000.0,22.09,0.0,0.0,0.0,0.60822,-0.15519407549344075,9.824322226480323
3210000000.0,22.09,0.0,0.0,0.0,0.6025301376496014,-0.15852972470079724,9.783120412948804
3215000000.0,22.09,0.0,0.0,0.0,0.5928182375524824,-0.15558647510496476,9.776351762447518
3220000000.0,22.09,0.0,0.0,0.0,0.5831063374553634,-0.16363098763390987,9.802544650178547
3225000000.0,22.09,0.0,0.0,0.0,0.5949766879252669,-0.17118443735824437,9.835996687925267
3230000000.0,22.09,0.0,0.0,0.0,0.6029225372611253,-0.17736492547774926,9.833347611783376
3235000000.0,22.09,0.0,0.0,0.0,0.5932106371640063,-0.1655925486560255,9.80421191149202
3240000000.0,22.09,0.0,0.0,0.0,0.5886,-0.13694747413377475,9.800582525866226
3245000000.0,22.09,0.0,0.0,0.0,0.5886,-0.13753632606046326,9.815003163030232
3250000000.0,22.09,0.0,0.0,0.0,0.5984101262547012,-0.14715,9.829620126254701
3255000000.0,22.09,0.0,0.0,0.0,0.5937991103265912,-0.14715,9.829816073551061
3260000000.0,22.09,0.0,0.0,0.0,0.57879,-0.14715,9.815101136678411
3265000000.0,22.09,0.0,0.0,0.0,0.5880115268374153,-0.14253923658129236,9.81
3270000000.0,22.09,0.0,0.0,0.0,0.59841,-0.14185266351582662,9.79646200945252
3275000000.0,22.09,0.0,0.0,0.0,0.5939954363870543,-0.15597912722589127,9.793813690838837
3280000000.0,22.09,0.0,0.0,0.0,0.5886,-0.16677,9.801367072579872
3285000000.0,22.09,0.0,0.0,0.0,0.5970367276143673,-0.17098836380718363,9.807253455228736
3290000000.0,22.09,0.0,0.0,0.0,0.5999794721913947,-0.17245973609569734,9.82962
3295000000.0,22.09,0.0,0.0,0.0,0.5845778359985784,-0.16274783599857837,9.833642164001422
3300000000.0,22.09,0.0,0.0,0.0,0.57879,-0.15696,9.827657807704378
3305000000.0,22.09,0.0,0.0,0.0,0.57879,-0.15696,9.79852210741302
3310000000.0,22.09,0.0,0.0,0.0,0.5713342714144427,-0.15696,9.799209321463893
3315000000.0,22.09,0.0,0.0,0.0,0.5736890575595907,-0.15333023561010234,9.82962
3320000000.0,22.09,0.0,0.0,0.0,0.5913466710259667,-0.14715,9.833151664487017
3325000000.0,22.09,0.0,0.0,0.0,0.5822235645841357,-0.16088425833654257,9.81539504791105
3330000000.0,22.09,0.0,0.0,0.0,0.5886,-0.16304174723121748,9.760753605956236
3335000000.0,22.09,0.0,0.0,0.0,0.5886,-0.13390682389186825,9.767228918226989
3340000000.0,22.09,0.0,0.0,0.0,0.5886,-0.16990926487549265,9.816670735124507
3345000000.0,22.09,0.0,0.0,0.0,0.5916411649726117,-0.16745650508216503,9.819123494917836
3350000000.0,22.09,0.0,0.0,0.0,0.59841,-0.14420693493026934,9.824714674651347
3355000000.0,22.09,0.0,0.0,0.0,0.5955650348331504,-0.14018496516684964,9.796069930333699
3360000000.0,22.09,0.0,0.0,0.0,0.5940937305279373,-0.14989686526396864,9.804506269472062
3365000000.0,22.09,0.0,0.0,0.0,0.6002737039167371,-0.15960876536108765,9.800975061444351
3370000000.0,22.09,0.0,0.0,0.0,0.5762393345417933,-0.15911800362538003,9.82962
3375000000.0,22.09,0.0,0.0,0.0,0.576337696665977,-0.14469769666597695,9.824714868889348
3380000000.0,22.09,0.0,0.0,0.0,0.5913466030426661,-0.16441553434755535,9.81
3385000000.0,22.09,0.0,0.0,0.0,0.5780054629982546,-0.15470363425043634,9.807743634250437
3390000000.0,22.09,0.0,0.0,0.0,0.5995869366132693,-0.14499173415331734,9.804506531693367
3395000000.0,22.09,0.0,0.0,0.0,0.5669198340561984,-0.14146033188760332,9.81981
3400000000.0,22.09,0.0,0.0,0.0,0.5689803302046034,-0.15499793395907932,9.811961735836318
3405000000.0,22.09,0.0,0.0,0.0,0.6044920677239206,-0.1434220677239207,9.78616189841412
3410000000.0,22.09,0.0,0.0,0.0,0.5921317324703174,-0.132827598705476,9.81176586623516
3415000000.0,22.09,0.0,0.0,0.0,0.60822,-0.15862776633227765,9.821477766332277
3420000000.0,22.09,0.0,0.0,0.0,0.6050806671412067,-0.16206100071181,9.828050333570603
3425000000.0,22.09,0.0,0.0,0.0,0.5886,-0.14175469957954698,9.818338433473485
3430000000.0,22.09,0.0,0.0,0.0,0.5858530667527306,-0.16127613350546133,9.81
3435000000.0,22.09,0.0,0.0,0.0,0.5715307334415074,-0.13008073344150733,9.811275366720754
3440000000.0,22.09,0.0,0.0,0.0,0.5886,-0.14715,9.818632733182127
3445000000.0,22.09,0.0,0.0,0.0,0.5896791669149917,-0.150387500744975,9.807841666170017
3450000000.0,22.09,0.0,0.0,0.0,0.5993910670121106,-0.17461786597577864,9.791361067012112
3455000000.0,22.09,0.0,0.0,0.0,0.6073370328907703,-0.15872593421845932,9.80195593421846
3460000000.0,22.09,0.0,0.0,0.0,0.5976251327936514,-0.1734405311746053,9.82059486720635
3465000000.0,22.09,0.0,0.0,0.0,0.5879132326965324,-0.13871353460693533,9.825499396179195
3470000000.0,22.09,0.0,0.0,0.0,0.5799673348011734,-0.15696,9.77076
3475000000.0,22.09,0.0,0.0,0.0,0.5974288650045887,-0.15696,9.772231702493116
3480000000.0,22.09,0.0,0.0,0.0,0.5791824675948247,-0.15774493518964933,9.80097493518965
3485000000.0,22.09,0.0,0.0,0.0,0.5883056323080563,-0.17599126461611264,9.81981
3490000000.0,22.09,0.0,0.0,0.0,0.5793788033671881,-0.15656746442187464,9.819417464421875
3495000000.0,22.09,0.0,0.0,0.0,0.6081218321138183,-0.13753633577236335,9.799993664227637
3500000000.0,22.09,0.0,0.0,0.0,0.59841,-0.1569599320166993,9.780570067983302
3505000000.0,22.09,0.0,0.0,0.0,0.59841,-0.14724803191958033,9.79028196808042
3510000000.0,22.09,0.0,0.0,0.0,0.6080238681775386,-0.15676386817753868,9.838449340887694
3515000000.0,22.09,0.0,0.0,0.0,0.6177357682746578,-0.17599153654931535,9.83943
3520000000.0,22.09,0.0,0.0,0.0,0.58977699488467,-0.15774466325644662,9.81117699488467
3525000000.0,22.09,0.0,0.0,0.0,0.5979195684688957,-0.18491870540668706,9.772721726124416
3530000000.0,22.09,0.0,0.0,0.0,0.59841,-0.15872559430195593,9.78920293713203
3535000000.0,22.09,0.0,0.0,0.0,0.5892866313368663,-0.15696,9.826873474652535
3540000000.0,22.09,0.0,0.0,0.0,0.6066505375205054,-0.18403580628075805,9.86572107504101
3545000000.0,22.09,0.0,0.0,0.0,0.5992928311426283,-0.14175415571314154,9.81529698685577
3550000000.0,22.09,0.0,0.0,0.0,0.59841,-0.13734,9.80117093104551
3555000000.0,22.09,0.0,0.0,0.0,0.5809480618967806,-0.16353290715482907,9.80019
3560000000.0,22.09,0.0,0.0,0.0,0.5874228691487287,-0.1581371308512713,9.817455738297458
3565000000.0,22.09,0.0,0.0,0.0,0.5886,-0.14842523075415232,9.828344769245849
3570000000.0,22.09,0.0,0.0,0.0,0.6054733386859333,-0.1555866693429667,9.795873322628134
3575000000.0,22.09,0.0,0.0,0.0,0.5915428611198286,-0.1652985694400857,9.807057138880172
3580000000.0,22.09,0.0,0.0,0.0,0.5886,-0.1585295304627953,9.81
3585000000.0,22.09,0.0,0.0,0.0,0.5967423696343237,-0.15696,9.826284739268647
3590000000.0,22.09,0.0,0.0,0.0,0.6064542697314427,-0.14087146053711458,9.813531460537115
3595000000.0,22.09,0.0,0.0,0.0,0.6161661698285618,-0.14528616982856168,9.841784679314246
3600000000.0,22.09,0.0,0.0,0.0,0.5787896503715966,-0.14715,9.802151580445916
3605000000.0,22.09,0.0,0.0,0.0,0.5767299700227997,-0.1548999700227997,9.8058799400456
3610000000.0,22.09,0.0,0.0,0.0,0.601745610359756,-0.1646118701199187,9.81
3615000000.0,22.09,0.0,0.0,0.0,0.60822,-0.14410868934888688,9.832661310651114
3620000000.0,22.09,0.0,0.0,0.0,0.5933086593716866,-0.14479567031415672,9.824518659371687
3625000000.0,22.09,0.0,0.0,0.0,0.5738848591774486,-0.14715,9.812452429588724
3630000000.0,22.09,0.0,0.0,0.0,0.5617205294916053,-0.14715,9.81
3635000000.0,22.09,0.0,0.0,0.0,0.5734927412110274,-0.16863411181654112,9.81
3640000000.0,22.09,0.0,0.0,0.0,0.5858532707026327,-0.1695167292973673,9.81
3645000000.0,22.09,0.0,0.0,0.0,0.5886,-0.1528396584004966,9.816965170799753
3650000000.0,22.09,0.0,0.0,0.0,0.5817329291031293,-0.14715,9.82667707089687
3655000000.0,22.09,0.0,0.0,0.0,0.5990969129819691,-0.1403810290060103,9.82962
3660000000.0,22.09,0.0,0.0,0.0,0.60822,-0.13734,9.809607386726674
3665000000.0,22.09,0.0,0.0,0.0,0.6016472288117722,-0.15705831356468314,9.80019
3670000000.0,22.09,0.0,0.0,0.0,0.5919353287146533,-0.16677,9.793715328714654
3675000000.0,22.09,0.0,0.0,0.0,0.5886,-0.15401685723506858,9.815886285529864
3680000000.0,22.09,0.0,0.0,0.0,0.5823215285204153,-0.15970694295916943,9.835898471479585
3685000000.0,22.09,0.0,0.0,0.0,0.5973311147301111,-0.13586814211648143,9.82088888526989
3690000000.0,22.09,0.0,0.0,0.0,0.5899731849785319,-0.13596681502146815,9.791753184978532
3695000000.0,22.09,0.0,0.0,0.0,0.5907583435418834,-0.1531341717709417,9.786554171770943
3700000000.0,22.09,0.0,0.0,0.0,0.59841,-0.16284607186806072,9.808038215604183
3705000000.0,22.09,0.0,0.0,0.0,0.5810460841044609,-0.16098202803482028,9.831385943930359
3710000000.0,22.09,0.0,0.0,0.0,0.5860496161868962,-0.14558025587540255,9.828050255875404
3715000000.0,22.09,0.0,0.0,0.0,0.59841,-0.1429317721594177,9.808626455681164
3720000000.0,22.09,0.0,0.0,0.0,0.5929163277434633,-0.14165632774346326,9.805683672256537
3725000000.0,22.09,0.0,0.0,0.0,0.5886,-0.14813114470731142,9.820791144707313
3730000000.0,22.09,0.0,0.0,0.0,0.5833025275492253,-0.15696,9.834917472450774
3735000000.0,22.09,0.0,0.0,0.0,0.5839893725478937,-0.16215937254789373,9.818632509808426
3740000000.0,22.09,0.0,0.0,0.0,0.5988025452900254,-0.16166872735498727,9.80019
3745000000.0,22.09,0.0,0.0,0.0,0.5982136545157365,-0.15696,9.790183654515737
3750000000.0,22.09,0.0,0.0,0.0,0.5984101456785015,-0.15205492716074925,9.790380145678503
3755000000.0,22.09,0.0,0.0,0.0,0.5986060541272605,-0.14715,9.838645783490957
3760000000.0,22.09,0.0,0.0,0.0,0.5791822539330226,-0.15185887303348872,9.855125634832556
3765000000.0,22.09,0.0,0.0,0.0,0.5828123193918232,-0.1431276806081768,9.81117690747757
3770000000.0,22.09,0.0,0.0,0.0,0.5938973267722732,-0.13655534645545347,9.79038
3775000000.0,22.09,0.0,0.0,0.0,0.5886,-0.14273542667515426,9.794794573324847
3780000000.0,22.09,0.0,0.0,0.0,0.5886,-0.14597294684392945,9.80882294684393
3785000000.0,22.09,0.0,0.0,0.0,0.5843816264809163,-0.16117837351908373,9.815591626480916
3790000000.0,22.09,0.0,0.0,0.0,0.5829102736162027,-0.16264972638379727,9.818240547232406
3795000000.0,22.09,0.0,0.0,0.0,0.5845778262866783,-0.15696,9.821575652573356
3800000000.0,22.09,0.0,0.0,0.0,0.5866381476208815,-0.15696,9.802151852379119
3805000000.0,22.09,0.0,0.0,0.0,0.6022359739075598,-0.15313402609244026,9.78655402609244
3810000000.0,22.09,0.0,0.0,0.0,0.6044921259953212,-0.15460574800935747,9.788025748009359
3815000000.0,22.09,0.0,0.0,0.0,0.59841,-0.17039977410179774,9.807449548203596
3820000000.0,22.09,0.0,0.0,0.0,0.6054733483978335,-0.17304832580108326,9.83040502259675
3825000000.0,22.09,0.0,0.0,0.0,0.6077292771118928,-0.15303570281585704,9.82520497992775
3830000000.0,22.09,0.0,0.0,0.0,0.5852645256068453,-0.1342009487863095,9.777234525606845
3835000000.0,22.09,0.0,0.0,0.0,0.5723152510194526,-0.14715,9.78047212347082
3840000000.0,22.09,0.0,0.0,0.0,0.5623092745873928,-0.15028927458739275,9.819025647524358
3845000000.0,22.09,0.0,0.0,0.0,0.5750623493690236,-0.15696,9.846885301261953
3850000000.0,22.09,0.0,0.0,0.0,0.5886,-0.15990307478163074,9.808037700873477
3855000000.0,22.09,0.0,0.0,0.0,0.5886,-0.16677,9.78057
3860000000.0,22.09,0.0,0.0,0.0,0.5886,-0.16677,9.783316874975869
3865000000.0,22.09,0.0,0.0,0.0,0.5938975501459756,-0.16941877507298775,9.798326325218964
3870000000.0,22.09,0.0,0.0,0.0,0.6056693248298932,-0.1714786496597865,9.824911350340214
3875000000.0,22.09,0.0,0.0,0.0,0.5959574247327742,-0.15941257526722574,9.836977424732774
3880000000.0,22.09,0.0,0.0,0.0,0.5909544753643448,-0.16677,9.813138672449586
3885000000.0,22.09,0.0,0.0,0.0,0.59841,-0.16225724907707248,9.76095
3890000000.0,22.09,0.0,0.0,0.0,0.59841,-0.1514665511171655,9.771741377792914
3895000000.0,22.09,0.0,0.0,0.0,0.5963498243442983,-0.1626496486885965,9.820300878278509
3900000000.0,22.09,0.0,0.0,0.0,0.5905620757528207,-0.14911207575282076,9.851201696988717
3905000000.0,22.09,0.0,0.0,0.0,0.59841,-0.15509602415006024,9.816082048300121
3910000000.0,22.09,0.0,0.0,0.0,0.59841,-0.15068175189411753,9.796658248105883
3915000000.0,22.09,0.0,0.0,0.0,0.5967422239558222,-0.16510222395582225,9.787241104176712
3920000000.0,22.09,0.0,0.0,0.0,0.5901696761412968,-0.1522509715761097,9.827658380706485
3925000000.0,22.09,0.0,0.0,0.0,0.5969384237615842,-0.13047315247683153,9.862973695046337
3930000000.0,22.09,0.0,0.0,0.0,0.5886,-0.14715,9.821379141986792
3935000000.0,22.09,0.0,0.0,0.0,0.5873246235673463,-0.14715,9.768209247134692
3940000000.0,22.09,0.0,0.0,0.0,0.5811445530595456,-0.14715,9.759380935708409
3945000000.0,22.09,0.0,0.0,0.0,0.5973308233731083,-0.14930835325378353,9.821968353253784
3950000000.0,22.09,0.0,0.0,0.0,0.5886,-0.16480784655197847,9.838448923275989
3955000000.0,22.09,0.0,0.0,0.0,0.5894829768211298,-0.14715,9.824322139073221
3960000000.0,22.09,0.0,0.0,0.0,0.59841,-0.14793487691824878,9.771544876918249
3965000000.0,22.09,0.0,0.0,0.0,0.5990967770153678,-0.15696,9.782630331046104
3970000000.0,22.09,0.0,0.0,0.0,0.6070426457750264,-0.15519396866253968,9.810588677112488
3975000000.0,22.09,0.0,0.0,0.0,0.5895811544192116,-0.12753,9.820300577209606
3980000000.0,22.09,0.0,0.0,0.0,0.6078275226932752,-0.12949238653362388,9.828442568079826
3985000000.0,22.09,0.0,0.0,0.0,0.5987043774038437,-0.17569686778846866,9.80019
3990000000.0,22.09,0.0,0.0,0.0,0.6080237224990372,-0.14734627750096277,9.800386277500964
3995000000.0,22.09,0.0,0.0,0.0,0.5983118224019183,-0.1568618224019182,9.81
4000000000.0,22.09,0.0,0.0,0.0,0.5885998446095985,-0.14715015539040155,9.8099998446096
4005000000.0,22.09,0.0,0.0,0.0,0.5691760444153605,-0.16657395558463955,9.790576044415362
4010000000.0,22.09,0.0,0.0,0.0,0.5882077557788775,-0.12831448844224488,9.79038
4015000000.0,22.09,0.0,0.0,0.0,0.5886,-0.13704577798655776,9.809411555973115
4020000000.0,22.09,0.0,0.0,0.0,0.5886,-0.15617535616735356,9.819417678083678
4025000000.0,22.09,0.0,0.0,0.0,0.5886,-0.12900126545761265,9.810490421819205
4030000000.0,22.09,0.0,0.0,0.0,0.5701570434441705,-0.11830852172208522,9.81
4035000000.0,22.09,0.0,0.0,0.0,0.5781033783750338,-0.16333689187516892,9.800876621624967
4040000000.0,22.09,0.0,0.0,0.0,0.5968405569443056,-0.16677,9.818240556944305
4045000000.0,22.09,0.0,0.0,0.0,0.5805556428614564,-0.13998846429218464,9.810882821430729
4050000000.0,22.09,0.0,0.0,0.0,0.57879,-0.19031447199834473,9.81
4055000000.0,22.09,0.0,0.0,0.0,0.5875209787635098,-0.16127608494596085,9.792538042472982
4060000000.0,22.09,0.0,0.0,0.0,0.5886,-0.1655928788606288,9.816278636581886
4065000000.0,22.09,0.0,0.0,0.0,0.5886,-0.17530477895774776,9.853949115830991
4070000000.0,22.09,0.0,0.0,0.0,0.5886,-0.15126996283539962,9.842176641890266
4075000000.0,22.09,0.0,0.0,0.0,0.5969385791519858,-0.14715,9.806075683392057
4080000000.0,22.09,0.0,0.0,0.0,0.6066504792491048,-0.16363095849820958,9.80019
4085000000.0,22.09,0.0,0.0,0.0,0.5919352413075524,-0.14234286196132862,9.808332379346224
4090000000.0,22.09,0.0,0.0,0.0,0.5886,-0.15342855888668558,9.850221397216714
4095000000.0,22.09,0.0,0.0,0.0,0.5806538204595382,-0.1490138204595382,9.819319102297692
4100000000.0,22.09,0.0,0.0,0.0,0.5866380796375809,-0.15499807963758078,9.78645576108726
4105000000.0,22.09,0.0,0.0,0.0,0.6040999594693995,-0.1414600405306004,9.7728200202653
4110000000.0,22.09,0.0,0.0,0.0,0.5929162403363624,-0.15264375966363758,9.801367519327275
4115000000.0,22.09,0.0,0.0,0.0,0.5961537799289378,-0.17206755985787558,9.832661339786814
4120000000.0,22.09,0.0,0.0,0.0,0.5760429599218296,-0.1691243199739432,9.81706295992183
4125000000.0,22.09,0.0,0.0,0.0,0.5984103204927032,-0.1594124198768242,9.795284839753648
4130000000.0,22.09,0.0,0.0,0.0,0.5864415593391156,-0.17147896044058958,9.797639480220296
4135000000.0,22.09,0.0,0.0,0.0,0.5859513803174138,-0.15509585904775858,9.80019
4140000000.0,22.09,0.0,0.0,0.0,0.6027265608290656,-0.1542132804145328,9.8213798412436
4145000000.0,22.09,0.0,0.0,0.0,0.6012548194883481,-0.1639251805116518,9.836585180511651
4150000000.0,22.09,0.0,0.0,0.0,0.5778087581736876,-0.15303583878245838,9.811961677564918
4155000000.0,22.09,0.0,0.0,0.0,0.5825179614117796,-0.16068796141177963,9.80695898070589
4160000000.0,22.09,0.0,0.0,0.0,0.5819291191969912,-0.16677,9.81
4165000000.0,22.09,0.0,0.0,0.0,0.5853627809001278,-0.1536244381997444,9.823145561800256
4170000000.0,22.09,0.0,0.0,0.0,0.5950746809972468,-0.1536246809972468,9.797246595013767
4175000000.0,22.09,0.0,0.0,0.0,0.5920334189056342,-0.1633365810943658,9.786946581094366
4180000000.0,22.09,0.0,0.0,0.0,0.5886,-0.16677,9.80293696238297
4185000000.0,22.09,0.0,0.0,0.0,0.5947803812886038,-0.1544092374227924,9.816180381288603
4190000000.0,22.09,0.0,0.0,0.0,0.6044922813857228,-0.1532322813857228,9.81981
4195000000.0,22.09,0.0,0.0,0.0,0.6022358185171581,-0.16294418148284182,9.825794181482841
4200000000.0,22.09,0.0,0.0,0.0,0.6042960815799608,-0.14911175526011755,9.817847836840079
4205000000.0,22.09,0.0,0.0,0.0,0.6024320183229201,-0.13734,9.79842403664584
4210000000.0,22.09,0.0,0.0,0.0,0.6040998817741988,-0.15440964532259646,9.801759763548398
4215000000.0,22.09,0.0,0.0,0.0,0.5970364362573644,-0.16677,9.81
4220000000.0,22.09,0.0,0.0,0.0,0.5940936819684368,-0.18325104590531047,9.804506318031564
4225000000.0,22.09,0.0,0.0,0.0,0.59841,-0.15843092554110927,9.816376746196667
4230000000.0,22.09,0.0,0.0,0.0,0.5878150356746503,-0.14342244648802446,9.82962
4235000000.0,22.09,0.0,0.0,0.0,0.5839893822597938,-0.15176061774020616,9.81402185322062
4240000000.0,22.09,0.0,0.0,0.0,0.5937012823569128,-0.15735256471382564,9.78488615292926
4245000000.0,22.09,0.0,0.0,0.0,0.6084163649080637,-0.16677,9.780766364908065
4250000000.0,22.09,0.0,0.0,0.0,0.5984096697953968,-0.16186491744884918,9.814905412755754
4255000000.0,22.09,0.0,0.0,0.0,0.5932109479448094,-0.15696,9.83943
4260000000.0,22.09,0.0,0.0,0.0,0.5940933517638335,-0.15225111725461116,9.830012234509223
4265000000.0,22.09,0.0,0.0,0.0,0.5880115656850157,-0.14715,9.810588434314985
4270000000.0,22.09,0.0,0.0,0.0,0.5938973170603732,-0.14263731706037316,9.795677317060374
4275000000.0,22.09,0.0,0.0,0.0,0.5974291660734916,-0.13734,9.799209166073492
4280000000.0,22.09,0.0,0.0,0.0,0.6039035168661352,-0.13734,9.81863296626773
4285000000.0,22.09,0.0,0.0,0.0,0.5899732335380323,-0.13734,9.833838383230985
4290000000.0,22.09,0.0,0.0,0.0,0.5829102833281029,-0.13734,9.827069150015692
4295000000.0,22.09,0.0,0.0,0.0,0.5966443668504436,-0.14136218342522183,9.797933449724335
4300000000.0,22.09,0.0,0.0,0.0,0.6003718329553184,-0.14322591647765917,9.792342250567023
4305000000.0,22.09,0.0,0.0,0.0,0.5809480327610803,-0.13734,9.82147795085838
4310000000.0,22.09,0.0,0.0,0.0,0.5801636511497366,-0.15225153486631535,9.843157883716579
4315000000.0,22.09,0.0,0.0,0.0,0.5875206485589065,-0.17295021618630216,9.827461297117813
4320000000.0,22.09,0.0,0.0,0.0,0.5760433678216337,-0.15970663217836634,9.786848316089184
4325000000.0,22.09,0.0,0.0,0.0,0.5886,-0.14028283198412833,9.794304336031743
4330000000.0,22.09,0.0,0.0,0.0,0.5886,-0.14087193642021936,9.82648096821011
4335000000.0,22.09,0.0,0.0,0.0,0.5821252315956523,-0.16029523159565232,9.826480463191304
4340000000.0,22.09,0.0,0.0,0.0,0.5783978528978786,-0.15028928429929284,9.793911431401416
4345000000.0,22.09,0.0,0.0,0.0,0.59841,-0.15696,9.78057
4350000000.0,22.09,0.0,0.0,0.0,0.5954669155064691,-0.15401691550646915,9.801171591454716
4355000000.0,22.09,0.0,0.0,0.0,0.5857550154093502,-0.14999498459064983,9.84639501540935
4360000000.0,22.09,0.0,0.0,0.0,0.5870306540633066,-0.15421311531223114,9.844923769375537
4365000000.0,22.09,0.0,0.0,0.0,0.6055712152151121,-0.15509635435466354,9.843157291290673
4370000000.0,22.09,0.0,0.0,0.0,0.6009606848820068,-0.17147863023598628,9.797639315117994
4375000000.0,22.09,0.0,0.0,0.0,0.6008622450626224,-0.15450741502087414,9.792832584979127
4380000000.0,22.09,0.0,0.0,0.0,0.5740810298475103,-0.1424410298475103,9.80489897015249
4385000000.0,22.09,0.0,0.0,0.0,0.5681955406934555,-0.1320427703467277,9.81981
4390000000.0,22.09,0.0,0.0,0.0,0.59841,-0.1428334294590343,9.813335144188551
4395000000.0,22.09,0.0,0.0,0.0,0.5942896292647963,-0.12959018536760186,9.794500370735204
4400000000.0,22.09,0.0,0.0,0.0,0.5807520854647209,-0.1451883418588834,9.813924170929441
4405000000.0,22.09,0.0,0.0,0.0,0.5848720288763203,-0.17285202887632029,9.82962
4410000000.0,22.09,0.0,0.0,0.0,0.5725117713179178,-0.15872588565895884,9.826088228682083
4415000000.0,22.09,0.0,0.0,0.0,0.5886,-0.16510221424392213,9.804996642731767
4420000000.0,22.09,0.0,0.0,0.0,0.5886,-0.15696,9.786848743412788
4425000000.0,22.09,0.0,0.0,0.0,0.5886,-0.15696,9.825696343801264
4430000000.0,22.09,0.0,0.0,0.0,0.5913469720948697,-0.15558651395256512,9.85080908371539
4435000000.0,22.09,0.0,0.0,0.0,0.60822,-0.15097615843366158,9.795088455421785
4440000000.0,22.09,0.0,0.0,0.0,0.6070427137583271,-0.17187085503330854,9.759772713758327
4445000000.0,22.09,0.0,0.0,0.0,0.5973308136612081,-0.13841918633879186,9.76301104972671
4450000000.0,22.09,0.0,0.0,0.0,0.5886,-0.14911217287182174,9.85905
4455000000.0,22.09,0.0,0.0,0.0,0.5894829865330299,-0.16235506733485067,9.85463506733485
4460000000.0,22.09,0.0,0.0,0.0,0.5968402267397023,-0.12085954652059547,9.805290680219107
4465000000.0,22.09,0.0,0.0,0.0,0.57879,-0.15696,9.753200360181804
4470000000.0,22.09,0.0,0.0,0.0,0.5805560604731607,-0.15931474729754747,9.784102120946322
4475000000.0,22.09,0.0,0.0,0.0,0.6077294130784942,-0.19423765231397652,9.840901760764517
4480000000.0,22.09,0.0,0.0,0.0,0.59841,-0.1565675129813751,9.86807502596275
4485000000.0,22.09,0.0,0.0,0.0,0.5981156128842561,-0.14773877423148774,9.847179290189793
4490000000.0,22.09,0.0,0.0,0.0,0.5884037127871371,-0.16696628721286288,9.78057
4495000000.0,22.09,0.0,0.0,0.0,0.5790845619299456,-0.17638362538003624,9.780962749239928
4500000000.0,22.09,0.0,0.0,0.0,0.6082199125928991,-0.15695991259289913,9.8198100874071
4505000000.0,22.09,0.0,0.0,0.0,0.5985080124957801,-0.14724801249578012,9.82952198750422
4510000000.0,22.09,0.0,0.0,0.0,0.59841,-0.14715,9.810392224797322
4515000000.0,22.09,0.0,0.0,0.0,0.6079257876984578,-0.15666578769845788,9.76242106150771
4520000000.0,22.09,0.0,0.0,0.0,0.5988023122044231,-0.15696,9.76095
4525000000.0,22.09,0.0,0.0,0.0,0.6077295878926958,-0.12900123632191238,9.807547939463479
4530000000.0,22.09,0.0,0.0,0.0,0.5805555360305554,-0.12753,9.84688595195926
4535000000.0,22.09,0.0,0.0,0.0,0.5879133880869339,-0.17314694043466938,9.812746447652264
4540000000.0,22.09,0.0,0.0,0.0,0.5976252881840529,-0.14950413544784136,9.773898847263787
4545000000.0,22.09,0.0,0.0,0.0,0.59841,-0.1382228117188281,9.761832811718827
4550000000.0,22.09,0.0,0.0,0.0,0.59841,-0.15499817675658176,9.805095441891455
4555000000.0,22.09,0.0,0.0,0.0,0.5896790115245901,-0.1656909884754099,9.83619296542623
4560000000.0,22.09,0.0,0.0,0.0,0.5972328885725289,-0.16677,9.813531334282414
4565000000.0,22.09,0.0,0.0,0.0,0.59841,-0.13263084532140845,9.801465211330353
4570000000.0,22.09,0.0,0.0,0.0,0.5899733112332332,-0.14440337753353377,9.791753311233235
4575000000.0,22.09,0.0,0.0,0.0,0.5969385888638858,-0.17216576659165767,9.807057177727772
4580000000.0,22.09,0.0,0.0,0.0,0.5901695110389951,-0.15185853311698533,9.81
4585000000.0,22.09,0.0,0.0,0.0,0.5804576109418761,-0.1634347781162478,9.801857610941877
4590000000.0,22.09,0.0,0.0,0.0,0.6029228674657287,-0.1506814216895142,9.816278578310486
4595000000.0,22.09,0.0,0.0,0.0,0.60822,-0.15509618925236188,9.811863810747639
4600000000.0,22.09,0.0,0.0,0.0,0.5846757319515573,-0.1412638213010382,9.802151910650519
4605000000.0,22.09,0.0,0.0,0.0,0.5865399894465999,-0.1450899894465999,9.8079399894466
4610000000.0,22.09,0.0,0.0,0.0,0.6039037790874378,-0.15480188954371887,9.794696220912563
4615000000.0,22.09,0.0,0.0,0.0,0.5855586310774863,-0.17962136892251368,9.813041368922514
4620000000.0,22.09,0.0,0.0,0.0,0.5937013794759138,-0.16402293078612928,9.849632758951827
4625000000.0,22.09,0.0,0.0,0.0,0.5910524101649242,-0.1422448203298482,9.822262050824621
4630000000.0,22.09,0.0,0.0,0.0,0.5813405100678051,-0.1445994899321949,9.802740510067805
4635000000.0,22.09,0.0,0.0,0.0,0.57879,-0.1399886099706861,9.778705829912058
4640000000.0,22.09,0.0,0.0,0.0,0.57879,-0.1444032901264329,9.806076450632165
4645000000.0,22.09,0.0,0.0,0.0,0.5996855706706558,-0.16108038044710382,9.826775190223552
4650000000.0,22.09,0.0,0.0,0.0,0.60822,-0.1599029096793291,9.850221270962013
4655000000.0,22.09,0.0,0.0,0.0,0.5946820191644202,-0.15696,9.7913600958221
4660000000.0,22.09,0.0,0.0,0.0,0.5952708905149089,-0.15028910948509108,9.774291781029818
4665000000.0,22.09,0.0,0.0,0.0,0.5852644187759442,-0.1537227906120279,9.800288371836084
4670000000.0,22.09,0.0,0.0,0.0,0.5982140721274407,-0.15696,9.848848144254882
4675000000.0,22.09,0.0,0.0,0.0,0.5827136367749364,-0.15058340919373409,9.849730227581203
4680000000.0,22.09,0.0,0.0,0.0,0.5627015090966151,-0.14715,9.808037545483076
4685000000.0,22.09,0.0,0.0,0.0,0.5777111730015118,-0.14715,9.771838826998488
4690000000.0,22.09,0.0,0.0,0.0,0.5886,-0.15931458219524583,9.791361455488115
4695000000.0,22.09,0.0,0.0,0.0,0.5766316176105162,-0.16078580880525808,9.833936764778969
4700000000.0,22.09,0.0,0.0,0.0,0.5807521825837219,-0.15107390870813908,9.861012182583721
4705000000.0,22.09,0.0,0.0,0.0,0.5943879913889799,-0.15872598277795982,9.828344060277141
4710000000.0,22.09,0.0,0.0,0.0,0.5699605425695055,-0.14970032554170326,9.771740542569505
4715000000.0,22.09,0.0,0.0,0.0,0.5717271663328717,-0.14293179158321792,9.767915374749654
4720000000.0,22.09,0.0,0.0,0.0,0.5940936916803369,-0.15264369168033692,9.808038458401684
4725000000.0,22.09,0.0,0.0,0.0,0.5930144082225441,-0.15156440822254408,9.835015591777456
4730000000.0,22.09,0.0,0.0,0.0,0.5991949837491498,-0.14715,9.8182400325017
4735000000.0,22.09,0.0,0.0,0.0,0.5874224321132243,-0.14715,9.794990608028307
4740000000.0,22.09,0.0,0.0,0.0,0.5842838762064387,-0.15735258413762584,9.79038
4745000000.0,22.09,0.0,0.0,0.0,0.59841,-0.16677,9.81539596082966
4750000000.0,22.09,0.0,0.0,0.0,0.5885998154738982,-0.15695981547389815,9.834524907736949
4755000000.0,22.09,0.0,0.0,0.0,0.5835969923601699,-0.1519569923601699,9.82481300763983
4760000000.0,22.09,0.0,0.0,0.0,0.5933088924572889,-0.1616688924572889,9.810392215085423
4765000000.0,22.09,0.0,0.0,0.0,0.59841,-0.16215920744559206,9.80019
4770000000.0,22.09,0.0,0.0,0.0,0.5848719220454193,-0.15244730734847306,9.809215385303053
4775000000.0,22.09,0.0,0.0,0.0,0.5778091854972919,-0.13832081450270814,9.806566221754062
4780000000.0,22.09,0.0,0.0,0.0,0.592916492845765,-0.14479597138305972,9.803329478537295
4785000000.0,22.09,0.0,0.0,0.0,0.5857548211713482,-0.16255160705711608,9.824028392942884
4790000000.0,22.09,0.0,0.0,0.0,0.5772205860800059,-0.15696,9.821379413919994
4795000000.0,22.09,0.0,0.0,0.0,0.5845778068628781,-0.15293780686287806,9.793911227451511
4800000000.0,22.09,0.0,0.0,0.0,0.5748659067657591,-0.14715,9.786456372936964
4805000000.0,22.09,0.0,0.0,0.0,0.5881099666567997,-0.14715,9.81
4810000000.0,22.09,0.0,0.0,0.0,0.6068463197145633,-0.14715,9.824911573713916
4815000000.0,22.09,0.0,0.0,0.0,0.5886,-0.15077979352559792,9.827461238846412
4820000000.0,22.09,0.0,0.0,0.0,0.5886,-0.15696,9.779784919131849
4825000000.0,22.09,0.0,0.0,0.0,0.5748656251206563,-0.15696,9.767817187439672
4830000000.0,22.09,0.0,0.0,0.0,0.5627019752678198,-0.15696,9.797247469084775
4835000000.0,22.09,0.0,0.0,0.0,0.585362606085926,-0.16019739391407392,9.84580696957037
4840000000.0,22.09,0.0,0.0,0.0,0.5882078820335789,-0.16677,9.866112823955229
4845000000.0,22.09,0.0,0.0,0.0,0.6021376117833761,-0.15460522356675224,9.818141641241816
4850000000.0,22.09,0.0,0.0,0.0,0.5827138115891382,-0.13930237682172378,9.756044528972845
4855000000.0,22.09,0.0,0.0,0.0,0.5746699886050999,-0.16677,9.7501599430255
4860000000.0,22.09,0.0,0.0,0.0,0.5913468943996689,-0.15852931680099316,9.839038260797683
4865000000.0,22.09,0.0,0.0,0.0,0.6010587944967879,-0.13469120550321204,9.891128794496787
4870000000.0,22.09,0.0,0.0,0.0,0.6056693054060931,-0.13773277837562778,9.867681664873116
4875000000.0,22.09,0.0,0.0,0.0,0.595957405308974,-0.1618648106179481,9.765854431853844
4880000000.0,22.09,0.0,0.0,0.0,0.586245505211855,-0.14008651563556515,9.73112797915258
4885000000.0,22.09,0.0,0.0,0.0,0.583302789770528,-0.1222327897705279,9.788026738623167
4890000000.0,22.09,0.0,0.0,0.0,0.5897768200704682,-0.13734,9.876511705017617
4895000000.0,22.09,0.0,0.0,0.0,0.5674107803180078,-0.14146039015900388,9.850318244284482
4900000000.0,22.09,0.0,0.0,0.0,0.5925237144701372,-0.1608841903532419,9.770759524116896
4905000000.0,22.09,0.0,0.0,0.0,0.5671160047262601,-0.17471600472626003,9.737111985821219
4910000000.0,22.09,0.0,0.0,0.0,0.5644676861125769,-0.16323820925828209,9.775077162966872
4915000000.0,22.09,0.0,0.0,0.0,0.5886,-0.14881779546797796,9.846101181871912
4920000000.0,22.09,0.0,0.0,0.0,0.587030304434903,-0.15852969556509694,9.873960913304709
4925000000.0,22.09,0.0,0.0,0.0,0.5832047869866479,-0.16677,9.83452404337784
4930000000.0,22.09,0.0,0.0,0.0,0.6040995127219951,-0.16539650424066504,9.752513495759334
4935000000.0,22.09,0.0,0.0,0.0,0.580065395856454,-0.15185841657418417,9.76732697928227
4940000000.0,22.09,0.0,0.0,0.0,0.5909545919071459,-0.12478377572143776,9.814709183814292
4945000000.0,22.09,0.0,0.0,0.0,0.607140803949308,-0.1733424118479241,9.850319196050691
4950000000.0,22.09,0.0,0.0,0.0,0.5964478077043781,-0.1500932884434329,9.852182326965323
4955000000.0,22.09,0.0,0.0,0.0,0.57967299624493,-0.1739310112652101,9.78861400751014
4960000000.0,22.09,0.0,0.0,0.0,0.5893848963420489,-0.14636510365795105,9.772329792684097
4965000000.0,22.09,0.0,0.0,0.0,0.5990967964391679,-0.13940038931750387,9.793813982195841
4970000000.0,22.09,0.0,0.0,0.0,0.607631303463713,-0.16559260692742608,9.840018696536287
4975000000.0,22.09,0.0,0.0,0.0,0.598900596633406,-0.1486217899002179,9.847277613466376
4980000000.0,22.09,0.0,0.0,0.0,0.6070425098084251,-0.17579500653895005,9.81
4985000000.0,22.09,0.0,0.0,0.0,0.578495603172356,-0.15696,9.809705603172356
4990000000.0,22.09,0.0,0.0,0.0,0.5699614846238149,-0.15696,9.800582593849526
4995000000.0,22.09,0.0,0.0,0.0,0.6176372119124722,-0.15715639404376394,9.81981
5000000000.0,22.09,0.0,0.0,0.0,0.578790097119001,-0.17657980576199805,9.819810194238002
5005000000.0,22.09,0.0,0.0,0.0,0.58850199721612,-0.15715600556776005,9.83923399443224
5010000000.0,22.09,0.0,0.0,0.0,0.607827794626478,-0.14734610268676102,9.810588308060284
5015000000.0,22.09,0.0,0.0,0.0,0.5987042025896421,-0.14715,9.790968405179285
5020000000.0,22.09,0.0,0.0,0.0,0.59841,-0.16598539501495396,9.780962302492524
5025000000.0,22.09,0.0,0.0,0.0,0.607729597604596,-0.157450402395404,9.836487585627577
5030000000.0,22.09,0.0,0.0,0.0,0.6174414977017151,-0.15696,9.848651497701715
5035000000.0,22.09,0.0,0.0,0.0,0.6180300000000001,-0.12958980660349806,9.812746408804665
5040000000.0,22.09,0.0,0.0,0.0,0.609004702104047,-0.16363119158381192,9.764873510520234
5045000000.0,22.09,0.0,0.0,0.0,0.5903656040138561,-0.16677,9.76095
5050000000.0,22.09,0.0,0.0,0.0,0.5709418038196181,-0.14911180381961803,9.787437294270573
5055000000.0,22.09,0.0,0.0,0.0,0.57771099818731,-0.12968800362538005,9.86022798549848
5060000000.0,22.09,0.0,0.0,0.0,0.587422898284429,-0.15342869485328695,9.877492898284428
5065000000.0,22.09,0.0,0.0,0.0,0.5886,-0.165494798381548,9.818926411329164
5070000000.0,22.09,0.0,0.0,0.0,0.5886,-0.16677,9.767816507606664
5075000000.0,22.09,0.0,0.0,0.0,0.580261401424214,-0.14175420427264204,9.752611401424213
5080000000.0,22.09,0.0,0.0,0.0,0.587030498672905,-0.15382099734580995,9.80058299203743
5085000000.0,22.09,0.0,0.0,0.0,0.6130271963100721,-0.148817601229976,9.858854392620144
5090000000.0,22.09,0.0,0.0,0.0,0.593897103398571,-0.15519429886714298,9.836682804531428
5095000000.0,22.09,0.0,0.0,0.0,0.580653801035738,-0.15696,9.773996607250165
5100000000.0,22.09,0.0,0.0,0.0,0.57879,-0.15696,9.753101900938619
5105000000.0,22.09,0.0,0.0,0.0,0.57879,-0.15696,9.7898899957925
5110000000.0,22.09,0.0,0.0,0.0,0.586441899255619,-0.15696,9.838449496278095
5115000000.0,22.09,0.0,0.0,0.0,0.5886,-0.164513799352738,9.841686200647262
5120000000.0,22.09,0.0,0.0,0.0,0.5886,-0.16677,9.787240103851001
5125000000.0,22.09,0.0,0.0,0.0,0.595957599546976,-0.152054800906048,9.763402400453023
5130000000.0,22.09,0.0,0.0,0.0,0.605669499644095,-0.139890500355905,9.78998799857638
5135000000.0,22.09,0.0,0.0,0.0,0.601058600258786,-0.15166279948242797,9.81451279948243
5140000000.0,22.09,0.0,0.0,0.0,0.591346700161667,-0.15696,9.833936599676667
5145000000.0,22.09,0.0,0.0,0.0,0.595565199935452,-0.143029600129096,9.818534400193645
5150000000.0,22.09,0.0,0.0,0.0,0.577808699902287,-0.151074200065142,9.789398699902288
5155000000.0,22.09,0.0,0.0,0.0,0.57574900012969,-0.13665299961093,9.78057
5160000000.0,22.09,0.0,0.0,0.0,0.57879,-0.147542700680427,9.807253600907236
5165000000.0,22.09,0.0,0.0,0.0,0.5853628003239281,-0.13724159902821598,9.826382800323929
5170000000.0,22.09,0.0,0.0,0.0,0.601549400842094,-0.140479400842094,9.82962
5175000000.0,22.09,0.0,0.0,0.0,0.601843399481834,-0.14715,9.804113597927337
5180000000.0,22.09,0.0,0.0,0.0,0.592131499384715,-0.153428500615285,9.79038
5185000000.0,22.09,0.0,0.0,0.0,0.594780400712404,-0.15696,9.808921202137213
5190000000.0,22.09,0.0,0.0,0.0,0.59841,-0.15696,9.831974601619047
5195000000.0,22.09,0.0,0.0,0.0,0.586441598186716,-0.15097579909335798,9.83943
5200000000.0,22.09,0.0,0.0,0.0,0.5905622020075221,-0.13537779799247798,9.83943
5205000000.0,22.09,0.0,0.0,0.0,0.58104599669736,-0.14489400330264002,9.82206599669736
5210000000.0,22.09,0.0,0.0,0.0,0.591739604791996,-0.15696,9.775860592812005
5215000000.0,22.09,0.0,0.0,0.0,0.6026281987048819,-0.151368198704882,9.773507205180472
5220000000.0,22.09,0.0,0.0,0.0,0.592916298607763,-0.152643701392237,9.823342208353422
5225000000.0,22.09,0.0,0.0,0.0,0.593995601489356,-0.15696,9.843844398510644
5230000000.0,22.09,0.0,0.0,0.0,0.582517495240575,-0.15696,9.823537495240576
5235000000.0,22.09,0.0,0.0,0.0,0.5793788033671881,-0.16735880336718803,9.78400299158203
5240000000.0,22.09,0.0,0.0,0.0,0.578397396438574,-0.17147869821928696,9.77625390534214
5245000000.0,22.09,0.0,0.0,0.0,0.578986403755664,-0.161766798122168,9.805389605633497
5250000000.0,22.09,0.0,0.0,0.0,0.583694898025049,-0.16186510197495102,9.82471510197495
5255000000.0,22.09,0.0,0.0,0.0,0.57879,-0.16677,9.82481299792793
5260000000.0,22.09,0.0,0.0,0.0,0.5929167065075671,-0.16206109783081096,9.791556586984866
5265000000.0,22.09,0.0,0.0,0.0,0.5943875932010759,-0.16157080226630802,9.78400401133154
5270000000.0,22.09,0.0,0.0,0.0,0.587815404726854,-0.15323189290971892,9.828050809453709
5275000000.0,22.09,0.0,0.0,0.0,0.5851661926183619,-0.14616920492109203,9.84924
5280000000.0,22.09,0.0,0.0,0.0,0.5819295076729951,-0.15696,9.83197398976934
5285000000.0,22.09,0.0,0.0,0.0,0.589973194690432,-0.1738336106191361,9.797344792035648
5290000000.0,22.09,0.0,0.0,0.0,0.582910302751903,-0.17147818348858185,9.792930908255709
5295000000.0,22.09,0.0,0.0,0.0,0.584577797150978,-0.141362202849022,9.822066608547066
5300000000.0,22.09,0.0,0.0,0.0,0.582714102946141,-0.1589223088384231,9.827657691161578
5305000000.0,22.09,0.0,0.0,0.0,0.5886,-0.16892799391347993,9.80234799391348
5310000000.0,22.09,0.0,0.0,0.0,0.5886,-0.15696,9.786652096859621
5315000000.0,22.09,0.0,0.0,0.0,0.5886,-0.1460705902875059,9.791459409712495
5320000000.0,22.09,0.0,0.0,0.0,0.5815365933307659,-0.13459340666923408,9.824126813338468
5325000000.0,22.09,0.0,0.0,0.0,0.5792808102952082,-0.15058360343173605,9.835505586273056
5330000000.0,22.09,0.0,0.0,0.0,0.5884034894134349,-0.15362449647114496,9.813335503528856
5335000000.0,22.09,0.0,0.0,0.0,0.56898,-0.15038740362597403,9.813335192748053
5340000000.0,22.09,0.0,0.0,0.0,0.5815372148923722,-0.15696,9.803329303723094
5345000000.0,22.09,0.0,0.0,0.0,0.5960551847191519,-0.1508775923595759,9.816082407640424
5350000000.0,22.09,0.0,0.0,0.0,0.5748662078346621,-0.14322620783466206,9.826676896082668
5355000000.0,22.09,0.0,0.0,0.0,0.5886,-0.15411499598554995,9.8141199919711
5360000000.0,22.09,0.0,0.0,0.0,0.5803592876652929,-0.15264380822313808,9.80019
5365000000.0,22.09,0.0,0.0,0.0,0.5671164126260642,-0.16677,9.805487608417376
5370000000.0,22.09,0.0,0.0,0.0,0.586049295694193,-0.16677,9.81981
5375000000.0,22.09,0.0,0.0,0.0,0.5836952088058521,-0.1618647911941479,9.81981
5380000000.0,22.09,0.0,0.0,0.0,0.59841,-0.15421351350013512,9.81510099099991
5385000000.0,22.09,0.0,0.0,0.0,0.596153595402836,-0.1675543816113438,9.80019
5390000000.0,22.09,0.0,0.0,0.0,0.5886,-0.13949830469428304,9.804506609388566
5395000000.0,22.09,0.0,0.0,0.0,0.5886,-0.14508979520859797,9.823930409582804
5400000000.0,22.09,0.0,0.0,0.0,0.5886,-0.1334157902229579,9.831581580445915
5405000000.0,22.09,0.0,0.0,0.0,0.5886,-0.12704002492820027,9.796461990028721
5410000000.0,22.09,0.0,0.0,0.0,0.5921318101655181,-0.16500409491724094,9.787633620331038
5415000000.0,22.09,0.0,0.0,0.0,0.60822,-0.15696,9.81981
5420000000.0,22.09,0.0,0.0,0.0,0.6066502947230029,-0.1600994105539941,9.822949410553994
5425000000.0,22.09,0.0,0.0,0.0,0.5969383946258839,-0.17510839462588393,9.83207197312942
5430000000.0,22.09,0.0,0.0,0.0,0.5886,-0.16677,9.78488597811506
5435000000.0,22.09,0.0,0.0,0.0,0.5860491888632919,-0.16804540556835407,9.75751702784177
5440000000.0,22.09,0.0,0.0,0.0,0.5736892226618923,-0.17304808300358082,9.80372191699642
5445000000.0,22.09,0.0,0.0,0.0,0.6049823827122238,-0.14822920576259205,9.828540794237409
5450000000.0,22.09,0.0,0.0,0.0,0.579771105859711,-0.15696,9.812942258982023
5455000000.0,22.09,0.0,0.0,0.0,0.5877169940431699,-0.15607699404316994,9.752906011913659
5460000000.0,22.09,0.0,0.0,0.0,0.5795749060539491,-0.14793490605394907,9.774684530269745
5465000000.0,22.09,0.0,0.0,0.0,0.5879131938489319,-0.15696,9.822557224604273
5470000000.0,22.09,0.0,0.0,0.0,0.5793787062481871,-0.1581374124963741,9.857872587503627
5475000000.0,22.09,0.0,0.0,0.0,0.5886,-0.17559878730938785,9.835505149237552
5480000000.0,22.09,0.0,0.0,0.0,0.5886,-0.1557824806727248,9.76095
5485000000.0,22.09,0.0,0.0,0.0,0.5886,-0.1284132196186322,9.76242203269772
5490000000.0,22.09,0.0,0.0,0.0,0.5889926132733262,-0.15676369336333693,9.810785226546653
5495000000.0,22.09,0.0,0.0,0.0,0.6079253797986538,-0.14715,9.848945379798653
5500000000.0,22.09,0.0,0.0,0.0,0.578789893169099,-0.14714989316909893,9.819809572676396
5505000000.0,22.09,0.0,0.0,0.0,0.5690779930719799,-0.13743799307197993,9.78096197228792
5510000000.0,22.09,0.0,0.0,0.0,0.5882078140502781,-0.15656781405027814,9.78057
5515000000.0,22.09,0.0,0.0,0.0,0.5886,-0.14744419287774194,9.809117421366775
5520000000.0,22.09,0.0,0.0,0.0,0.5980177072193771,-0.1377322927806229,9.828835414438755
5525000000.0,22.09,0.0,0.0,0.0,0.5890903926835039,-0.15597921463299214,9.810980785367008
5530000000.0,22.09,0.0,0.0,0.0,0.5886,-0.16618150741361506,9.81
5535000000.0,22.09,0.0,0.0,0.0,0.597723407510734,-0.1576465924892659,9.81
5540000000.0,22.09,0.0,0.0,0.0,0.589384692392147,-0.17501061521570616,9.81
5545000000.0,22.09,0.0,0.0,0.0,0.5886,-0.1676527922950279,9.81
5550000000.0,22.09,0.0,0.0,0.0,0.5886,-0.1579408921979089,9.81
5555000000.0,22.09,0.0,0.0,0.0,0.5886,-0.16569100789921007,9.827462015798421
5560000000.0,22.09,0.0,0.0,0.0,0.5799670920036709,-0.14950418400734183,9.812354184007342
5565000000.0,22.09,0.0,0.0,0.0,0.6043944242803442,-0.14715,9.818534808093448
5570000000.0,22.09,0.0,0.0,0.0,0.5997832918094329,-0.1387132918094329,9.794499875428299
5575000000.0,22.09,0.0,0.0,0.0,0.5817327834246279,-0.15401721657537215,9.798718608287686
5580000000.0,22.09,0.0,0.0,0.0,0.570549491615195,-0.18168152515441524,9.80019
5585000000.0,22.09,0.0,0.0,0.0,0.5934072254457723,-0.15382036607230365,9.824617225445772
5590000000.0,22.09,0.0,0.0,0.0,0.590365691420957,-0.15519430857904307,9.837664308579043
5595000000.0,22.09,0.0,0.0,0.0,0.5886,-0.15696,9.79969895661919
5600000000.0,22.09,0.0,0.0,0.0,0.5807518912267189,-0.1648081087732811,9.798228108773282
5605000000.0,22.09,0.0,0.0,0.0,0.5865400088704001,-0.15126998225919983,9.8079400088704
5610000000.0,22.09,0.0,0.0,0.0,0.5732961820649618,-0.14715,9.840607635870077
5615000000.0,22.09,0.0,0.0,0.0,0.5840876181292762,-0.1622576181292762,9.81147095467681
5620000000.0,22.09,0.0,0.0,0.0,0.5886,-0.13694716335297163,9.785278581676486
5625000000.0,22.09,0.0,0.0,0.0,0.5812423907411239,-0.16431804629438046,9.795285218517753
5630000000.0,22.09,0.0,0.0,0.0,0.6005685280679853,-0.14754196257601962,9.807449509355996
5635000000.0,22.09,0.0,0.0,0.0,0.5867357716406577,-0.13734,9.838645637812457
5640000000.0,22.09,0.0,0.0,0.0,0.5999799286506993,-0.1444033095502331,9.842176690449767
5645000000.0,22.09,0.0,0.0,0.0,0.5873243710579438,-0.14715,9.80460395176324
5650000000.0,22.09,0.0,0.0,0.0,0.57879,-0.1402828902555289,9.749177341533173
5655000000.0,22.09,0.0,0.0,0.0,0.57879,-0.14410900984159009,9.785672078732722
5660000000.0,22.09,0.0,0.0,0.0,0.5921318198774183,-0.1604918198774182,9.836683639754837
5665000000.0,22.09,0.0,0.0,0.0,0.5918371899641719,-0.1536243799283438,9.855812810035829
5670000000.0,22.09,0.0,0.0,0.0,0.5821252898670529,-0.16009942026589422,9.813727029069371
5675000000.0,22.09,0.0,0.0,0.0,0.572413389769934,-0.1540167795398678,9.796756610230068
5680000000.0,22.09,0.0,0.0,0.0,0.56898,-0.1597070206543702,9.80019
5685000000.0,22.09,0.0,0.0,0.0,0.5813408208486083,-0.1544091791513918,9.794009589575696
5690000000.0,22.09,0.0,0.0,0.0,0.582517689478577,-0.1410676894785769,9.814709242085693
5695000000.0,22.09,0.0,0.0,0.0,0.5967426318556264,-0.1433242106185421,9.835604210618543
5700000000.0,22.09,0.0,0.0,0.0,0.5964477785686778,-0.15892222143132223,9.83354388928434
5705000000.0,22.09,0.0,0.0,0.0,0.5886,-0.1609819891872199,9.81804397837444
5710000000.0,22.09,0.0,0.0,0.0,0.5942899109098991,-0.1512700890901009,9.804310089090102
5715000000.0,22.09,0.0,0.0,0.0,0.59841,-0.1527418110070181,9.816965433021055
5720000000.0,22.09,0.0,0.0,0.0,0.5874225777917258,-0.1514662888958629,9.824126288895863
5725000000.0,22.09,0.0,0.0,0.0,0.57879,-0.1525456112012561,9.814414388798744
5730000000.0,22.09,0.0,0.0,0.0,0.5893850225967502,-0.14636497740324977,9.82059502259675
5735000000.0,22.09,0.0,0.0,0.0,0.6088088227909882,-0.13734,9.80362294302253
5740000000.0,22.09,0.0,0.0,0.0,0.6078273770147739,-0.13734,9.78057
5745000000.0,22.09,0.0,0.009782614112214727,0.0,0.6234260579486606,-0.13734,9.760557153641072
5750000000.0,22.09,0.0,0.047403785098520466,0.0,0.5935037714446377,-0.1422451116868511,9.760950446747405
5755000000.0,22.09,-0.0005216910450111053,0.09181464350868576,0.0,0.5059009175122092,-0.12792195286411953,9.895938282815283
5760000000.0,22.09,0.003534750080309499,0.1383215385207009,0.004599400924025999,0.4237908811891088,-0.06552979307019793,9.827653524756435
5765000000.0,22.09,0.0025124301591297653,0.14941573018924023,0.005078275150496898,0.29439619637046194,-0.01962,9.517561324501212
5770000000.0,22.09,-0.006707361131464895,0.1281473704852304,0.0034282608592382776,0.13380660679476608,-0.015107287924672877,9.65069187621832
5775000000.0,22.09,-0.013422552202033564,0.10417627559313927,0.0045779255854798955,-0.00392534606935345,-0.04071228520712285,10.070949140828493
5780000000.0,22.09,-0.020927268968854176,0.0441805575966657,0.003406943621344076,0.0047107085826070955,-0.10869558588695585,10.148639291417393
5785000000.0,22.09,-0.029082543274284237,-0.024769056960078317,0.0008941603707585148,0.0981,-0.17667888656678887,10.00462905159979
5790000000.0,22.09,-0.036492427814359546,-0.11773073393363201,-0.009965229540149362,0.18874687420366873,-0.3023465617398656,9.73975500173745
5795000000.0,22.09,-0.029614502429632414,-0.1941447974704124,-0.010976440255524179,0.37425318841383187,-0.4057411497563115,9.531005400974754
5800000000.0,22.09,-0.013637904763046774,-0.23499883356696594,-0.00787848960220485,0.5395522531608226,-0.4218311265804113,9.827663858218138
5805000000.0,22.09,0.0018702518859545023,-0.25899842846010784,-0.008389350752562664,0.7567463316341634,-0.47686398724483986,10.14138202551032
5810000000.0,22.09,0.022162313317128937,-0.21933741901864934,-0.005621429940006286,0.942153302818233,-0.46342417429544175,10.089975481511255
5815000000.0,22.09,0.037436011537455405,-0.16202433918109882,-0.00682432610172916,1.0271081294939812,-0.4040724316578243,9.761531597137317
5820000000.0,22.09,0.06025181594646965,-0.09012591031594713,-0.0013627285427359492,1.0712514347674145,-0.25662745211617455,9.360701434767414
5825000000.0,22.09,0.07792033516894,-0.034996112998400906,0.0007452801489028076,1.067328905149089,-0.09613664227636642,9.428884781165447
5830000000.0,22.09,0.08307379580150362,-0.0029533894648126387,0.0028532888405415984,1.091655894073959,0.060432317778123176,9.74388501638945
5835000000.0,22.09,0.07358177556004153,0.01180772964718732,0.0028532150602374236,1.0204355199727553,0.21258258666212587,10.01257706668937
5840000000.0,22.09,0.05279320786110643,-0.004301152476302519,0.00034070058076003917,0.9747213731300137,0.20914931343499313,10.079972447784924
5845000000.0,22.09,0.031557314393779484,-0.000479031273118381,-0.0009156736534610677,0.937050291743103,0.19757271880732719,9.998248109862281
5850000000.0,22.09,0.004045377241702523,0.008629117665485804,-0.003406808708787864,0.8917293408876934,0.14813065911230658,9.635381318224614
5855000000.0,22.09,-0.015698089147892183,0.034592258567969277,0.0010646508437165,0.8753448215574482,0.12183997254729972,9.554349807831098
5860000000.0,22.09,-0.02740545658766439,0.06859848268503972,0.0007665362545449469,0.7902938276469383,0.08318777558877775,9.528259759410197
5865000000.0,22.09,-0.047252233321223316,0.08738892988735611,0.0020122766389210744,0.7964735582382356,0.011673558238235583,9.76752509233235
5870000000.0,22.09,-0.055290470984093606,0.1314311331888777,0.005514804752374479,0.7392800037521001,-0.03276642615936426,9.951069282230192
5875000000.0,22.09,-0.0671079097391819,0.14967544506746105,0.0018632256683613689,0.6302921576555216,-0.12998398349273985,10.030724315311042
5880000000.0,22.09,-0.06736343833676499,0.17492045026883118,0.0071970273084326335,0.5540661731252617,-0.23975708527167086,9.90888103100581
5885000000.0,22.09,-0.06866232478227038,0.17627235840295302,0.0054083766635553724,0.3735643427637434,-0.30254131447251315,9.626747371054975
5890000000.0,22.09,-0.06608562143813251,0.1642059994674636,0.0018950660856441762,0.31313359831343596,-0.36512831440618315,9.55984786015458
5895000000.0,22.09,-0.04778064512991237,0.1486979513809099,0.0012882399476082022,0.20188957099339572,-0.387201501523115,9.823247507615575
5900000000.0,22.09,-0.033021505075219816,0.12526892572296702,0.0023422442934276006,0.16873096859620967,-0.44145,10.12588383360674
5905000000.0,22.09,-0.02227584917928722,0.09517516076129541,0.0025870642068572037,0.08505189711721897,-0.428401897117219,10.152657221030372
5910000000.0,22.09,-0.010476014802194277,0.055198194337754164,0.00019164961020033759,0.027664085205340853,-0.37454591479465915,9.70856310766943
5915000000.0,22.09,0.0036230295102005687,0.0028604073439907098,0.0010646508437165,0.022955629783556294,-0.3659118510822185,9.597318740432888
5920000000.0,22.09,0.023354749539723916,-0.042992920860613765,0.00021286777168601158,0.05650686487786864,-0.2750717100666171,9.647944894411548
5925000000.0,22.09,0.03472512075748512,-0.09055079939015696,-0.004098893258357127,0.16333776594617766,-0.2226867698279677,10.078793539655935
5930000000.0,22.09,0.03923926537798654,-0.12989604322907597,-0.003641143386985168,0.26467460628194606,-0.19914242408432423,10.016596181154162
5935000000.0,22.09910082259101,0.0443175373664704,-0.15135305851435116,-0.006664739303728673,0.3364841528025415,-0.15568458471974583,9.827951262477713
5940000000.0,22.16,0.04205201328910951,-0.16643043392838938,-0.007878353635644235,0.4383124152832241,-0.14361805386788054,9.727593692452537
5945000000.0,22.16,0.045461600422467975,-0.16796626061994996,-0.0029597042813086154,0.5699621547449216,-0.11340313810203138,9.588395679709256
5950000000.0,22.16,0.041964621279041284,-0.16361746046033632,-0.0012776060977632406,0.6710056180025562,-0.07848,9.861012231143222
5955000000.0,22.16,0.03592808859150356,-0.14866816635849522,-0.0032897836602758437,0.8016741253498413,-0.07671396866253968,9.87778698433127
5960000000.0,22.16,0.03285126018527445,-0.1311067374851484,-0.0042586033748661,0.8754447472975475,-0.05886,9.860225926575659
5965000000.0,22.16,0.030594175226971585,-0.10566033498220631,-0.004109527108202091,0.9045804475889044,-0.05679955241109553,9.752708209644382
5970000000.0,22.16,0.025865977356355235,-0.07811115996026412,-0.0020015184165632417,0.93607101172061,-0.03001871596008716,9.650294591521046
5975000000.0,22.16,0.01352099014308844,-0.04799519013353032,0.0,1.0016012321144123,-0.03825876788558768,9.760459383942793
5980000000.0,22.16,0.006898773590687416,-0.006982957384314585,0.0,1.0190624515370246,-0.019227483845674836,9.750354967691349
5985000000.0,22.16,-0.006355952920555685,0.03097847782495192,6.390428348702891e-05,0.9881602537370026,-0.010398832502888325,9.732108832502888
5990000000.0,22.16,-0.005515005013200242,0.0686629396642155,0.002086690399740214,0.9007531528629316,-0.02923368365143684,9.752514214439941
5995000000.0,22.16,-0.014969241427824659,0.09278357474039152,3.197743784781512e-05,0.8138371342172714,-0.019816432891364328,9.820890380902505
6000000000.0,22.16,-0.021310533407111452,0.1033234917180643,0.00319396517920175,0.774988601486386,-0.0392403496284035,9.927718251857984
6005000000.0,22.16,-0.02658055513620854,0.1033234917180643,0.004247969525021128,0.658445800320958,-0.06837604991976048,9.782039750401198
6010000000.0,22.16,-0.03915417033712677,0.08871630477442202,8.512139096837536e-05,0.599586499577765,-0.1648091673703917,9.79018391673704
6015000000.0,22.16,-0.04044225850810928,0.07291059003326496,0.0,0.5698625494975256,-0.20483326733663268,9.704737648492577
6020000000.0,22.16,-0.04149626285392866,0.058122078955241734,0.0,0.5501445661374458,-0.26251630158766304,9.852773470900434
6025000000.0,22.16,-0.03547025018376646,0.041326575273100796,0.0010114310022830422,0.540040382971604,-0.2928288510851885,9.93360693622717
6030000000.0,22.16,-0.02214073257814826,0.037471831840590546,6.386633933057936e-05,0.5118854486234545,-0.33118606850206067,9.817650277368303
6035000000.0,22.16,-0.01535341035731949,0.02440843873824395,-0.000990138006488799,0.5009965827773658,-0.31529316555473164,9.74613607944156
6040000000.0,22.16,-0.0021717222003392322,0.01952180581991691,-8.515933512482244e-05,0.5093353173197532,-0.30489468268024683,9.678152778761728
6045000000.0,22.16,0.005717264231145574,0.020150013490112247,-0.0019376900213891118,0.51012,-0.2326922606650226,9.904767652838677
6050000000.0,22.16,0.013095294651881511,0.01448092007400842,0.0007452938509593032,0.4748035299440353,-0.20797176497201764,9.954207352541975
6055000000.0,22.16,0.019541306697305638,0.013840460968315,0.00011709882881618717,0.4359559295555593,-0.20601,9.861108806277787
6060000000.0,22.16,0.02211963035714067,0.013840460968315,-0.0018738110340063825,0.4402729177082292,-0.14557957604239574,9.667948728127188
6065000000.0,22.16,0.025153898067885597,0.013840460968315,0.0006494753698852093,0.43291518219465186,-0.06906145755721456,9.617625546583955
6070000000.0,22.16,0.022822235978089966,0.023011596221736083,0.0010646508437165,0.43164,-0.03354984629259847,9.866901537074014
6075000000.0,22.16,0.016945324870696086,0.0245044226980003,0.0010646508437165,0.40662414600124147,-0.02109138200041382,9.991486179995864
6080000000.0,22.16,0.004346401142049894,0.023610103172585595,0.001958970369131205,0.36924792761317926,-0.003138963806589637,9.890832746646128
6085000000.0,22.16,-0.007591101615260668,0.01193753605348069,0.00036195563239783284,0.3548275818061758,-0.024427254581472546,9.746723727092638
6090000000.0,22.16,-0.011327910652689807,-0.0008944607619970728,-0.000873026529620462,0.38533727316377275,-0.08574022803660229,9.72171
6095000000.0,22.16,-0.014298299376052002,-0.017006170416292817,-0.0002022708119931595,0.37650756322387563,-0.13783109194031093,9.79322596549256
6100000000.0,22.16,-0.015770808190674588,-0.037280489999659217,-0.0034069341353049555,0.4355649478814495,-0.17854247394072476,9.88848118485181
6105000000.0,22.16,-0.017669390020126276,-0.05248675597660812,-0.0034175163389370024,0.4745100557469006,-0.22514009291150094,9.846099851341599
6110000000.0,22.16,-0.015611582242293049,-0.0653620369146841,-0.0031939525311496,0.5266015120765152,-0.27369959339709593,9.806664243961743
6115000000.0,22.16,-0.010806141611357074,-0.07720373427094183,-0.004013746571284454,0.5924267314357673,-0.31470527510615276,9.807743818776538
6120000000.0,22.16,-0.002299529713308976,-0.07909202561406259,0.0005962818785603726,0.6529543132419432,-0.32373,9.8621900321156
6125000000.0,22.16,0.004791006266043818,-0.07803802126824319,-0.0002662014455888338,0.703868094853881,-0.30901476205844763,9.900742856912327
6130000000.0,22.16,0.01664292981436733,-0.07698401692242374,-0.0018525053901599898,0.752427595339476,-0.2968504809321048,9.820985771185258
6135000000.0,22.16,0.028017899808598173,-0.0658135668299512,-0.002129301687433,0.8009870958250711,-0.22984722751487227,9.690120131689802
6140000000.0,22.16,0.03319201241224742,-0.054119040014106445,-0.002129301687433,0.8354199577863995,-0.19188336147573362,9.723673192621332
6145000000.0,22.16,0.03559811039695352,-0.03751928408384989,-0.002129301687433,0.84366,-0.10977258704822587,9.862583509748035
6150000000.0,22.16,0.03323450775946214,-0.017784658544477798,-0.0006387645777229929,0.8367928805436289,-0.04414440271814402,9.91496711945637
6155000000.0,22.16,0.02828386831922655,0.00151203774436039,-0.000734622056957882,0.8270809804465099,-0.01589196089301961,9.802836667590666
6160000000.0,22.16,0.02590974882637264,0.022667911098080137,-0.0010646508437165,0.7906854017469541,0.02354459825304598,9.67108896419269
6165000000.0,22.16,0.02057577011357123,0.04481928112005547,0.0003620072786107778,0.7486987210090872,0.08524973823409739,9.686002557981825
6170000000.0,22.16,0.006159394673886813,0.06414840150268156,0.0010646508437165,0.6839522412412224,0.0949605603103056,9.809020797672709
6175000000.0,22.16,-0.008996468849802472,0.07861763990829526,0.002448722974455357,0.6317635202321352,0.06278352023213521,9.852673380058034
6180000000.0,22.16,-0.024753864368650045,0.08309512568745,0.0011497838287327132,0.5866373998045741,0.017657399804574002,9.799011839687317
6185000000.0,22.16,-0.038270501525626534,0.07637669920367236,0.0013414861391503055,0.5195366389103664,-0.04944336108963361,9.721316638910366
6190000000.0,22.16,-0.0445945980114891,0.06252971538259376,0.002129301687433,0.4783353595333536,-0.12713856186658562,9.759185522566556
6195000000.0,22.16,-0.04646434293863201,0.044760653251438666,0.00018095146609027092,0.4648957796695578,-0.20483376264353764,9.872000643965306
6200000000.0,22.16,-0.045591464367031403,0.02642057203257398,0.00021295630805107622,0.4669561204275612,-0.2825289634204896,9.947340602137805
6205000000.0,22.16,-0.03970753210472109,0.00786404341864104,-0.0014479774682302252,0.47088,-0.34864812314808125,9.880139692129797
6210000000.0,22.16,-0.030657986758076163,-0.010507802985786411,-0.0013414207908809068,0.47088,-0.401229603108996,9.762910793782009
6215000000.0,22.16,-0.019341406807612708,-0.01993710988227843,-0.001213728164384847,0.5044309243135092,-0.4162381792810818,9.772036386470264
6220000000.0,22.16,-0.004897197203885191,-0.02309912291973666,-0.0009368665188423961,0.5407274416320744,-0.38455139591981397,9.864937208160372
6225000000.0,22.16,0.010922467509412597,-0.02157656726600929,0.0,0.5709424836526249,-0.3359918954342189,9.875726274521062
6230000000.0,22.16,0.02674038646321731,-0.016297120543658106,-0.0017247737655032307,0.5727074369691744,-0.2662423109075231,9.785669747876698
6235000000.0,22.16,0.036907670744469,-0.009890514334087278,-0.001501118259337735,0.5643694211073943,-0.1840346311408463,9.726320578892606
6240000000.0,22.16,0.041070429288152396,-0.001405220727937701,0.0011072631854136315,0.5536760363864605,-0.10123810915938108,9.793128496863185
6245000000.0,22.16,0.03988856156713293,0.007537833289627307,0.0010433314978136115,0.5395500000000001,-0.028840672190206723,9.899075770413058
6250000000.0,22.16,0.03355386264421064,0.0175756107091649,0.0005323385969125727,0.5052141502087415,0.019620485595004854,9.908099271607492
6255000000.0,22.16,0.02408906382741284,0.025526540250345703,0.0005429587447010488,0.46126595700825956,0.03924,9.782529570082596
6260000000.0,22.16,0.014530820631133024,0.026676284026913293,0.0010220912022366592,0.4371332352210323,0.043948921592989215,9.654216470442064
6265000000.0,22.16,0.0061429165081743385,0.022066279819168304,0.001628902584211792,0.42183,0.04443917830989178,9.674329038591189
6270000000.0,22.16,-0.0057918856308209424,0.013210962851225205,8.514563306832694e-05,0.4263427217872272,0.0076509474894094764,9.817261713957317
6275000000.0,22.16,-0.019597588455921196,0.001224176509464975,-0.0005855447362895349,0.43605462188434624,-0.06916159695911597,9.93998310942173
6280000000.0,22.16,-0.02991294165214244,-0.01248555965191741,-0.0004684596095298435,0.4543995659443957,-0.15225217585172177,9.893579126315093
6285000000.0,22.16,-0.033170654068183716,-0.02940208155578898,-0.001522463955349222,0.4750984220785842,-0.22994737662867376,9.770661045449911
6290000000.0,22.16,-0.030615478762809255,-0.047806499389988814,-0.0025764683011686423,0.5136525774056258,-0.30352225522992254,9.727399677824296
6295000000.0,22.16,-0.025270865146158547,-0.06039008234456298,-0.002320912299472601,0.5913477781825779,-0.3594388890912889,9.761932222728221
6300000000.0,22.16,-0.01512835437311734,-0.06902437422105502,-0.0014905244616578574,0.6533464894797649,-0.37474175526011755,9.847278856589588
6305000000.0,22.16,-0.0037155118256175005,-0.07058922496117143,-0.0029597559275215107,0.6998461348023615,-0.35914397753293975,9.869349887664699
6310000000.0,22.16,0.007395482244561224,-0.061188291429699844,-0.0026402808862776047,0.7469337676925377,-0.33824830974328307,9.813334542050745
6315000000.0,22.16,0.019926557190768076,-0.04971558371615372,0.0,0.7796992906451929,-0.2848814187096142,9.774389822661298
6320000000.0,22.16,0.028933450143550737,-0.03715224823689904,-0.0007665752527057423,0.8079517227584173,-0.2107179406910794,9.798228613792087
6325000000.0,22.16,0.03525747621846727,-0.01773750097318757,-0.0013840194305215006,0.8107963771444638,-0.13586739430017394,9.833053622855536
6330000000.0,22.16,0.04013352377114919,0.004051874418229099,0.0,0.7977489540946896,-0.06513790818937908,9.812745816378758
6335000000.0,22.16,0.0401334436668189,0.025494828421593035,0.00035134813266150653,0.7653754617013546,-0.026290307800903075,9.741525461701354
6340000000.0,22.16,0.03285111157066163,0.044227488608857904,0.0010646508437165,0.7102433842655339,0.02511458517514585,9.717786615734466
6345000000.0,22.16,0.017823423787591476,0.05616345956955762,0.0010646508437165,0.6586426605359267,0.08152122324401223,9.775469785952097
6350000000.0,22.16,0.0011709419119707047,0.06625624260762943,0.0010646508437165,0.603314383294344,0.08534687665886875,9.844335616705656
6355000000.0,22.16,-0.011301127693833408,0.0664583521569577,0.0010646508437165,0.5462198124939982,0.06425488280874883,9.86444488280875
6360000000.0,22.16,-0.0213957897106361,0.0563760817582311,0.0007665352005406011,0.47951230585852306,0.007454611717046117,9.815885382323154
6365000000.0,22.16,-0.03270236836937091,0.04017781502081791,0.0,0.4565576472649765,-0.07024058905990589,9.785867647264977
6370000000.0,22.16,-0.04241648196160674,0.014747468045124354,-0.0013841132369083306,0.4759814474592145,-0.1479357898368579,9.802740723729608
6375000000.0,22.16,-0.04660895026142729,-0.00106481210638151,-0.004524725770129048,0.500310495306905,-0.24034673357416733,9.827168366787085
6380000000.0,22.16,-0.041581368434831824,-0.013205993963721373,-0.0018737720358455872,0.5368035717715357,-0.3504135717715357,9.862188332533083
6385000000.0,22.16,-0.03565116897572208,-0.021555353320541013,-0.0008197676900262088,0.5614264240209643,-0.37954927206289274,9.805487151958072
6390000000.0,22.16,-0.022647861291772438,-0.02354630428953319,0.0,0.5797716205904162,-0.40005167588191676,9.794696648236167
6395000000.0,22.16,-0.005386944539187522,-0.025686063808085483,-0.00044718031579209607,0.6242106726456068,-0.3779784304935843,9.814120448430405
6400000000.0,22.16,0.010224381821952141,-0.016196533816038576,-0.0019163580274340734,0.6396115027507151,-0.31195725412607256,9.835506372936964
6405000000.0,22.16,0.02678285651432777,-0.004875857831899678,-0.000862353681614695,0.6119480488188805,-0.25182182913391826,9.849729877952798
6410000000.0,22.16,0.03272358126083487,0.013907711542812427,0.0,0.6207763019737631,-0.1838385284540853,9.804702226480323
6415000000.0,22.16,0.03603457781257472,0.03147808856748003,0.00036200833261512374,0.5819287015852871,-0.10584828015218281,9.777234350792645
6420000000.0,22.16,0.03429914279311347,0.04643915816138154,0.00195894401902256,0.5336627529920276,0.003139449401594494,9.762519724700796
6425000000.0,22.16,0.028549987552476407,0.055716172799326634,0.0015437843552564712,0.445373500808335,0.02550649919166499,9.776646499191665
6430000000.0,22.16,0.019817379757531037,0.05678072878265199,0.0042586033748661,0.40515237552482375,0.05886,9.811373524895036
6435000000.0,22.16,0.009262326689974591,0.04970900163180163,0.004120185200147024,0.36297,0.055033725023537254,9.826187124960772
6440000000.0,22.16,-0.0017888034755074182,0.030080786263174824,0.0025550941470398173,0.35708337455363376,0.02354337455363375,9.86886
6445000000.0,22.16,-0.016663909580804468,0.005704282370635805,-0.002129301687433,0.32147457630474574,-0.030412251863922518,9.865622324440823
6450000000.0,22.16,-0.03142472116543818,-0.02014149409393633,-0.002342259049488432,0.38749562641755625,-0.12556900226809004,9.83158099773191
6455000000.0,22.16,-0.03640724634514349,-0.05005250258115725,-0.00416277119173551,0.4342890761418908,-0.20503025380630255,9.76359907614189
6460000000.0,22.16,-0.037578212499214156,-0.0733271803610611,-0.0031939525311496,0.4681343292997433,-0.2997944783442448,9.794304627388748
6465000000.0,22.16,-0.027792794683603197,-0.0963181709360666,-0.0031939525311496,0.5582887324732874,-0.3664041278743413,9.84355095344921
6470000000.0,22.16,-0.014330077607078457,-0.1022588408743477,-0.0031939525311496,0.6815998053758981,-0.41143127432801274,9.897112548656025
6475000000.0,22.16,-0.00452456134545112,-0.10172637895892664,-0.0031939525311496,0.7578231288455313,-0.4007381226926812,9.874254368078043
6480000000.0,22.16,0.011158403116538724,-0.09088743928958405,-0.0031087531438596322,0.8059901034649011,-0.3704248448026484,9.78802484480265
6485000000.0,22.16,0.023791257007510277,-0.07279284449502824,-0.0010966040394643603,0.8445432778900327,-0.3115645922932459,9.732108851926688
6490000000.0,22.16,0.0353643474038018,-0.04958309289902159,-0.0020866882917315224,0.8736789781813898,-0.23328041333490415,9.752710608483705
6495000000.0,22.16,0.04585753366466557,-0.02523843258577847,-2.1320399907234388e-05,0.9022253215272532,-0.1267441907393419,9.829914678472747
6500000000.0,22.16,0.05007344143149131,0.007452953490277951,-0.0021292742833200085,0.8730892424717924,-0.04904911621709117,9.859048737452987
6505000000.0,22.16,0.04585742404821361,0.038036358278808705,-2.126559168125165e-05,0.8148178418890786,0.01893418446274186,9.761929736481797
6510000000.0,22.16,0.040580930663318186,0.065489648417403,0.0020867430999575052,0.7180907355106074,0.08691748514257484,9.645582882612729
6515000000.0,22.16,0.028081484728768438,0.08671468985598535,0.004194751791596359,0.6590350407236504,0.13586913273029133,9.690809132730292
6520000000.0,22.16,0.006217970205140307,0.09655243604997707,0.002214446266496985,0.6101813667841136,0.15617545328635452,9.880634532863544
6525000000.0,22.16,-0.013893954850878333,0.09491272254319014,0.001117869631145612,0.5243433593373336,0.11968149303881494,9.916438880220888
6530000000.0,22.16,-0.03293565818368636,0.07677573859667715,0.0010646508437165,0.46460083897550836,0.025504731625847307,9.834916258463263
6535000000.0,22.16,-0.0459841808052443,0.05582233527905056,0.0010646508437165,0.4336997191963972,-0.025997134672671347,9.692768595981986
6540000000.0,22.16,-0.052756499084144017,0.0337466985449416,-0.0008943342814755467,0.41358934593669344,-0.17383523250645233,9.718571308126613
6545000000.0,22.16,-0.0571428330296626,0.014501866717063064,-0.0010646508437165,0.44772890851508906,-0.2578078170301782,9.828836725545267
6550000000.0,22.16,-0.05369325387852579,0.0012774153229766771,-0.0010646508437165,0.45126,-0.361990399484804,9.918892145033022
6555000000.0,22.16,-0.04852968342634343,-0.011370636826856259,-0.0020122039126211585,0.5036461639380616,-0.4338971912610719,9.918988972676988
6560000000.0,22.16,-0.03200142372104053,-0.015601888961736029,-0.003066208258440625,0.5014870725798708,-0.43281707257987073,9.779783161277932
6565000000.0,22.16,-0.013139811009232484,-0.015987215948268,-0.0004151723118182662,0.5173796550344966,-0.43164,9.735345517448255
6570000000.0,22.16,0.011328217367954432,-0.013225365164017929,0.0,0.5452401828431019,-0.4063298171568982,9.832760731372407
6575000000.0,22.16,0.02487458518836743,-0.010965875969966055,-0.001809934154632345,0.5493600000000001,-0.32716235059662346,9.882594510845944
6580000000.0,22.16,0.035576930179624246,-0.001703302642974554,-0.002129301687433,0.5493600000000001,-0.23151472191394723,9.822555777531159
6585000000.0,22.16,0.04081492914868668,0.008836740815219627,-0.0012456276059110705,0.5330751441885514,-0.15068057675420576,9.736718148848482
6590000000.0,22.16,0.042411863781089805,0.020264123784639067,-0.00019162326009169214,0.48951835998578364,-0.040808063965880645,9.74584298400853
6595000000.0,22.16,0.041741105955453814,0.023237502096294986,0.0017247621714553726,0.45685131570011317,0.0201111404998114,9.806763596699737
6600000000.0,22.16,0.03216975573132839,0.015760197701712848,0.003832770863094209,0.44341187180291874,0.052974384591243845,9.898291281970812
6605000000.0,22.16,0.018038655328171182,0.005429580068980252,0.0008942510151322479,0.4104498868231989,0.06661002829420028,9.863659801940598
6610000000.0,22.16,0.00577025429963165,-0.011767609922095464,0.0,0.4098619283913193,0.038062286434722856,9.795676501260766
6615000000.0,22.16,-0.0041842033161034325,-0.0340227080193311,-0.0008197950941392001,0.4346814854653149,-0.00833914244219142,9.77301617151156
6620000000.0,22.16,-0.016920101544532586,-0.05803321695468637,-0.0026829480362007335,0.5085515572700156,-0.09417728585557286,9.8229501000989
6625000000.0,22.16,-0.02823084030658407,-0.08069559147161057,-0.003992454629494557,0.5665281434133814,-0.18393865814408658,9.868860514730704
6630000000.0,22.16,-0.0308923277602996,-0.09889476782576549,-0.0050464589753140094,0.6513852877979529,-0.2495671726787717,9.835112827321229
6635000000.0,22.16,-0.024674654939893667,-0.1033234917180643,-0.0053232542185827,0.7341814310153143,-0.30067714438457144,9.805487142246172
6640000000.0,22.16,-0.011630677945340243,-0.09259161525291357,-0.003790129009275443,0.8189399607662996,-0.3492366448701665,9.807253328974033
6645000000.0,22.16,-0.0006493109452073197,-0.07631133013060482,-0.0009262042108801162,0.8924166034980661,-0.3490395418576954,9.816965229071153
6650000000.0,22.16,0.008836728167167424,-0.05123201614027339,-0.0014905392177186987,0.9397985166730852,-0.31588148332691485,9.799208612495187
6655000000.0,22.16,0.01833481028136125,-0.019818127599532515,-0.002129301687433,0.9380319414692194,-0.2567267951422679,9.76330388293844
6660000000.0,22.16,0.02637830645830665,0.01794112217209287,-0.0014053250743678936,0.8985953531874535,-0.18207256509992564,9.757810929362508
6665000000.0,22.16,0.03446966699421058,0.055157245612326225,0.0010753395017874545,0.836890193782602,-0.09123170540371704,9.741231511621114
6670000000.0,22.16,0.03517218197078614,0.08749725404359958,0.003534668921974792,0.7689068931027689,-0.0005874339892743344,9.763893647783737
6675000000.0,22.16,0.029242020455832816,0.10908417628027124,0.00218249201674481,0.6754170738074707,0.06768977792319777,9.812453148269332
6680000000.0,22.16,0.017083085346703365,0.12527296361361584,0.003790213329623109,0.5685861727391618,0.10084705950197059,9.804505880996059
