#timestamp [ns], temperature [degC], w_RS_S_x [rad s^-1], w_RS_S_y [rad s^-1], w_RS_S_z [rad s^-1], a_RS_S_x [m s^-2], a_RS_S_y [m s^-2], a_RS_S_z [m s^-2]
0.0,21.71,0.0,0.0,0.0,0.75537,0.48069,9.81981
5000000.0,21.71,0.0,0.0,0.0,0.784505700291357,0.47097809990288103,9.81009809990288
10000000.0,21.71,0.0,0.0,0.0,0.7559585994172859,0.47088,9.848455200776952
15000000.0,21.71,0.0,0.0,0.0,0.736338599417286,0.47088,9.830208599417286
20000000.0,21.71,0.0,0.0,0.0,0.73575,0.480297600388476,9.810784799223049
25000000.0,21.71,0.0,0.0,0.0,0.75438900097119,0.48069,9.819319500485596
30000000.0,21.71,0.0,0.0,0.0,0.727705798251858,0.48069,9.81981
35000000.0,21.71,0.0,0.0,0.0,0.744186601359666,0.48069,9.81981
40000000.0,21.71,0.0,0.0,0.0,0.727509598446096,0.471664799223048,9.81981
45000000.0,21.71,0.0,0.0,0.0,0.752721302622213,0.488734201748142,9.828737100874072
50000000.0,21.71,0.0,0.0,0.0,0.74654099902881,0.4905,9.81196199805762
55000000.0,21.71,0.0,0.0,0.0,0.7717527032049271,0.481769098931691,9.827461802136618
60000000.0,21.71,0.0,0.0,0.0,0.740458795338288,0.47205719883457203,9.820987198834572
65000000.0,21.71,0.0,0.0,0.0,0.7613541037876411,0.47088,9.828344701262548
70000000.0,21.71,0.0,0.0,0.0,0.7651800000000001,0.47931660135966603,9.812746797280669
75000000.0,21.71,0.0,0.0,0.0,0.756841498543215,0.472351498543215,9.818338501456786
80000000.0,21.71,0.0,0.0,0.0,0.738889196892192,0.479120401553904,9.844531204661711
85000000.0,21.71,0.0,0.0,0.0,0.7601769049530691,0.47254769834897703,9.832955396697955
90000000.0,21.71,0.0,0.0,0.0,0.733003193007432,0.454791596503716,9.813531596503717
95000000.0,21.71,0.0,0.0,0.0,0.741832203690522,0.459206101845261,9.81
100000000.0,21.71,0.0,0.0,0.0,0.75340800194238,0.46891800194238004,9.81
105000000.0,21.71,0.0,0.0,0.0,0.747620097960501,0.48637980407899806,9.833249706118497
110000000.0,21.71,0.0,0.0,0.0,0.74556,0.46754459359014594,9.831778197863382
115000000.0,21.71,0.0,0.0,0.0,0.753113702233737,0.46862370223373706,9.837173702233738
120000000.0,21.71,0.0,0.0,0.0,0.740458795338288,0.48579120466171205,9.817063193007431
125000000.0,21.71,0.0,0.0,0.0,0.7431075024279751,0.4905,9.817357502427976
130000000.0,21.71,0.0,0.0,0.0,0.74556,0.4614623898996239,9.827069402525094
135000000.0,21.71,0.0,0.0,0.0,0.74556,0.45842130262221303,9.82962
140000000.0,21.71,0.0,0.0,0.0,0.74556,0.45400679728066795,9.815493594561337
145000000.0,21.71,0.0,0.0,0.0,0.738594897183549,0.4651902056329021,9.7960697943671
150000000.0,21.71,0.0,0.0,0.0,0.72888299708643,0.47088,9.810981008740711
155000000.0,21.71,0.0,0.0,0.0,0.739477806021378,0.47088,9.833347806021377
160000000.0,21.71,0.0,0.0,0.0,0.7589016062156161,0.47088,9.832759196892193
165000000.0,21.71,0.0,0.0,0.0,0.7454618903852189,0.47745270320492705,9.816474593590147
170000000.0,21.71,0.0,0.0,0.0,0.722800793395908,0.48716460330204603,9.803525396697955
175000000.0,21.71,0.0,0.0,0.0,0.7416360135966601,0.4713704898025049,9.793813496600835
180000000.0,21.71,0.0,0.0,0.0,0.75537,0.4485131930074319,9.840607227970272
185000000.0,21.71,0.0,0.0,0.0,0.7491896964065969,0.45381060718680605,9.856499392813193
190000000.0,21.71,0.0,0.0,0.0,0.739477796309478,0.4793166110715661,9.837075592618955
195000000.0,21.71,0.0,0.0,0.0,0.7477182075752821,0.4964841037876411,9.811667688637078
200000000.0,21.71,0.0,0.0,0.0,0.74359799223048,0.48265198834571993,9.80019
205000000.0,21.71,0.0,0.0,0.0,0.741537903981879,0.476667903981879,9.80597790398188
210000000.0,21.71,0.0,0.0,0.0,0.739870195921002,0.4920696081579961,9.844138824473989
215000000.0,21.71,0.0,0.0,0.0,0.7581168167044682,0.4835348874716489,9.840901479119415
220000000.0,21.71,0.0,0.0,0.0,0.7475219786338199,0.47637360427323605,9.814316395726765
225000000.0,21.71,0.0,0.0,0.0,0.7313355043703551,0.48069,9.81
230000000.0,21.71,0.0,0.0,0.0,0.73575,0.475392595532526,9.81
235000000.0,21.71,0.0,0.0,0.0,0.7409493045645931,0.4864779136937792,9.825597913693779
240000000.0,21.71,0.0,0.0,0.0,0.74556,0.4799051813531518,9.819025181353153
245000000.0,21.71,0.0,0.0,0.0,0.74556,0.45606689524116895,9.815199314276494
250000000.0,21.71,0.0,0.0,0.0,0.7651800194238002,0.4659750145678501,9.83452500485595
255000000.0,21.71,0.0,0.0,0.0,0.7655723801877238,0.48069,9.829816190093862
260000000.0,21.71,0.0,0.0,0.0,0.750268805050188,0.48069,9.815101194949813
265000000.0,21.71,0.0,0.0,0.0,0.750759294852693,0.48530070514730705,9.81
270000000.0,21.71,0.0,0.0,0.0,0.7410473947555739,0.4814747895111479,9.814512605244426
275000000.0,21.71,0.0,0.0,0.0,0.7401645053415451,0.47088,9.82863901068309
280000000.0,21.71,0.0,0.0,0.0,0.7498764054386641,0.47088,9.843746405438663
285000000.0,21.71,0.0,0.0,0.0,0.7469333889284339,0.47088,9.832366777856867
290000000.0,21.71,0.0,0.0,0.0,0.7398702056329021,0.47088,9.797639383101295
295000000.0,21.71,0.0,0.0,0.0,0.749582105730021,0.47088,9.796658422920085
300000000.0,21.71,0.0,0.0,0.0,0.7592940058271401,0.47088,9.82765801165428
305000000.0,21.71,0.0,0.0,0.0,0.7575281881514819,0.4785318118485181,9.83943
310000000.0,21.71,0.0,0.0,0.0,0.74556,0.4905,9.828246581935867
315000000.0,21.71,0.0,0.0,0.0,0.7419302938815029,0.4905,9.81
320000000.0,21.71,0.0,0.0,0.0,0.7392816062156161,0.48696839378438395,9.81
325000000.0,21.71,0.0,0.0,0.0,0.7489935063127351,0.48069,9.82373402525094
330000000.0,21.71,0.0,0.0,0.0,0.7486991871802918,0.4840254064098541,9.855910812819708
335000000.0,21.71,0.0,0.0,0.0,0.73575,0.48402538698605385,9.852673467465134
340000000.0,21.71,0.0,0.0,0.0,0.7420284132081841,0.4740192066040921,9.810392380187725
345000000.0,21.71,0.0,0.0,0.0,0.75537,0.4715666798963668,9.802544426804845
350000000.0,21.71,0.0,0.0,0.0,0.7435979728066797,0.46303202719332026,9.82962
355000000.0,21.71,0.0,0.0,0.0,0.7275096275817963,0.4905,9.82962
360000000.0,21.71,0.0,0.0,0.0,0.7581168069925681,0.4877531930074319,9.826873193007431
365000000.0,21.71,0.0,0.0,0.0,0.7519364645515647,0.47804129291031294,9.81981
370000000.0,21.71,0.0,0.0,0.0,0.7212312143736122,0.4759812143736122,9.817259392813193
375000000.0,21.71,0.0,0.0,0.0,0.7406550145678501,0.4905,9.807547492716076
380000000.0,21.71,0.0,0.0,0.0,0.75537,0.4834367778568678,9.807253222143133
385000000.0,21.71,0.0,0.0,0.0,0.7508573850436738,0.46558261495632614,9.834132614956326
390000000.0,21.71,0.0,0.0,0.0,0.7379082075752821,0.47421537727415375,9.840607169698872
395000000.0,21.71,0.0,0.0,0.0,0.74556,0.4595004306896043,9.814120215344802
400000000.0,21.71,0.0,0.0,0.0,0.74556,0.4885379922304799,9.82765799223048
405000000.0,21.71,0.0,0.0,0.0,0.74556,0.4788260921333609,9.82167390786664
410000000.0,21.71,0.0,0.0,0.0,0.747325807963758,0.47088,9.827854192036241
415000000.0,21.71,0.0,0.0,0.0,0.75537,0.47421541612175416,9.821477708060877
420000000.0,21.71,0.0,0.0,0.0,0.7538003918420039,0.4842215673680157,9.828050391842003
425000000.0,21.71,0.0,0.0,0.0,0.7440884917448849,0.45567452476534526,9.81981
430000000.0,21.71,0.0,0.0,0.0,0.7384968167044682,0.48069,9.81981
435000000.0,21.71,0.0,0.0,0.0,0.7528193831012938,0.47813938310129384,9.81981
440000000.0,21.71,0.0,0.0,0.0,0.7381044170929442,0.46460162563941626,9.818632791453528
445000000.0,21.71,0.0,0.0,0.0,0.75537,0.4894208913564089,9.813237325930773
450000000.0,21.71,0.0,0.0,0.0,0.7543889912592899,0.4816710087407101,9.83746798251858
455000000.0,21.71,0.0,0.0,0.0,0.744677091162171,0.48785127348651275,9.818927091162172
460000000.0,21.71,0.0,0.0,0.0,0.73575,0.46342442680484425,9.81
465000000.0,21.71,0.0,0.0,0.0,0.7350632909679329,0.4905,9.81
470000000.0,21.71,0.0,0.0,0.0,0.7265286091291862,0.4905,9.81294304564593
475000000.0,21.71,0.0,0.0,0.0,0.7367310184526102,0.4900094907736949,9.857578472321084
480000000.0,21.71,0.0,0.0,0.0,0.7545851813531518,0.4802975906765759,9.828835181353153
485000000.0,21.71,0.0,0.0,0.0,0.7366329282616293,0.4714686188410862,9.809705690579458
490000000.0,21.71,0.0,0.0,0.0,0.764983790482338,0.4895189524116895,9.800582419035324
495000000.0,21.71,0.0,0.0,0.0,0.75537,0.4415481096147811,9.820006219229562
500000000.0,21.71,0.0,0.0,0.0,0.7553700097119,0.4512600291357003,9.8394300291357
505000000.0,21.71,0.0,0.0,0.0,0.7650819098090191,0.4803957294270573,9.868565729427058
510000000.0,21.71,0.0,0.0,0.0,0.7459523801877238,0.48069,9.849632380187725
515000000.0,21.71,0.0,0.0,0.0,0.7360442899967429,0.47117428999674293,9.792145739980459
520000000.0,21.71,0.0,0.0,0.0,0.7263323898996239,0.47088,9.780962389899624
525000000.0,21.71,0.0,0.0,0.0,0.7538985305924852,0.46156048980250486,9.81784804078998
530000000.0,21.71,0.0,0.0,0.0,0.7461485897053859,0.46107,9.86591705147307
535000000.0,21.71,0.0,0.0,0.0,0.7729299311751994,0.4884399311751993,9.850613379216533
540000000.0,21.71,0.0,0.0,0.0,0.765964789511148,0.4905,9.80411394755574
545000000.0,21.71,0.0,0.0,0.0,0.7473257788280578,0.4637186682420867,9.80019
550000000.0,21.71,0.0,0.0,0.0,0.73673098931691,0.46989901068309015,9.83550604273236
555000000.0,21.71,0.0,0.0,0.0,0.7444809107802091,0.4796109107802091,9.83943
560000000.0,21.71,0.0,0.0,0.0,0.74556,0.4720571891226719,9.813531567368017
565000000.0,21.71,0.0,0.0,0.0,0.7370252890255529,0.4794147109744471,9.827069421948895
570000000.0,21.71,0.0,0.0,0.0,0.7526232221431323,0.48069,9.82962
575000000.0,21.71,0.0,0.0,0.0,0.7470314888313149,0.4890285111686851,9.837958511168685
580000000.0,21.71,0.0,0.0,0.0,0.7373195887341959,0.4822595887341959,9.814708766202589
585000000.0,21.71,0.0,0.0,0.0,0.7438923113629231,0.4725476886370769,9.818142311362923
590000000.0,21.71,0.0,0.0,0.0,0.7294715770799158,0.4789242114600421,9.827854211460043
595000000.0,21.71,0.0,0.0,0.0,0.7338861115571611,0.4727438884428389,9.82962
600000000.0,21.71,0.0,0.0,0.0,0.7592940349628404,0.47872801165428014,9.82962
605000000.0,21.71,0.0,0.0,0.0,0.7651800000000001,0.46519017649720174,9.806370264745803
610000000.0,21.71,0.0,0.0,0.0,0.7345727526059276,0.47637362369703623,9.815493623697037
615000000.0,21.71,0.0,0.0,0.0,0.7486011358369113,0.48069,9.842471135836911
620000000.0,21.71,0.0,0.0,0.0,0.7479143879572439,0.4732343879572439,9.856695612042756
625000000.0,21.71,0.0,0.0,0.0,0.7529175121398751,0.46352248786012484,9.822262439300625
630000000.0,21.71,0.0,0.0,0.0,0.7481105877630059,0.46832941223699415,9.81
635000000.0,21.71,0.0,0.0,0.0,0.7312373753317738,0.47088,9.788516062997662
640000000.0,21.71,0.0,0.0,0.0,0.7541928497249286,0.47088,9.801759637293697
645000000.0,21.71,0.0,0.0,0.0,0.7512497749432978,0.47784511252835116,9.837860450113405
650000000.0,21.71,0.0,0.0,0.0,0.7386929873745299,0.48069,9.82863896212359
655000000.0,21.71,0.0,0.0,0.0,0.7425189127225892,0.4603832618322326,9.799503261832234
660000000.0,21.71,0.0,0.0,0.0,0.7522308128197082,0.46460162563941626,9.797050812819709
665000000.0,21.71,0.0,0.0,0.0,0.75537,0.4774527129168271,9.819908138750481
670000000.0,21.71,0.0,0.0,0.0,0.7488953869860538,0.4677407739721077,9.842569226027893
675000000.0,21.71,0.0,0.0,0.0,0.7328069737778697,0.47382302622213024,9.84924
680000000.0,21.71,0.0,0.0,0.0,0.7322184132081841,0.4932468264163683,9.824126347167264
685000000.0,21.71,0.0,0.0,0.0,0.7481106266106062,0.49412968669469687,9.797639373389394
690000000.0,21.71,0.0,0.0,0.0,0.7492877865975779,0.47833557319515574,9.802544426804845
695000000.0,21.71,0.0,0.0,0.0,0.7515441134995411,0.47088,9.833936453998165
700000000.0,21.71,0.0,0.0,0.0,0.7494839864033399,0.4649939864033399,9.84924
705000000.0,21.71,0.0,0.0,0.0,0.7571358273875584,0.45528208630622086,9.831876258918664
710000000.0,21.71,0.0,0.0,0.0,0.7424207448364075,0.4626396275817963,9.808430372418204
715000000.0,21.71,0.0,0.0,0.0,0.7371234277760343,0.4820634277760343,9.816965141664053
720000000.0,21.71,0.0,0.0,0.0,0.7290791580445916,0.49599361398513614,9.824126386014864
725000000.0,21.71,0.0,0.0,0.0,0.7377120563290206,0.4841234577532346,9.825205514082256
730000000.0,21.71,0.0,0.0,0.0,0.7447751716412517,0.4814748283587483,9.819025171641252
735000000.0,21.71,0.0,0.0,0.0,0.7409493142764931,0.4853006857235069,9.830797257105973
740000000.0,21.71,0.0,0.0,0.0,0.7557624287472243,0.4602851425055514,9.833936356879164
745000000.0,21.71,0.0,0.0,0.0,0.7551737710585378,0.45645934341219346,9.81981
750000000.0,21.71,0.0,0.0,0.0,0.7553700291357003,0.4806900291357003,9.81490498543215
755000000.0,21.71,0.0,0.0,0.0,0.7507592560050926,0.48569308533503086,9.81
760000000.0,21.71,0.0,0.0,0.0,0.73575,0.48069,9.824126444286264
765000000.0,21.71,0.0,0.0,0.0,0.7403607148592072,0.4714685702815857,9.844040714859208
770000000.0,21.71,0.0,0.0,0.0,0.7410473850436738,0.46558261495632614,9.844727385043674
775000000.0,21.71,0.0,0.0,0.0,0.7269209698931097,0.4797090301068903,9.83060096989311
780000000.0,21.71,0.0,0.0,0.0,0.7333956606022566,0.4818671696988717,9.811177169698873
785000000.0,21.71,0.0,0.0,0.0,0.75537,0.4624433695046337,9.80019
790000000.0,21.71,0.0,0.0,0.0,0.7430093539655935,0.4677408613792086,9.820791076724012
795000000.0,21.71,0.0,0.0,0.0,0.7339842308838423,0.48647788455807883,9.84924
800000000.0,21.71,0.0,0.0,0.0,0.74556,0.47676598446095986,9.833543937843839
805000000.0,21.71,0.0,0.0,0.0,0.7379081687276817,0.4670540843638408,9.80617408436384
810000000.0,21.71,0.0,0.0,0.0,0.7296678157332782,0.4685256314665563,9.803917815733278
815000000.0,21.71,0.0,0.0,0.0,0.7430094316607944,0.47706028416960283,9.828148579151986
820000000.0,21.71,0.0,0.0,0.0,0.7589016159275161,0.47794323185503235,9.851986768144968
825000000.0,21.71,0.0,0.0,0.0,0.7514459359014595,0.4836329679507297,9.835996483975364
830000000.0,21.71,0.0,0.0,0.0,0.7292754161217542,0.47088,9.81294291939123
835000000.0,21.71,0.0,0.0,0.0,0.73575,0.47735463243774634,9.787044632437746
840000000.0,21.71,0.0,0.0,0.0,0.7388892163159921,0.4842215673680157,9.806468432631984
845000000.0,21.71,0.0,0.0,0.0,0.7425188835868889,0.46783888358688885,9.822851116413112
850000000.0,21.71,0.0,0.0,0.0,0.7386930165102302,0.4669560330204603,9.83550603302046
855000000.0,21.71,0.0,0.0,0.0,0.74556,0.48637983321469835,9.840705250177953
860000000.0,21.71,0.0,0.0,0.0,0.74556,0.4948163665910637,9.822556816704468
865000000.0,21.71,0.0,0.0,0.0,0.74556,0.4780412831984128,9.826971283198413
870000000.0,21.71,0.0,0.0,0.0,0.7481106168987062,0.47853185069611853,9.824911233797412
875000000.0,21.71,0.0,0.0,0.0,0.75537,0.4954049660083497,9.83452496600835
880000000.0,21.71,0.0,0.0,0.0,0.7577244170929441,0.48069,9.81981
885000000.0,21.71,0.0,0.0,0.0,0.7651800000000001,0.48069,9.817553682809937
890000000.0,21.71,0.0,0.0,0.0,0.7651800000000001,0.4828482172871822,9.812158217287182
895000000.0,21.71,0.0,0.0,0.0,0.7610597652313977,0.4905,9.817749882615699
900000000.0,21.71,0.0,0.0,0.0,0.7416359650371597,0.4885379825185798,9.813924034962842
905000000.0,21.71,0.0,0.0,0.0,0.7278039175785392,0.47882608242146085,9.825892164842921
910000000.0,21.71,0.0,0.0,0.0,0.7410474530269746,0.47088,9.813531635351318
915000000.0,21.71,0.0,0.0,0.0,0.7635122822272229,0.47088,9.82962
920000000.0,21.71,0.0,0.0,0.0,0.7569396178698962,0.4724496178698962,9.82962
925000000.0,21.71,0.0,0.0,0.0,0.7622369640659697,0.4821615179670152,9.82667696406597
930000000.0,21.71,0.0,0.0,0.0,0.7469334180641342,0.49324683612826836,9.81
935000000.0,21.71,0.0,0.0,0.0,0.7591959544837595,0.5037434091937341,9.815101272645013
940000000.0,21.71,0.0,0.0,0.0,0.7812683452248835,0.4622472182583722,9.848062781741628
945000000.0,21.71,0.0,0.0,0.0,0.7521326449335265,0.46980088164450884,9.837271763289017
950000000.0,21.71,0.0,0.0,0.0,0.7288830553578306,0.46107,9.81981
955000000.0,21.71,0.0,0.0,0.0,0.7544870814502708,0.46107,9.81981
960000000.0,21.71,0.0,0.0,0.0,0.7463448186468482,0.46342445594054454,9.820594818646848
965000000.0,21.71,0.0,0.0,0.0,0.7560567187439672,0.4905,9.828933281256033
970000000.0,21.71,0.0,0.0,0.0,0.7645913811589139,0.4910886188410862,9.820398618841086
975000000.0,21.71,0.0,0.0,0.0,0.7538984431853845,0.4993289621235896,9.828148443185384
980000000.0,21.71,0.0,0.0,0.0,0.7255475809646759,0.48108241903532417,9.799405161929352
985000000.0,21.71,0.0,0.0,0.0,0.7173072765297728,0.4896170426026704,9.781747276529774
990000000.0,21.71,0.0,0.0,0.0,0.7551737807704378,0.4618548769182487,9.820202438459125
995000000.0,21.71,0.0,0.0,0.0,0.7456581193266812,0.5001137613466377,9.839233761346637
1000000000.0,21.71,0.0,0.0,0.0,0.7553699805761998,0.4806899805761998,9.8198099611524
1005000000.0,21.71,0.0,0.0,0.0,0.7456580804790808,0.47097808047908085,9.800386160958162
1010000000.0,21.71,0.0,0.0,0.0,0.7359461803819618,0.47088,9.819417639236077
1015000000.0,21.71,0.0,0.0,0.0,0.7262342802848428,0.47088,9.81981
1020000000.0,21.71,0.0,0.0,0.0,0.7353576198122762,0.47088,9.838645239624553
1025000000.0,21.71,0.0,0.0,0.0,0.73575,0.4801995199093952,9.811471440271815
1030000000.0,21.71,0.0,0.0,0.0,0.7541928400130284,0.4622471599869716,9.81
1035000000.0,21.71,0.0,0.0,0.0,0.7462466798963668,0.4793166402072664,9.791753359792734
1040000000.0,21.71,0.0,0.0,0.0,0.74556,0.48069,9.808430440401505
1045000000.0,21.71,0.0,0.0,0.0,0.7634142405957425,0.48069,9.836781360893614
1050000000.0,21.71,0.0,0.0,0.0,0.7386929388150294,0.47186097960500983,9.85708804078998
1055000000.0,21.71,0.0,0.0,0.0,0.7444809204921092,0.4621490795078908,9.85905
1060000000.0,21.71,0.0,0.0,0.0,0.7282943588215436,0.4869684617676846,9.807253076464631
1065000000.0,21.71,0.0,0.0,0.0,0.7430094413726944,0.4905,9.808724720686348
1070000000.0,21.71,0.0,0.0,0.0,0.74556,0.4905,9.81
1075000000.0,21.71,0.0,0.0,0.0,0.7622370417611705,0.4738229582388296,9.860031125283511
1080000000.0,21.71,0.0,0.0,0.0,0.7651800000000001,0.47912042097770424,9.844138737066887
1085000000.0,21.71,0.0,0.0,0.0,0.7407530367755304,0.4888323210748232,9.823145357850354
1090000000.0,21.71,0.0,0.0,0.0,0.73575,0.4905,9.811765778828057
1095000000.0,21.71,0.0,0.0,0.0,0.7436961212690613,0.46666163619281636,9.80205387873094
1100000000.0,21.71,0.0,0.0,0.0,0.7534080213661802,0.46107,9.78449395726764
1105000000.0,21.71,0.0,0.0,0.0,0.7631199214632993,0.4688199214632992,9.827069528779795
1110000000.0,21.71,0.0,0.0,0.0,0.7575281784395818,0.47088,9.847081821560419
1115000000.0,21.71,0.0,0.0,0.0,0.75537,0.46332627834246276,9.834132556684926
1120000000.0,21.71,0.0,0.0,0.0,0.7479143782453438,0.46852562175465623,9.822164378245343
1125000000.0,21.71,0.0,0.0,0.0,0.7529175218517752,0.4782375218517752,9.80509495629645
1130000000.0,21.71,0.0,0.0,0.0,0.7626294219488943,0.4734305780511058,9.807449421948895
1135000000.0,21.71,0.0,0.0,0.0,0.7508573559079735,0.47804132204601324,9.817161322046013
1140000000.0,21.71,0.0,0.0,0.0,0.7526232221431323,0.4948164442862645,9.826873222143133
1145000000.0,21.71,0.0,0.0,0.0,0.75537,0.47244951103899513,9.843550244480502
1150000000.0,21.71,0.0,0.0,0.0,0.7691040446747405,0.47480404467474047,9.83550595532526
1155000000.0,21.71,0.0,0.0,0.0,0.7546832326965324,0.48745892243448924,9.822851077565511
1160000000.0,21.71,0.0,0.0,0.0,0.7388891774683918,0.48382917746839177,9.806468354936785
1165000000.0,21.71,0.0,0.0,0.0,0.7291772773712728,0.4938354452574545,9.806762722628728
1170000000.0,21.71,0.0,0.0,0.0,0.7388892454516924,0.4808861318224613,9.816474622725847
1175000000.0,21.71,0.0,0.0,0.0,0.74556,0.4772565228229652,9.826186522822965
1180000000.0,21.71,0.0,0.0,0.0,0.7392815770799158,0.48696842292008424,9.842176845840168
1185000000.0,21.71,0.0,0.0,0.0,0.7419303230172032,0.48431967698279677,9.83069903094839
1190000000.0,21.71,0.0,0.0,0.0,0.7516422231143223,0.4867722231143222,9.81981
1195000000.0,21.71,0.0,0.0,0.0,0.7493858767885587,0.4905,9.825794123211441
1200000000.0,21.71,0.0,0.0,0.0,0.7337879533828795,0.47872795338287955,9.82962
1205000000.0,21.71,0.0,0.0,0.0,0.7433037702170378,0.4650920765943208,9.812256229782962
1210000000.0,21.71,0.0,0.0,0.0,0.75537,0.46675982350279827,9.817259470508395
1215000000.0,21.71,0.0,0.0,0.0,0.7665534471998345,0.46528827640008275,9.82962
1220000000.0,21.71,0.0,0.0,0.0,0.7640027526059275,0.46107,9.82962
1225000000.0,21.71,0.0,0.0,0.0,0.7445789524116895,0.46646552379415523,9.824224476205845
1230000000.0,21.71,0.0,0.0,0.0,0.7304525761087258,0.47088,9.809215152217453
1235000000.0,21.71,0.0,0.0,0.0,0.7207406760116069,0.4812786479767865,9.805389323988393
1240000000.0,21.71,0.0,0.0,0.0,0.7467373445130735,0.48539877591448777,9.815101224085513
1245000000.0,21.71,0.0,0.0,0.0,0.7499743790868438,0.4856931241826312,9.81981
1250000000.0,21.71,0.0,0.0,0.0,0.7357500485595005,0.4905,9.81981
1255000000.0,21.71,0.0,0.0,0.0,0.7407530756231308,0.48569307562313074,9.815003075623132
1260000000.0,21.71,0.0,0.0,0.0,0.7404588244739883,0.47598117552601177,9.805291175526012
1265000000.0,21.71,0.0,0.0,0.0,0.7501707245711072,0.48471217371332176,9.814022173713322
1270000000.0,21.71,0.0,0.0,0.0,0.7463447506635476,0.482259501327095,9.838645249336453
1275000000.0,21.71,0.0,0.0,0.0,0.7445790495306905,0.4698990495306905,9.840410950469309
1280000000.0,21.71,0.0,0.0,0.0,0.738104300550143,0.47637357513753575,9.842569274587392
1285000000.0,21.71,0.0,0.0,0.0,0.7414399497574996,0.4666616750404168,9.842176700161668
1290000000.0,21.71,0.0,0.0,0.0,0.758509099773191,0.47343067517010673,9.815689774943298
1295000000.0,21.71,0.0,0.0,0.0,0.73575,0.4824557496923575,9.81
1300000000.0,21.71,0.0,0.0,0.0,0.7396740252509403,0.46695597474905975,9.817848050501881
1305000000.0,21.71,0.0,0.0,0.0,0.7417340746519407,0.48019962674029626,9.83727185069612
1310000000.0,21.71,0.0,0.0,0.0,0.7432056508903565,0.4989365236644652,9.845512174554822
1315000000.0,21.71,0.0,0.0,0.0,0.7444808233731083,0.48431972554229724,9.828540823373109
1320000000.0,21.71,0.0,0.0,0.0,0.7294716256394163,0.4799051230817512,9.813531625639417
1325000000.0,21.71,0.0,0.0,0.0,0.73575,0.4679370514730705,9.823243525736535
1330000000.0,21.71,0.0,0.0,0.0,0.7390854258336542,0.48069,9.826284574166346
1335000000.0,21.71,0.0,0.0,0.0,0.7520346518615465,0.48716465186154656,9.82952197779232
1340000000.0,21.71,0.0,0.0,0.0,0.7589015479442155,0.4940315479442155,9.846100773972108
1345000000.0,21.71,0.0,0.0,0.0,0.7486011261250113,0.4837311261250113,9.830306621624967
1350000000.0,21.71,0.0,0.0,0.0,0.7583130262221303,0.4875569737778697,9.80705697377787
1355000000.0,21.71,0.0,0.0,0.0,0.7594901473615016,0.46931029472300295,9.811569705276998
1360000000.0,21.71,0.0,0.0,0.0,0.7400663471672635,0.4524373056654731,9.842176826416368
1365000000.0,21.71,0.0,0.0,0.0,0.7365349060539491,0.48069,9.83864509394605
1370000000.0,21.71,0.0,0.0,0.0,0.7626293733893937,0.48069,9.81765187983182
1375000000.0,21.71,0.0,0.0,0.0,0.75537,0.48069,9.829619893169099
1380000000.0,21.71,0.0,0.0,0.0,0.7506611463903115,0.4830444268048443,9.807253280414534
1385000000.0,21.71,0.0,0.0,0.0,0.7402626538039265,0.4859873461960735,9.82962
1390000000.0,21.71,0.0,0.0,0.0,0.75537,0.4687217730009177,9.827461773000918
1395000000.0,21.71,0.0,0.0,0.0,0.7574301270962013,0.4672503812886038,9.8177498729038
1400000000.0,21.71,0.0,0.0,0.0,0.7553698640333987,0.4905,9.81
1405000000.0,21.71,0.0,0.0,0.0,0.7217217818713179,0.4905,9.813727854580879
1410000000.0,21.71,0.0,0.0,0.0,0.7490916547751165,0.48873417261244173,9.827854172612442
1415000000.0,21.71,0.0,0.0,0.0,0.7601768175459682,0.47902227251532276,9.82648090993871
1420000000.0,21.71,0.0,0.0,0.0,0.7404588827453888,0.4677407448364075,9.852771489672815
1425000000.0,21.71,0.0,0.0,0.0,0.7578223616054237,0.45420305535783057,9.818338472321084
1430000000.0,21.71,0.0,0.0,0.0,0.7202502833281029,0.47362685555206857,9.811373427776035
1435000000.0,21.71,0.0,0.0,0.0,0.74556,0.48794934425369346,9.821085327873154
1440000000.0,21.71,0.0,0.0,0.0,0.7502689118810891,0.4673483160891832,9.828442772029728
1445000000.0,21.71,0.0,0.0,0.0,0.7815626157978262,0.44576651226956515,9.821968256134783
1450000000.0,21.71,0.0,0.0,0.0,0.75537,0.48069,9.83844897183549
1455000000.0,21.71,0.0,0.0,0.0,0.7544870717383707,0.4798070717383707,9.82873707173837
1460000000.0,21.71,0.0,0.0,0.0,0.7439903432825035,0.4716648283587483,9.819025171641252
1465000000.0,21.71,0.0,0.0,0.0,0.7273134569117345,0.48000327154413275,9.811373456911735
1470000000.0,21.71,0.0,0.0,0.0,0.74556,0.47088,9.82962
1475000000.0,21.71,0.0,0.0,0.0,0.7460505286501052,0.4713705286501053,9.83060105730021
1480000000.0,21.71,0.0,0.0,0.0,0.7549775712527756,0.4810824287472243,9.84924
1485000000.0,21.71,0.0,0.0,0.0,0.7452656711556567,0.4905,9.84747402693394
1490000000.0,21.71,0.0,0.0,0.0,0.7355537710585377,0.4905,9.789006397409764
1495000000.0,21.71,0.0,0.0,0.0,0.7257437419228374,0.4904018709614187,9.72249503230865
1500000000.0,21.71,0.0,0.0,0.0,0.7063198543214985,0.480689796050098,9.8001900291357
1505000000.0,21.71,0.0,0.0,0.0,0.6577603538359036,0.41270649537026494,9.80990192923282
1510000000.0,21.71,0.0,0.0,0.0,0.7245668053095681,0.41202,9.70424787737068
1515000000.0,21.71,0.0,0.1725649019869754,-0.010327145120382117,1.3063994950504947,0.8021649065093492,9.711605729427058
1520000000.0,21.71,0.016369843439604025,0.15642122714547252,-0.0014478963098955543,-0.5497582753110828,0.5505363733230638,10.361716437168164
1525000000.0,21.71,-0.046717430773167895,0.3629837652393873,-0.017263975784214163,0.3227520213721201,0.6700234146981343,9.624588571053785
1530000000.0,21.71,0.04606653011294688,0.19566549550195592,0.00191538887907753,-1.8219202729826023,0.5477899839421999,9.363055686758056
1535000000.0,21.71,-0.029036435594994976,0.13277016942451686,-0.008687589714247011,-1.2321336147573363,0.5304266701844667,8.609940284941803
1540000000.0,21.71,-0.03808937720282358,0.15731360099614358,0.004130890722287572,-2.332429428819494,0.592916609388566,11.02723299606673
1545000000.0,21.71,0.021754683961493423,-0.2764452138682378,0.003385583169271722,-1.9954506295212064,0.6519727800586278,9.921044758553847
1550000000.0,21.71,-0.017367925062157067,-0.22274731556275895,0.013734031825491502,-0.1775549485150496,0.6925861204275612,9.384244615083047
1555000000.0,21.71,-0.025217748597150993,-0.5476041479730654,0.01016739916772532,-1.1503246473372466,0.6179316281639162,9.723280928976408
1560000000.0,21.71,-0.041496306068106864,-0.47659456961212315,0.020839968916345517,2.995596659660766,2.196660775407608,7.983764127666442
1565000000.0,21.71,0.04251862194605683,-0.44921437078719045,0.0103186926621215,3.631858382389484,0.5782929643768298,11.657531252795511
1570000000.0,21.71,-0.17821711248241923,-0.053480700338364884,-0.002470029672306074,5.2002866416427675,-0.14303141625441418,10.46275096547771
1575000000.0,21.71,-0.08404846311492581,0.07856275479183172,-0.0006387772257751578,3.461451188396012,-0.7911786108814861,8.571972126242821
1580000000.0,21.71,-0.010609320831212292,0.173762497716352,-0.004471550196878132,1.8242628124217284,-0.2005138220732382,7.984554064484641
1585000000.0,21.71,-0.01610141733641628,0.41065883189437724,-0.011508899008932164,2.3040774400183746,0.10231894652118943,9.001267663847475
1590000000.0,21.71,0.07778097037736707,0.3450019489443918,-0.013648827168179832,-0.16991926813259228,0.27409192502531926,11.441607723940477
1595000000.0,21.71,0.0757667463876626,0.3620598135913031,-0.013840460968315,-0.12576178348501788,1.3212147655630475,11.460138272123283
1600000000.0,21.71,0.035367213621750826,0.2464993354960627,-0.007878392633805013,-2.020868080300881,1.1987805704083057,10.290685804459159
1605000000.0,21.71,0.02158725908609333,0.04771069395437838,-0.003023594862739101,-1.6474878460272784,0.9380315141456151,8.646332250814522
1610000000.0,21.71,-0.07947397503502905,-0.010923375352729548,0.0028532846245242585,-1.6345431068972311,1.015139300357093,8.861179176696194
1615000000.0,21.71,-0.06658344249856017,-0.25033110883907683,0.010816879807632266,-0.9115419375785195,0.641768506050385,8.927001492197316
1620000000.0,21.71,-0.11180743072128434,-0.25749932811800835,0.01521648885149272,-0.11026200854172008,0.39318426506854265,10.269506189846362
1625000000.0,21.71,-0.11638285961237169,-0.3565974568036058,0.017584199064871076,0.7455629038581291,-1.5150564151023005e-06,11.232452272584622
1630000000.0,21.71,-0.08584634927417753,-0.3647502887563427,0.014952221901289961,1.958472705868027,-0.3064652231806522,10.363671840845619
1635000000.0,21.71,-0.05959611128994934,-0.22380491392516758,0.00840007103076399,2.7708365642643655,-0.15077871550468713,9.695614066167641
1640000000.0,21.71,0.005028207421371583,-0.13282006049560233,0.0033216968038585182,3.15489695565097,0.009025550405355506,8.708529249975992
1645000000.0,21.71,0.012567872000352856,0.08658985568927523,-0.0031620372795582315,3.4183934307559345,0.519834104698441,9.189815570353856
1650000000.0,21.71,0.033229448901456175,0.22083151437791587,-0.007559031425030444,2.510374416954344,0.6474596795072969,10.026803339596734
1655000000.0,21.71,0.03297898759391387,0.28624624604980287,-0.011455657033407448,1.4126367853610677,0.7804843715133437,10.113030289218603
1660000000.0,21.71,0.005967524742220724,0.3390555010234018,-0.011327877978555103,0.1946259826393597,1.0469241350617413,10.442158270123484
1665000000.0,21.71,-0.012830132039887423,0.22411883187536757,-0.00921986928691628,-0.7875495166126951,0.8158961153092612,9.966956765937269
1670000000.0,21.71,-0.05571040527026759,0.1590822199428534,-0.002895822131912862,-0.6774766861729669,0.8061865460681654,9.384244702490149
1675000000.0,21.71,-0.07840456750425734,0.054167505207378494,0.002076079737990915,-1.2905096319278964,0.5385672431172723,9.493138236324882
1680000000.0,21.71,-0.09080325445923138,-0.06416839959366134,0.0011498122868500503,-0.8287441336262413,0.334324702104047,9.34735896419269
1685000000.0,21.71,-0.09156971798747648,-0.10980762131229214,0.006036602251824553,-0.4658776527693766,0.1197790199395902,9.908888596575984
1690000000.0,21.71,-0.06332424955198825,-0.22046462016495877,0.008921770507809882,-0.020205744118657498,0.036493396957333966,10.074476221298662
1695000000.0,21.71,-0.0479441945522842,-0.21879341584203535,0.0072183255742486446,0.848666096024061,0.14862199385011995,9.810195607379855
1700000000.0,21.71,-0.01087319327277212,-0.21646293745095635,0.0095818755115227,1.2497942971841431,0.30018652832736525,9.688355702815857
1705000000.0,21.71,0.01636334883761265,-0.1749988887711631,0.007942273729196456,1.9622981747567818,1.0170064422864644,9.421522675296828
1710000000.0,21.71,0.007608876068088438,-0.07777995689171291,0.0040882520304817765,2.666163161802632,0.9252760113889601,9.932040319334405
1715000000.0,21.71,-0.046757649211814245,0.013714777360495943,-0.0004471750457703807,2.298283602065536,0.5521069332472693,9.786354135764642
1720000000.0,21.71,-0.0820304748437334,0.13831854563216406,-0.004982576825918224,1.8054318654570185,0.4316391647765917,9.298702733182127
1725000000.0,21.71,-0.07030964346605392,0.18002882144213986,-0.005216781861581008,1.1968166493944665,0.37768533506055335,9.667757345423874
1730000000.0,21.71,-0.06935315605155748,0.19076397886731028,-0.004833518477328101,0.6017444255079443,0.4112351327936513,9.955580265587303
1735000000.0,21.71,-0.0625912552060367,0.16881998062367165,-0.0025019111957584692,-0.06465137113021374,0.3450173292967733,10.233892020916722
1740000000.0,21.71,-0.05339522887972362,0.07524918033552835,-0.001107244213335407,-0.3967154536724546,0.35551480556894804,10.129411166586312
1745000000.0,21.71,-0.061348181780951944,0.004875597181808602,0.0016715275739611754,-0.33991700841797007,0.3119573221093732,9.610267179796873
1750000000.0,21.71,-0.058058322232363194,-0.060720307297081264,0.0031939377750887584,-0.137338096467581,0.21091496600834966,9.42250489802505
1755000000.0,21.71,-0.05476863975650449,-0.08925079461148319,0.002108016069669227,0.2815480226630802,0.22523773635507735,9.63371590217216
1760000000.0,21.71,-0.049937290005429805,-0.09599815914742924,0.0026829164160703345,0.5964491965060921,0.22641466325644663,10.113719377666193
1765000000.0,21.71,-0.03440563833821075,-0.10535546688610704,0.0026296913046151425,0.9409764341882645,0.3028354199431542,10.27293311149083
1770000000.0,21.71,-0.027783539834296506,-0.07861548894460683,0.003683695650434574,1.1146120968596211,0.4526337094211371,10.026996237356462
1775000000.0,21.71,-0.023759144657106195,-0.06135875028252744,0.0033004101320903492,1.292959516998795,0.4694082586592826,9.51667817286588
1780000000.0,21.71,-0.02820947142247694,-0.022922902810039766,0.002129301687433,1.4440313085127132,0.5481837335078373,9.36345111648241
1785000000.0,21.71,-0.03468245466156635,0.011550718307392297,0.002129301687433,1.3383783346714835,0.6163616412418164,9.912908390873783
1790000000.0,21.71,-0.04235540693680149,0.030208377670696094,0.0007878303043435358,1.3274890609255907,0.5472021129174212,10.103907182776771
1795000000.0,21.71,-0.06140139635236364,0.06778930141466291,-0.0015011614735158665,1.0674240429224406,0.5219894375512943,9.94312089808841
1800000000.0,21.71,-0.06774673439515266,0.06859840574272248,-0.0029810299512375298,0.7612563146655632,0.33353930074319305,9.558861762378218
1805000000.0,21.71,-0.07765479798799167,0.08432644848460974,-0.002597732838845567,0.6535407274817073,0.2617312207195122,9.335197402398373
1810000000.0,21.71,-0.07242058127032733,0.08134635704648766,0.0012137134083240436,0.27546360465933606,0.31490082421460824,9.734856911754369
1815000000.0,21.71,-0.05010959388422545,0.023912349562465313,0.0028000278929386827,0.07955920576259205,0.34982523457555237,10.079873910846539
1820000000.0,21.71,-0.04090000732547687,-0.014151409770994165,0.002129301687433,0.09456836464868365,0.45753836464868364,10.140792386919724
1825000000.0,21.71,-0.03371364864903256,-0.07808006833531451,0.0025019333298496723,0.2668338433186384,0.46842767724217677,9.72170716412517
1830000000.0,21.71,-0.03954329623178125,-0.09968233568302692,0.0031939525311496,0.7151502440944024,0.49697456445444566,9.204919128908891
1835000000.0,21.71,-0.05677020033324162,-0.08105577848471615,0.0028426138845271728,1.0518294118508942,0.4613639792159398,9.3862101385604
1840000000.0,21.71,-0.06979645764863576,-0.044738877849950495,0.002129301687433,1.3066923573979237,0.38651382130103823,9.95322796568858
1845000000.0,21.71,-0.07810191711969545,0.004359984217005879,0.0014692103857766978,1.3612354566523548,0.32578977746779775,10.274502962446329
1850000000.0,21.71,-0.07531789557865494,0.044205835852006534,0.0,1.1958373111005733,0.2795851796701518,10.037590347034604
1855000000.0,21.71,-0.06124160929353742,0.06783184103006015,0.0,0.7848969830343698,0.34236936031149356,9.551013838131038
1860000000.0,21.71,-0.05045681759420918,0.05402900844885989,0.0005962123142735729,0.560739491615195,0.4092731638717316,9.256717625772076
1865000000.0,21.71,-0.06138011178860417,0.02919946608437471,0.001841842028193335,0.4998189566191896,0.3969125275492253,9.741430382199404
1870000000.0,21.71,-0.06770413786352071,0.0015838557170997272,0.0010646508437165,0.41280509058005094,0.3315772735498727,10.218096363225063
1875000000.0,21.71,-0.0737663606629171,-0.03861103451969561,0.0007984841802710781,0.57143399320464,0.19129507283925073,10.204851225313112
1880000000.0,21.71,-0.07444592046156634,-0.03212725933010933,0.0002555201655483003,0.8401278887655789,0.21071887303348874,9.836681483713015
1885000000.0,21.71,-0.06146522053152041,-0.01672841748048522,0.0005749035084141425,0.8011837618020377,0.23014267322772672,9.452424950792048
1890000000.0,21.71,-0.052330540091850626,0.0017926285091147028,-0.0008304236739624428,0.9792335024913351,0.2646741303988413,9.462139492525994
1895000000.0,21.71,-0.047216534764229476,0.034767592916604285,0.00022358067185693564,0.7967675374541755,0.36032177850531777,9.995116429980763
1900000000.0,21.71,-0.04132592204958777,0.017900032659330267,0.0014905191916361482,0.6454977785686778,0.45910796309477964,10.316195188085153
1905000000.0,21.71,-0.047770420060965976,-0.0001950416899241447,0.0027893771790241956,0.5797706299766063,0.44194031498830316,10.072710393911105
1910000000.0,21.71,-0.06263641645853849,-0.02531682783937457,0.0008730096655509289,0.5303292306907923,0.37395660640866607,9.685999819225998
1915000000.0,21.71,-0.07281743768210179,-0.051816524202813206,0.0005429840408053654,0.7321217506665176,0.2402467884102679,9.33156700673497
1920000000.0,21.71,-0.07939012860918639,-0.03910850611720693,0.0026829079840356,1.0779234712865349,0.20797181353151814,9.58986606138396
1925000000.0,21.71,-0.07398967392868788,-0.003989680576450156,-0.00047910505342263417,1.2159492382642925,0.17559922434489225,10.141087686954076
1930000000.0,21.71,-0.0585907029894496,0.03261963991384279,-0.0028958421579954163,1.1163768753619687,0.23249718743967188,10.14844406280164
1935000000.0,21.71,-0.05720661610264992,0.06340294111903566,-0.0009262421550365366,0.8250198724483988,0.28743337585053375,9.882690483842705
1940000000.0,21.71,-0.04832748112463274,0.0640395226982496,0.0,0.5301311564883116,0.3798434260930343,9.503927623178276
1945000000.0,21.71,-0.0520750726265196,0.036735172859758726,0.00011711569288572024,0.2506456888964569,0.42516517332425174,9.460765511171655
1950000000.0,21.71,-0.060932984173029336,-0.0074562522301414615,0.0014905276236709148,0.30901556814615566,0.3668937727415377,9.83256387115744
1955000000.0,21.71,-0.07223951856358163,-0.05702573630885517,0.00503578612730825,0.47323576704705766,0.3130370620264706,10.031215310132353
1960000000.0,21.71,-0.06979080507516534,-0.07315511000470376,0.0019589492890442887,0.8181551421194515,0.30803419035324187,9.954401639103416
1965000000.0,21.71,-0.06436113541581572,-0.06610574217374912,0.0,1.1047049778586497,0.3483528328256283,9.577502618322326
1970000000.0,21.71,-0.07017409586353128,-0.02181923362393646,0.0,1.3062990642915906,0.28390136173511366,9.505106424476363
1975000000.0,21.71,-0.06881227378181151,0.022482633687137005,-5.3236705502990985e-05,1.1722946163799461,0.2736989232759892,9.805095383620055
1980000000.0,21.71,-0.0809658240000169,0.06566074957356743,-0.000979470428504761,1.0618327077985272,0.2523129307861293,9.907708523018984
1985000000.0,21.71,-0.08045420097730463,0.08110358359480739,0.0011285382631339989,0.6371581505314815,0.1884503698937037,10.122250796306508
1990000000.0,21.71,-0.06406303769071368,0.05022166870629411,0.0032152497429612263,0.30136265885292657,0.25407880673318806,9.748196420199564
1995000000.0,21.71,-0.07133456097230458,0.004726465035635506,0.004205349805293575,0.1699104400154044,0.20601,9.605167665005776
2000000000.0,21.71,-0.0681725605828985,-0.0543321755028963,-0.0010646466276991167,0.4806907381044074,0.20601,9.721710815799607
2005000000.0,21.71,-0.0681725605828985,-0.0733042537276459,-1.0642281879738244e-05,0.6652168399496685,0.20601,9.925660717839108
2010000000.0,21.71,-0.0650424743910794,-0.0734958148014812,0.0,1.1381581130500813,0.20601,9.956561517125516
2015000000.0,21.71,-0.0649786080517488,-0.020810391169932912,0.0,1.2619588696674886,0.253588695694787,9.947634260861044
2020000000.0,21.71,-0.062934469915458,0.019690966571359513,0.0010220690681453971,1.171313607639236,0.25506,9.655393183681632
2025000000.0,21.71,-0.07195210949655056,0.0627953762449045,-0.0009581942967800512,1.0089578313356784,0.2643795393331954,9.680508157332781
2030000000.0,21.71,-0.06142262716190153,0.0649786080517488,0.0019376773733369619,0.5856552256358523,0.357084394303144,10.032884698351946
2035000000.0,21.71,-0.06468052297469892,0.03723874833466671,0.000149042538524935,0.4861832837805328,0.32647664189026643,9.918399907088498
2040000000.0,21.71,-0.07870742822316185,0.013586246351297182,0.000979483076556911,0.41751332262813323,0.26055332262813324,9.817847603754476
2045000000.0,21.71,-0.08765186578557899,-0.022214003539075246,0.0020334874223762894,0.40309286027832864,0.13008004389660044,9.667165764453259
2050000000.0,21.71,-0.09129295014832078,-0.038025544591632036,0.002129301687433,0.6759102343825023,0.047087681449676816,9.64421096018121
2055000000.0,21.71,-0.08403198377425766,-0.043199708841494266,0.0030768452702986354,0.8023603390750035,0.004316240336362402,10.097238875627289
2060000000.0,21.71,-0.06246803084953777,-0.0389836524600558,0.001320158361212662,0.9696211202345112,0.1381254402084544,10.10155295992183
2065000000.0,21.71,-0.048540346788310026,-0.022598623686102638,0.001990901430787803,1.0590879208811792,0.2081684406608844,9.710426695043367
2070000000.0,21.71,-0.04045530518124689,0.0008280846309739291,0.00029809350908463657,1.027106798963668,0.300186402072664,9.46743391544014
2075000000.0,21.71,-0.05209377615826002,0.032327124074804835,0.0018099151825541203,0.9618702178693022,0.34727416121754157,9.495589782130699
2080000000.0,21.71,-0.06595814382852311,0.049815248967514804,-0.0005536315927068157,0.8362038343789384,0.3284386787954868,9.926152460476725
2085000000.0,21.71,-0.08320934501095092,0.04600265945392639,-0.001948315439199317,0.5292480825481809,0.25044893551238934,10.258612555457326
2090000000.0,21.71,-0.08541606012101391,0.016781897833779744,-0.0003832654922616089,0.5111012029787121,0.17108607523406075,10.0448500603405
2095000000.0,21.71,-0.07572420253896925,-0.01782589159189772,0.000862371599688574,0.4404685930713859,0.1728522813857228,9.549542261892622
2100000000.0,21.71,-0.07947185322060832,-0.03472512391949813,0.003619826149090937,0.6101829789595298,0.20012412236994123,9.43918195921002
2105000000.0,21.71,-0.06749477816387275,-0.051592357262637355,0.005940760582654841,0.8355186404032864,0.13626053201610533,9.739467694596877
2110000000.0,21.71,-0.07638405243907287,-0.03545276627328423,0.002235744532312997,1.0053294557474945,0.17128288688952886,10.049365229526552
2115000000.0,21.71,-0.07826160194010015,-0.016697668078651577,0.0018844364518165878,1.1758273394640733,0.06553014269860143,10.14432496432535
2120000000.0,21.71,-0.07371291134227517,0.01232076686727153,-0.00029811564317589866,1.052415894073959,0.11889769414147694,9.80293486461255
2125000000.0,21.71,-0.07083417873315284,0.04341519512282925,-0.00026615823141065524,0.9785473761732738,0.13243491744884917,9.456838679181587
2130000000.0,21.71,-0.06557478558387901,0.050350300969025076,0.0,0.7461473174464732,0.14204888274538882,9.62518100667161
2135000000.0,21.71,-0.06624555605756718,0.0578454924048336,-0.0015543992330232033,0.5166918291339183,0.24740878057738783,10.019837683201978
2140000000.0,21.71,-0.05560961295996427,0.030811866606349332,0.0009369107870249205,0.4186905505984055,0.2421105505984055,10.154919724700797
2145000000.0,21.71,-0.06247674639419461,-0.005020235295353732,0.0013733950667156414,0.24201174172681741,0.30921169996861697,9.905449758430098
2150000000.0,21.71,-0.07531798846926746,-0.04772099197424845,0.0033004312121772805,0.43066054516330554,0.18540803949308038,9.642248039493081
2155000000.0,21.71,-0.08471343131196893,-0.08530433436445005,0.004993216999789284,0.6410841278743413,0.10418211628342117,9.561022116283421
2160000000.0,21.71,-0.09242149895149826,-0.0821036920849963,0.003875319964530644,1.06693799145828,0.02472073849050739,9.868469571904196
2165000000.0,21.71,-0.07410829294278842,-0.059932062648078446,0.0017673112728917879,1.3970430672081307,0.016480968210109682,10.101455646682858
2170000000.0,21.71,-0.06602197960172762,-0.0064944216529258594,0.0003619767124847491,1.4973985685985858,0.11360034794540347,9.865130387565204
2175000000.0,21.71,-0.06018763340583535,0.05721215895599574,-0.0006920276333346293,1.3449499015840989,0.16333654224676541,9.670697662025876
2180000000.0,21.71,-0.06463797492726692,0.09178276388589696,-0.0010646508437165,0.9354794404618944,0.18560532703165328,9.674622211719422
2185000000.0,21.71,-0.07057868070169583,0.10645396500593837,-0.0010646508437165,0.6008614389749144,0.15911794535397944,9.85296890346609
2190000000.0,21.71,-0.07533786306895118,0.0797477161192787,0.0002555254355700294,0.20600787309387875,0.1130110298475103,10.075067093300571
2195000000.0,21.71,-0.07842131311061344,0.03732945898972973,0.0004152092019703568,0.06749314108193141,0.09211585736475858,9.973825720942758
2200000000.0,21.71,-0.07563207454180008,-0.02173316006963238,0.0019163854315471247,0.08632791453527915,0.05297374360583743,9.741329145352791
2205000000.0,21.71,-0.06847062563386576,-0.06810845804292187,0.0031939525311496,0.32157359883813597,0.0930973711242737,9.570242914728329
2210000000.0,21.71,-0.06374360375563924,-0.09967136488008772,0.0031939525311496,0.6441257590181576,0.10889078536700784,9.76762277462353
2215000000.0,21.71,-0.06102873941384271,-0.1109531751969612,0.0031939525311496,1.0740993523518936,0.11065697209486972,9.973925229071153
2220000000.0,21.71,-0.0668098636602928,-0.08837354021125018,0.003790161683410135,1.3969446468125464,0.07259356879163568,10.014048215604182
2225000000.0,21.71,-0.06657553741413025,-0.037863768574768954,0.0019163527574123894,1.6451384694104847,0.08338543217955433,9.835994900935649
2230000000.0,21.71,-0.06350940398999813,0.025506877661044407,0.0011498323129325847,1.5674399374517995,0.13282744331507443,9.635577896794478
2235000000.0,21.71,-0.0649786080517488,0.08757862164128721,-0.0018205859225513018,1.264213788343938,0.17893474729754746,9.645584747297548
2240000000.0,21.71,-0.0710775386086608,0.1194384940992151,-0.0036623847365664483,0.8154041978574419,0.13420010385100106,9.896722227391123
2245000000.0,21.71,-0.07779317395070061,0.11598894024418256,-0.0015863250246580722,0.3954402714778027,0.10388829245788293,10.009436558690666
2250000000.0,21.71,-0.08203050330185079,0.0884181900297416,-0.0010646508437165,0.11281329556153294,0.06376425703964257,9.903194781482249
2255000000.0,21.71,-0.08313769270696027,0.042580225199826835,-0.0015863345106971846,-0.04002444959464449,0.009221662804016626,9.777724180185942
2260000000.0,21.71,-0.07994374966184972,-0.008516746979213653,0.002470032834319164,-0.06592381456903815,-0.021974970671249698,9.771545721853558
2265000000.0,21.71,-0.07282363113258913,-0.07076714766801957,0.005450993221269887,0.10702943173009435,-0.04679330404583303,9.809508840076388
2270000000.0,21.71,-0.0645740263755974,-0.12491894803785775,0.006132417570885612,0.4547923054724231,0.009025288184052882,9.79469701728837
2275000000.0,21.71,-0.05566284123343251,-0.15281153070385273,0.00814456456727216,0.9810044189145443,0.032863632567436324,9.780569116217091
2280000000.0,21.71,-0.0496902507735382,-0.1337065592914923,0.004982551529813925,1.576663775721438,0.08358155429011555,9.806469772874198
2285000000.0,21.71,-0.05464086280966081,-0.07496413726635101,0.001820538492355691,1.8589972191691724,0.10643827808308279,9.926149867399399
2290000000.0,21.71,-0.05914435039222163,0.0031749796926594173,0.0,2.0190929100654293,0.14440391168803912,9.867290488961004
2295000000.0,21.71,-0.06503186478333443,0.09199228548752392,-0.0013095350514111777,1.6489606265413064,0.19521855422378553,9.818337831335677
2300000000.0,21.71,-0.07456751976798785,0.1387015970233134,-0.002768087345242969,1.1693499002871992,0.1294919106505191,9.711899776626298
2305000000.0,21.71,-0.08623586997121392,0.16621527228039287,-0.0012988643114140615,0.5560268600763686,0.06415677319396773,9.778118619296487
2310000000.0,21.71,-0.0919104638904234,0.1375055994755427,-0.0004045721901123477,0.0033350859171508603,-0.08299336277263362,9.942631379475914
2315000000.0,21.71,-0.08917419904438939,0.09416112700759227,-0.00027679945928604766,-0.22072724830487248,-0.1428330604068306,10.054073879186339
2320000000.0,21.71,-0.07431607545452361,0.02331016731574078,0.0010646508437165,-0.4273222931667229,-0.0898598703792987,9.976374715954147
2325000000.0,21.71,-0.06854519327931949,-0.05358179443948625,0.001437283540137483,-0.18001264195362643,-0.10349518387765183,9.571126454839664
2330000000.0,21.71,-0.06525536324285236,-0.10561406165144716,0.0032152602830046524,0.07455781029817812,-0.0655308905149089,9.618117124119271
2335000000.0,21.71,-0.05506667424134576,-0.15833700725022873,0.006377273320462952,0.5892902830113029,-0.04934389180883891,9.789694252446044
2340000000.0,21.71,-0.047342365483409254,-0.1619993371785692,0.007495127141543413,1.212125099905851,0.0380632090652321,10.037593590809236
2345000000.0,21.71,-0.0412087894926325,-0.14312812571829872,0.0043331141040851475,1.6360167517703674,0.10418229109762292,10.134218450303484
2350000000.0,21.71,-0.04527042452674545,-0.08426757553406437,0.0024487018943684055,2.0689286804784865,0.13243522822965229,9.779588224019182
2355000000.0,21.71,-0.05800516984720783,-0.002599699023477082,0.0022676914040348096,2.0237049457430496,0.1610801085139011,9.566121844736319
2360000000.0,21.71,-0.06775168674688342,0.07116377981877099,-0.0002981072111411323,1.8933277079915771,0.11693469575814697,9.458411754487917
2365000000.0,21.71,-0.08424496854042607,0.14439873360733854,-0.0013521115569605107,1.3971377193864771,0.03659125406271254,9.883086107805061
2370000000.0,21.71,-0.08818417170835682,0.170606363465887,-0.002129301687433,0.8497392998323929,-0.02158292068812921,10.146483230172032
2375000000.0,21.71,-0.08868450757131735,0.17283976048861927,-0.002927804839782353,0.23788959371389595,-0.1545072693423727,10.131276531237965
2380000000.0,21.71,-0.08104676705857707,0.13069003849123212,-0.004045648120819421,-0.26330113965831137,-0.12478333868593339,9.882592150854222
2385000000.0,21.71,-0.07162196898533128,0.07945630078172916,0.0,-0.43899865814408656,-0.13586826837118268,9.615958848560687
2390000000.0,21.71,-0.062487340191874435,0.005286188928969961,0.000468456447516806,-0.5738838394279384,-0.10889123211441233,9.691494550079645
2395000000.0,21.71,-0.06341353597071978,-0.07314139630232402,0.0028000468650168863,-0.2960638461599384,-0.12654853479998535,9.662655567760055
2400000000.0,21.71,-0.055396699866091324,-0.12442831169308648,0.00553618944654686,0.10987391130193912,-0.03139158044591581,9.963036139851361
2405000000.0,21.71,-0.04708183243863466,-0.1761234792351016,0.0063879050622992,0.57143600356796,0.04296789342847893,9.98471605328576
2410000000.0,21.71,-0.046599557251157525,-0.176790889853953,0.0065795472944691165,1.2415555660770556,0.07122092767950929,9.962643225509133
2415000000.0,21.71,-0.043735075713843725,-0.1447275491314225,0.007271560171742905,1.6594618516069186,0.10751703709827037,9.849925339654153
2420000000.0,21.71,-0.06152919543329859,-0.09515567629872855,0.005876857353172163,2.0722650580783504,0.00824035299440353,9.632635764067157
2425000000.0,21.71,-0.07216764488412086,-0.020080573714031012,0.0030342497926710327,2.172914528972845,-0.008829282616292827,9.73152
2430000000.0,21.71,-0.07730344558747645,0.04589031109181182,0.0018311892062701386,2.0428327952056278,-0.06572723599917236,9.776843757594538
2435000000.0,21.71,-0.08027150627442017,0.11670476176644265,-0.0006920487134215717,1.675643120291931,-0.10408395810913959,10.051423958109138
2440000000.0,21.71,-0.07485853702019114,0.1507993067651489,-0.0054510174633698874,1.0767431355082315,-0.0831889895762899,9.999920557330405
2445000000.0,21.71,-0.0688858611859448,0.16063651061342907,-0.006036554821628991,0.5695660354756604,-0.12527403243834032,9.797050230105702
2450000000.0,21.71,-0.06678855063841604,0.1384899757931933,-0.003087482282156645,0.06376333440913334,-0.18933314276493143,9.717787237296072
2455000000.0,21.71,-0.0724417535394271,0.1036872411103499,-0.001841830434145531,-0.25143063379800634,-0.21493705231457053,9.956169476854296
2460000000.0,21.71,-0.06127359200140698,0.03851358253923059,0.0011498280969152014,-0.31548969556509693,-0.1950221310443213,10.039161217739611
2465000000.0,21.71,-0.05487503517118892,-0.012246188146132798,0.002129301687433,-0.317744798767648,-0.06317601696266016,9.955285286045653
2470000000.0,21.71,-0.04762372598235362,-0.0644698888974031,0.002065417430028542,-0.09083920867319209,0.00981,9.783707856649979
2475000000.0,21.71,-0.04297702410788873,-0.10743993945335856,0.0012776018817458573,0.1971830191040302,0.00981,9.534830413404205
2480000000.0,21.71,-0.050456817594209245,-0.12501728323940695,0.0053232542185827,0.6074375122091751,0.006670414631804145,9.716609378052294
2485000000.0,21.71,-0.060006746234010144,-0.13312917382746764,0.005291309454869603,1.0721369755301697,-0.07073043787700438,9.839333492848736
2490000000.0,21.71,-0.07121742525333628,-0.09716925598076002,0.004194708577418181,1.4844499738441996,-0.1371437516347375,10.151976261443162
2495000000.0,21.71,-0.06388200190427575,-0.05590716013194383,0.0010646508437165,1.6386625938495258,-0.12743185153761852,10.080263319192834
2500000000.0,21.71,-0.06071997305675232,-0.0010644610365404537,0.0010646508437165,1.6775087860124884,-0.11771980576199806,9.643229708642998
2505000000.0,21.71,-0.05439594698183576,0.03689697417272604,0.0010646508437165,1.4347112835845128,-0.07887220537352205,9.584958308060283
2510000000.0,21.71,-0.05328873649663941,0.0633814150846084,2.128772577251396e-05,1.211141478664015,-0.06886615124626151,9.57475615124626
2515000000.0,21.71,-0.058431031871101415,0.0721756901684075,-0.0010327166200468645,0.9401890321759903,-0.059154251149142516,9.898095460929154
2520000000.0,21.71,-0.05450242250085044,0.06936495359131528,-4.2580721566757044e-05,0.7341793720924937,-0.04944235105202351,10.152958872647389
2525000000.0,21.71,-0.06242348860860475,0.04900873894156181,-0.002022847248505243,0.4463535286471353,-0.06768909809019097,10.116562254774523
2530000000.0,21.71,-0.0638500834906713,0.02691146871641863,0.0008730296916334996,0.40397565257335655,-0.14244159313771593,9.699144788600348
2535000000.0,21.71,-0.06688434909340753,0.00773049057981853,0.0010646508437165,0.36571660304266607,-0.19276674619666748,9.499316364452664
2540000000.0,21.71,-0.06612842560862064,-0.01811525531862755,0.002044134974277757,0.4712729920374299,-0.214250498672905,9.70287598407486
2545000000.0,21.71,-0.0534483696708311,-0.03284070854776842,0.002129301687433,0.623524390937144,-0.17118425283214253,10.043087379608574
2550000000.0,21.71,-0.04547975193239135,-0.04175180936958558,0.002129301687433,0.7347695448375955,-0.09613760375447604,10.154331445776213
2555000000.0,21.71,-0.04664341152099165,-0.03312804067248222,0.002129301687433,0.9289099421839995,-0.13194474813904747,9.848845813398858
2560000000.0,21.71,-0.049690238125486084,-0.01884040465839687,0.0011924035484602294,0.95157,-0.1114414508252145,9.706405803300859
2565000000.0,21.71,-0.057483509368322756,-0.0031429077227169058,0.0019909024847921493,1.0283827483984276,-0.16765324875433246,9.581328252313382
2570000000.0,21.71,-0.06133751841898527,0.020924882512948877,0.0002980914010759449,1.0145500502425004,-0.2187632495958325,9.860032747170827
2575000000.0,21.71,-0.057259862294192006,0.0263143399885632,-0.000904958645281406,0.8353204496580044,-0.1839372499185725,10.174933600521136
2580000000.0,21.71,-0.045714994678529554,0.028422348680202054,-0.00017033869633221554,0.738496399092764,-0.110656399092764,10.007768297051483
2585000000.0,21.71,-0.0436681378848981,0.03053035737184091,0.0,0.5875200464211006,-0.04110354852633548,9.8285400464211
2590000000.0,21.71,-0.04979358373539893,0.014290652090717865,0.0026190574547702056,0.5109044981541451,-0.10987250307642503,9.599083742308938
2595000000.0,21.71,-0.06148661892774924,0.003747527207621717,0.0006068345700707598,0.563879203238092,-0.15931460161904604,9.682078406476185
2600000000.0,21.71,-0.06306223105223649,-0.010646590649504375,0.0017034523115915965,0.5395497474905975,-0.21385830301128303,10.041518121078981
2605000000.0,21.71,-0.058643908074822185,-0.03235800163319966,0.0012882220295343232,0.6537392095839921,-0.2178800494010005,9.992170839817009
2610000000.0,21.71,-0.0475472405673533,-0.02980633438258457,0.0010646508437165,0.7861740590495407,-0.17756074651940745,9.865327791646578
2615000000.0,21.71,-0.03653492210756996,-0.03261709520177676,0.0018844375058209336,0.8519987539661876,-0.09878624286086242,9.741231239687913
2620000000.0,21.71,-0.0389411212766933,-0.020330897499924363,0.0005110213590183758,0.9900260651360606,-0.09339130178071302,9.614976538425365
2625000000.0,21.71,-0.04207117268636888,0.002391228436970469,0.0,0.971189592100196,-0.024524490125244908,9.908102243448923
2630000000.0,21.71,-0.050494874252663566,0.010880748254971581,-0.001575694336826138,0.8934943913232439,-0.08711341301513413,9.928896586984866
2635000000.0,21.71,-0.06570265949912249,0.017941505639608363,0.00020230032411484248,0.8802513511817135,-0.21081756536227564,9.869644595273146
2640000000.0,21.71,-0.06800219975247496,0.016400481998193675,-0.0004684575015211519,0.7416349744233498,-0.25937650255766503,9.950872266624822
2645000000.0,21.71,-0.06030474066668628,0.0012987736670403947,-0.0003087431689947956,0.7633166651354667,-0.31362605963166057,9.770660307345503
2650000000.0,21.71,-0.0485707006274963,0.009913576381142822,-0.0007452611768245829,0.8220782058922821,-0.2374012793770128,9.799209875042198
2655000000.0,21.71,-0.03444818322362973,0.004955952900766721,0.00040457851413842265,0.6917020170260202,-0.16235524214905242,9.86277790314038
2660000000.0,21.71,-0.041423036143905446,0.0,-0.00038328551834417956,0.7812695883480959,-0.19384596167115964,9.782138928324988
2665000000.0,21.71,-0.048306187074834105,0.006419895148199165,0.0003619925225499365,0.7483059717691597,-0.18952899294228992,9.997667318812674
2670000000.0,21.71,-0.044078599834016116,-0.009401891673258184,0.0003619756584804033,0.7418325630308257,-0.16363069627690696,9.981477659045977
2675000000.0,21.71,-0.04501032436673931,-0.01224953687344829,0.0,0.8480751754626518,-0.18246620783466208,9.857087584330676
2680000000.0,21.71,-0.04209869818264755,-0.010561353318057925,0.0006813821894418536,0.8299254794421548,-0.15852928766529287,9.823341547944215
2685000000.0,21.71,-0.040080270201576694,-0.01842951186340401,0.0003939151521717679,0.9120366909051669,-0.1682417607645176,9.652940491871606
2690000000.0,21.71,-0.04378545245630874,-0.003221713260463787,-0.0006600891936476105,1.0600692792502928,-0.19855450450004505,9.719160810750608
2695000000.0,21.71,-0.046464335560601595,0.019568379179060694,-0.0010646508437165,0.9768786483628865,-0.21199415234714153,9.981382113372822
2700000000.0,21.71,-0.04559147924404357,0.030466501572553786,-0.0010646508437165,0.8691657902229579,-0.22170605244426053,10.067021842667218
2705000000.0,21.71,-0.04725568506450453,0.043082322183097876,-0.0004365011437602541,0.7145591390068914,-0.19669023729310237,9.997370474586205
2710000000.0,21.71,-0.04344119357415593,0.02844063816102218,0.0006175032020591244,0.4644039787605398,-0.17658,9.72386604182156
2715000000.0,21.71,-0.04062324791835596,0.00306610285800607,0.00045779413955449716,0.4649950547123506,-0.20453876367808763,9.55494
2720000000.0,21.71,-0.0433274668162597,-0.0072396544061906175,0.0005962102062648813,0.538372694334527,-0.23112365283273653,9.75820515481125
2725000000.0,21.71,-0.041804970186775696,-0.025987240832801916,0.002821341968819834,0.6160688468776885,-0.2516266587895666,9.993447741017977
2730000000.0,21.71,-0.04055936893097323,-0.033085445194854665,0.0025338517434541313,0.8085414196204143,-0.2330852818381528,10.076439812107898
2735000000.0,21.71,-0.042667377622612086,-0.026005563091429346,0.0010646508437165,0.8811338812554388,-0.23200676562046765,9.943708759401288
2740000000.0,21.71,-0.04256088945554526,-0.02228992583929467,0.0005110266290401049,0.9452925579818255,-0.26016125322121253,9.631456137257562
2745000000.0,21.71,-0.04099585848068572,-0.005576519696047713,0.0,1.0250468466816685,-0.2348510800900108,9.646763519459935
2750000000.0,21.71,-0.03834486047821979,0.012252252023200644,0.0,0.9859046260918463,-0.21091505341545053,9.868860534154505
2755000000.0,21.71,-0.03569389725789722,0.024855856205013863,0.0005216847209850305,0.9083074183868742,-0.2013991394622914,9.970786488638264
2760000000.0,21.71,-0.03361781646590192,0.0340862802914492,0.000553612620628591,0.7785206350256064,-0.1581368783418688,10.006984585561245
2765000000.0,21.71,-0.03596011240554259,0.02758118786396873,0.0005003917251907874,0.6221494481046945,-0.1736375370680754,9.83903588138216
2770000000.0,21.71,-0.045869411464262495,0.01338135753073912,0.0010646508437165,0.5538726538039266,-0.284294499451045,9.704248576627485
2775000000.0,21.71,-0.04884125274384329,0.0014904643834102106,0.0015437495731130443,0.5812427695052277,-0.3443308921979089,9.785475539010456
2780000000.0,21.71,-0.03630064856162468,-0.008346927077643427,0.0016608494559335772,0.6341187239889873,-0.2860590060201901,9.908493263970632
2785000000.0,21.71,-0.022822239140102965,-0.01628603402486474,0.0010646508437165,0.6966084786669848,-0.18766481314244812,9.98373493771415
2790000000.0,21.71,-0.023652760836469566,-0.019905154578521902,0.0015118100794216797,0.7563512709620127,-0.15794127096201271,9.884554916151949
2795000000.0,21.71,-0.03201024060562337,-0.019756044583718827,0.0012562762118168837,0.8169772343161724,-0.1944343085790431,9.742604919973349
2800000000.0,21.71,-0.0351509311351657,-0.010869839655567547,0.0,0.8868243263198433,-0.22170621754656217,9.741330543866406
2805000000.0,21.71,-0.03888790881329019,0.004286809706115947,0.0,0.9106621365487213,-0.26437977241879773,9.842275499321355
2810000000.0,21.71,-0.04230534926391437,0.015987215948268,0.0,0.8628871633529717,-0.2943,9.937922836647028
2815000000.0,21.71,-0.033223835965460746,0.014405051147877858,0.00039392674621957193,0.7815622078980222,-0.26526196257601964,9.924874170474041
2820000000.0,21.71,-0.025270983194645238,0.012861000025849287,-8.518990125085135e-05,0.7330033095502331,-0.21228834522488346,9.80921503567465
2825000000.0,21.71,-0.02886952688798548,0.010806140557352743,-0.0013840341865823422,0.6974902317887023,-0.1991428902555289,9.841883323083534
2830000000.0,21.71,-0.03410759120531736,-0.0015118817517172653,0.0003619872525282073,0.6415745496935454,-0.22308000466290004,9.874156355582263
2835000000.0,21.71,-0.03726960424277559,-0.011700530701058691,0.0017673323529787048,0.7225067753323677,-0.30401206519942064,9.786750905731209
2840000000.0,21.71,-0.037365368969628054,-0.014527434633532685,0.0028532582744156035,0.7710662758179627,-0.32686925516359255,9.899860317126704
2845000000.0,21.71,-0.03137139065354842,-0.016317263707104873,0.0017992539285961572,0.8439550183892501,-0.3152930684357307,9.95008613687146
2850000000.0,21.71,-0.02610136892445133,-0.014491420618221808,0.0004258483218370577,0.9201777785686778,-0.2540786124951861,9.877689166073491
2855000000.0,21.71,-0.02144885672143944,-0.009134716275817528,-0.0007558960806739003,0.8955549554549496,-0.20601,9.812941336351512
2860000000.0,21.71,-0.021864142865727017,-0.005876776194837583,0.0,0.9244948444165484,-0.21974427776034278,9.625964844416549
2865000000.0,21.71,-0.02991287314185998,0.008112675665789392,0.0002874617672483565,0.9518636878589368,-0.2444649774032498,9.79106898161669
2870000000.0,21.71,-0.03191436837032771,0.0061322436601685525,0.000787835574365265,0.8603367212684673,-0.21582,10.06937606552216
2875000000.0,21.71,-0.030360038701591232,-0.013308147667506652,0.0005323375429082269,0.8485655584342556,-0.23544044674740447,9.957148436384085
2880000000.0,21.71,-0.03489540886160871,-0.017464523437331972,0.001618257140319016,0.9268489118810891,-0.29900891188108913,9.72524098465401
2885000000.0,21.71,-0.03310677718880967,-0.024834446214737266,-0.0004897515513197407,0.9868871207532712,-0.32745813622598136,9.649999068112992
2890000000.0,21.71,-0.027719613416718195,-0.016515549242272748,-0.0014266138541447534,1.157384305213043,-0.3447226702478267,9.752515476986956
2895000000.0,21.71,-0.019124240132332805,0.008510341483786384,0.0008410680638508727,1.1912273440576735,-0.24731015623190156,10.060351874782818
2900000000.0,21.71,-0.01725090167240595,0.029831320505933952,-0.0006388088459055372,1.045745605696856,-0.2609461689870617,10.08467802848428
2905000000.0,21.71,-0.027442883521718975,0.05457707341264747,-0.0027893729630068123,0.9199796558066966,-0.29753769498297694,9.795088348590884
2910000000.0,21.71,-0.02993411132942825,0.06847063828191792,-0.0010646508437165,0.5844787260580874,-0.36022342609303426,9.729754143476741
2915000000.0,21.71,-0.023940102447222562,0.06371163053380877,-0.0008836540554393588,0.40162038083320384,-0.3757224337962244,9.778413725092838
2920000000.0,21.71,-0.0142809204167566,0.05190169993548101,-0.00017035029038001958,0.22837583580255838,-0.2676158358025584,10.070946567174964
2925000000.0,21.71,-0.005642661803548496,0.016141436913816577,-0.0009049470512336019,0.09417622725846227,-0.13341622725846228,10.095959284229993
2930000000.0,21.71,-0.010287088065351897,-0.0226094862548906,0.0,0.16049296588162967,-0.18325148294081484,9.741917404853574
2935000000.0,21.71,-0.028667250805970608,-0.044916104084549956,0.00013841079668865496,0.38720178316821785,-0.3048957121416571,9.590257140177071
2940000000.0,21.71,-0.034384345342416474,-0.05352297736844998,0.0011924151425080334,0.574082399225424,-0.433209200258192,9.812749312662792
2945000000.0,21.71,-0.026652985692817915,-0.05516251485651116,0.0022464194883274227,0.7737156724525567,-0.36198842796908426,10.19259
2950000000.0,21.71,-0.008836558472467738,-0.054119219194845254,0.002874538622157719,0.9339126876025269,-0.2736989426997894,10.14255607768926
2955000000.0,21.71,-0.002608425712933862,-0.05957911410485097,9.582480510016879e-05,1.0610509775359098,-0.2604552130133521,9.669323107669431
2960000000.0,21.71,-0.007963625749234008,-0.035319735391236784,0.0008942942293104054,1.2753,-0.21503514250555145,9.454486864877868
2965000000.0,21.71,-0.01436340546639594,-0.010464102203175181,-0.0010646508437165,1.2773602727747029,-0.2115040607325406,9.677763273296433
2970000000.0,21.71,-0.02156601141248593,0.021587410862719137,-0.0010007655323076958,1.2941341616036417,-0.28449,10.025037046037973
2975000000.0,21.71,-0.02519640184713511,0.04308350913022128,0.0,1.1139238242116385,-0.28399944221419443,10.300497688567777
2980000000.0,21.71,-0.01790285782294608,0.05164839958947878,0.0,0.836203300224433,-0.27546491576584914,9.910059395268394
2985000000.0,21.71,-0.012839701760033281,0.03837682948403284,0.0,0.6540320622195206,-0.29400564201995644,9.489802295760523
2990000000.0,21.71,-0.0149051118120315,0.038983548113625525,0.0,0.547986193459862,-0.28645258077162583,9.609681484237715
2995000000.0,21.71,-0.014926592092302864,0.017956550670428176,0.0,0.4805918418257184,-0.3819028927800289,9.89162106157701
3000000000.0,21.71,-0.017051835068181666,0.0021291308350564185,0.0,0.47088017481420175,-0.31392,10.202399533828796
3005000000.0,21.71,-0.011764534579316989,-0.02634626526183528,0.0,0.5000158751055588,-0.31392,10.124704333051843
3010000000.0,21.71,-0.01694508447131149,-0.04124082279271063,0.0,0.6637455939158561,-0.34276157539691576,9.681682510580625
3015000000.0,21.71,-0.01808458446603581,-0.038440683175311276,0.0,0.8383636541296365,-0.37189727568827274,9.625081207186211
3020000000.0,21.71,-0.008901121785131104,-0.029146243080928218,0.0,1.0131778558777786,-0.3445270240203702,9.746039562578396
3025000000.0,21.71,0.0076655881023797445,-0.021683053325067446,0.0,1.001600882486009,-0.21287617740206177,9.984128968924889
3030000000.0,21.71,0.012520319471171777,-0.014288616704653508,0.0,1.1573848005199479,-0.15990270572942705,10.01483291770823
3035000000.0,21.71,-0.0030662967948056515,0.012893094458179481,0.0,1.0944031283901312,-0.15696,9.970393205243832
3040000000.0,21.71,-0.014053455220522494,0.025695505976426756,0.0,0.9896321504681215,-0.22916207238682074,9.813530596178007
3045000000.0,21.71,-0.020734026533463415,0.0392286273121242,0.0,0.8203111353815113,-0.3247115914547159,9.701991249399812
3050000000.0,21.71,-0.02322685454439351,0.03472503222112008,0.0,0.6808131706037318,-0.46597588863885886,9.754083414698133
3055000000.0,21.71,-0.018702043399912435,0.024610823382706468,0.0,0.5710394472631946,-0.47195904066029043,9.891914390095643
3060000000.0,21.71,-0.002173872351925985,0.007497126570508685,0.0,0.5332714216895142,-0.3500199678843997,10.046225750989258
3065000000.0,21.71,0.014835227591691636,-0.0011605146469774383,0.0,0.6406918739413188,-0.18844908792289086,9.911434328388943
3070000000.0,21.71,0.013374432065594149,0.005195547890030159,0.0,0.5813400633204007,-0.13302336147573363,9.804113403689335
3075000000.0,21.71,0.005536132530312131,-0.0008517725319869838,0.0,0.6023342389127424,-0.17756135836911358,9.631947365164473
3080000000.0,21.71,-0.015430947927838317,-0.004812241291599059,0.0,0.5917390803493908,-0.35943965633139663,9.686394598253045
3085000000.0,21.71,-0.01741383507243458,-0.011508921143023427,0.0,0.6374541595345417,-0.3842576400775764,9.962645517517554
3090000000.0,21.71,-0.0048152721070135514,-0.018901263370408494,0.0,0.7359468602149686,-0.2699703597264036,10.120585380254054
3095000000.0,21.71,0.009081556512631778,-0.015919813510750988,0.0,0.795100800583308,-0.1975730393000304,9.865424395916845
3100000000.0,21.71,0.005749068812280651,-0.0149051118120315,0.0,0.7965719397862194,-0.23347836128268362,9.564748193586583
3105000000.0,21.71,-0.0024700423203582378,-0.004812143269194833,0.0,0.8798595634198957,-0.2607499206217992,9.606639484041695
3110000000.0,21.71,-0.014237427618576786,0.00036200095458470286,0.0,0.8336532563278327,-0.34138860408018606,9.931842555912725
3115000000.0,21.71,-0.012939489068553474,-0.0013947123046098382,0.0,0.8822138445462384,-0.3478624789897248,10.167085210102753
3120000000.0,21.71,-0.005238029535188409,-0.004556725342068126,0.0,0.827963393977434,-0.31352735759097355,10.040729806148098
3125000000.0,21.71,2.6350108620239177e-08,-0.014119786219425149,0.0,0.8632804855950049,-0.2967524393006244,9.699635132724351
3130000000.0,21.71,0.00027680262129908513,-0.01626401856956711,0.0,0.9046783823894838,-0.3088189215929892,9.531395392035055
3135000000.0,21.71,0.0023316051735609526,-0.01442007148734999,0.0,1.0054276916169769,-0.3282427217872272,9.727892187702022
3140000000.0,21.71,0.004727062984396016,-0.005408353475459751,0.0,1.0751763049536631,-0.31941347801853476,10.149036527555166
3145000000.0,21.71,0.0038114367611305285,0.00013842449874515049,0.0,1.054084194560742,-0.30695483891214836,10.225158711297189
3150000000.0,21.71,0.00021290360783381536,0.01598211287391582,0.0,1.0123917552601176,-0.31784412236994125,9.859046940751469
3155000000.0,21.71,-0.0010646508437165,0.02678281540815828,0.0,0.8517028517940286,-0.3643437676925377,9.562982851794027
3160000000.0,21.71,0.0011072568613875566,0.03600271842321363,0.0,0.7848,-0.4092734455168344,9.649509811721797
3165000000.0,21.71,0.012127513822722246,0.03869621177289434,0.0,0.6467720089971201,-0.336384100807741,9.984620459053104
3170000000.0,21.71,0.019159895509705996,0.029210092556189254,0.0,0.5399420305593203,-0.2166040611186406,10.107635338426554
3175000000.0,21.71,0.02232190854716423,0.0245044226980003,0.0,0.4752940683060407,-0.12556750663547506,9.881120341530202
3180000000.0,21.71,0.011845086498592314,0.014953887072647476,0.0,0.40103230585852306,-0.1608846176768462,9.635380764646307
3185000000.0,21.71,-0.0033963234735556284,0.007569647356801504,0.0,0.4407639805128398,-0.2950857898368579,9.688357237296072
3190000000.0,21.71,-0.007197026254428325,-0.003513448652480454,0.0,0.39553833253308335,-0.33491321411423214,9.955582382781524
3195000000.0,21.71,-0.0005429113145055033,-0.02258137920739446,0.0,0.43909659294466596,-0.2638883794095838,9.991091731173418
3200000000.0,21.71,0.007665533294153773,-0.04559513663912361,0.0,0.5297403107808032,-0.2668324350931244,9.831580881189108
3205000000.0,21.71,0.009390206929244157,-0.06481901176770923,0.0,0.7461507166115072,-0.2943,9.61625094366801
3210000000.0,21.71,0.0054296854694148335,-0.06951400034585763,0.0,0.9966972470079726,-0.3568884858543849,9.76605394341754
3215000000.0,21.71,0.005621383563815052,-0.06635198730839935,0.0,1.2692199232155992,-0.37425118776241184,10.081542298740423
3220000000.0,21.71,0.010433612207361947,-0.04529386250777717,0.0,1.4291209876339097,-0.3366790123660901,10.083894074196541
3225000000.0,21.71,0.01336137488697056,-0.013422264147829495,0.0,1.485234501134045,-0.31833443735824435,9.8605198086726
3230000000.0,21.71,0.015574640651321593,0.024155991997531778,0.0,1.4040058197447582,-0.28213522356675225,9.698950298089002
3235000000.0,21.71,0.014221257602266005,0.050949028517800476,0.0,1.2267395574600957,-0.3434491682118917,9.746039805375899
3240000000.0,21.71,0.012264784549562641,0.07584736152991993,0.0,1.0606560042708602,-0.3708173706688737,10.039164306123844
3245000000.0,21.71,0.01821449912375915,0.08994078272912992,0.0,0.7060223593977235,-0.31372367393953676,10.27165897818139
3250000000.0,21.71,0.02077811048985121,0.08309508458128051,-0.003193993637319087,0.42182962123589623,-0.30411,9.966955707340157
3255000000.0,21.71,0.014456164984955843,0.07624082050555508,-0.0048228477373310225,0.1808936181233362,-0.35698659546916595,9.63342
3260000000.0,21.71,0.012690665545534467,0.048403940241360646,-0.0021718739769650422,0.03139294982382951,-0.44498204325112045,9.685217496537474
3265000000.0,21.71,0.022919599439468613,0.01486102616232532,-6.386528532623353e-05,0.024916258463262578,-0.36081015111360154,9.962646644097967
3270000000.0,21.71,0.03882145516975078,-0.02888988444628346,0.0005749045624184883,0.03060859734818598,-0.18501602835756026,10.135494720230946
3275000000.0,21.71,0.0435179911299514,-0.0698227624869306,0.0,0.2795869083883691,-0.09760892748348927,9.895344837159849
3280000000.0,21.71,0.033319641798482694,-0.09267523482591919,0.0018738131420151182,0.4846146371006464,-0.10948049194090492,9.673051826609418
3285000000.0,21.71,0.019152273485918574,-0.11655317195859527,0.002427376224439469,0.855927285538773,-0.21170018284310183,9.61095490857845
3290000000.0,21.71,0.006622065829779503,-0.10731538786348564,0.001788641158838144,1.2753,-0.3111742224688422,9.800193195215131
3295000000.0,21.71,0.0032472198027786014,-0.09453994861018679,0.0020760344158040392,1.5970731201137311,-0.4263429840085298,10.004236719971567
3300000000.0,21.71,0.012782895902076489,-0.04730139826970834,-0.0006387835498012175,1.93845401294524,-0.42182935901459356,9.935568769182488
3305000000.0,21.71,0.03026431613491263,0.012878651574858858,-0.0008304415920363217,1.8248573555218734,-0.3170584296520843,9.772816184064762
3310000000.0,21.71,0.04544213949357188,0.07269644012576795,-0.004152173178038272,1.7088981424332814,-0.15205339268053392,9.474891557270016
3315000000.0,21.71,0.04652168820491135,0.13466327286767538,-0.0074525559060157,1.1443329585556297,-0.014519057559590575,9.653335523408055
3320000000.0,21.71,0.030885869495540067,0.14606759740130004,-0.007069274603688904,0.6984700653895006,-0.06749331589613315,9.820203302818232
3325000000.0,21.71,0.009368843315158727,0.15680876997743579,-0.005270000649010141,0.22170057493260575,-0.176090597930306,10.090078922959188
3330000000.0,21.71,0.0014266391502490532,0.10980782115842763,-0.0021079876115519067,-0.2738944238249442,-0.2978318587250186,10.167863754862138
3335000000.0,21.71,0.0014266180701621367,0.062354439574396923,0.0003513418086354316,-0.35806823891868245,-0.37229047167560475,9.711410471675606
3340000000.0,21.71,0.006138100762318289,-0.004300998557110532,0.0003832602222398799,-0.5297367562253676,-0.43948735124507354,9.687568669855787
3345000000.0,21.71,0.021491510169306016,-0.07462490728083473,-0.00040455321803412297,-0.1840353401095534,-0.37582116497261164,9.603797568411476
3350000000.0,21.71,0.030466552164762357,-0.13710133622965495,0.002661662418436895,0.08142827064818273,-0.32667176367511763,9.972845479442155
3355000000.0,21.71,0.0372482437907032,-0.19040045399522915,0.006079149245252254,0.7742083280087833,-0.23887447750274476,9.980499233670692
3360000000.0,21.71,0.0310626506465666,-0.1880793098148004,0.004428926261133172,1.3392666821733668,-0.32137507788825076,10.100767616832377
3365000000.0,21.71,0.029050488894119205,-0.1436959623521981,0.0015543760449275952,2.0199792569158928,-0.3046014804163148,9.994819877111299
3370000000.0,21.71,0.03176539118007214,-0.048653960681347544,-0.0008304489700667684,2.2920093164148936,-0.3686586872104869,9.866111367170214
3375000000.0,21.71,0.03861108194989114,0.04261728881339979,-0.0037262921820665437,2.2342232389038323,-0.2231769100020691,9.648134606668046
3380000000.0,21.71,0.040048253765568025,0.13247425887938366,-0.0063453475288280745,1.6571024425973244,-0.16402339695733395,9.658142710006226
3385000000.0,21.71,0.030242840796366518,0.1740914751596938,-0.009092103934120344,1.1521789112870893,-0.2066972917460729,9.895054606737347
3390000000.0,21.71,0.023801731702698996,0.2004641074460804,-0.006749864910714394,0.4022067076658671,-0.29194612677346127,10.163750114473702
3395000000.0,21.71,0.023546308505550517,0.16799627779978088,-0.004035019540996126,-0.09368912690909127,-0.33873883839338836,10.282055353573554
3400000000.0,21.71,0.0330216652838804,0.12165572015530485,-0.0031939525311496,-0.5689816510230166,-0.2746796697953967,9.959108433790284
3405000000.0,21.71,0.03667336030837159,0.020075562856419673,-0.0023847891788466606,-0.7316286095152862,-0.252215695242357,9.526000169309802
3410000000.0,21.71,0.03446956897180643,-0.07205801923985544,0.00183122820443097,-0.5197312168288122,-0.3166665350593654,9.509226261057062
3415000000.0,21.71,0.03693957334800828,-0.16634942211764406,0.005142256376301196,-0.06758539442095393,-0.2811544673354447,9.688849484952494
3420000000.0,21.71,0.04320259950888834,-0.21288496332629644,0.004088252030481734,0.7212359829165598,-0.2523126685648267,10.070946664293967
3425000000.0,21.71,0.055606975875648515,-0.22493498979057583,0.0031939525311496,1.4234359229621594,-0.18786156652651567,10.147463733893938
3430000000.0,21.71,0.04622581579400097,-0.1595815069678172,0.002746777485379219,2.0871778652035786,-0.192079600129096,10.059171335054613
3435000000.0,21.71,0.05359512735255824,-0.07077787475405223,-0.00027682370138600157,2.3650924329547243,-0.159117799675478,9.654115563800055
3440000000.0,21.71,0.04077224408068969,0.04567877743044627,-0.002512597745820662,2.2629683945565837,-0.10791,9.235920737718306
3445000000.0,21.71,0.03433109915087437,0.14622556053152402,-0.005674610783278984,1.8636983129706832,-0.104672499255025,9.547782514154525
3450000000.0,21.71,0.0271660134441418,0.21071198629058654,-0.008304262035729018,1.0741899740916998,-0.09613920621799206,10.07389094335121
3455000000.0,21.71,0.02266259858788085,0.22433038241808154,-0.006196253344090161,0.3413826312616263,-0.2462303289077033,10.321100328907702
3460000000.0,21.71,0.02582461162533909,0.1801536540364829,-0.004088244652451305,-0.3994654850158548,-0.1648086720634867,10.171395225111153
3465000000.0,21.71,0.02824129602969458,0.08893571397353839,-0.0020547688241227286,-0.7070067673034677,-0.2681085787658858,9.472339396179194
3470000000.0,21.71,0.021182697436024394,-0.009395119246088542,-0.00087299174747705,-0.6996473127835732,-0.43791799559648,9.43879202642112
3475000000.0,21.71,0.02056627781954777,-0.11068935277741093,0.002289021289981095,-0.4071102751606028,-0.3781748925206489,9.790382699908227
3480000000.0,21.71,0.047433257513613415,-0.19050772895062193,0.005195474109725972,0.271937796448078,-0.2864506481035065,10.16237506481035
3485000000.0,21.71,0.06059221718999555,-0.2113162829218651,0.002161248559154788,0.9347019445877194,-0.1007493092274931,10.13382586616586
3490000000.0,21.71,0.05631229868524385,-0.18795044240542777,0.0031300514096756064,1.6669183182968832,-0.18639,9.81686598316406
3495000000.0,21.71,0.048891478107094,-0.1054155419545269,0.0,2.1106225182927254,-0.18658633577236336,9.673150839430908
3500000000.0,21.71,0.037280225444568375,0.005323874335991997,-2.9512121682943288e-08,2.256297348651274,-0.20601,9.721711427649314
3505000000.0,21.71,0.036226221098749,0.09391207566412571,-0.004216046895399296,1.8775332448636324,-0.20601,9.925661329688815
3510000000.0,21.71,0.022651834041496996,0.18145691176630685,-0.0042586033748661,1.152669886684599,-0.27330707724277076,10.100769627195696
3515000000.0,21.71,0.03683318320334557,0.16565151668220549,-0.005291322102921753,0.4813719890486198,-0.3698376827465768,10.161394609647946
3520000000.0,21.71,0.04547356594632824,0.13034093613081382,-0.0032791097582657346,-0.1039901023066011,-0.17500896419268966,9.833541606987817
3525000000.0,21.71,0.04884917006163513,0.06008245396659084,-0.0011711010666268788,-0.2580039585645396,-0.2879243900956439,9.68933604143546
3530000000.0,21.71,0.04800806616163651,-0.031656389972905985,-6.387160935230848e-05,-0.2740914685660147,-0.26663559430195594,9.811570559924206
3535000000.0,21.71,0.04198716644927716,-0.08780946575083008,0.00198026547293414,0.09025474652534743,-0.23749989401059896,9.974907267273272
3540000000.0,21.71,0.0670215355517366,-0.14159824490715556,0.002129301687433,0.641185588094656,-0.2264147312397473,9.995605268760253
3545000000.0,21.71,0.04792273713181199,-0.11298799825018889,-0.0007772175345854807,1.0616410920096109,-0.1452854802836548,9.88926397371154
3550000000.0,21.71,0.05827140502093572,-0.06466235149052926,0.0008517356418349107,1.5225153098155533,-0.20797255163592554,9.76389210359162
3555000000.0,21.71,0.06818327453707371,-0.006561669013573974,0.00011710409883791619,1.377518680864587,-0.0324696499161965,9.620175464225854
3560000000.0,21.71,0.05518370772189254,0.05437093236581149,-0.0028107007409444744,1.2847170468101705,-0.08750582233855823,9.785280252123304
3565000000.0,21.71,0.05048868752361379,0.06548967051693674,-0.004120206280233941,0.9680483071494831,-0.12370430773754308,9.95509107717941
3570000000.0,21.71,0.039071199270532694,0.07153690240258888,-0.0033429961236788805,0.5762365569383656,-0.06847331459923314,9.959896661314067
3575000000.0,21.71,0.04905955803755563,0.035312937650684106,-0.00047907027127922245,0.49491429167974293,-0.13390712496077126,9.8987800139194
3580000000.0,21.71,0.04845520431725479,0.0028132517770366357,-0.0008943142553929761,0.3916143655535437,-0.09770718277677182,9.575342157586222
3585000000.0,21.71,0.039976698378140954,-0.015398804406551624,-0.0019483186012123545,0.47863080524620805,-0.16157132670891328,9.60526606597756
3590000000.0,21.71,0.043583011223907966,-0.04082938220919688,-0.00038325916823553395,0.7094610130175101,-0.25702269731442695,9.913203710331937
3595000000.0,21.71,0.04128328968180807,-0.02337901176943291,-0.0008623747617016115,0.8745625474284254,-0.2031644715429447,10.056231698285618
3600000000.0,21.71,0.04900543075021671,-0.004474902656405712,-0.00021292257991201006,0.9574564894797649,-0.2256303496284035,10.019933510520236
3605000000.0,21.71,0.04945598355161898,0.010710493878987053,0.0,0.8549404496580046,-0.2121900899316009,9.75820095927041
3610000000.0,21.71,0.05482189227207267,0.026310603681387337,0.0,0.7245656884410568,-0.20601,9.654020649400406
3615000000.0,21.71,0.058920767612355956,0.007679940963362015,-0.0024593663103394526,0.6209722978296229,-0.20601,9.748982783038528
3620000000.0,21.71,0.053991357927653846,-0.0029810605173635945,-0.0015756679867175163,0.6207770109424702,-0.17618731874337318,10.004240109424702
3625000000.0,21.71,0.06258324299329622,-0.022637096278862075,-0.003460138166673221,0.7014157041127571,-0.09319429588724296,10.170518415346585
3630000000.0,21.71,0.06131616323693462,-0.029550875349288262,-0.0026829048220225046,0.7912752345755525,-0.0759294705083947,9.941059061697791
3635000000.0,21.71,0.052660528826444127,-0.02361005468838567,-0.0005748961303837217,0.9646187827157879,-0.15009370605513705,9.73465807031178
3640000000.0,21.71,0.05084005252034482,-0.006733334338523592,-0.0007665562806275176,0.9566705636763055,-0.1695167292973673,9.671090187892103
3645000000.0,21.71,0.04659029642339992,0.011798207426352016,-0.002576470409177363,0.9946365371977653,-0.2573172203967722,9.753397220396772
3650000000.0,21.71,0.05219763900784657,0.03718619291338266,-0.0031939525311496,0.9172339365469394,-0.2668317164125172,10.106265261256054
3655000000.0,21.71,0.06861985262315123,0.042864382818959886,-0.002459335744213378,0.6497139571983397,-0.1196805801202058,10.065646754156267
3660000000.0,21.71,0.0752844359342368,0.033575163018035314,-0.002129301687433,0.5426891289088913,-0.06553087109110871,9.813137351631173
3665000000.0,21.71,0.07205849753320455,0.0069896217673994405,-0.0007026541051491802,0.3818034914825349,-0.022660601682406016,9.803820483070504
3670000000.0,21.71,0.06257241204463856,-0.03168605641119243,-0.0007026772932447883,0.4530274395629744,-0.032373356426733564,9.671088546580986
3675000000.0,21.71,0.052362425831320336,-0.0534272316136757,-0.0003726200483688332,0.7529199983863,-0.10643914244219141,9.813926569768766
3680000000.0,21.71,0.052415766883253556,-0.04933827034194173,0.0006813842974505453,0.9295962433162624,-0.13734,10.15099803030588
3685000000.0,21.71,0.061039477610117895,-0.03467172173531287,-0.0009475625549437712,1.1653322620312228,-0.14970074315340742,9.931149563281295
3690000000.0,21.71,0.0643185167500925,0.010204003062615992,-0.0008091190841203956,1.1634645665235457,-0.11438409828324098,9.761931358369115
3695000000.0,21.71,0.061316177992995456,0.0360346147027268,-0.0025977792150367832,0.9333215339555154,-0.13616337416753374,9.67285490812305
3700000000.0,21.71,0.05837775722144192,0.053260662572525694,-0.0029810067631419216,0.8338500000000001,-0.19031428747224288,9.586331784395817
3705000000.0,21.71,0.058782355761662936,0.06077319816820749,-0.0027574534953979965,0.5502393737061937,-0.16549419624374195,10.00865789738848
3710000000.0,21.71,0.06891793348418375,0.02831269672038552,-0.0019589419110139098,0.35316,-0.10320076762620767,10.185132814629428
3715000000.0,21.71,0.07745564143054397,-0.006972937310574119,-0.0010646508437165,0.3307929113623291,-0.022562278405822783,9.92114506305805
3720000000.0,21.71,0.07524947445457708,-0.042698770278114355,-0.0010646508437165,0.4457681341568814,0.025113672256536722,9.647544521330046
3725000000.0,21.71,0.06891776905950578,-0.06870496452808053,-0.0010646508437165,0.743600604731606,-0.002943434121934343,9.540715572353657
3730000000.0,21.71,0.06086898502915122,-0.05393913306632288,-0.0010646508437165,1.0614441735232418,-0.013537582647675829,9.741136480678664
3735000000.0,21.71,0.057589946943180974,-0.017521433728112885,-0.0010646508437165,1.2280162352873623,-0.062392470574724704,10.03288494114945
3740000000.0,21.71,0.05637619769870915,0.011081602295057624,4.260180165367353e-05,1.1536545470997455,-0.13302381793503817,10.082324728259847
3745000000.0,21.71,0.05704699873852333,0.0452104837661252,-0.002193228105011393,0.9744260633837606,-0.10712461806294618,9.845705781283257
3750000000.0,21.71,0.06018768716005699,0.05805822737197207,-0.004258587564800962,0.676886795072968,-0.13243594691025948,9.648134635803746
3755000000.0,21.71,0.061241691505876425,0.03802359255830485,-0.0011072052151746628,0.4947188105545881,-0.17216513531815136,9.719749458727394
3760000000.0,21.71,0.06894759786629773,0.010825666592615732,0.0005536105126198994,0.4449802853972028,-0.12360563483255635,9.97049393707164
3765000000.0,21.71,0.0751978359479588,-0.024474149412392107,-0.000500393833199479,0.5099262864406628,-0.061213814955138154,10.055346856779668
3770000000.0,21.71,0.07202657279557403,-0.038770664531874346,-0.0010646508437165,0.7408520787327209,-0.05572138582181386,9.971472673227726
3775000000.0,21.71,0.07318432140685165,-0.03350073028513794,-0.002022852518527017,0.8794677465223775,-0.06719798672607986,9.773699627057097
3780000000.0,21.71,0.07014118029270065,-0.01299815543424708,-0.004130861210165873,1.0057217873757178,-0.05964531395375315,9.5988900481734
3785000000.0,21.71,0.06544711825348727,0.0193416601142309,-0.0034920228521386426,0.9610841560992416,-0.08122650592366507,9.856796567244267
3790000000.0,21.71,0.0707490236140454,0.0315524991662862,-0.0006174895000026286,0.7859761693731616,-0.03825863191898632,9.96774288597873
3795000000.0,21.71,0.07442927301584441,0.02786137138563401,-0.0013095445374502902,0.6218543520202435,-0.005787826286678262,9.932430863973009
3800000000.0,21.71,0.0779847856167445,-0.0004330901092370887,-0.0019163474873906754,0.5199303690522037,0.003924073810440738,9.964995564255455
3805000000.0,21.71,0.07462430445946397,-0.026474147073472034,-0.0008304437000450133,0.5990976607982766,0.002158052184880521,9.747804156554642
3810000000.0,21.71,0.07177108846617349,-0.0382384587395093,-0.0017247263353076148,0.7700868501169685,-0.006082125995321259,9.764090236065503
3815000000.0,21.71,0.06927973312393837,-0.0340541879671277,-0.0018525085521730643,0.9656972892215728,-0.032667966916179667,9.827461355389215
3820000000.0,21.71,0.06353067485170115,-0.010572280872261438,-0.0024273878184872797,1.0822400903870009,-0.08475832580108325,9.797443348397834
3825000000.0,21.71,0.06173139878901367,0.023062222797788648,-0.002182558419018596,1.0477056225268562,-0.09564787148017871,9.895839357400893
3830000000.0,21.71,0.064361215520146,0.048257615185220634,-0.0042586033748661,0.8136407304616072,-0.11752357682053577,9.981869563350594
3835000000.0,21.71,0.07701500314693877,0.048251977074072194,-0.003907260512226322,0.6485366418209664,-0.056014131626441324,9.862091621431915
3840000000.0,21.71,0.0865446510843652,0.038010065483809356,-0.002853256166406912,0.3688545082521451,0.04826564752435647,9.879846528713465
3845000000.0,21.71,0.08699163430134463,-0.008182156081513634,-0.002129301687433,0.3175517164818172,0.07916647594646475,9.755945331625254
3850000000.0,21.71,0.07510496765960616,-0.03355407660709287,-0.0014904949495361743,0.523854598253046,0.05003077565510776,9.69326301910403
3855000000.0,21.71,0.07013148562984288,-0.04813417589822896,-0.0009262706131539027,0.6755191458774915,-0.0018647236662472332,9.892894874393749
3860000000.0,21.71,0.0674060201123361,-0.043930991518945674,-0.0028958421579954024,0.97825499942085,-0.05925187516891875,9.930466874975869
3865000000.0,21.71,0.07133937573327134,-0.005099490149969576,-0.0027042294379471233,1.1106871489781716,0.011380200583902007,9.918988574489086
3870000000.0,21.71,0.08017799053366031,0.017763060906870062,-0.003981785997506173,0.9670685221081852,0.0635686496597865,9.802542445577224
3875000000.0,21.71,0.07990114048216562,0.03355400388079301,-0.0023954398927611598,0.7872507688538077,0.04659742473277425,9.635873177405031
3880000000.0,21.71,0.07389226350364012,0.03271915834758217,0.0,0.6133210492713106,0.02982209854262098,9.758597408744274
3885000000.0,21.71,0.06375421863340595,0.008048531069311533,-0.000734633651005709,0.5938972490770725,-0.018051003691710036,10.002964888382449
3890000000.0,21.71,0.061997667690880595,-0.017485496914300583,-0.0029597211453781373,0.6176389600544896,-0.07200517332425173,10.176696213269762
3895000000.0,21.71,0.07298854625085417,-0.027751648824805037,-0.002129301687433,0.7615505269671052,-0.04080929737719298,9.935663149427631
3900000000.0,21.71,0.08394687924735882,-0.02961465631426685,-0.0023422400774102173,0.8318898180676982,3.787641037877182e-07,9.602026787954868
3905000000.0,21.71,0.08715143717023603,-0.013769162516045631,-0.002789368746989429,1.02024,0.04110397584993976,9.517467468698674
3910000000.0,21.71,0.08590578743023368,0.017676510579747715,-0.0012562962378994543,0.999049488635295,0.0578793797352938,9.75055390625294
3915000000.0,21.71,0.08325478204973731,0.0384118784633319,-0.002129301687433,0.8708322551606226,0.09976777604417776,10.072714385502044
3920000000.0,21.71,0.07849581751580637,0.04938908739904192,-0.0017885968906555774,0.6690397157610972,0.11104935228259352,10.307168744184988
3925000000.0,21.71,0.07734604422711709,0.018965388511002875,0.0001597059004915897,0.4203584237615842,0.12605842376158424,10.00521488312555
3930000000.0,21.71,0.08021808339028069,-0.011907990151822421,0.0006174726359330956,0.42163433434874337,0.10810566565125666,9.548072618322326
3935000000.0,21.71,0.07548670358421694,-0.04609171867424581,-0.0019908887827356533,0.5329804337388043,0.04267311783673118,9.521194517191846
3940000000.0,21.71,0.07379386720439632,-0.04564230469862104,-0.001320183657316962,0.9076228071252281,-0.0011772765297727653,9.687182932607728
3945000000.0,21.71,0.06911143985262996,-0.025130388898363557,-0.0030768326222464855,1.084593293492433,-0.011968353253783532,10.163062589642026
3950000000.0,21.71,0.07692016744716268,0.007348077759793889,-0.002129301687433,1.0388781560358817,-0.031392153448021536,10.199453700867537
3955000000.0,21.71,0.07912400305191039,0.03668573267790931,-0.0022251286005418695,0.9188026026506261,-0.03933725496757255,9.803033440398535
3960000000.0,21.71,0.08271191816542733,0.04964598907054867,-0.0030235917007261142,0.6639385693707858,0.05807512308175123,9.636559507672994
3965000000.0,21.71,0.09144208860124124,0.01875391910934484,-0.0009901169264018826,0.4138852092612521,0.057978101199781015,9.685708763291988
3970000000.0,21.71,0.10306794204039431,-0.002918433341568497,-6.38874194174958e-05,0.5630932288751324,0.18187809401238092,9.87376692781217
3975000000.0,21.71,0.0983727563634332,-0.032703224307293506,-0.0012243736082776279,0.4919748200130482,0.2614359595327596,10.09154499255025
3980000000.0,21.71,0.08462740717491782,-0.04602695696686279,-0.004130820103996338,0.8954573411470734,0.19463009077310092,9.847277613466376
3985000000.0,21.71,0.07017407056742697,-0.024674007884897882,-0.0011285466951687652,0.9628518870192189,0.1522499615384996,9.795774338942344
3990000000.0,21.71,0.06589414890066234,0.004812789702155273,-0.003236555386807621,1.0084672249903721,-0.0009813875048138752,9.655395330011554
3995000000.0,21.71,0.05865463256904093,0.032063527903334985,-0.005269979568923258,0.9106609808326098,-0.04885364480383645,9.772232663971225
4000000000.0,21.71,0.06497877683067421,0.04260332683252093,-1.6864069533110053e-08,0.7455580576199806,-0.02942953382879534,9.917910233085601
4005000000.0,21.71,0.08607614250683016,0.022577244261952054,-0.00210802555570829,0.5027605551920056,0.028841866753918668,9.947045933376959
4010000000.0,21.71,0.09567937473821321,-0.0058128729135185665,-4.2569127518952976e-05,0.50031,0.02943,10.014637145226072
4015000000.0,21.71,0.10413269406852801,-0.03015738988217066,-0.002065439564119804,0.6240151138252512,0.2197455597311556,9.797147106309172
4020000000.0,21.71,0.10029984942512948,-0.04521810903831944,-0.0011072284032702195,0.7691051712551518,0.26330071233470714,9.715038575330587
4025000000.0,21.71,0.09911811240064894,-0.029615483517611976,-0.0030875044162479125,0.9800207199775072,0.26487,9.628023796372837
4030000000.0,21.71,0.07904928257582661,0.004279129677531961,-0.004194732819518137,0.9723670434441705,0.20954113033251132,9.780375130724552
4035000000.0,21.71,0.07181483702455542,0.031157481525568718,-0.0062388709558090245,0.97119,0.1512697297497973,9.854243648625236
4040000000.0,21.71,0.06842805123632513,0.03987804049575303,-0.0034494431845762254,0.6643305319468054,0.12007416458354166,10.165909468053194
4045000000.0,21.71,0.07495444614563898,0.03369229979100802,-0.0031939525311496,0.5662325714458257,0.06415692858436929,9.978337714337478
4050000000.0,21.71,0.08618096185672108,0.005218286737884183,-0.0022357582343694588,0.36493026933940265,0.10300539333195394,9.789397505338574
4055000000.0,21.71,0.08451108566566723,-0.031050404843944147,0.0007133417092157887,0.5354315327972154,0.14283391505403914,9.665988254837883
4060000000.0,21.71,0.08697048043412402,-0.047346007085702774,-0.0008091517582551162,0.7059289406306894,0.09535272683622727,9.713470152024401
4065000000.0,21.71,0.07994369063760634,-0.0378786032539674,-0.00291716044989396,0.9819833687324337,0.06268566312675664,9.79852301061973
4070000000.0,21.71,0.08707699705930823,-0.005069889630151668,-0.002278344225957949,1.0877334324389343,0.008239925670799259,10.029353655426537
4075000000.0,21.71,0.0956580743643885,0.02716368965829813,-0.005749148916610944,1.0153342084801422,0.20846447879964478,9.998351366784114
4080000000.0,21.71,0.10678771596584735,0.044492053842290505,-0.0037049591341071506,0.7698865810250658,0.3111738339928384,9.8135299357688
4085000000.0,21.71,0.10423136879770675,0.024773337047102776,-0.0031939525311496,0.5223805163444052,0.34001475869244757,9.691003827191539
4090000000.0,21.71,0.08935513470041447,0.006263150464277794,-0.00144790790394336,0.4887342794433428,0.3192171616699716,9.696792838330028
4095000000.0,21.71,0.07765118275308555,-0.0252785866956022,-0.0002022750280105427,0.5858541544855416,0.25035056367630565,9.940475386213853
4100000000.0,21.71,0.0688112819464433,-0.03791908382867819,0.0,0.7730296723891968,0.14126304434903045,10.074870796375809
4105000000.0,21.71,0.07383657229847593,-0.02763437503126743,-0.004205414099558729,0.9614796149592962,0.06347014185710141,9.877490567428406
4110000000.0,21.71,0.08477352974127206,0.00042228067263526056,-0.0044928178965680295,0.9164493218499933,0.1102650386545504,9.636164884036349
4115000000.0,21.71,0.08899330871055113,0.020582632269340293,-0.005078393198983648,0.9153713397868134,0.11242244014212441,9.561708660213187
4120000000.0,21.71,0.09838360733817342,0.044746270498201984,-0.003704967566141925,0.7953934395570343,0.2272008804169088,9.800977440859874
4125000000.0,21.71,0.10358968051560097,0.034356623576705644,-0.002395455702826297,0.5125698559351985,0.2943003204927032,10.040536762709868
4130000000.0,21.71,0.09966104057922401,0.016144505206860997,-0.000553601026580787,0.49697532198265326,0.33314792088117917,10.05093311867823
4135000000.0,21.71,0.09178260683924942,-0.012394900573952376,0.0,0.412509295238793,0.3361886196825862,9.97833895746069
4140000000.0,21.71,0.08871647341511733,-0.04661942872338566,-0.0015331146692637268,0.591741692850517,0.298223597927336,9.639302381346024
4145000000.0,21.71,0.08237109321215455,-0.045110346770064896,-0.0028852125241678127,0.8022632492097325,0.24966409744174098,9.62714288818643
4150000000.0,21.71,0.07841064447862509,-0.028549955932346084,-0.0031939525311496,1.0182799346104994,0.2079716775649168,9.686394161217542
4155000000.0,21.71,0.07703725362792674,0.0037651740913661365,-0.002459334690209032,1.1159859228235594,0.14881713505877137,9.834428594823686
4160000000.0,21.71,0.07815516331123752,0.029018700123049267,-0.003577244373519822,0.9480362183187623,0.1342008808030088,10.145112589711326
4165000000.0,21.71,0.08882307014463178,0.03657758082545828,-0.0028319536845735215,0.7712610673982108,0.16363112360051124,10.037785449395654
4170000000.0,21.71,0.09655234751361207,0.021107111518700063,-0.002129301687433,0.5381742510798425,0.2607508529642085,9.830599785041299
4175000000.0,21.71,0.1014603967462418,-0.009380553839082362,-0.0007452379887289747,0.5498518786042188,0.32961632437746324,9.678544702490147
4180000000.0,21.71,0.10606020337554715,-0.029487094384309714,-0.0006813853514548911,0.6898402554893026,0.3621854435744544,9.698951774297818
4185000000.0,21.71,0.09752746986317265,-0.028720369462986856,-0.0037476062579477045,0.871718388349284,0.37278,9.77223190644302
4190000000.0,21.71,0.08369122416925422,-0.004435296974417014,-0.005983346574243348,1.0428042207858421,0.2815457792141578,9.905943346328733
4195000000.0,21.71,0.07622809222812363,0.029310120851571867,-0.0044395674890085595,0.96706800737748,0.2196458185171582,10.012675088897051
4200000000.0,21.71,0.07840373392504983,0.05219594955983151,-0.0031939525311496,0.7298618789210188,0.18638959210019593,9.976769184200393
4205000000.0,21.71,0.08473474117183272,0.049158112472008825,-0.0031939525311496,0.4542005496876055,0.1957099083853991,9.804406421427165
4210000000.0,21.71,0.09167627361082141,0.022215653971650647,-0.0007239270748608949,0.3107804729032047,0.24426940887099408,9.649311300483813
4215000000.0,21.71,0.10087488363008254,-0.020472946460433464,0.0004577909775414597,0.36699316432713164,0.3207878187131782,9.777335238010851
4220000000.0,21.71,0.10605878076341915,-0.05347287755266775,-0.0011924267365558375,0.5591720492109206,0.34648895409468955,9.97402418362124
4225000000.0,21.71,0.10712046441211465,-0.05640807079012675,-0.0009581679466714055,0.8235518799011189,0.38210023859000236,9.966468597278885
4230000000.0,21.71,0.10241584010895805,-0.04020523508210448,-0.0022996814899347564,0.9886523751387237,0.41653251783732514,9.78547294593313
4235000000.0,21.71,0.09066467712985608,-0.010569217883796268,-0.003130055625692939,1.0878319693773197,0.34442803062268035,9.584270501583505
4240000000.0,21.71,0.0808380122710298,0.029062175314172916,-0.003236556440811917,1.0457443528617436,0.28449,9.653827188350473
4245000000.0,21.71,0.0777718714688673,0.051180768911170044,-0.002629660738489116,0.8164840737411407,0.28449,9.990507298161273
4250000000.0,21.71,0.08309521527781939,0.04048269683625244,-0.0005323164628213105,0.5591678536700786,0.27958491744884917,10.153349504693095
4255000000.0,21.71,0.09102681932102313,0.008909059180841818,-0.001043375765996136,0.43644698264826987,0.303521895889619,9.922026728772668
4260000000.0,21.71,0.09988250847345158,-0.026497169102919948,-0.0026403430725339943,0.48382994470849944,0.33354,9.641266758819167
4265000000.0,21.71,0.1040247199108424,-0.04868028995180871,-0.002693557643945728,0.6957281823302819,0.35198313137003134,9.569360782842509
4270000000.0,21.71,0.09972494486271104,-0.036693128937421625,-0.0035985468553532017,0.9731536587925367,0.39534341469813417,9.700915122309551
4275000000.0,21.71,0.09368832047679518,-0.007355527773527864,-0.004844152327173073,1.0570270848162708,0.3820987526692875,9.941946243771662
4280000000.0,21.71,0.08513919215144534,0.02616362600649095,-0.0028532371943286753,0.9955181349290814,0.3249070337322703,10.033667584330676
4285000000.0,21.71,0.08188144179124762,0.05035334754266853,-0.0006068419481011613,0.7448692216817923,0.3054832335380323,9.909177185687373
4290000000.0,21.71,0.08488377527832291,0.03517205232825164,0.0,0.47088,0.31078113331241136,9.731126600062767
4295000000.0,21.71,0.09040934036106389,0.006401339764545006,0.00043651589982109557,0.42663598232255984,0.3456065502756655,9.779493319331435
4300000000.0,21.71,0.09821324018372386,-0.029621972953254135,0.00021291203986855192,0.47676842214788423,0.37866633408936334,9.876706496597865
4305000000.0,21.71,0.1033234917180643,-0.043966176447526636,-0.0014798737477433525,0.7010237706724377,0.41751393447783935,9.789889918097298
4310000000.0,21.71,0.10130060968741557,-0.03657749966712367,-0.003343030905822269,0.9040922789305228,0.44145,9.737796558235265
4315000000.0,21.71,0.09524272814185322,-0.01224756745768877,-0.004535394402117444,1.0696817294904173,0.4378202161863022,9.665696324832863
4320000000.0,21.71,0.09093096500380128,0.027059721321883234,-0.002427385710478588,0.935479586140396,0.42810831608918315,9.897900620789406
4325000000.0,21.71,0.08863123713767526,0.0391434173847907,-0.0010646508437165,0.7332962398809625,0.4149628319841283,10.041513983809539
4330000000.0,21.71,0.08273313527290872,0.033915717092191315,-0.0003406700146340104,0.5575983814786838,0.3855325794747258,9.848454190739341
4335000000.0,21.71,0.08484122617688651,0.004391966320118838,0.0003619630104282535,0.41192215260652154,0.3563973842021738,9.715724468563044
4340000000.0,21.71,0.09156977384970684,-0.027102326285549955,-0.0010646508437165,0.49128640168656407,0.3566914314014143,9.685611391781613
4345000000.0,21.71,0.09572193964971475,-0.04337555623106421,-0.0010646508437165,0.6940596099102961,0.37376184396411843,9.895544212756942
4350000000.0,21.71,0.10108775245577294,-0.04964232640544696,-0.002022864112574806,0.9309709433512094,0.42967766202587665,9.9385099015841
4355000000.0,21.71,0.10301473379300864,-0.029151453801953837,-0.004567361299921766,1.1145148613158486,0.42496987672519876,9.800875261958952
4360000000.0,21.71,0.10076828373855506,0.021005139138219765,-0.0053232542185827,1.122262306244623,0.48343688468776885,9.665988691873387
4365000000.0,21.71,0.09434840229241234,0.06491964397302445,-0.0053232542185827,0.8909413173138132,0.49844635435466356,9.697775973976858
4370000000.0,21.71,0.08486236318003756,0.07732002350346905,-0.004492798924489831,0.5734901384218014,0.4918724662979247,9.94675301275813
4375000000.0,21.71,0.07963507500313743,0.05273037252809239,-0.001596957820498698,0.3090131304592313,0.41447258497912587,10.065059320166993
4380000000.0,21.71,0.08599100368159321,0.005885467946642147,0.00025552543557002936,0.16363139553371397,0.41476654477126546,9.968528238780083
4385000000.0,21.71,0.09037741140741604,-0.04724316299179219,0.0005748929683706843,0.30381902176119024,0.3991691555200916,9.783804829972448
4390000000.0,21.71,0.09670135421598922,-0.08204784469712245,-0.0012988832834922863,0.6804248402783484,0.41967171472951714,9.543167147295172
4395000000.0,21.71,0.09698886552144187,-0.06717846421989199,-0.002800059513069036,1.0247548195576481,0.4140801853676018,9.551117600071676
4400000000.0,21.71,0.10098125058664963,-0.027903822913913995,-0.00468443588663803,1.2321362563941627,0.4414508546472085,9.925760478476905
4405000000.0,21.71,0.1007364180251679,0.0252000870264608,-0.002736180525686303,1.2072163753921636,0.532977898932879,10.130982173257921
4410000000.0,21.71,0.1033234917180643,0.05424687176917614,-0.004365021977646164,0.9229210310058104,0.5956635426358354,9.979121658913316
4415000000.0,21.71,0.10133249226487226,0.04665287882992845,-0.00018099995029017857,0.5506343566831436,0.6128299281952994,9.688354284878443
4420000000.0,21.71,0.09059021172282392,0.030207888336219436,-0.00140535774850263,0.4422337697616377,0.5364106282936063,9.55533403121074
4425000000.0,21.71,0.08410647869341151,-0.002930827724246278,-0.0027148316676617783,0.3889691644597916,0.509628898347789,9.73691696115537
4430000000.0,21.71,0.0777718714688673,-0.044117762868737156,-0.0002981209131976279,0.6735562349012624,0.44301908371539084,9.908886693043566
4435000000.0,21.71,0.07901759709718256,-0.04632361879247062,-0.002267715646134705,0.8580823367465235,0.3924,10.054953029518831
4440000000.0,21.71,0.08863140367036187,-0.03646855437402409,-0.0034494874527587534,1.0343674349000744,0.3982864312083643,9.771543420133234
4445000000.0,21.71,0.0991733671443415,0.011564271801111466,-0.00520613325567524,1.114217900546579,0.45763779508187796,9.632340813661207
4450000000.0,21.71,0.10834303035110295,0.04026510261534082,-0.004152128909855772,0.9084047898972478,0.5905621728718218,9.63538303723093
4455000000.0,21.71,0.10459034170147842,0.07526823016817201,-0.0031939525311496,0.7353527541503276,0.60822,9.785479326651492
4460000000.0,21.71,0.09510430258910371,0.057311349490711046,-0.0030235895927174226,0.23936443315074435,0.6074351133698511,10.201219421424195
4465000000.0,21.71,0.08576733341936683,0.015132675013391026,-0.0009901158723975368,0.2783089194545892,0.5942892796363928,9.850613573454536
4470000000.0,21.71,0.07921985315311486,-0.02827593733393572,-0.00012777694684368326,0.2150379783803798,0.5371952527024526,9.849433334795233
4475000000.0,21.71,0.08533091132593254,-0.08644774265912493,-0.00207605971190828,0.5317058245462583,0.49834765231397654,9.546601760764517
4480000000.0,21.71,0.08743892001757131,-0.0687686611727114,-0.0010646508437165,0.9484322793166229,0.46420989614899894,9.58829704565187
4485000000.0,21.71,0.08973862258759302,-0.05605535157059886,-0.001096599823446977,1.1164784521250846,0.5392556128842562,9.91732122576851
4490000000.0,21.71,0.09808544742681502,-0.007323569325037027,-0.0021719066510997127,1.3667262347626625,0.5315065849157659,9.90103802098008
4495000000.0,21.71,0.10221621693860276,0.05130864282641355,-0.0042372914069936304,1.0371107553205077,0.6184227492399276,10.03297894263049
4500000000.0,21.71,0.09800019006928604,0.0681724088062727,-0.002129282715354775,0.7651771155656713,0.6572698251857982,9.7707600874071
4505000000.0,21.71,0.09273016834018884,0.05130833927316196,-2.1274023716018244e-05,0.4446844123607442,0.6378460249915603,9.780471987504221
4510000000.0,21.71,0.08433004460920755,0.01354271429577511,-0.0020867346679227386,0.3837666743919667,0.6184222247973223,9.645975573581257
4515000000.0,21.71,0.08106161402297365,-0.01200948994094432,-0.003162022523497345,0.41113736309537363,0.5419036984123371,9.77645102777841
4520000000.0,21.71,0.08812034436718708,-0.04551569957998597,-0.0011498038548152512,0.6003737559115375,0.5207146244088463,9.902999941342499
4525000000.0,21.71,0.0874069520657626,-0.038771540202140596,-0.0030875065242566046,0.8412096973173969,0.5292495878926958,9.917419587892695
4530000000.0,21.71,0.08835451040468907,-0.02933785158495908,-0.0031939525311496,0.927241903918519,0.5112970240203702,9.890245536030555
4535000000.0,21.71,0.09732959350631493,-0.003993423242209578,-0.002203817686673745,0.9958137166085372,0.5557369404346695,9.715135626348257
4540000000.0,21.71,0.09995921419263888,0.0390252660548808,-0.003108790034011732,0.919392406343524,0.640397593656476,9.756241729104318
4545000000.0,21.71,0.10692731478094263,0.05037010448389105,-0.0022251106824679903,0.6534415398460154,0.6653143765623439,9.787731564843517
4550000000.0,21.71,0.09704369140631697,0.04826356103108052,-0.005003887739786371,0.45125823243418234,0.6935672651348727,9.869841795404618
4555000000.0,21.71,0.09208074040049921,0.025187488495236485,-0.0005855099541461455,0.3443301152459012,0.6441240691475407,9.86120802304918
4560000000.0,21.71,0.08786472301722151,-0.019816203073990905,0.0,0.29900844570988444,0.6117513342824134,9.807252668564827
4565000000.0,21.71,0.08272244977685075,-0.051519422062570236,0.0009262558570930324,0.4906001394019014,0.5911504226607043,9.791655211330353
4570000000.0,21.71,0.08477730292132131,-0.07004650020543508,-0.0007665678746753217,0.8742709282042092,0.5295431786326318,9.756633244932932
4575000000.0,21.71,0.0861293902361819,-0.05885672103828225,-0.0019696137050152895,0.9903201220472013,0.5699615331833153,9.83452588863886
4580000000.0,21.71,0.09702087457942003,-0.026039984022368463,-0.0012349853240313322,1.2890371136351713,0.6117519558440196,9.758594621428946
4585000000.0,21.71,0.10703240352397708,0.014246278214019917,-0.0010646508437165,1.1648374407212745,0.7075962796393629,9.82275389058124
4590000000.0,21.71,0.10341174716503677,0.05624571672963441,-0.004556744314146363,0.9753085060503851,0.806382891552429,9.799208554223787
4595000000.0,21.71,0.09794695652579602,0.06995059529600466,-0.006185631088293003,0.7351590794385909,0.7286857289716573,9.838057135514171
4600000000.0,21.71,0.08415963107856679,0.06710786125498204,-0.004684444318672757,0.45910540886505413,0.7377123573979235,9.731518659757787
4605000000.0,21.71,0.07170011312671175,0.05342700078672402,-0.0008942678792017811,0.2859601583010016,0.6293101583010016,9.7098399894466
4610000000.0,21.71,0.07672476153826144,0.005202650479741534,-0.0008304373760189385,0.20149677319396772,0.5678024418251244,9.796070784980909
4615000000.0,21.71,0.076363710483495,-0.017303485638201242,0.0005749309125271339,0.17883621035916208,0.6044927378450274,9.978439582457595
4620000000.0,21.71,0.08615725809380659,-0.07933988840348105,-0.0005536379167328908,0.4300734510905345,0.5360174128824742,9.981085861572259
4625000000.0,21.71,0.09507251592604245,-0.09640324173482638,0.0005323449209386477,0.7455628747224288,0.6572717967015179,9.665298816761888
4630000000.0,21.71,0.09851128942462598,-0.0864167191988827,0.00027679945928604766,1.1579765368809656,0.626465610745856,9.659123369118534
4635000000.0,21.71,0.10217370788933157,-0.047318218779488073,-0.0031088195461333955,1.411366410556964,0.7129922404690224,9.728086950146569
4640000000.0,21.71,0.09489134944306564,0.02650953200369735,-0.005025161763502381,1.3839938086092383,0.7694965802528658,9.903785672907956
4645000000.0,21.71,0.09765962756309521,0.07805462819527341,-0.0053232542185827,1.144824293293443,0.7680248097764482,9.939099239105794
4650000000.0,21.71,0.08522423133007472,0.10589108685772955,-0.0053232542185827,0.6062520388357204,0.772047090320671,9.804112374227923
4655000000.0,21.71,0.08177499789236332,0.09527990619265209,-0.0038540164286929414,0.34433009582210095,0.7005311054043112,9.74437100958221
4660000000.0,21.71,0.07801545050816416,0.0518553448070731,-0.0031939525311496,0.02040081734400817,0.7071053430894535,9.86807691978327
4665000000.0,21.71,0.07777678805356533,-0.0012520774559146436,-0.0017673007328483298,0.0728909277488093,0.6076297689834977,9.842273722043638
4670000000.0,21.71,0.08586331632511886,-0.05502933727779328,-0.00036197144246302,0.20561814425488145,0.6076322163823222,9.813139381418294
4675000000.0,21.71,0.08879099784639284,-0.09011594928372879,0.0013840658067127169,0.5380829495070295,0.6631563632250637,9.813433409193735
4680000000.0,21.71,0.09932056239338088,-0.0990648883431981,0.002810688092892301,0.9323456725218567,0.6957254727101547,9.709544145545841
4685000000.0,21.71,0.09807465442231378,-0.07289503621208501,-0.00015974700666103936,1.2325309480141096,0.7681239100050391,9.677761564002017
4690000000.0,21.71,0.09770219458260548,-0.0244997392556078,-0.002129301687433,1.4558058219524583,0.810502291097623,9.807843530854836
4695000000.0,21.71,0.09623285771630724,0.0301833762902018,-0.0034281955109688052,1.3687868377419685,0.8321825735842258,9.896622573584224
4700000000.0,21.71,0.08799243039977842,0.0892741662075199,-0.005536204202607661,1.0889072612441726,0.8495460912918609,9.813922539330225
4705000000.0,21.71,0.08164716086727192,0.11775637694359155,-0.007644212894246517,0.6296985080501851,0.8013780774991808,9.75114
4710000000.0,21.71,0.07556849815733716,0.11358277691120702,-0.0072821919135792265,0.19325379798653797,0.7822496744582969,9.728380434055603
4715000000.0,21.71,0.0724311639577646,0.0625129236765066,-0.0027467395412227695,-0.11311195591331957,0.7163249178349492,9.862878372746884
4720000000.0,21.71,0.07302737838004691,-0.012267539077608563,0.0,-0.15852831647528315,0.662763691680337,9.90535200815562
4725000000.0,21.71,0.07584768597319211,-0.07941657969490393,0.0017567037731554837,0.0907457122109571,0.6347064493352645,9.752119348005793
4730000000.0,21.71,0.08639569286618795,-0.12131247061190387,0.002044109678173503,0.5630995124744952,0.671789902494899,9.677957491874576
4735000000.0,21.71,0.09825583355334276,-0.12813659329079435,0.0010646508437165,1.0002305430942056,0.7623357438018574,9.838451759150818
4740000000.0,21.71,0.10558968733442352,-0.11078417524165703,-4.260601767105683e-05,1.418138479647085,0.9119397175826972,9.900250618967807
4745000000.0,21.71,0.09996758696125946,-0.06214562724857966,-0.0010646508437165,1.7077255373274556,0.900163388017634,9.849632768663728
4750000000.0,21.71,0.0782952197542852,0.009058950210143895,-0.0026616571484151556,1.7167494464216944,0.7995152767891529,9.692276678530167
4755000000.0,21.71,0.0691521195477683,0.08495866769534521,-0.005301981248870977,1.4854263208728633,0.7757740611186407,9.645488793724589
4760000000.0,21.71,0.0760594047419111,0.14103826364669428,-0.007409989940509832,1.0398553771355539,0.7687122472010225,9.794696677371867
4765000000.0,21.71,0.08133850201862475,0.16917290119258704,-0.007516414867315912,0.48048769140907693,0.80442,9.860718718098488
4770000000.0,21.71,0.08513927541778865,0.15079999229994268,-0.0063879050622992,-0.10183271053092713,0.7999073073484732,9.899859229393892
4775000000.0,21.71,0.0872472841094275,0.09193300966541582,-0.005908802116885273,-0.40466296374322963,0.8387559274864593,9.83452407251354
4780000000.0,21.71,0.08654455411596539,0.005453920761537362,-0.002980971980998582,-0.49638739268647397,0.8452285786965859,9.810785449920354
4785000000.0,21.71,0.08003198190344787,-0.09000270026626132,0.0,-0.2750657081123571,0.8016735717715358,9.701596246999063
4790000000.0,21.71,0.07725077690392207,-0.14340838678703788,0.0017886538068902936,0.21405615384006155,0.7869573626399737,9.65834084248011
4795000000.0,21.71,0.0809658240000169,-0.1828414310022334,0.0042586033748661,0.747825893123559,0.7719497382340974,9.792438330394683
4800000000.0,21.71,0.08394691719151526,-0.16916390775363685,0.0038327329189377798,1.4263759579190596,1.0437892211174924,9.815889169964192
4805000000.0,21.71,0.08342888545952648,-0.12161362565803792,0.001948280657055966,1.9631872797868728,1.0481905668344058,10.02748797999408
4810000000.0,21.71,0.06551067998556197,-0.04190810947101825,-0.0008091549202681535,2.2925890585792907,0.5842847211417472,9.803126927148869
4815000000.0,21.71,0.05097850020718555,0.05990294574346768,-0.00409895649861785,1.782869587051196,0.6318614453208145,9.465866696409567
4820000000.0,21.71,0.06813662368269235,0.135549152703833,-0.008602409299035274,1.5056311229372112,0.6345120170953202,9.649510646945206
4825000000.0,21.71,0.09416753514666971,0.18210695439787525,-0.011764422336493571,0.7710600019305,0.774501093237211,9.879162655556227
4830000000.0,21.71,0.10273338443886428,0.18735532687770917,-0.011668512157041355,0.2062017906031179,0.9062484567186846,9.989129568013496
4835000000.0,21.71,0.11081958895829608,0.15502062026108288,-0.007101210935367231,-0.3020558165866582,0.9936561208829613,9.940571757398518
4840000000.0,21.71,0.10132185630701855,0.08539458149950344,-0.004684412698542398,-0.6596227077985272,1.0602642359328425,9.876704709608248
4845000000.0,21.71,0.08687962688371782,0.0009055105807047187,-0.000734598868862274,-0.545632388216624,1.0050340294584403,9.628024029458441
4850000000.0,21.71,0.06668196761095807,-0.07532233962383088,0.0012776219078284477,-0.38847053608500537,0.9417590579456906,9.561805963740259
4855000000.0,21.71,0.05917620978158272,-0.14786100825809959,0.003949844395806117,0.11791978349689784,0.8417950626719507,9.605759760707096
4860000000.0,21.71,0.058974100232254474,-0.1743168940151299,0.0031939525311496,0.5556443471791435,0.7761675775986758,9.969709254391391
4865000000.0,21.71,0.07105193297265872,-0.19972871385794141,0.002906486547883833,1.186035614775156,0.9130205743683057,10.095076521070665
4870000000.0,21.71,0.07357241406622955,-0.16856521299994748,0.0018524822020643816,1.873520705355207,1.1046022162437223,9.950283472969534
4875000000.0,21.71,0.05992156792680713,-0.08922048066895322,0.0005323048687735065,2.393639621235896,0.7455573486512737,9.76829907249869
4880000000.0,21.71,0.0621252717810116,0.002091534189023459,-0.0015757038228652745,2.2535487449571874,0.5630949478814495,9.17941585406806
4885000000.0,21.71,0.06381181547842747,0.11780339158498099,-0.004173472497858637,1.812884204589442,0.6557011590821117,9.494220559607406
4890000000.0,21.71,0.09052648135005398,0.17005644604626477,-0.0074525559060157,1.3272849264974493,0.7614541946300419,9.939888389260084
4895000000.0,21.71,0.10091053380654907,0.21441109931183522,-0.008123316893664774,0.5223753690373538,0.9571633163515332,10.26126
4900000000.0,21.71,0.11164521126233061,0.1789621575019591,-0.01043356793917949,-0.12164704565187046,1.0967583807064838,10.15923105081571
4905000000.0,21.71,0.1081603626203625,0.1323309206123783,-0.00877268159309371,-0.4361558393071584,1.1430619621899198,9.72690806144138
4910000000.0,21.71,0.0936775791185069,0.06445353436121679,-0.0045566642098160805,-0.6798315694371156,1.1942687324039873,9.575930824986807
4915000000.0,21.71,0.07430852997564191,-0.01012063551760026,-0.0007026488351274512,-0.5408242498522425,1.1079396815763969,9.395431500295514
4920000000.0,21.71,0.049474333127965564,-0.06592179144325962,0.0012350053501139029,-0.380623699570637,0.9394042620886427,9.632638735908587
4925000000.0,21.71,0.035949471177667155,-0.13331652824900744,0.0024487177044335774,0.05199701781307018,0.8004944694045448,9.95224595662216
4930000000.0,21.71,0.04405410523954583,-0.1717904083451947,0.003960480353659766,0.4873667370787674,0.6780679660746798,10.01914805088798
4935000000.0,21.71,0.0690906582735673,-0.17809063306676154,0.0019908866747269617,1.0729243969662439,0.8080543969662439,9.889851291158012
4940000000.0,21.71,0.09216826412655309,-0.16152853425819716,0.0009368823289075832,1.57470801270368,1.2203635202321352,9.70209
4945000000.0,21.71,0.10470986866256846,-0.12039829404202541,-0.0004684880676471916,2.191946784202768,1.1318737658709377,9.689139647391697
4950000000.0,21.71,0.0468795437085676,0.005753169027416019,-0.0042586033748661,2.2003804040091044,0.7514446539306466,9.560823692452537
4955000000.0,21.71,0.04831697902533095,0.06366225143237518,-0.004546090438218765,1.9037222478346225,0.6349039699594398,9.393962808491427
4960000000.0,21.71,0.06404325812420876,0.1279999372903902,-0.007367373382795269,1.2862837316862374,0.7110293780522937,9.880635853681959
4965000000.0,21.71,0.07986010207997452,0.1536417425229417,-0.006462441087622509,0.9208590100890901,0.786470689614207,10.235458832047488
4970000000.0,21.71,0.10830233318713849,0.1405122513220954,-0.0075164454334418936,0.3572760489396605,1.072822179217722,10.124503869721938
4975000000.0,21.71,0.11861767544590475,0.1035351715059012,-0.008357477661145097,-0.0407117899002179,1.1355089495010897,9.659413890898039
4980000000.0,21.71,0.10425939221600558,0.06540335017010682,-0.005238061155318807,-0.07612743787997438,1.2737300130779001,9.4124999607663
4985000000.0,21.71,0.07520976605036159,0.02293782350290426,-0.003130052463679951,-0.24917206344712065,1.2322328412406285,9.534047508001676
4990000000.0,21.71,0.06133693202971504,-0.028465651757599696,-0.0010007402362033962,-0.05670073382760734,1.1057818430533184,9.81588890774289
4995000000.0,21.71,0.03942019154797248,-0.06634183066334166,0.00211864464949242,0.05327247194092472,0.9706008178687082,10.101255892321658
5000000000.0,21.71,0.04047436470727488,-0.09587091473196159,0.0010646719238034165,0.4708820394990204,0.9123298057619981,9.800187572024976
5005000000.0,21.71,0.0584097173459725,-0.09376290604032274,0.0031726806154422724,0.6748319415385196,0.89290600556776,9.557390069597002
5010000000.0,21.71,0.060677439765381126,-0.07494389874142907,6.384736725235669e-05,0.9941486113368863,0.89271,9.564553897313239
5015000000.0,21.71,0.06381817034708857,-0.04667697461334461,0.0010327218900685936,1.124325366334654,0.8831942025896421,9.764581745617516
