#timestamp [ns], temperature [degC], w_RS_S_x [rad s^-1], w_RS_S_y [rad s^-1], w_RS_S_z [rad s^-1], a_RS_S_x [m s^-2], a_RS_S_y [m s^-2], a_RS_S_z [m s^-2]
0.0,22.09,0.0,0.0,0.0,0.57879,-0.14715,9.76095
5000000.0,22.09,0.0,0.0,0.0,0.598213800194238,-0.14715,9.809509500485596
10000000.0,22.09,0.0,0.0,0.0,0.59841,-0.13753619980576198,9.838841400582714
15000000.0,22.09,0.0,0.0,0.0,0.607925700291357,-0.146855700291357,9.848945700291358
20000000.0,22.09,0.0,0.0,0.0,0.589384799223048,-0.14715,9.80215199805762
25000000.0,22.09,0.0,0.0,0.0,0.56996099902881,-0.175108501456785,9.734953496600834
30000000.0,22.09,0.0,0.0,0.0,0.587422801165428,-0.13969439766914396,9.77762700291357
35000000.0,22.09,0.0,0.0,0.0,0.606846601359666,-0.155586601359666,9.844433104758831
40000000.0,22.09,0.0,0.0,0.0,0.581144397669144,-0.147934799223048,9.840214799223048
45000000.0,22.09,0.0,0.0,0.0,0.587717100874071,-0.165004201748142,9.785867394755575
50000000.0,22.09,0.0,0.0,0.0,0.57094199805762,-0.15794099902880998,9.77174099902881
55000000.0,22.09,0.0,0.0,0.0,0.6126345053415452,-0.14822909893169098,9.77076
60000000.0,22.09,0.0,0.0,0.0,0.609397198834572,-0.18168120466171206,9.831189608157995
65000000.0,22.09,0.0,0.0,0.0,0.582615896212359,-0.1437164936872649,9.856499402525094
70000000.0,22.09,0.0,0.0,0.0,0.57879,-0.15421320271933203,9.799993790482338
75000000.0,22.09,0.0,0.0,0.0,0.6038055043703551,-0.165298501456785,9.75702599417286
80000000.0,22.09,0.0,0.0,0.0,0.583498795338288,-0.14204879533828796,9.800582409323425
85000000.0,22.09,0.0,0.0,0.0,0.57879,-0.16176690495306906,9.842569206604091
90000000.0,22.09,0.0,0.0,0.0,0.586834201748142,-0.15068159650371596,9.841195798251858
95000000.0,22.09,0.0,0.0,0.0,0.572707796309478,-0.16304220369052203,9.791753388928434
100000000.0,22.09,0.0,0.0,0.0,0.57682800194238,-0.12752999028809991,9.77272199805762
105000000.0,22.09,0.0,0.0,0.0,0.57879,-0.14871960815799606,9.794009706118498
110000000.0,22.09,0.0,0.0,0.0,0.5940936042732361,-0.15696,9.830797208546473
115000000.0,22.09,0.0,0.0,0.0,0.575748893298789,-0.14940629776626296,9.869644808934948
120000000.0,22.09,0.0,0.0,0.0,0.5838912046617121,-0.16206120466171206,9.819025181353153
125000000.0,22.09,0.0,0.0,0.0,0.5886,-0.15941249757202497,9.778117492716074
130000000.0,22.09,0.0,0.0,0.0,0.5886,-0.15696,9.80705701262547
135000000.0,22.09,0.0,0.0,0.0,0.595761302622213,-0.15696,9.834132605244426
140000000.0,22.09,0.0,0.0,0.0,0.5842835945613359,-0.14989679728066796,9.867682810877328
145000000.0,22.09,0.0,0.0,0.0,0.57879,-0.15411510281645102,9.822949177468391
150000000.0,22.09,0.0,0.0,0.0,0.59939100874071,-0.14322599417285992,9.76585498543215
155000000.0,22.09,0.0,0.0,0.0,0.5879132909679329,-0.15087780602137804,9.771446709032068
160000000.0,22.09,0.0,0.0,0.0,0.585460803107808,-0.15696,9.81392401553904
165000000.0,22.09,0.0,0.0,0.0,0.5886,-0.15696,9.855910812819708
170000000.0,22.09,0.0,0.0,0.0,0.6015492066040921,-0.15048539669795397,9.849436190093861
175000000.0,22.09,0.0,0.0,0.0,0.59546699320167,-0.15352650339916502,9.801170979605011
180000000.0,22.09,0.0,0.0,0.0,0.5948784034962841,-0.15696,9.768013193007432
185000000.0,22.09,0.0,0.0,0.0,0.604590303593403,-0.15696,9.791851517967014
190000000.0,22.09,0.0,0.0,0.0,0.60822,-0.14479559261895592,9.822164407381045
195000000.0,22.09,0.0,0.0,0.0,0.60822,-0.1552923113629231,9.817651792424718
200000000.0,22.09,0.0,0.0,0.0,0.60233399611524,-0.14322598446095985,9.77468397669144
205000000.0,22.09,0.0,0.0,0.0,0.59841,-0.13331790398187904,9.762715807963758
210000000.0,22.09,0.0,0.0,0.0,0.604099804078998,-0.14871960815799606,9.79920902039499
215000000.0,22.09,0.0,0.0,0.0,0.602628295823883,-0.14018488747164887,9.83658511252835
220000000.0,22.09,0.0,0.0,0.0,0.6039036042732361,-0.1385172085464721,9.854733604273235
225000000.0,22.09,0.0,0.0,0.0,0.60822,-0.16333651311106512,9.832072478148225
230000000.0,22.09,0.0,0.0,0.0,0.6029225955325259,-0.17128259553252595,9.772918168727681
235000000.0,22.09,0.0,0.0,0.0,0.5828120863062208,-0.15117208630622087,9.767326522822966
240000000.0,22.09,0.0,0.0,0.0,0.5893848186468482,-0.15264361398513615,9.810784818646848
245000000.0,22.09,0.0,0.0,0.0,0.603216895241169,-0.1467575809646758,9.844629314276494
250000000.0,22.09,0.0,0.0,0.0,0.59350499514405,-0.14224501456785013,9.84433498543215
255000000.0,22.09,0.0,0.0,0.0,0.5886,-0.15696,9.800778570281585
260000000.0,22.09,0.0,0.0,0.0,0.583891194949812,-0.15225119494981196,9.766051194949812
265000000.0,22.09,0.0,0.0,0.0,0.583400705147307,-0.1655928205892282,9.774782115441921
270000000.0,22.09,0.0,0.0,0.0,0.5886,-0.1683395790222958,9.817455631466556
275000000.0,22.09,0.0,0.0,0.0,0.5930145053415451,-0.14715,9.835996483975364
280000000.0,22.09,0.0,0.0,0.0,0.5897771891226719,-0.14283359456133593,9.811177189122672
285000000.0,22.09,0.0,0.0,0.0,0.57879,-0.1457766110715661,9.795971694464217
290000000.0,22.09,0.0,0.0,0.0,0.5829102056329021,-0.14871958873419588,9.794500205632902
295000000.0,22.09,0.0,0.0,0.0,0.592622105730021,-0.14136210573002106,9.808234211460043
300000000.0,22.09,0.0,0.0,0.0,0.59841,-0.15107400582714006,9.82765801165428
305000000.0,22.09,0.0,0.0,0.0,0.59841,-0.14930818815148186,9.824126376302964
310000000.0,22.09,0.0,0.0,0.0,0.59841,-0.13734,9.785278775914488
315000000.0,22.09,0.0,0.0,0.0,0.594780293881503,-0.1445994122369941,9.779098530592485
320000000.0,22.09,0.0,0.0,0.0,0.5921316062156161,-0.15342839378438394,9.820594818646848
325000000.0,22.09,0.0,0.0,0.0,0.6018435063127351,-0.15401701262547013,9.83256298737453
330000000.0,22.09,0.0,0.0,0.0,0.60822,-0.16677,9.809803780770439
335000000.0,22.09,0.0,0.0,0.0,0.5887961609581617,-0.16677,9.783905386986055
340000000.0,22.09,0.0,0.0,0.0,0.5619168264163683,-0.16049158679181588,9.783316826416367
345000000.0,22.09,0.0,0.0,0.0,0.5916411067012111,-0.15323221340242213,9.828246640207267
350000000.0,22.09,0.0,0.0,0.0,0.60135300679833,-0.16088398640333987,9.85708797280668
355000000.0,22.09,0.0,0.0,0.0,0.605375093104551,-0.14715,9.821085279313653
360000000.0,22.09,0.0,0.0,0.0,0.5929163860148638,-0.14715,9.78645596503716
365000000.0,22.09,0.0,0.0,0.0,0.5814387070896871,-0.14715,9.767032242538122
370000000.0,22.09,0.0,0.0,0.0,0.5834987856263879,-0.15225121437361214,9.825303643120836
375000000.0,22.09,0.0,0.0,0.0,0.5714325072839251,-0.16922250728392507,9.85414495629645
380000000.0,22.09,0.0,0.0,0.0,0.5858532221431323,-0.17422559261895593,9.805291185237913
385000000.0,22.09,0.0,0.0,0.0,0.6037073850436738,-0.16225738504367385,9.79038
390000000.0,22.09,0.0,0.0,0.0,0.5842835848494359,-0.14283358484943584,9.799012830301129
395000000.0,22.09,0.0,0.0,0.0,0.5751603230172032,-0.12753,9.831680107672401
400000000.0,22.09,0.0,0.0,0.0,0.59644799223048,-0.13341602330856023,9.83354397669144
405000000.0,22.09,0.0,0.0,0.0,0.590463907866639,-0.15696,9.808136092133362
410000000.0,22.09,0.0,0.0,0.0,0.600175807963758,-0.16049161592751615,9.793126768144969
415000000.0,22.09,0.0,0.0,0.0,0.6032168758173687,-0.17658,9.770956248365263
420000000.0,22.09,0.0,0.0,0.0,0.5834988244739883,-0.1750103918420039,9.822949216315992
425000000.0,22.09,0.0,0.0,0.0,0.6067484917448849,-0.16235547523465474,9.840901508255115
430000000.0,22.09,0.0,0.0,0.0,0.5956631832955318,-0.13871340835223409,9.840999549886595
435000000.0,22.09,0.0,0.0,0.0,0.5800653084493531,-0.14970061689870617,9.79038
440000000.0,22.09,0.0,0.0,0.0,0.5897772085464721,-0.16559279145352793,9.792734417092944
445000000.0,22.09,0.0,0.0,0.0,0.5962517827128179,-0.15696,9.815395543217956
450000000.0,22.09,0.0,0.0,0.0,0.5797710087407101,-0.1559789912592899,9.85806899125929
455000000.0,22.09,0.0,0.0,0.0,0.5886,-0.1480329088378291,9.845708364648683
460000000.0,22.09,0.0,0.0,0.0,0.5886,-0.1561751910650519,9.808430382130105
465000000.0,22.09,0.0,0.0,0.0,0.5872265819358659,-0.14715,9.789006581935867
470000000.0,22.09,0.0,0.0,0.0,0.5683913908708139,-0.14891582738755826,9.773703045645929
475000000.0,22.09,0.0,0.0,0.0,0.5596605092263052,-0.17559898154738982,9.820300509226305
480000000.0,22.09,0.0,0.0,0.0,0.5701572279702724,-0.15813722797027227,9.830404818646848
485000000.0,22.09,0.0,0.0,0.0,0.59841,-0.18521276231782763,9.84835707173837
490000000.0,22.09,0.0,0.0,0.0,0.5986062095176621,-0.14715,9.819025161929352
495000000.0,22.09,0.0,0.0,0.0,0.6080237807704378,-0.14715,9.780668109614782
500000000.0,22.09,0.0,0.0,0.0,0.5886,-0.1471500097119001,9.7903800291357
505000000.0,22.09,0.0,0.0,0.0,0.5886,-0.1568619098090191,9.819515729427058
510000000.0,22.09,0.0,0.0,0.0,0.5693723801877238,-0.1473461900938619,9.848651429718414
515000000.0,22.09,0.0,0.0,0.0,0.5880114200065142,-0.14715,9.839724289996743
520000000.0,22.09,0.0,0.0,0.0,0.5697647797992479,-0.13773238989962389,9.820594779799249
525000000.0,22.09,0.0,0.0,0.0,0.5876190203949903,-0.1466595101974951,9.773212449012524
530000000.0,22.09,0.0,0.0,0.0,0.5886,-0.1655928205892282,9.789202820589228
535000000.0,22.09,0.0,0.0,0.0,0.5886,-0.16677,9.835996551958665
540000000.0,22.09,0.0,0.0,0.0,0.5705495790222959,-0.1487195790222958,9.83943
545000000.0,22.09,0.0,0.0,0.0,0.5868342211719422,-0.1739313317579133,9.794794447070146
550000000.0,22.09,0.0,0.0,0.0,0.5974290106830901,-0.14126395726763957,9.77272197863382
555000000.0,22.09,0.0,0.0,0.0,0.5809481784395818,-0.15480182156041822,9.796952732340628
560000000.0,22.09,0.0,0.0,0.0,0.57879,-0.13969437824534378,9.851986865263969
565000000.0,22.09,0.0,0.0,0.0,0.6043941329233413,-0.16294413292334134,9.850515289025553
570000000.0,22.09,0.0,0.0,0.0,0.5660369446421695,-0.14146016678530166,9.815493555713736
575000000.0,22.09,0.0,0.0,0.0,0.5758470223373703,-0.1456785111686851,9.768307444156575
580000000.0,22.09,0.0,0.0,0.0,0.5705495887341959,-0.1553904112658041,9.777430822531608
585000000.0,22.09,0.0,0.0,0.0,0.5934069340887693,-0.1488176886370769,9.837566179540461
590000000.0,22.09,0.0,0.0,0.0,0.5742773656198736,-0.17128263438012634,9.857284211460042
595000000.0,22.09,0.0,0.0,0.0,0.5848722231143223,-0.1686338884428389,9.811373330657034
600000000.0,22.09,0.0,0.0,0.0,0.5729039766914398,-0.15107397669143977,9.753101930074319
605000000.0,22.09,0.0,0.0,0.0,0.5767299117513991,-0.11615035299440353,9.756829823502798
610000000.0,22.09,0.0,0.0,0.0,0.5864418118485182,-0.13851724739407248,9.829816306636664
615000000.0,22.09,0.0,0.0,0.0,0.6037074238912742,-0.14715,9.879454847782547
620000000.0,22.09,0.0,0.0,0.0,0.5783975518289756,-0.13223877591448777,9.828835103657951
625000000.0,22.09,0.0,0.0,0.0,0.5910525364196254,-0.1569600485595005,9.787927463580376
630000000.0,22.09,0.0,0.0,0.0,0.5911505877630059,-0.15951058776300586,9.78057
635000000.0,22.09,0.0,0.0,0.0,0.5957613123341131,-0.17128262466822625,9.816376561670566
640000000.0,22.09,0.0,0.0,0.0,0.6054732124312321,-0.15539036270630363,9.836683212431232
645000000.0,22.09,0.0,0.0,0.0,0.6012548874716489,-0.1541151125283511,9.83943
650000000.0,22.09,0.0,0.0,0.0,0.59841,-0.14322597474905974,9.81196194949812
655000000.0,22.09,0.0,0.0,0.0,0.5916410872774108,-0.13734,9.786652174554822
660000000.0,22.09,0.0,0.0,0.0,0.5819291871802919,-0.1573524384591244,9.807253251278834
665000000.0,22.09,0.0,0.0,0.0,0.5919354258336542,-0.15362457416634573,9.813237287083174
670000000.0,22.09,0.0,0.0,0.0,0.5919353869860539,-0.15362461301394612,9.797050773972108
675000000.0,22.09,0.0,0.0,0.0,0.6013530262221303,-0.14420697377786973,9.803133026222131
680000000.0,22.09,0.0,0.0,0.0,0.6019415867918159,-0.14361841320818414,9.81
685000000.0,22.09,0.0,0.0,0.0,0.6045903133053031,-0.15951062661060628,9.816180313305303
690000000.0,22.09,0.0,0.0,0.0,0.6021377865975779,-0.1485233597927336,9.813727786597578
695000000.0,22.09,0.0,0.0,0.0,0.59841,-0.1552923404986234,9.786063546001834
700000000.0,22.09,0.0,0.0,0.0,0.5925239864033399,-0.15499797280667973,9.782532027193321
705000000.0,22.09,0.0,0.0,0.0,0.5886,-0.14715,9.807743741081337
710000000.0,22.09,0.0,0.0,0.0,0.5942898137908982,-0.14715,9.825499813790898
715000000.0,22.09,0.0,0.0,0.0,0.5816348583359486,-0.13037485833594858,9.818436572223966
720000000.0,22.09,0.0,0.0,0.0,0.5909544559405445,-0.13420084195540843,9.793519158044592
725000000.0,22.09,0.0,0.0,0.0,0.6028244859177448,-0.14715,9.796756542246767
730000000.0,22.09,0.0,0.0,0.0,0.59841,-0.14715,9.81
735000000.0,22.09,0.0,0.0,0.0,0.5880113714470138,-0.1627479428294794,9.820398628552987
740000000.0,22.09,0.0,0.0,0.0,0.5889924287472244,-0.17147878562638785,9.819417571252776
745000000.0,22.09,0.0,0.0,0.0,0.5934068855292689,-0.15676377105853773,9.804996885529269
750000000.0,22.09,0.0,0.0,0.0,0.5886,-0.15696002913570029,9.79528498543215
755000000.0,22.09,0.0,0.0,0.0,0.5934069146649692,-0.1571561706700617,9.809607658659877
760000000.0,22.09,0.0,0.0,0.0,0.5937011852379118,-0.14715,9.820202370475824
765000000.0,22.09,0.0,0.0,0.0,0.5932107148592072,-0.15176071485920714,9.81
770000000.0,22.09,0.0,0.0,0.0,0.5893847700873477,-0.1659852299126523,9.791949540174695
775000000.0,22.09,0.0,0.0,0.0,0.57879,-0.15450742473277423,9.78841806021378
780000000.0,22.09,0.0,0.0,0.0,0.5917392454516924,-0.12753,9.81
785000000.0,22.09,0.0,0.0,0.0,0.60822,-0.1444032609907326,9.826873260990732
790000000.0,22.09,0.0,0.0,0.0,0.5999795693103956,-0.15028913862079138,9.836879353965594
795000000.0,22.09,0.0,0.0,0.0,0.5926221154419211,-0.13959634632576345,9.807743653674237
800000000.0,22.09,0.0,0.0,0.0,0.5944859844609598,-0.16480803107808029,9.79430401553904
805000000.0,22.09,0.0,0.0,0.0,0.5886,-0.16892816872768168,9.815493662544638
810000000.0,22.09,0.0,0.0,0.0,0.5886,-0.16068781573327814,9.843157815733278
815000000.0,22.09,0.0,0.0,0.0,0.5922297158303972,-0.16314028416960283,9.83472113667841
820000000.0,22.09,0.0,0.0,0.0,0.5878151522174515,-0.15342838407248383,9.802936768144969
825000000.0,22.09,0.0,0.0,0.0,0.5724135160246352,-0.14715,9.793813516024636
830000000.0,22.09,0.0,0.0,0.0,0.5821254161217542,-0.14715,9.803525416121754
835000000.0,22.09,0.0,0.0,0.0,0.5950746324377463,-0.14391268378112684,9.822949264875493
840000000.0,22.09,0.0,0.0,0.0,0.60822,-0.14989686526396864,9.836683134736031
845000000.0,22.09,0.0,0.0,0.0,0.6021377671737776,-0.16137441793444418,9.81
850000000.0,22.09,0.0,0.0,0.0,0.5886,-0.1363590495306905,9.80705698348977
855000000.0,22.09,0.0,0.0,0.0,0.5886,-0.15696,9.80303491660735
860000000.0,22.09,0.0,0.0,0.0,0.5886,-0.15421318329553182,9.818240450113406
865000000.0,22.09,0.0,0.0,0.0,0.5938974336031744,-0.14979871680158716,9.844727433603174
870000000.0,22.09,0.0,0.0,0.0,0.6056693831012938,-0.14930814930388148,9.843746298607764
875000000.0,22.09,0.0,0.0,0.0,0.59841,-0.13243503399165035,9.795284966008351
880000000.0,22.09,0.0,0.0,0.0,0.5960555829070558,-0.14950441709294418,9.785278834185888
885000000.0,22.09,0.0,0.0,0.0,0.5908563171900632,-0.15470368280993682,9.80695895157019
890000000.0,22.09,0.0,0.0,0.0,0.5962517827128179,-0.14499178271281782,9.831778217287182
895000000.0,22.09,0.0,0.0,0.0,0.5844797652313977,-0.13734,9.835309765231397
900000000.0,22.09,0.0,0.0,0.0,0.5729040349628404,-0.13930201748142015,9.81392394755574
905000000.0,22.09,0.0,0.0,0.0,0.5886,-0.15087783515707837,9.788516082421461
910000000.0,22.09,0.0,0.0,0.0,0.5921316353513164,-0.16853581767565817,9.785867453026976
915000000.0,22.09,0.0,0.0,0.0,0.6032168466816684,-0.1749122822272228,9.818338588863886
920000000.0,22.09,0.0,0.0,0.0,0.5803596178698962,-0.16363076426020765,9.85905
925000000.0,22.09,0.0,0.0,0.0,0.5886,-0.14862151796701517,9.851692410164924
930000000.0,22.09,0.0,0.0,0.0,0.5872265819358659,-0.15146632774346327,9.804506327743464
935000000.0,22.09,0.0,0.0,0.0,0.57879,-0.12154595448375954,9.772035318161253
940000000.0,22.09,0.0,0.0,0.0,0.5799672182583722,-0.1459727817416278,9.793519400842095
945000000.0,22.09,0.0,0.0,0.0,0.5886,-0.14057735506647354,9.885242644933525
950000000.0,22.09,0.0,0.0,0.0,0.5856569446421694,-0.16382694464216946,9.853163889284339
955000000.0,22.09,0.0,0.0,0.0,0.5618187556491876,-0.1355741629005416,9.799307081450271
960000000.0,22.09,0.0,0.0,0.0,0.5893848186468482,-0.12085927458739275,9.791164818646848
965000000.0,22.09,0.0,0.0,0.0,0.5977232812560328,-0.15696,9.802936874975869
970000000.0,22.09,0.0,0.0,0.0,0.5886,-0.1563713811589138,9.83943
975000000.0,22.09,0.0,0.0,0.0,0.5881094810617948,-0.14813103787641038,9.837467924247179
980000000.0,22.09,0.0,0.0,0.0,0.5791824190353242,-0.1663775809646758,9.79822790482338
985000000.0,22.09,0.0,0.0,0.0,0.5888943191324432,-0.1566656808675568,9.752317276529773
990000000.0,22.09,0.0,0.0,0.0,0.5982137807704379,-0.1469537807704378,9.791361096147812
995000000.0,22.09,0.0,0.0,0.0,0.5887962386533624,-0.13763435798004356,9.839135642019956
1000000000.0,22.09,0.0,0.0,0.0,0.6082199611523996,-0.1667699417285994,9.81
1005000000.0,22.09,0.0,0.0,0.0,0.5887961609581617,-0.1376342414372424,9.81
1010000000.0,22.09,0.0,0.0,0.0,0.5982138196180382,-0.1469538196180382,9.761930901909809
1015000000.0,22.09,0.0,0.0,0.0,0.5888942802848428,-0.1661814394303144,9.79901287886063
1020000000.0,22.09,0.0,0.0,0.0,0.5886,-0.13851714056317138,9.819025239624553
1025000000.0,22.09,0.0,0.0,0.0,0.5886,-0.1652985597281856,9.83844903981879
1030000000.0,22.09,0.0,0.0,0.0,0.5886,-0.1483271599869716,9.83943
1035000000.0,22.09,0.0,0.0,0.0,0.5886,-0.15627332010363318,9.802936719585468
1040000000.0,22.09,0.0,0.0,0.0,0.5795747797992479,-0.1479347797992478,9.79116477979925
1045000000.0,22.09,0.0,0.0,0.0,0.5966442405957424,-0.15607712029787119,9.799307120297872
1050000000.0,22.09,0.0,0.0,0.0,0.5895809796050098,-0.16578902039499022,9.853164122369941
1055000000.0,22.09,0.0,0.0,0.0,0.6060618409842184,-0.1318463180315632,9.815395397539454
1060000000.0,22.09,0.0,0.0,0.0,0.60822,-0.13616282058922818,9.81863282058923
1065000000.0,22.09,0.0,0.0,0.0,0.5826158379409584,-0.13734,9.802740558627306
1070000000.0,22.09,0.0,0.0,0.0,0.6040998623503986,-0.1457766207834662,9.80019
1075000000.0,22.09,0.0,0.0,0.0,0.5998814791194148,-0.1554885208805852,9.80019
1080000000.0,22.09,0.0,0.0,0.0,0.5901695790222958,-0.1652004209777042,9.824911262933114
1085000000.0,22.09,0.0,0.0,0.0,0.5804576789251769,-0.14234303677553037,9.797050715700708
1090000000.0,22.09,0.0,0.0,0.0,0.5868342211719422,-0.15342844234388442,9.806468442343885
1095000000.0,22.09,0.0,0.0,0.0,0.5886,-0.15696,9.81
1100000000.0,22.09,0.0,0.0,0.0,0.5807519786338198,-0.13341593590145936,9.80215197863382
1105000000.0,22.09,0.0,0.0,0.0,0.5865399214632993,-0.15077976438989762,9.8079399214633
1110000000.0,22.09,0.0,0.0,0.0,0.5962518215604182,-0.1646118215604182,9.81765182156042
1115000000.0,22.09,0.0,0.0,0.0,0.5908562783424628,-0.15921627834246277,9.812256278342463
1120000000.0,22.09,0.0,0.0,0.0,0.5811443782453438,-0.15696,9.787633134736032
1125000000.0,22.09,0.0,0.0,0.0,0.6008625655553257,-0.14960247814822478,9.802642565555326
1130000000.0,22.09,0.0,0.0,0.0,0.5937011561022115,-0.16166884389778843,9.817259421948895
1135000000.0,22.09,0.0,0.0,0.0,0.5957613220460132,-0.15960867795398678,9.812648677953987
1140000000.0,22.09,0.0,0.0,0.0,0.5913467778568677,-0.14989677785686778,9.795873555713737
1145000000.0,22.09,0.0,0.0,0.0,0.6025302444805024,-0.1541151222402512,9.79038
1150000000.0,22.09,0.0,0.0,0.0,0.5944859553252596,-0.15009297766262977,9.817848089349482
1155000000.0,22.09,0.0,0.0,0.0,0.5886,-0.14715,9.83638892243449
1160000000.0,22.09,0.0,0.0,0.0,0.5819291774683918,-0.14047917746839178,9.819417532405176
1165000000.0,22.09,0.0,0.0,0.0,0.57879,-0.13734,9.796854554742547
1170000000.0,22.09,0.0,0.0,0.0,0.5917392454516924,-0.15028924545169245,9.77095613182246
1175000000.0,22.09,0.0,0.0,0.0,0.59841,-0.15696,9.77370304564593
1180000000.0,22.09,0.0,0.0,0.0,0.59841,-0.15068157707991578,9.82451896044059
1185000000.0,22.09,0.0,0.0,0.0,0.5860493539655935,-0.15333032301720323,9.836879353965594
1190000000.0,22.09,0.0,0.0,0.0,0.57879,-0.1387133306570333,9.805291107542711
1195000000.0,22.09,0.0,0.0,0.0,0.5847741232114413,-0.1454823696343237,9.772427630365677
1200000000.0,22.09,0.0,0.0,0.0,0.6003720466171205,-0.15107397669143977,9.790380116542801
1205000000.0,22.09,0.0,0.0,0.0,0.60822,-0.14136207659432076,9.821575846811358
1210000000.0,22.09,0.0,0.0,0.0,0.5911505294916053,-0.14871964700559645,9.840999647005596
1215000000.0,22.09,0.0,0.0,0.0,0.5843817235999172,-0.15696,9.815689658400498
1220000000.0,22.09,0.0,0.0,0.0,0.5995872473940724,-0.16245362369703623,9.76291188151482
1225000000.0,22.09,0.0,0.0,0.0,0.5920334286175343,-0.15597895241168952,9.779098666559086
1230000000.0,22.09,0.0,0.0,0.0,0.5893848477825485,-0.13655515221745151,9.836487119456372
1235000000.0,22.09,0.0,0.0,0.0,0.5932106760116068,-0.1431279719651797,9.853850676011607
1240000000.0,22.09,0.0,0.0,0.0,0.5834987759144877,-0.15696,9.80332898323039
1245000000.0,22.09,0.0,0.0,0.0,0.5737868758173688,-0.15195687581736875,9.750943751634736
1250000000.0,22.09,0.0,0.0,0.0,0.5787900485595006,-0.16186507283925072,9.775665169958252
1255000000.0,22.09,0.0,0.0,0.0,0.5934069243768693,-0.1669661512462615,9.843648470638085
1260000000.0,22.09,0.0,0.0,0.0,0.59841,-0.16637764894797646,9.873961175526011
1265000000.0,22.09,0.0,0.0,0.0,0.6030207245711072,-0.1489156525733565,9.822752754288928
1270000000.0,22.09,0.0,0.0,0.0,0.5946821259953212,-0.12674524933645248,9.761734750663546
1275000000.0,22.09,0.0,0.0,0.0,0.57879,-0.15058357429603575,9.764383574296035
1280000000.0,22.09,0.0,0.0,0.0,0.57879,-0.16245357513753575,9.815101398899714
1285000000.0,22.09,0.0,0.0,0.0,0.57879,-0.15696,9.863268324959583
1290000000.0,22.09,0.0,0.0,0.0,0.57879,-0.15696,9.848258874716489
1295000000.0,22.09,0.0,0.0,0.0,0.5828121251538213,-0.16500425030764249,9.795677249077073
1300000000.0,22.09,0.0,0.0,0.0,0.5807519494981195,-0.16480792424717924,9.77272207575282
1305000000.0,22.09,0.0,0.0,0.0,0.56898,-0.14715,9.809509626740297
1310000000.0,22.09,0.0,0.0,0.0,0.5652521745548218,-0.14715,9.843157825445179
1315000000.0,22.09,0.0,0.0,0.0,0.5664294510845945,-0.14352027445770274,9.834721097830812
1320000000.0,22.09,0.0,0.0,0.0,0.5823216256394163,-0.1444032512788325,9.802936748721168
1325000000.0,22.09,0.0,0.0,0.0,0.5920335257365352,-0.15009294852692948,9.786946474263466
1330000000.0,22.09,0.0,0.0,0.0,0.59841,-0.14067542583365425,9.80391798083558
1335000000.0,22.09,0.0,0.0,0.0,0.5951726740692267,-0.15038732593077325,9.842765348138453
1340000000.0,22.09,0.0,0.0,0.0,0.5886,-0.16009922602789226,9.823341547944215
1345000000.0,22.09,0.0,0.0,0.0,0.5855588738749887,-0.17285225225002251,9.81
1350000000.0,22.09,0.0,0.0,0.0,0.5817330262221303,-0.17461789511147896,9.81
1355000000.0,22.09,0.0,0.0,0.0,0.5886,-0.14715,9.818534778957748
1360000000.0,22.09,0.0,0.0,0.0,0.5886,-0.14715,9.836683173583632
1365000000.0,22.09,0.0,0.0,0.0,0.5938974530269745,-0.14715,9.826971273486514
1370000000.0,22.09,0.0,0.0,0.0,0.5980174935575749,-0.14715,9.809607493557575
1375000000.0,22.09,0.0,0.0,0.0,0.5738850534154506,-0.14960252670772525,9.783022526707725
1380000000.0,22.09,0.0,0.0,0.0,0.5909544268048442,-0.16166885360968852,9.802152134024222
1385000000.0,22.09,0.0,0.0,0.0,0.5916410192941102,-0.17206734619607345,9.841686326901963
1390000000.0,22.09,0.0,0.0,0.0,0.56898,-0.15264354600183544,9.836290638005506
1395000000.0,22.09,0.0,0.0,0.0,0.5731002541924026,-0.13940012709620125,9.794500254192403
1400000000.0,22.09,0.0,0.0,0.0,0.5905620271933203,-0.14715,9.800189864033399
1405000000.0,22.09,0.0,0.0,0.0,0.6002739272904393,-0.14715,9.772133563742635
1410000000.0,22.09,0.0,0.0,0.0,0.60822,-0.14538417261244171,9.823341654775117
1415000000.0,22.09,0.0,0.0,0.0,0.6032168175459681,-0.14234318245403182,9.837762272515322
1420000000.0,22.09,0.0,0.0,0.0,0.5772203724182038,-0.16520037241820373,9.824911117254612
1425000000.0,22.09,0.0,0.0,0.0,0.5733945830367458,-0.15696,9.79430388928434
1430000000.0,22.09,0.0,0.0,0.0,0.5970365722239657,-0.15696,9.770563994432239
1435000000.0,22.09,0.0,0.0,0.0,0.5898753278731533,-0.15568467212684672,9.827069344253694
1440000000.0,22.09,0.0,0.0,0.0,0.5948783160891832,-0.14950445594054457,9.812354455940545
1445000000.0,22.09,0.0,0.0,0.0,0.5668217438652174,-0.16677,9.825303487730435
1450000000.0,22.09,0.0,0.0,0.0,0.5532841126580412,-0.16284588734195887,9.791361028164511
1455000000.0,22.09,0.0,0.0,0.0,0.5886,-0.13017878478488784,9.802838784784889
1460000000.0,22.09,0.0,0.0,0.0,0.5886,-0.15696,9.828835171641252
1465000000.0,22.09,0.0,0.0,0.0,0.5872265430882655,-0.15696,9.81981
1470000000.0,22.09,0.0,0.0,0.0,0.5701572571059726,-0.15696,9.818044114341042
1475000000.0,22.09,0.0,0.0,0.0,0.5881094713498948,-0.1564694713498947,9.79038
1480000000.0,22.09,0.0,0.0,0.0,0.5795748574944486,-0.14715,9.791557286241673
1485000000.0,22.09,0.0,0.0,0.0,0.59841,-0.1474443288443433,9.820398657688687
1490000000.0,22.09,0.0,0.0,0.0,0.5982137710585377,-0.1567637710585377,9.839822457882924
1495000000.0,22.09,0.0,0.0,0.0,0.5885018709614187,-0.14724812903858128,9.858559354807094
1500000000.0,22.09,0.0,0.0,0.0,0.5787900582714006,-0.1569599708642997,9.8099999125929
1505000000.0,22.09,0.0,0.0,0.0,0.5982138584656386,-0.14724807076718072,9.780864212301543
1510000000.0,22.09,0.0,0.0,0.0,0.5695685120101852,-0.14715,9.78057
1515000000.0,22.09,0.0,0.0,0.0,0.5594642705729428,-0.1661814588541146,9.837664376562344
1520000000.0,22.09,0.0,0.0,0.0,0.5968405180967051,-0.1573523704758237,9.83943
1525000000.0,22.09,0.0,0.0,0.0,0.5797709407574094,-0.15696,9.811471411136115
1530000000.0,22.09,0.0,0.0,0.0,0.5880114297184144,-0.13851714056317138,9.791557140563173
1535000000.0,22.09,0.0,0.0,0.0,0.5977233298155333,-0.15558665963106658,9.79038
1540000000.0,22.09,0.0,0.0,0.0,0.6074352299126523,-0.1479347700873477,9.808430459825304
1545000000.0,22.09,0.0,0.0,0.0,0.5814386099706861,-0.1650042600195426,9.818927130009772
1550000000.0,22.09,0.0,0.0,0.0,0.5699609698931097,-0.14028290967932908,9.81981
1555000000.0,22.09,0.0,0.0,0.0,0.5864418604080186,-0.1548018604080186,9.793617209387973
1560000000.0,22.09,0.0,0.0,0.0,0.5799671696988717,-0.1396943393977434,9.79038
1565000000.0,22.09,0.0,0.0,0.0,0.5958594607964947,-0.1458747303982473,9.798914730398248
1570000000.0,22.09,0.0,0.0,0.0,0.5815367390092674,-0.17245989148609892,9.8254998914861
1575000000.0,22.09,0.0,0.0,0.0,0.5871285305924854,-0.15156440822254408,9.81294293881503
1580000000.0,22.09,0.0,0.0,0.0,0.5803595693103957,-0.1389095693103957,9.801759569310397
1585000000.0,22.09,0.0,0.0,0.0,0.5869323307867234,-0.14548233078672332,9.808332330786724
1590000000.0,22.09,0.0,0.0,0.0,0.5886,-0.1310615382323154,9.81
1595000000.0,22.09,0.0,0.0,0.0,0.5727077380380774,-0.15136839294288393,9.81
1600000000.0,22.09,0.0,0.0,0.0,0.5925240932342409,-0.1491119689219197,9.81
1605000000.0,22.09,0.0,0.0,0.0,0.5751602064744021,-0.16264986235039863,9.81
1610000000.0,22.09,0.0,0.0,0.0,0.5995873250892733,-0.14381450618304506,9.802348168727683
1615000000.0,22.09,0.0,0.0,0.0,0.5931125372611253,-0.1297862686305627,9.815297462738876
1620000000.0,22.09,0.0,0.0,0.0,0.5886,-0.13498563146655632,9.81981
1625000000.0,22.09,0.0,0.0,0.0,0.6033150631273506,-0.14469753156367532,9.812452468436325
1630000000.0,22.09,0.0,0.0,0.0,0.5937011366784114,-0.16166886332158864,9.795481136678411
1635000000.0,22.09,0.0,0.0,0.0,0.5957613317579133,-0.14528600472626005,9.797541331757914
1640000000.0,22.09,0.0,0.0,0.0,0.5842835362899353,-0.14440323185503232,9.828442927420129
1645000000.0,22.09,0.0,0.0,0.0,0.5927202639043027,-0.16108026390430263,9.832464868047849
1650000000.0,22.09,0.0,0.0,0.0,0.59841,-0.15990296795072967,9.81588593590146
1655000000.0,22.09,0.0,0.0,0.0,0.5848721357072214,-0.15019106785361067,9.803231067853611
1660000000.0,22.09,0.0,0.0,0.0,0.5921316644870167,-0.14715,9.806860832243508
1665000000.0,22.09,0.0,0.0,0.0,0.6049827323406273,-0.1537227323406273,9.823145464681255
1670000000.0,22.09,0.0,0.0,0.0,0.5887961026867611,-0.14401073512450735,9.849043897313239
1675000000.0,22.09,0.0,0.0,0.0,0.57879,-0.15009306506973064,9.83354386986054
1680000000.0,22.09,0.0,0.0,0.0,0.5913468652639686,-0.16323843263198431,9.794696269472063
1685000000.0,22.09,0.0,0.0,0.0,0.5798690018126901,-0.14822900181269,9.78057
1690000000.0,22.09,0.0,0.0,0.0,0.5811444656524447,-0.14342223282622232,9.798816698478667
1695000000.0,22.09,0.0,0.0,0.0,0.5826158670766587,-0.14715,9.827952398770025
1700000000.0,22.09,0.0,0.0,0.0,0.57879,-0.15892206604092066,9.82765793395908
1705000000.0,22.09,0.0,0.0,0.0,0.5730020668824207,-0.16098206688242067,9.808234133764842
1710000000.0,22.09,0.0,0.0,0.0,0.5746698332146983,-0.15127016678530167,9.788810333570604
1715000000.0,22.09,0.0,0.0,0.0,0.5843817333118173,-0.14715,9.797345199935453
1720000000.0,22.09,0.0,0.0,0.0,0.5831063665910637,-0.16363090022680898,9.820987266817873
1725000000.0,22.09,0.0,0.0,0.0,0.5895810670121107,-0.16578893298788933,9.81882893298789
1730000000.0,22.09,0.0,0.0,0.0,0.5772202655873027,-0.16225743360317432,9.81
1735000000.0,22.09,0.0,0.0,0.0,0.59036600220176,-0.15637133259941333,9.804800666299707
1740000000.0,22.09,0.0,0.0,0.0,0.6129287662025877,-0.14204876620258766,9.805291233797412
1745000000.0,22.09,0.0,0.0,0.0,0.6032168661054687,-0.14234313389453135,9.81
1750000000.0,22.09,0.0,0.0,0.0,0.6033150339916503,-0.15205503399165032,9.819810067983301
1755000000.0,22.09,0.0,0.0,0.0,0.5986061318224614,-0.15696,9.805585329556154
1760000000.0,22.09,0.0,0.0,0.0,0.5791823316282233,-0.16166883418588834,9.785278834185888
1765000000.0,22.09,0.0,0.0,0.0,0.5874229371320294,-0.16677,9.79038
1770000000.0,22.09,0.0,0.0,0.0,0.5991947312397473,-0.14871946247949464,9.812943171900633
1775000000.0,22.09,0.0,0.0,0.0,0.5841854655227546,-0.14518813790898139,9.835015465522755
1780000000.0,22.09,0.0,0.0,0.0,0.5831064345743644,-0.15813713085127132,9.820987130851272
1785000000.0,22.09,0.0,0.0,0.0,0.5843816653285167,-0.1555866693429667,9.805781665328517
1790000000.0,22.09,0.0,0.0,0.0,0.57879,-0.1585295304627953,9.791949530462796
1795000000.0,22.09,0.0,0.0,0.0,0.57879,-0.1551942697314427,9.796658539462886
1800000000.0,22.09,0.0,0.0,0.0,0.5827140349628404,-0.16284596503715965,9.81588596503716
1805000000.0,22.09,0.0,0.0,0.0,0.5924259350599593,-0.16078593505995933,9.817651870119919
1810000000.0,22.09,0.0,0.0,0.0,0.5946821648429217,-0.16304216484292164,9.818436494528765
1815000000.0,22.09,0.0,0.0,0.0,0.5813405294916053,-0.14970052949160528,9.78567105898321
1820000000.0,22.09,0.0,0.0,0.0,0.56898,-0.15146654140526541,9.782139812107898
1825000000.0,22.09,0.0,0.0,0.0,0.5827141417937415,-0.16971292910312927,9.82667707089687
1830000000.0,22.09,0.0,0.0,0.0,0.60822,-0.15362456445444564,9.842765435545555
1835000000.0,22.09,0.0,0.0,0.0,0.5985079930719799,-0.14715,9.826578650501286
1840000000.0,22.09,0.0,0.0,0.0,0.57879,-0.15656770721937707,9.771152292780624
1845000000.0,22.09,0.0,0.0,0.0,0.57879,-0.17049772832617727,9.769386815021468
1850000000.0,22.09,0.0,0.0,0.0,0.5876191078020911,-0.15696,9.81588607186806
1855000000.0,22.09,0.0,0.0,0.0,0.5968402558754026,-0.15411506396885064,9.838154808093448
1860000000.0,22.09,0.0,0.0,0.0,0.5744736722565368,-0.14989683612826837,9.845315819358659
1865000000.0,22.09,0.0,0.0,0.0,0.580653791323838,-0.1622574724507747,9.80205379132384
1870000000.0,22.09,0.0,0.0,0.0,0.5719231816125319,-0.17402936367749364,9.785671272645013
1875000000.0,22.09,0.0,0.0,0.0,0.6033149271607493,-0.16677,9.80509507283925
1880000000.0,22.09,0.0,0.0,0.0,0.5838911269665112,-0.16441556348325564,9.831582182583722
1885000000.0,22.09,0.0,0.0,0.0,0.5712363366138634,-0.15470366338613661,9.85532198031682
1890000000.0,22.09,0.0,0.0,0.0,0.5831064734219648,-0.15146647342196473,9.805683526578036
1895000000.0,22.09,0.0,0.0,0.0,0.5922295895756959,-0.16264972638379727,9.79038
1900000000.0,22.09,0.0,0.0,0.0,0.5709420369052204,-0.14911203690522037,9.79430407381044
1905000000.0,22.09,0.0,0.0,0.0,0.5825178740046788,-0.15323212599532124,9.81186393700234
1910000000.0,22.09,0.0,0.0,0.0,0.5966441629005417,-0.13910583709945837,9.818044162900541
1915000000.0,22.09,0.0,0.0,0.0,0.5869322628034226,-0.15048547439315474,9.804996788410268
1920000000.0,22.09,0.0,0.0,0.0,0.5803596372936964,-0.16520036270630362,9.779000362706304
1925000000.0,22.09,0.0,0.0,0.0,0.5886,-0.15990307478163074,9.77958922434489
1930000000.0,22.09,0.0,0.0,0.0,0.5858531250241312,-0.17383312502413123,9.830993437487935
1935000000.0,22.09,0.0,0.0,0.0,0.5702553375850534,-0.15823533758505337,9.834328649659787
1940000000.0,22.09,0.0,0.0,0.0,0.5811444753643448,-0.16677,9.80019
1945000000.0,22.09,0.0,0.0,0.0,0.5973308622207086,-0.16461172444141725,9.79911086222071
1950000000.0,22.09,0.0,0.0,0.0,0.5895810378764104,-0.14715,9.792342075752822
1955000000.0,22.09,0.0,0.0,0.0,0.5975270620264707,-0.14891587594705877,9.81
1960000000.0,22.09,0.0,0.0,0.0,0.5878151619293517,-0.16677,9.812354514211945
1965000000.0,22.09,0.0,0.0,0.0,0.5781032618322326,-0.16539652366446525,9.83668304732893
1970000000.0,22.09,0.0,0.0,0.0,0.5707459147946592,-0.14715,9.800778638264887
1975000000.0,22.09,0.0,0.0,0.0,0.59841,-0.14813107672401077,9.809509461637996
1980000000.0,22.09,0.0,0.0,0.0,0.59841,-0.16637756154087563,9.80019
1985000000.0,22.09,0.0,0.0,0.0,0.59841,-0.15725433855624338,9.799601322887513
1990000000.0,22.09,0.0,0.0,0.0,0.5982137613466376,-0.16618128403991284,9.78135495461345
1995000000.0,22.09,0.0,0.0,0.0,0.5884037224990373,-0.13753627750096276,9.81981
2000000000.0,22.09,0.0,0.0,0.0,0.5689800776952009,-0.15696011654280115,9.8198098834572
2005000000.0,22.09,0.0,0.0,0.0,0.5884038778894388,-0.18609581683415816,9.790674183165843
2010000000.0,22.09,0.0,0.0,0.0,0.5789861609581617,-0.1767761609581616,9.780766160958162
2015000000.0,22.09,0.0,0.0,0.0,0.5883057391389575,-0.12900130430521306,9.78057
2020000000.0,22.09,0.0,0.0,0.0,0.5791823607639236,-0.16520055694430558,9.827658196180382
2025000000.0,22.09,0.0,0.0,0.0,0.5881095393331954,-0.12949184266721842,9.838939539333195
2030000000.0,22.09,0.0,0.0,0.0,0.5886,-0.1459728788606288,9.811765681709057
2035000000.0,22.09,0.0,0.0,0.0,0.6159700185823003,-0.14715,9.782629981417701
2040000000.0,22.09,0.0,0.0,0.0,0.5999795207508952,-0.1652004792491048,9.78057
2045000000.0,22.09,0.0,0.0,0.0,0.5894828602783286,-0.15784286027832858,9.816278558886687
2050000000.0,22.09,0.0,0.0,0.0,0.5974290398187904,-0.13047288054362882,9.855126159275162
2055000000.0,22.09,0.0,0.0,0.0,0.5809481201681812,-0.1537228197477282,9.780471540756814
2060000000.0,22.09,0.0,0.0,0.0,0.5874228400130284,-0.1483271599869716,9.788025680026058
2065000000.0,22.09,0.0,0.0,0.0,0.5800652598898526,-0.15568474011014738,9.781845259889854
2070000000.0,22.09,0.0,0.0,0.0,0.5872266402072664,-0.14008671958546717,9.8058799206218
2075000000.0,22.09,0.0,0.0,0.0,0.5886,-0.1706941612175416,9.818338540304385
2080000000.0,22.09,0.0,0.0,0.0,0.5968404404015044,-0.15185867879548678,9.811569559598496
2085000000.0,22.09,0.0,0.0,0.0,0.5821253190027532,-0.14715,9.793715319002754
2090000000.0,22.09,0.0,0.0,0.0,0.5627015188085153,-0.16323848119148482,9.806468481191486
2095000000.0,22.09,0.0,0.0,0.0,0.5909545627714456,-0.15087771861427718,9.825892281385723
2100000000.0,22.09,0.0,0.0,0.0,0.5905619592100196,-0.16284608157996083,9.81392391842004
2105000000.0,22.09,0.0,0.0,0.0,0.5886,-0.1512701182258012,9.802250059112902
2110000000.0,22.09,0.0,0.0,0.0,0.5886,-0.1548018409842184,9.792538159015782
2115000000.0,22.09,0.0,0.0,0.0,0.5734925178373252,-0.14185251783732516,9.813041223244012
2120000000.0,22.09,0.0,0.0,0.0,0.5764356411784565,-0.14479564117845642,9.81981
2125000000.0,22.09,0.0,0.0,0.0,0.57879,-0.16186508255115084,9.80509491744885
2130000000.0,22.09,0.0,0.0,0.0,0.5933088827453888,-0.16677,9.807449441372695
2135000000.0,22.09,0.0,0.0,0.0,0.5912486585301866,-0.15960865853018658,9.824322682939627
2140000000.0,22.09,0.0,0.0,0.0,0.5956632415669324,-0.14989675843306757,9.808430275299203
2145000000.0,22.09,0.0,0.0,0.0,0.5775145750078458,-0.12625457500784576,9.80019
2150000000.0,22.09,0.0,0.0,0.0,0.56898,-0.1589222505670225,9.80019
2155000000.0,22.09,0.0,0.0,0.0,0.5825178837165789,-0.1495042325668423,9.80019
2160000000.0,22.09,0.0,0.0,0.0,0.5886,-0.14401084195540842,9.820202525866225
2165000000.0,22.09,0.0,0.0,0.0,0.5820272579474726,-0.16686822615758226,9.82962
2170000000.0,22.09,0.0,0.0,0.0,0.57879,-0.16363071570070714,9.803721431401415
2175000000.0,22.09,0.0,0.0,0.0,0.57879,-0.15058345775323456,9.777626915506469
2180000000.0,22.09,0.0,0.0,0.0,0.5850684423438844,-0.14715,9.78331688468777
2185000000.0,22.09,0.0,0.0,0.0,0.5824196575589966,-0.13478931511799316,9.802740684882007
2190000000.0,22.09,0.0,0.0,0.0,0.5970367276143673,-0.13969448507624485,9.840411212690611
2195000000.0,22.09,0.0,0.0,0.0,0.60822,-0.15313414263524142,9.835113429459035
2200000000.0,22.09,0.0,0.0,0.0,0.5964479145352791,-0.14518791453527913,9.81392395726764
2205000000.0,22.09,0.0,0.0,0.0,0.5943879428294794,-0.14891588565895886,9.792636171511562
2210000000.0,22.09,0.0,0.0,0.0,0.5813404712202047,-0.15696,9.797639528779795
2215000000.0,22.09,0.0,0.0,0.0,0.56898,-0.15136825697628256,9.81
2220000000.0,22.09,0.0,0.0,0.0,0.5744736431208365,-0.14715,9.815493643120837
2225000000.0,22.09,0.0,0.0,0.0,0.5841855432179555,-0.1633366296538663,9.814414456782044
2230000000.0,22.09,0.0,0.0,0.0,0.5886,-0.15539022673970226,9.783512783424628
2235000000.0,22.09,0.0,0.0,0.0,0.5886,-0.14253934341219343,9.786946717060967
2240000000.0,22.09,0.0,0.0,0.0,0.5886,-0.14715,9.81
2245000000.0,22.09,0.0,0.0,0.0,0.5936031436064314,-0.1621594308192943,9.81
2250000000.0,22.09,0.0,0.0,0.0,0.5885999125928991,-0.16186486888934867,9.81
2255000000.0,22.09,0.0,0.0,0.0,0.57879,-0.14234305619933055,9.785965280996653
2260000000.0,22.09,0.0,0.0,0.0,0.5929165316933653,-0.15146653169336532,9.765658843897787
2265000000.0,22.09,0.0,0.0,0.0,0.5989985120101852,-0.16677,9.803035207964351
2270000000.0,22.09,0.0,0.0,0.0,0.5886,-0.16677,9.834917355907974
2275000000.0,22.09,0.0,0.0,0.0,0.5974290883782909,-0.16235545581085456,9.834034544189146
2280000000.0,22.09,0.0,0.0,0.0,0.5952706671412067,-0.15696,9.813531334282414
2285000000.0,22.09,0.0,0.0,0.0,0.57879,-0.15274165561661654,9.789006688766767
2290000000.0,22.09,0.0,0.0,0.0,0.5829102444805024,-0.14302975551949756,9.804310244480503
2295000000.0,22.09,0.0,0.0,0.0,0.5926221445776214,-0.14538428915524287,9.814022144577622
2300000000.0,22.09,0.0,0.0,0.0,0.5944859553252596,-0.16480808934948088,9.81588595532526
2305000000.0,22.09,0.0,0.0,0.0,0.5962518895437189,-0.1689281104562811,9.81
2310000000.0,22.09,0.0,0.0,0.0,0.5970364653930647,-0.14577646539306466,9.802544310262043
2315000000.0,22.09,0.0,0.0,0.0,0.57879,-0.13115974496609745,9.794009744966099
2320000000.0,22.09,0.0,0.0,0.0,0.585853290126433,-0.14087164506321645,9.803721645063217
2325000000.0,22.09,0.0,0.0,0.0,0.59841,-0.1540170903206709,9.81
2330000000.0,22.09,0.0,0.0,0.0,0.59841,-0.16343455474254553,9.823341781029818
2335000000.0,22.09,0.0,0.0,0.0,0.5854606185817062,-0.15048530929085308,9.82981592787256
2340000000.0,22.09,0.0,0.0,0.0,0.565448490903385,-0.14047924545169244,9.787240754548309
2345000000.0,22.09,0.0,0.0,0.0,0.584872291097623,-0.15019114554881147,9.786652291097624
2350000000.0,22.09,0.0,0.0,0.0,0.5925239087081391,-0.15696,9.80313304564593
2355000000.0,22.09,0.0,0.0,0.0,0.5816349457430495,-0.15411505425695055,9.821379782972198
2360000000.0,22.09,0.0,0.0,0.0,0.5886,-0.15539053752050538,9.830012079118822
2365000000.0,22.09,0.0,0.0,0.0,0.5833025081254251,-0.1686337621881376,9.775272508125425
2370000000.0,22.09,0.0,0.0,0.0,0.574081292068813,-0.14970064603440647,9.776253876206438
2375000000.0,22.09,0.0,0.0,0.0,0.5886,-0.15696,9.824715092263052
2380000000.0,22.09,0.0,0.0,0.0,0.5791822150854222,-0.15460555377135554,9.841784446228644
2385000000.0,22.09,0.0,0.0,0.0,0.5538726926515269,-0.14715,9.837958268371183
2390000000.0,22.09,0.0,0.0,0.0,0.573296492845765,-0.14715,9.798031753577119
2395000000.0,22.09,0.0,0.0,0.0,0.5906601465200014,-0.14715,9.786259706959997
2400000000.0,22.09,0.0,0.0,0.0,0.6003720466171205,-0.14911204661712046,9.788418419554084
2405000000.0,22.09,0.0,0.0,0.0,0.6044921065715211,-0.15696,9.853458159857281
2410000000.0,22.09,0.0,0.0,0.0,0.5833024595659246,-0.15342830637728305,9.822556612754566
2415000000.0,22.09,0.0,0.0,0.0,0.5641732407254324,-0.13734,9.782041265457613
2420000000.0,22.09,0.0,0.0,0.0,0.5886,-0.14047929401119294,9.749178235027982
2425000000.0,22.09,0.0,0.0,0.0,0.5886,-0.15696,9.794794641308147
2430000000.0,22.09,0.0,0.0,0.0,0.5886,-0.1555865528001655,9.823930341599503
2435000000.0,22.09,0.0,0.0,0.0,0.5898753472969535,-0.15097604189086042,9.839037221624372
2440000000.0,22.09,0.0,0.0,0.0,0.5972327526059276,-0.17069376302963762,9.766051010423709
2445000000.0,22.09,0.0,0.0,0.0,0.586441705017617,-0.1307674424735744,9.741232327420724
2450000000.0,22.09,0.0,0.0,0.0,0.5699610475883106,-0.15597895241168952,9.822753142764931
2455000000.0,22.09,0.0,0.0,0.0,0.5796729476854295,-0.14715,9.84924
2460000000.0,22.09,0.0,0.0,0.0,0.5893848477825485,-0.14793484778254848,9.844530913304709
2465000000.0,22.09,0.0,0.0,0.0,0.597036504240665,-0.15696,9.789006504240666
2470000000.0,22.09,0.0,0.0,0.0,0.579967295953573,-0.15696,9.773703239883933
2475000000.0,22.09,0.0,0.0,0.0,0.597428903852189,-0.15794109614781096,9.821772192295622
2480000000.0,22.09,0.0,0.0,0.0,0.579574896342049,-0.17540265548692655,9.858265103657951
2485000000.0,22.09,0.0,0.0,0.0,0.5981156517318565,-0.14803304480443044,9.837958258659283
2490000000.0,22.09,0.0,0.0,0.0,0.588992496730525,-0.17618750326947502,9.790183751634737
2495000000.0,22.09,0.0,0.0,0.0,0.608023703075237,-0.1568618515376185,9.780864445387145
2500000000.0,22.09,0.0,0.0,0.0,0.588600097119001,-0.14715,9.810000194238002
2505000000.0,22.09,0.0,0.0,0.0,0.6080238973132389,-0.14715,9.848847794626478
2510000000.0,22.09,0.0,0.0,0.0,0.588992302492523,-0.1375361512462615,9.85885384875374
2515000000.0,22.09,0.0,0.0,0.0,0.5981157488508575,-0.1278242511491425,9.811471255745714
2520000000.0,22.09,0.0,0.0,0.0,0.579574702104047,-0.15578294684392946,9.744076457364164
2525000000.0,22.09,0.0,0.0,0.0,0.57879,-0.15696,9.787927745225478
2530000000.0,22.09,0.0,0.0,0.0,0.57879,-0.12929565257335654,9.827265796568858
2535000000.0,22.09,0.0,0.0,0.0,0.5696666507606666,-0.15490004771800048,9.820496650760667
2540000000.0,22.09,0.0,0.0,0.0,0.5780052493364525,-0.18403574800935749,9.81981
2545000000.0,22.09,0.0,0.0,0.0,0.5698628505664285,-0.1596085516992855,9.784101402265716
2550000000.0,22.09,0.0,0.0,0.0,0.5954671485920715,-0.139301900938619,9.78057
2555000000.0,22.09,0.0,0.0,0.0,0.5809481007443811,-0.13734,9.79803189925562
2560000000.0,22.09,0.0,0.0,0.0,0.5874228497249285,-0.15460569944985697,9.826088549174786
2565000000.0,22.09,0.0,0.0,0.0,0.571530500355905,-0.139890500355905,9.838154749822047
2570000000.0,22.09,0.0,0.0,0.0,0.5774166499191665,-0.1457766499191665,9.830993350080833
2575000000.0,22.09,0.0,0.0,0.0,0.57879,-0.15548855001628548,9.81294289996743
2580000000.0,22.09,0.0,0.0,0.0,0.57879,-0.1487195498865955,9.818240450113406
2585000000.0,22.09,0.0,0.0,0.0,0.57879,-0.15529235021052348,9.811667649789477
2590000000.0,22.09,0.0,0.0,0.0,0.57879,-0.15696,9.81
2595000000.0,22.09,0.0,0.0,0.0,0.594682300809523,-0.1490138495952385,9.817946150404762
2600000000.0,22.09,0.0,0.0,0.0,0.582713898996239,-0.131453898996239,9.79626584849436
2605000000.0,22.09,0.0,0.0,0.0,0.57879,-0.14302990119799902,9.782630049401002
2610000000.0,22.09,0.0,0.0,0.0,0.57879,-0.16245370139223703,9.811177402784475
2615000000.0,22.09,0.0,0.0,0.0,0.6014512523797125,-0.13655499682704997,9.842471252379713
2620000000.0,22.09,0.0,0.0,0.0,0.578397396438574,-0.1349856508903565,9.819417396438574
2625000000.0,22.09,0.0,0.0,0.0,0.5910526529624265,-0.16677020394990202,9.787927347037574
2630000000.0,22.09,0.0,0.0,0.0,0.5911505489154055,-0.14754219566162194,9.78057
2635000000.0,22.09,0.0,0.0,0.0,0.602922702363427,-0.15166270236342702,9.794892702363427
2640000000.0,22.09,0.0,0.0,0.0,0.6011567487211675,-0.14989674872116748,9.82844300511533
2645000000.0,22.09,0.0,0.0,0.0,0.584479697248097,-0.14018484862404848,9.83943
2650000000.0,22.09,0.0,0.0,0.0,0.5719229485269295,-0.15794115441921155,9.805094742634648
2655000000.0,22.09,0.0,0.0,0.0,0.5892868547105685,-0.15323209685962097,9.756535242149052
2660000000.0,22.09,0.0,0.0,0.0,0.59841,-0.16716255500192553,9.781355110003851
2665000000.0,22.09,0.0,0.0,0.0,0.5655462411778625,-0.16343449647114494,9.833053758822137
2670000000.0,22.09,0.0,0.0,0.0,0.5817332593077327,-0.1504853481384535,9.836290696276906
2675000000.0,22.09,0.0,0.0,0.0,0.585656896082669,-0.14715,9.797737240206674
2680000000.0,22.09,0.0,0.0,0.0,0.57879,-0.14087154794421547,9.786848452055786
2685000000.0,22.09,0.0,0.0,0.0,0.5849703521529035,-0.15588105645871056,9.821281760764517
2690000000.0,22.09,0.0,0.0,0.0,0.5825177477499774,-0.14852324324993244,9.851594504500046
2695000000.0,22.09,0.0,0.0,0.0,0.57879,-0.14930830469428302,9.829129238264292
2700000000.0,22.09,0.0,0.0,0.0,0.6023342097770421,-0.15696,9.786455790222957
2705000000.0,22.09,0.0,0.0,0.0,0.606454094917241,-0.13959614237586143,9.793911810165518
2710000000.0,22.09,0.0,0.0,0.0,0.6040998526384985,-0.1559792631924926,9.827069557915497
2715000000.0,22.09,0.0,0.0,0.0,0.6026282472643825,-0.16539649452876493,9.845021752735617
2720000000.0,22.09,0.0,0.0,0.0,0.59841,-0.16245365283273652,9.816278083003581
2725000000.0,22.09,0.0,0.0,0.0,0.5822233412104334,-0.1505833412104334,9.774193341210433
2730000000.0,22.09,0.0,0.0,0.0,0.5742774530269745,-0.14793490605394904,9.787437265134873
2735000000.0,22.09,0.0,0.0,0.0,0.5839893531240935,-0.15176064687590646,9.820398706248188
2740000000.0,22.09,0.0,0.0,0.0,0.598802506442425,-0.1624537596636376,9.839822506442426
2745000000.0,22.09,0.0,0.0,0.0,0.5932105400450054,-0.1615705400450054,9.804211620135016
2750000000.0,22.09,0.0,0.0,0.0,0.5836950534154506,-0.14224494658454948,9.76095
2755000000.0,22.09,0.0,0.0,0.0,0.5934069535125696,-0.1517608605377086,9.784984767562847
2760000000.0,22.09,0.0,0.0,0.0,0.59841,-0.15735229278062293,9.833544268048444
2765000000.0,22.09,0.0,0.0,0.0,0.5937992462931925,-0.14715,9.845217738879578
2770000000.0,22.09,0.0,0.0,0.0,0.5750620385882205,-0.15166265380392654,9.807056730980367
2775000000.0,22.09,0.0,0.0,0.0,0.5724136617031367,-0.15696,9.77174089219791
2780000000.0,22.09,0.0,0.0,0.0,0.5972329079963291,-0.15696,9.791165177987152
2785000000.0,22.09,0.0,0.0,0.0,0.60822,-0.15274164590471645,9.84227506228585
2790000000.0,22.09,0.0,0.0,0.0,0.6040997458075974,-0.14715,9.85905
2795000000.0,22.09,0.0,0.0,0.0,0.5823213828419138,-0.14715,9.826872765683827
2800000000.0,22.09,0.0,0.0,0.0,0.5787902719332028,-0.15107405438664054,9.78057
2805000000.0,22.09,0.0,0.0,0.0,0.6043940455162404,-0.16078595448375954,9.78822190896752
2810000000.0,22.09,0.0,0.0,0.0,0.5946821454191215,-0.15931429083824292,9.822557127485272
2815000000.0,22.09,0.0,0.0,0.0,0.581340490644005,-0.1544095093559951,9.84453098128801
2820000000.0,22.09,0.0,0.0,0.0,0.5725116547751166,-0.16677,9.80921503567465
2825000000.0,22.09,0.0,0.0,0.0,0.5890906646167067,-0.15646933538329336,9.786946445127766
2830000000.0,22.09,0.0,0.0,0.0,0.60822,-0.14401090993870908,9.790576364908064
2835000000.0,22.09,0.0,0.0,0.0,0.6049826449335265,-0.14724793480057935,9.819712065199422
2840000000.0,22.09,0.0,0.0,0.0,0.5952707448364074,-0.1400870206543702,9.83943
2845000000.0,22.09,0.0,0.0,0.0,0.5946823105214231,-0.16677,9.824224223696442
2850000000.0,22.09,0.0,0.0,0.0,0.6052769446421694,-0.16382694464216943,9.78155083392651
2855000000.0,22.09,0.0,0.0,0.0,0.5955650445450504,-0.15696,9.772329821819797
2860000000.0,22.09,0.0,0.0,0.0,0.5886,-0.14871943334379434,9.808430566656206
2865000000.0,22.09,0.0,0.0,0.0,0.5886,-0.1328275112983751,9.824322488701625
2870000000.0,22.09,0.0,0.0,0.0,0.5911506557463065,-0.14715,9.81
2875000000.0,22.09,0.0,0.0,0.0,0.5910523324697233,-0.15205511168685112,9.795284664939446
2880000000.0,22.09,0.0,0.0,0.0,0.5736889118810892,-0.16677,9.758203367821633
2885000000.0,22.09,0.0,0.0,0.0,0.5908563560376636,-0.16451364396233645,9.787339068112992
2890000000.0,22.09,0.0,0.0,0.0,0.5962517438652174,-0.1504852315956523,9.820791280673912
2895000000.0,22.09,0.0,0.0,0.0,0.5824195313042954,-0.1337104686957047,9.84462890637669
2900000000.0,22.09,0.0,0.0,0.0,0.5630941126580412,-0.15499794367097944,9.78841794367098
2905000000.0,22.09,0.0,0.0,0.0,0.5843818692784187,-0.14342208714772087,9.77870604357386
2910000000.0,22.09,0.0,0.0,0.0,0.6046882869534829,-0.1328275695697757,9.777823426093034
2915000000.0,22.09,0.0,0.0,0.0,0.5886,-0.15696,9.813335513240755
2920000000.0,22.09,0.0,0.0,0.0,0.5901696567174965,-0.15539034328250342,9.82962
2925000000.0,22.09,0.0,0.0,0.0,0.5939953295561533,-0.14862155681461556,9.828148443185384
2930000000.0,22.09,0.0,0.0,0.0,0.56898,-0.15833345691173456,9.814316172353061
2935000000.0,22.09,0.0,0.0,0.0,0.5740814280354143,-0.16421928598229285,9.783120714017707
2940000000.0,22.09,0.0,0.0,0.0,0.6046882286820823,-0.14244097157610972,9.80019
2945000000.0,22.09,0.0,0.0,0.0,0.5809483144061832,-0.11330578601545786,9.803427471609275
2950000000.0,22.09,0.0,0.0,0.0,0.5993910573002106,-0.15696,9.82765788539958
2955000000.0,22.09,0.0,0.0,0.0,0.6064540852053408,-0.15696,9.806468170410682
2960000000.0,22.09,0.0,0.0,0.0,0.5870302850111029,-0.15696,9.772329714988896
2965000000.0,22.09,0.0,0.0,0.0,0.56898,-0.15764675759156757,9.791753515183135
2970000000.0,22.09,0.0,0.0,0.0,0.5701573153773732,-0.16559268462262686,9.812943288443433
2975000000.0,22.09,0.0,0.0,0.0,0.5886,-0.14616888442838885,9.856597211070971
2980000000.0,22.09,0.0,0.0,0.0,0.5889924578829245,-0.12831491576584916,9.81
2985000000.0,22.09,0.0,0.0,0.0,0.5981156420199564,-0.14744435798004357,9.80911692605987
2990000000.0,22.09,0.0,0.0,0.0,0.5880112257685123,-0.15637122576851226,9.780766258077163
2995000000.0,22.09,0.0,0.0,0.0,0.5594644745228448,-0.12772631634856316,9.79096894904569
3000000000.0,22.09,0.0,0.0,0.0,0.5886000582714006,-0.14715,9.8492400582714
3005000000.0,22.09,0.0,0.0,0.0,0.5983119583685196,-0.14715,9.85895195836852
3010000000.0,22.09,0.0,0.0,0.0,0.5887961415343614,-0.15676385846563856,9.782139132274892
3015000000.0,22.09,0.0,0.0,0.0,0.5695684828744849,-0.1474442414372424,9.752022724311727
3020000000.0,22.09,0.0,0.0,0.0,0.5783976586598766,-0.15656765865987657,9.798228293299383
3025000000.0,22.09,0.0,0.0,0.0,0.5881095587569956,-0.15696,9.846787793784978
3030000000.0,22.09,0.0,0.0,0.0,0.5886,-0.13851708229177082,9.84924
3035000000.0,22.09,0.0,0.0,0.0,0.6068467179024671,-0.14646335895123358,9.794499846292599
3040000000.0,22.09,0.0,0.0,0.0,0.5811442228549423,-0.15617525904835258,9.727203186661532
3045000000.0,22.09,0.0,0.0,0.0,0.5966443182909432,-0.15696,9.748491477436414
3050000000.0,22.09,0.0,0.0,0.0,0.5719228222722282,-0.13930188151481881,9.848259651668496
3055000000.0,22.09,0.0,0.0,0.0,0.5864419186794192,-0.13734,9.893973837358837
3060000000.0,22.09,0.0,0.0,0.0,0.5799671405631714,-0.17187143774731437,9.811961405631715
3065000000.0,22.09,0.0,0.0,0.0,0.5958595190678952,-0.1424409618642096,9.731911923728418
3070000000.0,22.09,0.0,0.0,0.0,0.59841,-0.1626499788931998,9.763893298155333
3075000000.0,22.09,0.0,0.0,0.0,0.59841,-0.1500928805436288,9.837468477825485
3080000000.0,22.09,0.0,0.0,0.0,0.5819290803493908,-0.15539045982530458,9.86572091965061
3085000000.0,22.09,0.0,0.0,0.0,0.6113594396896944,-0.1406752801551528,9.828148200387883
3090000000.0,22.09,0.0,0.0,0.0,0.5938972199413722,-0.1534285200390852,9.779588699902286
3095000000.0,22.09,0.0,0.0,0.0,0.5647615196500152,-0.1649061601166616,9.762813839883338
3100000000.0,22.09,0.0,0.0,0.0,0.598410301068903,-0.1432258193586582,9.808038361282684
3105000000.0,22.09,0.0,0.0,0.0,0.6004700396891004,-0.13734,9.8508098412436
3110000000.0,22.09,0.0,0.0,0.0,0.5831062791839629,-0.1526437208160372,9.820790697959907
3115000000.0,22.09,0.0,0.0,0.0,0.5863437605051376,-0.14185247898972478,9.77978495797945
3120000000.0,22.09,0.0,0.0,0.0,0.5960556606022566,-0.15970698180676982,9.785671321204514
3125000000.0,22.09,0.0,0.0,0.0,0.5910524393006245,-0.15205487860124878,9.819810242797503
3130000000.0,22.09,0.0,0.0,0.0,0.5958594607964947,-0.1616689215929892,9.82962
3135000000.0,22.09,0.0,0.0,0.0,0.5769259173191592,-0.13812455642554555,9.815297278212773
3140000000.0,22.09,0.0,0.0,0.0,0.5760432609907327,-0.15578304396293044,9.795873478018535
3145000000.0,22.09,0.0,0.0,0.0,0.5648596778242968,-0.15283967782429678,9.79038
3150000000.0,22.09,0.0,0.0,0.0,0.5866382447398825,-0.16775118355491184,9.810981183554912
3155000000.0,22.09,0.0,0.0,0.0,0.5848720774358208,-0.16304207743582078,9.83334792256418
3160000000.0,22.09,0.0,0.0,0.0,0.5988025841376259,-0.15028913862079138,9.832759138620792
3165000000.0,22.09,0.0,0.0,0.0,0.5885017155710172,-0.14715,9.790183431142033
3170000000.0,22.09,0.0,0.0,0.0,0.57879,-0.14715,9.79018398472034
3175000000.0,22.09,0.0,0.0,0.0,0.5851665616705657,-0.1535265616705656,9.793813438329435
3180000000.0,22.09,0.0,0.0,0.0,0.5886,-0.14440307646463074,9.80293692353537
3185000000.0,22.09,0.0,0.0,0.0,0.5947803618648037,-0.15588108559441086,9.81
3190000000.0,22.09,0.0,0.0,0.0,0.59841,-0.14852321411423214,9.822164523923846
3195000000.0,22.09,0.0,0.0,0.0,0.6043941620590416,-0.1433241620590416,9.805683351763834
3200000000.0,22.09,0.0,0.0,0.0,0.5846757513753575,-0.1530360621561606,9.772721813531518
3205000000.0,22.09,0.0,0.0,0.0,0.5574040754934408,-0.15117203774672036,9.784101849013119
3210000000.0,22.09,0.0,0.0,0.0,0.5721194494015945,-0.15852972470079724,9.822949449401595
3215000000.0,22.09,0.0,0.0,0.0,0.5886,-0.15558647510496476,9.833838237552483
3220000000.0,22.09,0.0,0.0,0.0,0.5886,-0.15813732508927325,9.79665802473218
3225000000.0,22.09,0.0,0.0,0.0,0.5939955626417557,-0.1451877494329775,9.776155562641756
3230000000.0,22.09,0.0,0.0,0.0,0.5825176117833761,-0.13812492547774927,9.796462388216625
3235000000.0,22.09,0.0,0.0,0.0,0.5845780885079809,-0.14195063716400635,9.82559808850798
3240000000.0,22.09,0.0,0.0,0.0,0.59841,-0.15264378879933788,9.849632525866225
3245000000.0,22.09,0.0,0.0,0.0,0.5934068369697684,-0.16176683696976837,9.82903102181861
3250000000.0,22.09,0.0,0.0,0.0,0.5787898737452988,-0.15696,9.7903798737453
3255000000.0,22.09,0.0,0.0,0.0,0.5834008896734089,-0.15215303677553035,9.78537696322447
3260000000.0,22.09,0.0,0.0,0.0,0.5937011366784114,-0.15185886332158863,9.809215453286354
3265000000.0,22.09,0.0,0.0,0.0,0.5932107634187076,-0.15234923658129237,9.834230763418708
3270000000.0,22.09,0.0,0.0,0.0,0.5893846729683467,-0.14715,9.82589200945252
3275000000.0,22.09,0.0,0.0,0.0,0.57879,-0.15156456361294562,9.792341745548217
3280000000.0,22.09,0.0,0.0,0.0,0.5831064637100647,-0.15264353628993535,9.783709391130193
3285000000.0,22.09,0.0,0.0,0.0,0.5886,-0.13871327238563272,9.808626727614367
3290000000.0,22.09,0.0,0.0,0.0,0.5968405278086053,-0.13577052780860527,9.832170791712908
3295000000.0,22.09,0.0,0.0,0.0,0.6001756719971567,-0.15519432800284327,9.837173507995736
3300000000.0,22.09,0.0,0.0,0.0,0.5886,-0.16284593590145935,9.81588593590146
3305000000.0,22.09,0.0,0.0,0.0,0.5732961432173614,-0.1493080716086807,9.790870179021702
3310000000.0,22.09,0.0,0.0,0.0,0.560543592878336,-0.14479572858555728,9.768405728585558
3315000000.0,22.09,0.0,0.0,0.0,0.5824197643898976,-0.15333023561010234,9.802348586339386
3320000000.0,22.09,0.0,0.0,0.0,0.5886,-0.15068166448701664,9.835898335512983
3325000000.0,22.09,0.0,0.0,0.0,0.5954671291682713,-0.1500928708317287,9.82275287083173
3330000000.0,22.09,0.0,0.0,0.0,0.6015490706374907,-0.14401092936250928,9.803329070637492
3335000000.0,22.09,0.0,0.0,0.0,0.5853626352216263,-0.15372263522162635,9.79038
3340000000.0,22.09,0.0,0.0,0.0,0.5819292648754927,-0.1534285297509853,9.796658529750985
3345000000.0,22.09,0.0,0.0,0.0,0.5886,-0.15764650508216504,9.819123494917836
3350000000.0,22.09,0.0,0.0,0.0,0.597429195209192,-0.13734,9.83354386986054
3355000000.0,22.09,0.0,0.0,0.0,0.6151850348331503,-0.14018496516684964,9.816965034833151
3360000000.0,22.09,0.0,0.0,0.0,0.599979404208094,-0.14715,9.796265673680157
3365000000.0,22.09,0.0,0.0,0.0,0.57879,-0.14979876536108766,9.77154506144435
3370000000.0,22.09,0.0,0.0,0.0,0.5736886690835867,-0.15696,9.802740665458208
3375000000.0,22.09,0.0,0.0,0.0,0.5640751311106513,-0.15696,9.817357696665978
3380000000.0,22.09,0.0,0.0,0.0,0.57879,-0.15460553434755533,9.837075534347555
3385000000.0,22.09,0.0,0.0,0.0,0.5810463657495637,-0.1426372685008727,9.82285090275131
3390000000.0,22.09,0.0,0.0,0.0,0.5842834683066347,-0.13832132923341328,9.795873468306635
3395000000.0,22.09,0.0,0.0,0.0,0.5731003318876033,-0.17245966811239666,9.786750497831406
3400000000.0,22.09,0.0,0.0,0.0,0.5905620660409207,-0.1608841320818413,9.815886198122762
3405000000.0,22.09,0.0,0.0,0.0,0.6002739661380396,-0.17285206772392067,9.83943
3410000000.0,22.09,0.0,0.0,0.0,0.6046882675296826,-0.15342826752968267,9.832366535059366
3415000000.0,22.09,0.0,0.0,0.0,0.5902677663322776,-0.14067553266455532,9.788515635674058
3420000000.0,22.09,0.0,0.0,0.0,0.5952706671412067,-0.15696,9.74093799857638
3425000000.0,22.09,0.0,0.0,0.0,0.57879,-0.15843156652651566,9.799209399159095
3430000000.0,22.09,0.0,0.0,0.0,0.5801634666236347,-0.16539653337636534,9.84924
3435000000.0,22.09,0.0,0.0,0.0,0.5886,-0.15440926655849266,9.84541389983774
3440000000.0,22.09,0.0,0.0,0.0,0.5874227331821273,-0.13969453363574533,9.812746399092765
3445000000.0,22.09,0.0,0.0,0.0,0.5766316661700167,-0.15372249925502499,9.758791666170016
3450000000.0,22.09,0.0,0.0,0.0,0.5630942680484428,-0.130473201036332,9.747216402072663
3455000000.0,22.09,0.0,0.0,0.0,0.5975270328907704,-0.15872593421845932,9.806370769764609
3460000000.0,22.09,0.0,0.0,0.0,0.5886,-0.17736486720634867,9.866505398380953
3465000000.0,22.09,0.0,0.0,0.0,0.5879132326965324,-0.18295616348266164,9.837369698089597
3470000000.0,22.09,0.0,0.0,0.0,0.5799673348011734,-0.13792866740058665,9.807056662997066
3475000000.0,22.09,0.0,0.0,0.0,0.5979194325022943,-0.14813113499541136,9.763893404986234
3480000000.0,22.09,0.0,0.0,0.0,0.5893849351896494,-0.16598506481035066,9.8213798703793
3485000000.0,22.09,0.0,0.0,0.0,0.6079256323080563,-0.14803310307583104,9.858755632308057
3490000000.0,22.09,0.0,0.0,0.0,0.59841,-0.17618746442187463,9.848258661054686
3495000000.0,22.09,0.0,0.0,0.0,0.5983118321138183,-0.15696,9.80009183211382
3500000000.0,22.09,0.0,0.0,0.0,0.5886000679833007,-0.15696,9.790379728066798
3505000000.0,22.09,0.0,0.0,0.0,0.5983119680804196,-0.15696,9.75153212767832
3510000000.0,22.09,0.0,0.0,0.0,0.59841,-0.13773226364492264,9.808823209065233
3515000000.0,22.09,0.0,0.0,0.0,0.5793784634506847,-0.15637153654931535,9.867094609647946
3520000000.0,22.09,0.0,0.0,0.0,0.57879,-0.12870699488466997,9.81235398976934
3525000000.0,22.09,0.0,0.0,0.0,0.5881095684688957,-0.16480827387558275,9.81
3530000000.0,22.09,0.0,0.0,0.0,0.5886,-0.1575485314339853,9.77311412573594
3535000000.0,22.09,0.0,0.0,0.0,0.5977233686631337,-0.1660833686631337,9.816376843315668
3540000000.0,22.09,0.0,0.0,0.0,0.5893847312397473,-0.13969419371924194,9.828835268760253
3545000000.0,22.09,0.0,0.0,0.0,0.6064543377147433,-0.16412150657211508,9.820692831142628
3550000000.0,22.09,0.0,0.0,0.0,0.5640746552275466,-0.14911186209101862,9.81098093104551
3555000000.0,22.09,0.0,0.0,0.0,0.5853629071548291,-0.1646119381032194,9.76634515474195
3560000000.0,22.09,0.0,0.0,0.0,0.6144986074461861,-0.1495042617025426,9.76095
3565000000.0,22.09,0.0,0.0,0.0,0.5838909230166093,-0.15568476924584768,9.820693384720935
3570000000.0,22.09,0.0,0.0,0.0,0.5956633386859334,-0.1822700080289001,9.8549300080289
3575000000.0,22.09,0.0,0.0,0.0,0.5817328611198286,-0.1613742916797429,9.834034291679743
3580000000.0,22.09,0.0,0.0,0.0,0.57879,-0.15696,9.788417652313978
3585000000.0,22.09,0.0,0.0,0.0,0.5869323696343237,-0.13253289109702893,9.756142891097028
3590000000.0,22.09,0.0,0.0,0.0,0.5966442697314427,-0.1436185394628854,9.799405618388656
3595000000.0,22.09,0.0,0.0,0.0,0.59841,-0.14715,9.857677018971371
3600000000.0,22.09,0.0,0.0,0.0,0.59841,-0.1549980699256807,9.87670806992568
3605000000.0,22.09,0.0,0.0,0.0,0.6061599700227996,-0.15696,9.808920269794804
3610000000.0,22.09,0.0,0.0,0.0,0.585264389640244,-0.15696,9.752120649400407
3615000000.0,22.09,0.0,0.0,0.0,0.5712362297829623,-0.1720675404340754,9.756437540434074
3620000000.0,22.09,0.0,0.0,0.0,0.6062583515707836,-0.1542129890575299,9.820595362513254
3625000000.0,22.09,0.0,0.0,0.0,0.6106724295887243,-0.1545075704112757,9.861502711233827
3630000000.0,22.09,0.0,0.0,0.0,0.5864415884748159,-0.14970052949160528,9.825303176949632
3635000000.0,22.09,0.0,0.0,0.0,0.5931127412110274,-0.1543113706055137,9.774193146972431
3640000000.0,22.09,0.0,0.0,0.0,0.5701569171894693,-0.1640232707026327,9.746823458594735
3645000000.0,22.09,0.0,0.0,0.0,0.5800655123992552,-0.15980482920024827,9.810981707997517
3650000000.0,22.09,0.0,0.0,0.0,0.5679987873093879,-0.1500929291031293,9.866898283587483
3655000000.0,22.09,0.0,0.0,0.0,0.5794769129819691,-0.1539189709939897,9.844825145030052
3660000000.0,22.09,0.0,0.0,0.0,0.5952708710911088,-0.15696,9.789594773453347
3665000000.0,22.09,0.0,0.0,0.0,0.5786916864353169,-0.15696,9.783905542376456
3670000000.0,22.09,0.0,0.0,0.0,0.5819293425706934,-0.13753598614395987,9.803329342570693
3675000000.0,22.09,0.0,0.0,0.0,0.5886,-0.1339065713824657,9.841882856912328
3680000000.0,22.09,0.0,0.0,0.0,0.5823215285204153,-0.13106152852041528,9.852771528520416
3685000000.0,22.09,0.0,0.0,0.0,0.603511486306815,-0.14607111473011114,9.805977398963075
3690000000.0,22.09,0.0,0.0,0.0,0.6119477283261773,-0.16912454334764543,9.762323184978532
3695000000.0,22.09,0.0,0.0,0.0,0.5962516564581166,-0.16461165645811654,9.78704503062565
3700000000.0,22.09,0.0,0.0,0.0,0.6003721437361215,-0.1510739281319393,9.827658215604183
3705000000.0,22.09,0.0,0.0,0.0,0.5908560841044609,-0.16451391589553915,9.83364202803482
3710000000.0,22.09,0.0,0.0,0.0,0.5731001279377013,-0.1538205117508051,9.801170639688507
3715000000.0,22.09,0.0,0.0,0.0,0.5745717721594178,-0.14852354431883544,9.774978227840583
3720000000.0,22.09,0.0,0.0,0.0,0.5678026554869265,-0.15146632774346327,9.792734689026148
3725000000.0,22.09,0.0,0.0,0.0,0.5699611447073115,-0.1525455723536557,9.815395572353657
3730000000.0,22.09,0.0,0.0,0.0,0.57879,-0.14636505509845055,9.83040494490155
3735000000.0,22.09,0.0,0.0,0.0,0.5839893725478937,-0.15293811764368118,9.818632509808426
3740000000.0,22.09,0.0,0.0,0.0,0.5886,-0.1463649094199491,9.789987454709975
3745000000.0,22.09,0.0,0.0,0.0,0.5835968272578683,-0.14253951822639518,9.795579518226395
3750000000.0,22.09,0.0,0.0,0.0,0.5836950728392507,-0.15205492716074925,9.81490507283925
3755000000.0,22.09,0.0,0.0,0.0,0.5789860541272606,-0.14715,9.81981
3760000000.0,22.09,0.0,0.0,0.0,0.5831066191004662,-0.15185887303348872,9.815101126966512
3765000000.0,22.09,0.0,0.0,0.0,0.5937992268693922,-0.15234922686939226,9.800778453738785
3770000000.0,22.09,0.0,0.0,0.0,0.5750619803168199,-0.15617534645545347,9.785867326772275
3775000000.0,22.09,0.0,0.0,0.0,0.5635845733248458,-0.16677,9.802642866624229
3780000000.0,22.09,0.0,0.0,0.0,0.586245893687859,-0.15813705315607055,9.82962
3785000000.0,22.09,0.0,0.0,0.0,0.5997832529618325,-0.14715,9.833838373519084
3790000000.0,22.09,0.0,0.0,0.0,0.5844797263837973,-0.14302972638379727,9.81058808468658
3795000000.0,22.09,0.0,0.0,0.0,0.5908565211399652,-0.15342869485328695,9.774782173713321
3800000000.0,22.09,0.0,0.0,0.0,0.6042959261895593,-0.1648077785686778,9.796266295241765
3805000000.0,22.09,0.0,0.0,0.0,0.5945840260924402,-0.15480194781511947,9.81981
3810000000.0,22.09,0.0,0.0,0.0,0.5886,-0.16304212599532125,9.830993622014036
3815000000.0,22.09,0.0,0.0,0.0,0.5922297741017978,-0.15333022589820225,9.831091129491012
3820000000.0,22.09,0.0,0.0,0.0,0.5878149774032498,-0.14008665160216652,9.786063303204333
3825000000.0,22.09,0.0,0.0,0.0,0.5792807228881073,-0.13783072288810722,9.774684297184143
3830000000.0,22.09,0.0,0.0,0.0,0.5950745256068453,-0.15696,9.82020284635893
3835000000.0,22.09,0.0,0.0,0.0,0.5918373744902737,-0.15696,9.85905
3840000000.0,22.09,0.0,0.0,0.0,0.5889921762378217,-0.15696,9.833935803300859
3845000000.0,22.09,0.0,0.0,0.0,0.5720211746845117,-0.1508776506309765,9.774487650630977
3850000000.0,22.09,0.0,0.0,0.0,0.5729038504367385,-0.13734,9.775665373908154
3855000000.0,22.09,0.0,0.0,0.0,0.570549899514999,-0.14587492463624924,9.81853492463625
3860000000.0,22.09,0.0,0.0,0.0,0.5929162500482625,-0.16402312502413124,9.836683125024132
3865000000.0,22.09,0.0,0.0,0.0,0.5867363252189632,-0.15960877507298774,9.821673674781037
3870000000.0,22.09,0.0,0.0,0.0,0.6005679744896797,-0.1616686496597865,9.787436624149466
3875000000.0,22.09,0.0,0.0,0.0,0.5812425752672258,-0.14960257526722576,9.756045150534451
3880000000.0,22.09,0.0,0.0,0.0,0.5815365739069658,-0.15931447536434473,9.791950278279103
3885000000.0,22.09,0.0,0.0,0.0,0.5659391263843913,-0.16225724907707248,9.861306375461464
3890000000.0,22.09,0.0,0.0,0.0,0.5907582755585827,-0.14930827555858275,9.860226897765669
3895000000.0,22.09,0.0,0.0,0.0,0.5922294730328947,-0.15489982434429825,9.81725894606579
3900000000.0,22.09,0.0,0.0,0.0,0.56898,-0.14911207575282076,9.77076
3905000000.0,22.09,0.0,0.0,0.0,0.576435903399759,-0.15323204830012047,9.781943855099637
3910000000.0,22.09,0.0,0.0,0.0,0.6029223721588237,-0.13910587594705875,9.834917627841177
3915000000.0,22.09,0.0,0.0,0.0,0.5804577760441778,-0.14715,9.850711119779112
3920000000.0,22.09,0.0,0.0,0.0,0.5886,-0.14871967614129677,9.803721295434814
3925000000.0,22.09,0.0,0.0,0.0,0.5886,-0.15843157623841575,9.772231576238415
3930000000.0,22.09,0.0,0.0,0.0,0.5872265236644653,-0.1599026183223262,9.784690429006606
3935000000.0,22.09,0.0,0.0,0.0,0.5800653764326538,-0.1215461292979613,9.817652258595922
3940000000.0,22.09,0.0,0.0,0.0,0.5862454469404544,-0.14832727652977276,9.865328170410681
3945000000.0,22.09,0.0,0.0,0.0,0.5722175298806753,-0.15696,9.831875763611757
3950000000.0,22.09,0.0,0.0,0.0,0.59841,-0.15696,9.77174107672401
3955000000.0,22.09,0.0,0.0,0.0,0.5975270231788702,-0.1543110695366107,9.78233595364226
3960000000.0,22.09,0.0,0.0,0.0,0.5878151230817512,-0.12988463075474632,9.804114384591244
3965000000.0,22.09,0.0,0.0,0.0,0.5794767770153678,-0.15696,9.847866445969265
3970000000.0,22.09,0.0,0.0,0.0,0.5880113228875132,-0.15813735422497352,9.82785396866254
3975000000.0,22.09,0.0,0.0,0.0,0.5782994227903943,-0.17608942279039422,9.79920884558079
3980000000.0,22.09,0.0,0.0,0.0,0.5697649546134496,-0.16598504538655046,9.781747431920175
3985000000.0,22.09,0.0,0.0,0.0,0.5886,-0.14803313221153133,9.811177509615376
3990000000.0,22.09,0.0,0.0,0.0,0.5884037224990373,-0.1757948899961489,9.848847444998075
3995000000.0,22.09,0.0,0.0,0.0,0.5789863551961636,-0.13743817759808177,9.829423644803837
4000000000.0,22.09,0.0,0.0,0.0,0.5984097669143976,-0.14714992230479923,9.8099999223048
4005000000.0,22.09,0.0,0.0,0.0,0.5692740666230407,-0.1374380222076802,9.800288022207681
4010000000.0,22.09,0.0,0.0,0.0,0.617049389447194,-0.11811224422112244,9.780962244221124
4015000000.0,22.09,0.0,0.0,0.0,0.5704511100672112,-0.1652988899327889,9.82814888993279
4020000000.0,22.09,0.0,0.0,0.0,0.5972330342510304,-0.13851696574896966,9.82962
4025000000.0,22.09,0.0,0.0,0.0,0.59841,-0.16529873454238736,9.81098084363841
4030000000.0,22.09,0.0,0.0,0.0,0.6076314782779147,-0.13910556516625563,9.791557043444172
4035000000.0,22.09,0.0,0.0,0.0,0.5990966216249662,-0.15558675675006756,9.799503378375034
4040000000.0,22.09,0.0,0.0,0.0,0.5803594430556944,-0.14793472152784723,9.791164721527847
4045000000.0,22.09,0.0,0.0,0.0,0.57879,-0.16500435713854358,9.808234357138543
4050000000.0,22.09,0.0,0.0,0.0,0.5964481573327816,-0.16677,9.818829078666392
4055000000.0,22.09,0.0,0.0,0.0,0.5896790212364902,-0.14930804247298043,9.811079021236491
4060000000.0,22.09,0.0,0.0,0.0,0.5972328788606288,-0.12988424227874243,9.81
4065000000.0,22.09,0.0,0.0,0.0,0.5898752210422522,-0.14459955791549559,9.784395663126757
4070000000.0,22.09,0.0,0.0,0.0,0.6054733581097336,-0.14715,9.78057
4075000000.0,22.09,0.0,0.0,0.0,0.5998814208480142,-0.1638271583039716,9.822262895759929
4080000000.0,22.09,0.0,0.0,0.0,0.59841,-0.1585295207508952,9.837860479249105
4085000000.0,22.09,0.0,0.0,0.0,0.5739828619613286,-0.1406752413075524,9.823145241307552
4090000000.0,22.09,0.0,0.0,0.0,0.6011571177733712,-0.16147283833002837,9.803721441113314
4095000000.0,22.09,0.0,0.0,0.0,0.5843814613786147,-0.1588238204595382,9.79224382045954
4100000000.0,22.09,0.0,0.0,0.0,0.6023342389127424,-0.15696,9.821772318550323
4105000000.0,22.09,0.0,0.0,0.0,0.5849700607959006,-0.17245995946939957,9.8451199594694
4110000000.0,22.09,0.0,0.0,0.0,0.5940937596636376,-0.15362436050454362,9.826284360504545
4115000000.0,22.09,0.0,0.0,0.0,0.5757486602131866,-0.14715,9.782041100355311
4120000000.0,22.09,0.0,0.0,0.0,0.5838913600521136,-0.1396943199739432,9.79312704007817
4125000000.0,22.09,0.0,0.0,0.0,0.5812424198768242,-0.1594127403695274,9.807547580123176
4130000000.0,22.09,0.0,0.0,0.0,0.5933089604405896,-0.16677,9.81
4135000000.0,22.09,0.0,0.0,0.0,0.5912486196825862,-0.16677,9.824322760634828
4140000000.0,22.09,0.0,0.0,0.0,0.5603468783418688,-0.1597067195854672,9.808430158756401
4145000000.0,22.09,0.0,0.0,0.0,0.5632903610233037,-0.14302963897669638,9.779294458465044
4150000000.0,22.09,0.0,0.0,0.0,0.5895812418263124,-0.1510741612175416,9.811962483652625
4155000000.0,22.09,0.0,0.0,0.0,0.5848720385882205,-0.15696,9.82962
4160000000.0,22.09,0.0,0.0,0.0,0.57879,-0.1636308808030088,9.816278238393982
4165000000.0,22.09,0.0,0.0,0.0,0.5919355618002556,-0.1536244381997444,9.803427219099873
4170000000.0,22.09,0.0,0.0,0.0,0.5919353190027532,-0.14067531900275318,9.806664680997248
4175000000.0,22.09,0.0,0.0,0.0,0.6013531621887316,-0.15646974328309743,9.81
4180000000.0,22.09,0.0,0.0,0.0,0.576827594042576,-0.15421303761703037,9.81
4185000000.0,22.09,0.0,0.0,0.0,0.5715307625772077,-0.14715,9.797639237422793
4190000000.0,22.09,0.0,0.0,0.0,0.5909545627714456,-0.15931456277144562,9.80862684415717
4195000000.0,22.09,0.0,0.0,0.0,0.59841,-0.16078581851715817,9.81382581851716
4200000000.0,22.09,0.0,0.0,0.0,0.5925239184200392,-0.14518783684007835,9.81
4205000000.0,22.09,0.0,0.0,0.0,0.6001759633541597,-0.14312798167707982,9.804212018322922
4210000000.0,22.09,0.0,0.0,0.0,0.5968402364516023,-0.15852976354839765,9.8058798817742
4215000000.0,22.09,0.0,0.0,0.0,0.5774164362573644,-0.1611782181286822,9.826775345613953
4220000000.0,22.09,0.0,0.0,0.0,0.5799673639368736,-0.15146631803156319,9.82294895409469
4225000000.0,22.09,0.0,0.0,0.0,0.5886,-0.14175441793444418,9.820791164131112
4230000000.0,22.09,0.0,0.0,0.0,0.5886,-0.15323244648802448,9.792537624861277
4235000000.0,22.09,0.0,0.0,0.0,0.5834006177402062,-0.16157061774020617,9.792146293558762
4240000000.0,22.09,0.0,0.0,0.0,0.57879,-0.1620612823569128,9.81981
4245000000.0,22.09,0.0,0.0,0.0,0.5687836350919364,-0.16176681754596817,9.829816364908064
4250000000.0,22.09,0.0,0.0,0.0,0.5738852476534525,-0.1618650825511508,9.819809669795397
4255000000.0,22.09,0.0,0.0,0.0,0.5789860347034603,-0.1523490520551905,9.78096206940692
4260000000.0,22.09,0.0,0.0,0.0,0.5736888827453889,-0.14675776549077765,9.775076648236167
4265000000.0,22.09,0.0,0.0,0.0,0.5834007828425078,-0.15234921715749217,9.818044697055047
4270000000.0,22.09,0.0,0.0,0.0,0.5976253658792536,-0.14715,9.853752682939627
4275000000.0,22.09,0.0,0.0,0.0,0.5993908339265084,-0.14715,9.82814791874278
4280000000.0,22.09,0.0,0.0,0.0,0.5842835168661352,-0.14715,9.764481101196811
4285000000.0,22.09,0.0,0.0,0.0,0.5745716167690162,-0.15136838323098384,9.727301616769015
4290000000.0,22.09,0.0,0.0,0.0,0.5813408499843086,-0.15696,9.762912833281028
4295000000.0,22.09,0.0,0.0,0.0,0.59841,-0.15696,9.847965283976553
4300000000.0,22.09,0.0,0.0,0.0,0.5905618329553184,-0.15303591647765916,9.864935498865956
4305000000.0,22.09,0.0,0.0,0.0,0.5749640163805402,-0.15480196723891967,9.80283811466378
4310000000.0,22.09,0.0,0.0,0.0,0.5801636511497366,-0.17049788371657884,9.753494232566842
4315000000.0,22.09,0.0,0.0,0.0,0.5947802161863022,-0.16206086474520864,9.77399805432328
4320000000.0,22.09,0.0,0.0,0.0,0.5921316839108168,-0.13734,9.843746735643267
4325000000.0,22.09,0.0,0.0,0.0,0.6052771680158717,-0.14077358400793583,9.855125663968257
4330000000.0,22.09,0.0,0.0,0.0,0.6146945158949452,-0.14381451589494515,9.81627806357978
4335000000.0,22.09,0.0,0.0,0.0,0.6049826157978262,-0.14057738420217383,9.783905231595652
4340000000.0,22.09,0.0,0.0,0.0,0.6015492842992929,-0.14401071570070714,9.783317137197171
4345000000.0,22.09,0.0,0.0,0.0,0.6021376312071763,-0.13734,9.822164737585648
4350000000.0,22.09,0.0,0.0,0.0,0.5797707465194075,-0.13439691550646915,9.84629691550647
4355000000.0,22.09,0.0,0.0,0.0,0.5733949229532492,-0.13606495377194955,9.8166701232748
4360000000.0,22.09,0.0,0.0,0.0,0.5972324612489246,-0.15696,9.76095
4365000000.0,22.09,0.0,0.0,0.0,0.5769263543546636,-0.15696,9.771545139139551
4370000000.0,22.09,0.0,0.0,0.0,0.59841,-0.15951068488200684,9.812943424410035
4375000000.0,22.09,0.0,0.0,0.0,0.59841,-0.16431741502087416,9.841882245062623
4380000000.0,22.09,0.0,0.0,0.0,0.5960555149237552,-0.16166897015248968,9.81039205969502
4385000000.0,22.09,0.0,0.0,0.0,0.5863436148266362,-0.16755445930654458,9.787339155520092
4390000000.0,22.09,0.0,0.0,0.0,0.57879,-0.1416565705409657,9.799208573647586
4395000000.0,22.09,0.0,0.0,0.0,0.5767298146323981,-0.15902018536760185,9.77125092683801
4400000000.0,22.09,0.0,0.0,0.0,0.5768283418588834,-0.16088374360583743,9.817848341858884
4405000000.0,22.09,0.0,0.0,0.0,0.5989000721908008,-0.13547601443816013,9.845512028876321
4410000000.0,22.09,0.0,0.0,0.0,0.5679994282947943,-0.13282765697687657,9.824322343023123
4415000000.0,22.09,0.0,0.0,0.0,0.6032166427317665,-0.15696,9.795186642731768
4420000000.0,22.09,0.0,0.0,0.0,0.5834990575595906,-0.15539031414680313,9.777038743412787
4425000000.0,22.09,0.0,0.0,0.0,0.6052768280993682,-0.14420682809936827,9.811471585950317
4430000000.0,22.09,0.0,0.0,0.0,0.5872265139525652,-0.13302394418973945,9.82255697209487
4435000000.0,22.09,0.0,0.0,0.0,0.57879,-0.16677,9.834328455421785
4440000000.0,22.09,0.0,0.0,0.0,0.57879,-0.16559271375832713,9.799012713758328
4445000000.0,22.09,0.0,0.0,0.0,0.5777108136612081,-0.15803918633879185,9.792538372677585
4450000000.0,22.09,0.0,0.0,0.0,0.5709421728718218,-0.16578891356408915,9.812943259307733
4455000000.0,22.09,0.0,0.0,0.0,0.5903659730660598,-0.1543110404009104,9.83854701346697
4460000000.0,22.09,0.0,0.0,0.0,0.6050804534794045,-0.13066954652059548,9.827265340109554
4465000000.0,22.09,0.0,0.0,0.0,0.5696667867272679,-0.16677,9.798816426545464
4470000000.0,22.09,0.0,0.0,0.0,0.57879,-0.16559262635122626,9.78057
4475000000.0,22.09,0.0,0.0,0.0,0.5797711738430118,-0.14715,9.782041760764518
4480000000.0,22.09,0.0,0.0,0.0,0.5980175129813752,-0.14715,9.81078497403725
4485000000.0,22.09,0.0,0.0,0.0,0.5883056128842561,-0.14803316134723163,9.829325612884256
4490000000.0,22.09,0.0,0.0,0.0,0.5785937127871371,-0.17540227672282274,9.81902485114855
4495000000.0,22.09,0.0,0.0,0.0,0.5691763746199637,-0.11801456192994562,9.78057
4500000000.0,22.09,0.0,0.0,0.0,0.5885997377786973,-0.14715017481420176,9.780570174814203
4505000000.0,22.09,0.0,0.0,0.0,0.5594640374873404,-0.16657397500843976,9.79999397500844
4510000000.0,22.09,0.0,0.0,0.0,0.5783977752026778,-0.1283144495946445,9.829031662804017
4515000000.0,22.09,0.0,0.0,0.0,0.5692742123015422,-0.17510893849228937,9.810588424603084
4520000000.0,22.09,0.0,0.0,0.0,0.56898,-0.18599768779557688,9.762911561022115
4525000000.0,22.09,0.0,0.0,0.0,0.5876191757853918,-0.15843123632191236,9.770269587892695
4530000000.0,22.09,0.0,0.0,0.0,0.5517140480407405,-0.12007404804074048,9.80764595195926
4535000000.0,22.09,0.0,0.0,0.0,0.5949769404346694,-0.12684338808693388,9.846493552347736
4540000000.0,22.09,0.0,0.0,0.0,0.6074352881840529,-0.13655528818405288,9.813138847263788
4545000000.0,22.09,0.0,0.0,0.0,0.5992928117188281,-0.16412156484351564,9.792145623437657
4550000000.0,22.09,0.0,0.0,0.0,0.5719227348651273,-0.15794091162170912,9.79038
4555000000.0,22.09,0.0,0.0,0.0,0.5864419769508198,-0.15696,9.79911098847541
4560000000.0,22.09,0.0,0.0,0.0,0.5713342228549423,-0.16559288857252888,9.869253108580232
4565000000.0,22.09,0.0,0.0,0.0,0.6031191546785916,-0.14116563399105633,9.827461267982113
4570000000.0,22.09,0.0,0.0,0.0,0.60822,-0.15421337753353376,9.777626556166165
4575000000.0,22.09,0.0,0.0,0.0,0.5998814111361142,-0.15696,9.779098588863887
4580000000.0,22.09,0.0,0.0,0.0,0.59841,-0.15696,9.805291466883014
4585000000.0,22.09,0.0,0.0,0.0,0.59841,-0.14881761094187612,9.85071194529062
4590000000.0,22.09,0.0,0.0,0.0,0.59841,-0.14715,9.842961421689514
4595000000.0,22.09,0.0,0.0,0.0,0.59841,-0.15509618925236188,9.79175286448583
4600000000.0,22.09,0.0,0.0,0.0,0.5748657319515573,-0.15696,9.78057
4605000000.0,22.09,0.0,0.0,0.0,0.56898,-0.15696,9.8038199683398
4610000000.0,22.09,0.0,0.0,0.0,0.5919356686311567,-0.17226377908743778,9.825303779087438
4615000000.0,22.09,0.0,0.0,0.0,0.5833024207183243,-0.16147242071832418,9.814512420718325
4620000000.0,22.09,0.0,0.0,0.0,0.57879,-0.15696,9.802544310262043
4625000000.0,22.09,0.0,0.0,0.0,0.5935051796701518,-0.1496024101649241,9.778117230494772
4630000000.0,22.09,0.0,0.0,0.0,0.59841,-0.1761879597287796,9.807057449660974
4635000000.0,22.09,0.0,0.0,0.0,0.59841,-0.1577444398827444,9.812648609970687
4640000000.0,22.09,0.0,0.0,0.0,0.5913467098735671,-0.14008670987356708,9.817063290126434
4645000000.0,22.09,0.0,0.0,0.0,0.5816348097764481,-0.15127038044710378,9.812844809776449
4650000000.0,22.09,0.0,0.0,0.0,0.5650558193586582,-0.1500929096793291,9.81
4655000000.0,22.09,0.0,0.0,0.0,0.5659389904177899,-0.1539189904177899,9.796462019164421
4660000000.0,22.09,0.0,0.0,0.0,0.5823217810298178,-0.1636308905149089,9.823734452574545
4665000000.0,22.09,0.0,0.0,0.0,0.5886,-0.16677,9.832857209387972
4670000000.0,22.09,0.0,0.0,0.0,0.6015493814182938,-0.1602953092908531,9.82962
4675000000.0,22.09,0.0,0.0,0.0,0.5954668183874682,-0.15696,9.82962
4680000000.0,22.09,0.0,0.0,0.0,0.5823215090966151,-0.1632384909033849,9.817063018193231
4685000000.0,22.09,0.0,0.0,0.0,0.584970391000504,-0.16677,9.79145882699849
4690000000.0,22.09,0.0,0.0,0.0,0.5886,-0.16677,9.804899164390493
4695000000.0,22.09,0.0,0.0,0.0,0.5886,-0.15480161761051617,9.837762573584225
4700000000.0,22.09,0.0,0.0,0.0,0.6003721825837218,-0.1530360912918609,9.831581726124417
4705000000.0,22.09,0.0,0.0,0.0,0.60822,-0.1627479913889799,9.7908700430551
4710000000.0,22.09,0.0,0.0,0.0,0.5911503255417032,-0.14970032554170326,9.776449891486099
4715000000.0,22.09,0.0,0.0,0.0,0.5843817915832179,-0.14293179158321792,9.797345374749655
4720000000.0,22.09,0.0,0.0,0.0,0.5940936916803369,-0.14715,9.804506308319663
4725000000.0,22.09,0.0,0.0,0.0,0.5822232246676323,-0.14175440822254406,9.80019
4730000000.0,22.09,0.0,0.0,0.0,0.5795749837491498,-0.14793498374914982,9.794892508125425
4735000000.0,22.09,0.0,0.0,0.0,0.5886,-0.15176060802830607,9.81637695985847
4740000000.0,22.09,0.0,0.0,0.0,0.5886,-0.16245387620643875,9.834328707931187
4745000000.0,22.09,0.0,0.0,0.0,0.5835968078340681,-0.16657361566813614,9.824616807834069
4750000000.0,22.09,0.0,0.0,0.0,0.5836950922630509,-0.16186509226305093,9.8099998154739
4755000000.0,22.09,0.0,0.0,0.0,0.5886,-0.16677,9.80019
4760000000.0,22.09,0.0,0.0,0.0,0.5933088924572889,-0.15735221508542216,9.80489889245729
4765000000.0,22.09,0.0,0.0,0.0,0.5891884148911841,-0.15637158510881585,9.814610792554408
4770000000.0,22.09,0.0,0.0,0.0,0.5742773073484732,-0.15774461469694614,9.80627192204542
4775000000.0,22.09,0.0,0.0,0.0,0.573394592748646,-0.15156459274864592,9.794794592748646
4780000000.0,22.09,0.0,0.0,0.0,0.57879,-0.14832701430847012,9.808822985691531
4785000000.0,22.09,0.0,0.0,0.0,0.5872267858857678,-0.1499951788286518,9.832465178828652
4790000000.0,22.09,0.0,0.0,0.0,0.59841,-0.16264970695999706,9.840999413919993
4795000000.0,22.09,0.0,0.0,0.0,0.59841,-0.15293780686287806,9.813531227451513
4800000000.0,22.09,0.0,0.0,0.0,0.5944859067657591,-0.15499818646848187,9.78645590676576
4805000000.0,22.09,0.0,0.0,0.0,0.5886,-0.15529202000592018,9.788221986662721
4810000000.0,22.09,0.0,0.0,0.0,0.5848721065715211,-0.1485236802854368,9.818829467142395
4815000000.0,22.09,0.0,0.0,0.0,0.57879,-0.16314020647440206,9.852869793525597
4820000000.0,22.09,0.0,0.0,0.0,0.5858533872454339,-0.14283322550913224,9.837859838263698
4825000000.0,22.09,0.0,0.0,0.0,0.594976406280164,-0.12115359371983594,9.789889218840493
4830000000.0,22.09,0.0,0.0,0.0,0.6019419752678198,-0.12753,9.77076
4835000000.0,22.09,0.00105403491194544,0.02144356271679179,0.0,0.6634513330548134,-0.08220648520296485,9.796659151312591
4840000000.0,22.09,0.004556746422155022,0.07486444898240306,0.002384889309259497,0.7200535299440354,-0.04669729220147293,9.861797176044771
4845000000.0,22.09,0.005142192082036056,0.10577790574578803,0.008772763805432666,0.6045877590755776,-0.12419328248363283,9.74858507101765
4850000000.0,22.09,-0.0035134602465282687,0.11568527013633428,0.006281266172610944,0.3541388332750883,-0.03825928261629283,9.398959775329399
4855000000.0,22.09,-0.014803810694089401,0.08704497008325612,-0.0020652793554592945,0.23033993163059932,-0.02756506267195063,9.531599555598895
4860000000.0,22.09,-0.02297134597289302,0.0761483667692068,0.0076228693062436875,0.2699696896052969,0.0050996896052969,10.151783043190731
4865000000.0,22.09,-0.025941752614329055,0.03482837401242708,0.003885924302253947,0.15696,-0.11850517798715178,10.254193398115634
4870000000.0,22.09,-0.030104496401951647,-0.024390247659960704,-0.002768194853686287,0.17226416756344168,-0.16755555675125558,9.89691291083763
4875000000.0,22.09,-0.03275553867260016,-0.09853344737785548,-0.010114162462222381,0.24034594691025946,-0.269776704438467,9.537769564578195
4880000000.0,22.09,-0.034511986322699625,-0.1723654320101043,-0.0057064153644140764,0.38220034885620346,-0.3998555052118551,9.389742822796928
4885000000.0,22.09,-0.018697906709315273,-0.19712273322774468,0.0005002726226997177,0.6164611590821116,-0.42624592327895927,9.846305539673756
4890000000.0,22.09,-0.0031086361493772403,-0.2180946067274609,-0.007814506268391882,0.7308473745595738,-0.5266002301057023,10.52613
4895000000.0,22.09,0.012321851040331865,-0.18150648858858845,-0.00554684121446571,0.9283205852385058,-0.4848103901590039,10.418999855865898
4900000000.0,22.09,0.031108965670973078,-0.13529037385058632,-0.005323202572369715,0.9653046662363467,-0.46303019164420195,9.85315610034046
4905000000.0,22.09,0.05366160739804254,-0.07849934131151587,-0.0010646508437165,1.0071920330838204,-0.2822320803464208,9.20178
4910000000.0,22.09,0.07522378408353708,-0.02854654012888517,-0.00010641333275825235,0.9639312675960127,-0.12595925554969256,9.297138350026383
4915000000.0,22.09,0.08164415042351515,0.013271877684648582,0.0055256104049278216,1.021907795467978,0.0005903184236031866,9.81324197793092
4920000000.0,22.09,0.07115337551724951,0.044491787922177686,0.01034832322970263,1.022201522174515,0.1549984778254848,10.187094870958449
4925000000.0,22.09,0.04943183840278623,0.029721066485012083,0.0020759964716476004,0.9633408520534085,0.1932568086755681,10.059664786986648
4930000000.0,22.09,0.025161885917574813,0.014962562012218907,-0.004407664885469274,0.8467980508879805,0.16833902544399024,9.992655784124558
4935000000.0,22.09,0.008197707466388378,0.0024061317128450895,-0.004631179155052483,0.748110791712908,0.12027079171290792,9.417206833148368
4940000000.0,22.09,-0.0024701045066146316,0.00950130161366497,0.0001277685148089167,0.7651800000000001,0.1349854080928541,9.383071582653615
4945000000.0,22.09,-0.015120170495898526,0.05075512295816739,0.0009475288268047048,0.7641008039493081,0.11016562764515628,9.651766332861763
4950000000.0,22.09,-0.03547220753895173,0.07892955727185319,0.0008518041521174189,0.7465401346697014,0.044144519260945196,9.801171096147812
4955000000.0,22.09,-0.04928580084792998,0.12917109167926977,0.007750574580791856,0.6591330337956305,-0.006180973714509737,9.804702022530421
4960000000.0,22.09,-0.06276412384109535,0.14564808174491783,0.0005962776625430298,0.5725108292636083,-0.07416427439434274,9.746430621947706
4965000000.0,22.09,-0.06163558346995258,0.17866791739820526,0.007378019880692392,0.48657407121664076,-0.14420796439167963,9.708076318100863
4970000000.0,22.09,-0.05908034808633039,0.1746435685972061,0.006196236480020632,0.2988117311734173,-0.23838348268143483,9.914966517318565
4975000000.0,22.09,-0.049860524121601024,0.17156458345618283,0.0028744943539751946,0.20747985723209858,-0.2869429831670299,9.864935226932753
4980000000.0,22.09,-0.04572900149778997,0.131149394095028,-0.002980969872989874,0.05101248365262484,-0.33550248365262486,9.795482457496826
4985000000.0,22.09,-0.0435403377499588,0.1072893002364798,0.0020654016199633542,0.09309525393005255,-0.3834731904829319,9.920559571448795
4990000000.0,22.09,-0.03908998147246637,0.061804734631683546,0.00010651767918851039,-0.06690332767713328,-0.41300148462381486,10.005218515376187
4995000000.0,22.09,-0.023215799351991608,0.010209395176061604,0.0052912831047609585,0.01942360595623606,-0.460971802978118,9.95665901489059
5000000000.0,22.09,-0.00106453490323846,-0.03302245208948523,0.002129248987215709,9.711900097119003e-07,-0.4512592230479922,9.908098834571987
5005000000.0,22.09,0.010529512900775098,-0.11528662734270248,-0.0031407727418812817,0.09711997216119973,-0.37356402227104024,9.791556033406561
5010000000.0,22.09,0.03779119092407775,-0.1411747008461636,-0.005280689307081128,0.2423084596985846,-0.31509661612056616,9.857677281192673
5015000000.0,22.09,0.04041032744645268,-0.19333885304738158,-0.010486863668925862,0.4165343533864435,-0.304404202589642,10.087429137848591
5020000000.0,22.09,0.052755845394104495,-0.18471507023353148,-0.004514056084136279,0.6007662526420625,-0.24760381495513814,9.859047562313076
5025000000.0,22.09,0.05124459098231811,-0.19238074687227627,-0.006281461163414896,0.6548179880229799,-0.2079716095816161,9.886518390418383
5030000000.0,22.09,0.05414049427256558,-0.17479243933302271,-0.00038321068403563904,0.8232569586308697,-0.1322380183862802,9.602613571246836
5035000000.0,22.09,0.057302507310023815,-0.14689290628591117,0.0,0.87946698899417,-0.04541941981049419,9.684727375787174
5040000000.0,22.09,0.05556707334456702,-0.12821240419484958,-0.0029384682017490494,0.9731529789595298,0.01491178737571787,9.674229404208095
5045000000.0,22.09,0.06508517948515902,-0.09090019350243386,-0.00028742382309191643,1.043490385951504,0.09996478193764782,9.779786375916865
5050000000.0,22.09,0.050712116418844884,-0.07296507485270103,-0.004790982023943894,1.058499098090191,0.10791,9.728576313368663
5055000000.0,22.09,0.03288496337381154,-0.015430001397378282,-0.0034281544047993686,1.10313499093655,0.13410299456192992,9.73044099818731
5060000000.0,22.09,0.007454383463157577,0.024289771637354986,-0.0013201457131605124,1.0394668137245682,0.12007420343114204,9.748785796568857
5065000000.0,22.09,-0.012414021024887228,0.07325372688459478,0.005419147533965321,1.03005,0.13478959676309596,9.699931209710712
5070000000.0,22.09,-0.02132939471120738,0.11379376845148492,0.002725463409498001,0.8360059349906593,0.0782831106493311,9.548856125862661
5075000000.0,22.09,-0.035044615824811616,0.1265504189887577,0.005749157348645711,0.7710656056968561,0.06033140142421402,9.667266175788361
5080000000.0,22.09,-0.04713238535533428,0.1528834630447029,0.0063879050622992,0.6992560106167602,0.050619501327095015,9.832368477439385
5085000000.0,22.09,-0.062263909188634586,0.13643300285591697,0.003736892303772441,0.6134184110697841,-0.048658785240287834,10.095179564330698
5090000000.0,22.09,-0.07283582784625506,0.14170409830442476,0.00406697695276137,0.5260113101957131,-0.20542308074143079,10.00678691925857
5095000000.0,22.09,-0.08492313807278558,0.11101649457715139,-5.3286243707225886e-05,0.39887321450033214,-0.33874058653540584,9.873469413464594
5100000000.0,22.09,-0.08053987765577564,0.08628886320171303,0.0031940062853712163,0.388476198122762,-0.41005859436828596,9.566708433790284
5105000000.0,22.09,-0.061159950548747705,0.043312991604379514,0.0017353485911048034,0.3226500075735001,-0.5380799873775,9.7673299705475
5110000000.0,22.09,-0.03568682680667909,0.002281793792115565,0.00023421241369321567,0.35767329478933296,-0.5613281007443811,10.023075582134856
5115000000.0,22.09,-0.010139231333552289,-0.02607635064532991,-0.003279167728504728,0.387887598705476,-0.5667237993527381,10.097531398058214
5120000000.0,22.09,0.010306014441257097,-0.05300802457322163,-0.0042586033748661,0.437134196699142,-0.4944230055014301,9.828439120355291
5125000000.0,22.09,0.02929118281250387,-0.05725985702417027,-0.0018631065658702658,0.49540559728185596,-0.39730400453024006,9.675111604077216
5130000000.0,22.09,0.04828053979702096,-0.05961281105575584,-0.0010646508437165,0.55367699786457,-0.2711470049826701,9.689337498220475
5135000000.0,22.09,0.06259392005731938,-0.049839121509354795,0.0012669669778965296,0.597625598964856,-0.15666460284664602,9.952738990942489
5140000000.0,22.09,0.06680981833810595,-0.03737017244756466,0.0005961828021518898,0.594093400323334,-0.049833701778337014,9.960680401940005
5145000000.0,22.09,0.06559608384969497,-0.01971154232583583,0.0,0.5886,0.06396239922542399,9.774485601420055
5150000000.0,22.09,0.05827121003013178,-0.0011709313719272772,0.0,0.533663199739432,0.139302600195426,9.588292199413722
5155000000.0,22.09,0.04656926812092656,0.016024565508036374,0.00367309974474609,0.51012,0.21788100116721001,9.59624100116721
5160000000.0,22.09,0.025952097666983306,0.02999815157947587,0.0031513338654263574,0.49677819954638197,0.23190819954638198,9.850420607711506
5165000000.0,22.09,-0.005446659587368945,0.02980631857251938,0.0007026477811231053,0.477354399352144,0.17962039773250396,10.02945080356321
5170000000.0,22.09,-0.027592073620852385,0.02769837522915,0.0,0.451455898736859,0.10516239663162395,9.916141890315918
5175000000.0,22.09,-0.040634002978700706,0.012462283348240757,0.0,0.40319039689100394,-0.01079240725432408,9.68001498704585
5180000000.0,22.09,-0.04542534647429894,-0.004599433598160731,-0.0006813874594635827,0.401425501845855,-0.12164500615285007,9.56906599753886
5185000000.0,22.09,-0.05520526632678194,-0.027032118347645757,-0.0003939098821500388,0.46146320569923205,-0.2496660106860601,9.777434425646543
5190000000.0,22.09,-0.060059910213213295,-0.04851265992569393,-0.0013201889273386793,0.5452407072857071,-0.35276840647618407,9.99325221133332
5195000000.0,22.09,-0.05381032214121595,-0.06708681384220035,-0.002778749653205279,0.5967426027199261,-0.4484162099730621,10.027487397280073
5200000000.0,22.09,-0.039842200598504296,-0.0790425480755346,-0.0019163495953993467,0.6847393130488931,-0.514044404015044,9.886515777917259
5205000000.0,22.09,-0.016051147635868037,-0.08328678478368941,-0.001692805813694475,0.74732600220176,-0.51237599669736,9.75967399229384
5210000000.0,22.09,0.00933670610061936,-0.0841597765311665,-0.0027468101595139113,0.8236488143759881,-0.46617059281200596,9.725830098802001
5215000000.0,22.09,0.031925269937276485,-0.06958514059380255,-0.002587090556965811,0.895457205180472,-0.3911237883439379,9.794403416836534
5220000000.0,22.09,0.048703195937106,-0.04367554205808233,-0.002129301687433,0.91233,-0.2817418819009188,9.84924
5225000000.0,22.09,0.06018778939847851,-0.010866895890544747,-0.0003725947522645336,0.890747594042576,-0.14469597765965977,9.833053195531932
5230000000.0,22.09,0.06267891812977928,0.027678886757910803,0.0016395733242088673,0.8518999936541,-0.020207482548774823,9.78802499048115
5235000000.0,22.09,0.057334348781311065,0.06444525071643911,0.002129301687433,0.7870553848476539,0.0970222218867222,9.750551196632811
5240000000.0,22.09,0.0487867288744102,0.09369930214807422,0.0032365606568293005,0.6741417750700177,0.1875678106842781,9.756633905342138
5245000000.0,22.09,0.03280847814887764,0.10709064372633975,0.005344569348468156,0.5631911830995118,0.23082960563349605,9.745743990610839
5250000000.0,22.09,0.01118732791589842,0.11239055465149421,0.004790895595587506,0.47578408222544083,0.240344898025049,9.746235509874754
5255000000.0,22.09,-0.014094182052117564,0.10723947299313293,0.0031939525311496,0.3835699792792998,0.20179098549550986,9.84767203315312
5260000000.0,22.09,-0.0410364476696804,0.08777936763728841,0.0031939525311496,0.3099954891540549,0.09142756529297566,9.8853398804773
5265000000.0,22.09,-0.0628388485331965,0.062187504534557465,0.0021931585407245196,0.27526839546738396,-0.05474123172831233,9.853262406798924
5270000000.0,22.09,-0.07537769563833438,0.028657568065457027,0.000574900346401105,0.2784081070902811,-0.20424594017825942,9.828245678729157
5275000000.0,22.09,-0.07739135615040406,-0.00490555939790472,-0.0009582079988365468,0.303129204921092,-0.3516898319870983,9.754082385236725
5280000000.0,22.09,-0.06812979646457556,-0.03396650233909479,-0.0030662166904753476,0.34413551790365515,-0.4606785230189852,9.777824533249646
5285000000.0,22.09,-0.049884788822172635,-0.06060314932307038,-0.0024273593603699357,0.43742923451219234,-0.5354304159287042,9.89142402654784
5290000000.0,22.09,-0.02895442904604994,-0.07903944126813463,-0.00044716450572690876,0.5472027247671273,-0.556619091744291,9.94734
5295000000.0,22.09,-0.0055036277274375135,-0.0852244273748831,-0.0019376868593761155,0.6185210142451102,-0.531505594301956,9.903095768660759
5300000000.0,22.09,0.019383883822063325,-0.08224332680535432,-0.002768081021216894,0.6749287206229873,-0.4767648675924487,9.80411307348473
5305000000.0,22.09,0.043228037523641925,-0.07278236435703013,-0.002129301687433,0.71995600304326,-0.36610796348087965,9.72435797869718
5310000000.0,22.09,0.06399930837194803,-0.05688040533432206,-0.0017247231732945773,0.7445795157018952,-0.24210935603469355,9.71974903140379
5315000000.0,22.09,0.07535478757958591,-0.03460770151134781,0.00011714520500740312,0.771360196762502,-0.10614275467502754,9.820497835612478
5320000000.0,22.09,0.07440122414593235,-0.010742603706692196,0.0013627306507446408,0.758116593330766,0.02982384668463848,9.870821483326914
5325000000.0,22.09,0.06471227696362541,0.012462770661102482,0.0011179170613412088,0.7146575691143757,0.1383216205904162,9.832562793136528
5330000000.0,22.09,0.048534284950135835,0.03168029297719944,0.003555945053699536,0.6405924823557249,0.19325751764427518,9.769777447067176
5335000000.0,22.09,0.02954486050934064,0.042226062478150486,0.003555911325560437,0.5887955782441558,0.23210480725194807,9.682372210877922
5340000000.0,22.09,0.005322972799422378,0.0479441945522842,0.002129301687433,0.5493600000000001,0.22641417766144178,9.739761644677117
5345000000.0,22.09,-0.01872217534944405,0.045958465673741566,0.0014691956297158562,0.5311127770787278,0.1620603694383037,9.825892407640424
5350000000.0,22.09,-0.03739212580299969,0.0380253643568889,0.0,0.49932931175199313,0.06670654515736546,9.830600688248007
5355000000.0,22.09,-0.05377861663648938,0.025499974813795935,0.0003087600330643287,0.5085499839421999,-0.06357004817340048,9.79008497189885
5360000000.0,22.09,-0.06463798757531909,0.010433408784523252,0.0007665373085492927,0.4944245205578452,-0.18835356167353562,9.749570712334707
5365000000.0,22.09,-0.0680873432775346,-0.006531237126229808,-0.0005749340745401713,0.5403352168347522,-0.32873445471294455,9.794599237878192
5370000000.0,22.09,-0.060826299961154184,-0.025185957718072353,-0.0012988400693141077,0.5842842258348423,-0.4396849301406493,9.8947598602813
5375000000.0,22.09,-0.04394717509908285,-0.0378126262277374,0.0007984768022406574,0.6327452088058522,-0.49785781320877814,9.969411351567814
5380000000.0,22.09,-0.02288170359443145,-0.0426034870411815,-0.0015331652614723739,0.6592325225002252,-0.5105119819998198,9.860225945999458
5385000000.0,22.09,0.0003981509364562718,-0.04088931972141023,-0.005408380879572756,0.701022809194328,-0.4694079770141798,9.741426740236866
5390000000.0,22.09,0.020203437808388756,-0.03280858565732083,-0.001660832591864044,0.7204466093885661,-0.40574034366860345,9.662654742248549
5395000000.0,22.09,0.03828482921145583,-0.020028996322386007,0.0006707641496620901,0.7398704095828041,-0.29125774729457743,9.768603686245237
5400000000.0,22.09,0.050925262447678254,-0.000212770803286212,0.002981010979159345,0.7494836853344369,-0.17854053156070532,9.923796839108167
5405000000.0,22.09,0.05392750950639715,0.01495119645873402,0.0019270066333398866,0.7128919651005197,-0.05189395512923955,9.96234793518668
5410000000.0,22.09,0.05162785225856231,0.031637754415806484,0.0014479479561085016,0.6449086644206866,0.03374724066207241,9.827263708510337
5415000000.0,22.09,0.04683385344955682,0.04708878273335737,0.0026509463562529724,0.5785931689207316,0.10810683107926831,9.679134389640245
5420000000.0,22.09,0.033660248572855975,0.060294258593467154,0.0006814222416070107,0.5218914736150148,0.15696,9.667559115830992
5425000000.0,22.09,0.016410183641670472,0.06955662955162427,0.00393918524985683,0.4689171570070716,0.15696,9.721712107482322
5430000000.0,22.09,-0.008903199417763092,0.07047213772640303,0.002129301687433,0.39808948358629487,0.1445984507588845,9.892600516413705
5435000000.0,22.09,-0.03269173662753466,0.06262553491767218,0.002129301687433,0.3664029721582297,0.05846675545316755,9.906431349884812
5440000000.0,22.09,-0.04601257899984258,0.04368320990514062,0.002129301687433,0.32373,-0.028646890647568906,9.81784694334527
5445000000.0,22.09,-0.0553967504583,0.01696445328713925,0.001895055545600718,0.3248092057625921,-0.1797204691511047,9.735836823050368
5450000000.0,22.09,-0.055077320739242916,-0.012458470582552917,-0.00031942971905706826,0.34138884687768845,-0.29528216445682165,9.785476587895666
5455000000.0,22.09,-0.05143458634133703,-0.04026305615359149,-0.003098122456027693,0.41908404765464047,-0.39858104169781045,9.91967601191366
5460000000.0,22.09,-0.04247556780375118,-0.06033682245096434,-0.0020441181102082238,0.4944245302697453,-0.46577943632369434,9.928896033406561
5465000000.0,22.09,-0.02742013672563542,-0.06847070890020912,-0.0009901137643888451,0.5443576430574765,-0.5178695815467959,9.821378326187183
5470000000.0,22.09,-0.008304045964838093,-0.07255894512062568,0.0,0.6111635312409353,-0.48755646875906467,9.715432237489122
5475000000.0,22.09,0.012723669721845177,-0.07392153664279673,-5.324408353341172e-05,0.6611948507624485,-0.4370345428922454,9.774194244417142
5480000000.0,22.09,0.032724433466545355,-0.06123088690732741,-0.0011072484293527902,0.7365350128848501,-0.34805741624847414,9.840607519327275
5485000000.0,22.09,0.0514576579608255,-0.04749635553561223,-0.0020973505996938315,0.755664406539544,-0.22239152806501528,9.867093560762735
5490000000.0,22.09,0.06174204634091511,-0.032552579215636465,-0.0010646508437165,0.7643947734533478,-0.11556062699670627,9.808429546906696
5495000000.0,22.09,0.05960206337344147,-0.009368695754550281,-0.0010220184759367967,0.725841793266218,-0.008729725928397259,9.731421793266218
5500000000.0,22.09,0.0543319718899912,0.011711356569760925,0.0031939525311496,0.7161291453527915,0.09810074781630748,9.721711175139912
5505000000.0,22.09,0.04272064532621005,0.029646709208458542,0.0031939525311496,0.6384339445758395,0.1660840484961405,9.82854207620822
5510000000.0,22.09,0.02382283708571972,0.04339147966219438,0.00528069141508982,0.6088082789245828,0.1571560929748609,9.810392185949722
5515000000.0,22.09,0.006899274864787069,0.051946851321810934,0.0042905312745096635,0.5511251572664516,0.18550742136677423,9.71484192877742
5520000000.0,22.09,-0.013031547415042009,0.05118072148097449,0.0011923740363385506,0.5022714639031147,0.1204660494643605,9.730735414438755
5525000000.0,22.09,-0.03206278085615649,0.048103857238597614,5.322089543780364e-05,0.4630315707340157,0.07112196341751963,9.796757251215473
5530000000.0,22.09,-0.04804978748952868,0.02991368615934331,0.0010007834503815748,0.47951301482723013,-0.023545074136150743,9.920069596376997
5535000000.0,22.09,-0.05692994101587661,0.009934192222341768,-0.0009156230612524065,0.48069,-0.19365133519321337,9.936843407510734
5540000000.0,22.09,-0.06536197578243202,-0.013031583251189732,-0.0010646508437165,0.4987406152157062,-0.3323643065099431,9.82020100109791
5545000000.0,22.09,-0.05732366328525315,-0.029453653850199844,-0.0010646508437165,0.5538732462298325,-0.4236948693447487,9.711800715245307
5550000000.0,22.09,-0.03919813888867804,-0.043348894724610204,-0.0010646508437165,0.6033155390104554,-0.48461464681254646,9.719748215604183
5555000000.0,22.09,-0.019276764565574804,-0.05232873003809242,-0.000117099882820533,0.6606060473952606,-0.48176899210078994,9.861406126387362
5560000000.0,22.09,0.00076467709455149,-0.051393639844869124,-0.0018738089259976909,0.7016116319853163,-0.4634241840073418,9.956366171966962
5565000000.0,22.09,0.01617674859937917,-0.044639156770916566,-0.003055559652534811,0.7575288485606886,-0.39279153525241534,9.856007494785175
5570000000.0,22.09,0.03368191257817994,-0.032680800278442446,-0.0013627295967403089,0.7483065836188658,-0.2897862099037621,9.763499626284895
5575000000.0,22.09,0.04799496207118015,-0.011873227913541652,-0.00015968587440901916,0.7622372165753722,-0.19129391712313915,9.767817216575372
5580000000.0,22.09,0.05365077012535882,0.0138554159940752,0.0017886369428207185,0.7322179664607797,-0.06945339099753392,9.80372203353922
5585000000.0,22.09,0.05344842764107016,0.04020831697353287,0.0012456297139197621,0.6770855491084556,0.024231676337316772,9.769287957590379
5590000000.0,22.09,0.04715627044155384,0.05784248275589977,0.0010646508437165,0.6188141485257415,0.11968308579043085,9.768994308579042
5595000000.0,22.09,0.03286507083877517,0.07106855240951104,0.004514166754592641,0.5446503305907033,0.15323241735232415,9.73102895661919
5600000000.0,22.09,0.011927332012784914,0.07776844002812876,0.0053232542185827,0.4669551298137513,0.17265621754656216,9.776646761412968
5605000000.0,22.09,-0.010210249714404637,0.07209404616239985,0.0053232542185827,0.42025996451839964,0.14557996451839963,9.898880124185602
5610000000.0,22.09,-0.030697075770590304,0.054523512073805985,0.0011710567984443932,0.3661085461948854,0.04551709238977093,9.92006809103248
5615000000.0,22.09,-0.04500188619801306,0.032844404301695135,-0.0008197929861305085,0.33049857280608574,-0.0559180906463809,9.789495245901152
5620000000.0,22.09,-0.05118078050521783,0.0042198623738524815,-0.0010646508437165,0.3386414183235142,-0.19031563742635638,9.669127199220673
5625000000.0,22.09,-0.054598297898159245,-0.021572542472660428,-0.0010646508437165,0.3948532648121327,-0.3139213111065131,9.768309357400895
5630000000.0,22.09,-0.05224533648854328,-0.04425621420139625,-0.0002767973512773561,0.45557705613597055,-0.4014260748479607,9.940671168407912
5635000000.0,22.09,-0.04335333603974213,-0.0562911521960537,-0.0007772069945420223,0.5210098661717988,-0.47195986617179864,10.00090281890623
5640000000.0,22.09,-0.025909535917494807,-0.06089038447938438,-0.0002980903470715992,0.5889931668516317,-0.47637338089953385,9.871997118545572
5645000000.0,22.09,-0.00360331931791609,-0.05876099952560794,0.0,0.6430460482367605,-0.4639147903526479,9.694436226347664
5650000000.0,22.09,0.01736625254732657,-0.053054447140628916,-0.0014905350017013154,0.6778713292334133,-0.39239890255528903,9.698166877955769
5655000000.0,22.09,0.0359283289044944,-0.043779894086636656,-0.0006600596815259277,0.7070070295247703,-0.295279901584099,9.830014157465442
5660000000.0,22.09,0.04734250067242568,-0.024546746242506766,0.0007239745050564146,0.7228009099387092,-0.2048318105516181,9.95872091926451
5665000000.0,22.09,0.052213480261195246,0.0015063552959144397,0.0003513228365572069,0.7062215698925157,-0.0977062795700628,9.878079419355094
5670000000.0,22.09,0.051862085752342496,0.02400897648215146,0.001405363018524343,0.6576617392023174,-0.0005876088034760807,9.68384108720811
5675000000.0,22.09,0.044898487144896235,0.0412841977670276,0.00420540672152828,0.5802605079294052,0.09957271253072711,9.652059661380397
5680000000.0,22.09,0.03268078552238161,0.049605097762439446,0.0032790886781787864,0.543081489672815,0.16245404130874042,9.779394675562147
5685000000.0,22.09,0.015614023178127934,0.05046740506786299,0.00280004370300387,0.5086479478784796,0.17658,9.91359492509165
5690000000.0,22.09,-0.0027044170507207234,0.044781910860332945,0.0025338570134758524,0.4540061368714614,0.13400382635003827,9.89632689478577
5695000000.0,22.09,-0.021932035674446217,0.028549855801933234,0.0008304036478798723,0.4196715787629158,0.04806789381457894,9.775271051340411
5700000000.0,22.09,-0.037493307179136605,0.00426528410365774,-0.0006388025218794423,0.4179061107156611,-0.06082332858793328,9.709937778568678
5705000000.0,22.09,-0.04889534492074239,-0.02021763522964818,-0.00043649481973417924,0.4507700540639005,-0.1773661297533613,9.77154612975336
5710000000.0,22.09,-0.0538849582969521,-0.04157048101918728,-0.0012350190521703984,0.5163992872791929,-0.2825291090989911,9.88808893091879
5715000000.0,22.09,-0.04643293167390554,-0.05796271560616259,-0.0003087126028687669,0.5885026770491268,-0.37964811007018107,9.903979133957892
5720000000.0,22.09,-0.03331958699025674,-0.06570260679890522,-0.0007239987471563685,0.6564859777289599,-0.43831113331241134,9.829226600062766
5725000000.0,22.09,-0.017734085169726625,-0.0671079097391819,-0.0027148717198268897,0.729864889610049,-0.4404687775974878,9.774193166396232
5730000000.0,22.09,0.0007667660274923594,-0.06250852146320804,-0.00204410546215612,0.7863700451935005,-0.4104499548064996,9.798032579088625
5735000000.0,22.09,0.018055263585665966,-0.05068157403383208,-0.0010646508437165,0.8200182341864825,-0.3560041202315412,9.840018822790988
5740000000.0,22.09,0.03110537892874181,-0.03259552711084829,-0.0016182813824189698,0.8491539344778394,-0.2829195080590951,9.833936065522161
5745000000.0,22.09,0.042740291846264836,-0.010420570735131075,-0.0010433336058223032,0.8582767884102679,-0.17520503774375037,9.784787518871875
5750000000.0,22.09,0.05113819556763371,0.0181081790617461,0.0005323375429082269,0.8044188831314888,-0.049048659757786606,9.741329776626298
5755000000.0,22.09,0.05065899354581128,0.04715837748263489,0.0005429597987053947,0.7265279292961793,0.043459082487790825,9.74594103535191
5760000000.0,22.09,0.042314326754569274,0.07141775619624907,0.0025552227355700153,0.6635476168323762,0.10673347128653471,9.765658911881088
5765000000.0,22.09,0.02720841709297845,0.08866335897411845,0.0043224581201489285,0.5725102562615026,0.15578324791283246,9.76614918802179
5770000000.0,22.09,0.007248807051633374,0.09472113722725493,0.0041734556337891275,0.47401830339738305,0.17206728792467288,9.783513560376635
5775000000.0,22.09,-0.012411243464254616,0.09107988527782213,0.004844149165160036,0.4183961634826617,0.14028232696532328,9.827658448689785
5780000000.0,22.09,-0.030807375010026564,0.07631603517144703,0.0033216862638150604,0.3719944141130441,0.06042836503478365,9.85787302453913
5785000000.0,22.09,-0.04658227394707616,0.0512367412071982,0.0012136775721762476,0.3208847628999476,-0.059057773133577726,9.830894288699843
5790000000.0,22.09,-0.05639760768898581,0.01959933207284812,-0.0008943311194625092,0.29998968753619687,-0.1909040620294406,9.759968437680985
5795000000.0,22.09,-0.05984696655321439,-0.009418962690497048,-0.0012562635637647338,0.3345221256092213,-0.3131365507310655,9.763697700487377
5800000000.0,22.09,-0.05518372247795339,-0.029614893465244638,-0.0004258725639370115,0.41202056329020564,-0.40221056329020566,9.88063402784474
5805000000.0,22.09,-0.043423072198389624,-0.042269752599766876,-0.00064942477767661,0.472058102041281,-0.46224810204128103,9.97892797448968
5810000000.0,22.09,-0.024518826064797473,-0.052500973648573986,0.0,0.546025389965954,-0.5026641742954417,9.907313394363534
5815000000.0,22.09,-0.0023739139620065196,-0.0564614013020165,-0.0003939330702456469,0.5958596258987963,-0.46509130935421306,9.762812431657824
5820000000.0,22.09,0.01823331439723901,-0.05492825501262233,-0.0014479374160650254,0.6294102782791028,-0.39710800867438006,9.70719199132562
5825000000.0,22.09,0.03542338688703382,-0.04772500818005376,-0.0013840215385301923,0.6773808394309084,-0.30508941598909417,9.79577697086727
5830000000.0,22.09,0.04871084147728546,-0.03253165655550026,0.0,0.6998455132407551,-0.18246486759244868,9.908689619166797
5835000000.0,22.09,0.0543320996145834,-0.013202508354070944,0.0,0.6966077599863776,-0.08534586662125868,9.924873626607637
5840000000.0,22.09,0.052287896130023104,0.0033644567061641376,0.0010221017422801493,0.6549148059550481,-0.0007841193900411936,9.776643731300137
5845000000.0,22.09,0.04562840524957381,0.017732032090212253,0.0031939525311496,0.5899727188073272,0.06661092178900922,9.655394854128449
5850000000.0,22.09,0.036641294334158796,0.03355413984735362,0.002874544946183774,0.5464168863707689,0.14518868177538682,9.720730477180005
5855000000.0,22.09,0.022135614004748574,0.042880222206202495,0.0018205406003643254,0.5253249313682493,0.1721649313682493,9.849830192168902
5860000000.0,22.09,0.002256800377129463,0.03506562318542818,0.001362765432888053,0.48225925852959256,0.11811160323571603,9.922617775588778
5865000000.0,22.09,-0.019882003476738526,0.02202952233338208,0.0018418335961585684,0.46107,0.04747948863529488,9.808722535508826
5870000000.0,22.09,-0.038430154725900854,0.00404542572590242,0.00078782925033919,0.4661714280354143,-0.0353171401770714,9.675210714017707
5875000000.0,22.09,-0.04580185263669081,-0.01624049943020068,-0.0005323501909603768,0.49050045645930457,-0.14224659760756597,9.721711825837218
5880000000.0,22.09,-0.04824225960325148,-0.0354534950568137,-0.0016182444922668662,0.5387661136955612,-0.27114965633139654,9.879456741603068
5885000000.0,22.09,-0.044096703706398836,-0.056450916066784304,-0.0004897641993718906,0.6074356572362566,-0.3644420715453207,9.981379442600295
5890000000.0,22.09,-0.036002527648427075,-0.06898179455349258,-0.0025977728910106693,0.6549165152494651,-0.4108432576247326,9.870231912719618
5895000000.0,22.09,-0.02344651686006171,-0.07428358186556402,-0.00336424695929927,0.7346719305297194,-0.4455704290066043,9.758398712980187
5900000000.0,22.09,-0.003193703786123947,-0.06774661318465287,0.00021294260599458067,0.8083442292008424,-0.4492973123974731,9.72759691680337
5905000000.0,22.09,0.016473626703223016,-0.05854460146139879,0.0012669469518139592,0.8314960587901606,-0.38356985302459856,9.805292117580322
5910000000.0,22.09,0.029614871331153446,-0.040324847694006676,0.0015543528568319873,0.8668118295893184,-0.2935145112320451,9.86886
5915000000.0,22.09,0.03961487271657407,-0.015536771139114303,-0.0008836477314132839,0.8795643702164437,-0.22356840640688405,9.845510591515106
5920000000.0,22.09,0.04700738916569381,0.012736403683988554,0.0001703566144060945,0.8554314250555143,-0.0988834201332342,9.725241140044412
5925000000.0,22.09,0.052149477955304044,0.04574723739717611,0.001224360960225473,0.8039286943978871,0.01618776594617766,9.70405292068813
5930000000.0,22.09,0.04417274939424179,0.07950321423870148,0.0027255561618804336,0.7304513329855133,0.11889812146508122,9.77900109109881
5935000000.0,22.09,0.031315668744028025,0.10457151493762339,0.006111070820869727,0.6223450166369502,0.18511458471974584,9.825793754159237
5940000000.0,22.09,0.010092627045428541,0.11343388509530355,0.004003062129230871,0.5058022154715222,0.17658,9.797835369245254
5945000000.0,22.09,-0.011457763659798309,0.11589112053715224,0.002129301687433,0.39357627620406277,0.16578784525507845,9.78057
5950000000.0,22.09,-0.02823088879078394,0.10342971849205329,0.002129301687433,0.3178433065703331,0.0716121909987219,9.787437809001279
5955000000.0,22.09,-0.04404252498019204,0.0822520913698526,0.002033470558306756,0.26310396866253966,-0.0025522193622221963,9.84924
5960000000.0,22.09,-0.05918699540805348,0.04904817363294384,0.0008942815812582556,0.24603491576584915,-0.13773390495603904,9.846100336936603
5965000000.0,22.09,-0.06567056822880539,0.010612982321358308,-0.0011391889770485007,0.25574681586296816,-0.26398860621858605,9.807252736548127
5970000000.0,22.09,-0.060336654864273406,-0.019586025250703375,-0.0020015184165632417,0.26957972768069727,-0.3884771596008716,9.774881011720609
5975000000.0,22.09,-0.05347930454287207,-0.04350952725043059,0.0,0.3482561605720616,-0.483633696343237,9.843845544514856
5980000000.0,22.09,-0.03629976577250937,-0.06131638563185163,-0.000127795918921912,0.44419761308027617,-0.5387649676913497,9.926542451537026
5985000000.0,22.09,-0.012104815147984576,-0.07575344886149071,-0.0031620003894060823,0.5115920812572208,-0.5178690862398909,9.894757004982669
5990000000.0,22.09,0.010008319743226616,-0.07992247880014679,-0.0021506073312793947,0.5603478980913791,-0.44988578556005787,9.778803152862933
5995000000.0,22.09,0.031105685419382564,-0.08085905780042665,-0.0031832933852003276,0.618521082228411,-0.381411402651814,9.693360380902504
6000000000.0,22.09,0.0522028738154632,-0.0703016851976014,-0.0021292763913287,0.6670808157996083,-0.264868601486386,9.800191748142018
6005000000.0,22.09,0.05852689989037976,-0.05554562435612961,-2.1267699689943298e-05,0.7350641164794411,-0.14832580032095802,9.945870249598803
6010000000.0,22.09,0.06589429646127075,-0.0376423475923741,0.0010433704959744068,0.7165221665259217,-0.041396915892569164,9.918498249788883
6015000000.0,22.09,0.057781466910846735,-0.0176584768591297,0.0020973748417937852,0.7066141831658418,0.036886534673265345,9.75614111381931
6020000000.0,22.09,0.049349432144291404,0.00034020607993422505,8.514668707267255e-05,0.6592314153436142,0.14283488624404886,9.694633698412337
6025000000.0,22.09,0.03887795453706694,0.012190391868830343,0.0030342930068492212,0.6293111489148115,0.16578923405679236,9.673640765943208
6030000000.0,22.09,0.02033076258736808,0.018796923454264754,0.0031939525311496,0.618618482874485,0.17599151712551517,9.801761239757212
6035000000.0,22.09,-0.00459837544691255,0.0191811684794176,0.0012136765181719085,0.5997831655547317,0.13096291388682915,9.864740503335804
6040000000.0,22.09,-0.025993792471979305,0.010349687664246408,8.515933512482244e-05,0.5893846826802468,0.028251509482715098,9.84178404804074
6045000000.0,22.09,-0.04319989540026344,-0.002044282534886234,0.0,0.6064544348337443,-0.0785793915855939,9.79479391291564
6050000000.0,22.09,-0.05145588649053782,-0.01181773914632678,-0.0009581985127974343,0.6170491175139913,-0.17658117513991176,9.799209117513993
6055000000.0,22.09,-0.047465037852648564,-0.026057071972791893,-0.00011709882881618717,0.6704161056666611,-0.27370017611110176,9.81765203522222
6060000000.0,22.09,-0.0468795437085676,-0.03425671384817251,-0.0018738110340063825,0.6941558354164583,-0.3535533416658334,9.845708753124688
6065000000.0,22.09,-0.03945428698163511,-0.036077190154271854,-0.0002767836492208605,0.7733233602481336,-0.4056440890267409,9.840705182194652
6070000000.0,22.09,-0.020948245763344694,-0.027059456766792476,-0.0027468375636269305,0.7932367179024672,-0.41202,9.822556564195066
6075000000.0,22.09,-0.0036222257541324316,-0.009264849613524494,-0.0013840204845258614,0.8112872359991725,-0.38700414600124144,9.794794146001243
6080000000.0,22.09,0.012350142037504497,0.010604165920580784,0.0007239882071129102,0.7895084457098845,-0.3413874095164741,9.782139481903295
6085000000.0,22.09,0.02287265550276411,0.034179427044294275,0.0010646508437165,0.7522303272247033,-0.24397339986793398,9.772427581806175
6090000000.0,22.09,0.03323468799420525,0.053200646580185446,0.0010646508437165,0.6892497719633978,-0.15323113538151134,9.77076
6095000000.0,22.09,0.03946283129378264,0.07286075928232982,0.0036517909388866024,0.6212664712835647,-0.04198537934325379,9.818437310328374
6100000000.0,22.09,0.03706725121844346,0.08607628949723951,0.0042586033748661,0.5375869336333693,0.027468710911087102,9.853164355455544
6105000000.0,22.09,0.025281450511803638,0.09346490212160745,0.0034175163389370024,0.43467979559469794,0.08574011149380112,9.828049925670799
6110000000.0,22.09,0.009074458622743172,0.08899320120210784,0.0031939525311496,0.35845656924406566,0.10575191867941919,9.773898487923484
6115000000.0,22.09,-0.004514274263035859,0.08079537674123703,0.0031939525311496,0.2753656310111563,0.07769472489384725,9.708073268564233
6120000000.0,22.09,-0.017175591126676097,0.06830433954968568,0.002384804988911791,0.2625157188736572,0.016479967884399677,9.77429290761023
6125000000.0,22.09,-0.03222333498824382,0.044204490717837344,0.002129301687433,0.22072428617534287,-0.05886095176620952,9.873766189707762
6130000000.0,22.09,-0.04173056380398695,0.012843826234547336,0.0013414471409895104,0.2205290381357904,-0.12929663347526635,9.891030480932104
6135000000.0,22.09,-0.04601250314608719,-0.015184338954343745,-0.0004897652533762363,0.2399528383300284,-0.2259256108151561,9.852672904174929
6140000000.0,22.09,-0.04150104627122516,-0.048450780315440194,-0.0010646508437165,0.2735032770485328,-0.33981983114559833,9.768796807378667
6145000000.0,22.09,-0.03336221408801469,-0.07901280146380285,-0.0018205658964686251,0.37503785167027853,-0.4145713161555132,9.783121316155514
6150000000.0,22.09,-0.022694373656894213,-0.10227131767670948,-0.0028745702422880736,0.48755831402008315,-0.4591084778254848,9.868861194563712
6155000000.0,22.09,-0.007415172583550742,-0.11527579774178812,-0.004663196645065433,0.5943892150883922,-0.43703490223254904,9.91859705866047
6160000000.0,22.09,0.01381002906369213,-0.1182460568226158,-0.0031513275414002825,0.7012201161567012,-0.4151590803493908,9.84766896419269
6165000000.0,22.09,0.0327237351454694,-0.11396608245563376,-0.002129301687433,0.7620412789909128,-0.3725830815136308,9.744271802522718
6170000000.0,22.09,0.04678859381179697,-0.10271175905156842,-0.0014266191241664827,0.839737198448472,-0.2625139221721392,9.724849439689693
6175000000.0,22.09,0.05390629134491151,-0.08276409920782361,-0.0010646508437165,0.8858432398839324,-0.15843042052230422,9.820792679187527
6180000000.0,22.09,0.05607814002577228,-0.05274482916530588,-0.0017460404111887744,0.924102600195426,-0.0584662795700628,9.900252600195426
6185000000.0,22.09,0.055790658232441344,-0.019670154408892086,-0.0007878155482826945,0.9170383194551832,0.02364294095342942,9.849925378501753
6190000000.0,22.09,0.05077607445655359,0.011701065927921275,0.0,0.8660260786000608,0.09162624163326243,9.706600556033507
6195000000.0,22.09,0.03624344650170636,0.03968667042132819,0.00194835022134279,0.7898020170260202,0.15362532198265322,9.607324678017347
6200000000.0,22.09,0.01725408951718927,0.06093315702974211,0.0025551489552657516,0.7435977591448776,0.1824661204275612,9.672661806413418
6205000000.0,22.09,-0.0010968127323248856,0.077605214409715,0.002757458765419726,0.6894458358025584,0.1748139589506396,9.853068431018285
6210000000.0,22.09,-0.020877541475787405,0.0841597765311665,0.0031939525311496,0.6174405556474055,0.11556071440380714,9.931840079378201
6215000000.0,22.09,-0.04015431490536599,0.07808118711773071,0.0038008166133420233,0.5662327171243272,0.022561792810817924,9.83265904777839
6220000000.0,22.09,-0.05688745831671406,0.06336011586846067,0.0012775154533895337,0.521891395919814,-0.0910383706084837,9.684037908575478
6225000000.0,22.09,-0.0656706704672269,0.0466035846363204,-0.0004790797573183196,0.5057056209131562,-0.1957105882184059,9.66677496730525
6230000000.0,22.09,-0.0648082113851776,0.029635816505513522,0.0,0.5154175210102753,-0.2990102521233025,9.82393298323633
6235000000.0,22.09,-0.057770803548880145,0.01622271689091337,0.0,0.5251294211073942,-0.4051542110739421,9.958916526644366
6240000000.0,22.09,-0.04495389895251503,0.008389369724640902,0.0,0.5348413212045132,-0.47166528481805287,9.930465466750354
6245000000.0,22.09,-0.02804948621083364,0.006409224408202089,0.0,0.5245403360951034,-0.47048711479347116,9.78861201657062
6250000000.0,22.09,-0.007460992485096152,0.007984894502928323,0.0,0.5199302427975024,-0.43163951440499515,9.736425849791258
6255000000.0,22.09,0.01574438188269855,0.00956059094776325,0.0005216920990154511,0.5249329785041298,-0.3639497850412978,9.79479510747935
6260000000.0,22.09,0.031275694436978405,0.011668599639402059,0.0010646508437165,0.5246389215929892,-0.2574129408841294,9.862190294336903
6265000000.0,22.09,0.03765292665127188,0.011274612814934729,0.0015650499469377081,0.5020750698593507,-0.1639242481692425,9.894267534929675
6270000000.0,22.09,0.040963937959072584,0.011051115409421105,0.001149796476784827,0.4528291128510912,-0.09142822570218226,9.838055503914955
6275000000.0,22.09,0.04201794230489196,0.013734022339452374,0.00047910610742696503,0.4183961343469614,-0.02697689057826891,9.77713613434696
6280000000.0,22.09,0.03698197172682316,0.016318170306351097,0.0024700296723060744,0.40221,0.030215653870256536,9.77821608792586
6285000000.0,22.09,0.022952975109114346,0.013530881386396099,0.002427350928335169,0.3895547337642473,0.06445157792141577,9.804408422078584
6290000000.0,22.09,0.008027294989751984,0.0007450566999814843,0.0,0.38514096652710966,0.04649903347289033,9.818240644351407
6295000000.0,22.09,-0.00523824139006191,-0.013326084091428518,0.0,0.40221,0.021385555454355554,9.84570888909129
