#timestamp [ns], temperature [degC], w_RS_S_x [rad s^-1], w_RS_S_y [rad s^-1], w_RS_S_z [rad s^-1], a_RS_S_x [m s^-2], a_RS_S_y [m s^-2], a_RS_S_z [m s^-2]
0.0,21.97,0.0,0.0,0.0,0.38259,-0.981,9.81981
5000000.0,21.97,0.0,0.0,0.0,0.372878099902881,-1.000423800194238,9.82952190009712
10000000.0,21.97,0.0,0.0,0.0,0.36316619980576204,-0.991006199805762,9.820006199805762
15000000.0,21.97,0.0,0.0,0.0,0.382001400582714,-0.943231498543215,9.810294299708643
20000000.0,21.97,0.0,0.0,0.0,0.39200760038847604,-0.960595200776952,9.819417600388476
25000000.0,21.97,0.0,0.0,0.0,0.401719500485595,-0.952060499514405,9.81981
30000000.0,21.97,0.0,0.0,0.0,0.383767198834572,-0.970012801165428,9.847474201748142
35000000.0,21.97,0.0,0.0,0.0,0.364343398640334,-0.962066699320167,9.840116699320166
40000000.0,21.97,0.0,0.0,0.0,0.381020401553904,-0.970405200776952,9.821379598446097
45000000.0,21.97,0.0,0.0,0.0,0.38259,-0.97119,9.846591302622214
50000000.0,21.97,0.0,0.0,0.0,0.40024800194238,-0.97119,9.805094995144051
55000000.0,21.97,0.0,0.0,0.0,0.384748197863382,-0.936266395726764,9.80019
60000000.0,21.97,0.0,0.0,0.0,0.408488403496284,-0.9664812046617121,9.808822801165428
65000000.0,21.97,0.0,0.0,0.0,0.394950597474906,-0.962655298737453,9.81
70000000.0,21.97,0.0,0.0,0.0,0.36709019592100195,-0.969816601359666,9.784690195921003
75000000.0,21.97,0.0,0.0,0.0,0.36297,-0.95451299708643,9.788908501456786
80000000.0,21.97,0.0,0.0,0.0,0.371210401553904,-0.95157,9.798620401553904
85000000.0,21.97,0.0,0.0,0.0,0.36463769834897697,-0.9597123016510231,9.80019
90000000.0,21.97,0.0,0.0,0.0,0.34688159650371597,-0.953335798251858,9.816278403496284
95000000.0,21.97,0.0,0.0,0.0,0.3751344073810441,-0.9833544073810441,9.81981
100000000.0,21.97,0.0,0.0,0.0,0.38259,-0.98296199805762,9.81196199805762
105000000.0,21.97,0.0,0.0,0.0,0.39033990203949903,-0.981,9.833249706118497
110000000.0,21.97,0.0,0.0,0.0,0.384748197863382,-0.981,9.80117098931691
115000000.0,21.97,0.0,0.0,0.0,0.39014370223373707,-0.981,9.835702213402422
120000000.0,21.97,0.0,0.0,0.0,0.3625775906765759,-0.981,9.819417590676576
125000000.0,21.97,0.0,0.0,0.0,0.35316,-0.981,9.82471500485595
130000000.0,21.97,0.0,0.0,0.0,0.35316,-0.966481194949812,9.836879402525094
135000000.0,21.97,0.0,0.0,0.0,0.37464390786663904,-0.9757026052444261,9.832268697377787
140000000.0,21.97,0.0,0.0,0.0,0.3684635945613359,-0.973936797280668,9.808430391842004
145000000.0,21.97,0.0,0.0,0.0,0.37690020563290205,-0.97119,9.821085308449353
150000000.0,21.97,0.0,0.0,0.0,0.40319100874071007,-0.95745599417286,9.815885994172861
155000000.0,21.97,0.0,0.0,0.0,0.405251096989311,-0.965107806021378,9.823537806021378
160000000.0,21.97,0.0,0.0,0.0,0.3888683937843839,-0.9578483937843839,9.809607590676576
165000000.0,21.97,0.0,0.0,0.0,0.37601729679507295,-0.95157,9.806762703204928
170000000.0,21.97,0.0,0.0,0.0,0.3857292066040921,-0.9580446033020461,9.790576190093862
175000000.0,21.97,0.0,0.0,0.0,0.39877650339916504,-0.9422504898025049,9.786946503399166
180000000.0,21.97,0.0,0.0,0.0,0.38965319300743195,-0.9507852104888521,9.79038
185000000.0,21.97,0.0,0.0,0.0,0.3949506071868061,-0.96138,9.79038
190000000.0,21.97,0.0,0.0,0.0,0.40221,-0.9796266110715661,9.802544407381045
195000000.0,21.97,0.0,0.0,0.0,0.396225896212359,-0.9848258962123589,9.815984103787642
200000000.0,21.97,0.0,0.0,0.0,0.38062799223047994,-0.9633419883457199,9.81981
205000000.0,21.97,0.0,0.0,0.0,0.3843558079637581,-0.9342062880543629,9.81981
210000000.0,21.97,0.0,0.0,0.0,0.3810203918420039,-0.927829804078998,9.825499804078998
215000000.0,21.97,0.0,0.0,0.0,0.3839634083522341,-0.9487251125283511,9.824028295823883
220000000.0,21.97,0.0,0.0,0.0,0.38690639572676394,-0.9888480213661802,9.830797208546473
225000000.0,21.97,0.0,0.0,0.0,0.37719449562964497,-1.01043,9.844825504370355
230000000.0,21.97,0.0,0.0,0.0,0.37278,-0.9839429776626297,9.828050382130105
235000000.0,21.97,0.0,0.0,0.0,0.38837791369377916,-0.9509813908708139,9.820398609129187
240000000.0,21.97,0.0,0.0,0.0,0.37670397669143973,-0.9468612046617121,9.834721204661712
245000000.0,21.97,0.0,0.0,0.0,0.37317241903532417,-0.9415637904823378,9.819417580964677
250000000.0,21.97,0.0,0.0,0.0,0.3825899902880999,-0.9515700194238002,9.80509500485595
255000000.0,21.97,0.0,0.0,0.0,0.36797309504693093,-0.9904176198122762,9.805193095046931
260000000.0,21.97,0.0,0.0,0.0,0.36297,-1.001012389899624,9.80019
265000000.0,21.97,0.0,0.0,0.0,0.35835929485269297,-0.9815885897053859,9.809411410294615
270000000.0,21.97,0.0,0.0,0.0,0.36669781573327814,-0.9621647895111479,9.828835210488853
275000000.0,21.97,0.0,0.0,0.0,0.38259,-0.9559845053415451,9.83060098931691
280000000.0,21.97,0.0,0.0,0.0,0.3782735945613359,-0.9527471891226719,9.811177189122672
285000000.0,21.97,0.0,0.0,0.0,0.36856169446421694,-0.9544149166073492,9.804408305535784
290000000.0,21.97,0.0,0.0,0.0,0.37533061689870617,-0.9794304112658041,9.8058797943671
295000000.0,21.97,0.0,0.0,0.0,0.3843557885399579,-0.9747215770799158,9.804212105730022
300000000.0,21.97,0.0,0.0,0.0,0.36885599417285997,-0.94764599417286,9.81
305000000.0,21.97,0.0,0.0,0.0,0.36297,-0.9455859059242591,9.821477717772778
310000000.0,21.97,0.0,0.0,0.0,0.37042561204275615,-0.955297806021378,9.83943
315000000.0,21.97,0.0,0.0,0.0,0.38259,-0.9686394122369941,9.832170587763006
320000000.0,21.97,0.0,0.0,0.0,0.3755267875687679,-0.981,9.816278393784385
325000000.0,21.97,0.0,0.0,0.0,0.37327051893820523,-0.9672659747490597,9.813433506312736
330000000.0,21.97,0.0,0.0,0.0,0.3924,-0.94176,9.823145406409854
335000000.0,21.97,0.0,0.0,0.0,0.3924,-0.9449973065069731,9.826382693493027
340000000.0,21.97,0.0,0.0,0.0,0.3924,-0.9578484132081841,9.826088413208184
345000000.0,21.97,0.0,0.0,0.0,0.3802355731951557,-0.968148893298789,9.830306679896367
350000000.0,21.97,0.0,0.0,0.0,0.35610300679833007,-0.95843699320167,9.81294300679833
355000000.0,21.97,0.0,0.0,0.0,0.3686598137908981,-0.95157,9.82265490689545
360000000.0,21.97,0.0,0.0,0.0,0.38533680699256806,-0.95157,9.83236680699257
365000000.0,21.97,0.0,0.0,0.0,0.38975129291031296,-0.9462725858206259,9.831483878730939
370000000.0,21.97,0.0,0.0,0.0,0.38259,-0.9396018215604182,9.807449392813194
375000000.0,21.97,0.0,0.0,0.0,0.37768498543214984,-0.9589274927160749,9.802642507283926
380000000.0,21.97,0.0,0.0,0.0,0.36767881476208814,-0.9562788147620882,9.81
385000000.0,21.97,0.0,0.0,0.0,0.38484630747816306,-0.9689336925218369,9.81
390000000.0,21.97,0.0,0.0,0.0,0.3880835848494359,-0.9678546227258462,9.81
395000000.0,21.97,0.0,0.0,0.0,0.37690021534480217,-0.9805094616379946,9.81
400000000.0,21.97,0.0,0.0,0.0,0.3904379922304799,-0.9378359844609598,9.81392401553904
405000000.0,21.97,0.0,0.0,0.0,0.37886218426672186,-0.9314595393331954,9.827756092133361
410000000.0,21.97,0.0,0.0,0.0,0.3665016159275162,-0.969424192036242,9.818044192036242
415000000.0,21.97,0.0,0.0,0.0,0.38259,-0.9663831241826313,9.81
420000000.0,21.97,0.0,0.0,0.0,0.38415960815799605,-0.9939492163159921,9.814708824473989
425000000.0,21.97,0.0,0.0,0.0,0.3924,-0.9986579339590793,9.83354396697954
430000000.0,21.97,0.0,0.0,0.0,0.38965318329553184,-0.9374436334089363,9.804310225056703
435000000.0,21.97,0.0,0.0,0.0,0.37278,-0.9673640746519407,9.82962
440000000.0,21.97,0.0,0.0,0.0,0.3763116256394163,-0.9441144170929442,9.82962
445000000.0,21.97,0.0,0.0,0.0,0.3957353481384535,-0.960300891356409,9.82854089135641
450000000.0,21.97,0.0,0.0,0.0,0.3472740349628403,-0.95157,9.820791008740711
455000000.0,21.97,0.0,0.0,0.0,0.38259,-0.9533358176756582,9.827854182324343
460000000.0,21.97,0.0,0.0,0.0,0.3810203821301038,-0.970405191065052,9.81
465000000.0,21.97,0.0,0.0,0.0,0.3650301270962013,-0.9641268361282683,9.810686709032067
470000000.0,21.97,0.0,0.0,0.0,0.39181139087081396,-0.9982655634832557,9.820398609129187
475000000.0,21.97,0.0,0.0,0.0,0.38406152767891527,-0.9603989815473898,9.82863898154739
480000000.0,21.97,0.0,0.0,0.0,0.41045036270630364,-0.9429372279702724,9.810392409323425
485000000.0,21.97,0.0,0.0,0.0,0.37278,-0.9703070717383707,9.819221381158915
490000000.0,21.97,0.0,0.0,0.0,0.3721913714470137,-0.9419562095176621,9.800386209517663
495000000.0,21.97,0.0,0.0,0.0,0.3432518903852189,-0.95157,9.80990189038522
500000000.0,21.97,0.0,0.0,0.0,0.3335400582714006,-0.9515700097119001,9.800190009711901
505000000.0,21.97,0.0,0.0,0.0,0.3918114588541146,-0.9612819098090191,9.80990190980902
510000000.0,21.97,0.0,0.0,0.0,0.3731723801877238,-0.9902214297184143,9.81
515000000.0,21.97,0.0,0.0,0.0,0.4013271300097713,-1.0098414200065142,9.829031420006514
520000000.0,21.97,0.0,0.0,0.0,0.3739571696988717,-0.9821771696988717,9.820202389899624
525000000.0,21.97,0.0,0.0,0.0,0.37278,-0.9530414694075148,9.847768530592486
530000000.0,21.97,0.0,0.0,0.0,0.40044423088384234,-0.9423485897053859,9.840018589705386
535000000.0,21.97,0.0,0.0,0.0,0.3839633792165338,-0.9326366896082668,9.821183379216533
540000000.0,21.97,0.0,0.0,0.0,0.3645395790222958,-0.9680508419554084,9.81981
545000000.0,21.97,0.0,0.0,0.0,0.36297,-0.97119,9.81088288941403
550000000.0,21.97,0.0,0.0,0.0,0.35414098931690985,-0.97119,9.81882901068309
555000000.0,21.97,0.0,0.0,0.0,0.38808364312083643,-0.9449972676593728,9.828540910780209
560000000.0,21.97,0.0,0.0,0.0,0.3924,-0.94176,9.838252810877329
565000000.0,21.97,0.0,0.0,0.0,0.3924,-0.94176,9.805291156102212
570000000.0,21.97,0.0,0.0,0.0,0.35865355571373553,-0.9586332221431323,9.817063222143133
575000000.0,21.97,0.0,0.0,0.0,0.35316,-0.9780570223373702,9.811471488831316
580000000.0,21.97,0.0,0.0,0.0,0.36140041126580413,-0.9974808225316083,9.793519177468392
585000000.0,21.97,0.0,0.0,0.0,0.38739693408876935,-0.9761930659112307,9.798522311362923
590000000.0,21.97,0.0,0.0,0.0,0.40848842292008425,-0.97119,9.816278422920085
595000000.0,21.97,0.0,0.0,0.0,0.38023555377135554,-0.9632438884428389,9.81186388844284
600000000.0,21.97,0.0,0.0,0.0,0.35708397669143976,-0.9378359650371596,9.81784801165428
605000000.0,21.97,0.0,0.0,0.0,0.36865982350279825,-0.9474498235027983,9.835309823502799
610000000.0,21.97,0.0,0.0,0.0,0.37278,-0.9745254355455544,9.80117094075741
615000000.0,21.97,0.0,0.0,0.0,0.37278,-0.9885537119456371,9.828148559728186
620000000.0,21.97,0.0,0.0,0.0,0.35786877591448774,-0.9833543879572438,9.824518775914488
625000000.0,21.97,0.0,0.0,0.0,0.35316,-0.9662849757202497,9.827167512139875
630000000.0,21.97,0.0,0.0,0.0,0.36767882447398825,-0.96138,9.807841763289018
635000000.0,21.97,0.0,0.0,0.0,0.38710262466822626,-0.9828639370023393,9.835996561670566
640000000.0,21.97,0.0,0.0,0.0,0.37827357513753573,-0.9696203627063036,9.835113575137536
645000000.0,21.97,0.0,0.0,0.0,0.3518846624149466,-0.9683451125283511,9.82962
650000000.0,21.97,0.0,0.0,0.0,0.3502170126254701,-0.9643229873745299,9.82962
655000000.0,21.97,0.0,0.0,0.0,0.3802356508903565,-0.9478421745548218,9.822851087277412
660000000.0,21.97,0.0,0.0,0.0,0.37905837436058376,-0.9617724384591244,9.81981
665000000.0,21.97,0.0,0.0,0.0,0.3662072870831729,-0.9646172870831728,9.826382712916827
670000000.0,21.97,0.0,0.0,0.0,0.35002077397210773,-0.96138,9.823145386986054
675000000.0,21.97,0.0,0.0,0.0,0.3688560524442605,-0.9741330262221303,9.813433486888936
680000000.0,21.97,0.0,0.0,0.0,0.38886841320818416,-0.9558863471672635,9.81
685000000.0,21.97,0.0,0.0,0.0,0.3676787467787875,-0.94176,9.81
690000000.0,21.97,0.0,0.0,0.0,0.37748885360968853,-0.9478422134024221,9.816082213402423
695000000.0,21.97,0.0,0.0,0.0,0.38043177300091774,-0.95157,9.81981
700000000.0,21.97,0.0,0.0,0.0,0.37866601359666013,-0.95157,9.82569601359666
705000000.0,21.97,0.0,0.0,0.0,0.37101417261244174,-0.9631458273875583,9.82962
710000000.0,21.97,0.0,0.0,0.0,0.3857292551635926,-0.9541205586273056,9.823930186209102
715000000.0,21.97,0.0,0.0,0.0,0.3966182861119829,-0.9641268555520686,9.81981
720000000.0,21.97,0.0,0.0,0.0,0.3869063860148639,-0.9700127720297277,9.830797227970272
725000000.0,21.97,0.0,0.0,0.0,0.38259,-0.9559844859177449,9.82863897183549
730000000.0,21.97,0.0,0.0,0.0,0.3561029291031293,-0.9462725858206259,9.835702242538122
735000000.0,21.97,0.0,0.0,0.0,0.34913794282947946,-0.9365606857235068,9.83364205717052
740000000.0,21.97,0.0,0.0,0.0,0.3731724287472243,-0.9523548574944486,9.824911214373612
745000000.0,21.97,0.0,0.0,0.0,0.3725837710585377,-0.9811962289414623,9.819613771058538
750000000.0,21.97,0.0,0.0,0.0,0.37768504370355044,-0.9760949562964496,9.82471504370355
755000000.0,21.97,0.0,0.0,0.0,0.38759308533503084,-0.96138,9.825009256005092
760000000.0,21.97,0.0,0.0,0.0,0.38729881476208816,-0.96138,9.814708814762088
765000000.0,21.97,0.0,0.0,0.0,0.38778928514079286,-0.9706014297184143,9.824420714859208
770000000.0,21.97,0.0,0.0,0.0,0.3690521551310215,-0.9900252299126523,9.82962
775000000.0,21.97,0.0,0.0,0.0,0.3575745150534451,-0.9697183946258839,9.82079096989311
780000000.0,21.97,0.0,0.0,0.0,0.3759192454516925,-0.93195,9.805683584849437
785000000.0,21.97,0.0,0.0,0.0,0.3839633695046337,-0.9403866304953663,9.791753369504635
790000000.0,21.97,0.0,0.0,0.0,0.38102043068960434,-0.9598104306896044,9.776449784655197
795000000.0,21.97,0.0,0.0,0.0,0.3924,-0.9792342308838423,9.786848461767685
800000000.0,21.97,0.0,0.0,0.0,0.3963240155390402,-0.9829619689219197,9.81392401553904
805000000.0,21.97,0.0,0.0,0.0,0.3945581687276817,-0.9597122530915225,9.827461831272318
810000000.0,21.97,0.0,0.0,0.0,0.38259,-0.9343043685334437,9.831974368533444
815000000.0,21.97,0.0,0.0,0.0,0.38259,-0.92214,9.812550568339207
820000000.0,21.97,0.0,0.0,0.0,0.38259,-0.9256716159275161,9.807253231855032
825000000.0,21.97,0.0,0.0,0.0,0.38259,-0.9456840640985406,9.816376483975365
830000000.0,21.97,0.0,0.0,0.0,0.36924833551298336,-0.9778608322435083,9.806664583878247
835000000.0,21.97,0.0,0.0,0.0,0.3562992648754926,-0.9810980513433805,9.80990194865662
840000000.0,21.97,0.0,0.0,0.0,0.38572921631599216,-0.9582407836840079,9.835898432631984
845000000.0,21.97,0.0,0.0,0.0,0.3924,-0.9485288835868889,9.840116650760667
850000000.0,21.97,0.0,0.0,0.0,0.4012290495306905,-0.9447030165102303,9.81981
855000000.0,21.97,0.0,0.0,0.0,0.40760541696325414,-0.95157,9.825499833214698
860000000.0,21.97,0.0,0.0,0.0,0.37003318329553186,-0.9543168167044682,9.828442733182127
865000000.0,21.97,0.0,0.0,0.0,0.3656187168015872,-0.9666774336031744,9.805487433603174
870000000.0,21.97,0.0,0.0,0.0,0.37022938310129383,-0.9861012337974123,9.822360616898706
875000000.0,21.97,0.0,0.0,0.0,0.36051748300417485,-0.9908099320166994,9.827167483004175
880000000.0,21.97,0.0,0.0,0.0,0.3602232512788325,-0.9590255829070559,9.822164417092944
885000000.0,21.97,0.0,0.0,0.0,0.3893589515701895,-0.9470573656198736,9.818338414049684
890000000.0,21.97,0.0,0.0,0.0,0.4055453481384535,-0.9405828691487287,9.787044651861548
895000000.0,21.97,0.0,0.0,0.0,0.3743495304627953,-0.9732501173843011,9.807939882615699
900000000.0,21.97,0.0,0.0,0.0,0.34531201748142015,-0.9770759650371597,9.80019
905000000.0,21.97,0.0,0.0,0.0,0.35688783515707834,-0.96138,9.80205391757854
910000000.0,21.97,0.0,0.0,0.0,0.37278,-0.96138,9.813531635351318
915000000.0,21.97,0.0,0.0,0.0,0.3777831533183315,-0.9597122822272228,9.819613693363337
920000000.0,21.97,0.0,0.0,0.0,0.39907076426020766,-0.9562788536096886,9.780177707219377
925000000.0,21.97,0.0,0.0,0.0,0.3811184820329848,-0.9795284820329848,9.834034553901045
930000000.0,21.97,0.0,0.0,0.0,0.37690025419240253,-0.9684431638717317,9.857676581935866
935000000.0,21.97,0.0,0.0,0.0,0.4034853181612532,-0.9502946818387469,9.844138727354988
940000000.0,21.97,0.0,0.0,0.0,0.41202,-0.9394055634832557,9.813531654775117
945000000.0,21.97,0.0,0.0,0.0,0.40878264493352645,-0.9242982367109823,9.831876171511562
950000000.0,21.97,0.0,0.0,0.0,0.37866592618955924,-0.946665092263051,9.77566509226305
955000000.0,21.97,0.0,0.0,0.0,0.3424670814502708,-0.99081,9.81981
960000000.0,21.97,0.0,0.0,0.0,0.33824891188108913,-0.9900251813531518,9.822164455940545
965000000.0,21.97,0.0,0.0,0.0,0.3930867187439672,-0.9803132812560328,9.847866562512065
970000000.0,21.97,0.0,0.0,0.0,0.39985552463565527,-0.9670696681123967,9.830797237682173
975000000.0,21.97,0.0,0.0,0.0,0.3644415568146156,-0.9020294810617948,9.84825896212359
980000000.0,21.97,0.0,0.0,0.0,0.3927924190353242,-0.8958493522825935,9.828835161929351
985000000.0,21.97,0.0,0.0,0.0,0.4010327234702272,-0.9717786382648864,9.809411361735114
990000000.0,21.97,0.0,0.0,0.0,0.36297,-0.9913986576886865,9.790968657688687
995000000.0,21.97,0.0,0.0,0.0,0.36297,-1.0199456420199564,9.820104357980044
1000000000.0,21.97,0.0,0.0,0.0,0.3629698251857983,-0.9908097863381978,9.849240077695201
1005000000.0,21.97,0.0,0.0,0.0,0.27556272431172724,-0.8839788852698889,9.888087678083677
1010000000.0,21.97,0.01460703938303377,-0.024014383247985296,0.0,0.4188872942705729,-0.49834721527847214,9.811569443055696
1015000000.0,21.97,0.003545263773659015,-0.06789531766424296,0.0,1.0784146603458467,-0.5571100380061005,9.857578598575786
1020000000.0,21.97,-0.026462744508883782,-0.11015340022422039,0.0,1.9274705434803054,-1.2089857670470578,10.047402396245523
1025000000.0,21.97,-0.034778318464827276,-0.07237959240634038,0.0,1.5519411239866114,-1.7020359954697601,9.775664402718144
1030000000.0,21.97,-0.011115949860382713,0.0007859014591119623,0.0,2.0467595203647955,-1.4775816598241165,9.862385620071656
1035000000.0,21.97,0.04193723385733196,0.10242067232147214,0.0,0.9666749473567495,-1.096757195854672,9.786750119067301
1040000000.0,21.97,0.0458148928648511,0.17832463200137777,0.0,0.8829,-0.7443820727729207,9.798620440401505
1045000000.0,21.97,0.04095483797928971,0.26184372096708924,0.0,-0.9293054204678541,-0.3590451880851519,9.621647594042576
1050000000.0,21.97,0.01171283817157474,0.15063560247325333,0.0,-1.3734006118497062,-0.5003104078998041,10.248508488834284
1055000000.0,21.97,-0.012328705697119215,0.07579042903593278,0.0,-2.1013036393687363,-0.8429740582080406,10.07565422622094
1060000000.0,21.97,-0.019604945630878914,-0.09306552905847285,0.0,-1.9977079470369798,-1.2454784647475847,10.347588720622987
1065000000.0,21.97,-0.02117206780219681,-0.16324739400531604,0.0,-0.8025532659704326,-1.175433910391139,10.183956703527667
1070000000.0,21.97,-0.00389902265616204,-0.23273980920610934,0.0,0.33393476931514776,-1.1660166207834661,10.170223241566932
1075000000.0,21.97,0.00798490398896744,-0.19126788548964926,0.0,1.4244143386255435,-1.0673277494329776,9.764382476851324
1080000000.0,21.97,0.012264784549562625,-0.10788838583571515,0.0,1.9847602069298018,-0.7447744238249443,9.53571200142362
1085000000.0,21.97,0.016324946344781575,-0.04157657482306707,0.0,2.1578078528978786,-0.6378460735510608,9.628024816122348
1090000000.0,21.97,0.025782026687754964,0.02762836701642998,0.0,1.8077858260906583,-0.5715304517964046,9.25082894140289
1095000000.0,21.97,-0.004223433167788466,0.08534567333066737,0.0,1.4881763619281636,-0.9087993358386933,9.305570182843102
1100000000.0,21.97,-0.03131475080991539,0.13081950390120145,0.0,0.8907465257335652,-1.3675150255766502,9.315575935901458
1105000000.0,21.97,-0.015174881442463668,0.11599259696539095,0.0,0.5228723561010236,-1.5779388219494883,10.030432696086827
1110000000.0,21.97,0.024479385930606046,0.07731485293828125,0.0,0.1090862082207621,-1.2109452788582526,10.31384185872502
1115000000.0,21.97,0.047216255366684036,0.05587580808152702,0.0,-0.23190909304119095,-0.6077280922600808,10.173558123534182
1120000000.0,21.97,0.03656041650291671,0.017383377750756032,0.0,-0.3488437305279373,-0.3641469171894692,10.131375621754657
1125000000.0,21.97,0.019979621039558353,-0.01757990007488343,0.0,-0.23053460666804607,-0.5763382211085822,9.868859213336092
1130000000.0,21.97,-0.012400999233163693,-0.029508293573717207,0.0,-0.1573523122044231,-0.9839439877002398,9.766051156102211
1135000000.0,21.97,-0.0285927010785908,-0.04800341389012659,0.0,0.060528339334383424,-1.292075695242357,9.818240576368106
1140000000.0,21.97,-0.015548741138173281,-0.061997609720641576,0.0,0.5046275514428755,-1.356526777856868,9.895935777145057
1145000000.0,21.97,0.013863574177778212,-0.061199085488205324,0.0,0.7797973225647733,-1.1517914550327146,9.910944877759748
1150000000.0,21.97,0.030892352002399537,-0.03952117008874853,0.0,1.0673287594705876,-0.8495452852041528,9.89436595532526
1155000000.0,21.97,0.02747477663921911,-0.01031116247494224,0.0,1.1132386205240863,-0.7756767673034677,9.861404310262042
1160000000.0,21.97,0.01871270254586168,0.022838063062855615,0.0,1.0155309521523095,-0.7914708225316083,9.69581108177301
1165000000.0,21.97,0.009555655511938262,0.05977744079802455,0.0,0.7903910437669104,-0.8340463357723633,9.676191781029818
1170000000.0,21.97,0.005685233039076141,0.07172849193454153,0.0,0.28213414554584143,-0.9376400954360009,9.676191509096615
1175000000.0,21.97,0.008091356319886516,0.05267047924950398,0.0,-0.05248393363633934,-0.9873765228229652,9.758497842344479
1180000000.0,21.97,0.005493583428875775,0.01669991385089485,0.0,-0.15539053752050536,-1.0410373833606739,9.966960573002105
1185000000.0,21.97,0.00923054529693504,-0.015320739695629887,0.0,-0.1147767698279677,-1.1187325841376259,10.036709030948389
1190000000.0,21.97,0.010135465998060046,-0.032169933858062875,0.0,0.1343978090012781,-1.1477700000000002,10.129217792943477
1195000000.0,21.97,0.0163211277043154,-0.03361782384393237,0.0,0.31872710890297107,-1.0280875357711754,10.138732891097028
1200000000.0,21.97,0.027698400525254237,-0.017254266762706943,0.0,0.4414503496284035,-0.8161914639031147,9.980693510520235
1205000000.0,21.97,0.02567551322458378,-0.0055681162921860155,0.0,0.50031,-0.6622728425375285,9.915653770217038
1210000000.0,21.97,0.011420346574636763,-0.007963603615142796,0.0,0.5856573525419736,-0.8057941755923418,9.819613353446833
1215000000.0,21.97,-0.0018099320466237242,-0.0106465084371654,0.0,0.6083179348005794,-1.1206951551973514,9.80283895959909
1220000000.0,21.97,-0.0034068698410398687,-0.011838922525669088,0.0,0.5842836236970362,-1.2611736236970361,9.887695365879253
1225000000.0,21.97,0.011241719982952014,-0.013361370670953178,0.0,0.5993910475883105,-1.1198108575578085,9.955678666559086
1230000000.0,21.97,0.031084008990630293,-0.017874284127984863,0.0,0.7300607494993075,-0.8522921310443213,10.007769695565097
1235000000.0,21.97,0.03828099940891089,-0.010015868867926608,0.0,0.8702452679187527,-0.6791460841044609,9.947830140174101
1240000000.0,21.97,0.027868674927321355,0.00831339154491235,0.0,0.8617102073159021,-0.7294720335392204,9.848062655486926
1245000000.0,21.97,0.011027648935714493,0.026846707043593127,0.0,0.7790118823563189,-0.9493143529310437,9.794794379086843
1250000000.0,21.97,0.0026616244742804353,0.04793552064943839,0.0,0.5248339559707396,-1.1624854127557542,9.760949951440498
1255000000.0,21.97,0.007346117277153126,0.05650397675356153,0.0,0.1504845711864457,-1.2122215293619154,9.828050790029907
1260000000.0,21.97,0.020449713664673835,0.04052577534160932,0.0,-0.09967001605780017,-1.0547705636763056,9.926935297895954
1265000000.0,21.97,0.031264968888755344,0.010048824992006473,0.0,-0.1356720297178203,-0.8944756525733565,9.975004347426644
1270000000.0,21.97,0.032127312030326594,-0.005983329710173769,0.0,-0.028841128649511286,-0.8091285039812851,9.988149501327095
1275000000.0,21.97,0.028390390214432435,-0.014327464315614942,0.0,0.025015475234654753,-0.74556,10.006690722888107
1280000000.0,21.97,0.023354580899028574,-0.03319201135824306,0.0,0.09299922266189223,-0.7585092745873928,9.960288653025787
1285000000.0,21.97,0.016884650661281225,-0.04612436687354778,0.0,0.321376398706664,-0.7960816247979163,9.818338375202083
1290000000.0,21.97,0.006685963789240473,-0.04861821891017548,0.0,0.6733594523814945,-0.9641276519278766,9.736817074262872
1295000000.0,21.97,-0.001884423803764497,-0.03100220429215682,0.0,0.88015299876943,-1.2098676269996764,9.634695123923251
1300000000.0,21.97,0.005536220012672889,-0.010220631657210925,0.0,0.8927103787641039,-1.2694138989962391,9.704052707026326
1305000000.0,21.97,0.02381246571751438,-0.00015965636228734096,0.0,0.904481493038815,-1.0928329860776298,9.838252597215526
1310000000.0,21.97,0.045080147955911226,0.007559007182930443,0.0,0.8071669526710695,-0.7789134910964349,9.842569556232496
1315000000.0,21.97,0.045265399414157234,0.016870615833151227,0.0,0.8182519212039192,-0.642751097830811,9.87690384240784
1320000000.0,21.97,0.024845074794560454,0.0467832627960459,0.0,0.7361421179664213,-0.7522317742978177,9.783316748721168
1325000000.0,21.97,0.010764279012325031,0.07706861834367443,0.0,0.4507678785982789,-1.0594805147307051,9.77762705147307
1330000000.0,21.97,0.00613836227634735,0.09567922296158735,0.0,-0.12439214335002141,-1.1703328708317287,9.863759368340395
1335000000.0,21.97,0.020905942244920876,0.059831496914152016,0.0,-0.5938003631617037,-1.0829254591768547,9.990013370346135
1340000000.0,21.97,0.031233018855020528,0.004775746563912678,0.0,-0.7691032191632322,-0.9115447054700471,9.982263808223138
1345000000.0,21.97,0.029976711023073206,-0.0526221395173067,0.0,-0.41692369374943694,-0.7848,10.008259864874898
1350000000.0,21.97,0.024291481146010107,-0.08618265012978046,0.0,0.09221552088355522,-0.7877430262221303,9.967941183554911
1355000000.0,21.97,0.020384215363761986,-0.09216591659969361,0.0,0.6185216843662168,-0.8173694105539941,9.998940442084503
1360000000.0,21.97,0.017217315357399926,-0.07325277031517527,0.0,1.0308357509892576,-0.9033050905800509,9.92693490941995
1365000000.0,21.97,0.01605965866912422,-0.041615392800955525,0.0,1.293056179540462,-0.9942436325674363,9.833347640919076
1370000000.0,21.97,0.020011604801432246,-0.014534648930425848,0.0,1.31454,-1.0453537596636375,9.752120600840907
1375000000.0,21.97,0.02290745222944945,0.02343114964948724,0.0,1.294919786338198,-1.0962675801231758,9.655492633538627
1380000000.0,21.97,0.02731513292498392,0.06268327033834702,0.0,1.0877311112948114,-1.0688970370982702,9.696988853609689
1385000000.0,21.97,0.038668322420492465,0.09513631797110796,0.0,0.5345459046273591,-0.8717161157646611,9.78861511466675
1390000000.0,21.97,0.04734799594006705,0.09103740047065077,-0.001171130578748601,0.12772460705414607,-0.7206424110064241,10.060547588993575
1395000000.0,21.97,0.0454279062707222,0.07537959371009491,-0.004428935747172298,-0.35051165225061653,-0.6794407625772078,10.140891652250616
1400000000.0,21.97,0.02918884804459491,0.025561915055217786,-0.0008517177237610317,-0.4885385166730852,-0.7789147342196474,10.225943782453438
1405000000.0,21.97,0.016494908485102155,-0.03467528770847496,0.00040457324411669347,-0.5705486175441862,-1.0094492729043927,10.125881454191214
1410000000.0,21.97,0.010926480103957133,-0.07886487991937541,0.0017460214391105495,-0.1961986306220863,-1.0606567617990676,9.945770071349301
1415000000.0,21.97,0.020490745691002687,-0.10586036959438913,0.0,0.33609274380482745,-0.901930905275809,9.83089499766855
1420000000.0,21.97,0.0374505799509658,-0.11330319752409825,0.0,1.0496713790898138,-0.7679270206543702,9.750747765490777
1425000000.0,21.97,0.036747877361616735,-0.0760071301695882,0.00031940126093972114,1.471990693752407,-0.8632805535783056,9.786946250889763
1430000000.0,21.97,0.026505942168568032,-0.0035082949686408658,0.0015330851571420437,1.5276131444479315,-1.0520248444165483,9.73387484441655
1435000000.0,21.97,0.02042683719149821,0.05394060205464201,-0.0019908940527573827,1.4482489342154894,-1.1844593442536933,9.85738204914162
1440000000.0,21.97,0.03132034325330174,0.10413479062140193,-0.001575695390830508,0.9570618658431186,-1.137959300743193,9.789987823762178
1445000000.0,21.97,0.05136175726741246,0.12417612242317365,-0.00508902494081994,0.3365788826760888,-0.8908452860456528,9.86768302453913
1450000000.0,21.97,0.06146525109764643,0.10823474420813096,-0.0028745481081968315,-0.4051544927190449,-0.6150863522162635,9.939492056329021
1455000000.0,21.97,0.05676852092418605,0.0678604217056404,0.0,-0.8677924304302244,-0.41996635435466356,9.975691493494216
1460000000.0,21.97,0.036128933577519486,-0.017720234429503205,0.00017035029038001958,-0.7796975522150756,-0.5411210746549108,10.164729656717496
1465000000.0,21.97,0.009528578727772035,-0.10145102683767378,0.0019057157455543352,-0.32627826661888265,-1.037212409778824,10.178659629264796
1470000000.0,21.97,-0.004620550575229242,-0.13270399358887702,-0.0010007686943207333,0.46715439857994395,-1.3953745142119451,10.118033714470137
1475000000.0,21.97,0.00846584090194312,-0.12282214211650797,-0.00015970695449594048,1.1968211460042115,-1.4136199112959993,10.01208519779705
1480000000.0,21.97,0.0487959776243147,-0.0645929771318326,-0.0031939525311496,1.573524287472243,-1.0402509913860098,9.745253568791636
1485000000.0,21.97,0.06933303939372822,0.02380304461198119,-0.0032258951868540018,1.649157282806373,-0.5758467115565672,9.60134104040091
1490000000.0,21.97,0.0718558185796269,0.10521939095094698,-0.0042586033748661,1.035345287273253,-0.4846145788292458,9.51903589200486
1495000000.0,21.97,0.04345514468669492,0.14580581188834504,-0.004216004735225463,0.3252971607591716,-0.6798338711574388,9.684825096925952
1500000000.0,21.97,0.022375127334593372,0.13208626788822828,-6.324026074916271e-09,-0.49050151505641515,-0.9711901165428012,9.917910670121106
1505000000.0,21.97,0.024483136026232134,0.04878536704895915,-0.002108015015664832,-0.9955203201066034,-1.010037716931277,10.141284372354844
1510000000.0,21.97,0.02972122774767697,-0.060633767596396146,-4.257966756241122e-05,-0.6449083147922832,-0.9335193653604936,10.278133610619138
1515000000.0,21.97,0.03499124947677406,-0.12484603657880648,0.0010327145120381728,0.05699824817518251,-0.9034028117188281,10.062018223177681
1520000000.0,21.97,0.040261271205871245,-0.13187360364305356,4.258282957544869e-05,0.9166490276516903,-0.7800908161857082,9.913985557137355
1525000000.0,21.97,0.038451342321260545,-0.09060165494433395,0.0,1.520061306899013,-0.8122681184851813,9.73102893719539
1530000000.0,21.97,0.0373441086479685,-0.0053048349397192,-0.0020015500366936164,1.6237514377473146,-0.906444297184143,9.537281405631715
1535000000.0,21.97,0.03430984726124965,0.06835133114120967,-0.0011391731669833133,1.2544034775631348,-1.0491799472329995,9.562003319262134
1540000000.0,21.97,0.04290161849442266,0.12348151211633782,-8.516882116393486e-05,0.5944839061143391,-0.9782529307861293,9.582800459825304
1545000000.0,21.97,0.05531004673034836,0.1278279144160647,0.0,-0.09427623069376234,-0.8640644398827444,9.834329640273596
1550000000.0,21.97,0.05837777935553323,0.0875682672753815,-0.001916378053516644,-0.7043598666271987,-0.6945474580759746,10.053288662351587
1555000000.0,21.97,0.05385299034514342,0.0072451229263120615,-0.002129301687433,-0.7826418604080186,-0.5284641865318419,10.21456488326415
1560000000.0,21.97,0.04388312950989843,-0.06680584572661158,0.0025551784673874824,-0.44811961825599617,-0.5446513212045133,10.171400187892102
1565000000.0,21.97,0.025004745912908702,-0.1173367143140787,0.001341453465015598,0.2037558582755586,-0.8310061031421612,10.077812696017528
1570000000.0,21.97,0.007710462562026904,-0.11716008979500939,0.0001490478085466641,0.9607938091339382,-1.2443017417961175,9.90476402058804
1575000000.0,21.97,0.014387654944380194,-0.05635995296904116,0.0,1.4862165296242653,-1.3464226529624268,9.73691497992775
1580000000.0,21.97,0.048197038186108196,0.013253552194893076,-0.0017886200787511856,1.4856261237935613,-1.139528802070288,9.67069784655198
1585000000.0,21.97,0.07200537044415357,0.08108786192775508,-0.002129301687433,1.048098799090388,-0.8707347379717474,9.752415638653956
1590000000.0,21.97,0.07475209944533287,0.11975482338673454,-0.0012562846438516503,0.38219537636335366,-0.5666246117170461,9.899467694141478
1595000000.0,21.97,0.07111098346246063,0.10153810022741187,-0.0019270213894007281,-0.16608494199094942,-0.35119738038077375,10.118427143543071
1600000000.0,21.97,0.056674277505737315,0.027691123921153388,-0.0004258535918587867,-0.4139825904835259,-0.612145180967052,10.288728497249284
1605000000.0,21.97,0.02212000311182511,-0.03142115721389097,0.0008410775498899851,-0.35826082589760827,-1.0044471781831719,10.22712082589761
1610000000.0,21.97,0.012179598864329195,-0.07833924952448237,-0.0005962112602692271,0.07965888870518889,-1.13482098763391,10.118229856004499
1615000000.0,21.97,0.03385878133251857,-0.09251730267651156,-0.000244866289620758,0.8004985095549851,-1.125108805891688,9.875431790286319
1620000000.0,21.97,0.05262452075502657,-0.048403373860894224,-0.0008091380561986205,1.1152013663980136,-1.0736062112006621,9.713076790934768
1625000000.0,21.97,0.061252350651825715,0.02263280039905119,-0.001863142402017999,0.8632787374529874,-0.7946088637076886,9.623609747490597
1630000000.0,21.97,0.0723034470891687,0.06439925844198631,-0.0029171467478374515,0.649029093427291,-0.45223989187219893,9.65480602162556
1635000000.0,21.97,0.06707593230133412,0.07165396539525734,-0.002416753968642271,0.4077027107784271,-0.49903530340035307,9.815886635158266
1640000000.0,21.97,0.05088257210965951,0.04375807236079353,-0.0013627496228228657,-0.06200098388180991,-0.7188775645207757,9.988934941535549
1645000000.0,21.97,0.037487539736471356,-0.010845677210696243,-0.0010646508437165,-0.22975026390430264,-0.9380329029473291,10.077420791712909
1650000000.0,21.97,0.03185050308500146,-0.04069938853570509,-0.0003193917749006088,0.05984237811862378,-1.041822192295622,9.970883423113134
1655000000.0,21.97,0.03823845346948757,-0.05169179343220147,-0.0007346125709187697,0.4774540822947408,-0.9647149499505494,9.829913882096939
1660000000.0,21.97,0.05241019558906915,-0.04273677414995754,-0.001788616916738148,0.7149533158961332,-0.8020650196168502,9.723671677564917
1665000000.0,21.97,0.05966601087110671,-0.005169158178467297,-0.0014159821123084734,0.8177618587250186,-0.6864054089343541,9.600261747231217
1670000000.0,21.97,0.05580129313629067,0.03737112383335624,-0.001767323920943905,0.7206419836828198,-0.65727,9.639110221690702
1675000000.0,21.97,0.053959475350197184,0.05598233313874598,-0.000745248528772433,0.47235055648890556,-0.7465414554881146,9.854636378441365
1680000000.0,21.97,0.051606579288850686,0.049040211684115584,0.001362760162866324,0.1907054536724545,-0.8322805957919059,10.085465517903655
1685000000.0,21.97,0.05342716415739762,0.016157065327402416,0.0007878345203609191,0.051208003625380034,-0.8781913309164133,10.194061663645517
1690000000.0,21.97,0.05209631503010528,-0.024434043268405474,-0.0013201741712778377,0.1632391221768912,-0.9352856297835563,10.163552137390221
1695000000.0,21.97,0.046815646733996,-0.037461212746806444,-0.00018097992420760796,0.3769009243135092,-0.9673641329233413,10.04396800614988
1700000000.0,21.97,0.05240878984101074,-0.03110522926012471,-0.001490525515662263,0.5199303302046033,-0.8416972735498727,9.857087273549872
1705000000.0,21.97,0.06066679010547094,-0.013868830704795904,-0.0019376573472544322,0.7270200604098006,-0.6743389363538894,9.75918413376484
1710000000.0,21.97,0.06346680745836622,0.02106906444995747,-0.0016821519377669327,0.724173502491335,-0.6123401667853017,9.745450166785302
1715000000.0,21.97,0.0639139572080323,0.038195825317725224,-0.0009155924951263776,0.4475310673982107,-0.624995199935452,9.864348132859982
1720000000.0,21.97,0.056759460028957744,0.027144695152243187,-0.0005962080982561896,0.254667299319573,-0.769497201814472,10.04504813454298
1725000000.0,21.97,0.04879590068199742,0.00980258350317446,-0.0010646508437165,0.16186466493944665,-0.937836402072664,10.10331893298789
1730000000.0,21.97,0.048604289015953546,-0.009953340302013565,-0.0016395659461784465,0.17069433603174336,-0.9643228319841284,10.089192566396827
1735000000.0,21.97,0.05571618228536576,-0.02475996815965296,-0.002693570291997878,0.3821986784093868,-0.89496599669736,9.996291327095014
1740000000.0,21.97,0.06404173731688903,-0.01989599659394245,-0.0037475746378173034,0.5807523379741234,-0.7055342198750422,9.800581622659516
1745000000.0,21.97,0.0687368365654937,-0.009539256845799472,-0.003172652157324885,0.612830598316406,-0.4989361254765613,9.687276866105469
1750000000.0,21.97,0.06604322938334367,-0.0010646065755339764,-0.0015969725765595396,0.6033150339916503,-0.5444557818079578,9.69718510197495
1755000000.0,21.97,0.05500278155190655,0.013157045587211275,-0.0010646508437165,0.5024674500470745,-0.7774433522192336,9.788810945420309
1760000000.0,21.97,0.0479441945522842,0.01875528959145452,-0.0015756869587957173,0.38769116581411167,-1.0014055179036552,9.995998523018985
1765000000.0,21.97,0.05294809072410535,0.021991891354453386,-0.0011285224530688085,0.3641470628679706,-1.0993085314339854,10.11528706286797
1770000000.0,21.97,0.06790385083159044,0.025334824237871544,-0.0004897431192849742,0.19443306545583064,-0.9309677966955779,10.117053171900633
1775000000.0,21.97,0.08314839190507466,0.00692971748224103,-0.0029810373292680006,0.09025255163592552,-0.5954658277736583,10.086151051795811
1780000000.0,21.97,0.08232084879043179,-0.01768093979974777,-0.003917903848110419,0.24564295318982954,-0.3861213925538139,9.890833397343433
1785000000.0,21.97,0.06540439313332516,-0.026175920759839794,-0.0025871053130266525,0.3883783507292835,-0.45018169744411696,9.710428326642583
1790000000.0,21.97,0.048341389921489,-0.01840722905385648,-0.0022996382757565817,0.5146330519918305,-0.7312386864382869,9.69895093907441
1795000000.0,21.97,0.041538836197465,0.0015296936476174045,-0.0006281402139171335,0.5604450559399505,-1.0222026973144271,9.761931348657214
1800000000.0,21.97,0.04878550781901494,0.020671721399192895,0.0,0.45322140563171404,-1.0712514056317142,9.917910874071008
1805000000.0,21.97,0.06838173099373313,0.023546198889098608,-0.0004152176340051234,0.31872658446036584,-0.8525860131412601,10.061234064940042
1810000000.0,21.97,0.08243504597984144,0.0049081003950374145,-0.0022783642520405436,0.2872370109424701,-0.5850676265442764,10.058977835157078
1815000000.0,21.97,0.07993727080080855,-0.01766904206046207,-0.0026829048220225415,0.4108436461007365,-0.44037079423740794,9.970686883390869
1820000000.0,21.97,0.06919457168080485,-0.020842008449312194,-0.0007665562806275176,0.5732965414052654,-0.4924627070263271,9.799405093946051
1825000000.0,21.97,0.0566743006938329,-0.01103040771433531,-0.002129301687433,0.608710606345306,-0.7107354571077547,9.753101716412518
1830000000.0,21.97,0.051862117372472864,0.009374938760520648,-0.002129301687433,0.571137595725576,-0.9029126132733262,9.738779791001098
1835000000.0,21.97,0.056780835237090974,0.026953158320507875,-0.002480640334055427,0.4189846366452463,-0.9385226643573267,9.835898685141387
1840000000.0,21.97,0.06629880224910929,0.03476766458889978,-0.0025125682336990226,0.3178438213010382,-0.9099753498214534,9.94184700757647
1845000000.0,21.97,0.07467238020676953,0.031594942867288,-0.0010646508437165,0.2358318266094183,-0.7902927399141275,10.082620222532203
1850000000.0,21.97,0.08330807145545757,0.010445662915507926,-0.0017034491495785892,0.13635910780209107,-0.5895805328576054,10.158255179670153
1855000000.0,21.97,0.08474531494343,-0.015218925986000408,-0.002885199876115663,0.19678910443609104,-0.48608531984425324,10.118621663190115
1860000000.0,21.97,0.07589313234250877,-0.013895585862127854,-0.0018311955302962135,0.28880632774346326,-0.47048785289787853,9.899074294204244
1865000000.0,21.97,0.0602621694311587,-0.009092126068211658,-0.001352110502956165,0.30381609847926094,-0.5755534607331346,9.786946318873063
1870000000.0,21.97,0.05188338296415413,-0.008432003146424949,-0.0015756753647479132,0.38514063632250634,-0.7769527264501273,9.740937454709973
1875000000.0,21.97,0.05007352785984765,-0.002129301687433,0.0,0.3874949271607493,-0.9196874635803746,9.73887790061588
1880000000.0,21.97,0.06003868361969285,-0.00545525269473396,0.0,0.424577603368376,-0.8770134522488345,9.855126547751166
1885000000.0,21.97,0.07455388511593405,-0.014024212284637978,-0.0007346210029535591,0.6269577224356773,-0.7313349507920496,9.964703663386137
1890000000.0,21.97,0.0859271088841453,-0.003470694020196596,-0.0029597253613955206,0.7532117632890176,-0.5964476328901764,9.985207077242771
1895000000.0,21.97,0.08685331520303409,0.015345367803076916,-0.0023528823592899564,0.7249586319189864,-0.5219901368081014,10.05377794787848
1900000000.0,21.97,0.07947179405813487,0.033873366143571976,-0.002981018357189766,0.5905609297486093,-0.545436295241763,9.93164388928434
1905000000.0,21.97,0.07207980106904228,0.0356619314140972,-0.002129301687433,0.31077976393449763,-0.6343151180327512,9.895052440983624
1910000000.0,21.97,0.06527669418280309,0.02416049613823417,-0.001937660509267429,0.08829,-0.7579208596962086,9.832366651602166
1915000000.0,21.97,0.06232763956140457,0.0008410216876596713,-0.0014266402042534161,0.09329321158973211,-0.809226788410268,9.815199634769197
1920000000.0,21.97,0.06702557883335845,-0.011501041942175693,-0.002853256166406928,0.13969492211174922,-0.7612554405945544,9.899467461055874
1925000000.0,21.97,0.07936888831360943,-0.014866686096547302,-0.0013840542126649278,0.266832299126523,-0.6111623269653234,9.961564612172447
1930000000.0,21.97,0.08782215915972433,-0.006728544510807226,-0.0033430077177266848,0.3568884372948844,-0.46107,9.990700312463803
1935000000.0,21.97,0.08263501196079046,0.004673829440906003,-0.00398178599750616,0.49010729931957303,-0.47254803826548036,10.013459324829894
1940000000.0,21.97,0.07192011519463322,0.005791647425838709,-0.0018737773058673164,0.41947552463565524,-0.5717275159612752,9.981085910131759
1945000000.0,21.97,0.0677040978113556,-0.006973483526727823,0.0,0.4065265511171655,-0.7433039644550397,9.858068622207085
1950000000.0,21.97,0.0643398339879867,-0.011285282500927486,-0.0002129383899771974,0.4473362272584623,-0.7995148106179482,9.767816886370769
1955000000.0,21.97,0.06932400381188301,-0.006973442420558296,-0.002129301687433,0.5109052556823526,-0.7421259303970593,9.751925255682352
1960000000.0,21.97,0.08130652879679433,-0.0008516586995176258,-0.0019589492890442887,0.6243087045651872,-0.60822,9.860619676141297
1965000000.0,21.97,0.08529895707618033,0.015183217390047188,-0.00022358910389170918,0.6711006877926069,-0.6020393564900935,9.888284334348743
1970000000.0,21.97,0.08616131181179937,0.03251056382053178,-0.0031300693277494813,0.3323627234702272,-0.5216959147946592,10.02248502091375
1975000000.0,21.97,0.08367977344876247,0.024131765759479354,-0.0021825383929359957,0.3080335396559354,-0.554265383620054,10.119014616379946
1980000000.0,21.97,0.07460305585280357,0.0166252665158012,-0.0031513623235437265,0.191098300031383,-0.6462826846226268,10.019540984654009
1985000000.0,21.97,0.07565758386599533,0.006260130223464202,-0.002065414268015504,0.07190772411867724,-0.6162639686625397,9.865033598768836
1990000000.0,21.97,0.07677111226058558,0.0023635710173609,-4.259442362325272e-05,0.17579504538655044,-0.5583850453865505,9.7397600907731
1995000000.0,21.97,0.07984774498486041,0.013765905970913463,-0.002118650973518495,0.13675116749711166,-0.5196355837485559,9.664812775009628
2000000000.0,21.97,0.07456047836236489,0.006387774296645279,-0.0010646508437165,0.07847988345719883,-0.4905001165428012,9.859050388476003
2005000000.0,21.97,0.07773977015959072,-0.026303639183524123,-0.0010646508437165,0.04934418316584183,-0.5196358168341582,9.956169389447194
2010000000.0,21.97,0.07149459478909904,-0.05064815615217622,-2.1288779776859786e-05,0.4528312397572124,-0.6449099075438991,10.024446873292868
2015000000.0,21.97,0.07033379754800548,-0.05733444047968911,-0.0020654311320850373,0.8036366090024663,-0.7806803479454035,10.06388295655583
2020000000.0,21.97,0.07849517004612036,-0.02173687953001746,-8.516355114220574e-05,1.1344297340265974,-0.831888196180382,9.923795411458853
2025000000.0,21.97,0.09097359315556358,0.03541558343626891,-0.0010114225702482756,0.9427401346697013,-0.572902898670529,9.834034146001242
2030000000.0,21.97,0.09961854101599181,0.06538224378491807,-0.0010646508437165,0.7382997719633977,-0.3194125748118257,9.792734242278744
2035000000.0,21.97,0.09913940961246057,0.05918687314354936,-7.45212692624675e-05,0.24240300504603007,-0.20375326519823267,9.781256660472568
2040000000.0,21.97,0.08241367604172997,0.032128602822796254,-0.003917932306227736,0.07965664525626642,-0.34060383399283833,9.807645718873658
2045000000.0,21.97,0.06351088301727673,0.008497389619203578,-0.0042586033748661,0.03296144111331441,-0.710245588866856,9.845708558886686
2050000000.0,21.97,0.06274284560136195,0.0035133348200111067,-0.0013840331325780065,0.05591711945637119,-0.9397988760133887,9.972846557463065
2055000000.0,21.97,0.07707799360865794,0.018370183358357377,-0.0020121944265820463,0.015205300420453004,-0.8129540214295402,10.073889399159095
2060000000.0,21.97,0.10414810257533832,0.009924592419875086,-0.0030661987724015126,0.0011771599869715987,-0.4147650394267504,10.110578520039086
2065000000.0,21.97,0.1085257989725217,-0.02669549999483212,-0.0031939525311496,0.10241688132176881,-0.16667097746660978,10.088505779669559
2070000000.0,21.97,0.08942150345340713,-0.04936846620142742,-0.0013627443528011504,0.3708192062179921,-0.24701632269446322,9.831580793782008
2075000000.0,21.97,0.06455526065760053,-0.050392882744596176,-0.0028745660262707055,0.7539001524798017,-0.5317032897403329,9.757025838782457
2080000000.0,21.97,0.06161431577026264,-0.025018124787481655,-0.0005110192510097001,0.9131152848180528,-0.9001671756586718,9.685216476787964
2085000000.0,21.97,0.06973763687994489,0.03368669361100761,-0.0017673291909656341,0.809814892520649,-0.8880989355123894,9.802937447977975
2090000000.0,21.97,0.09407929542336863,0.049112190988634855,-0.0030023197850187772,0.446941894978819,-0.5674088573617886,9.958327849531878
2095000000.0,21.97,0.117188829175998,0.026775325808785708,-0.004918695730526829,0.2933185930713859,-0.1506798095140981,10.026310703464306
2100000000.0,21.97,0.10439154461134892,0.0042620054244342995,-0.002768078913208183,0.34531236710982366,-0.1785425710597257,9.988541755260117
2105000000.0,21.97,0.07824770731182683,0.005046471623366143,-0.002129301687433,0.31647035467740353,-0.4695079901613799,9.883770709354806
2110000000.0,21.97,0.06744857132178118,0.013031361910277109,-0.00046843747543858123,0.2964581590157816,-0.7231941836212419,9.897309204921092
2115000000.0,21.97,0.07589412530099632,0.02803512064996292,-0.0008197856081000878,0.08279524972255245,-0.737221294593313,9.862777553511975
2120000000.0,21.97,0.08935533074522274,0.0157609318243791,-0.0010646508437165,0.004708717643087175,-0.4799038411109384,9.923796411784565
2125000000.0,21.97,0.09587095373012233,-0.03329676532530709,-0.0026616360683282647,0.2501564033695641,-0.3654222936221229,10.035630495306906
2130000000.0,21.97,0.08984497162608619,-0.04556774069898564,-0.0031939525311496,0.48598826882658275,-0.5056082688265827,9.854536200191863
2135000000.0,21.97,0.07879179230336836,-0.024525598699312225,-0.0016395532981263235,0.7543902440944026,-0.594976707349067,9.880828780577387
2140000000.0,21.97,0.08790253283131383,0.016701603316188664,-0.0010646508437165,0.7420278596298786,-0.5022713764960137,9.896720275299202
2145000000.0,21.97,0.10327206788275732,0.05024954758776754,-0.0018205574644338586,0.5461217417268174,-0.3148020250549203,9.951166274976464
2150000000.0,21.97,0.10237051014664586,0.04441854327680194,-0.001384041564612763,0.267811705403717,-0.15892141534361415,9.99050408352234
2155000000.0,21.97,0.08911033481306746,0.011886750322772019,-0.0017992644686396155,0.10889058141710581,-0.3410950813235509,9.921931639558816
2160000000.0,21.97,0.06822063142303625,-0.020282947870286352,-0.001405334560407006,0.15853010346490104,-0.7016128362609284,9.901821683910816
2165000000.0,21.97,0.06357328719339826,-0.03054099754571194,-0.0017779714728453724,0.3342275831030759,-0.8569037102626371,9.875236289737362
2170000000.0,21.97,0.09028639602414584,-0.018232674150074606,-0.004237324081128384,0.525228200843282,-0.6400028826127289,9.904372495047525
2175000000.0,21.97,0.11925147200006196,0.009753042067792927,-0.004631226585248005,0.556717288766173,-0.2648683101293831,9.92772
2180000000.0,21.97,0.12033272192625179,0.031531187198413704,-0.003577222239428592,0.43281648015396484,-0.02079648015396479,9.959112211719422
2185000000.0,21.97,0.10000812818441708,0.02117160587183318,-0.0025232178936091506,0.3047962331489623,-0.12762924590709246,9.97677
2190000000.0,21.97,0.07535483326462679,0.004450189744805741,-0.0014692135477897353,0.22837654477126546,-0.4810841866011419,9.87337187685192
2195000000.0,21.97,0.06344549232848071,-0.007793299700953961,-0.0017140924854626431,0.23593071317620715,-0.7333962821638629,9.827952427905725
2200000000.0,21.97,0.0771262110245148,-0.007665448973806047,-0.0027680968312820816,0.33157855552068555,-0.7004333162822332,9.804113743605837
2205000000.0,21.97,0.10181144543799646,0.004535477668460797,-0.0019376552392457406,0.34786234302312347,-0.4466478866271789,9.79793382848844
2210000000.0,21.97,0.11124064961226171,0.009411504141055784,-0.0016821529917712785,0.31235031414680314,-0.14891455512864554,9.861208586339385
2215000000.0,21.97,0.10471499596174189,-0.0024061949531059244,-0.002736157337590714,0.35443568721345686,-0.10212265930832658,9.92065697209487
2220000000.0,21.97,0.08820535614170344,-0.010050299284904808,-0.0031939525311496,0.4748046468125465,-0.3712120817126209,9.943023643120837
2225000000.0,21.97,0.07414242168989985,-0.0013839804323607305,-0.002022827222422717,0.5395500000000001,-0.6528564075770641,9.925757827128178
2230000000.0,21.97,0.08410927488054712,0.016831002202932994,-0.0022144831566491387,0.4706832369040324,-0.6449085770135858,9.892207670054777
2235000000.0,21.97,0.10772984896427316,0.027197994044002624,-0.0037582221897187705,0.2872357581073576,-0.3355982332756824,9.89426803023658
2240000000.0,21.97,0.11547794101925545,0.018277705708205555,-0.002044110732177851,0.12556756490687565,-0.0659225908696259,9.872391295434813
2245000000.0,21.97,0.1009684147662174,-0.009974203523216096,-0.001628929988324834,0.14352086688360866,-0.14509116458651167,9.894464579670746
2250000000.0,21.97,0.07829537056330045,-0.029827686402622164,-0.0015969620365161314,0.31882600518166004,-0.4905018355491183,9.913004694075147
2255000000.0,21.97,0.06867296074012401,-0.02201515323036561,-0.0010433673339613693,0.5421997074153971,-0.7541933256080333,9.931546381807363
2260000000.0,21.97,0.08564135500134856,-0.0005109180665925032,-0.0016182645183494368,0.6902319072845191,-0.6918000586575007,9.995997687795578
2265000000.0,21.97,0.11227485742383408,0.02479338935883065,-0.0030662135284623606,0.6152821441222215,-0.37935098419860985,10.010810743994908
2270000000.0,21.97,0.12405905521448782,0.03883462783960472,-0.004343765872004014,0.3731712536073125,-0.04120067723920676,9.979908847263788
2275000000.0,21.97,0.11696839907863955,0.029827581002187572,-0.0027148548557573565,0.17805092554110927,0.06916001391940015,9.924286367432563
2280000000.0,21.97,0.09447523588808782,0.012018972800764936,-0.002597752864928121,0.09927711142747112,-0.23622732431707327,9.890834222854942
2285000000.0,21.97,0.06998168692095422,0.0042586033748661,-0.0031939525311496,0.06719827808308278,-0.6801286758848868,9.885733377533533
2290000000.0,21.97,0.07397174610958845,-0.000660136623843198,-0.0018524779860470564,0.08868293376602933,-0.7257424211044242,9.97402391168804
2295000000.0,21.97,0.10771716393557744,-0.015316922143725518,-0.00174604673521489,0.193159301198593,-0.3402084819636848,10.03690498795665
2300000000.0,21.97,0.12697618404425148,-0.0347321443141492,-0.003832738188959509,0.3904396529653965,0.011772580771625803,9.99246595532526
2305000000.0,21.97,0.11282002653659966,-0.037737925708621084,-0.003609171219159069,0.6847388954371889,-0.060921846102518454,9.92153893887839
2310000000.0,21.97,0.08417433495755372,-0.006029903017481304,-0.0034494589946413665,0.8081478448689785,-0.44714163962811637,9.823537844868978
2315000000.0,21.97,0.07542935406736269,0.03222972111418135,-0.002523227379648263,0.6654104563900046,-0.6819910201356102,9.82962
2320000000.0,21.97,0.09566443562619072,0.04824228700736446,-0.002810673336831459,0.32019722835637227,-0.4877510369656104,9.836683290126434
2325000000.0,21.97,0.11984308209939266,0.03681235217247247,-0.0017566689910120169,0.12605809355698092,-0.06278237422792372,9.84924
2330000000.0,21.97,0.12060949819744221,0.009060928472628436,-0.0021506094392881184,0.12870801463418013,0.12340921165309213,9.835898218970183
2335000000.0,21.97,0.10022628674690144,-0.009922565552239292,-0.003204584272985847,0.28086079890030796,-0.11938992237409923,9.829424072127441
2340000000.0,21.97,0.07900122212022342,-0.0025494289082385307,-0.0014053440464461184,0.3249067909347679,-0.5419058544541585,9.865720754548308
2345000000.0,21.97,0.07690820696870027,0.014555104010043906,-0.002129301687433,0.21925281676782815,-0.6975882345725823,9.938119784269098
2350000000.0,21.97,0.10088017450727468,-0.004370438281355476,-0.0024487018943684055,0.15303654775116549,-0.4365429459331295,10.081736497894765
2355000000.0,21.97,0.12281341390652017,-0.02820946720645949,-0.0031939525311496,0.3378580467497805,-0.030801844736318446,9.935076356423764
2360000000.0,21.97,0.11969391729636364,-0.03280862465548165,-0.0031939525311496,0.6352963792828638,0.17854154159831542,9.719747312397473
2365000000.0,21.97,0.1036874626240501,-0.00951515598242799,-0.0031939525311496,0.7394775243762752,-0.02187855092708549,9.632341221561012
2370000000.0,21.97,0.08236653524811542,0.03151452805497148,-0.0026403241004557955,0.6097880348301803,-0.45440067310100674,9.715628398447285
2375000000.0,21.97,0.07429878148944746,0.05459820725378546,-0.0015969862786160602,0.29675125444881256,-0.6450067157640672,9.85905092263051
2380000000.0,21.97,0.0995802450812722,0.03584118755739415,-0.0029384313115969297,0.08632776885677769,-0.4328154895401549,10.03680780097238
2385000000.0,21.97,0.1207053851887988,-0.0006429053979438368,-0.002619051130744072,0.08515154121221541,-0.12085845878778458,10.086346727158967
2390000000.0,21.97,0.11566954636127326,-0.0170518667919846,-0.004024375151107697,0.26428265341782653,-0.021582464228824646,9.921245260731354
2395000000.0,21.97,0.10518974191237161,-0.00988992101603442,-0.0031939525311496,0.46263941391999414,-0.11252102564001026,9.890049413919993
2400000000.0,21.97,0.09991660395895044,0.018116542931805438,-0.0029810173031854198,0.3649304150179042,-0.17069409323424092,9.868860233085602
2405000000.0,21.97,0.0990648883431981,0.017314586550201534,-0.0023315904175000572,0.08505237300032373,-0.20130157371391574,9.926739467142394
2410000000.0,21.97,0.09791503495017854,-0.00617502569656534,-0.0028106680668097484,0.08593709796347099,-0.27899677449086774,9.99737076594321
2415000000.0,21.97,0.092495987546626,-0.01617504909512593,-0.0014266423122621078,0.3600274690847747,-0.3633629629017296,9.943808024732181
2420000000.0,21.97,0.09348617403731478,-0.022715819483318647,-0.0031939525311496,0.4712732931063329,-0.4438038829384388,9.895936117061561
2425000000.0,21.97,0.10540224539596554,-0.019231614250527912,-0.003353655269628152,0.6337261884108619,-0.3222575108429751,9.97333607607556
2430000000.0,21.97,0.11822479966296934,0.014226301756047435,-0.004109547134284669,0.6299969256044694,-0.11968105600331055,9.903783788799338
2435000000.0,21.97,0.12394191317149343,0.03483148455203915,-0.0034707720165182312,0.36905097027920974,0.050325347296953475,9.941356041890861
2440000000.0,21.97,0.11662558504637852,0.02480249407299374,-0.0049399644842211135,0.14715,0.04708752605927526,9.95283303127113
2445000000.0,21.97,0.09541306894619409,0.01707114708872601,-0.002363535181213143,0.1514665899647659,-0.06837698226216982,9.84276511505285
2450000000.0,21.97,0.08384041743040065,-0.0014905834859012732,-0.004152133125873155,0.1942383807064838,-0.31784466623634666,9.796266285529864
2455000000.0,21.97,0.09160174285551989,-0.014425993056552367,-0.003002305028957945,0.2692847384271474,-0.43173757546027575,9.856303581483436
2460000000.0,21.97,0.10302683250154913,-0.008815262314660463,-0.0011498280969152014,0.3170593911301939,-0.31784304434903043,9.926935152217451
2465000000.0,21.97,0.11237986704742757,0.00014906151060315977,-0.002352893953337754,0.3572804872780048,-0.1242917902863179,9.922030487278004
2470000000.0,21.97,0.11911905489411892,0.002001533172624083,-0.005067717188964854,0.4126086479767865,0.049638647976786486,9.970883520232135
2475000000.0,21.97,0.11526407823290942,-0.0001064755190146736,-0.0011178886032238368,0.42379219229562193,0.05199232696532327,9.874745615408756
2480000000.0,21.97,0.09885193203514701,-0.0019163453793819196,-0.002086710425822785,0.46107,-0.08554406707844067,9.799797551828975
2485000000.0,21.97,0.09386941317946779,0.003641702907783963,-0.0010965956074295937,0.45959825865928255,-0.2553543482681435,9.791851741340718
2490000000.0,21.97,0.09808543056274549,0.01826560549641291,-0.002150599953248974,0.41005751634737514,-0.265262496730525,9.839822496730525
2495000000.0,21.97,0.10235488140476356,0.025505162934203796,-0.003215256066987302,0.31323296076332957,-0.28350851537618516,9.860227781548577
2500000000.0,21.97,0.11185816757038168,0.019181126232849968,-0.005323227868474055,0.2452493687264937,-0.18638922304799224,9.976769708642998
2505000000.0,21.97,0.11502018060783993,0.010731812706527155,-5.320613937696405e-05,0.11899466746394669,-0.030998821494088225,9.918498308060283
2510000000.0,21.97,0.11087865181969005,-0.0050039383319949796,-0.0031300893538320556,0.15617539501495395,0.07632233629112335,9.898682302492523
2515000000.0,21.97,0.10561298803570893,-0.019798216679895852,-0.0021612359111026387,0.38533797242057977,-0.007161739657717395,9.945868744254287
2520000000.0,21.97,0.10238658303904798,0.0032785487342148027,-0.003151371809582839,0.5054117873757179,-0.14165708527167087,9.824910563676307
2525000000.0,21.97,0.09922457000158974,0.019446538453807727,-0.00015968165839164118,0.26781172482751725,-0.20306729427057293,9.866407745225477
2530000000.0,21.97,0.1030679968486203,0.017243487944067604,-0.0010007771263554999,0.15362405943564061,-0.14145985600449856,9.924188694853287
2535000000.0,21.97,0.10631011525308634,0.00020341445854469772,-0.0010646508437165,0.23838349239333492,-0.08259990456399904,9.891226603042666
2540000000.0,21.97,0.10751438167229514,-0.024588327094081992,-0.002044134974277757,0.3355024933645249,-0.02432850398128504,9.861404251990642
2545000000.0,21.97,0.1105060612834429,-0.028571399650761765,-0.004066976952761361,0.6111644830071449,-0.08211004603500045,9.894758597734285
2550000000.0,21.97,0.10502864605660807,0.009580327369205069,-0.0042586033748661,0.672966198122762,-0.14126429718414296,9.880631900938619
2555000000.0,21.97,0.10724630999102783,0.04038724431931022,-0.0014159694642563343,0.40623056153790565,-0.129688100744381,9.957248546650286
2560000000.0,21.97,0.11977922419209686,0.0408574434679797,-0.002001548982689271,0.1483259071518591,0.06239269394842695,9.96696
2565000000.0,21.97,0.11588249950731125,0.01637645823264823,-0.003981804969584385,0.06651150106771501,0.13096374911023748,9.924286250889761
2570000000.0,21.97,0.10313422750976486,-0.012876143804781255,-0.0024273930885089588,0.1854097487874975,-0.05670294814082949,9.8926000502425
2575000000.0,21.97,0.09485947951366111,-0.0170518667919846,-0.003034260332714491,0.3144111502117115,-0.188352600195426,9.846787249918572
2580000000.0,21.97,0.10538235289548671,0.0008490370105768766,-0.0022996403837652313,0.34178045011340447,-0.14832684920616848,9.847670450113405
2585000000.0,21.97,0.11378520793186071,0.006025934673840509,-0.002129301687433,0.38406175105261753,-0.05591649789476498,9.955090552736806
2590000000.0,21.97,0.11679814259464634,0.003768847607528994,-0.0030023208390231233,0.3360902478465025,0.05729100369171003,10.00090275092293
2595000000.0,21.97,0.11459428801782039,-0.010604009927937603,-0.0031939525311496,0.3316761504047615,0.13410305283333052,9.934684646357146
2600000000.0,21.97,0.10630795532172163,-0.015557876003772148,-0.004045678686945398,0.4748049090338491,0.06866949498119496,9.800189242471792
2605000000.0,21.97,0.10102382393018594,-0.005880471862370425,-0.0025764440590686673,0.6031194071879942,-0.0671992589849926,9.778509950599
2610000000.0,21.97,0.10262083866691943,0.010923411188877305,-0.0012988685274314448,0.5742770451271705,-0.1822703576573036,9.811177402784475
2615000000.0,21.97,0.10989522414050823,0.032134070841833534,-0.0027042241679254442,0.29478872223668723,-0.12291874127438743,9.85002500317295
2620000000.0,21.97,0.1167129927455606,0.02999797134473276,-0.004003092695356912,0.1263521893157219,0.04355736691677366,9.941062159793923
2625000000.0,21.97,0.11585057582368508,0.01730486750701366,-0.005057097041176365,0.11281510197495102,0.10300510197495102,9.893384490125245
2630000000.0,21.97,0.10794856424839719,0.005174142115770872,-0.0053232542185827,0.13223890216918902,0.07887219566162196,9.847081646746217
2635000000.0,21.97,0.11012873842319179,-0.011095850705937136,-0.002214451536518764,0.16598540472685402,0.09015405354514054,9.918204862998849
2640000000.0,21.97,0.11109159758769767,-0.012908432795946372,-0.001831205016335326,0.22602275895182758,0.10516325127883253,9.89083398976934
2645000000.0,21.97,0.10700157061389749,-0.012467066955603604,-0.0013733940127112956,0.3497272706392727,0.031293334864533354,9.938511513759515
2650000000.0,21.97,0.09874544281407585,-0.005323198356352291,-0.0018099120205410828,0.4679375662037757,-0.12360692651526926,9.912023588215435
2655000000.0,21.97,0.1017478532434684,0.005951459780769282,-0.0028639163663605302,0.43262048429810485,-0.1291973390086734,9.834328387438484
2660000000.0,21.97,0.11308762906498182,0.005962016688296965,-0.002469984350119192,0.40888085166730853,-0.007847224990372256,9.796658296665383
2665000000.0,21.97,0.11932137102829901,0.01139182020619855,-0.0014159800042997817,0.41202,0.16412228352412284,9.803525503528856
2670000000.0,21.97,0.12107803369528498,0.0149051118120315,-0.0024700012141887595,0.37964674069226745,0.2644779111692791,9.881221170477012
2675000000.0,21.97,0.11659580854239238,0.00867685362598053,-0.0025019238438105597,0.34384034412400344,0.23985413628934138,9.937039655875997
2680000000.0,21.97,0.10648107916406199,0.008730165165792097,-0.003492066066316771,0.35237535616735355,0.09025095888430959,9.928504643832646
2685000000.0,21.97,0.09823442672507918,0.016023389636597923,-0.0029171319917765727,0.24554330909483307,-0.12252809951678098,9.874647534929675
2690000000.0,21.97,0.09653102500569612,0.013229544602266791,-0.0027893908810806725,0.13400423424984234,-0.19384549549995495,9.861404504500046
2695000000.0,21.97,0.10668787369359242,0.0011391025486921988,-0.0038433952269000884,0.12586245704142457,-0.024817886627178876,9.87484415234714
2700000000.0,21.97,0.1218659493739806,-0.010007769155546646,-0.002981010979159305,0.2079726293311263,0.2256313111065131,9.843353685334437
2705000000.0,21.97,0.12217456711645824,-0.013212311268358696,-0.002757451387389305,0.3881829084517291,0.35845771524827713,9.877689525413794
2710000000.0,21.97,0.11577604401437919,-0.0016607524875338134,-0.0031939525311496,0.4977595579154956,0.285862505145525,9.87808103153051
2715000000.0,21.97,0.10608836782308322,0.014286990686965588,-0.0031939525311496,0.415060203494502,0.09839319255203192,9.888382269149322
2720000000.0,21.97,0.0983409085681199,0.01725499435400203,-0.002001532118619781,0.24446424901074248,-0.06710113965831141,9.95087191699642
2725000000.0,21.97,0.09752115036413281,0.009635038436721498,-0.0022357782604520747,0.18835221171942212,-0.12213444707014448,9.944396682420866
2730000000.0,21.97,0.1049086688974323,-0.0033005039384771968,-0.0020441181102082697,0.25898453026974533,-0.001176033406560334,9.886125281838153
2735000000.0,21.97,0.11982183231777663,-0.011210779149738916,-0.0016289215562900166,0.39769835623368355,0.23328318122643182,9.807056468759065
2740000000.0,21.97,0.1278279144160647,-0.010050286636852663,-0.0037901743314622894,0.5419050386545504,0.429678798318188,9.786456266106063
2745000000.0,21.97,0.11968324866437524,0.0007134144355156555,-0.0036943210682447774,0.5783973867266738,0.40525008695170084,9.794990540045006
2750000000.0,21.97,0.10546145039243729,0.01757555261797456,-0.002661632906315202,0.4463537714446377,0.18148355778283556,9.814905373908154
2755000000.0,21.97,0.09749983418024297,0.03026423603058232,-0.0031939525311496,0.2518217902863179,-0.05670297727652978,9.873274767562847
2760000000.0,21.97,0.09791508870440019,0.03361781646590192,-0.0031939525311496,0.058466366977163675,-0.18560541443875414,9.89829
2765000000.0,21.97,0.10464126785666782,0.02144054923197325,-0.0036943442563403873,-0.0035309555183095573,-0.06768738879577388,9.907511507413615
2770000000.0,21.97,0.12148273552793193,0.0012561887294562056,-0.003279112920278722,0.08593592282355923,0.264283498353135,9.89083407717644
2775000000.0,21.97,0.13288497667509763,-0.011391799126111655,-0.0016502029580364556,0.16628009291150092,0.5503419702188197,9.836977230494773
2780000000.0,21.97,0.12152507593650777,-0.02006576590330403,-0.0015331030752159228,0.28606035597430357,0.5568144660385447,9.874746809972468
2785000000.0,21.97,0.10254549269973198,-0.01884352190216773,-0.002129301687433,0.417808603238686,0.2558424198075242,9.906529750856597
2790000000.0,21.97,0.08848221778724591,-0.0013626589784491733,-0.0016821424517278203,0.4204556787291568,-0.11379762577207626,9.888873050308831
2795000000.0,21.97,0.0898344421226715,0.010263257700964572,-0.0019376763193326573,0.30361922855239226,-0.2724235371314354,9.95715
2800000000.0,21.97,0.10567281123164779,0.014060390258100304,-0.0027680862912386234,0.29822432631984325,-0.10986998769429987,9.937529728066798
2805000000.0,21.97,0.12465536133514825,0.013904310357182245,-0.0029597411714606687,0.33736595448375956,0.29920772418797725,9.873666409646164
2810000000.0,21.97,0.1371609000022946,0.005387056263648195,-0.0042586033748661,0.38808425497054255,0.6878785099410851,9.81981
2815000000.0,21.97,0.13100081015206605,-4.2538561392913444e-05,-0.003076823136207347,0.46107,0.7285871143380712,9.816180245322004
2820000000.0,21.97,0.10674136609018245,0.009162339984566718,-0.002214491588683887,0.40103186882301867,0.35511898736858993,9.824126619100467
2825000000.0,21.97,0.0836806419656222,0.017477750949969388,-0.0038859696244407708,0.2221953476830535,-0.0897630912948309,9.890442658466826
2830000000.0,21.97,0.08571428011062002,0.0144480890654281,-0.0028319652786213587,0.10163181987741819,-0.22131272049032719,9.950282725153228
2835000000.0,21.97,0.10680014462958441,0.001437248757994138,-0.0031833239513263233,0.16637826079768261,-0.010887282806372814,9.87258702906937
2840000000.0,21.97,0.12659299127828966,0.0009369466231727423,-0.004641865705114739,0.2640855309815553,0.3347194617072946,9.764873724182038
2845000000.0,21.97,0.1349504225632436,0.011088491872218439,-0.0028639047723127264,0.2645749816107498,0.6538373289106733,9.740643465782135
2850000000.0,21.97,0.12750839299862948,0.01566251852283562,-0.002129301687433,0.17069388928433887,0.7112241696325416,9.793323608936136
2855000000.0,21.97,0.10506048541988655,0.000654889565585787,-0.002129301687433,0.18256459909454598,0.48304195998221955,9.900154510004445
2860000000.0,21.97,0.08633162205001427,-0.019862623395159356,-0.002129301687433,0.2617311333124113,0.058465211261052114,9.971276288895863
2865000000.0,21.97,0.08297805637075548,-0.02724052101134771,-0.00270422522192974,0.33854382343943823,-0.2399524887016249,9.9359599548065
2870000000.0,21.97,0.09451285378699535,-0.014704975980874037,-0.0042586033748661,0.49795704940397056,-0.1516609833571098,9.853163442536934
2875000000.0,21.97,0.1190490720120607,0.0095864149527313,-0.004790940917774352,0.6670795532525956,0.18148779217127795,9.758496997409171
2880000000.0,21.97,0.1426653560216391,0.03771034276046617,-0.005876860515185192,0.5281684980214849,0.6176392222757923,9.720533471286535
2885000000.0,21.97,0.14350222738576013,0.04605976864051097,-0.003768851823546336,0.2115020309454203,0.8180555077363552,9.82353813622598
2890000000.0,21.97,0.11713478517228114,0.04195688905132407,-0.0016608431319075022,-0.015107792943477928,0.6788497546086976,9.89475907361739
2895000000.0,21.97,0.0887590193545407,0.014883032580831573,-0.0004471655597312546,-0.06867,0.288313594492036,9.990700312463803
2900000000.0,21.97,0.08266928368963895,-0.028553794512500966,-0.0023422379694015257,-0.005884197471341973,-0.06867112658041126,10.006200000000002
2905000000.0,21.97,0.08846106392002537,-0.05509525851090792,-0.003396242315220984,0.31048847491488474,-0.19580669718176696,9.963329002198792
2910000000.0,21.97,0.10609484829104908,-0.03821377530547346,-0.00445024666104038,0.6150878478488785,0.001964260930342618,9.769974860860449
2915000000.0,21.97,0.12628723002581926,-0.00018838732851993167,-0.0053232542185827,0.7190724337962243,0.39210802143548024,9.70836794703698
2920000000.0,21.97,0.13904268349061527,0.04763448280513189,-0.004982553637822645,0.5732940745826408,0.7494848507624485,9.64323
2925000000.0,21.97,0.1323525263537244,0.08426620461998567,-0.0031939525311496,0.17952084104460841,0.8392441932638419,9.68001892036539
2930000000.0,21.97,0.10763960438647621,0.07182594234263939,-0.002895837941978033,-0.1812906211755062,0.5911482666188826,9.914575681322956
2935000000.0,21.97,0.09369899859482263,0.01990019702588443,-0.0010646508437165,-0.45253535700885356,0.21336607477866074,10.090174284106244
2940000000.0,21.97,0.08641684251739114,-0.045035352650262594,-0.0010646508437165,-0.40573891601928913,-0.0035317713179177134,10.180817428940273
2945000000.0,21.97,0.08887626047394352,-0.08781160963022701,-0.0009475330428220881,0.09496583387205834,-0.01432179915671799,10.07398601314126
2950000000.0,21.97,0.10311241891577917,-0.09576247033282885,-0.0005323565149864716,0.9054654639090547,0.13930383360673834,9.881611452894314
2955000000.0,21.97,0.12152525617125097,-0.04879070419866992,-0.0053232542185827,1.2762804260267044,0.440372105343921,9.626453809450739
2960000000.0,21.97,0.13246974217702298,0.035581479746186105,-0.0052380759113796445,1.1493368402664683,0.6341188599555887,9.459194572483346
2965000000.0,21.97,0.12403770741046757,0.11488183515942074,-0.004184071565560174,0.6625629078577291,0.6967053937180538,9.510993273296432
2970000000.0,21.97,0.11579732857813867,0.12382349194735597,-0.0031300672197407896,-0.094965299717553,0.5625047654244477,9.852380469151104
2975000000.0,21.97,0.10999404594649011,0.07313747639104688,-0.002129301687433,-0.8053999598554997,0.4512588442838884,10.065551713501916
2980000000.0,21.97,0.0945933233902591,-0.017760891662253822,-0.002129301687433,-0.6231290583317907,0.2554510108098101,10.255765589639056
2985000000.0,21.97,0.08961081402061896,-0.08724797645205262,-0.002129301687433,-0.25466365735703655,0.03413972768069728,10.117444124439041
2990000000.0,21.97,0.09408277241091789,-0.11773452397775076,-0.00215060100725332,0.4055492911698929,0.19306277462352775,9.90280103191661
2995000000.0,21.97,0.11093198760160156,-0.09185619208353772,-0.0032259109969191902,1.053203694274137,0.5214023726142237,9.640776045642962
3000000000.0,21.97,0.1246338859966021,-0.01064600230773429,-0.006387886090220975,1.4028285432149854,0.6670792424717925,9.397980640985407
3005000000.0,21.97,0.11198583384676905,0.07370890287735422,-0.003225873052762741,1.1600310407870105,0.5408245412092455,9.504811542053716
3010000000.0,21.97,0.1118581517603165,0.13093633959178516,-0.005280680875046361,0.27310502116125035,0.32804511375595113,9.640484018518942
3015000000.0,21.97,0.10669456339006025,0.14656149502558355,-0.0032578188704801823,-0.5823267535226675,0.32373,9.938218515445486
3020000000.0,21.97,0.11164525342250443,0.07132555006452833,-0.002171881354995415,-1.0225969810345699,0.36140063463950634,10.295793370415433
3025000000.0,21.97,0.1148924257950875,-0.023916827335780336,-0.0011178770091760327,-1.021220882486009,0.5027633813549338,10.273031764972018
3030000000.0,21.97,0.10804665702894699,-0.11688072454357036,-6.38726633566543e-05,-0.42084517448255165,0.6853277182281772,10.215741246875313
3035000000.0,21.97,0.09966226325882266,-0.1571755007506042,0.0,0.5114991772208918,0.6235231283901314,9.819905565096956
3040000000.0,21.97,0.08731106612841041,-0.13724067664089792,-0.003917940738262502,1.4722906457869063,0.32019645140436453,9.645975855226357
3045000000.0,21.97,0.0901644329652737,-0.05774161018575741,-0.0042586033748661,1.621397273163773,0.2853728408545284,9.490585453672454
3050000000.0,21.97,0.10589446468247653,0.05443228461103841,-0.00521679556363755,1.5843147037870473,0.3021481184851812,9.432314703787046
3055000000.0,21.97,0.11707500529419314,0.1456836975366524,-0.006270799909456937,0.9857047648997477,0.31284095933970957,9.497257674717677
3060000000.0,21.97,0.12480435117345587,0.17990102766578422,-0.0035772074833677627,0.023145478006654785,0.41751431324194316,9.903001534094116
3065000000.0,21.97,0.13218238159419182,0.13132414500906067,-0.005972710616389671,-0.857693598521336,0.5938004311450044,10.187588507416585
3070000000.0,21.97,0.1249107128600012,0.05393821024232119,-0.005472298865116326,-1.156796511883465,0.8626931293009312,10.1714000422136
3075000000.0,21.97,0.11089987525119746,-0.03707747271068659,-0.003513334820011111,-0.9285146484262465,0.7857801638054017,10.038081604077215
3080000000.0,21.97,0.08629170832229634,-0.08424239640696835,-0.0005110129269836256,-0.43791516943355163,0.5921303436686035,9.859441263319212
3085000000.0,21.97,0.07849580802976729,-0.10911916870618969,0.0008836667034915087,0.08652743581087441,0.437034601163646,9.723769321008493
3090000000.0,21.97,0.08388301290802826,-0.1129228026040331,-0.0006813895674722744,0.7477224613875246,0.33157739980457396,9.70209
3095000000.0,21.97,0.0955729118672507,-0.08531270668382282,-0.0010646508437165,1.1988825647831258,0.22651223871672238,9.781551601166617
3100000000.0,21.97,0.10311060075828263,-0.02683927429134024,-0.001916378053516644,1.5264379268409793,0.2374022408551224,9.823734180641342
3105000000.0,21.97,0.1170181414487185,0.04001628101026414,-0.004652543823142226,1.4497207144038071,0.46224888870518893,9.8528698809327
3110000000.0,21.97,0.13283187172013788,0.09171525292048983,-0.006153688432588601,1.0530025608231255,0.6500116269363163,9.797835116735852
3115000000.0,21.97,0.13060660715303532,0.12768569921660794,-0.0072076927784079795,0.3019465965581659,0.8226676890924769,9.742801197474313
3120000000.0,21.97,0.11999201185945266,0.11343365743036482,-0.006643414687804042,-0.43635322396473225,0.900558303011283,9.724064339397744
3125000000.0,21.97,0.10359390565616941,0.07217344441344303,-0.0031939261810409038,-0.7921590174843901,0.7504636646137366,9.72171
3130000000.0,21.97,0.08961070967418876,0.017362521354663582,-0.0029171499098504887,-0.9478429903544299,0.5005045584946456,9.823342451150925
3135000000.0,21.97,0.08084866614695732,-0.025085499682655568,-0.0016395490821089402,-0.7017069251490693,0.23828325587243254,9.95930905251059
3140000000.0,21.97,0.09110140593855505,-0.05662704395974032,-0.0002980956170933282,-0.47833456315754563,0.2656556538702565,10.088212392879523
3145000000.0,21.97,0.10873377614676438,-0.08540053567372555,-0.0007559087287260502,0.02109547071035478,0.554855799162658,10.137850322175705
3150000000.0,21.97,0.11994955129438123,-0.0929963718937864,-0.0018099130745454287,0.6386348546531485,0.8495477131791771,9.978730531560705
3155000000.0,21.97,0.11515850286816355,-0.08312697875278496,-0.002129301687433,1.17602598666866,0.843953503332835,9.799796619486566
3160000000.0,21.97,0.09809086794654163,-0.04044241615951338,-0.002129301687433,1.3875268910336689,0.6042941586237416,9.571026742761367
3165000000.0,21.97,0.09089900970004473,0.020447630848413976,-0.003555947161708195,1.294330293426103,0.39838305490243053,9.479697238523672
3170000000.0,21.97,0.0954664152681491,0.07247962928926666,-0.0042586033748661,0.9058522597542227,0.3498246615734466,9.586529246748594
3175000000.0,21.97,0.10700796888680315,0.09464664757812284,-0.0042586033748661,0.45518128649511286,0.4615615483996155,9.777137795081877
3180000000.0,21.97,0.12071613392511747,0.08437257263055703,-0.005621369861758563,0.11575614696946146,0.6580561588890617,9.981087697121376
3185000000.0,21.97,0.1256986127286316,0.05858633281097167,-0.004375694825651904,-0.15087940848489406,0.8099143423776434,10.092332171188822
3190000000.0,21.97,0.11909771025211173,0.03077102696173183,-0.00517422327410553,-0.42163559689575597,0.8352232141142322,10.065451904304618
3195000000.0,21.97,0.10335147017703024,0.003999078960414307,-0.003140686313524904,-0.45793005529150055,0.7522300552915006,9.9638200552915
3200000000.0,21.97,0.08948296329347113,-0.01789672768183452,-0.0004258535918587867,-0.3237290676575907,0.6298011919699119,9.782530570408305
3205000000.0,21.97,0.08710887963676493,-0.04253944145199712,-0.0012563015079211834,-0.13174686817456868,0.6077298112663981,9.640188339720483
3210000000.0,21.97,0.09088839693028664,-0.05865462940702787,-0.002129301687433,0.1712849069647491,0.5880109635472097,9.575540688248006
3215000000.0,21.97,0.09146326776456609,-0.04478268980410199,-0.002129301687433,0.4747075860829759,0.5088441379723414,9.594082337132622
3220000000.0,21.97,0.0965097941961583,-0.013464655580583032,-0.002725512947702283,0.5776126749107268,0.5368039505356396,9.727989588348096
3225000000.0,21.97,0.11057282565091922,0.008676992754554148,-0.0031939525311496,0.5581888747164888,0.6695334396263344,9.901724564909847
3230000000.0,21.97,0.11364671070681576,0.021238637610838128,-0.0031939525311496,0.5122777608278777,0.7675347764332477,9.97677
3235000000.0,21.97,0.10407688205027549,0.020991006719654565,-0.0020654089979938216,0.41309828313208286,0.7842112743280127,9.924776371640064
3240000000.0,21.97,0.09961851361187885,0.00988826216870288,-0.0027255266497587744,0.3327549482675495,0.7596862112006622,9.776644741337748
3245000000.0,21.97,0.0974146453329964,0.0037156246040824805,-0.0037156246040824805,0.31392,0.7105378587883786,9.642444695758147
3250000000.0,21.97,0.0942739526954454,0.0042586170769226455,-0.0031939525311496,0.3482554418914544,0.6572697474905975,9.667755820655557
3255000000.0,21.97,0.09687174877455176,0.009496740418497858,-0.002672266756160175,0.3345203677553037,0.6232291103265911,9.774782669020226
3260000000.0,21.97,0.09859642135563779,0.013329421691222696,-0.0026403409645253026,0.24681909342729094,0.5752579567488796,9.942240446361305
3265000000.0,21.97,0.09943755055174076,0.006771096774256614,-0.003694345310344733,0.21523152683741525,0.5764361073496611,10.065648473162584
3270000000.0,21.97,0.10618483975229422,-0.0029384776877881616,-0.002789364530972019,0.2933199527373995,0.6857199527373996,10.023661355389214
3275000000.0,21.97,0.11127260070000089,-0.003513306361893769,-0.0020228504105183256,0.3771945636129456,0.8446421450330215,9.924776109418762
3280000000.0,21.97,0.10951588533279756,0.007971385415621795,-0.0031939525311496,0.36532414515974143,0.9676587822603879,9.767227189508771
3285000000.0,21.97,0.10194932463636215,0.020405551573734422,-0.0027361457435429097,0.25054599624195995,0.9415629066994291,9.641758180964082
3290000000.0,21.97,0.09005785204582442,0.016725037012088027,-0.002129301687433,0.09044762486127625,0.7561531384881314,9.626160791712907
3295000000.0,21.97,0.08072093346829615,0.00439695936332879,-0.001692787895620596,0.027173507995735077,0.5478875399786753,9.671385148009952
3300000000.0,21.97,0.084798664427398,-0.007246725427607855,-0.0010646508437165,0.08436721787227218,0.49246251278832515,9.76683689737957
3305000000.0,21.97,0.0987310905751289,-0.012711840389169412,-0.0018950924357528608,0.2688933197175332,0.604591391326214,9.84541403580434
3310000000.0,21.97,0.11058064052294438,0.0005962882025865235,-0.0031939525311496,0.3676785428288854,0.7920608787339087,9.854341457171115
3315000000.0,21.97,0.11599962257822748,0.01206901478453825,-0.003981808131597472,0.32157141366061415,0.9755071726787717,9.871410471220205
3320000000.0,21.97,0.10823195061280931,0.0181165176357011,-0.0053232542185827,0.25623668410386685,1.0178850196168503,9.791948374746683
3325000000.0,21.97,0.09278335023746595,0.014011426019688786,-0.004205349805293606,0.18197504791105046,0.8927087083172871,9.655492177079323
3330000000.0,21.97,0.08019328500065613,0.0031300103035061195,-0.002491289993965587,0.14067546468125464,0.6751224536061247,9.626945464681254
3335000000.0,21.97,0.07562025077288495,-0.0017885852966078406,-0.002842610722514135,0.1406752704432527,0.48088581132975816,9.649606823891867
3340000000.0,21.97,0.08458577768363376,-0.0002981303992367723,-0.0017886063766946899,0.13066926487549266,0.5230708867628089,9.751533827260838
3345000000.0,21.97,0.10501117761061582,-0.0031939525311496,-0.001724748469398908,0.1859986395617864,0.7725391243152913,9.91653698983567
3350000000.0,21.97,0.11632964293295131,7.061829116004198e-08,-0.002555147901261436,0.29724306506973064,0.9505891952091919,9.95715
3355000000.0,21.97,0.10691299711679392,0.00560002100373397,-0.00168216247781042,0.2927301393326014,0.9455853134983532,9.948615104499451
3360000000.0,21.97,0.09271951973428305,0.0004684322054168522,-0.002597733892849924,0.2868449221117492,0.8609250778882508,9.894757616832377
3365000000.0,21.97,0.08764119188356884,-0.0016395764862219319,-0.0016395764862219319,0.3301061731945617,0.7964737039167371,9.770268519583686
3370000000.0,21.97,0.08980246152281066,-0.0029171362077939932,-0.0029171362077939932,0.3070533272910333,0.7647873381671735,9.675603327291034
3375000000.0,21.97,0.0937416341246154,-0.0005322827346822196,-0.002129301687433,0.34335,0.728392303334023,9.719257696665977
3380000000.0,21.97,0.09348611079705405,0.006047266667795536,-0.002129301687433,0.3339321373902214,0.7251557252195572,9.762520190872001
3385000000.0,21.97,0.09414624425888417,0.010976528791889229,-0.002129301687433,0.30636636574956366,0.7848,9.847670925996509
3390000000.0,21.97,0.09883065801143101,0.010629119577140609,-0.002597762350967211,0.30528693661326933,0.7934330633867307,9.91673306338673
3395000000.0,21.97,0.0977766536656116,0.01789293380183113,-0.0038114357071261326,0.25407834056198336,0.8405213275504133,9.943219668112397
3400000000.0,21.97,0.09821321067160217,0.016838929456011727,-0.0017034270154872968,0.16480760375447603,0.9241027264501273,9.906137273549874
3405000000.0,21.97,0.10271661920383708,0.01315182797196053,-0.00020229083807573003,0.10094430475764304,1.0067020677239207,9.803034304757643
3410000000.0,21.97,0.09667994106369952,-0.0006601482178910305,-0.0008730065035378915,0.04179106364611064,0.9625561402374614,9.713861337648414
3415000000.0,21.97,0.08024183263089091,-0.010873145877134043,0.0,0.12478426131644262,0.8088335050158352,9.638423298996832
3420000000.0,21.97,0.07721827465830383,-0.022545472354951666,-0.0005110540331531121,0.27703533001155334,0.6898393328587934,9.665989332858794
3425000000.0,21.97,0.08229674585360915,-0.02136099073771205,-0.003034247684662341,0.41594506442425067,0.723978798318188,9.689827832632579
3430000000.0,21.97,0.09676528590358927,-0.006451632273056133,-0.0022783600360231364,0.5576007997418081,0.8377746662363468,9.745254666236347
3435000000.0,21.97,0.10170519347157568,0.015823139886577214,-0.0030555406804565863,0.581437298864173,0.9234153667207536,9.82962
3440000000.0,21.97,0.09774470679388983,0.036343347331678176,-0.002512597745820662,0.3727783295531833,0.939013600907236,9.822556399092765
3445000000.0,21.97,0.09528534153755469,0.03446746032380066,-0.005206135363683932,0.14832666468006664,0.99081,9.773997500744974
3450000000.0,21.97,0.09022826452246087,0.010433490996862227,-0.003939186303861181,0.08044213402422133,0.9839425309152253,9.782530793782009
3455000000.0,21.97,0.086778773907689,-0.0016396059983436058,-0.0012563025619255382,0.10074890132768902,0.9212570328907703,9.625375934218459
3460000000.0,21.97,0.08122136208363909,-0.007963632073260082,-0.0031087731699421988,0.1361635392698354,0.9091905311746052,9.648724070444441
3465000000.0,21.97,0.08408524366785623,-0.013990748545153748,-0.002129301687433,0.24368120764161208,0.8703429307861293,9.715333836517338
3470000000.0,21.97,0.08309512568745,-0.015155645880431228,-0.002129301687433,0.3590466740058667,0.8326726651988268,9.76271600220176
3475000000.0,21.97,0.08346780476006221,-0.0017566226148207909,-0.002129301687433,0.449788297506883,0.8152111349954114,9.79038
3480000000.0,21.97,0.0906328683327036,0.005920259645208385,-0.0022144884266708177,0.41790532405175324,0.8365972731637729,9.789202597215526
3485000000.0,21.97,0.09264503640917701,0.020469447425186707,-0.004226656503144314,0.32078632308056326,0.9039918384597184,9.761538735383887
3490000000.0,21.97,0.09165493318483163,0.027740975976799327,-0.003172652157324934,0.22248971537499715,0.95157,9.78115880336719
3495000000.0,21.97,0.09367771086905015,0.02974244590916266,-0.0021506094392880854,0.06690297804872977,0.951864503658545,9.810196335772364
3500000000.0,21.97,0.08735367741610316,0.021310307729230128,-0.0042585886188052586,-0.1079096600834966,0.9809998640333987,9.829620339916504
3505000000.0,21.97,0.0799756469953673,-0.0018950666385644833,-0.0021505799271664024,-0.059350159597901596,0.9615760638391606,9.878179840402098
3510000000.0,21.97,0.08407463406011122,-0.018840249650642925,-0.002129301687433,0.08534802266308023,0.8844690545796906,9.869056131822461
3515000000.0,21.97,0.08519249525922215,-0.006771613927536458,-0.0010965829593774438,0.13586884137328842,0.8638684634506847,9.811765390352054
3520000000.0,21.97,0.08726857183519997,0.003832817239285434,-0.0010646508437165,0.16559300511533004,0.9009506734871067,9.904176683717766
3525000000.0,21.97,0.09342228345588427,0.006281454839388821,-0.0010646508437165,0.12949172612441726,0.9397982738755828,9.917419568468894
3530000000.0,21.97,0.08873773795279426,0.004386346593570723,-0.0020654300780806913,0.07220118860391189,0.9694244056980441,9.908688531433985
3535000000.0,21.97,0.08742824716956554,-0.0056427239898048775,-0.002129301687433,0.11428684331566843,0.9803133686631337,9.871606525347465
3540000000.0,21.97,0.0853947565851762,-0.020116769553730957,-0.0031087879260030403,0.22602322512303225,1.008075806280758,9.79665784991798
3545000000.0,21.97,0.08328674789353736,-0.01548154910411395,-0.001256273049803855,0.3961290394326904,0.9747213245705132,9.710035480283654
3550000000.0,21.97,0.0811787392018985,0.0004259800723802349,-0.0029810373292680006,0.4296781379089814,0.9976772068634722,9.675602793136528
3555000000.0,21.97,0.08759865121416725,0.004971941922068929,-0.005089046020906857,0.3094064332774643,1.0617367833612679,9.742507752412877
3560000000.0,21.97,0.0884183799060327,0.0006387529836752127,-0.002512553477638137,0.36336295318982953,1.0779228691487288,9.725241392553814
3565000000.0,21.97,0.07728815042933031,0.008336283741759327,-0.002129301687433,0.3642452307541523,0.9852175382956754,9.679036153770761
3570000000.0,21.97,0.0756251164889143,0.006835035839887056,-0.002129301687433,0.2448566291984663,0.9543166613140667,9.67266
3575000000.0,21.97,0.0810697164308401,0.0018631012958485417,-0.002129301687433,0.29233855552068555,0.9432314305599143,9.647644291679743
3580000000.0,21.97,0.08024184633294744,0.0001703365883235239,-0.0012349874320400239,0.3205909390744094,0.9912028172232282,9.667951408611614
3585000000.0,21.97,0.0852031797012757,-0.004418338787479438,-0.002831986358708292,0.32373,1.0576165874402659,9.664517630365676
3590000000.0,21.97,0.08192397192060577,0.0016609158582074094,-0.0031939525311496,0.3880841578515416,1.0532014605371147,9.654805730268558
3595000000.0,21.97,0.07405268861522828,0.00836820110135943,-0.0023315777694479073,0.3624791508571915,0.9384236224001362,9.65304
3600000000.0,21.97,0.07670376803521028,0.01726137472611252,-0.0004258451598240201,0.24328702104047023,0.9672664894797649,9.692280349628403
3605000000.0,21.97,0.08534160736203385,0.014961971424210022,-0.0016821635318147368,0.2235699700227997,1.1359994004559941,9.756339790159597
3610000000.0,21.97,0.08652329379430586,0.000553496680150584,-0.005451042759474143,0.2026743896402439,1.1312887792804878,9.755456259760162
3615000000.0,21.97,0.07561838504696275,-0.0007345862208101473,-0.004748327522072872,0.24907639151926392,1.0503560680466606,9.743586229782961
3620000000.0,21.97,0.0691945948689005,0.002427426816648087,-0.0018311765582180125,0.2275916484292165,0.9554932968584329,9.733874329685843
3625000000.0,21.97,0.0681725605828985,-0.0007985263404448857,-0.0010646508437165,0.2231775704112757,0.9098772887661729,9.73152
3630000000.0,21.97,0.0728996562414292,-0.002917150963854835,-0.0018525001201382606,0.2619273525419735,0.9823741755923417,9.753298411525183
3635000000.0,21.97,0.07690481500992787,-0.0016395469741002486,-0.0036837072444823506,0.3606164472661645,1.0175913706055137,9.782434111816542
3640000000.0,21.97,0.0793049840301224,0.009667137085069106,-0.0042586033748661,0.3712101878921019,1.02024,9.811569812107898
3645000000.0,21.97,0.08065708293903079,0.01990013119380974,-0.002746783809405237,0.2724227796032278,1.0759613663980137,9.868566195598262
3650000000.0,21.97,0.08171108728485017,0.02386564758023385,-0.0043650915419329635,0.18050343282503434,1.0781187873093878,9.90221414179374
3655000000.0,21.97,0.07393764728928891,0.028177506632681204,-0.00238478707083795,0.008042638132226387,1.0083692610540926,9.860717203042071
3660000000.0,21.97,0.06957789198129247,0.01171655132521248,-0.0010646508437165,-0.11889783981997841,1.0610504530933045,9.83943
3665000000.0,21.97,0.07280383038232467,-0.023210721573743712,-0.0010646508437165,0.010596508517465048,1.1184383135646832,9.767129516929495
3670000000.0,21.97,0.07315511105870805,-0.031999518219413374,-0.00036197355047171164,0.19188474056554738,1.0957766435732665,9.660298615861185
3675000000.0,21.97,0.07173913316241692,-0.013207593061101527,-0.0006920307953476668,0.3026391424421914,1.0535937144701373,9.687375713824657
3680000000.0,21.97,0.07068512881659748,0.012105789998331971,-0.0003832665462659547,0.2833122281633223,1.0021891711224917,9.727988471479584
3685000000.0,21.97,0.06963112447077807,0.01929825676819037,-0.0006707377995534237,0.20561702738637028,0.9871803715767037,9.78096297261363
3690000000.0,21.97,0.07452876300874525,0.00556396173535134,-0.0017247421453728021,0.11575728326177281,1.0820440751073408,9.846493630042936
3695000000.0,21.97,0.07712242666510806,-0.014479399594985152,-0.003428191294951422,0.2041476071897761,1.1559125153128251,9.820986625832466
3700000000.0,21.97,0.069669967157293,-0.018542331175394767,-0.0029810067631419216,0.36100893428478936,1.0908710657152105,9.725633209451333
3705000000.0,21.97,0.0687475188995386,-0.007810944874101108,-0.002129301687433,0.3830801401741014,1.063011887860719,9.670894056069642
3710000000.0,21.97,0.07321902904425161,0.007750783273652346,-0.001511796377365184,0.32883076762620767,1.1644480809344808,9.674229744124597
3715000000.0,21.97,0.07152617158434411,0.006409088441641493,-0.0004577920315458055,0.2817429113623291,1.22625,9.68247
3720000000.0,21.97,0.06446751291242625,-0.013126444886384226,-0.0011924246285471458,0.3582624283611243,1.1603259329215594,9.726419378052293
3725000000.0,21.97,0.057206609778623824,-0.01992637695602498,-0.002129301687433,0.5179691576584916,0.989827408219574,9.669225269987852
3730000000.0,21.97,0.05663177688850083,-0.0009447009677024769,-0.0009794630504743403,0.5568151652953517,0.9086024173523242,9.610072417352324
3735000000.0,21.97,0.07101395541636654,0.025199062551515394,-0.0005642728205822083,0.5245406274521063,1.0833205489847055,9.660005607835256
3740000000.0,21.97,0.08535223277984408,0.04674355795125484,-0.0016182771664015867,0.3617905480046055,1.2925665443851655,9.666773636774938
3745000000.0,21.97,0.07917882157603383,0.05211756270371263,-0.003215261337008981,0.08073433596244337,1.3037482725786829,9.638226827257869
3750000000.0,21.97,0.0617845290400777,0.03782113456550712,-0.002661603394193519,-0.1716768209812682,1.167388688893487,9.667755509874755
3755000000.0,21.97,0.05222407511287941,0.014125965432214449,-0.0010646508437165,-0.27987908119089083,1.0214163247635633,9.71170394587274
3760000000.0,21.97,0.0542043890700135,-0.0035772823176763004,-0.0010646508437165,-0.17540141236371412,0.9660888730334888,9.768798730334888
3765000000.0,21.97,0.06704173815411693,-0.007952949739215226,-0.0005642570105170209,-0.09692309252243092,1.07262700887337,9.842863865653039
3770000000.0,21.97,0.07678434815342154,-0.012932961412294705,-0.000979494670604715,-0.05002990158409902,1.2411620787327209,9.86886
3775000000.0,21.97,0.06987590644005125,-0.018595618473106337,-0.001171100012622528,0.1088923198472232,1.2959008533503087,9.820299693426696
3780000000.0,21.97,0.060507034666775095,-0.027144892251055854,-0.0009369086790162287,0.24917473421964734,1.2592111594682118,9.75231705315607
3785000000.0,21.97,0.054321397254455964,-0.040950200602070684,-0.0012136860042110142,0.464408193725182,1.1418825296183253,9.68649114425191
3790000000.0,21.97,0.04828485086486173,-0.03865298085159751,0.0,0.7139724625458247,0.997087811070378,9.638521641697217
3795000000.0,21.97,0.05410867493536968,-0.02396136276888209,0.0,0.8094239108465392,1.0038582582731828,9.692770868566608
3800000000.0,21.97,0.06817260063506363,-0.005546439949827663,-0.0012776050437589245,0.8534696309477964,1.1379611071566111,9.702089630947796
3805000000.0,21.97,0.069705625713958,0.02085284689695152,-0.0036091743811721066,0.8010841565546417,1.2300759739075597,9.703267791260478
3810000000.0,21.97,0.06387130692217871,0.04284449520837007,-0.0034494526706152916,0.6906225199064253,1.1764140159251404,9.747412125995321
3815000000.0,21.97,0.057408916426764774,0.05618460816675653,-0.0025232305416613005,0.4128997136226972,1.0428022589820227,9.730440677694606
3820000000.0,21.97,0.05731316223995578,0.06365856984703153,-0.002810670174818422,0.041199774032497735,1.033975112983751,9.715431674198916
3825000000.0,21.97,0.06706092305482576,0.0682256560518191,-0.002129301687433,-0.27762582324935825,1.2036886345127864,9.752612168664323
3830000000.0,21.97,0.077744619979161,0.04993965856053998,-0.002129301687433,-0.5866394878630949,1.3406345256068455,9.766638832888988
3835000000.0,21.97,0.06859825923611845,0.027788215812264788,-0.0017779588247932225,-0.7905896132762962,1.3535842469416426,9.711606370412463
3840000000.0,21.97,0.05091955078084947,-0.010913656413214307,-4.256174948853242e-05,-0.8224675656790756,1.3396523320143232,9.802152745873927
3845000000.0,21.97,0.0410277389501337,-0.0650801533876815,0.0014692019537419312,-0.3956330429828304,1.1593441569407417,9.847571777208417
3850000000.0,21.97,0.035470334504114145,-0.09885732414859263,0.0003194033689484128,0.1608883373345834,0.9721700278388002,9.811962299126524
3855000000.0,21.97,0.04116075350375317,-0.1043045450364726,0.0007558939726652087,0.718488593209986,0.9483344222112442,9.808135276333752
3860000000.0,21.97,0.056844773248717076,-0.07768151941718457,0.0,1.2019237491795376,1.1387456247345562,9.671088750530888
3865000000.0,21.97,0.06776804214700774,-0.03655326905754512,-0.0011498555010282195,1.378499398248294,1.2932544771166448,9.536890200583903
3870000000.0,21.97,0.07077025969360498,0.012742675338142669,-0.003981785997506173,1.2244847261907474,1.4983793248298933,9.538065146257651
3875000000.0,21.97,0.058852281692929,0.062055581946719035,-0.003460123410612405,1.157576387173164,1.351323209768132,9.346476521526066
3880000000.0,21.97,0.037024708441033116,0.10784201287562718,-0.0045141277564318075,0.6443156752245568,0.8777970666200706,9.356781391395515
3885000000.0,21.97,0.04258642134580071,0.12619890853942695,-0.004588620567576968,-0.049939163301491674,0.7920622675356227,9.741920260152202
3890000000.0,21.97,0.06789973062493007,0.10733600805893212,-0.0023635330732044626,-0.7437965423160655,1.1891720534877206,9.910258275558583
3895000000.0,21.97,0.08091255040436177,0.057667230705997524,-0.002746782755400941,-0.9583380677872807,1.5938312295899124,9.946752459179823
3900000000.0,21.97,0.07159320847241946,-0.01129279846768755,-0.0008517124537393026,-0.8436588637076887,1.6186488637076888,10.03170509096615
3905000000.0,21.97,0.04445919838426514,-0.0738860838243243,0.0004045837841601517,-0.610373497303735,1.4151871109027712,9.917026265650664
3910000000.0,21.97,0.015987215948268,-0.11358296030796315,0.0017460108990670913,0.0005936884529368913,1.0196501089000012,9.806663612688236
3915000000.0,21.97,0.020150190562842323,-0.11836006092188504,0.0,0.6429521147390213,0.8929066562650666,9.698754447911645
3920000000.0,21.97,0.042691559195070485,-0.09480307913635974,-0.0005110571951661496,1.188581579673716,0.9543174091303741,9.662064210163143
3925000000.0,21.97,0.05560974681851617,-0.03856681701577364,-0.0028745407301664057,1.3851710851390109,1.0585009821988098,9.553468423761585
3930000000.0,21.97,0.06344554397469368,0.03498593812425163,-0.0015118290514999184,1.268628283973583,1.293155192361952,9.543756523664465
3935000000.0,21.97,0.06572378069220838,0.09251992799399188,-0.004535429184260806,1.0908674140407741,1.387525482808155,9.536595376432654
3940000000.0,21.97,0.056716934115616964,0.13498451245042428,-0.006004605841898512,0.44458047560590475,1.2933509357084096,9.563966424476364
3945000000.0,21.97,0.05812222335383716,0.13405862293759582,-0.0030768326222464855,-0.5891921248370213,1.3602550597613507,9.719356826030268
3950000000.0,21.97,0.05273325298373942,0.07425276270937718,-0.001916354865421036,-1.0055261508601614,1.407734616379946,9.843352772415827
3955000000.0,21.97,0.03786574910077108,0.005594633641947337,0.00028748073932659024,-1.1088217649027177,1.3697708377479088,9.719749536422595
3960000000.0,21.97,0.03216982529561528,-0.08331139125812928,0.0030235917007261142,-0.7396666927663671,1.4071439386160394,9.893580738490506
3965000000.0,21.97,0.021404958217980274,-0.14544264876437832,0.0009901169264018826,0.17266216122942163,1.0963631355082313,9.821573797600438
3970000000.0,21.97,0.010051552150496806,-0.12246074228997551,0.0,0.9272444387244444,0.8138388337997884,9.594966188024761
3975000000.0,21.97,0.035897344425134134,-0.08452917422906882,-5.324092152037426e-05,1.3218986581440866,0.9780596251265963,9.748685569759855
3980000000.0,21.97,0.07000370130496872,-0.00715167089233937,-0.0011072452673397527,1.4554103630924036,1.2980598184537984,9.51648495461345
3985000000.0,21.97,0.0624659312556022,0.0784648802765753,-0.002161249613159134,1.2785304110579043,1.373694377403844,9.53296498076925
3990000000.0,21.97,0.05003089338405928,0.13538732666496045,-0.0031939525311496,0.4182931299345313,1.383013722499037,9.460176717516367
3995000000.0,21.97,0.04784812551191471,0.14022659608373825,-0.003183297601217711,-0.2415270110810701,1.3714364480383647,9.625769907157798
4000000000.0,21.97,0.0383449089624197,0.10119354048749402,-0.0021292848233634668,-0.8436623308560233,1.1772016315992164,9.83943186468482
4005000000.0,21.97,0.04150692199987793,0.020000648339863633,-2.1276131724709893e-05,-1.1350193337695935,1.3811515336387152,10.072517467015675
4010000000.0,21.97,0.04049546991750798,-0.0768769467376129,0.0010433662799570235,-0.6476522276386223,1.556259802009898,10.065256122110561
4015000000.0,21.97,0.02808154796902919,-0.13670268977292613,3.193106165659803e-05,-0.038155986846859946,1.2743166604032665,9.865228662282286
4020000000.0,21.97,0.010306374098641633,-0.1425801692824013,0.0,0.8656417398656173,1.0017950136570501,9.783708575330587
4025000000.0,21.97,0.021735559795625196,-0.08708884474202686,0.0,1.4430555344861555,0.8696554836496548,9.584858858203289
4030000000.0,21.97,0.03938838591283309,-0.0030473544706053485,-0.0010007802883685373,1.434614086888341,1.1030384352257843,9.39935191271962
4035000000.0,21.97,0.05930295907418924,0.08930977035337043,-0.0030449184246594246,1.1585586487489865,1.3464244593758448,9.333429729749797
4040000000.0,21.97,0.06659692843232866,0.14879536394852388,-0.001234977946000919,0.37081132986701326,1.4718933416658333,9.383461670832917
4045000000.0,21.97,0.04869993464031489,0.13691081181229073,-0.0020334916383936727,-0.45470017838810173,1.5973633214005332,9.700621249924513
4050000000.0,21.97,0.03440730974720062,0.06913364763780254,-0.00021291309387289764,-0.9711939333195394,1.538207370668874,9.828639865330299
4055000000.0,21.97,0.029231438252200804,-0.03112162948135181,0.0,-0.8456204247298044,1.3382784672027848,9.996587617743176
4060000000.0,21.97,0.010009641015428505,-0.09322687536985924,0.0,-0.38376317810793187,1.0814522707630227,9.834719543926797
4065000000.0,21.97,0.0037475366936608667,-0.11959607455674642,0.0009262548030886865,0.23956541121135416,1.0411352210422522,9.801465221042253
4070000000.0,21.97,0.028845995048730668,-0.10692430903700847,0.000149042538524935,1.0239743615539436,1.2001569020424692,9.58927302362833
4075000000.0,21.97,0.03935636209879406,-0.035581374328472776,0.0,1.2797158455837585,1.234588579151986,9.363152679504326
4080000000.0,21.97,0.036896924116159045,0.04099491314246007,-0.0017886306187946438,1.1728823320143236,1.203098083003581,9.45291718873657
4085000000.0,21.97,0.03975025722488327,0.1010145373397976,-0.002129301687433,0.6592272392265724,1.2293895173848952,9.54159903476979
4090000000.0,21.97,0.04572663107657371,0.1256348802478529,-0.003875346314639239,-0.09241663491076635,1.4130341477535415,9.6675599122068
4095000000.0,21.97,0.045140654768701445,0.06332372864921754,5.327570366376721e-05,-0.6168566179421662,1.5631265135664651,10.073696617942165
4100000000.0,21.97,0.03451203691490817,-0.011718746021441871,0.00021292152590766424,-0.6199911239866113,1.4636507257987073,10.037590725798708
4105000000.0,21.97,0.008392871403537814,-0.07712627006603698,0.0,-0.14891117538741172,1.1842606484896063,9.928700202653001
4110000000.0,21.97,0.005451046975491527,-0.10550914909992601,0.0,0.42203091007730914,1.0724287210090873,9.800973682354536
4115000000.0,21.97,0.02279714072209383,-0.07281142963270673,0.0,0.8590649770864498,1.1123564595025648,9.544146602131866
4120000000.0,21.97,0.03498066516513337,0.0037957478373279244,-0.0008091433262203496,0.9664813600521136,1.239985200390852,9.43172591984366
4125000000.0,21.97,0.044479794389447845,0.07004492213630556,-0.002661644500363031,0.676886795072968,1.4813122434489223,9.55739402234034
4130000000.0,21.97,0.04766739403899378,0.09310293067914446,-0.0016182518702973128,0.15774014722290147,1.54998,9.640287401101475
4135000000.0,21.97,0.03316458068779803,0.06710165296204001,-0.0010646508437165,-0.41271143872741445,1.406752393651724,9.80342898666569
4140000000.0,21.97,0.011588104688197761,0.009676270862106116,-0.00029809350908463657,-0.533663597927336,1.2478307937820081,9.929682804145328
4145000000.0,21.97,0.009858719238991294,-0.06297996293742605,-0.0007559108367347419,-0.17863615492906154,1.2205603610233038,9.887498194883483
4150000000.0,21.97,0.01694022710092309,-0.10386825329400194,-0.00031938650487887965,0.3933860783525608,1.301787886696479,9.659904662345646
4155000000.0,21.97,0.0243234933660013,-0.07804164524620179,-0.002203853522821565,0.9375459774121597,1.4018498070588983,9.493332231529322
4160000000.0,21.97,0.024461810356303203,-0.0020001084006512904,-0.0010220385020194003,1.1320744040150441,1.358880311166903,9.330093264742832
4165000000.0,21.97,0.015581504707754252,0.06945660279405128,0.0,0.7599759268924593,1.2126127246978273,9.375614494402045
4170000000.0,21.97,0.018046783723292364,0.0898450032462166,0.0,0.13517637318446374,1.2093774479779746,9.602226386925665
4175000000.0,21.97,0.027538756811019076,0.061790411991252014,-0.0013840636987040252,-0.24770452735914528,1.3635916218873163,9.775175554226756
4180000000.0,21.97,0.0308923277602996,0.010743779578130691,-0.0007665309845232178,-0.27075518808515187,1.4448169623829696,9.851202405957425
4185000000.0,21.97,0.024855678078279424,-0.035091925466466625,0.0,-0.10565199293931996,1.4704211438658115,9.856499237422792
4190000000.0,21.97,0.01337854071276427,-0.048093219172735235,0.0,0.17736756711457569,1.3718289350569894,9.69718296535693
4195000000.0,21.97,0.002022748172096853,-0.028684413037782255,0.0,0.41780944817399446,1.2209514592402146,9.526195640723056
4200000000.0,21.97,0.0023422938316319543,-0.010014601712800324,0.0,0.5611329789595297,1.1438456736801568,9.55297906053949
4205000000.0,21.97,0.012243233288146221,0.008506406332643176,0.0,0.5214002748438027,1.1513019267083193,9.59241403664584
4210000000.0,21.97,0.021374411340489848,0.03231916400936134,0.0006175063640721618,0.273303901451439,1.2470483448387835,9.62988905419359
4215000000.0,21.97,0.028752441761225753,0.03410744891473065,0.0004577909775414597,0.0814221812868218,1.4836670198821702,9.830603456139535
4220000000.0,21.97,0.031360765235738185,0.01218705366427962,0.0,0.0667084098421841,1.6296373639368735,9.946162636063127
4225000000.0,21.97,0.019171390895791694,-0.012306503734888698,0.0,0.06670767173777671,1.4871937021644372,9.867387433147774
4230000000.0,21.97,-0.0030663906011924955,-0.029849085852855353,-0.0005749203724836757,0.17089208974152087,1.194070570794406,9.757025178373253
4235000000.0,21.97,-0.013276187093728393,-0.03226566485677626,-0.001628924718303054,0.35267073389690734,0.9612805015835051,9.57671606124536
4240000000.0,21.97,-0.0022568899674988707,-0.013806011043617018,-0.0015756743107435674,0.4269312823569128,1.0461410354212104,9.436434870572349
4245000000.0,21.97,0.024836845353252184,0.011954480659313121,-0.0010646508437165,0.3816081754596818,1.4269663928854641,9.50265410171854
4250000000.0,21.97,0.03940949867388414,0.03248945632950237,-0.0005323164628213105,0.3188247523465475,1.7167511557161117,9.653041155716112
4255000000.0,21.97,0.023707795604271498,0.03475689371848987,0.000521687882998068,0.22239129497941293,1.593140694069207,9.861112496799826
4260000000.0,21.97,0.0003831126616314767,0.01440292148890028,0.0005536094586155536,0.09025117254611172,1.2140824556752245,10.053288827453889
4265000000.0,21.97,-0.011083042255060321,-0.015020049810987483,-0.0005003948872038249,0.08534782842507828,0.941856691677367,10.048970605889906
4270000000.0,21.97,-0.0059193326743043695,-0.03833173632712328,-0.0010646508437165,0.2907712199473122,0.9392109758529097,9.873762926509329
4275000000.0,21.97,0.013156499319221181,-0.035266797124472546,-0.0015437527351260818,0.5370987455511875,1.2561745688005457,9.600063342824134
4280000000.0,21.97,0.029912912140020755,-0.004090001470350772,-0.0016608462939205397,0.5878146180629462,1.6759433928191338,9.354029786724299
4285000000.0,21.97,0.02950819133529564,0.03338074930735618,-0.0006068419481011613,0.448118802456388,1.8610548503070485,9.34922604785066
4290000000.0,21.97,0.013147706175654313,0.05130847313171387,0.0,0.22739405010984048,1.6506266835791668,9.602619349827394
4295000000.0,21.97,-0.011111672537959813,0.043955117643863964,0.0,-0.04895515358365152,1.161989911612799,9.842668384527883
4300000000.0,21.97,-0.02343972653209695,0.014695236911603599,0.0,-0.30214858465638583,0.8240395823882958,9.957150835223407
4305000000.0,21.97,-0.009858439789609616,-0.038416059698571814,0.0,-0.15587680264646803,0.9323454103005542,9.962446229327561
4310000000.0,21.97,0.014486065584994632,-0.07754821126287913,-0.0008091528122594619,0.31255053467920535,1.3229805346792054,9.714643116470532
4315000000.0,21.97,0.025334795779754234,-0.06799573455893276,-0.001341441870967781,0.7399715687342157,1.6850654600876547,9.407102378049323
4320000000.0,21.97,0.017088069318564506,-0.01976431452644003,-0.00038328341033548786,0.9774683160891832,1.7618747413377476,9.317929896535098
4325000000.0,21.97,0.0017564824322428615,0.03755300577793879,-0.0006920139312781336,0.8407138076984381,1.5406573917063742,9.324896592103165
4330000000.0,21.97,-0.016039658124560596,0.07997493573250024,0.0003619904145412448,0.38160353317143525,1.1646396675876969,9.541209364202194
4335000000.0,21.97,-0.018855922107787488,0.08033171008687912,0.0003619630104282535,-0.13636152606521526,0.873285694786957,9.877887220852173
4340000000.0,21.97,-0.005578605743435677,0.0465272184447625,-0.0007239534249694982,-0.3617935586936356,0.9405856661759567,10.038769284299292
4345000000.0,21.97,0.013068832231297504,-0.007591611632412808,0.00033005092084988015,-0.34580039008970387,1.2920785602528855,10.018069340432293
4350000000.0,21.97,0.02588847796466966,-0.0525223857468593,0.0007452464207637413,-0.0588566202587662,1.6755510417671104,9.88651597215526
4355000000.0,21.97,0.019835988428880354,-0.06137482462634543,0.0,0.30970449149144497,1.8630153235963534,9.650585385233754
4360000000.0,21.97,-0.005456165929024044,-0.03489022455980684,0.0,0.5697657315654574,1.5629244574849446,9.512169500940994
4365000000.0,21.97,-0.0288482349461956,-0.000665732246521316,0.000574929858522788,0.6050794434417944,1.0534922542498224,9.64107298698843
4370000000.0,21.97,-0.0286351574276447,0.028145685187476614,0.001575664824704455,0.41908082330380825,0.7404586302359863,9.766836848820068
4375000000.0,21.97,-0.010925475067616501,0.03461400245299968,-0.0005323438669343018,0.19129415020874152,0.8264959841441599,9.900744624478147
4380000000.0,21.97,0.01895515862128249,0.00745232507906405,-0.0016182508162929411,0.15303727614367277,1.2341018284310183,10.082325514923756
4385000000.0,21.97,0.0334367785714553,-0.014249098159450215,-0.0002448789376729078,0.28969023690700235,1.6282660145074601,10.013947600319177
4390000000.0,21.97,0.023244118997347973,-0.01753770152492514,-0.0010646508437165,0.3814131410819314,1.8052354325656543,9.781942291483723
4395000000.0,21.97,0.0023064138994967455,-0.0067922685595511074,-0.0008410649018378352,0.40377925852959257,1.6766246243395462,9.628905180442352
4400000000.0,21.97,-0.020245958451707867,0.01320522619930983,0.0,0.3237278633819786,1.371434495946445,9.415637487211676
4405000000.0,21.97,-0.03322392239381712,0.018574289641164317,0.00020229294608442165,0.0939782598868826,1.0198462310105625,9.38346188449472
4410000000.0,21.97,-0.030250209582650792,0.013684316824968066,0.0008730043955291998,-0.040220571705205724,0.9333253701560537,9.462922970930629
4415000000.0,21.97,-0.00897481116850453,0.000116953376216462,0.00036199990058035714,0.02835235785332358,1.1817158587309584,9.551997857560778
4420000000.0,21.97,0.011288184796926871,-0.01627073211072344,0.0017885947826468858,0.19659403121074032,1.5366408897427088,9.64754717267877
4425000000.0,21.97,0.018167010767891942,-0.02136096329904154,0.000319413908991871,0.3664042735528427,1.7770815859503157,9.702579382645894
4430000000.0,21.97,0.0022117686634896576,-0.007793132114262976,0.001980241230834186,0.4359560558102606,1.726360099960301,9.576324681383346
4435000000.0,21.97,-0.02565439519351097,0.002917124613746202,0.0010646508437165,0.3856299801207998,1.3215022572297228,9.458997683132676
4440000000.0,21.97,-0.03996311551053019,0.0008091159221073583,0.0009368833829119291,0.2711481412749814,1.03161899630829,9.401903568791635
4445000000.0,21.97,-0.034458767535270496,-0.0008304089179016013,0.0,0.2484875590163756,0.9927737267758373,9.355502440983624
4450000000.0,21.97,-0.018008110074884287,0.0009581763787061721,0.0,0.2825286914872869,1.2105578031800779,9.35187498802595
4455000000.0,21.97,0.0028959254243386863,0.000766623736905677,0.0,0.3549259730660597,1.6175727171936274,9.562003892264238
4460000000.0,21.97,0.009198423460491913,0.009114873451773047,0.0,0.36650090695880905,1.7901271540271715,9.645193299452233
4465000000.0,21.97,-0.009242617102446612,0.015538784235578484,0.0,0.2853717725455177,1.5911785309092852,9.785377507090876
4470000000.0,21.97,-0.03398100390108367,0.009006861332652208,0.0,0.16559262635122626,1.204468587497686,9.846296565878065
4475000000.0,21.97,-0.04847555282148258,-0.0006921456818213862,0.0,0.14616882615698826,0.8618082392354824,9.794793543863436
4480000000.0,21.97,-0.03727929843910691,-0.014224518553481887,0.0,0.13537974037249742,0.8495494807449949,9.691887512981376
4485000000.0,21.97,-0.011168026625463772,-0.022896115445099598,0.0,0.32873458096764585,1.235670387703804,9.681586838652768
4490000000.0,21.97,0.006238787689465708,-0.0047264355062350645,0.0,0.4887334150842341,1.5411514360643144,9.655591733767219
4495000000.0,21.97,-0.0012031786348875458,0.02462163852129888,0.0,0.39985350456043506,1.5882381269001813,9.782926495439566
4500000000.0,21.97,-0.014905206827931462,0.03621549660453029,0.0,0.16676842667218428,1.4911177274153773,10.01601104888521
4505000000.0,21.97,-0.02546252904589323,0.026729457492155488,0.0,-0.008045775075957773,1.2386083248902835,10.132553850050638
4510000000.0,21.97,-0.03391601221340815,-0.007814502017816975,0.0,-0.09633498841204989,1.082237798378578,10.076046674391968
4515000000.0,21.97,-0.032020838619320605,-0.05192534156397546,0.0,0.13979469246144693,0.9934579107138791,9.979712123015421
4520000000.0,21.97,-0.022758309560511676,-0.04815707708003108,0.0,0.4014275704805757,1.0944045657513455,9.628315551563656
4525000000.0,21.97,-0.011232833983330092,-0.018596206400186242,0.0,0.5611334062831341,1.41558598835166,9.45536700582417
4530000000.0,21.97,-0.000638695013436193,0.004981728991733943,0.0,0.6058659519592595,1.6904616637148164,9.511580415928705
4535000000.0,21.97,-0.004950674222378994,0.029177238204004505,0.0,0.4348756263482563,1.6430762833914627,9.56131694043467
4540000000.0,21.97,-0.029826520069059066,0.03383079280003561,0.0,0.16912193084651933,1.340435489926255,9.718179899128899
4545000000.0,21.97,-0.044567805290133426,0.014693560664560974,0.0,0.12929562343765624,0.9931612218778122,9.87435501249875
4550000000.0,21.97,-0.04100820799042431,0.0012774659151852767,0.0,0.056897292973672936,0.8289436743256369,9.7913600278388
4555000000.0,21.97,-0.02531340370755147,-0.00947548852887311,0.0,0.031588023049180236,1.1285455851147557,9.649605172868851
4560000000.0,21.97,-0.0037494633444899762,-0.016283281622106387,0.0,0.18482199430551996,1.6508317600616176,9.469395117121952
4565000000.0,21.97,-0.0019909067008095326,-0.009626635412992603,0.0,0.3511014073840141,1.9557240827501412,9.32754295862493
4570000000.0,21.97,-0.027781373734414513,-0.0011923318761647558,0.0,0.3559066224664662,1.713019270696693,9.351873443833833
4575000000.0,21.97,-0.05369092273193046,0.005429777167792905,0.0,0.31146705568057054,1.1507074904390748,9.517173188413832
4580000000.0,21.97,-0.06736353214315177,0.0063879050622992,0.0,0.17226217662392176,0.6886579967547801,9.701699290259093
4585000000.0,21.97,-0.053331153847532585,-0.005983473054764862,0.0,0.1634347781162478,0.7971625592787257,9.788516723406868
4590000000.0,21.97,-0.013377891083233326,-0.025991985960366785,0.0,0.31156720479437205,1.3004187710040878,9.792145710844759
4595000000.0,21.97,0.00502526821794126,-0.01774026341490535,0.0,0.5658432990661331,1.760408516356285,9.58377907943859
4600000000.0,21.97,-0.012151205438668704,0.010660762135345416,0.0,0.6180300000000001,1.8128876426020764,9.511775731951557
4605000000.0,21.97,-0.03807896363988689,0.03219137652247423,0.0,0.40103029549520297,1.5182903904758038,9.4826400316602
4610000000.0,21.97,-0.05946006175673424,0.03372426985082541,0.0,0.12144520323215205,1.1206906391638063,9.606542122243221
4615000000.0,21.97,-0.0639139572080323,0.014153000056206868,0.0,-0.03933926533089265,0.810990100415701,9.771644423894244
4620000000.0,21.97,-0.04852694932179162,-0.00847482523498691,0.0,0.043165346069353475,0.8052055179036552,9.936746725545268
4625000000.0,21.97,-0.02450418870903558,-0.016249044744516324,0.0,0.17412866785598669,1.2066346714239469,9.917909281319393
4630000000.0,21.97,-0.005497979888347304,-0.018627569560845506,0.0,0.2640859194575592,1.6535775570165756,9.912808979864389
4635000000.0,21.97,-0.008059494822516769,-0.013727993209970436,0.0,0.39907224046902245,1.758638609970686,9.88210304985343
4640000000.0,21.97,-0.04056741865590115,-0.005578692171792011,0.0,0.43438670987356715,1.4028254936783549,9.805290388862105
4645000000.0,21.97,-0.06505330006971528,0.0013415188132850676,0.0,0.361988097764481,0.9520564399401645,9.717883287988034
4650000000.0,21.97,-0.05986814677054362,0.003939217923991566,0.0,0.3060716387173164,0.7828374580759747,9.76781799352738
4655000000.0,21.97,-0.03922309183680874,0.00793169784959046,0.0,0.24691706707547068,0.9614807221159073,9.76634504791105
4660000000.0,21.97,-0.01746566226310952,0.0008941888288758523,0.0,0.22563,1.3498600731709007,9.851203357723634
4665000000.0,21.97,-0.007079878941412258,-0.008187233825204011,0.0,0.32422185918041857,1.6817309277488093,9.878571628163916
4670000000.0,21.97,-0.019388361578099582,-0.004322393825883816,0.0,0.39220407212744074,1.6202174229804742,9.791163711490237
4675000000.0,21.97,-0.04948215499788848,0.007931776899916419,0.0,0.31931431951854317,1.253223413718034,9.732010227581203
4680000000.0,21.97,-0.06382881473697698,0.0134571965300577,0.0,0.18050263644922637,0.9857071637390715,9.70915301819323
4685000000.0,21.97,-0.052905289715630285,0.002437882539758662,0.0,0.10280843599798437,1.0704693840120938,9.59084296199093
4690000000.0,21.97,-0.033922390287443614,-0.021431853229593723,0.0,0.17344207536672077,1.3157195685381957,9.495098544511885
4695000000.0,21.97,-0.02988095894427288,-0.02741085022164081,0.0,0.3812189710632897,1.4246083823894837,9.440554852831548
4700000000.0,21.97,-0.042188257363880814,-0.0040523373162032784,0.0,0.46891781741627814,1.3851712696651128,9.423486091291862
4705000000.0,21.97,-0.047752537564053385,0.01398923261044431,0.0,0.3800381205542812,1.3364160258330604,9.531593845001638
4710000000.0,21.97,-0.04254686870960442,0.018286881628137616,0.0,0.255451302166813,1.330039891486099,9.626749565944396
4715000000.0,21.97,-0.048522396852398134,0.011888888897589635,0.0,0.15568387575103876,1.2502831262517313,9.615271042083911
4720000000.0,21.97,-0.05480053603601768,-0.004343954538781898,0.0,0.1451884584016846,1.1540478499179785,9.588686308319662
4725000000.0,21.97,-0.05316096376581306,-0.014542113371924164,0.0,0.2530994684392947,1.1497323671098236,9.525018490447984
4730000000.0,21.97,-0.051052955074174254,-0.0010298339181610897,0.0,0.32373,1.2203649187457493,9.4552700325017
4735000000.0,21.97,-0.04724287118809724,0.0122754342094728,0.0,0.2457391204245912,1.3538796635187966,9.546407231405572
4740000000.0,21.97,-0.041964646575145606,0.0033641268028038566,0.0,0.17147870793118708,1.43226,9.740154549307446
4745000000.0,21.97,-0.04973509257632937,-0.008038163882566087,0.0,0.22680830599118307,1.2921706193539062,9.819613615668137
4750000000.0,21.97,-0.06551104361706124,-0.0106465084371654,0.0,0.3335409226305092,1.0251425088976251,9.893386568471866
4755000000.0,21.97,-0.06614962374402376,-0.009081441626158062,0.0,0.46430887012288874,0.8494470687584708,9.96234902291949
4760000000.0,21.97,-0.053045990345399634,0.005331882816520381,0.0,0.47872661314066617,0.931560096346801,9.886124398055244
4765000000.0,21.97,-0.034224473963242644,0.016670985561225718,0.0,0.3468804893471049,1.3274943830468438,9.833642377663224
4770000000.0,21.97,-0.021395622123945156,0.005024970988715793,0.0,0.3115661559091616,1.6592642338637422,9.831189229393893
4775000000.0,21.97,-0.03750137950468238,-0.002927739491512972,0.0,0.30361866526218667,1.521527104556871,9.748195701518958
4780000000.0,21.97,-0.06984133734374709,0.00374765158013458,0.0,0.20326208585082087,1.0920448362490485,9.746040378378003
4785000000.0,21.97,-0.08095510688382858,0.009432826648971711,0.0,0.15421357177153572,0.7537005340852054,9.88161392942884
4790000000.0,21.97,-0.06686229413886506,0.00572771046821704,0.0,0.12713648351996482,0.771068791200088,9.933409706959997
4795000000.0,21.97,-0.04103781804811758,-0.01154821375116397,0.0,0.11517070391970705,1.179069395090194,9.903586841177269
4800000000.0,21.97,-0.02301390139835548,-0.033021781224358435,0.0,0.3531637293696373,1.6108041443875416,9.798226321783662
4805000000.0,21.97,-0.03359297482754173,-0.030970409266175836,0.0,0.6230339399822394,1.6581821533787215,9.569848213396483
4810000000.0,21.97,-0.05922969628611564,-0.004279683461782521,0.0,0.6097879182873792,1.3677063694323637,9.408183147427831
4815000000.0,21.97,-0.07519513857805026,0.017073003760578066,0.0,0.40956516186005165,0.9912972266040723,9.464099587051196
4820000000.0,21.97,-0.07682861408970718,0.03327723709564165,0.0,0.11379225509132257,0.8103069362271694,9.501181855359018
4825000000.0,21.97,-0.06242320191942266,0.02188944126810177,0.0,-0.10300406280164062,1.0035665613537657,9.63783703043557
4830000000.0,21.97,-0.04363700976720787,-0.015358331814627833,0.0,0.11419271557992716,1.3092443825221438,9.746625617477857
4835000000.0,21.97,-0.0432800889407824,-0.01676907359011651,0.0,0.40554521217185213,1.4419721817422217,9.594473454773334
4840000000.0,21.97,-0.05386373486544468,-0.0007239523709651524,0.0,0.4143750580783506,1.4208791778544918,9.610663056268631
4845000000.0,21.97,-0.06163566568229155,0.005286242285780183,0.0,0.409369700158697,1.2611713414005135,9.722100894267008
4850000000.0,21.97,-0.06956195529735364,0.01353317039009636,0.0,0.20600717383707173,1.0604597753293976,9.634401659438016
4855000000.0,21.97,-0.07529673801377978,-0.004253335754884674,0.0,0.05689988605099887,0.9882599658152996,9.69100498290765
4860000000.0,21.97,-0.06655419909614914,-0.026804037785661358,0.0,0.245644099194041,1.0437844719983447,9.670696584004967
4865000000.0,21.97,-0.05936788784990036,-0.019900254408645568,0.0,0.40456553396145534,1.1188319174518193,9.57799397248394
4870000000.0,21.97,-0.057206605562606455,-0.002746624654749034,0.0,0.5211083351268834,1.2415541675634418,9.664813891878138
