#timestamp [ns], temperature [degC], w_RS_S_x [rad s^-1], w_RS_S_y [rad s^-1], w_RS_S_z [rad s^-1], a_RS_S_x [m s^-2], a_RS_S_y [m s^-2], a_RS_S_z [m s^-2]
0.0,22.16,0.0,0.0,0.0,0.5886,-0.16677,9.79038
5000000.0,22.16,0.0,0.0,0.0,0.608023800194238,-0.186193800194238,9.770956199805761
10000000.0,22.16,0.0,0.0,0.0,0.588992399611524,-0.167162399611524,9.809215200776952
15000000.0,22.16,0.0,0.0,0.0,0.626662801165428,-0.16677,9.848062801165428
20000000.0,22.16,0.0,0.0,0.0,0.609004799223048,-0.15735239961152397,9.84924
25000000.0,22.16,0.0,0.0,0.0,0.58958099902881,-0.166279500485595,9.839920499514404
30000000.0,22.16,0.0,0.0,0.0,0.6162642017481421,-0.157548599417286,9.793322997086431
35000000.0,22.16,0.0,0.0,0.0,0.6089066993201669,-0.147836699320167,9.781256699320167
40000000.0,22.16,0.0,0.0,0.0,0.6172452007769521,-0.138124799223048,9.807645602330856
45000000.0,22.16,0.0,0.0,0.0,0.6269571008740711,-0.155194201748142,9.845708403496284
50000000.0,22.16,0.0,0.0,0.0,0.61018199805762,-0.15696,9.84924
55000000.0,22.16,0.0,0.0,0.0,0.599489098931691,-0.165690901068309,9.805585494658455
60000000.0,22.16,0.0,0.0,0.0,0.607042801165428,-0.16677,9.75702599417286
65000000.0,22.16,0.0,0.0,0.0,0.60822,-0.16677,9.802348207575282
70000000.0,22.16,0.0,0.0,0.0,0.599783398640334,-0.15833339864033397,9.877492810877328
75000000.0,22.16,0.0,0.0,0.0,0.59841,-0.17363700291357,9.85512599417286
80000000.0,22.16,0.0,0.0,0.0,0.606650401553904,-0.15185879533828794,9.799797590676576
85000000.0,22.16,0.0,0.0,0.0,0.5919353966979539,-0.17157690495306904,9.774095396697954
90000000.0,22.16,0.0,0.0,0.0,0.596644201748142,-0.168535798251858,9.802936806992568
95000000.0,22.16,0.0,0.0,0.0,0.6143022036905221,-0.19060830553578306,9.849730509226305
100000000.0,22.16,0.0,0.0,0.0,0.61018199805762,-0.16480799223047993,9.86689800194238
105000000.0,22.16,0.0,0.0,0.0,0.600470097960501,-0.14921009796050097,9.822360587763006
110000000.0,22.16,0.0,0.0,0.0,0.6137136042732361,-0.154801802136618,9.787044593590148
115000000.0,22.16,0.0,0.0,0.0,0.6029225955325259,-0.14185259553252594,9.773016297766263
120000000.0,22.16,0.0,0.0,0.0,0.605865602330856,-0.15970680699256806,9.808038011654281
125000000.0,22.16,0.0,0.0,0.0,0.60822,-0.15941249757202497,9.8492400097119
130000000.0,22.16,0.0,0.0,0.0,0.615479402525094,-0.14970059747490597,9.830012389899624
135000000.0,22.16,0.0,0.0,0.0,0.603707394755574,-0.15431130262221301,9.791164789511148
140000000.0,22.16,0.0,0.0,0.0,0.59841,-0.14989679728066796,9.787633202719332
145000000.0,22.16,0.0,0.0,0.0,0.59841,-0.15411510281645102,9.804310205632902
150000000.0,22.16,0.0,0.0,0.0,0.60527700291357,-0.15009299708642998,9.81686700291357
155000000.0,22.16,0.0,0.0,0.0,0.60822,-0.16068780602137805,9.813041096989311
160000000.0,22.16,0.0,0.0,0.0,0.60822,-0.16009919689219196,9.796658393784385
165000000.0,22.16,0.0,0.0,0.0,0.601647296795073,-0.16353270320492702,9.803525406409854
170000000.0,22.16,0.0,0.0,0.0,0.5919353966979539,-0.14087158679181588,9.822949206604092
175000000.0,22.16,0.0,0.0,0.0,0.5949765033991651,-0.12753,9.82962
180000000.0,22.16,0.0,0.0,0.0,0.604688403496284,-0.15892201748142015,9.810784789511148
185000000.0,22.16,0.0,0.0,0.0,0.6020396964065969,-0.17658,9.812550607186807
190000000.0,22.16,0.0,0.0,0.0,0.59841,-0.1461689815473898,9.81981
195000000.0,22.16,0.0,0.0,0.0,0.59841,-0.13949820757528208,9.831778207575283
200000000.0,22.16,0.0,0.0,0.0,0.59841,-0.14715,9.80411397669144
205000000.0,22.16,0.0,0.0,0.0,0.604197903981879,-0.14136209601812094,9.78635790398188
210000000.0,22.16,0.0,0.0,0.0,0.60822,-0.14302980407899804,9.796069804078998
215000000.0,22.16,0.0,0.0,0.0,0.60822,-0.15274170417611704,9.822556816704468
220000000.0,22.16,0.0,0.0,0.0,0.60822,-0.15146639572676396,9.822949187180292
225000000.0,22.16,0.0,0.0,0.0,0.60822,-0.14715,9.804604495629645
230000000.0,22.16,0.0,0.0,0.0,0.60822,-0.15244740446747404,9.805487404467474
235000000.0,22.16,0.0,0.0,0.0,0.6030206954354069,-0.16215930456459304,9.815199304564594
240000000.0,22.16,0.0,0.0,0.0,0.603511204661712,-0.17187120466171205,9.824911204661712
245000000.0,22.16,0.0,0.0,0.0,0.60822,-0.1565675809646758,9.82962
250000000.0,22.16,0.0,0.0,0.0,0.60822,-0.15205501456785014,9.81490498543215
255000000.0,22.16,0.0,0.0,0.0,0.5986061900938618,-0.16196309504693093,9.795383095046931
260000000.0,22.16,0.0,0.0,0.0,0.6027264151505642,-0.15696,9.813924025250941
265000000.0,22.16,0.0,0.0,0.0,0.608808589705386,-0.15696,9.83943
270000000.0,22.16,0.0,0.0,0.0,0.6029226052444261,-0.15696,9.825892184266722
275000000.0,22.16,0.0,0.0,0.0,0.60822,-0.15696,9.796756483975365
280000000.0,22.16,0.0,0.0,0.0,0.6039035945613359,-0.16127640543866406,9.771937189122673
285000000.0,22.16,0.0,0.0,0.0,0.5941916944642169,-0.1583333889284339,9.798914749822048
290000000.0,22.16,0.0,0.0,0.0,0.6092010281645103,-0.15127020563290206,9.86984102816451
295000000.0,22.16,0.0,0.0,0.0,0.6255836828099368,-0.16098210573002106,9.866113154159832
300000000.0,22.16,0.0,0.0,0.0,0.60429599417286,-0.16677,9.79626596503716
305000000.0,22.16,0.0,0.0,0.0,0.602235905924259,-0.16677,9.76095
310000000.0,22.16,0.0,0.0,0.0,0.604492193978622,-0.16677,9.77958903010689
315000000.0,22.16,0.0,0.0,0.0,0.6092991183554912,-0.16314029388150295,9.824518824473989
320000000.0,22.16,0.0,0.0,0.0,0.6207767875687679,-0.16049160621561606,9.845708393784385
325000000.0,22.16,0.0,0.0,0.0,0.6047864936872649,-0.16677,9.798227924247179
330000000.0,22.16,0.0,0.0,0.0,0.6017454064098541,-0.16343459359014592,9.731716219229561
335000000.0,22.16,0.0,0.0,0.0,0.6049826934930269,-0.15696,9.773801145548811
340000000.0,22.16,0.0,0.0,0.0,0.6046884132081841,-0.15696,9.832366826416369
345000000.0,22.16,0.0,0.0,0.0,0.614988893298789,-0.15696,9.846885573195156
350000000.0,22.16,0.0,0.0,0.0,0.6111630067983301,-0.15696,9.80215195921002
355000000.0,22.16,0.0,0.0,0.0,0.6180300000000001,-0.15980490689544907,9.769484720686346
360000000.0,22.16,0.0,0.0,0.0,0.6125363860148639,-0.15852957902229578,9.798620420977706
365000000.0,22.16,0.0,0.0,0.0,0.6037074141793741,-0.13998870708968705,9.827756121269061
370000000.0,22.16,0.0,0.0,0.0,0.6180300000000001,-0.14715,9.839037571252776
375000000.0,22.16,0.0,0.0,0.0,0.615577492716075,-0.14960250728392507,9.802642478148226
380000000.0,22.16,0.0,0.0,0.0,0.60822,-0.15225118523791184,9.778215592618956
385000000.0,22.16,0.0,0.0,0.0,0.6104763074781631,-0.14185261495632615,9.791066767303468
390000000.0,22.16,0.0,0.0,0.0,0.6115553772741539,-0.15048537727415376,9.861208207575283
395000000.0,22.16,0.0,0.0,0.0,0.5927202153448021,-0.13989064603440646,9.860619569310396
400000000.0,22.16,0.0,0.0,0.0,0.60822,-0.18639,9.81588594561336
405000000.0,22.16,0.0,0.0,0.0,0.6044921842667218,-0.1770704606668046,9.764677815733277
410000000.0,22.16,0.0,0.0,0.0,0.590365807963758,-0.14263742389127423,9.787633231855033
415000000.0,22.16,0.0,0.0,0.0,0.59841,-0.16510229193912293,9.826480832243508
420000000.0,22.16,0.0,0.0,0.0,0.5999796081579961,-0.1538207836840078,9.85905
425000000.0,22.16,0.0,0.0,0.0,0.6067484917448849,-0.14175452476534525,9.850220950469309
430000000.0,22.16,0.0,0.0,0.0,0.5997834083522341,-0.16677,9.80019
435000000.0,22.16,0.0,0.0,0.0,0.60822,-0.16549469155064692,9.801465308449353
440000000.0,22.16,0.0,0.0,0.0,0.6070427914535279,-0.15931441709294417,9.811177208546473
445000000.0,22.16,0.0,0.0,0.0,0.5951726740692267,-0.17658,9.81981
450000000.0,22.16,0.0,0.0,0.0,0.5729040349628404,-0.17461798251857982,9.81784798251858
455000000.0,22.16,0.0,0.0,0.0,0.60822,-0.15342836464868365,9.802838726513487
460000000.0,22.16,0.0,0.0,0.0,0.607435191065052,-0.12007442680484427,9.830404808934949
465000000.0,22.16,0.0,0.0,0.0,0.5997834180641342,-0.1485234180641342,9.836683163871731
470000000.0,22.16,0.0,0.0,0.0,0.617441390870814,-0.16677,9.799601390870814
475000000.0,22.16,0.0,0.0,0.0,0.60822,-0.16529847232108472,9.789889490773696
480000000.0,22.16,0.0,0.0,0.0,0.6074351813531518,-0.13812481864684817,9.782139637293698
485000000.0,22.16,0.0,0.0,0.0,0.5888943094205431,-0.15725430942054308,9.820104309420543
490000000.0,22.16,0.0,0.0,0.0,0.5988024190353242,-0.16696620951766208,9.829816209517663
495000000.0,22.16,0.0,0.0,0.0,0.6177356711556568,-0.1764818903852189,9.839233780770439
500000000.0,22.16,0.0,0.0,0.0,0.5886,-0.1667700194238002,9.819809951440499
505000000.0,22.16,0.0,0.0,0.0,0.5886,-0.1861938196180382,9.771250450954904
510000000.0,22.16,0.0,0.0,0.0,0.6078276198122762,-0.1767761900938619,9.809215239624553
515000000.0,22.16,0.0,0.0,0.0,0.6177357100032572,-0.1670642899967429,9.81
520000000.0,22.16,0.0,0.0,0.0,0.6086123898996239,-0.1196819494981195,9.81
525000000.0,22.16,0.0,0.0,0.0,0.60822,-0.1549980407899804,9.791360979605011
530000000.0,22.16,0.0,0.0,0.0,0.5897771794107718,-0.1385171794107718,9.808822820589228
535000000.0,22.16,0.0,0.0,0.0,0.6068466207834662,-0.1464633103917331,9.81
540000000.0,22.16,0.0,0.0,0.0,0.5901695790222958,-0.14715,9.81
545000000.0,22.16,0.0,0.0,0.0,0.5975271105859711,-0.14715,9.80107288941403
550000000.0,22.16,0.0,0.0,0.0,0.59841,-0.15597901068309009,9.77370296795073
555000000.0,22.16,0.0,0.0,0.0,0.59841,-0.1394981784395818,9.805683643120837
560000000.0,22.16,0.0,0.0,0.0,0.6070428108773281,-0.1546056217546562,9.827265621754657
565000000.0,22.16,0.0,0.0,0.0,0.60822,-0.13989057805110577,9.838154710974447
570000000.0,22.16,0.0,0.0,0.0,0.6166566110715662,-0.14577661107156611,9.805683555713737
575000000.0,22.16,0.0,0.0,0.0,0.6096914888313149,-0.16382702233737023,9.78351297766263
580000000.0,22.16,0.0,0.0,0.0,0.60822,-0.16677,9.788810411265805
585000000.0,22.16,0.0,0.0,0.0,0.60822,-0.1504853772741538,9.839233868177539
590000000.0,22.16,0.0,0.0,0.0,0.60822,-0.16323842292008423,9.857284211460042
595000000.0,22.16,0.0,0.0,0.0,0.5923277768856777,-0.14293166532851664,9.827265553771356
600000000.0,22.16,0.0,0.0,0.0,0.6042960233085602,-0.16873204661712046,9.81196198834572
605000000.0,22.16,0.0,0.0,0.0,0.6159699117513991,-0.16883008824860088,9.81
610000000.0,22.16,0.0,0.0,0.0,0.6180300000000001,-0.15146637630296378,9.81
615000000.0,22.16,0.0,0.0,0.0,0.6104762880543629,-0.13959628805436286,9.81
620000000.0,22.16,0.0,0.0,0.0,0.6156756120427562,-0.14479561204275612,9.81
625000000.0,22.16,0.0,0.0,0.0,0.6033149757202497,-0.15450751213987513,9.79528497572025
630000000.0,22.16,0.0,0.0,0.0,0.5911505877630059,-0.16421941223699413,9.80489882447399
635000000.0,22.16,0.0,0.0,0.0,0.6029226246682262,-0.1739313123341131,9.824322624668227
640000000.0,22.16,0.0,0.0,0.0,0.6011567875687679,-0.16951678756876787,9.815493575137536
645000000.0,22.16,0.0,0.0,0.0,0.59841,-0.16677,9.80303488747165
650000000.0,22.16,0.0,0.0,0.0,0.6121440252509404,-0.17363701262547013,9.80019
655000000.0,22.16,0.0,0.0,0.0,0.6112610872774109,-0.1562732618322326,9.80019
660000000.0,22.16,0.0,0.0,0.0,0.6015491871802918,-0.16049162563941627,9.806860812819709
665000000.0,22.16,0.0,0.0,0.0,0.5918372870831728,-0.16019728708317285,9.829718138750481
670000000.0,22.16,0.0,0.0,0.0,0.6015492260278923,-0.16343461301394613,9.820006160958162
675000000.0,22.16,0.0,0.0,0.0,0.6145965131110652,-0.16039348688893487,9.81
680000000.0,22.16,0.0,0.0,0.0,0.6117515867918158,-0.15068158679181587,9.822556826416369
685000000.0,22.16,0.0,0.0,0.0,0.6144003133053032,-0.15333031330530314,9.811079060084092
690000000.0,22.16,0.0,0.0,0.0,0.6119477865975779,-0.15087778659757786,9.806272213402423
695000000.0,22.16,0.0,0.0,0.0,0.60822,-0.17108645399816455,9.80401588650046
700000000.0,22.16,0.0,0.0,0.0,0.6023339864033399,-0.16284594561335947,9.823734054386641
705000000.0,22.16,0.0,0.0,0.0,0.59841,-0.15872582738755828,9.816278345224884
710000000.0,22.16,0.0,0.0,0.0,0.59841,-0.15539037241820372,9.80019
715000000.0,22.16,0.0,0.0,0.0,0.6040017138880172,-0.15274171388801713,9.805781713888019
720000000.0,22.16,0.0,0.0,0.0,0.60822,-0.15696,9.81
725000000.0,22.16,0.0,0.0,0.0,0.60822,-0.15696,9.826186542246766
730000000.0,22.16,0.0,0.0,0.0,0.60822,-0.16225741417937414,9.828835171641252
735000000.0,22.16,0.0,0.0,0.0,0.6030206857235069,-0.16677,9.80421205717052
740000000.0,22.16,0.0,0.0,0.0,0.59841,-0.16166878562638784,9.785278785626389
745000000.0,22.16,0.0,0.0,0.0,0.6034131144707311,-0.15195688552926884,9.805585572353657
750000000.0,22.16,0.0,0.0,0.0,0.6131250145678502,-0.15205501456785014,9.85414507283925
755000000.0,22.16,0.0,0.0,0.0,0.6180300000000001,-0.1473461706700617,9.845021597345216
760000000.0,22.16,0.0,0.0,0.0,0.6133211852379119,-0.14204881476208814,9.800582370475825
765000000.0,22.16,0.0,0.0,0.0,0.5989985702815857,-0.15176071485920714,9.781158570281585
770000000.0,22.16,0.0,0.0,0.0,0.5976252299126523,-0.17049784486897845,9.79332307478163
775000000.0,22.16,0.0,0.0,0.0,0.5993909698931097,-0.1687319397862194,9.833053545160336
780000000.0,22.16,0.0,0.0,0.0,0.6058656606022567,-0.15146641515056414,9.844923584849436
785000000.0,22.16,0.0,0.0,0.0,0.6151850542569506,-0.16117831524768314,9.809901793266217
790000000.0,22.16,0.0,0.0,0.0,0.6025302153448021,-0.16677,9.787240861379209
795000000.0,22.16,0.0,0.0,0.0,0.6162642308838423,-0.16274788455807884,9.81
800000000.0,22.16,0.0,0.0,0.0,0.6199919689219198,-0.16088401553904014,9.82177204661712
805000000.0,22.16,0.0,0.0,0.0,0.6120459156361592,-0.1591181687276817,9.831778168727682
810000000.0,22.16,0.0,0.0,0.0,0.6143021842667219,-0.15460563146655631,9.816082184266723
815000000.0,22.16,0.0,0.0,0.0,0.6045902841696028,-0.16314028416960283,9.806370284169603
820000000.0,22.16,0.0,0.0,0.0,0.6019416159275162,-0.15696,9.807253231855032
825000000.0,22.16,0.0,0.0,0.0,0.6047864839753648,-0.15352648397536484,9.82667703204927
830000000.0,22.16,0.0,0.0,0.0,0.5950745838782459,-0.15048541612175415,9.83943
835000000.0,22.16,0.0,0.0,0.0,0.5821253675622537,-0.15696,9.823243418905635
840000000.0,22.16,0.0,0.0,0.0,0.5783976489479765,-0.1475423510520235,9.796658432631984
845000000.0,22.16,0.0,0.0,0.0,0.6014511164131111,-0.13057111641311117,9.81
850000000.0,22.16,0.0,0.0,0.0,0.60822,-0.14322603302046033,9.81
855000000.0,22.16,0.0,0.0,0.0,0.6053750833926508,-0.15696,9.80715508339265
860000000.0,22.16,0.0,0.0,0.0,0.6011568167044682,-0.15696,9.797443183295533
865000000.0,22.16,0.0,0.0,0.0,0.60822,-0.15696,9.80097486720635
870000000.0,22.16,0.0,0.0,0.0,0.6107706168987062,-0.15951061689870616,9.83727185069612
875000000.0,22.16,0.0,0.0,0.0,0.6131249660083498,-0.16431748300417484,9.84433489802505
880000000.0,22.16,0.0,0.0,0.0,0.6007644170929441,-0.15931441709294417,9.795481165814113
885000000.0,22.16,0.0,0.0,0.0,0.6037073656198736,-0.16451368280993683,9.778313682809937
890000000.0,22.16,0.0,0.0,0.0,0.5950746518615465,-0.15696,9.788025738297456
895000000.0,22.16,0.0,0.0,0.0,0.6139097652313977,-0.1487195304627953,9.851300117384302
900000000.0,22.16,0.0,0.0,0.0,0.6023340349628403,-0.12949210488852106,9.853163947555739
905000000.0,22.16,0.0,0.0,0.0,0.6143021648429217,-0.1672604121073041,9.820300412107304
910000000.0,22.16,0.0,0.0,0.0,0.59841,-0.13282745302697452,9.778804182324343
915000000.0,22.16,0.0,0.0,0.0,0.6034131533183316,-0.1552922822272228,9.777430871091108
920000000.0,22.16,0.0,0.0,0.0,0.6262703821301039,-0.14558038213010382,9.817848089349482
925000000.0,22.16,0.0,0.0,0.0,0.6195015179670152,-0.13881151796701516,9.854635446098955
930000000.0,22.16,0.0,0.0,0.0,0.6237197458075975,-0.1485234180641342,9.818632655486926
935000000.0,22.16,0.0,0.0,0.0,0.59841,-0.15696,9.752415318161253
940000000.0,22.16,0.0,0.0,0.0,0.6007644365167444,-0.1557827817416278,9.768013309550232
945000000.0,22.16,0.0,0.0,0.0,0.6169508816445088,-0.14715,9.824126473421964
950000000.0,22.16,0.0,0.0,0.0,0.6101820369052203,-0.1461689815473898,9.85610694464217
955000000.0,22.16,0.0,0.0,0.0,0.6260741629005416,-0.1417545927486459,9.825205407251355
960000000.0,22.16,0.0,0.0,0.0,0.6074351813531518,-0.18639,9.779000362706304
965000000.0,22.16,0.0,0.0,0.0,0.5990967187439672,-0.18364312502413124,9.764383593719835
970000000.0,22.16,0.0,0.0,0.0,0.60822,-0.1477386188410862,9.812943094205432
975000000.0,22.16,0.0,0.0,0.0,0.6077294810617948,-0.15696,9.857578443185384
980000000.0,22.16,0.0,0.0,0.0,0.5988024190353242,-0.15735241903532418,9.82765790482338
985000000.0,22.16,0.0,0.0,0.0,0.60822,-0.16677,9.780864319132444
990000000.0,22.16,0.0,0.0,0.0,0.6084162192295621,-0.1665737807704378,9.790968657688687
995000000.0,22.16,0.0,0.0,0.0,0.6179318806733188,-0.15666564201995642,9.820300596633407
1000000000.0,22.16,0.0,0.0,0.0,0.6082199611523996,-0.12753007769520078,9.868859922304798
1005000000.0,22.16,0.0,0.0,0.0,0.5887961609581617,-0.1663776780836768,9.830012321916323
1010000000.0,22.16,0.0,0.0,0.0,0.5789861803819618,-0.1571561803819618,9.78155090190981
1015000000.0,22.16,0.0,0.0,0.0,0.6073371591454716,-0.1759914394303144,9.790085719715158
1020000000.0,22.16,0.0,0.0,0.0,0.6176376198122763,-0.12007428112634282,9.809215239624553
1025000000.0,22.16,0.0,0.0,0.0,0.6180300000000001,-0.164317599546976,9.81
1030000000.0,22.16,0.0,0.0,0.0,0.5903657399804574,-0.1575485799934858,9.819221420006514
1035000000.0,22.16,0.0,0.0,0.0,0.5977233201036332,-0.1660833201036332,9.828933320103634
1040000000.0,22.16,0.0,0.0,0.0,0.5893847797992479,-0.1487195595984956,9.82962
1045000000.0,22.16,0.0,0.0,0.0,0.6064542405957424,-0.1739313608936136,9.811765759404258
1050000000.0,22.16,0.0,0.0,0.0,0.60822,-0.1589219592100196,9.79234195921002
1055000000.0,22.16,0.0,0.0,0.0,0.6169509204921093,-0.13949815901578158,9.807841840984219
1060000000.0,22.16,0.0,0.0,0.0,0.6093971794107718,-0.1546056411784564,9.827265641178457
1065000000.0,22.16,0.0,0.0,0.0,0.6252894413726945,-0.1654947206863472,9.82962
1070000000.0,22.16,0.0,0.0,0.0,0.6194033792165339,-0.16677,9.82962
1075000000.0,22.16,0.0,0.0,0.0,0.5930144373582444,-0.16677,9.81294295823883
1080000000.0,22.16,0.0,0.0,0.0,0.5968404209777042,-0.15852957902229578,9.801759579022296
1085000000.0,22.16,0.0,0.0,0.0,0.6065523210748232,-0.1651023210748232,9.816474642149647
1090000000.0,22.16,0.0,0.0,0.0,0.60822,-0.15872577882805777,9.843942663515827
1095000000.0,22.16,0.0,0.0,0.0,0.6161661212690612,-0.1649061212690612,9.841293878730939
1100000000.0,22.16,0.0,0.0,0.0,0.5944859359014594,-0.15892197863381977,9.81588593590146
1105000000.0,22.16,0.0,0.0,0.0,0.5963499214632992,-0.15696,9.794500157073402
1110000000.0,22.16,0.0,0.0,0.0,0.6060618215604182,-0.15696,9.775076356879163
1115000000.0,22.16,0.0,0.0,0.0,0.60822,-0.17962116497261166,9.838743494917834
1120000000.0,22.16,0.0,0.0,0.0,0.6007643782453438,-0.17147875649068756,9.851594378245343
1125000000.0,22.16,0.0,0.0,0.0,0.6057675218517752,-0.14469743444467434,9.8198099125929
1130000000.0,22.16,0.0,0.0,0.0,0.6009605780511058,-0.14459942194889422,9.795481156102213
1135000000.0,22.16,0.0,0.0,0.0,0.6055713220460132,-0.16863396613803966,9.804702644092027
1140000000.0,22.16,0.0,0.0,0.0,0.6011567778568677,-0.16245355571373554,9.817063222143133
1145000000.0,22.16,0.0,0.0,0.0,0.6123402444805025,-0.1499948777597488,9.833740244480502
1150000000.0,22.16,0.0,0.0,0.0,0.6111629776626298,-0.16088404467474046,9.798227865975779
1155000000.0,22.16,0.0,0.0,0.0,0.6149889224344893,-0.15323215513102156,9.77380107756551
1160000000.0,22.16,0.0,0.0,0.0,0.5980175324051754,-0.16049164506321645,9.797443290126433
1165000000.0,22.16,0.0,0.0,0.0,0.6083181678861818,-0.16019727737127276,9.823145445257454
1170000000.0,22.16,0.0,0.0,0.0,0.6180300000000001,-0.16343462272584622,9.82962
1175000000.0,22.16,0.0,0.0,0.0,0.6116534771770348,-0.16677,9.81686695435407
1180000000.0,22.16,0.0,0.0,0.0,0.6019415770799158,-0.15421315415983156,9.784886308319663
1185000000.0,22.16,0.0,0.0,0.0,0.6045903230172032,-0.14715,9.80784193810322
1190000000.0,22.16,0.0,0.0,0.0,0.5960555537713556,-0.15931444622864446,9.82962
1195000000.0,22.16,0.0,0.0,0.0,0.6065523696343238,-0.16677,9.817651753577119
1200000000.0,22.16,0.0,0.0,0.0,0.6121439766914398,-0.15499795338287953,9.815886023308561
1205000000.0,22.16,0.0,0.0,0.0,0.60822,-0.1645137702170377,9.808234153188643
1210000000.0,22.16,0.0,0.0,0.0,0.5968403529944035,-0.17089017649720176,9.817259470508395
1215000000.0,22.16,0.0,0.0,0.0,0.5997834471998345,-0.16117827640008275,9.82962
1220000000.0,22.16,0.0,0.0,0.0,0.6137136236970363,-0.15696,9.813139128908892
1225000000.0,22.16,0.0,0.0,0.0,0.6018434286175344,-0.16775104758831047,9.80019
1230000000.0,22.16,0.0,0.0,0.0,0.609789695565097,-0.17658,9.816082271673823
1235000000.0,22.16,0.0,0.0,0.0,0.6122420280348203,-0.17138067601160675,9.840018647976786
1240000000.0,22.16,0.0,0.0,0.0,0.59841,-0.16166877591448775,9.833936327743464
1245000000.0,22.16,0.0,0.0,0.0,0.59841,-0.15195687581736875,9.794794379086843
1250000000.0,22.16,0.0,0.0,0.0,0.6033150242797503,-0.14715,9.77566502427975
1255000000.0,22.16,0.0,0.0,0.0,0.60822,-0.14715,9.814218470638085
1260000000.0,22.16,0.0,0.0,0.0,0.60822,-0.14244117552601177,9.84924
1265000000.0,22.16,0.0,0.0,0.0,0.60822,-0.13272927542889276,9.821575652573356
1270000000.0,22.16,0.0,0.0,0.0,0.6127326246682263,-0.15009312334113123,9.79038
1275000000.0,22.16,0.0,0.0,0.0,0.6092009504693096,-0.16333642570396426,9.79038
1280000000.0,22.16,0.0,0.0,0.0,0.6027264248624642,-0.16009927458739273,9.82059497403725
1285000000.0,22.16,0.0,0.0,0.0,0.6124383249595833,-0.16814335008083348,9.863268324959583
1290000000.0,21.54679627086796,0.0,0.0,0.0,0.6097895498865955,-0.16108022505670225,9.844138649659786
1295000000.0,20.7,0.0,0.0,0.0,0.6064542503076426,-0.1587257496923575,9.793911499384715
1300000000.0,20.7,0.0,0.0,0.0,0.6141059747490598,-0.15107402525094024,9.77468402525094
1305000000.0,20.7,0.0,0.0,0.0,0.6043940746519407,-0.15696,9.811177402784475
1310000000.0,20.7,0.0,0.0,0.0,0.59841,-0.1644156508903565,9.847866523664464
1315000000.0,20.7,0.0,0.0,0.0,0.5947802744577028,-0.17658,9.815101097830812
1320000000.0,20.7,0.0,0.0,0.0,0.5956632512788325,-0.16245349744233495,9.779785123081751
1325000000.0,20.7,0.0,0.0,0.0,0.60822,-0.1442070514730705,9.778117628682676
1330000000.0,20.7,0.0,0.0,0.0,0.6115554258336543,-0.15362457416634573,9.83334798083558
1335000000.0,20.7,0.0,0.0,0.0,0.6147926740692268,-0.15686197779231978,9.872195348138453
1340000000.0,20.7,0.0,0.0,0.0,0.6050807739721077,-0.17030154794421545,9.840214643832647
1345000000.0,20.7,0.0,0.0,0.0,0.5953688738749887,-0.15391887387498873,9.778902117124922
1350000000.0,20.7,0.0,0.0,0.0,0.5944860524442606,-0.14715,9.746235131110652
1355000000.0,20.7,0.0,0.0,0.0,0.60822,-0.14999492631924927,9.809019263192493
1360000000.0,20.7,0.0,0.0,0.0,0.60822,-0.15421317358363174,9.884163652832736
1365000000.0,20.7,0.0,0.0,0.0,0.6108687265134872,-0.1550961795404618,9.874451461378614
1370000000.0,20.7,0.0,0.0,0.0,0.6129287467787875,-0.17658,9.797246866946969
1375000000.0,20.7,0.0,0.0,0.0,0.59841,-0.17658,9.768307580123176
1380000000.0,20.7,0.0,0.0,0.0,0.6031188536096885,-0.16951671958546718,9.799797707219378
1385000000.0,20.7,0.0,0.0,0.0,0.6202863269019634,-0.14715,9.840901634509816
1390000000.0,20.7,0.0,0.0,0.0,0.6235235460018355,-0.14930822699908228,9.861404184007341
1395000000.0,20.7,0.0,0.0,0.0,0.6061598729037987,-0.15902012709620125,9.791949491615195
1400000000.0,20.7,0.0,0.0,0.0,0.6003720271933203,-0.16088391842003918,9.76487405438664
1405000000.0,20.7,0.0,0.0,0.0,0.6100839272904393,-0.13734,9.797345345613953
1410000000.0,20.7,0.0,0.0,0.0,0.6144983452248836,-0.13734,9.865328345224883
1415000000.0,20.7,0.0,0.0,0.0,0.6000777274846772,-0.14067545496935455,9.842569090061291
1420000000.0,20.7,0.0,0.0,0.0,0.6066503724182037,-0.15696,9.80215186209102
1425000000.0,20.7,0.0,0.0,0.0,0.5998815276789152,-0.1554884723210847,9.76683611071566
1430000000.0,20.7,0.0,0.0,0.0,0.6095934277760343,-0.14989685555206855,9.811177422208274
1435000000.0,20.7,0.0,0.0,0.0,0.6154793442536935,-0.16932065574630656,9.877394672126846
1440000000.0,20.7,0.0,0.0,0.0,0.5960555440594555,-0.18874445594054456,9.861796632178367
1445000000.0,20.7,0.0,0.0,0.0,0.5820273842021738,-0.20061435966304358,9.807841743865218
1450000000.0,20.7,0.0,0.0,0.0,0.6092010281645103,-0.15892205632902054,9.792342056329021
1455000000.0,20.7,0.0,0.0,0.0,0.6171470717383708,-0.17393121521511215,9.812648784784889
1460000000.0,20.7,0.0,0.0,0.0,0.6090048283587483,-0.14793482835874827,9.83943
1465000000.0,20.7,0.0,0.0,0.0,0.6187167284558673,-0.15764672845586727,9.836683086176532
1470000000.0,20.7,0.0,0.0,0.0,0.6266627428940275,-0.16618137144701373,9.801955885658959
1475000000.0,20.7,0.0,0.0,0.0,0.60822,-0.15696,9.82863894269979
1480000000.0,20.7,0.0,0.0,0.0,0.6074351425055514,-0.15774485749444855,9.811177286241673
1485000000.0,20.7,0.0,0.0,0.0,0.5886,-0.17569701346697011,9.83854701346697
1490000000.0,20.7,0.0,0.0,0.0,0.5887962289414623,-0.14754245788292458,9.809411313175614
1495000000.0,20.7,0.0,0.0,0.0,0.5985081290385813,-0.16647561288425614,9.781060645192907
1500000000.0,20.7,0.0,0.0,0.0,0.60822,-0.13734008740710085,9.82962
1505000000.0,20.7,0.0,0.0,0.0,0.60822,-0.1664757876984579,9.82962
1510000000.0,20.7,0.0,0.0,0.0,0.60822,-0.14754234134012342,9.858461487989814
1515000000.0,20.7,0.0,0.0,0.0,0.5891885411458854,-0.17569718828117187,9.763892705729427
1520000000.0,20.7,0.0,0.0,0.0,0.6074352590483526,-0.17658,9.789202888572529
1525000000.0,20.7,0.0,0.0,0.0,0.6268590592425907,-0.1579409407574094,9.80901905924259
1530000000.0,20.7,0.0,0.0,0.0,0.6093971405631714,-0.1477385702815857,9.837664289155242
1535000000.0,20.7,0.0,0.0,0.0,0.5990966701844667,-0.1653966596310666,9.8667999894466
1540000000.0,20.7,0.0,0.0,0.0,0.6074352299126523,-0.1577447700873477,9.78763293078613
1545000000.0,20.7,0.0,0.0,0.0,0.5903657399804574,-0.15696,9.771642869990227
1550000000.0,20.7,0.0,0.0,0.0,0.6062580602137806,-0.1481309698931097,9.79724709032067
1555000000.0,20.7,0.0,0.0,0.0,0.5994890697959907,-0.15588093020400928,9.852575581224055
1560000000.0,20.7,0.0,0.0,0.0,0.59841,-0.1655928303011283,9.867682830301128
1565000000.0,20.7,0.0,0.0,0.0,0.6154794607964946,-0.1497005392035054,9.800582156814022
1570000000.0,20.7,0.0,0.0,0.0,0.6095933695046337,-0.1555866304953663,9.773506739009267
1575000000.0,20.7,0.0,0.0,0.0,0.6165585305924853,-0.1486214694075147,9.804114122369942
1580000000.0,20.7,0.0,0.0,0.0,0.6345108613792086,-0.16363086137920863,9.86768301482723
1585000000.0,20.7,0.0,0.0,0.0,0.63765,-0.1749123307867233,9.837958346066383
1590000000.0,20.7,0.0,0.0,0.0,0.6215615382323154,-0.1685357691161577,9.797443076464631
1595000000.0,20.7,0.0,0.0,0.0,0.6021377380380774,-0.14293160705711605,9.742703214114233
1600000000.0,20.7,0.0,0.0,0.0,0.6062580310780803,-0.16088409323424094,9.778608186468482
1605000000.0,20.7,0.0,0.0,0.0,0.60822,-0.16677,9.852379449401594
1610000000.0,20.7,0.0,0.0,0.0,0.6311754938169549,-0.18207366254463664,9.86886
1615000000.0,20.7,0.0,0.0,0.0,0.6074350745222508,-0.16372880589168803,9.823537611783376
1620000000.0,20.7,0.0,0.0,0.0,0.5909543685334437,-0.1718712629331126,9.765266211200661
1625000000.0,20.7,0.0,0.0,0.0,0.5886,-0.16922246843632469,9.780570126254702
1630000000.0,20.7,0.0,0.0,0.0,0.6031188633215886,-0.13773227335682273,9.826677158303973
1635000000.0,20.7,0.0,0.0,0.0,0.6153813317579133,-0.14901399527373993,9.860913995273739
1640000000.0,20.7,0.0,0.0,0.0,0.6109667681449676,-0.15696,9.826480608869806
1645000000.0,20.7,0.0,0.0,0.0,0.60822,-0.15696,9.796069736095697
1650000000.0,20.7,0.0,0.0,0.0,0.60822,-0.15696,9.79038
1655000000.0,20.7,0.0,0.0,0.0,0.60822,-0.14342213570722134,9.824224660731947
1660000000.0,20.7,0.0,0.0,0.0,0.60822,-0.15735249673052495,9.846100832243508
1665000000.0,20.7,0.0,0.0,0.0,0.6147927323406274,-0.1733427323406273,9.816376338296864
1670000000.0,20.7,0.0,0.0,0.0,0.6115553675622537,-0.15715610268676103,9.78076610268676
1675000000.0,20.7,0.0,0.0,0.0,0.6145965325348653,-0.14715,9.789889597604596
1680000000.0,20.7,0.0,0.0,0.0,0.6117515673680157,-0.15970686526396866,9.81274686526397
1685000000.0,20.7,0.0,0.0,0.0,0.6020396672708966,-0.16058966727089666,9.83835099818731
1690000000.0,20.7,0.0,0.0,0.0,0.6044922328262223,-0.14479553434755532,9.82491106869511
1695000000.0,20.7,0.0,0.0,0.0,0.60822,-0.16726066461670663,9.792047601229976
1700000000.0,20.7,0.0,0.0,0.0,0.6023339669795397,-0.168731900938619,9.78645603302046
1705000000.0,20.7,0.0,0.0,0.0,0.59841,-0.16274793311757932,9.80195586623516
1710000000.0,20.7,0.0,0.0,0.0,0.59841,-0.16677,9.827069499644095
1715000000.0,20.7,0.0,0.0,0.0,0.6151851999354521,-0.16117826668818266,9.822654800064548
1720000000.0,20.7,0.0,0.0,0.0,0.611359099773191,-0.14597273318212733,9.799012733182128
1725000000.0,20.7,0.0,0.0,0.0,0.6038055335060554,-0.153526600518166,9.784984466493945
1730000000.0,20.7,0.0,0.0,0.0,0.5976251327936514,-0.16677,9.79116486720635
1735000000.0,20.7,0.0,0.0,0.0,0.5989986674005867,-0.16677,9.820987334801174
1740000000.0,20.7,0.0,0.0,0.0,0.6184224675948247,-0.15656753240517532,9.85983493518965
1745000000.0,20.7,0.0,0.0,0.0,0.6278400000000001,-0.16215940168359402,9.84364806273828
1750000000.0,20.7,0.0,0.0,0.0,0.613124898025049,-0.16186489802504897,9.7903798640334
1755000000.0,20.7,0.0,0.0,0.0,0.59841,-0.17118467044384672,9.77076
1760000000.0,20.7,0.0,0.0,0.0,0.5889923316282233,-0.16794699488466996,9.808430673487106
1765000000.0,20.7,0.0,0.0,0.0,0.6064544056980441,-0.15117220284902202,9.853850734283007
1770000000.0,20.7,0.0,0.0,0.0,0.624112096859621,-0.16225736561987364,9.87258790314038
1775000000.0,20.7,0.0,0.0,0.0,0.6170490689544907,-0.15696,9.839920120750302
1780000000.0,20.7,0.0,0.0,0.0,0.6192071308512713,-0.16127643457436433,9.771937130851272
1785000000.0,20.7,0.0,0.0,0.0,0.60822,-0.16255166532851664,9.777823338685934
1790000000.0,20.7,0.0,0.0,0.0,0.60822,-0.15283976523139764,9.824911408611614
1795000000.0,20.7,0.0,0.0,0.0,0.60822,-0.1551942697314427,9.85905
1800000000.0,20.7,0.0,0.0,0.0,0.6042959650371597,-0.16677,9.835505790222959
1805000000.0,20.7,0.0,0.0,0.0,0.6022359350599593,-0.1591181298800813,9.777234389640244
1810000000.0,20.7,0.0,0.0,0.0,0.6156756703141567,-0.15833350547123506,9.759969175785391
1815000000.0,20.7,0.0,0.0,0.0,0.6350994705083948,-0.17295026474580263,9.801269205762592
1820000000.0,20.7,0.0,0.0,0.0,0.6262701878921019,-0.16677,9.826873270702633
1825000000.0,20.7,0.0,0.0,0.0,0.6023341417937415,-0.15990292910312928,9.82569585820626
1830000000.0,20.7,0.0,0.0,0.0,0.6211691289088913,-0.14715,9.790183693363337
1835000000.0,20.7,0.0,0.0,0.0,0.60822,-0.15038733564267334,9.773997335642672
1840000000.0,20.7,0.0,0.0,0.0,0.60822,-0.16009923573979234,9.808823121658131
1845000000.0,20.7,0.0,0.0,0.0,0.6112611358369113,-0.16677,9.862777728326177
1850000000.0,20.7,0.0,0.0,0.0,0.6180300000000001,-0.1579408921979089,9.834524820329849
1855000000.0,20.7,0.0,0.0,0.0,0.6123401279377013,-0.14302987206229872,9.788810255875402
1860000000.0,20.7,0.0,0.0,0.0,0.59841,-0.15696,9.77468418064134
1865000000.0,20.7,0.0,0.0,0.0,0.59841,-0.15960873622538735,9.823243681126938
1870000000.0,20.7,0.0,0.0,0.0,0.6060619089675191,-0.16166872735498727,9.856499363677493
1875000000.0,20.7,0.0,0.0,0.0,0.6229349271607493,-0.15205507283925074,9.841882390741125
1880000000.0,20.7,0.0,0.0,0.0,0.6058655634832556,-0.16677,9.805683380899534
1885000000.0,20.7,0.0,0.0,0.0,0.6006663366138634,-0.16225732677227328,9.772231683069316
1890000000.0,20.7,0.0,0.0,0.0,0.6039035265780353,-0.14930823671098237,9.812158236710983
1895000000.0,20.7,0.0,0.0,0.0,0.5906601368081014,-0.15489986319189863,9.821870136808101
1900000000.0,20.7,0.0,0.0,0.0,0.59841,-0.14911203690522037,9.82373388928434
1905000000.0,20.7,0.0,0.0,0.0,0.6002739370023393,-0.15882393700233935,9.80578181100702
1910000000.0,20.7,0.0,0.0,0.0,0.60822,-0.16677,9.827854162900541
1915000000.0,20.7,0.0,0.0,0.0,0.60822,-0.16510226280342263,9.821477737196577
1920000000.0,20.7,0.0,0.0,0.0,0.6019414508252146,-0.15696,9.823341450825215
1925000000.0,20.7,0.0,0.0,0.0,0.5733946121724461,-0.15843153739081536,9.79038
1930000000.0,20.7,0.0,0.0,0.0,0.59841,-0.16264968753619688,9.794500312463803
1935000000.0,20.7,0.0,0.0,0.0,0.59841,-0.13989067517010675,9.822360675170106
1940000000.0,20.7,0.0,0.0,0.0,0.6019417130465171,-0.15578276231782762,9.838252762317827
1945000000.0,20.7,0.0,0.0,0.0,0.6224443111035431,-0.14715,9.824224311103544
1950000000.0,20.7,0.0,0.0,0.0,0.5807520757528207,-0.14813103787641038,9.77664584849436
1955000000.0,20.7,0.0,0.0,0.0,0.5992929379735293,-0.15696,9.747510565814705
1960000000.0,20.7,0.0,0.0,0.0,0.6097896761412968,-0.15460548578805486,9.815493866494538
1965000000.0,20.7,0.0,0.0,0.0,0.6271532618322326,-0.12821673816776738,9.877983261832233
1970000000.0,20.7,0.0,0.0,0.0,0.6174413617351137,-0.13910591479465914,9.86415089388091
1975000000.0,20.7,0.0,0.0,0.0,0.60822,-0.16726053836200538,9.787927308189973
1980000000.0,20.7,0.0,0.0,0.0,0.60822,-0.17540268462262684,9.743684630754746
1985000000.0,20.7,0.0,0.0,0.0,0.6085143385562434,-0.14715,9.801956031337461
1990000000.0,20.7,0.0,0.0,0.0,0.6178337613466377,-0.14715,9.858853761346637
1995000000.0,20.7,0.0,0.0,0.0,0.60822,-0.1472481387504814,9.84855302874663
2000000000.0,20.7,0.0,0.0,0.0,0.6082199223047992,-0.15696007769520076,9.7805698834572
2005000000.0,20.7,0.0,0.0,0.0,0.5887961221105612,-0.17638387788943877,9.751434183165841
2010000000.0,20.7,0.0,0.0,0.0,0.5982138390418383,-0.1958076780836768,9.80882303425103
2015000000.0,20.7,0.0,0.0,0.0,0.6269572174168723,-0.15813704344417043,9.848062956555829
2020000000.0,20.7,0.0,0.0,0.0,0.5995870822917708,-0.15696,9.830404721527847
2025000000.0,20.7,0.0,0.0,0.0,0.5890904606668046,-0.15696,9.79234184266722
2030000000.0,20.7,0.0,0.0,0.0,0.6070428788606288,-0.1385171211393712,9.762715681709055
2035000000.0,20.7,0.0,0.0,0.0,0.60822,-0.17383335810973358,9.797443358109733
2040000000.0,20.7,0.0,0.0,0.0,0.5991947603754476,-0.13145380187723804,9.827265718873658
2045000000.0,20.7,0.0,0.0,0.0,0.6073371397216714,-0.15431141916501417,9.82069286027833
2050000000.0,20.7,0.0,0.0,0.0,0.5993909601812096,-0.15696,9.784493840724839
2055000000.0,20.7,0.0,0.0,0.0,0.6071409399159093,-0.17442187983181878,9.78057
2060000000.0,20.7,0.0,0.0,0.0,0.5995871599869715,-0.14204863994788638,9.806468520039086
2065000000.0,20.7,0.0,0.0,0.0,0.59841,-0.1544094802202948,9.835604220330442
2070000000.0,20.7,0.0,0.0,0.0,0.6068466402072664,-0.14008671958546717,9.822556719585467
2075000000.0,20.7,0.0,0.0,0.0,0.6165585403043855,-0.1623556209131562,9.80313291939123
2080000000.0,20.7,0.0,0.0,0.0,0.6097895595984956,-0.15852955959849557,9.775468678795486
2085000000.0,20.7,0.0,0.0,0.0,0.60822,-0.1732446809972468,9.811471702493117
2090000000.0,20.7,0.0,0.0,0.0,0.60822,-0.16049151880851517,9.843942721787228
2095000000.0,20.7,0.0,0.0,0.0,0.6241122813857228,-0.1728522813857228,9.793617015149971
2100000000.0,20.7,0.0,0.0,0.0,0.6042958776300588,-0.15303587763005877,9.78057
2105000000.0,20.7,0.0,0.0,0.0,0.5906600591129006,-0.14715,9.7883199408871
2110000000.0,20.7,0.0,0.0,0.0,0.5962518409842185,-0.14715,9.813335522952656
2115000000.0,20.7,0.0,0.0,0.0,0.6059637410813374,-0.16225748216267483,9.842471223244011
2120000000.0,20.7,0.0,0.0,0.0,0.6007643588215436,-0.15931435882154357,9.797050511750806
2125000000.0,20.7,0.0,0.0,0.0,0.6057675412755754,-0.17167508255115083,9.758497376173274
2130000000.0,20.7,0.0,0.0,0.0,0.6009605586273056,-0.14028279313652792,9.794696648236167
2135000000.0,20.7,0.0,0.0,0.0,0.6055713414698134,-0.16333670734906708,9.831484024409441
2140000000.0,20.7,0.0,0.0,0.0,0.60822,-0.16951675843306757,9.853556483133865
2145000000.0,20.7,0.0,0.0,0.0,0.6012548583359486,-0.15980485833594857,9.817259150015692
2150000000.0,20.7,0.0,0.0,0.0,0.5915429582388296,-0.1638270417611704,9.78645591647766
2155000000.0,20.7,0.0,0.0,0.0,0.6021378837165788,-0.15323211628342118,9.807645767433158
2160000000.0,20.7,0.0,0.0,0.0,0.6015491580445915,-0.1538208419554084,9.833151683910817
2165000000.0,20.7,0.0,0.0,0.0,0.5918372579474726,-0.15696,9.83943
2170000000.0,20.7,0.0,0.0,0.0,0.6015492842992929,-0.16990928429929283,9.813531431401415
2175000000.0,20.7,0.0,0.0,0.0,0.6273496267402963,-0.15745037325970374,9.78743691550647
2180000000.0,20.7,0.0,0.0,0.0,0.6062577882805779,-0.1722637693755377,9.799405327031653
2185000000.0,20.7,0.0,0.0,0.0,0.5947803424410034,-0.16784897267698973,9.816180342441005
2190000000.0,20.7,0.0,0.0,0.0,0.6044922425381224,-0.14479551492375514,9.81981
2195000000.0,20.7,0.0,0.0,0.0,0.6022358573647586,-0.1612765705409657,9.807841714729518
2200000000.0,20.7,0.0,0.0,0.0,0.5925239572676396,-0.17069395726763956,9.80607604273236
2205000000.0,20.7,0.0,0.0,0.0,0.5886,-0.16677,9.81
2210000000.0,20.7,0.0,0.0,0.0,0.5999796858531968,-0.15539031414680315,9.827069528779795
2215000000.0,20.7,0.0,0.0,0.0,0.6138117430237174,-0.14715,9.833838256976282
2220000000.0,20.7,0.0,0.0,0.0,0.6070427137583272,-0.15264364312083642,9.818632713758328
2225000000.0,20.7,0.0,0.0,0.0,0.59841,-0.16235554321795542,9.81
2230000000.0,20.7,0.0,0.0,0.0,0.6037074433150744,-0.16677,9.81
2235000000.0,20.7,0.0,0.0,0.0,0.60822,-0.16677,9.81
2240000000.0,20.7,0.0,0.0,0.0,0.60822,-0.16677,9.81
2245000000.0,20.7,0.0,0.0,0.0,0.60822,-0.16677,9.81
2250000000.0,20.7,0.0,0.0,0.0,0.60822,-0.17658008740710088,9.8198100874071
2255000000.0,20.7,0.0,0.0,0.0,0.60822,-0.18158305619933054,9.815199168597992
2260000000.0,20.7,0.0,0.0,0.0,0.6035111561022115,-0.16245346830663468,9.80019
2265000000.0,20.7,0.0,0.0,0.0,0.6030207439949075,-0.15176074399490744,9.795579256005093
2270000000.0,20.7,0.0,0.0,0.0,0.6037073559079735,-0.15244735590797356,9.80391793227608
2275000000.0,20.7,0.0,0.0,0.0,0.59841,-0.1559790883782909,9.824224544189146
2280000000.0,20.7,0.0,0.0,0.0,0.59841,-0.16677,9.825303555713736
2285000000.0,20.7,0.0,0.0,0.0,0.5899733112332332,-0.16255165561661655,9.80715496684985
2290000000.0,20.7,0.0,0.0,0.0,0.5829102444805024,-0.1487195110389951,9.79038
2295000000.0,20.7,0.0,0.0,0.0,0.5926221445776214,-0.13331785542237856,9.802446433732865
2300000000.0,20.7,0.0,0.0,0.0,0.59841,-0.1353780893494809,9.835506178698962
2305000000.0,20.7,0.0,0.0,0.0,0.6098878343155784,-0.14332405522814054,9.847572165684422
2310000000.0,20.7,0.0,0.0,0.0,0.6203843102620431,-0.14852353460693535,9.810980775655109
2315000000.0,20.7,0.0,0.0,0.0,0.6045902550339025,-0.1595105100678051,9.784199744966099
2320000000.0,20.7,0.0,0.0,0.0,0.6054732901264329,-0.15774493518964935,9.80097493518965
2325000000.0,20.7,0.0,0.0,0.0,0.6145964548396646,-0.17314645483966454,9.836977725801678
2330000000.0,20.7,0.0,0.0,0.0,0.60822,-0.1734408905149089,9.848847328455273
2335000000.0,20.7,0.0,0.0,0.0,0.60822,-0.17344061858170617,9.81
2340000000.0,20.7,0.0,0.0,0.0,0.6050807545483076,-0.15028924545169245,9.806860754548309
2345000000.0,20.7,0.0,0.0,0.0,0.6014511455488114,-0.15391885445118852,9.806272291097624
2350000000.0,20.7,0.0,0.0,0.0,0.60822,-0.15597913693779136,9.828639136937792
2355000000.0,20.7,0.0,0.0,0.0,0.60822,-0.17373505425695054,9.85208494574305
2360000000.0,20.7,0.0,0.0,0.0,0.613713691680337,-0.16677,9.831581541598315
2365000000.0,20.7,0.0,0.0,0.0,0.6278400000000001,-0.16412125406271255,9.763598745937287
2370000000.0,20.7,0.0,0.0,0.0,0.6201880618967807,-0.14930806189678061,9.786063876206438
2375000000.0,20.7,0.0,0.0,0.0,0.6057676383945764,-0.13979273065762732,9.836977638394577
2380000000.0,20.7,0.0,0.0,0.0,0.6184222150854222,-0.1695166613140666,9.85434110754271
2385000000.0,20.7,0.0,0.0,0.0,0.5886,-0.15166269265152693,9.82589192204542
2390000000.0,20.7,0.0,0.0,0.0,0.5907582464228824,-0.16461175357711755,9.776253507154236
2395000000.0,20.7,0.0,0.0,0.0,0.6004701465200014,-0.15696,9.77331087912001
2400000000.0,20.7,0.0,0.0,0.0,0.6042959067657591,-0.15303590676575907,9.825696139851361
2405000000.0,20.7,0.0,0.0,0.0,0.5941918401427184,-0.1429318401427184,9.84551210657152
2410000000.0,20.7,0.0,0.0,0.0,0.6162641531886416,-0.15970661275456613,9.822556612754566
2415000000.0,20.7,0.0,0.0,0.0,0.60822,-0.1325332407254324,9.79038
2420000000.0,20.7,0.0,0.0,0.0,0.6066503529944035,-0.1616689410167894,9.79508894101679
2425000000.0,20.7,0.0,0.0,0.0,0.59841,-0.18197535869185358,9.821281547102716
2430000000.0,20.7,0.0,0.0,0.0,0.6011568943996689,-0.15421310560033105,9.82962
2435000000.0,20.7,0.0,0.0,0.0,0.6167546527030466,-0.13989069459390693,9.82579395810914
2440000000.0,20.7,0.0,0.0,0.0,0.60822,-0.15578275260592753,9.801367247394072
2445000000.0,20.7,0.0,0.0,0.0,0.6103782949823829,-0.14715,9.812158294982384
2450000000.0,20.7,0.0,0.0,0.0,0.6258779048233791,-0.14911209517662097,9.82962
2455000000.0,20.7,0.0,0.0,0.0,0.60822,-0.1676529476854295,9.82873705231457
2460000000.0,20.7,0.0,0.0,0.0,0.6074351522174515,-0.17501030443490304,9.818240304434903
2465000000.0,20.7,0.0,0.0,0.0,0.599783495759335,-0.15833349575933495,9.800876747879668
2470000000.0,20.7,0.0,0.0,0.0,0.6180300000000001,-0.17540270404642702,9.811177295953573
2475000000.0,20.7,0.0,0.0,0.0,0.6180300000000001,-0.15794109614781096,9.830601096147811
2480000000.0,20.7,0.0,0.0,0.0,0.6172451036579512,-0.1761875518289755,9.848062655486926
2485000000.0,20.7,0.0,0.0,0.0,0.5987043482681434,-0.16677,9.818338258659283
2490000000.0,20.7,0.0,0.0,0.0,0.60822,-0.16637750326947504,9.771152496730524
2495000000.0,20.7,0.0,0.0,0.0,0.6081218515376186,-0.1472481484623815,9.790576296924764
2500000000.0,20.7,0.0,0.0,0.0,0.5984099514404995,-0.15696004855950046,9.810000097119001
2505000000.0,20.7,0.0,0.0,0.0,0.5886980513433805,-0.1666719486566195,9.829423897313239
2510000000.0,20.7,0.0,0.0,0.0,0.607827697507477,-0.1571561512462615,9.810392302492524
2515000000.0,20.7,0.0,0.0,0.0,0.6177357488508576,-0.16647574885085747,9.819515748850858
2520000000.0,20.7,0.0,0.0,0.0,0.6086123510520235,-0.13851705315607052,9.81981
2525000000.0,20.7,0.0,0.0,0.0,0.6175395490450956,-0.17461819618038193,9.83844909809019
2530000000.0,20.7,0.0,0.0,0.0,0.5995871017155711,-0.158137101715571,9.793322754288928
2535000000.0,20.7,0.0,0.0,0.0,0.6075333492393334,-0.15696,9.799503349239334
2540000000.0,20.7,0.0,0.0,0.0,0.60822,-0.15696,9.809215249336454
2545000000.0,20.7,0.0,0.0,0.0,0.626074298867143,-0.17481429886714298,9.845708597734285
2550000000.0,20.7,0.0,0.0,0.0,0.610181900938619,-0.16775095046930952,9.83158190093862
2555000000.0,20.7,0.0,0.0,0.0,0.5994890503721905,-0.1755009496278095,9.812158100744382
2560000000.0,20.7,0.0,0.0,0.0,0.5897771502750715,-0.142048601100286,9.775468601100286
2565000000.0,20.7,0.0,0.0,0.0,0.605669499644095,-0.1629442494661425,9.80489899928819
2570000000.0,20.7,0.0,0.0,0.0,0.6166566499191666,-0.1583333500808335,9.826873299838333
2575000000.0,20.7,0.0,0.0,0.0,0.5930143499511435,-0.1652985500162855,9.82962
2580000000.0,20.7,0.0,0.0,0.0,0.6133213503402136,-0.15852954988659548,9.813139099773192
2585000000.0,20.7,0.0,0.0,0.0,0.5936029493684295,-0.15696,9.769288248947381
2590000000.0,20.7,0.0,0.0,0.0,0.5966442503076425,-0.17304850061528498,9.777038500615285
2595000000.0,20.7,0.0,0.0,0.0,0.6063561504047615,-0.16068769919047698,9.820300752023808
2600000000.0,20.7,0.0,0.0,0.0,0.6003719494981195,-0.15696,9.876708303011283
2605000000.0,20.7,0.0,0.0,0.0,0.5906600494010005,-0.1647099505989995,9.841980296406003
2610000000.0,20.7,0.0,0.0,0.0,0.5962518506961185,-0.14381444791164447,9.77605704512717
2615000000.0,20.7,0.0,0.0,0.0,0.5908562492067625,-0.16000125237971252,9.76095
2620000000.0,20.7,0.0,0.0,0.0,0.5960556508903565,-0.16677,9.820595207122851
2625000000.0,20.7,0.0,0.0,0.0,0.6131251019749511,-0.16677,9.861502652962427
2630000000.0,20.7,0.0,0.0,0.0,0.5962516467462164,-0.15225109783081098,9.825303293492434
2635000000.0,20.7,0.0,0.0,0.0,0.5957613511817135,-0.13282729763657297,9.78851594645486
2640000000.0,20.7,0.0,0.0,0.0,0.59841,-0.14871975383649752,9.773506748721168
2645000000.0,20.7,0.0,0.0,0.0,0.6053751513759515,-0.13606454587214545,9.791655454127854
2650000000.0,20.7,0.0,0.0,0.0,0.6150870514730705,-0.16186525736535257,9.827658205892282
2655000000.0,20.7,0.0,0.0,0.0,0.604492096859621,-0.16304209685962096,9.832661048429811
2660000000.0,20.7,0.0,0.0,0.0,0.59841,-0.15696,9.809607444998075
2665000000.0,20.7,0.0,0.0,0.0,0.6115555035288551,-0.14381449647114494,9.80019
2670000000.0,20.7,0.0,0.0,0.0,0.6180300000000001,-0.15676395558463957,9.806664651861547
2675000000.0,20.7,0.0,0.0,0.0,0.6116534480413345,-0.14764034412400343,9.81
2680000000.0,20.7,0.0,0.0,0.0,0.60822,-0.15617535616735356,9.82255690411157
2685000000.0,20.7,0.0,0.0,0.0,0.6020396478470965,-0.16058964784709648,9.835800352152903
2690000000.0,20.7,0.0,0.0,0.0,0.6044922522500226,-0.15087774774997748,9.81510099099991
2695000000.0,20.7,0.0,0.0,0.0,0.6022358476528584,-0.1531341523471415,9.79420584765286
2700000000.0,20.7,0.0,0.0,0.0,0.6042960524442605,-0.15696,9.808038157332781
2705000000.0,20.7,0.0,0.0,0.0,0.60822,-0.13959614237586143,9.848749762706898
2710000000.0,20.7,0.0,0.0,0.0,0.60822,-0.1559792631924926,9.851790442084503
2715000000.0,20.7,0.0,0.0,0.0,0.60822,-0.17658,9.828246494528765
2720000000.0,20.7,0.0,0.0,0.0,0.60822,-0.14911173583631737,9.808822694334527
2725000000.0,20.7,0.0,0.0,0.0,0.6028244470701445,-0.14911221171942213,9.784003341210433
2730000000.0,20.7,0.0,0.0,0.0,0.6037074530269745,-0.16677,9.791949812107898
2735000000.0,20.7,0.0,0.0,0.0,0.60822,-0.16677,9.82559805937228
2740000000.0,20.7,0.0,0.0,0.0,0.60822,-0.16166874677878745,9.829227493557575
2745000000.0,20.7,0.0,0.0,0.0,0.6032168466816684,-0.16196315331833153,9.804800540045006
2750000000.0,20.7,0.0,0.0,0.0,0.6033150534154506,-0.16186494658454947,9.7805698931691
2755000000.0,20.7,0.0,0.0,0.0,0.6034130464874304,-0.1713808605377086,9.785180860537709
2760000000.0,20.7,0.0,0.0,0.0,0.59841,-0.1722634391709344,9.819025414438755
2765000000.0,20.7,0.0,0.0,0.0,0.6076315074136152,-0.16157075370680754,9.83943
2770000000.0,20.7,0.0,0.0,0.0,0.5999793847842939,-0.16225734619607346,9.816866730980367
2775000000.0,20.7,0.0,0.0,0.0,0.5920336617031366,-0.16137455390104552,9.794794553901045
2780000000.0,20.7,0.0,0.0,0.0,0.6039035460018355,-0.16245354600183545,9.80882290799633
2785000000.0,20.7,0.0,0.0,0.0,0.59841,-0.16117835409528353,9.828246708190568
2790000000.0,20.7,0.0,0.0,0.0,0.6025302541924026,-0.15852949161519492,9.82294898323039
2795000000.0,20.7,0.0,0.0,0.0,0.60822,-0.14312784571047846,9.80019
2800000000.0,20.7,0.0,0.0,0.0,0.6042959456133594,-0.14911216315992162,9.811962163159922
2805000000.0,20.7,0.0,0.0,0.0,0.6098878634512787,-0.15529213654872137,9.825794045516242
2810000000.0,20.7,0.0,0.0,0.0,0.620384290838243,-0.15970712748527127,9.830993563742636
2815000000.0,20.7,0.0,0.0,0.0,0.6045902453220025,-0.18531073596600736,9.83472098128801
2820000000.0,20.7,0.0,0.0,0.0,0.59841,-0.15617503567465035,9.795873380899534
2825000000.0,20.7,0.0,0.0,0.0,0.6018435548722355,-0.15107421948894217,9.774193554872236
2830000000.0,20.7,0.0,0.0,0.0,0.60822,-0.16657363509193635,9.800582729816128
2835000000.0,20.7,0.0,0.0,0.0,0.6146947101329471,-0.14715,9.836192644933526
2840000000.0,20.7,0.0,0.0,0.0,0.6121437241820373,-0.1597070206543702,9.823341489672815
2845000000.0,20.7,0.0,0.0,0.0,0.5848723105214231,-0.17726653421786534,9.803917689478578
2850000000.0,20.7,0.0,0.0,0.0,0.6042961107156611,-0.15696,9.79038
2855000000.0,20.7,0.0,0.0,0.0,0.6151850445450505,-0.15980495545494955,9.801759821819799
2860000000.0,20.7,0.0,0.0,0.0,0.6054731444479314,-0.16677,9.826873144447932
2865000000.0,20.7,0.0,0.0,0.0,0.59841,-0.15882373305243733,9.81981
2870000000.0,20.7,0.0,0.0,0.0,0.6009606557463065,-0.13734,9.807056721268467
2875000000.0,20.7,0.0,0.0,0.0,0.6106725558434256,-0.13979255584342556,9.778117667530276
2880000000.0,20.7,0.0,0.0,0.0,0.6227389118810892,-0.15185891188108913,9.809607823762178
2885000000.0,20.7,0.0,0.0,0.0,0.6331372879246729,-0.16451364396233645,9.83943
2890000000.0,20.7,0.0,0.0,0.0,0.6180300000000001,-0.15480174386521742,9.83079697546087
2895000000.0,20.7,0.0,0.0,0.0,0.6159698437680985,-0.15127031246380312,9.798129843768098
2900000000.0,20.7,0.0,0.0,0.0,0.60822,-0.16677,9.792342056329021
2905000000.0,20.7,0.0,0.0,0.0,0.60822,-0.16677,9.811373738556838
2910000000.0,20.7,0.0,0.0,0.0,0.60822,-0.16500414347674144,9.855518286953483
2915000000.0,20.7,0.0,0.0,0.0,0.6065522433796224,-0.15696,9.829423460277734
2920000000.0,20.7,0.0,0.0,0.0,0.59841,-0.15539034328250342,9.777430686565008
2925000000.0,20.7,0.0,0.0,0.0,0.5998815568146155,-0.15009311362923114,9.77125089770231
2930000000.0,20.7,0.0,0.0,0.0,0.6109669138234691,-0.16539654308826543,9.832366913823469
2935000000.0,20.7,0.0,0.0,0.0,0.6240139289734393,-0.15440928598229284,9.84541392897344
2940000000.0,20.7,0.0,0.0,0.0,0.59841,-0.14204902842389028,9.812746457364165
2945000000.0,20.7,0.0,0.0,0.0,0.6005683144061832,-0.17226337118763368,9.763108314406182
2950000000.0,20.7,0.0,0.0,0.0,0.6170489426997895,-0.14028317190063172,9.786456343801264
2955000000.0,20.7,0.0,0.0,0.0,0.6091029573973296,-0.16500408520534085,9.84031295739733
2960000000.0,20.7,0.0,0.0,0.0,0.6172451425055515,-0.1502894299777943,9.848455142505552
2965000000.0,20.7,0.0,0.0,0.0,0.6075332424084324,-0.1836429696337297,9.833935939267459
2970000000.0,20.7,0.0,0.0,0.0,0.59841,-0.14773865768868658,9.762127315377372
2975000000.0,20.7,0.0,0.0,0.0,0.5989005577858055,-0.15597888442838884,9.784494462286446
2980000000.0,20.7,0.0,0.0,0.0,0.60822,-0.13851737364877373,9.859834915765848
2985000000.0,20.7,0.0,0.0,0.0,0.6079256420199564,-0.16647564201995643,9.876609494139695
2990000000.0,20.7,0.0,0.0,0.0,0.5986062580771626,-0.15715625807716258,9.808626193459862
2995000000.0,20.7,0.0,0.0,0.0,0.60822,-0.16667184182571843,9.741624474522844
3000000000.0,20.7,0.0,0.0,0.0,0.60822,-0.15696011654280115,9.770760466171204
3005000000.0,20.7,0.0,0.0,0.0,0.60822,-0.17638391673703915,9.848455666948157
3010000000.0,20.7,0.0,0.0,0.0,0.60822,-0.16696614153436143,9.868467716931278
3015000000.0,20.7,0.0,0.0,0.0,0.5987042414372424,-0.16677,9.811765448623454
3020000000.0,20.7,0.0,0.0,0.0,0.6078276586598765,-0.1573523413401234,9.725241072061111
3025000000.0,20.7,0.0,0.0,0.0,0.5802613237290133,-0.1662795587569956,9.768307793784977
3030000000.0,20.7,0.0,0.0,0.0,0.5972329177082292,-0.13910562343765623,9.816867294270573
3035000000.0,20.7,0.0,0.0,0.0,0.6166567179024672,-0.19208015370740156,9.883673512658635
3040000000.0,20.7,0.0,0.0,0.0,0.5909542228549423,-0.14204844570988445,9.834328445709884
3045000000.0,20.7,0.0,0.0,0.0,0.5975271591454716,-0.17304863658188635,9.758202726836227
3050000000.0,20.7,0.0,0.0,0.0,0.6072390592425906,-0.1589218815148188,9.768798118485181
3055000000.0,20.7,0.0,0.0,0.0,0.60822,-0.17442191867941917,9.823145756038258
3060000000.0,20.7,0.0,0.0,0.0,0.5995871405631714,-0.1679471405631714,9.872784297184143
3065000000.0,20.7,0.0,0.0,0.0,0.6069447595339476,-0.1582352404660524,9.870135240466052
3070000000.0,20.7,0.0,0.0,0.0,0.6166566596310666,-0.1400866807378668,9.792930063320402
3075000000.0,20.7,0.0,0.0,0.0,0.6096914402718144,-0.1456785597281856,9.772231440271813
3080000000.0,20.7,0.0,0.0,0.0,0.6164604598253046,-0.1636309196506092,9.803721839301218
3085000000.0,20.7,0.0,0.0,0.0,0.6098876400775765,-0.1423429202327292,9.834427079767272
3090000000.0,20.7,0.0,0.0,0.0,0.60822,-0.1534285200390852,9.831385739980458
3095000000.0,20.7,0.0,0.0,0.0,0.60822,-0.1649061601166616,9.821673839883339
3100000000.0,20.7,0.0,0.0,0.0,0.60822,-0.15892193978621938,9.772721638717316
3105000000.0,20.7,0.0,0.0,0.0,0.6004700396891004,-0.1492100396891004,9.7764499206218
3110000000.0,20.7,0.0,0.0,0.0,0.6137137208160373,-0.1548018604080186,9.811177441632076
3115000000.0,20.7,0.0,0.0,0.0,0.6104762394948624,-0.15696,9.842471281515413
3120000000.0,20.7,0.0,0.0,0.0,0.6156756606022566,-0.14950433939774338,9.819417357590973
3125000000.0,20.7,0.0,0.0,0.0,0.6106724393006244,-0.16186512139875123,9.817357560699376
3130000000.0,20.7,0.0,0.0,0.0,0.6227389215929893,-0.16677,9.798031617610517
3135000000.0,20.7,0.0,0.0,0.0,0.6135172782127728,-0.1524472782127728,9.797541360893614
3140000000.0,20.7,0.0,0.0,0.0,0.6011567390092674,-0.1542132609907326,9.814316521981466
3145000000.0,20.7,0.0,0.0,0.0,0.59841,-0.14999483891214838,9.81981
3150000000.0,20.7,0.0,0.0,0.0,0.59841,-0.13341587763005877,9.840411183554911
3155000000.0,20.7,0.0,0.0,0.0,0.59841,-0.16137480641044805,9.815395193589552
3160000000.0,20.7,0.0,0.0,0.0,0.5783974158623741,-0.15656741586237416,9.780177415862374
3165000000.0,20.7,0.0,0.0,0.0,0.5886982844289829,-0.16029552295265523,9.797051045905311
3170000000.0,20.7,0.0,0.0,0.0,0.6048846615734466,-0.15382067685310677,9.842373307867232
3175000000.0,20.7,0.0,0.0,0.0,0.60822,-0.15990312334113124,9.852673438329434
3180000000.0,20.7,0.0,0.0,0.0,0.6019415382323153,-0.16677,9.836683076464631
3185000000.0,20.7,0.0,0.0,0.0,0.6045903618648036,-0.17295036186480361,9.786357466946374
3190000000.0,20.7,0.0,0.0,0.0,0.6143022619619226,-0.15833321411423212,9.779196785885768
3195000000.0,20.7,0.0,0.0,0.0,0.6240141620590417,-0.16510248617712486,9.814316648236167
3200000000.0,20.7,0.0,0.0,0.0,0.6219539378438395,-0.16480787568767874,9.847278186468483
3205000000.0,20.7,0.0,0.0,0.0,0.6064540754934408,-0.15117203774672036,9.847474075493441
3210000000.0,20.7,0.0,0.0,0.0,0.59841,-0.14715,9.80529082589761
3215000000.0,20.7,0.0,0.0,0.0,0.6095935248950353,-0.16392528734255288,9.774978237552482
3220000000.0,20.7,0.0,0.0,0.0,0.6125363374553634,-0.16009901236609012,9.792734650178547
3225000000.0,20.7,0.0,0.0,0.0,0.6028244373582443,-0.15794112528351126,9.842373375850533
3230000000.0,20.7,0.0,0.0,0.0,0.6037074627388747,-0.16147253726112537,9.837075223566753
3235000000.0,20.7,0.0,0.0,0.0,0.60822,-0.15696,9.79440191149202
3240000000.0,20.7,0.0,0.0,0.0,0.6133212629331126,-0.16716252586622524,9.775468737066888
3245000000.0,20.7,0.0,0.0,0.0,0.6180300000000001,-0.16657367393953673,9.785769489090695
3250000000.0,20.7,0.0,0.0,0.0,0.6082198737452987,-0.16186506312735063,9.824715315636753
3255000000.0,20.7,0.0,0.0,0.0,0.6032169632244696,-0.16677,9.839626073551061
3260000000.0,20.7,0.0,0.0,0.0,0.6129288633215887,-0.16206113667841135,9.820202273356823
3265000000.0,20.7,0.0,0.0,0.0,0.6180300000000001,-0.15696,9.786946182906462
3270000000.0,20.7,0.0,0.0,0.0,0.6135173364841734,-0.16147266351582662,9.783513317579134
3275000000.0,20.7,0.0,0.0,0.0,0.60822,-0.17118456361294562,9.818829127225891
3280000000.0,20.7,0.0,0.0,0.0,0.6125364637100646,-0.1679470725798707,9.842569391130194
3285000000.0,20.7,0.0,0.0,0.0,0.5969381809640819,-0.16117836380718364,9.837958180964081
3290000000.0,20.7,0.0,0.0,0.0,0.5854610556172106,-0.16264973609569736,9.801759472191396
3295000000.0,20.7,0.0,0.0,0.0,0.6122421640014216,-0.16500432800284326,9.794402164001422
3300000000.0,20.7,0.0,0.0,0.0,0.6101818718029187,-0.16088374360583743,9.804114064098542
3305000000.0,20.7,0.0,0.0,0.0,0.59841,-0.14499192839131927,9.81
3310000000.0,20.7,0.0,0.0,0.0,0.5946821357072214,-0.15696,9.821183592878336
3315000000.0,20.7,0.0,0.0,0.0,0.5958595287797953,-0.15696,9.828540706830307
3320000000.0,20.7,0.0,0.0,0.0,0.60822,-0.15696,9.795873342051934
3325000000.0,20.7,0.0,0.0,0.0,0.60822,-0.15696,9.777627129168271
3330000000.0,20.7,0.0,0.0,0.0,0.6048845353187453,-0.16363092936250928,9.79705092936251
3335000000.0,20.7,0.0,0.0,0.0,0.6016473647783737,-0.16039317610813175,9.819712094335122
3340000000.0,20.7,0.0,0.0,0.0,0.6050807351245073,-0.1338085297509853,9.845708529750985
3345000000.0,20.7,0.0,0.0,0.0,0.6044923299452233,-0.15019116497261165,9.856008835027389
3350000000.0,20.7,0.0,0.0,0.0,0.6121438698605387,-0.16284613013946128,9.834524674651346
3355000000.0,20.7,0.0,0.0,0.0,0.6040999303336994,-0.17658,9.791655104499451
3360000000.0,20.7,0.0,0.0,0.0,0.6152831347360314,-0.17658,9.787241191583812
3365000000.0,20.7,0.0,0.0,0.0,0.60822,-0.16863370391673704,9.834917530722176
3370000000.0,20.7,0.0,0.0,0.0,0.6056693345417933,-0.15735266183282662,9.846689334541793
3375000000.0,20.7,0.0,0.0,0.0,0.59841,-0.17903230333402304,9.824714606668046
3380000000.0,20.7,0.0,0.0,0.0,0.5960555343475553,-0.15696,9.782924465652446
3385000000.0,20.7,0.0,0.0,0.0,0.5908563657495637,-0.15921636574956366,9.799405462998255
3390000000.0,20.7,0.0,0.0,0.0,0.6005682658466827,-0.16461173415331734,9.836094797540047
3395000000.0,20.7,0.0,0.0,0.0,0.60822,-0.15902016594380164,9.854929668112396
3400000000.0,20.7,0.0,0.0,0.0,0.6042958679181587,-0.16480793395907933,9.823733471672634
3405000000.0,20.7,0.0,0.0,0.0,0.5923279322760794,-0.15882396613803965,9.76467793227608
3410000000.0,20.7,0.0,0.0,0.0,0.60822,-0.16677,9.789399331175794
3415000000.0,20.7,0.0,0.0,0.0,0.6098877663322777,-0.16343446733544467,9.83629106532911
3420000000.0,20.7,0.0,0.0,0.0,0.6164603335706034,-0.15028933285879334,9.864151000711809
3425000000.0,20.7,0.0,0.0,0.0,0.60822,-0.16529843347348433,9.82912903431439
3430000000.0,20.7,0.0,0.0,0.0,0.6068465333763653,-0.15421306675273067,9.766639600129094
3435000000.0,20.7,0.0,0.0,0.0,0.6009607334415074,-0.13989073344150732,9.747706833603768
3440000000.0,20.7,0.0,0.0,0.0,0.6156754663642547,-0.15696,9.802152668178728
3445000000.0,20.7,0.0,0.0,0.0,0.6005683338299833,-0.15803916691499165,9.887400833085009
3450000000.0,20.7,0.0,0.0,0.0,0.6160678659757788,-0.16578893298788933,9.868859329878893
3455000000.0,20.7,0.0,0.0,0.0,0.5992929671092296,-0.15519406578154066,9.779687032890772
3460000000.0,20.7,0.0,0.0,0.0,0.60822,-0.13890973441269733,9.771544867206348
3465000000.0,20.7,0.0,0.0,0.0,0.6095935346069353,-0.15696,9.788811207641613
3470000000.0,20.7,0.0,0.0,0.0,0.6272513325994133,-0.15578266519882664,9.896523997798239
3475000000.0,20.7,0.0,0.0,0.0,0.6170488650045888,-0.13783056749770567,9.865916595013767
3480000000.0,20.7,0.0,0.0,0.0,0.5988024675948247,-0.14754246759482467,9.808037662025876
3485000000.0,20.7,0.0,0.0,0.0,0.6079256323080563,-0.15754873538388733,9.761538735383887
3490000000.0,20.7,0.0,0.0,0.0,0.59841,-0.17599119663281196,9.78194387452344
3495000000.0,20.7,0.0,0.0,0.0,0.5986063357723633,-0.14715,9.84933816788618
3500000000.0,20.7,0.0,0.0,0.0,0.618029796050098,-0.14715,9.859049592100195
3505000000.0,20.7,0.0,0.0,0.0,0.588894095758741,-0.14715,9.800778191517482
3510000000.0,20.7,0.0,0.0,0.0,0.5886,-0.15676386817753868,9.713665186402151
3515000000.0,20.7,0.0,0.0,0.0,0.5981157682746577,-0.13792846345068463,9.788026146197263
3520000000.0,20.7,0.0,0.0,0.0,0.6078276683717767,-0.13734,9.912809688833097
3525000000.0,20.7,0.0,0.0,0.0,0.60822,-0.15597913693779136,9.861992589186626
3530000000.0,20.7,0.0,0.0,0.0,0.60822,-0.16618146856601468,9.748392377207823
3535000000.0,20.7,0.0,0.0,0.0,0.5990966313368663,-0.16677,9.732206631336865
3540000000.0,20.7,0.0,0.0,0.0,0.5893847312397473,-0.17579526876025267,9.785671612561517
3545000000.0,20.7,0.0,0.0,0.0,0.6064543377147433,-0.1587256622852566,9.879651688573716
3550000000.0,20.7,0.0,0.0,0.0,0.60822,-0.1481309310455093,9.88848
3555000000.0,20.7,0.0,0.0,0.0,0.60822,-0.15588096905160967,9.818632247587123
3560000000.0,20.7,0.0,0.0,0.0,0.5995871308512714,-0.1483271308512713,9.749569915958899
3565000000.0,20.7,0.0,0.0,0.0,0.6069447692458477,-0.15568476924584768,9.792538615475086
3570000000.0,20.7,0.0,0.0,0.0,0.5913466613140667,-0.15696,9.817063338685934
3575000000.0,20.7,0.0,0.0,0.0,0.6052771388801714,-0.1652985694400857,9.844825708320258
3580000000.0,20.7,0.0,0.0,0.0,0.60822,-0.1502890609255906,9.840999530462796
3585000000.0,20.7,0.0,0.0,0.0,0.6163623696343238,-0.1390076303656763,9.782433412559733
3590000000.0,20.7,0.0,0.0,0.0,0.6099857302685573,-0.1453842697314427,9.80293707892577
3595000000.0,20.7,0.0,0.0,0.0,0.5843814905143149,-0.1630423396571234,9.802053830171438
3600000000.0,20.7,-0.0034069130552180395,0.04346606697087664,0.0,0.6023342097770421,-0.1589219300743193,9.768797720297277
3605000000.0,20.7,-0.0042586033748661,0.06778940786910184,0.0,0.45322059954400595,-0.048460419680804195,9.923699370478793
3610000000.0,20.7,-0.0017672975708352815,0.1195589860444807,0.009965223216123273,0.38906438964024387,-0.08848683107926832,9.775663247002033
3615000000.0,20.7,0.004673870547075531,0.12905222478408163,0.0012987673430143384,0.1408693530547935,-0.07014114891481149,9.328913948714039
3620000000.0,20.7,-0.012235631826082914,0.11245421124396002,0.007580405579159349,0.16559371408403717,-0.04394865937168659,9.763309603247595
3625000000.0,20.7,-0.014110948669445532,0.10039999632191923,0.00346004646829516,0.12262429588724297,-0.046597570411275706,10.084681408225514
3630000000.0,20.7,-0.025394314109255613,0.021540111000842216,0.0026403493965600957,0.14165682305036822,-0.10712576406715765,10.16276788203358
3635000000.0,20.7,-0.02205564913133632,-0.03488244186083238,0.0008623441955756097,0.15696,-0.23495055908270557,9.929483399412534
3640000000.0,20.7,-0.029146400127575762,-0.13325257484200642,-0.00996523164815809,0.18521308281053084,-0.3665025191342252,9.747607480865774
3645000000.0,20.7,-0.02243889248950673,-0.19523595614329362,-0.0025018142273587046,0.4330158071915581,-0.4300706831990068,9.593492096404221
3650000000.0,20.7,-0.007670614217135961,-0.24021350197704605,-0.010552391585631963,0.6258789925561901,-0.4551841417937414,9.84041404856544
3655000000.0,20.7,0.015183510040401381,-0.24136807582356157,-0.010098238754632036,0.8972250137956502,-0.4813769129819691,10.142953245843733
3660000000.0,20.7,0.028507563877557224,-0.19268947901742245,-0.006004615327937638,1.073999582002196,-0.39710780472447804,10.081931707086717
3665000000.0,20.7,0.04588382120692195,-0.13332196025910936,-0.004609930427440723,1.10853,-0.33344168643531685,9.661080355835702
3670000000.0,20.7,0.06591564004927356,-0.05141461644929325,0.001362814971092338,1.1409033564267337,-0.18128723172237232,9.415048615861187
3675000000.0,20.7,0.08074687826907381,-0.003253115419283862,-0.000585612192567698,1.0810611434104114,0.05150428456164283,9.416619428294794
3680000000.0,20.7,0.08249889018508079,0.03260096658537441,0.0036198904433560443,0.995910699642907,0.181289300357093,9.807649817295498
3685000000.0,20.7,0.0635156455099952,0.04323803425377805,0.002757391309141608,0.9093862842329629,0.21837074315340743,9.997468885269889
3690000000.0,20.7,0.03477407115561011,0.0312329071305599,0.0013201826033126043,0.9095836300429363,0.2621236300429363,10.083896346781165
3695000000.0,20.7,4.911228282527061e-05,0.035960190401864156,-0.001117922331362964,0.8840766258324662,0.23661662583246626,9.9281098162461
3700000000.0,20.7,-0.02258116358575133,0.030466319229801957,-0.0019163559194254217,0.85347,0.15892142505551426,9.584367484617875
3705000000.0,20.7,-0.03712065234862442,0.06196928005360461,0.003332411812038181,0.8476820280348203,0.052286364452663645,9.562789439303595
3710000000.0,20.7,-0.05108832464358212,0.08639550419941,-0.001022158658514823,0.7753815352524154,-0.05120884856068848,9.654609744124597
3715000000.0,20.7,-0.057675118926357946,0.10783721871094207,0.0033218359324322533,0.72594,-0.1162488607970886,9.780277215347772
3720000000.0,20.7,-0.06455282613218555,0.14359475612920458,0.004684385294429447,0.6490285884084859,-0.19777039482190395,9.923796722565367
3725000000.0,20.7,-0.06865164561023855,0.15707002551627125,0.0029278290818823666,0.5184575594024756,-0.2992057235365572,9.977751144707312
3730000000.0,20.7,-0.0664478026274604,0.17327302563169272,0.008197850810979457,0.3763104407876044,-0.36983736225387365,9.923010330590703
3735000000.0,20.7,-0.055950242922433155,0.16546737787241594,0.0050037802313431055,0.22092003923370038,-0.42359623528736234,9.759673176494232
3740000000.0,20.7,-0.03852347122528184,0.13763096137013367,0.0038753842587957114,0.1267449094199491,-0.4257536367749364,9.647546182064962
3745000000.0,20.7,-0.021674078236160157,0.10985806127773916,0.0036516971324998416,0.06788461806294618,-0.3922036545157365,9.843553255169532
3750000000.0,20.7,-0.002661461103606882,0.06551056167789385,0.0021293333075634246,0.034335072839250726,-0.35806463580374637,10.074870437035504
3755000000.0,20.7,0.01164732772369473,0.028997075115886173,0.0021718560588911626,-0.0040227564273275715,-0.29508421650904215,10.032195405954454
3760000000.0,20.7,0.01849077184005372,-0.006983784190248237,-0.0010220806621932012,-0.04905,-0.24564225393302255,9.81117493596185
3765000000.0,20.7,0.023876302510165783,-0.05254519212010654,0.0003726674785644421,-0.002942268693922688,-0.20777536121635362,9.639207680608177
3770000000.0,20.7,0.03046654689474066,-0.0961254056881843,-0.0007240261512693981,0.10320207873272078,-0.15852930708909305,9.745452177148621
3775000000.0,20.7,0.0362155819788823,-0.14253615442377382,-0.003885951706366902,0.22857402654784026,-0.12851085335030854,10.016502626420525
3780000000.0,20.7,0.03340485594183348,-0.1758148224944632,-0.0035346647059574313,0.38612299501732994,-0.12203647342196473,10.060741691028916
3785000000.0,20.7,0.030285484758194037,-0.19589105196543474,-0.008070101268248742,0.553775602786256,-0.1401851205572512,9.841979276656492
3790000000.0,20.7,0.03044516641658569,-0.20449245313523146,-0.008581029874884676,0.7118149250916493,-0.14871945276759452,9.683646169373162
3795000000.0,20.7,0.03070070660821654,-0.19052770046686918,-0.0033855736832325593,0.8785847794131478,-0.14940652113996522,9.628123042279931
3800000000.0,20.7,0.02897590016857858,-0.1666088579093371,-0.0017034333395133717,1.0222029595357296,-0.15892185237911852,9.757027771450577
3805000000.0,20.7,0.026165310098090408,-0.12742684967595497,-0.0018950945437615524,1.1178498695377987,-0.13184610436976105,9.879160130462202
3810000000.0,20.7,0.02957217677711731,-0.08393989271907684,-0.0019802264747734066,1.1664093700233937,-0.08181488196724881,9.811961259953213
3815000000.0,20.7,0.029316612343386474,-0.03624097831726735,0.0003939288542282636,1.1895604517964045,-0.024720903592809033,9.743880451796404
3820000000.0,20.7,0.023567465534784157,0.013804448145238544,0.0010646508437165,1.1560099548064995,0.007063348397833484,9.696203258010833
3825000000.0,20.7,0.01214823511619205,0.05363517143123979,0.001809922560584576,1.1046057028158571,0.026487148592071484,9.698657911624679
3830000000.0,20.7,-0.0036412108432633226,0.09108614310896831,0.002469973810075768,1.029067884102679,0.035904525606845254,9.799797153641071
3835000000.0,20.7,-0.015943655607416216,0.11428568503140356,0.003524050882195041,0.90605100407781,0.022955251019452512,9.780374246941642
3840000000.0,20.7,-0.025441388293251297,0.12842418364657293,0.006813724926018956,0.8063808811891088,0.006670725412607253,9.835506372936964
3845000000.0,20.7,-0.03591757700616267,0.13256557014413617,0.0025338527974585,0.6789494278393943,-0.024329397476093976,9.877983524053535
3850000000.0,20.7,-0.04537683158731388,0.1288925652597812,0.0017034575816133558,0.5797700278388004,-0.09908152347141523,9.8600300278388
3855000000.0,20.7,-0.04904084180592673,0.1211685818954486,0.0022676819179956974,0.4648952260912523,-0.17844472366624725,9.779294924636249
3860000000.0,20.7,-0.0543320996145834,0.09808529565018916,0.0017886622389250743,0.39396937507239377,-0.2742881248310813,9.780961875168918
3865000000.0,20.7,-0.05318224411355518,0.08246213066040091,0.004663121810756857,0.3701312249270122,-0.3396226504379265,9.76595407594884
3870000000.0,20.7,-0.04619351496688537,0.06203542162546385,0.0005536347547198532,0.35021662414946625,-0.392792700680427,9.904962153061922
3875000000.0,20.7,-0.030626026184297862,0.03541690596982026,0.0018631308079701948,0.3188251505344515,-0.4267351505344515,9.998841370991613
3880000000.0,20.7,-0.013214812144211226,0.012192714617948467,4.255331745374176e-05,0.3288310492713105,-0.4273231478139315,9.855517344899173
3885000000.0,20.7,0.002857409686516171,-0.009075036130730858,-0.002949074647481015,0.3184327509229275,-0.3713081226926812,9.724063494462435
3890000000.0,20.7,0.019734918120611202,-0.02969995161595231,-0.0018950703016615594,0.35512275558582757,-0.31195724441417244,9.683060337847403
3895000000.0,20.7,0.03369238411135568,-0.03346879922348134,-0.000841065955842181,0.42957982434429826,-0.21483824344298244,9.900253513114034
3900000000.0,20.7,0.03600264358890508,-0.03344742401534806,0.0004258767799543948,0.429678303011283,-0.12949169698871696,10.02778093946051
3905000000.0,20.7,0.0353532230272458,-0.026431432493353325,0.0015224260111927723,0.45361409660024093,-0.08691614490036145,9.878766507151264
3910000000.0,20.7,0.03525735500796749,-0.02537742814753393,-0.0006813600553505913,0.4165323721588237,-0.0304106202647062,9.671284853217648
3915000000.0,20.7,0.03053032996772792,-0.023961426009142785,0.0012456497400023328,0.40740998439759984,0.018148880220888803,9.521293296927732
3920000000.0,20.7,0.0265456522315445,-0.022843641752349167,0.0017885968906555774,0.48382935228259355,0.05415097157610972,9.747218664945386
3925000000.0,20.7,0.012030405603182796,-0.03185056316324917,0.0,0.5076678811920788,0.02354369504633695,10.03857315247683
3930000000.0,20.7,-0.005900700400169157,-0.03802552983557117,-0.00044717820778341835,0.5507334763355348,-0.02217128701981287,10.018166138940561
3935000000.0,20.7,-0.01681769337645212,-0.0432978206286797,-0.002778713817057547,0.5642715057306151,-0.10447688216326882,9.766147847779578
3940000000.0,20.7,-0.022119588196966838,-0.04768866173868374,-0.00012776640680022507,0.6019418295893183,-0.15539093570840937,9.607521829589318
3945000000.0,20.7,-0.02048005914094042,-0.04546161313963517,-0.0010646508437165,0.6364734130151342,-0.2190575298806753,9.661478592299185
3950000000.0,20.7,-0.021842753955537367,-0.04217759339715756,-0.0008517040217045361,0.7141686137920861,-0.24917430689604306,9.894366460344065
3955000000.0,20.7,-0.01618785364100303,-0.038249056753206535,0.0010646508437165,0.7839170231788702,-0.28449,9.94292511589435
3960000000.0,20.7,-0.006941473414745251,-0.03642842867048138,0.0006387487676577975,0.7749900000000001,-0.2868446307547463,9.889656353899262
3965000000.0,20.7,-0.0004683795051995471,-0.02678279222006264,-0.003960467705607623,0.7777371080614711,-0.30979933790779335,9.79038
3970000000.0,20.7,0.007964702596100237,-0.027612005188606983,0.0,0.8148186771124869,-0.25211661443756617,9.79038
3975000000.0,20.7,0.016040456869788382,-0.009155930221285791,-0.00021296368608150204,0.8230588455807886,-0.2045382683711827,9.791361154419212
3980000000.0,20.7,0.01739262218097063,-0.000596112183860704,-0.004045631256749832,0.8040275226932753,-0.17422513615965135,9.807252658852928
3985000000.0,20.7,0.025505177690264638,0.011094303133818567,0.0010327029179903688,0.7934324903846249,-0.11595373557693736,9.741624377403843
3990000000.0,20.7,0.02333326471513875,0.025824690675665028,2.1301427829009637e-05,0.7545848899961489,-0.05768233499422335,9.752906497508665
3995000000.0,20.7,0.018031103525263503,0.038430297776753,0.0010753057736483881,0.7160318224019183,-0.00019635519616355195,9.840215420784654
4000000000.0,20.7,0.009581773273101134,0.046879569004671905,0.0021292848233634668,0.7063191453527914,-0.01962,9.917909300743192
4005000000.0,20.7,-0.0009582701850929468,0.05004158204213023,2.1276131724709893e-05,0.5994882442844824,-0.01962,9.830502199869123
4010000000.0,20.7,-0.00836821480341596,0.054246961359545494,0.002086732559914047,0.5503406105528061,-0.029233877889438778,9.666184075879542
4015000000.0,20.7,-0.011615366095912103,0.0574302589607632,0.002129301687433,0.5208126660403267,-0.05797733395967334,9.672365777986558
4020000000.0,20.7,-0.020926574138087642,0.05650397886157022,0.002129301687433,0.48225928766529286,-0.09653071233470713,9.889266595924566
4025000000.0,20.7,-0.0283904576707106,0.05443854772948509,0.004152155259964412,0.45273126545761266,-0.12605873454238736,9.907609578180795
4030000000.0,20.7,-0.03476770780307791,0.04732663759600336,0.0002554822213918567,0.4235955651662556,-0.1920803479454035,9.861992608610425
4035000000.0,20.7,-0.036141064925637206,0.0310211713595412,0.0,0.3762131081248311,-0.24181689187516892,9.731322702749527
4040000000.0,20.7,-0.024461734467990312,0.013160335774088667,0.0009794872925742942,0.37278,-0.2994016708329167,9.75781111388861
4045000000.0,20.7,-0.014704322066210605,-0.007665656612662192,-0.0008730307456378454,0.3995615357078154,-0.31303717856927177,9.939493571385436
4050000000.0,20.7,-0.010007683781194616,-0.026845063038716303,-0.0010646508437165,0.46401355066473554,-0.31392,9.992466314665563
4055000000.0,20.7,-0.00010637960461923682,-0.04488687222435038,-0.0020121986425994296,0.4883419575270196,-0.31392,9.865425318547354
4060000000.0,20.7,0.00762295995061742,-0.06093306322335533,-0.003066202988418896,0.5422972731637727,-0.3052871211393712,9.719746817090568
4065000000.0,20.7,0.015942429679410768,-0.07025934478902555,-0.0004151881218834538,0.6091034527042346,-0.26997088416900883,9.685020442084504
4070000000.0,20.7,0.02620794984390059,-0.07228212141923966,0.0,0.6602133952743341,-0.21424992567079926,9.86807693920707
4075000000.0,20.7,0.031318222458327855,-0.06790635492129221,0.0,0.7254500540639006,-0.16431710424007104,9.990014370671846
4080000000.0,20.7,0.03463992453220815,-0.05369318009822157,-0.0008943153093973219,0.73575,-0.12399808300358084,9.866111852765219
4085000000.0,20.7,0.0351509311351657,-0.0414033037829722,-0.0010646508437165,0.73575,-0.07700810326888102,9.725436689152867
4090000000.0,20.7,0.031658841880753304,-0.022822110551572745,0.0006813937834896577,0.7598828383300285,-0.028448602783286023,9.66991288222663
4095000000.0,20.7,0.022268569603239703,-0.0036442664882556427,0.0002022750280105427,0.7810723590809237,0.012164718161847186,9.750257974945079
4100000000.0,20.7,0.00830764609810827,0.014493361178452518,0.0008517293178088357,0.7534076814496768,0.01962,9.857088876013389
4105000000.0,20.7,-0.0014054083407112504,0.034938174033936016,0.0010646508437165,0.706810101326501,0.004120040530600404,9.832170121591801
4110000000.0,20.7,-0.009837443107266575,0.04938838408440433,0.00023421452170190732,0.6735543605045436,-0.015303759663637596,9.743291201681812
4115000000.0,20.7,-0.017463127227148947,0.05712153687185536,0.0,0.6217573204263732,-0.0422813397868134,9.699048660213187
4120000000.0,20.7,-0.02241774178429915,0.06020898964189037,0.0024274299786611244,0.5783972798957728,-0.09378408015634081,9.804115200390852
4125000000.0,20.7,-0.02743225599590009,0.05912301102023617,0.0015969588745030688,0.5248345192609453,-0.1373403204927032,9.898290640985406
4130000000.0,20.7,-0.03742937970755404,0.04913649902433596,0.0002768005132903935,0.51012,-0.19796636154206362,9.838055717576758
4135000000.0,20.7,-0.0381425738561614,0.03414409433048095,0.0,0.4886358590477586,-0.26594966222189664,9.81
4140000000.0,20.7,-0.033447446149439335,0.013717406375630764,0.0,0.48069,-0.32686968248719683,9.845316402072664
4145000000.0,20.7,-0.020618316052994544,-0.000862463298066672,0.0015118216734694837,0.4876551805116518,-0.3503151805116518,9.85905
4150000000.0,20.7,-0.00703182643403857,-0.016195050244446153,-0.0008517556679174814,0.4905,-0.3462929193912292,9.852182919391229
4155000000.0,20.7,0.0034176080373150963,-0.027922030735315465,-0.0006600660055520024,0.5378828649412287,-0.31627407717644074,9.788319173646991
4160000000.0,20.7,0.011455704463603045,-0.03451218447551662,-0.0021719140291301996,0.592524404015044,-0.2774264767879648,9.787633523212035
4165000000.0,20.7,0.018845428734259394,-0.03407560744344347,-0.0010539779957107662,0.60822,-0.22543331459923316,9.879063370801534
4170000000.0,20.7,0.025526540250345703,-0.025292167627991895,0.0007026783472491342,0.6276440429917405,-0.16716191401651914,9.930859361994493
4175000000.0,20.7,0.030466502626558114,-0.015070838738266748,0.0010646508437165,0.6312734189056343,-0.10889051343380513,9.829128121395781
4180000000.0,20.7,0.03127559325256121,-0.004897305766332734,0.0010646508437165,0.6090045564255456,-0.06317607523406076,9.682861263319213
4185000000.0,20.7,0.026867894638952797,0.004971998838303615,0.0017353896972742695,0.5922296187113962,-0.005787330979773304,9.651961143865812
4190000000.0,20.7,0.018552770310895875,0.013148674425515369,0.002129301687433,0.5946822813857228,0.013537718614277185,9.802742471871625
4195000000.0,20.7,0.006462315661105351,0.023131120383667096,0.00018096411414242081,0.5864416370343164,0.027762544448525443,10.002179448173994
4200000000.0,20.7,-0.006600941474680598,0.03153117138834855,-0.00042585148385009507,0.5434735105202351,-0.0019625710597257137,9.963034449980745
4205000000.0,20.7,-0.015490374040598888,0.029061057395694756,0.0,0.4852021099375211,-0.06994587173955873,9.709052568010526
4210000000.0,20.7,-0.021204049456062028,0.014443835933268825,0.0012350127281443237,0.4667598817741988,-0.11516964532259646,9.601439645322596
4215000000.0,20.7,-0.02465349158663394,-0.005142432395026963,0.0009155819550829194,0.4932471274852713,-0.1554889093565891,9.775961674268217
4220000000.0,20.7,-0.02795392701482863,-0.023389648850405967,-0.0005962133682779187,0.5485757737790578,-0.21503577377905775,10.019151003305609
4225000000.0,20.7,-0.026899842564678905,-0.039099863402522556,-0.0010646508437165,0.5949767461966675,-0.304601402721114,10.043967433147774
4230000000.0,20.7,-0.02105490046309814,-0.05156409658968807,-0.0022144915886839053,0.6241124464880244,-0.36375496432534965,9.817060570794405
4235000000.0,20.7,-0.011335980749275545,-0.0615398661732957,-0.0031939525311496,0.6792450580783507,-0.3675806177402062,9.625865559661856
4240000000.0,20.7,0.002427529055069616,-0.06770414102553375,-0.004301207284528517,0.7569402588553026,-0.33236230585852305,9.681294364781342
4245000000.0,20.7,0.016106529464838655,-0.06380740263869168,-0.0036943115822056652,0.824629094724191,-0.2790940877298409,9.920855473620955
4250000000.0,20.7,0.027698464819519396,-0.048467622959311195,-0.0015969673065378105,0.8730903302046032,-0.22562950469309506,10.035629504693096
4255000000.0,20.7,0.03563006886272314,-0.026337510096982354,-0.0010646508437165,0.8782890520551906,-0.16735810411038105,9.861990520551906
4260000000.0,20.7,0.03732280089611346,-0.004130674651396684,-0.0005536094586155536,0.8303178207822782,-0.09496005529150056,9.627140110583001
4265000000.0,20.7,0.034214002430066906,0.017404795775655943,0.0005003948872038249,0.7761668686299688,-0.02138530294495303,9.572206262740062
4270000000.0,20.7,0.027059494710948883,0.0406101701434507,0.0015543992330232033,0.7418319511811196,0.036886097637760976,9.749180488188804
4275000000.0,20.7,0.016032495231977726,0.0628494865990589,0.0026084035788426266,0.7215254169632542,0.0819137491102375,9.956660413404203
4280000000.0,20.7,0.004428848264811606,0.08206343153801231,0.0031939525311496,0.6686486855274869,0.09378351686613517,9.921047371054973
4285000000.0,20.7,-0.00808832239429519,0.09344356801964374,0.0036517614267649384,0.557599401228194,0.062979700614097,9.720040718611306
4290000000.0,20.7,-0.022247489516323292,0.09363512382345733,0.0038114409771478827,0.45753773337517734,0.008828583359485838,9.64264198329672
4295000000.0,20.7,-0.03744722225597399,0.0844293029976125,0.0031939525311496,0.3959312662991127,-0.04777528397655284,9.76693585192966
4300000000.0,20.7,-0.0481571519143396,0.06668185904851048,0.004045691334997588,0.36493183295531834,-0.13537900226809002,9.93949308579043
4305000000.0,20.7,-0.05214961075985164,0.043295292141369165,0.0032471396984483595,0.3340300819027008,-0.2595737706724377,9.962446229327561
4310000000.0,20.7,-0.05134435399690203,0.015959027051286875,-0.0008091528122594619,0.31902153486631535,-0.3731730697326307,9.830207511684474
4315000000.0,20.7,-0.038429910196892625,-0.012654728196080656,-0.001341441870967781,0.35786913525479136,-0.4327193514410935,9.747510216186301
4320000000.0,20.7,-0.021942840739521782,-0.03643497761417223,-0.0007665668206709757,0.4002484195540842,-0.4406649482675495,9.801368626483885
4325000000.0,20.7,-0.0068668794191829976,-0.05491777610141623,-0.002129301687433,0.46597584007935844,-0.42183,9.932135088055551
4330000000.0,20.7,0.007927082589183981,-0.06499992845165606,-0.002129301687433,0.549752904630329,-0.3984816112646161,9.930073222529233
4335000000.0,20.7,0.023397295479147245,-0.06464850232267294,-0.0028319895207212795,0.5950747684043477,-0.3240235421804354,9.81353092638261
4340000000.0,20.7,0.03570465021023328,-0.05829256415817806,-0.002895813699878061,0.6239164214964642,-0.24603429420424294,9.754671431401414
4345000000.0,20.7,0.045983905001680946,-0.05143072873726766,0.0,0.6603111843964119,-0.1725569716394697,9.75957710637847
4350000000.0,20.7,0.05049933823752825,-0.03685420742803163,0.0003194044229527586,0.6729661689870619,-0.06866915506469155,9.803133084493531
4355000000.0,20.7,0.04715123624033802,-0.017877067597953333,0.0007558929186608629,0.6838550154093502,0.017069907543899074,9.80715501540935
4360000000.0,20.7,0.039026149915279175,0.0008092908868288324,0.00029811142715851553,0.6686493459366936,0.06984753875107538,9.791949345936693
4365000000.0,20.7,0.025510990437837982,0.016144892942230205,0.0016395807022393152,0.6342160760755607,0.10339756956977571,9.773408784784888
4370000000.0,20.7,0.009134547635122212,0.022928757873295843,0.0031939525311496,0.5933086302359863,0.1075172604719726,9.788222054646022
4375000000.0,20.7,-0.007989373917725487,0.023173563030664496,0.0021292647972809713,0.5738848300417483,0.0588593201669932,9.81
4380000000.0,20.7,-0.021991948270688046,0.015088572568730252,-0.0008091254081464706,0.5568155149237553,-0.021190365686203656,9.805291029847512
4385000000.0,20.7,-0.03236160138633709,-0.0017887613153336405,0.0,0.5538727703467278,-0.10859746656027466,9.794892770346728
4390000000.0,20.7,-0.03774869770215039,-0.019359368043833505,-0.00023423243977578628,0.5797714263524143,-0.20032113797531137,9.827266282163864
4395000000.0,20.7,-0.0394095345100319,-0.03783762778101928,-0.0010646508437165,0.6365716683084167,-0.2968511122056111,9.886419814632397
4400000000.0,20.7,-0.037706018958179495,-0.04943477066015506,-0.0008517113997349567,0.720054598253046,-0.35708459825304595,9.874745829070559
4405000000.0,20.7,-0.028060226515117585,-0.05458757867396227,0.0,0.7843099278091994,-0.41202,9.847866086628962
4410000000.0,20.7,-0.01234279168765693,-0.04921854085650849,0.0001916464481873001,0.8240400000000001,-0.4084882286820823,9.798424114341042
4415000000.0,20.7,0.006795569891228534,-0.038664185850846626,0.0008836508934263214,0.8290433572682336,-0.3773899281952993,9.797051143024312
4420000000.0,20.7,0.020543996098562122,-0.02624746173678124,-0.00017035345239305703,0.8550396858531968,-0.28998282732122826,9.828050314146804
4425000000.0,20.7,0.029135737819613462,-0.0037766778058140405,-0.0009049438892205644,0.8573936561987366,-0.20257572644715727,9.818338414049684
4430000000.0,20.7,0.03757835373579644,0.02062931775035626,0.00014906045659881395,0.8171725697628258,-0.11654211162052112,9.803132569762827
4435000000.0,20.7,0.03885587867522511,0.046342933007417535,0.0016183066785232956,0.7647869108435692,-0.036296138554461385,9.762225386144554
4440000000.0,20.7,0.033617721605510804,0.07392395687867738,0.004812184375364393,0.6894462825499628,0.057291003691710043,9.774291858725018
4445000000.0,20.7,0.020850628476985027,0.09431859677738852,0.0010646508437165,0.6246997639344977,0.11987837267758374,9.801269186338793
4450000000.0,20.7,0.007239513169608327,0.10823839517551238,0.0015970231687681589,0.5091380492049805,0.13341565425635654,9.807056740692268
4455000000.0,20.7,-0.005889249766071219,0.11341248564507035,0.006483733029412406,0.4040731212027312,0.09103610773576108,9.776155067334852
4460000000.0,20.7,-0.023567661579592523,0.10597970405281659,0.007197011498367438,0.3182357935889579,0.015695566849255667,9.737799093041192
4465000000.0,20.7,-0.03817587436320211,0.08548913289456624,0.004034998460909203,0.2509392796363928,-0.03835822745448227,9.816867867272679
4470000000.0,20.7,-0.05045682708024836,0.058355083808251156,0.0010646508437165,0.19737737364877375,-0.16343555506825555,9.907511313175613
4475000000.0,20.7,-0.05635491735096706,0.019605854130788705,0.0009049249171423397,0.21631058692150587,-0.2702664561365646,9.894855891549458
4480000000.0,20.7,-0.053905446551788916,-0.014097666504090977,-0.002044110732177803,0.22798492211174923,-0.37591989614899896,9.828442538944126
4485000000.0,20.7,-0.043188903188940926,-0.046613617358113056,-3.1948979730477e-05,0.28713948404169487,-0.4521431613472316,9.800484387115745
4490000000.0,20.7,-0.027208068925969144,-0.07281495785177867,-0.0011285582892165684,0.3749391593414916,-0.48049371278713715,9.811177723277178
4495000000.0,20.7,-0.003012800804233617,-0.09168692432473594,-0.004269259358802334,0.48177006040980064,-0.4703890634500906,9.869252749239926
4500000000.0,20.7,0.01490524477208791,-0.0990648978292372,-0.0053232257604653626,0.588600699256807,-0.4218295629644956,9.908099475557394
4505000000.0,20.7,0.029678584373327294,-0.10011890217505659,-0.0021612127230070297,0.6662959000337592,-0.3732700624789006,9.849828074974681
4510000000.0,20.7,0.04549529130852814,-0.09595606985106903,-4.256701951026133e-05,0.7247633256080332,-0.2766411239866112,9.76271501158795
4515000000.0,20.7,0.05717482206155822,-0.08967461079566272,0.0,0.7925505138892052,-0.17000633531696335,9.732402636904625
4520000000.0,20.7,0.057526052145733,-0.0731130860220554,0.0,0.8134453755911539,-0.07259312204423121,9.835114565751345
4525000000.0,20.7,0.059548907826273104,-0.05321403499263375,0.0,0.8515083515707835,0.03384546681965467,9.867388763678088
4530000000.0,20.7,0.04664519638231815,-0.027166858116313013,-0.0020015626847457663,0.85347,0.0853474399490744,9.767423632112036
4535000000.0,20.7,0.03391704301237964,-0.0037698752444873564,-0.00014903199848147674,0.844346611913066,0.13390694043466939,9.724456447652264
4540000000.0,20.7,0.01930879259563119,0.018456010776728624,0.0029384650397360117,0.8165841354478415,0.1283147118159471,9.739760576368106
4545000000.0,20.7,0.0025991654035391314,0.04059149814544681,0.0012562688337864718,0.7606668703129686,0.13645718828117187,9.759184376562343
4550000000.0,20.7,-0.0161985735909079,0.052201148669530545,0.002981041545285384,0.7112245581085456,0.09319455810854557,9.805095441891455
4555000000.0,20.7,-0.03422484813478541,0.054214997623754174,0.00129885482537496,0.70632,-0.007750873229508723,9.81873098847541
4560000000.0,20.7,-0.046536866938774235,0.050584490194622696,0.0038753579086870495,0.6545226685648267,-0.09731599715275999,9.776645557137355
4565000000.0,20.7,-0.052575473837749534,0.04172200900363227,0.0005535799464938835,0.6047860566517606,-0.20179267536612677,9.779294788669649
4570000000.0,20.7,-0.0523518394116709,0.029486873043397137,0.0,0.59841,-0.3001868876676689,9.831190132600602
4575000000.0,20.7,-0.047677983620656186,0.01955370947746056,0.0009049628612987893,0.6150871777277719,-0.3639515331833153,9.914477299774974
4580000000.0,20.7,-0.03792171915056043,0.013630274894702355,0.00017033448031483225,0.6262704889610049,-0.4222229337660294,9.853555599350956
4585000000.0,20.7,-0.02561154359282733,0.008357460797075503,-0.0008836698655045462,0.6115552218837522,-0.43164,9.75800610941876
4590000000.0,20.7,-0.005964992643649237,0.010071626008838139,0.0006813958914983493,0.616264289155243,-0.40750713253427134,9.773507156620973
4595000000.0,20.7,0.014269996162796249,0.01583490698116038,0.00020227397400619687,0.6021376214952763,-0.3148019182240192,9.860031892523619
4600000000.0,20.7,0.02833728209745968,0.02216224902286385,0.0008517303718131816,0.5905619106505191,-0.23151528520415288,9.87867
4605000000.0,20.7,0.03509774712988006,0.026804107349948196,0.00022356696980043995,0.5498500527670006,-0.10732014774760147,9.839920052767
4610000000.0,20.7,0.034554707226844346,0.03434187423730174,-0.0008304373760189385,0.48598677319396777,-0.05552433136884331,9.799012441825125
4615000000.0,20.7,0.03244669853520549,0.038674954613247825,0.0005749309125271339,0.44821863107748633,0.0038265274858652817,9.775272420718323
4620000000.0,20.7,0.024674679181993613,0.034554668228683576,0.003492083984390662,0.4265386205240862,0.041987069213870694,9.830405517903655
4625000000.0,20.7,0.015175549940400306,0.029827637918422256,0.0026616076102108773,0.3923996406596964,0.034334820329848206,9.893385539010454
4630000000.0,20.7,0.00017018797371079301,0.02639947191957507,0.0013414503030025476,0.3608115302034153,0.014911020135610202,9.82098612081366
4635000000.0,20.7,-0.013597803076980136,0.017784283612669597,0.0010646508437165,0.3316758299120583,-0.025996950146569497,9.768895829912058
4640000000.0,20.7,-0.02318433390107449,0.001873619205215513,0.0025977676209889902,0.34491987037929867,-0.08868303088503032,9.768013290126433
4645000000.0,20.7,-0.027836809213934235,-0.016812758562662553,0.0016821287496713534,0.3810207608942076,-0.16363152178841522,9.819516331564863
4650000000.0,20.7,-0.030998822251392468,-0.038025694260249154,0.0003193854508745338,0.4061341806413418,-0.24819381288603812,9.901233812886039
4655000000.0,20.7,-0.031222359709071255,-0.05870259066527119,0.0,0.47294091376010916,-0.3152939425067394,9.90741302874663
4660000000.0,20.7,-0.023652603789822098,-0.07729800720151221,-0.0014479447940954461,0.5536771241192713,-0.3602235620596356,9.824910204336001
4665000000.0,20.7,-0.009534236968675548,-0.0959349918721613,-0.002129301687433,0.6313723248962233,-0.3924983718360837,9.770661628163916
4670000000.0,20.7,0.004876228841429403,-0.1050810778138085,-0.002129301687433,0.728491597800616,-0.3827859278725593,9.82569690709147
4675000000.0,20.7,0.015129465621994267,-0.1037554211266139,-0.0035133674941457815,0.8225693172563932,-0.3408970459686705,9.878179772418797
4680000000.0,20.7,0.02833731371759004,-0.092719431197918,-0.002895830563947562,0.8974194363236944,-0.28605905457969055,9.857087545483076
4685000000.0,20.7,0.04079367936707061,-0.07728163471269447,-0.0034707815025572936,0.9592223460030235,-0.2092464809954648,9.77762608999496
4690000000.0,20.7,0.04540370334171676,-0.05221298303032543,-0.0016182297362060628,0.9870822910976229,-0.12183938012139378,9.735247708902376
4695000000.0,20.7,0.045154799282398475,-0.01773289677118736,-0.0006494469117678723,0.9728574264157742,-0.03443227924732279,9.737504191194741
4700000000.0,20.7,0.04217758707313154,0.019174534092259797,0.0014905508117665628,0.9554939087081391,0.058860912918609135,9.758988273875582
4705000000.0,20.7,0.03293633836206465,0.05923303214075511,0.0031939525311496,0.8936900861102008,0.12125196555591966,9.75918401722204
4710000000.0,20.7,0.017190626049421447,0.09524256623987414,0.002576445113073034,0.7908811936529119,0.1430298914860989,9.739760217027802
4715000000.0,20.7,-0.0019484998899599332,0.11958769579239631,0.0015224407672536138,0.6896420841678209,0.14715,9.737111791583217
4720000000.0,20.7,-0.020791927622886924,0.13379983264581022,0.004641937377410199,0.5650546247949463,0.12517523327865232,9.774292150082022
4725000000.0,20.7,-0.036375409089873634,0.13496886912526876,0.005695852132860216,0.4517496740028968,0.053954082225440826,9.810981183554912
4730000000.0,20.7,-0.050086890526943914,0.12116301068765796,0.0036836819483780786,0.3802350487525505,-0.03786742687117427,9.825107491874576
4735000000.0,20.7,-0.06210415058792571,0.09604920335110526,0.002065402673967747,0.3063654722547547,-0.16686966351879662,9.850417567886776
4740000000.0,20.7,-0.06876879503126329,0.0598671858641554,0.0005110224130227216,0.25976870793118706,-0.3064655048257551,9.86886
4745000000.0,20.7,-0.06378607907677136,0.02148222938458093,0.0010859638655933137,0.26506638433186386,-0.4079987294933873,9.863856807834068
4750000000.0,20.7,-0.0495322938118315,-0.010123180177830022,0.0005322953827343942,0.2943003690522037,-0.5003109226305092,9.849239815473899
4755000000.0,20.7,-0.031626746394418745,-0.037033509463714524,-0.0005429619067140862,0.3379549618008496,-0.5445530076398302,9.83943
4760000000.0,20.7,-0.011081243639841127,-0.06131642990003416,-0.0005110424391052922,0.40535003211560033,-0.5254233226281333,9.830012215085423
4765000000.0,20.7,0.011016913918731112,-0.07900837336692225,-0.002565838667341059,0.4835355478808555,-0.46401207445592074,9.847474755326447
4770000000.0,20.7,0.03323476072050515,-0.08571417681819415,-0.0027893550449329067,0.5650569265152693,-0.35335499553015,9.905746155909162
4775000000.0,20.7,0.05048987822022807,-0.08389356349152988,-0.0005855478983025724,0.6312737782459379,-0.25800244350812446,9.893384072513541
4780000000.0,20.7,0.05846296504076666,-0.07861586214853908,-0.000468456447516806,0.6733589570745896,-0.17383208585082086,9.78763208585082
4785000000.0,20.7,0.059197543883546415,-0.07242044684157638,-0.0015224607933361845,0.7147567858857679,-0.06994446351404464,9.713273214114231
4790000000.0,20.7,0.056354885730836704,-0.06057078190361463,-0.0007878113322653112,0.7465414652000147,0.02570322344003223,9.75565380952004
4795000000.0,20.7,0.04889512321697582,-0.04002645028609527,0.0001916169360656172,0.7709678068628781,0.10035657941136579,9.853753158822732
4800000000.0,20.7,0.03621543020225646,-0.01534120111655277,-0.00021290993185986028,0.7651800000000001,0.11379590676575907,9.857087254126073
4805000000.0,20.7,0.019983334106802312,0.004567463538343338,0.0006494268856853016,0.7537020200059202,0.11173599333135995,9.737306126704162
4810000000.0,20.7,0.0002765760103647305,0.017786453600272548,0.00040457746013407677,0.7245663197145632,0.09908053285760533,9.631065786856958
4815000000.0,20.7,-0.01885087931902806,0.031243753889282706,0.0022464437304274025,0.6954306194232062,0.046891238846412386,9.723085457563155
4820000000.0,20.7,-0.030168487113795085,0.03651366389391909,0.0034920344461863966,0.6662949191318492,-0.018443548981735492,9.883771855359019
4825000000.0,20.7,-0.04207737214986466,0.033660379269394816,0.0013840257545475756,0.6371592188404922,-0.10987312463803124,9.917419218840493
4830000000.0,20.7,-0.050094819801637505,0.026910421606297936,-0.0007239829370911812,0.6180300000000001,-0.21307395053563952,9.834915617477856
4835000000.0,20.7,-0.05009472810325942,0.016364648960612575,-0.0010752667754875928,0.6115552121718522,-0.2940065452266654,9.689238242601483
4840000000.0,20.7,-0.04138022749821863,0.008602317600657218,0.0010646508437165,0.6109671760447718,-0.3657171760447718,9.699737292201474
4845000000.0,20.7,-0.02799635490576523,0.003598499425157617,0.000404546894008048,0.6437323882166239,-0.3984823882166239,9.86542791162468
4850000000.0,20.7,-0.015981877554486497,0.003406923595261478,-0.00010643441284518662,0.660213094205431,-0.40319071738370715,9.96401690579457
4855000000.0,20.7,-0.0035770630847723993,0.008240458936659156,0.001511783729313034,0.6613900113949002,-0.36552003418470036,9.897405119646452
4860000000.0,20.7,0.012099443613541894,0.013973147139105045,0.00029811248116286135,0.6392193168009932,-0.3045017392023174,9.72367105600331
4865000000.0,20.7,0.023897664016242468,0.017914264741781847,0.0013521168269822398,0.6153812055032121,-0.22592326053533263,9.690123122955033
4870000000.0,20.7,0.03116914724566822,0.022183555720714607,0.0015756627166957633,0.5954665270304653,-0.13439652703046528,9.828640418908606
4875000000.0,20.7,0.031158459641601584,0.028230721204092993,0.0005323459749429935,0.5469070265448703,-0.07602664778076648,9.925267026544871
4880000000.0,20.7,0.026718814156271427,0.030338729895731775,0.002129301687433,0.5007020208474202,-0.007455505211855052,9.84609909381339
4885000000.0,20.7,0.01779300498026849,0.03097745863730706,0.0016395417040784926,0.46636721022947214,0.002256394885263949,9.7119
4890000000.0,20.7,0.0077079896432076765,0.028401075710490418,0.0011711674689007046,0.4447851150528511,0.01196829498238295,9.735641244806212
4895000000.0,20.7,-0.0007240451233476268,0.02888004479735242,0.004876080226816658,0.4177096098409961,0.009319024602490246,9.828050780318009
4900000000.0,20.7,-0.010011332709682314,0.01832581236721231,0.0025551310371919127,0.40221,-0.03924047588310476,9.861012095176621
4905000000.0,20.7,-0.021459583323666844,0.0029489070607900385,0.0,0.40780198582121985,-0.09339196218991962,9.85208404253634
4910000000.0,20.7,-0.027591961896391667,-0.015930546091429278,0.0,0.43870358148343586,-0.17108716296687163,9.78057
4915000000.0,20.7,-0.03141397559113251,-0.03877391845063494,0.0001810010042945244,0.48088677280786774,-0.24544677280786772,9.800583545615735
4920000000.0,20.7,-0.027570544528084634,-0.05935742791077246,0.0003832328181268726,0.5438672600858726,-0.3037181733905817,9.89829
4925000000.0,20.7,-0.019071939883772905,-0.07520191584327261,-0.0035133685481501774,0.6268595739732958,-0.3561031913244319,9.89093202168892
4930000000.0,20.7,-0.00504635146687072,-0.07928370684439329,-0.0053232542185827,0.6851309745560098,-0.37140650424066507,9.83275805088798
4935000000.0,20.7,0.004995616794897121,-0.08009039556727984,-0.0050464241931706105,0.7459531668516317,-0.3565930207177302,9.73152
4940000000.0,20.7,0.01845732045488273,-0.06506361350223916,-0.0031939525311496,0.8224710716750109,-0.3056789283249893,9.748002143350021
4945000000.0,20.7,0.029231514140513705,-0.04679215973312278,-0.0028425864804142035,0.8818208039493081,-0.23229964739169648,9.875335176304151
4950000000.0,20.7,0.033341056004776735,-0.01758218584745555,0.0002129510380293472,0.8701467115565671,-0.1226245192609452,9.913003557782837
4955000000.0,20.7,0.0362155819788823,0.008593543515562288,0.0019376436451978957,0.8374790262854902,-0.07318202253042022,9.765559063836191
4960000000.0,20.7,0.03561930431633926,0.032341827089853864,0.00017036504644086104,0.7718504146318043,-0.012555932921559328,9.618509378052293
4965000000.0,20.7,0.027943129794310073,0.04997781372520376,0.002129301687433,0.7316292213649922,0.07073038931750389,9.685022335905023
4970000000.0,20.7,0.01609247651128968,0.06387258617243691,0.002257080742285381,0.6704143381008435,0.09751130346371303,9.852772179217721
4975000000.0,20.7,0.0004789775188967551,0.08011414527441667,0.004205360345337034,0.5675082100997821,0.08730880673318805,9.904175226932752
4980000000.0,20.7,-0.011328751247073781,0.08428756612606234,0.0031939525311496,0.5352325359642255,0.06592252288632522,9.8233400523116
4985000000.0,20.7,-0.02804982560023306,0.08716202885990716,0.0031939525311496,0.43046241268942415,-0.0026495714487957144,9.672954396827645
4990000000.0,20.7,-0.03955900849918824,0.08047549343745733,0.0031726489953118964,0.39161481230094813,-0.09064556309715563,9.685610750796208
4995000000.0,20.7,-0.046922171860329924,0.05620545768590257,0.00211864464949242,0.35276721191247207,-0.20659918213129183,9.840804758306348
5000000000.0,20.7,-0.05113809438321651,0.030892064086425548,0.0010646508437165,0.31392009711900093,-0.2648707769520078,9.97677
5005000000.0,20.7,-0.04586807265411942,0.004524676681172506,0.0010646508437165,0.32363199721612,-0.3425659777289598,9.97677
5010000000.0,20.7,-0.0364074729733566,-0.027059552663909203,2.128245575078484e-05,0.3717994865661949,-0.4106472811926728,9.79410595104846
5015000000.0,20.7,-0.022790197407990098,-0.05869696179825923,-0.002065443780137187,0.4298747844621479,-0.4691147844621479,9.74280101294821
5020000000.0,20.7,-0.007027234793696695,-0.08317984318740877,-0.006217603256119081,0.5258169750747698,-0.4426269074775691,9.882595462612153
5025000000.0,20.7,0.013840672823188474,-0.10135406773383113,-0.004365047273750404,0.6229359760459598,-0.422810804790808,9.963036780836768
5030000000.0,20.7,0.026930906837351838,-0.10727915912502715,-0.003257820978488871,0.7200549770171498,-0.34805801838628014,9.883966520684565
5035000000.0,20.7,0.04156027780787197,-0.09768195766460824,-0.0031939525311496,0.7898037845918379,-0.2521160220116602,9.860423204402332
5040000000.0,20.7,0.05045545944913397,-0.08420222444818573,-0.004173441931732585,0.8397364894797649,-0.18207291472832915,9.76879702104047
5045000000.0,20.7,0.055013518694177435,-0.053045113033651226,-0.0013520746668084162,0.8972231879584318,-0.08730802006928019,9.76095
5050000000.0,20.7,0.05443855405351117,-0.02227009236305921,-0.0010646508437165,0.876032705729427,0.009810980901909808,9.778608196180382
5055000000.0,20.7,0.04294596712685253,0.01685679519252728,0.0017779988769583636,0.8381660072507602,0.10692998187309982,9.79803199637462
5060000000.0,20.7,0.02935909188053606,0.05599125537192716,0.0030662050964275875,0.7993184068622841,0.16088449142214492,9.765658406862283
5065000000.0,20.7,0.01378933702316257,0.08667038272713648,0.0031939525311496,0.7007272178029722,0.17530479838154797,9.769484798381548
5070000000.0,20.7,-0.005685438569923575,0.1061280686246445,0.004109562944349856,0.6023330152133302,0.14283320608533204,9.762323301521333
5075000000.0,20.7,-0.02391642878390752,0.11318901880568275,0.0042586033748661,0.5052140142421402,0.09564700712107006,9.76095
5080000000.0,20.7,-0.04274609884001124,0.101452348662796,0.002469968540053989,0.4245760106167601,0.014125511943855112,9.785671496018715
5085000000.0,20.7,-0.05641894389895822,0.08050779903351063,0.003012972606941975,0.3713080061498801,-0.09770878524028785,9.839234392620144
5090000000.0,20.7,-0.06732094720556764,0.049614839803656566,0.0014479036879259768,0.354925701132857,-0.23034018414000187,9.90555009207
5095000000.0,20.7,-0.06406294388432694,0.018645040754160548,0.00020227292000185105,0.361106198964262,-0.35836058653540587,9.91791
5100000000.0,20.7,-0.05518372353195773,-0.015345289737640308,0.0,0.378666198122762,-0.4846152877979529,9.808036613140667
5105000000.0,20.7,-0.041478471502473885,-0.04593928726984639,-0.0025232547837612963,0.429089994951,-0.525619998317,9.765070001683
5110000000.0,20.7,-0.019231186031024635,-0.06964200495763997,-0.0031939525311496,0.487361395533714,-0.5220881007443811,9.783905697766857
5115000000.0,20.7,0.004194961538461196,-0.08441140804271408,-0.0015543686668971972,0.583401792880118,-0.474607203883572,9.918794588996546
5120000000.0,20.7,0.02658717639150897,-0.08978116536500337,-0.0010646508437165,0.6827769944985699,-0.39396870495128705,9.95715
5125000000.0,20.7,0.04314905385916064,-0.08575668797547406,-0.0042586465890443286,0.750465597281856,-0.29184640498326403,9.876216404983264
5130000000.0,20.7,0.055545920531350754,-0.07469263165620375,-0.002171844464843359,0.7869584989322851,-0.19227500355905003,9.754866504626765
5135000000.0,20.7,0.06403114457321356,-0.05815401212490709,-0.0010646508437165,0.8089327994824281,-0.07367180336421804,9.700225800776359
5140000000.0,20.7,0.06374358056754366,-0.03639057448453399,-0.0002980914010759449,0.8283565996766661,0.024329698544997003,9.755849698544997
5145000000.0,20.7,0.05302243808265074,-0.008649722448278517,0.0,0.8268848000645481,0.090841199612712,9.864152399225423
5150000000.0,20.7,0.03856289765741676,0.023860743781818048,0.0,0.8034386999022871,0.16284680026056803,9.863954499837146
5155000000.0,20.7,0.020116458311431287,0.05319844191411166,0.0029384797957968303,0.7336889988327899,0.17962099987031,9.76124299831403
5160000000.0,20.7,8.496539832521764e-05,0.07410407260571525,0.0042586033748661,0.63961099773191,0.14989639909276398,9.655000997731909
5165000000.0,20.7,-0.02066613800987667,0.08275448096892025,0.002118622515401191,0.562210397732504,0.111048798704288,9.702483603887135
5170000000.0,20.7,-0.04176350368603256,0.08064637425487724,0.003172692209490043,0.5136511983158121,0.033352995789529966,9.883773409263034
5175000000.0,20.7,-0.05454511705488653,0.07121280396264264,0.002182501502783922,0.481180198445502,-0.07651920621799206,9.950773399481834
5180000000.0,20.7,-0.06229576436197828,0.054842935468836965,0.0010646508437165,0.43320899630828996,-0.19934050799870506,9.85944099138601
5185000000.0,20.7,-0.06363712612861587,0.033847638605919675,0.0010646508437165,0.42438080142480805,-0.3379560106860601,9.766737195013173
5190000000.0,20.7,-0.05690845619129149,0.014996740902291169,0.0017247453073858396,0.437722300809523,-0.4288938048571381,9.759576902428568
5195000000.0,20.7,-0.04416453056209203,-0.0038223045999402697,0.0008304057558885638,0.453418401813284,-0.46921260271992604,9.836586209973062
5200000000.0,20.7,-0.02364197774997654,-0.016832043179093953,0.0,0.4846144040150441,-0.474803898996239,9.902214404015043
5205000000.0,20.7,-0.0019055165387330628,-0.025899214052936152,0.000628154969977975,0.5350380066052801,-0.45351599669736,9.91791
5210000000.0,20.7,0.016895672177380333,-0.03600276163739183,0.0010646508437165,0.5591700000000001,-0.39024088921800887,9.843941284426013
5215000000.0,20.7,0.031786766388205365,-0.04290163325048348,-0.0007559350788346956,0.570353602590236,-0.2972419870488199,9.745645589639055
5220000000.0,20.7,0.04384837708595319,-0.04294414229975471,-0.002129301687433,0.6007648055689481,-0.18364188190091885,9.783318118099082
5225000000.0,20.7,0.05076555233116922,-0.03509757743518035,-0.0009581637306540223,0.6396124059574241,-0.0843651880851519,9.871803608936135
5230000000.0,20.7,0.04990310800518078,-0.022928607150674376,0.0,0.65727,-0.0066699873081998776,9.871802492067625
5235000000.0,20.7,0.04172790831779207,-0.009707028592301926,0.0,0.6312729915820299,0.05022760673437607,9.797245983164059
5240000000.0,20.7,0.02846476919310825,-0.0020866935617532994,0.0,0.603118698219287,0.073771301780713,9.75114
5245000000.0,20.7,0.015328755951600078,-0.0005216678569154973,0.0010859659736020054,0.603413201877832,0.08848640375566404,9.761146403755664
5250000000.0,20.7,0.0021291467487942143,-0.003194018933423386,0.003193974665240812,0.5984097960500979,0.06376428617534285,9.785475305924853
5255000000.0,20.7,-0.012635466387612145,-0.012656737249315077,0.0021718434108390127,0.6078280082882801,-0.004219014504490141,9.8482600207207
5260000000.0,20.7,-0.025356254254230774,-0.023269516424294895,0.0005110434931096381,0.6372578043383781,-0.10045572819945728,9.893581097830811
5265000000.0,20.7,-0.035395900717212436,-0.031701551190850275,0.0005642538485039835,0.6705140113315401,-0.20365641813046417,9.819317966005379
5270000000.0,20.7,-0.037535682369855994,-0.034256579989620624,-0.00097950099463079,0.714560809453708,-0.2813516189074162,9.736817297636573
5275000000.0,20.7,-0.030732552295521152,-0.03004056260634296,-0.001171093688596453,0.7578230123027302,-0.3413884098421841,9.788909831987098
5280000000.0,20.7,-0.024291436877827553,-0.022069205579723455,0.00046845750152115184,0.7934330051153301,-0.36728650255766504,9.871999507672994
5285000000.0,20.7,-0.01443580001406994,-0.007122324750422727,0.00014902883646843938,0.808638402654784,-0.35168798672607987,9.858951181416511
5290000000.0,20.7,0.0013842133673211835,0.01035591518844807,-0.0006174863379895912,0.801869091744291,-0.31136909174429095,9.81981
5295000000.0,20.7,0.015018844548378662,0.02941269748756006,0.0017460720313191899,0.768711188603912,-0.2500557686607577,9.79969898575489
5300000000.0,20.7,0.022162213186716073,0.04942441270026724,0.003832731864933434,0.7141671764308718,-0.16284538232315382,9.755063588215435
5305000000.0,20.7,0.0234397718542838,0.06422282896555728,0.002778727519114017,0.6326459726106598,-0.10074797869717979,9.76212802434608
5310000000.0,20.7,0.021416879283591612,0.07460977366181362,0.0025338802015714606,0.563878387438484,-0.02903677487696775,9.824911612561516
5315000000.0,20.7,0.015746467636347603,0.08187083323750698,0.0028000205149082617,0.5105115741000158,0.012360393525003933,9.845610196762502
5320000000.0,20.7,0.007878304097439962,0.08176857434063217,0.0025125872057772153,0.42928466998844667,0.0,9.811176373323063
5325000000.0,20.7,-0.0022891003403071267,0.07078080922310234,0.0020760354698083914,0.35561198284131984,0.0034336034317360344,9.771250810295207
5330000000.0,20.7,-0.01178107375633021,0.055262855811051725,0.0003619925225499364,0.3103879858845799,-0.013538524701985251,9.793715503528857
5335000000.0,20.7,-0.02092728583292372,0.030651962432089397,0.001415996868369315,0.281252596374026,-0.07828442175584421,9.809902210877922
5340000000.0,20.7,-0.02970002012623477,-0.004520065032026925,0.0014479026339216132,0.28723721489237214,-0.15539164467711647,9.845316518615466
5345000000.0,20.7,-0.035555475921165126,-0.03859553588687441,-0.0006601060577171436,0.33520842674148427,-0.26281083438190833,9.884752407640423
5350000000.0,20.7,-0.03280865416760334,-0.07147851887291398,-0.0018098951564715496,0.4120210391733104,-0.33550241566932415,9.860029649074695
5355000000.0,20.7,-0.025813796486746584,-0.09871887483754843,-0.0016821709098451864,0.5119850441589504,-0.3828850281011503,9.776450008028899
5360000000.0,20.7,-0.011510625813625847,-0.11850166341652044,-0.0037901796014840426,0.6215628493388284,-0.4261461917768619,9.815102137004121
5365000000.0,20.7,0.0034496044472411354,-0.12175929151221404,-0.004748320144042501,0.7354568462955684,-0.3987759789565598,9.881318804208687
5370000000.0,20.7,0.016655835717449132,-0.10872332515803403,-0.0031939525311496,0.8371863387522634,-0.3451150698593507,9.87062506985935
5375000000.0,20.7,0.03062628968538437,-0.08681674553736658,-0.0031939525311496,0.9196882308204823,-0.2722265603736656,9.812452186791223
5380000000.0,20.7,0.04120241629120725,-0.05709560589408558,-0.002682897443992134,0.97119,-0.1895284684996847,9.79038
5385000000.0,20.7,0.047124424754249224,-0.02043305607632,-0.0008197697980349005,0.9621643816113438,-0.10575033563970335,9.77909797701418
5390000000.0,20.7,0.047237650998311315,0.01495190134573871,0.0007027036433534557,0.9168418671400186,0.008633218777132188,9.747804914082849
5395000000.0,20.7,0.04316767237940304,0.047579378922290846,0.0029703644812622224,0.8447381568773816,0.05984204791402048,9.77076
5400000000.0,20.7,0.03302140178279394,0.07499006725923145,0.0027681263434037443,0.7592931608918316,0.13734,9.772722104888521
5405000000.0,20.7,0.011533408445857183,0.0967793762483744,0.004918664110396455,0.6778699501435995,0.13920400498564003,9.78616201495692
5410000000.0,20.7,-0.010713723140957468,0.10992049862907949,0.0028106554187575985,0.5772191390068914,0.13478866442068665,9.813531810165518
5415000000.0,20.7,-0.0279221002996023,0.11061249885830113,0.0012456529020153703,0.46567975338109757,0.06847316892073169,9.82128097410061
5420000000.0,20.7,-0.04196766063016318,0.10648930171114518,0.0019589461270312514,0.38455147361501474,0.0007835366760353644,9.777430589446007
5425000000.0,20.7,-0.05619529577082316,0.08628623131830401,0.0010646508437165,0.3359919731294197,-0.11575926448939265,9.762421605374115
5430000000.0,20.7,-0.0608690672414902,0.06369823999607303,0.0012137134083240056,0.2943,-0.22955505471235055,9.780374538298645
5435000000.0,20.7,-0.06095415912033687,0.031368750528170966,0.002129301687433,0.29685081113670814,-0.32922486682024865,9.853459461251894
5440000000.0,20.7,-0.053605881911818955,-0.006049758610529224,0.0018737625498064748,0.3221611396583114,-0.44105844532378446,9.941453471672634
5445000000.0,20.7,-0.038248847006341735,-0.046001976148092615,-0.00035136921274843386,0.38582761728777615,-0.511199205762592,9.891814765424447
5450000000.0,20.7,-0.01800806577214424,-0.07605299807152824,-0.0031939525311496,0.4237932703165327,-0.5179677882805779,9.836486682420867
5455000000.0,20.7,0.0039516440995872,-0.10040808037974279,-0.0031939525311496,0.5403360714819607,-0.4941289583021896,9.81
5460000000.0,20.7,0.02407879255506289,-0.11415782060219916,-0.0030235853767000393,0.6560939665934397,-0.4253607515684075,9.813924530269746
5465000000.0,20.7,0.04434019351818026,-0.11537016242257288,-0.0012882620816994715,0.7601776430574764,-0.3435447138850471,9.86248403075534
5470000000.0,20.7,0.05371468284088065,-0.10423887235831714,-0.004066931630574494,0.8263948249927483,-0.21052164376631644,9.904567762510878
5475000000.0,20.7,0.060879736927482934,-0.08330676751385178,-0.0010646508437165,0.8647518190359182,-0.1221333302016333,9.843352723856327
5480000000.0,20.7,0.06361577410857824,-0.04560021949732684,-0.0010220532580802097,0.8919249871151499,-0.016479948460599483,9.730342480672725
5485000000.0,20.7,0.05614189042462481,-0.013946055391532814,0.0,0.8719123738418237,0.06180406539544066,9.702973219618633
5490000000.0,20.7,0.04540975640228101,0.017691353742817214,2.1304589842047097e-05,0.8334573867266739,0.15774522654665227,9.733875679639956
5495000000.0,20.7,0.02538771125583439,0.0493074466932774,0.001085967027606352,0.8133461393959616,0.19610179326621793,9.84924
5500000000.0,20.7,0.0074523124310118165,0.07883675419353987,0.0031939525311496,0.7259390385218905,0.18638935901459358,9.849238824860088
5505000000.0,20.7,-0.014681778831195827,0.09991684110992824,0.0031939525311496,0.6385319376478195,0.1281179584318796,9.74240792379178
5510000000.0,20.7,-0.035789605068515036,0.10953696858172707,0.002150583089179441,0.5222831156983312,0.06984655784916557,9.664418743798889
5515000000.0,20.7,-0.05585424780059795,0.1045483054681895,0.002129301687433,0.4438035430219354,-0.01697226410032264,9.75800807122258
5520000000.0,20.7,-0.0687263186561268,0.09110114876149468,0.002129301687433,0.4226145855612458,-0.13263248663252486,9.85512707219377
5525000000.0,20.7,-0.06620292158177882,0.06524535206767314,0.00010644179087560728,0.37523196341751963,-0.29577332438043324,9.952246073164961
5530000000.0,20.7,-0.06404169199470215,0.038877964662420106,0.0,0.34511547775915474,-0.38710356672253565,9.929485477759156
5535000000.0,20.7,-0.05500272463567185,0.004589481637291164,0.0,0.32510318497853186,-0.49275748261807484,9.781745479828254
5540000000.0,20.7,-0.037664704666031154,-0.027271469170754927,-0.0019589809091746634,0.37788184564711846,-0.5364112304314124,9.716608154352881
5545000000.0,20.7,-0.014885132243882212,-0.0521269706082733,-0.002129301687433,0.4361532462298325,-0.48598675377016753,9.810099284754694
5550000000.0,20.7,0.012137323804022715,-0.07446995440430121,-0.0002129067698468229,0.5297410780209109,-0.48069,9.908101078020911
5555000000.0,20.7,0.028186358886885306,-0.08523517927321476,-0.001895101921791934,0.6093980631936807,-0.41084193680631936,9.89171697630237
5560000000.0,20.7,0.042944339398567365,-0.09003669607059515,-0.005876919539428559,0.6611945399816455,-0.3072480120403801,9.871214184007341
5565000000.0,20.7,0.05678932683174244,-0.08869516566326226,-0.0008303572716886823,0.7268236566541366,-0.191882302878623,9.809116343345863
5570000000.0,20.7,0.0640843717926774,-0.07650042080831986,0.0009156114672046024,0.7694968327622684,-0.06690279352262794,9.758006459047165
5575000000.0,20.7,0.059548818235903744,-0.06460585098281507,-0.002555209033513508,0.8166830414384305,-0.007356958561569586,9.817848866301489
5580000000.0,20.7,0.04875319980393523,-0.04494827597756018,-0.001405315588328797,0.8240400000000001,0.08240508384805084,9.837860508384805
5585000000.0,20.7,0.032726305706559954,-0.013246846619244964,-0.00018097887020326225,0.8484672254457722,0.12252722544577226,9.815002774554229
5590000000.0,20.7,0.017591008364914028,0.022244622157976172,-0.0008730254756161162,0.8212927656838277,0.1436186171580862,9.761734148525742
5595000000.0,20.7,0.002831806123965169,0.04861187992069463,0.0006601071117214893,0.7586065392668654,0.1392037913238379,9.703462747943028
5600000000.0,20.7,-0.012789950024866608,0.07201952615448687,0.001916383323538373,0.6984713473603136,0.09025134736031347,9.731520543866406
5605000000.0,20.7,-0.03280893558676366,0.08427699446247378,0.004652559633207412,0.6246999290367993,0.024229937907199378,9.8033300709632
5610000000.0,20.7,-0.048089559876991664,0.08878039667068256,0.004492814734554992,0.5546566372273665,-0.05140527174015272,9.835113817935039
5615000000.0,20.7,-0.05605690500021701,0.08538406581909651,0.0017992244164744971,0.4866733365475334,-0.1668695178402952,9.869645236258553
5620000000.0,20.7,-0.05995349161043331,0.06715443558173631,0.00025550435548311304,0.4410571633529716,-0.27075709161757094,9.87867
5625000000.0,20.7,-0.058324504705873755,0.0426075655887521,0.0,0.4169247814822478,-0.37523370184763705,9.805093907411239
5630000000.0,20.7,-0.048859663728902124,0.018082036021757685,0.0,0.41927950935599506,-0.44576705613597056,9.766050981288009
5635000000.0,20.7,-0.03103521887028094,-0.0061646015935852005,0.0,0.44331422835934226,-0.4682314094531141,9.825402685078027
5640000000.0,20.7,-0.011758418036589372,-0.026586465629725928,0.0,0.4795132382009324,-0.4496900713493007,9.898683166851631
5645000000.0,20.7,0.005706718917665695,-0.039516118591494176,0.0,0.5113956289420563,-0.4205543710579437,9.897014371057944
5650000000.0,20.7,0.019601935947387558,-0.050813647050552996,-0.0029810700034027006,0.5611326584668266,-0.3364817928108179,9.799207573321874
5655000000.0,20.7,0.036662949907447936,-0.05873982563230482,-0.001320119363051886,0.6058660393663604,-0.2431889114256891,9.740642970475228
5660000000.0,20.7,0.04840715151614219,-0.05999603017182622,0.0014479490101128292,0.6380427298161273,-0.16245272049032722,9.738190909938709
5665000000.0,20.7,0.05256480309775245,-0.054662057783050846,0.0007026456731144138,0.6606056200716562,-0.07161189964171899,9.813630910394108
5670000000.0,20.7,0.0483486782060315,-0.03673228535437766,-0.001405363018524343,0.6865041303988413,0.006082970930629712,9.894562970930629
5675000000.0,20.7,0.039575232926313535,-0.017679121054773386,0.0013308733693923151,0.702886610230066,0.04855983069019831,9.85414389769934
5680000000.0,20.7,0.02803891981726684,-0.00012755455192673196,0.0011497869907457505,0.6812059586912597,0.052581489672814896,9.694239793456298
5685000000.0,20.7,0.014709129881115895,0.012435578973183752,0.0026829680622832905,0.6547191791513919,0.0675912312729123,9.648331641697217
5690000000.0,20.7,-0.0009796706893304766,0.02126798008965767,0.0042586033748661,0.6292130684357308,0.06023306843573069,9.808825452514155
5695000000.0,20.7,-0.017854386927683364,0.02580332073755349,0.0016608072957597832,0.6120457893814579,0.013144736288747363,9.95214789556688
5700000000.0,20.7,-0.030253645394915523,0.02343971177603607,-0.0006388025218794423,0.6141061107156611,-0.07455721787227218,9.910060560696406
5705000000.0,20.7,-0.0365989043873786,0.013134144215342786,-0.0029491189156635213,0.5948779567488797,-0.17560010812780108,9.749077794557179
5710000000.0,20.7,-0.039579902718485854,-0.0005750679330921221,-0.0005535462183548466,0.5958597327296973,-0.2556493763692938,9.666970089090102
5715000000.0,20.7,-0.04168791141012465,-0.010029083231427779,0.0009155756310568447,0.6361790550350905,-0.3292244880561449,9.741135354098255
5720000000.0,20.7,-0.03604510520798076,-0.013372026654889412,-0.0005962165302909561,0.6792448444165484,-0.3739574222082742,9.921051644291017
5725000000.0,20.7,-0.02092803770087623,-0.01149818083873955,-0.0004790808113226654,0.69651,-0.38798561120125613,9.98903194399372
5730000000.0,20.7,-0.004726880641644201,-0.006132316386468413,0.001149847068993426,0.701807511298375,-0.3765074661048747,9.850414751435748
5735000000.0,20.7,0.0060792409436303,0.00019170968844805505,0.0004364705776342254,0.6959211772090118,-0.3265741202315412,9.68874706325407
5740000000.0,20.7,0.01623449996834926,0.006515735763364523,-0.00051102030501403,0.6713960655221607,-0.24838819656648198,9.679331803433518
5745000000.0,20.7,0.026718993337010243,0.01882148766485823,0.0,0.6622732115897322,-0.16098109569241095,9.826777443384374
5750000000.0,20.7,0.031424665303207824,0.035151100829865424,0.0021293501716329573,0.6376493298788933,-0.10300466493944666,9.92772
5755000000.0,20.7,0.02882683233394937,0.0509590960735728,0.0032152212848438402,0.5601498821602988,-0.04021988216029882,9.841193787888537
5760000000.0,20.7,0.020450250291115957,0.05863326473893809,0.001618257140319016,0.48657544059455443,0.014518911881089117,9.70405088118911
5765000000.0,20.7,0.011402325467513323,0.0550240618996486,0.001565048892933362,0.4380159401089594,0.028841623956416238,9.699148119782082
5770000000.0,20.7,0.003044791944137942,0.04484849594339787,0.0026190532387527867,0.4075072879246729,0.03924,9.823343393205233
5775000000.0,20.7,-0.00836552156313095,0.02470920651553536,0.0027148474777269355,0.3845515513102155,0.01275232696532327,9.934587673034676
5780000000.0,20.7,-0.022545635725625235,-0.00294646932152578,0.0011923845763820045,0.3759195368086954,-0.07141814723478146,9.92379487730435
5785000000.0,20.7,-0.032265763933184775,-0.0349033102829416,-0.0004578120576283761,0.41349206183342063,-0.17952412366684123,9.822457463966474
5790000000.0,20.7,-0.033191949171986646,-0.06730723142973673,-0.0015118164034477546,0.46617187478281874,-0.27664312463803126,9.74858906260859
5795000000.0,20.7,-0.02933786423301122,-0.09351828954973192,-0.002129301687433,0.5686876135356762,-0.3576732753655328,9.779786550731066
5800000000.0,20.7,-0.021303366384905015,-0.10673739261474999,-0.002981046815307063,0.7063211265804114,-0.4002482253160823,9.900253464554535
5805000000.0,20.7,-0.009507172953512735,-0.10284422731991905,-0.004673829440906029,0.8034401275516013,-0.40819398724483985,9.953813923469038
5810000000.0,20.7,0.006628993402933117,-0.08807752017061642,-0.003300356377868782,0.8856474771136748,-0.38357043573860433,9.865719220068092
5815000000.0,20.7,0.02272656611162857,-0.06582381515610826,-0.0003939330702456469,0.92214,-0.3241214964048149,9.747901683455417
5820000000.0,20.7,0.03221260522400338,-0.03254654390035847,-0.0006813642713679746,0.9292034260930343,-0.23229944344179443,9.724065417418654
5825000000.0,20.7,0.039090163815218244,0.00362646200494348,0.0007452801489028076,0.9314591605690916,-0.11919025542000256,9.801171678861817
5830000000.0,20.7,0.0404741853537485,0.049301879148583874,0.002129301687433,0.885645894073959,-0.02903692055546921,9.829423460277734
5835000000.0,20.7,0.03731206164583392,0.08903134738181658,0.002129301687433,0.782051386594014,0.042184133378741336,9.777625866621259
5840000000.0,20.7,0.025094832631956398,0.11483935878428427,0.00281070284895311,0.6360789253450894,0.11418862686998628,9.699342746260028
5845000000.0,20.7,0.007164890715928614,0.1270188290600833,0.004588657457729049,0.5219890782109908,0.12448878646788787,9.703072135321122
