#timestamp [ns], temperature [degC], w_RS_S_x [rad s^-1], w_RS_S_y [rad s^-1], w_RS_S_z [rad s^-1], a_RS_S_x [m s^-2], a_RS_S_y [m s^-2], a_RS_S_z [m s^-2]
0,22.22,0.0,0.0,0.0,-0.2943,-0.23544,9.83943
5050505,22.22,0.0,0.0,0.0,-0.2943,-0.26487,9.83943
10101010,22.22,0.0,0.0,0.0,-0.27468000000000004,-0.22563,9.84924
15151515,22.22,0.0,0.0,0.0,-0.31392000000000003,-0.25506,9.85905
20202020,22.22,0.0,0.0,0.0,-0.31392000000000003,-0.23544,9.85905
25252525,22.22,0.0,0.0,0.0,-0.2943,-0.23544,9.81
30303030,22.22,0.0,0.0,0.0,-0.28449,-0.27468000000000004,9.82962
35353535,22.22,0.0,0.0,0.0,-0.30411,-0.26487,9.84924
40404040,22.22,0.0,0.0,0.0,-0.28449,-0.25506,9.82962
45454545,22.22,0.0,0.0,0.0,-0.28449,-0.25506,9.81
50505050,22.22,0.0,0.0,0.0,-0.2943,-0.26487,9.82962
55555555,22.22,0.0,0.0,0.0,-0.2943,-0.25506,9.82962
60606060,22.22,0.0,0.0,0.0,-0.27468000000000004,-0.25506,9.83943
65656565,22.22,0.0,0.0,0.0,-0.28449,-0.26487,9.82962
70707070,22.22,0.0,0.0,0.0,-0.33354000000000006,-0.24525000000000002,9.83943
75757575,22.22,0.0,0.0,0.0,-0.27468000000000004,-0.24525000000000002,9.81
80808080,22.22,0.0,0.0,0.0,-0.27468000000000004,-0.25506,9.82962
85858585,22.22,0.0,0.0,0.0,-0.2943,-0.26487,9.82962
90909090,22.22,0.0,0.0,0.0,-0.2943,-0.24525000000000002,9.84924
95959595,22.22,0.0,0.0,0.0,-0.32373,-0.25506,9.83943
101010100,22.22,0.0,0.0,0.0,-0.28449,-0.24525000000000002,9.82962
106060605,22.22,0.0,0.0,0.0,-0.2943,-0.24525000000000002,9.819809999999999
111111110,22.22,0.0,0.0,0.0,-0.2943,-0.22563,9.84924
116161615,22.22,0.0,0.0,0.0,-0.2943,-0.26487,9.819809999999999
121212120,22.22,0.0,0.0,0.0,-0.31392000000000003,-0.25506,9.819809999999999
126262625,22.22,0.0,0.0,0.0,-0.2943,-0.24525000000000002,9.81
131313130,22.22,0.0,0.0,0.0,-0.31392000000000003,-0.25506,9.819809999999999
136363635,22.22,0.0,0.0,0.0,-0.27468000000000004,-0.24525000000000002,9.82962
141414140,22.22,0.0,0.0,0.0,-0.31392000000000003,-0.21582,9.819809999999999
146464645,22.22,0.0,0.0,0.0,-0.2943,-0.26487,9.82962
151515150,22.22,0.0,0.0,0.0,-0.2943,-0.25506,9.82962
156565655,22.22,0.0,0.0,0.0,-0.26487,-0.25506,9.82962
161616160,22.22,0.0,0.0,0.0,-0.30411,-0.26487,9.84924
166666665,22.22,0.0,0.0,0.0,-0.32373,-0.28449,9.85905
171717170,22.22,0.0,0.0,0.0,-0.28449,-0.22563,9.83943
176767675,22.22,0.0,0.0,0.0,-0.27468000000000004,-0.26487,9.82962
181818180,22.22,0.0,0.0,0.0,-0.31392000000000003,-0.25506,9.82962
186868685,22.22,0.0,0.0,0.0,-0.2943,-0.23544,9.819809999999999
191919190,22.22,0.0,0.0,0.0,-0.30411,-0.25506,9.82962
196969695,22.22,0.0,0.0,0.0,-0.30411,-0.26487,9.819809999999999
202020200,22.22,0.0,0.0,0.0,-0.33354000000000006,-0.23544,9.83943
207070705,22.22,0.0,0.0,0.0,-0.27468000000000004,-0.24525000000000002,9.83943
212121210,22.22,0.0,0.0,0.0,-0.27468000000000004,-0.25506,9.82962
217171715,22.22,0.0,0.0,0.0,-0.32373,-0.26487,9.83943
222222220,22.22,0.0,0.0,0.0,-0.30411,-0.26487,9.83943
227272725,22.22,0.0,0.0,0.0,-0.28449,-0.23544,9.819809999999999
232323230,22.22,0.0,0.0,0.0,-0.31392000000000003,-0.25506,9.81
237373735,22.22,0.0,0.0,0.0,-0.28449,-0.25506,9.82962
242424240,22.22,0.0,0.0,0.0,-0.26487,-0.24525000000000002,9.83943
247474745,22.22,0.0,0.0,0.0,-0.30411,-0.25506,9.83943
252525250,22.22,0.0,0.0,0.0,-0.31392000000000003,-0.23544,9.82962
257575755,22.22,0.0,0.0,0.0,-0.27468000000000004,-0.26487,9.82962
262626260,22.22,0.0,0.0,0.0,-0.31392000000000003,-0.25506,9.84924
267676765,22.22,0.0,0.0,0.0,-0.32373,-0.25506,9.82962
272727270,22.22,0.0,0.0,0.0,-0.28449,-0.25506,9.82962
277777775,22.22,0.0,0.0,0.0,-0.2943,-0.26487,9.82962
282828280,22.22,0.0,0.0,0.0,-0.30411,-0.24525000000000002,9.82962
287878785,22.22,0.0,0.0,0.0,-0.27468000000000004,-0.25506,9.81
292929290,22.22,0.0,0.0,0.0,-0.2943,-0.28449,9.81
297979795,22.22,0.0,0.0,0.0,-0.31392000000000003,-0.25506,9.83943
303030300,22.22,0.0,0.0,0.0,-0.2943,-0.25506,9.819809999999999
308080805,22.22,0.0,0.0,0.0,-0.28449,-0.24525000000000002,9.84924
313131310,22.22,0.0,0.0,0.0,-0.31392000000000003,-0.28449,9.81
318181815,22.22,0.0,0.0,0.0,-0.31392000000000003,-0.24525000000000002,9.81
323232320,22.22,0.0,0.0,0.0,-0.31392000000000003,-0.23544,9.819809999999999
328282825,22.22,0.0,0.0,0.0,-0.28449,-0.24525000000000002,9.819809999999999
333333330,22.22,0.0,0.0,0.0,-0.30411,-0.25506,9.84924
338383835,22.22,0.0,0.0,0.0,-0.2943,-0.24525000000000002,9.85905
343434340,22.22,0.0,0.0,0.0,-0.2943,-0.26487,9.82962
348484845,22.22,0.0,0.0,0.0,-0.30411,-0.25506,9.83943
353535350,22.22,0.0,0.0,0.0,-0.30411,-0.24525000000000002,9.83943
358585855,22.22,0.0,0.0,0.0,-0.30411,-0.28449,9.819809999999999
363636360,22.22,0.0,0.0,0.0,-0.2943,-0.27468000000000004,9.84924
368686865,22.22,0.0,0.0,0.0,-0.27468000000000004,-0.21582,9.819809999999999
373737370,22.22,0.0,0.0,0.0,-0.28449,-0.24525000000000002,9.82962
378787875,22.22,0.0,0.0,0.0,-0.26487,-0.25506,9.84924
383838380,22.22,0.0,0.0,0.0,-0.28449,-0.24525000000000002,9.83943
388888885,22.22,0.0,0.0,0.0,-0.30411,-0.22563,9.83943
393939390,22.22,0.0,0.0,0.0,-0.28449,-0.26487,9.82962
398989895,22.22,0.0,0.0,0.0,-0.27468000000000004,-0.28449,9.81
404040400,22.22,0.0,0.0,0.0,-0.28449,-0.23544,9.83943
409090905,22.22,0.0,0.0,0.0,-0.26487,-0.25506,9.82962
414141410,22.22,0.0,0.0,0.0,-0.28449,-0.27468000000000004,9.81
419191915,22.22,0.0,0.0,0.0,-0.33354000000000006,-0.26487,9.83943
424242420,22.22,0.0,0.0,0.0,-0.30411,-0.23544,9.83943
429292925,22.22,0.0,0.0,0.0,-0.28449,-0.25506,9.82962
434343430,22.22,0.0,0.0,0.0,-0.33354000000000006,-0.25506,9.81
439393935,22.22,0.0,0.0,0.0,-0.31392000000000003,-0.20601000000000003,9.84924
444444440,22.22,0.0,0.0,0.0,-0.28449,-0.26487,9.82962
449494945,22.22,0.0,0.0,0.0,-0.31392000000000003,-0.27468000000000004,9.819809999999999
454545450,22.22,0.0,0.0,0.0,-0.31392000000000003,-0.22563,9.82962
459595955,22.22,0.0,0.0,0.0,-0.28449,-0.27468000000000004,9.85905
464646460,22.22,0.0,0.0,0.0,-0.2943,-0.23544,9.83943
469696965,22.22,0.0,0.0,0.0,-0.31392000000000003,-0.24525000000000002,9.81
474747470,22.22,0.0,0.0,0.0,-0.28449,-0.22563,9.84924
479797975,22.22,0.0,0.0,0.0,-0.30411,-0.26487,9.819809999999999
484848480,22.22,0.0,0.0,0.0,-0.32373,-0.27468000000000004,9.82962
489898985,22.22,0.0,0.0,0.0,-0.28449,-0.23544,9.82962
494949490,22.22,0.0,0.0,0.0,-0.27468000000000004,-0.26487,9.82962
499999995,22.22,0.0,0.0,0.0,-0.33354000000000006,-0.25506,9.81
505050500,22.22,0.0,0.0,0.0,-0.30411,-0.24525000000000002,9.83943
510101005,22.22,0.0,0.0,0.0,-0.27468000000000004,-0.24525000000000002,9.82962
515151510,22.22,0.0,0.0,0.0,-0.2943,-0.26487,9.81
520202015,22.22,0.0,0.0,0.0,-0.32373,-0.25506,9.819809999999999
525252520,22.22,0.0,0.0,0.0,-0.28449,-0.27468000000000004,9.83943
530303025,22.22,0.0,0.0,0.0,-0.31392000000000003,-0.27468000000000004,9.80019
535353530,22.22,0.0,0.0,0.0,-0.30411,-0.23544,9.85905
540404035,22.22,0.0,0.0,0.0,-0.2943,-0.22563,9.82962
545454540,22.22,0.0,0.0,0.0,-0.25506,-0.25506,9.819809999999999
550505045,22.22,0.0,0.0,0.0,-0.31392000000000003,-0.27468000000000004,9.84924
555555550,22.22,0.0,0.0,0.0,-0.31392000000000003,-0.22563,9.82962
560606055,22.22,0.0,0.0,0.0,-0.27468000000000004,-0.27468000000000004,9.83943
565656560,22.22,0.0,0.0,0.0,-0.30411,-0.27468000000000004,9.83943
570707065,22.22,0.0,0.0,0.0,-0.30411,-0.22563,9.819809999999999
575757570,22.22,0.0,0.0,0.0,-0.27468000000000004,-0.26487,9.82962
580808075,22.22,0.0,0.0,0.0,-0.27468000000000004,-0.25506,9.83943
585858580,22.22,0.0,0.0,0.0,-0.32373,-0.25506,9.82962
590909085,22.22,0.0,0.0,0.0,-0.2943,-0.1962,9.84924
595959590,22.22,0.0,0.0,0.0,-0.27468000000000004,-0.26487,9.82962
601010095,22.22,0.0,0.0,0.0,-0.33354000000000006,-0.24525000000000002,9.819809999999999
606060600,22.22,0.0,0.0,0.0,-0.33354000000000006,-0.22563,9.85905
611111105,22.22,0.0,0.0,0.0,-0.28449,-0.24525000000000002,9.82962
616161610,22.22,0.0,0.0,0.0,-0.32373,-0.26487,9.82962
621212115,22.22,0.0,0.0,0.0,-0.31392000000000003,-0.23544,9.84924
626262620,22.22,0.0,0.0,0.0,-0.27468000000000004,-0.23544,9.83943
631313125,22.22,0.0,0.0,0.0,-0.30411,-0.27468000000000004,9.819809999999999
636363630,22.22,0.0,0.0,0.0,-0.32373,-0.25506,9.85905
641414135,22.22,0.0,0.0,0.0,-0.2943,-0.20601000000000003,9.85905
646464640,22.22,0.0,0.0,0.0,-0.28449,-0.25506,9.80019
651515145,22.22,0.0,0.0,0.0,-0.30411,-0.24525000000000002,9.80019
656565650,22.22,0.0,0.0,0.0,-0.28449,-0.23544,9.819809999999999
661616155,22.22,0.0,0.0,0.0,-0.30411,-0.27468000000000004,9.84924
666666660,22.22,0.0,0.0,0.0,-0.28449,-0.23544,9.819809999999999
671717165,22.22,0.0,0.0,0.0,-0.2943,-0.21582,9.819809999999999
676767670,22.22,0.0,0.0,0.0,-0.28449,-0.27468000000000004,9.819809999999999
681818175,22.22,0.0,0.0,0.0,-0.31392000000000003,-0.27468000000000004,9.85905
686868680,22.22,0.0,0.0,0.0,-0.2943,-0.24525000000000002,9.82962
691919185,22.22,0.0,0.0,0.0,-0.26487,-0.22563,9.81
696969690,22.22,0.0,0.0,0.0,-0.28449,-0.25506,9.82962
702020195,22.22,0.0,0.0,0.0,-0.31392000000000003,-0.27468000000000004,9.82962
707070700,22.22,0.0,0.0,0.0,-0.30411,-0.24525000000000002,9.83943
712121205,22.22,0.0,0.0,0.0,-0.2943,-0.21582,9.82962
717171710,22.22,0.0,0.0,0.0,-0.2943,-0.27468000000000004,9.819809999999999
722222215,22.22,0.0,0.0,0.0,-0.32373,-0.24525000000000002,9.82962
727272720,22.22,0.0,0.0,0.0,-0.2943,-0.24525000000000002,9.81
732323225,22.22,0.0,0.0,0.0,-0.2943,-0.28449,9.819809999999999
737373730,22.22,0.0,0.0,0.0,-0.31392000000000003,-0.25506,9.82962
742424235,22.22,0.0,0.0,0.0,-0.31392000000000003,-0.24525000000000002,9.84924
747474740,22.22,0.0,0.0,0.0,-0.2943,-0.24525000000000002,9.82962
752525245,22.22,0.0,0.0,0.0,-0.31392000000000003,-0.24525000000000002,9.83943
757575750,22.22,0.0,0.0,0.0,-0.32373,-0.25506,9.819809999999999
762626255,22.22,0.0,0.0,0.0,-0.31392000000000003,-0.26487,9.819809999999999
767676760,22.22,0.0,0.0,0.0,-0.30411,-0.25506,9.82962
772727265,22.22,0.0,0.0,0.0,-0.30411,-0.25506,9.82962
777777770,22.22,0.0,0.0,0.0,-0.2943,-0.25506,9.84924
782828275,22.22,0.0,0.0,0.0,-0.28449,-0.26487,9.83943
787878780,22.22,0.0,0.0,0.0,-0.28449,-0.24525000000000002,9.80019
792929285,22.22,0.0,0.0,0.0,-0.2943,-0.25506,9.819809999999999
797979790,22.22,0.0,0.0,0.0,-0.26487,-0.26487,9.83943
803030295,22.22,0.0,0.0,0.0,-0.28449,-0.25506,9.84924
808080800,22.22,0.0,0.0,0.0,-0.31392000000000003,-0.23544,9.83943
813131305,22.22,0.0,0.0,0.0,-0.28449,-0.2943,9.82962
818181810,22.22,0.0,0.0,0.0,-0.2943,-0.24525000000000002,9.83943
823232315,22.22,0.0,0.0,0.0,-0.30411,-0.23544,9.82962
828282820,22.22,0.0,0.0,0.0,-0.26487,-0.22563,9.81
833333325,22.22,0.0,0.0,0.0,-0.28449,-0.25506,9.81
838383830,22.22,0.0,0.0,0.0,-0.32373,-0.24525000000000002,9.819809999999999
843434335,22.22,0.0,0.0,0.0,-0.30411,-0.23544,9.83943
848484840,22.22,0.0,0.0,0.0,-0.28449,-0.26487,9.83943
853535345,22.22,0.0,0.0,0.0,-0.31392000000000003,-0.27468000000000004,9.819809999999999
858585850,22.22,0.0,0.0,0.0,-0.31392000000000003,-0.22563,9.81
863636355,22.22,0.0,0.0,0.0,-0.30411,-0.24525000000000002,9.84924
868686860,22.22,0.0,0.0,0.0,-0.30411,-0.24525000000000002,9.82962
873737365,22.22,0.0,0.0,0.0,-0.32373,-0.26487,9.83943
878787870,22.22,0.0,0.0,0.0,-0.28449,-0.24525000000000002,9.85905
883838375,22.22,0.0,0.0,0.0,-0.28449,-0.25506,9.83943
888888880,22.22,0.0,0.0,0.0,-0.32373,-0.26487,9.819809999999999
893939385,22.22,0.0,0.0,0.0,-0.2943,-0.23544,9.819809999999999
898989890,22.22,0.0,0.0,0.0,-0.26487,-0.26487,9.84924
904040395,22.22,0.0,0.0,0.0,-0.31392000000000003,-0.24525000000000002,9.819809999999999
909090900,22.22,0.0,0.0,0.0,-0.2943,-0.22563,9.84924
914141405,22.22,0.0,0.0,0.0,-0.27468000000000004,-0.26487,9.83943
919191910,22.22,0.0,0.0,0.0,-0.32373,-0.26487,9.83943
924242415,22.22,0.0,0.0,0.0,-0.31392000000000003,-0.23544,9.82962
929292920,22.22,0.0,0.0,0.0,-0.2943,-0.24525000000000002,9.81
934343425,22.22,0.0,0.0,0.0,-0.2943,-0.26487,9.84924
939393930,22.22,0.0,0.0,0.0,-0.31392000000000003,-0.27468000000000004,9.819809999999999
944444435,22.22,0.0,0.0,0.0,-0.28449,-0.23544,9.83943
949494940,22.22,0.0,0.0,0.0,-0.28449,-0.26487,9.84924
954545445,22.22,0.0,0.0,0.0,-0.34335000000000004,-0.27468000000000004,9.83943
959595950,22.22,0.0,0.0,0.0,-0.33354000000000006,-0.24525000000000002,9.84924
964646455,22.22,0.0,0.0,0.0,-0.28449,-0.22563,9.82962
969696960,22.22,0.0,0.0,0.0,-0.30411,-0.27468000000000004,9.82962
974747465,22.22,0.0,0.0,0.0,-0.32373,-0.24525000000000002,9.83943
979797970,22.22,0.0,0.0,0.0,-0.27468000000000004,-0.21582,9.819809999999999
984848475,22.22,0.0,0.0,0.0,-0.2943,-0.28449,9.81
989898980,22.22,0.0,0.0,0.0,-0.31392000000000003,-0.25506,9.84924
994949485,22.22,0.0,0.0,0.0,-0.30411,-0.23544,9.82962
999999990,22.22,0.0,0.0,0.0,-0.31392000000000003,-0.22563,9.83943
1005050495,22.22,0.0,0.0,0.0,-0.28449,-0.25506,9.81
1010101000,22.22,0.0,0.0,0.0,-0.30411,-0.26487,9.83943
1015151505,22.22,0.0,0.0,0.0,-0.31392000000000003,-0.25506,9.84924
1020202010,22.22,0.0,0.0,0.0,-0.30411,-0.26487,9.81
1025252515,22.22,0.0,0.0,0.0,-0.31392000000000003,-0.25506,9.82962
1030303020,22.22,0.0,0.0,0.0,-0.30411,-0.27468000000000004,9.819809999999999
1035353525,22.22,0.0,0.0,0.0,-0.30411,-0.26487,9.87867
1040404030,22.22,0.0,0.0,0.0,-0.2943,-0.23544,9.819809999999999
1045454535,22.22,0.0,0.0,0.0,-0.30411,-0.27468000000000004,9.819809999999999
1050505040,22.22,0.0,0.0,0.0,-0.30411,-0.26487,9.82962
1055555545,22.22,0.0,0.0,0.0,-0.30411,-0.24525000000000002,9.83943
1060606050,22.22,0.0,0.0,0.0,-0.2943,-0.22563,9.82962
1065656555,22.22,0.0,0.0,0.0,-0.2943,-0.27468000000000004,9.81
1070707060,22.22,0.0,0.0,0.0,-0.2943,-0.25506,9.82962
1075757565,22.22,0.0,0.0,0.0,-0.30411,-0.22563,9.84924
1080808070,22.22,0.0,0.0,0.0,-0.30411,-0.25506,9.82962
1085858575,22.22,0.0,0.0,0.0,-0.30411,-0.26487,9.819809999999999
1090909080,22.22,0.0,0.0,0.0,-0.32373,-0.23544,9.819809999999999
1095959585,22.22,0.0,0.0,0.0,-0.30411,-0.23544,9.819809999999999
1101010090,22.22,0.0,0.0,0.0,-0.28449,-0.25506,9.84924
1106060595,22.22,0.0,0.0,0.0,-0.30411,-0.26487,9.819809999999999
1111111100,22.22,0.0,0.0,0.0,-0.30411,-0.23544,9.819809999999999
1116161605,22.22,0.0,0.0,0.0,-0.2943,-0.22563,9.819809999999999
1121212110,22.22,0.0,0.0,0.0,-0.2943,-0.26487,9.82962
1126262615,22.22,0.0,0.0,0.0,-0.30411,-0.26487,9.82962
1131313120,22.22,0.0,0.0,0.0,-0.30411,-0.23544,9.82962
1136363625,22.22,0.0,0.0,0.0,-0.30411,-0.26487,9.82962
1141414130,22.22,0.0,0.0,0.0,-0.32373,-0.27468000000000004,9.819809999999999
1146464635,22.22,0.0,0.0,0.0,-0.31392000000000003,-0.22563,9.86886
1151515140,22.22,0.0,0.0,0.0,-0.2943,-0.25506,9.83943
1156565645,22.22,0.0,0.0,0.0,-0.30411,-0.24525000000000002,9.83943
1161616150,22.22,0.0,0.0,0.0,-0.30411,-0.25506,9.82962
1166666655,22.22,0.0,0.0,0.0,-0.30411,-0.24525000000000002,9.819809999999999
1171717160,22.22,0.0,0.0,0.0,-0.2943,-0.28449,9.819809999999999
1176767665,22.22,0.0,0.0,0.0,-0.2943,-0.23544,9.819809999999999
1181818170,22.22,0.0,0.0,0.0,-0.30411,-0.24525000000000002,9.82962
1186868675,22.22,0.0,0.0,0.0,-0.2943,-0.27468000000000004,9.82962
1191919180,22.22,0.0,0.0,0.0,-0.31392000000000003,-0.28449,9.81
1196969685,22.22,0.0,0.0,0.0,-0.30411,-0.22563,9.82962
1202020190,22.22,0.0,0.0,0.0,-0.2943,-0.25506,9.81
1207070695,22.22,0.0,0.0,0.0,-0.32373,-0.26487,9.82962
1212121200,22.22,0.0,0.0,0.0,-0.32373,-0.23544,9.85905
1217171705,22.22,0.0,0.0,0.0,-0.26487,-0.24525000000000002,9.83943
1222222210,22.22,0.0,0.0,0.0,-0.28449,-0.26487,9.82962
1227272715,22.22,0.0,0.0,0.0,-0.31392000000000003,-0.25506,9.83943
1232323220,22.22,0.0,0.0,0.0,-0.30411,-0.24525000000000002,9.819809999999999
1237373725,22.22,0.0,0.0,0.0,-0.2943,-0.27468000000000004,9.82962
1242424230,22.22,0.0,0.0,0.0,-0.2943,-0.27468000000000004,9.83943
1247474735,22.22,0.0,0.0,0.0,-0.31392000000000003,-0.22563,9.82962
1252525240,22.22,0.0,0.0,0.0,-0.30411,-0.25506,9.83943
1257575745,22.22,0.0,0.0,0.0,-0.31392000000000003,-0.25506,9.819809999999999
1262626250,22.22,0.0,0.0,0.0,-0.31392000000000003,-0.22563,9.83943
1267676755,22.22,0.0,0.0,0.0,-0.2943,-0.23544,9.819809999999999
1272727260,22.22,0.0,0.0,0.0,-0.2943,-0.25506,9.82962
1277777765,22.22,0.0,0.0,0.0,-0.2943,-0.25506,9.819809999999999
1282828270,22.22,0.0,0.0,0.0,-0.30411,-0.24525000000000002,9.82962
1287878775,22.22,0.0,0.0,0.0,-0.27468000000000004,-0.25506,9.82962
1292929280,22.22,0.0,0.0,0.0,-0.30411,-0.24525000000000002,9.84924
1297979785,22.22,0.0,0.0,0.0,-0.2943,-0.23544,9.83943
1303030290,22.22,0.0,0.0,0.0,-0.28449,-0.25506,9.82962
1308080795,22.22,0.0,0.0,0.0,-0.31392000000000003,-0.25506,9.83943
1313131300,22.22,0.0,0.0,0.0,-0.2943,-0.1962,9.83943
1318181805,22.22,0.0,0.0,0.0,-0.27468000000000004,-0.26487,9.81
1323232310,22.22,0.0,0.0,0.0,-0.30411,-0.27468000000000004,9.82962
1328282815,22.22,0.0,0.0,0.0,-0.30411,-0.21582,9.82962
1333333320,22.22,0.0,0.0,0.0,-0.27468000000000004,-0.25506,9.82962
1338383825,22.22,0.0,0.0,0.0,-0.31392000000000003,-0.26487,9.81
1343434330,22.22,0.0,0.0,0.0,-0.30411,-0.23544,9.82962
1348484835,22.22,0.0,0.0,0.0,-0.2943,-0.23544,9.83943
1353535340,22.22,0.0,0.0,0.0,-0.31392000000000003,-0.24525000000000002,9.82962
1358585845,22.22,0.0,0.0,0.0,-0.31392000000000003,-0.27468000000000004,9.81
1363636350,22.22,0.0,0.0,0.0,-0.31392000000000003,-0.24525000000000002,9.83943
1368686855,22.22,0.0,0.0,0.0,-0.2943,-0.27468000000000004,9.819809999999999
1373737360,22.22,0.0,0.0,0.0,-0.30411,-0.25506,9.83943
1378787865,22.22,0.0,0.0,0.0,-0.30411,-0.24525000000000002,9.83943
1383838370,22.22,0.0,0.0,0.0,-0.2943,-0.24525000000000002,9.82962
1388888875,22.22,0.0,0.0,0.0,-0.30411,-0.26487,9.819809999999999
1393939380,22.22,0.0,0.0,0.0,-0.30411,-0.25506,9.82962
1398989885,22.22,0.0,0.0,0.0,-0.27468000000000004,-0.23544,9.82962
1404040390,22.22,0.0,0.0,0.0,-0.30411,-0.26487,9.82962
1409090895,22.22,0.0,0.0,0.0,-0.2943,-0.24525000000000002,9.83943
1414141400,22.22,0.0,0.0,0.0,-0.30411,-0.23544,9.819809999999999
1419191905,22.22,0.0,0.0,0.0,-0.27468000000000004,-0.26487,9.819809999999999
1424242410,22.22,0.0,0.0,0.0,-0.31392000000000003,-0.25506,9.81
1429292915,22.22,0.0,0.0,0.0,-0.27468000000000004,-0.25506,9.84924
1434343420,22.22,0.0,0.0,0.0,-0.26487,-0.27468000000000004,9.82962
1439393925,22.22,0.0,0.0,0.0,-0.31392000000000003,-0.25506,9.81
1444444430,22.22,0.0,0.0,0.0,-0.30411,-0.26487,9.82962
1449494935,22.22,0.0,0.0,0.0,-0.26487,-0.26487,9.83943
1454545440,22.35,0.0,0.0,0.0,-0.31392000000000003,-0.24525000000000002,9.83943
1459595945,22.35,0.0,0.0,0.0,-0.28449,-0.26487,9.81
1464646450,22.35,0.0,0.0,0.0,-0.30411,-0.25506,9.82962
1469696955,22.35,0.0,0.0,0.0,-0.26487,-0.27468000000000004,9.82962
1474747460,22.35,0.0,0.0,0.0,-0.30411,-0.26487,9.82962
1479797965,22.35,0.0,0.0,0.0,-0.2943,-0.26487,9.81
1484848470,22.35,0.0,0.0,0.0,-0.30411,-0.27468000000000004,9.82962
1489898975,22.35,0.0,0.0,0.0,-0.2943,-0.28449,9.83943
1494949480,22.35,0.0,0.0,0.0,-0.33354000000000006,-0.25506,9.82962
1499999985,22.35,0.0,0.0,0.0,-0.30411,-0.23544,9.81
1505050490,22.35,0.0,0.0,0.0,-0.28449,-0.25506,9.84924
1510100995,22.35,0.0,0.0,0.0,-0.32373,-0.24525000000000002,9.83943
1515151500,22.35,0.0,0.0,0.0,-0.30411,-0.26487,9.81
1520202005,22.35,0.0,0.0,0.0,-0.2943,-0.26487,9.82962
1525252510,22.35,0.0,0.0,0.0,-0.31392000000000003,-0.26487,9.819809999999999
1530303015,22.35,0.0,0.0,0.0,-0.30411,-0.24525000000000002,9.83943
1535353520,22.35,0.0,0.0,0.0,-0.27468000000000004,-0.24525000000000002,9.82962
1540404025,22.35,0.0,0.0,0.0,-0.2943,-0.28449,9.819809999999999
1545454530,22.35,0.0,0.0,0.0,-0.31392000000000003,-0.24525000000000002,9.85905
1550505035,22.35,0.0,0.0,0.0,-0.2943,-0.24525000000000002,9.819809999999999
1555555540,22.35,0.0,0.0,0.0,-0.2943,-0.27468000000000004,9.83943
1560606045,22.35,0.0,0.0,0.0,-0.28449,-0.25506,9.81
1565656550,22.35,0.0,0.0,0.0,-0.28449,-0.23544,9.819809999999999
1570707055,22.35,0.0,0.0,0.0,-0.2943,-0.24525000000000002,9.82962
1575757560,22.35,0.0,0.0,0.0,-0.31392000000000003,-0.24525000000000002,9.82962
1580808065,22.35,0.0,0.0,0.0,-0.2943,-0.25506,9.82962
1585858570,22.35,0.0,0.0,0.0,-0.30411,-0.25506,9.83943
1590909075,22.35,0.0,0.0,0.0,-0.30411,-0.26487,9.81
1595959580,22.35,0.0,0.0,0.0,-0.31392000000000003,-0.24525000000000002,9.82962
1601010085,22.35,0.0,0.0,0.0,-0.28449,-0.25506,9.83943
1606060590,22.35,0.0,0.0,0.0,-0.28449,-0.27468000000000004,9.82962
1611111095,22.35,0.0,0.0,0.0,-0.30411,-0.25506,9.82962
1616161600,22.35,0.0,0.0,0.0,-0.2943,-0.22563,9.84924
1621212105,22.35,0.0,0.0,0.0,-0.2943,-0.27468000000000004,9.82962
1626262610,22.35,0.0,0.0,0.0,-0.31392000000000003,-0.25506,9.82962
1631313115,22.35,0.0,0.0,0.0,-0.30411,-0.21582,9.81
1636363620,22.35,0.0,0.0,0.0,-0.25506,-0.26487,9.82962
1641414125,22.35,0.0,0.0,0.0,-0.30411,-0.26487,9.83943
1646464630,22.35,0.0,0.0,0.0,-0.33354000000000006,-0.22563,9.83943
1651515135,22.35,0.0,0.0,0.0,-0.27468000000000004,-0.23544,9.82962
1656565640,22.35,0.0,0.0,0.0,-0.30411,-0.27468000000000004,9.81
1661616145,22.35,0.0,0.0,0.0,-0.33354000000000006,-0.26487,9.83943
1666666650,22.35,0.0,0.0,0.0,-0.2943,-0.24525000000000002,9.82962
1671717155,22.35,0.0,0.0,0.0,-0.2943,-0.28449,9.81
1676767660,22.35,0.0,0.0,0.0,-0.31392000000000003,-0.25506,9.81
1681818165,22.35,0.0,0.0,0.0,-0.30411,-0.25506,9.83943
1686868670,22.35,0.0,0.0,0.0,-0.28449,-0.23544,9.83943
1691919175,22.35,0.0,0.0,0.0,-0.30411,-0.28449,9.82962
1696969680,22.35,0.0,0.0,0.0,-0.31392000000000003,-0.26487,9.819809999999999
1702020185,22.35,0.0,0.0,0.0,-0.2943,-0.25506,9.83943
1707070690,22.35,0.0,0.0,0.0,-0.28449,-0.24525000000000002,9.82962
1712121195,22.35,0.0,0.0,0.0,-0.31392000000000003,-0.24525000000000002,9.82962
1717171700,22.35,0.0,0.0,0.0,-0.25506,-0.22563,9.819809999999999
1722222205,22.35,0.0,0.0,0.0,-0.27468000000000004,-0.26487,9.83943
1727272710,22.35,0.0,0.0,0.0,-0.32373,-0.23544,9.819809999999999
1732323215,22.35,0.0,0.0,0.0,-0.26487,-0.23544,9.82962
1737373720,22.35,0.0,0.0,0.0,-0.30411,-0.27468000000000004,9.83943
1742424225,22.35,0.0,0.0,0.0,-0.31392000000000003,-0.26487,9.819809999999999
1747474730,22.35,0.0,0.0,0.0,-0.2943,-0.21582,9.83943
1752525235,22.35,0.0,0.0,0.0,-0.28449,-0.24525000000000002,9.83943
1757575740,22.35,0.0,0.0,0.0,-0.30411,-0.28449,9.83943
1762626245,22.35,0.0,0.0,0.0,-0.32373,-0.23544,9.82962
1767676750,22.35,0.0,0.0,0.0,-0.30411,-0.25506,9.83943
1772727255,22.35,0.0,0.0,0.0,-0.28449,-0.26487,9.82962
1777777760,22.35,0.0,0.0,0.0,-0.31392000000000003,-0.25506,9.82962
1782828265,22.35,0.0,0.0,0.0,-0.31392000000000003,-0.23544,9.819809999999999
1787878770,22.35,0.0,0.0,0.0,-0.25506,-0.27468000000000004,9.81
1792929275,22.35,0.0,0.0,0.0,-0.31392000000000003,-0.25506,9.819809999999999
1797979780,22.35,0.0,0.0,0.0,-0.2943,-0.25506,9.82962
1803030285,22.35,0.0,0.0,0.0,-0.30411,-0.25506,9.83943
1808080790,22.35,0.0,0.0,0.0,-0.30411,-0.28449,9.83943
1813131295,22.35,0.0,0.0,0.0,-0.30411,-0.24525000000000002,9.82962
1818181800,22.35,0.0,0.0,0.0,-0.30411,-0.24525000000000002,9.83943
1823232305,22.35,0.0,0.0,0.0,-0.2943,-0.24525000000000002,9.84924
1828282810,22.35,0.0,0.0,0.0,-0.28449,-0.23544,9.82962
1833333315,22.35,0.0,0.0,0.0,-0.31392000000000003,-0.26487,9.819809999999999
1838383820,22.35,0.0,0.0,0.0,-0.2943,-0.27468000000000004,9.82962
1843434325,22.35,0.0,0.0,0.0,-0.30411,-0.25506,9.83943
1848484830,22.35,0.0,0.0,0.0,-0.31392000000000003,-0.21582,9.83943
1853535335,22.35,0.0,0.0,0.0,-0.32373,-0.23544,9.84924
1858585840,22.35,0.0,0.0,0.0,-0.2943,-0.26487,9.819809999999999
1863636345,22.35,0.0,0.0,0.0,-0.32373,-0.24525000000000002,9.819809999999999
1868686850,22.35,0.0,0.0,0.0,-0.30411,-0.25506,9.81
1873737355,22.35,0.0,0.0,0.0,-0.2943,-0.27468000000000004,9.81
1878787860,22.35,0.0,0.0,0.0,-0.28449,-0.26487,9.81
1883838365,22.35,0.0,0.0,0.0,-0.2943,-0.21582,9.819809999999999
1888888870,22.35,0.0,0.0,0.0,-0.26487,-0.22563,9.80019
1893939375,22.35,0.0,0.0,0.0,-0.28449,-0.27468000000000004,9.82962
1898989880,22.35,0.0,0.0,0.0,-0.33354000000000006,-0.23544,9.85905
1904040385,22.35,0.0,0.0,0.0,-0.2943,-0.22563,9.84924
1909090890,22.35,0.0,0.0,0.0,-0.27468000000000004,-0.24525000000000002,9.80019
1914141395,22.35,0.0,0.0,0.0,-0.31392000000000003,-0.28449,9.82962
1919191900,22.35,0.0,0.0,0.0,-0.31392000000000003,-0.24525000000000002,9.83943
1924242405,22.35,0.0,0.0,0.0,-0.31392000000000003,-0.23544,9.83943
1929292910,22.35,0.0,0.0,0.0,-0.30411,-0.24525000000000002,9.80019
1934343415,22.35,0.0,0.0,0.0,-0.30411,-0.26487,9.84924
1939393920,22.35,0.0,0.0,0.0,-0.28449,-0.23544,9.83943
1944444425,22.35,0.0,0.0,0.0,-0.28449,-0.26487,9.819809999999999
1949494930,22.35,0.0,0.0,0.0,-0.31392000000000003,-0.25506,9.82962
1954545435,22.35,0.0,0.0,0.0,-0.30411,-0.24525000000000002,9.82962
1959595940,22.35,0.0,0.0,0.0,-0.28449,-0.25506,9.80019
1964646445,22.35,0.0,0.0,0.0,-0.28449,-0.25506,9.82962
1969696950,22.35,0.0,0.0,0.0,-0.2943,-0.22563,9.80019
1974747455,22.35,0.0,0.0,0.0,-0.2943,-0.23544,9.819809999999999
1979797960,22.35,0.0,0.0,0.0,-0.31392000000000003,-0.24525000000000002,9.819809999999999
1984848465,22.35,0.0,0.0,0.0,-0.31392000000000003,-0.22563,9.819809999999999
1989898970,22.35,0.0,0.0,0.0,-0.27468000000000004,-0.26487,9.82962
1994949475,22.35,0.0,0.0,0.0,-0.30411,-0.25506,9.81
1999999980,22.35,0.0,0.0,0.0,-0.28449,-0.20601000000000003,9.81
2005050485,22.35,0.0,0.0,0.0,-0.2943,-0.25506,9.819809999999999
2010100990,22.35,0.0,0.0,0.0,-0.28449,-0.28449,9.82962
2015151495,22.35,0.0,0.0,0.0,-0.28449,-0.24525000000000002,9.82962
2020202000,22.35,0.0,0.0,0.0,-0.30411,-0.21582,9.82962
2025252505,22.35,0.0,0.0,0.0,-0.30411,-0.24525000000000002,9.80019
2030303010,22.35,0.0,0.0,0.0,-0.2943,-0.26487,9.81
2035353515,22.35,0.0,0.0,0.0,-0.30411,-0.22563,9.85905
2040404020,22.35,0.0,0.0,0.0,-0.2943,-0.24525000000000002,9.82962
2045454525,22.35,0.0,0.0,0.0,-0.28449,-0.24525000000000002,9.81
2050505030,22.35,0.0,0.0,0.0,-0.33354000000000006,-0.22563,9.84924
2055555535,22.35,0.0,0.0,0.0,-0.2943,-0.22563,9.83943
2060606040,22.35,0.0,0.0,0.0,-0.31392000000000003,-0.24525000000000002,9.82962
2065656545,22.35,0.0,0.0,0.0,-0.2943,-0.23544,9.83943
2070707050,22.35,0.0,0.0,0.0,-0.30411,-0.23544,9.82962
2075757555,22.35,0.0,0.0,0.0,-0.26487,-0.26487,9.84924
2080808060,22.35,0.0,0.0,0.0,-0.28449,-0.22563,9.83943
2085858565,22.35,0.0,0.0,0.0,-0.31392000000000003,-0.25506,9.819809999999999
2090909070,22.35,0.0,0.0,0.0,-0.30411,-0.25506,9.83943
2095959575,22.35,0.0,0.0,0.0,-0.2943,-0.24525000000000002,9.82962
2101010080,22.35,0.0,0.0,0.0,-0.31392000000000003,-0.25506,9.85905
2106060585,22.35,0.0,0.0,0.0,-0.28449,-0.25506,9.82962
2111111090,22.35,0.0,0.0,0.0,-0.2943,-0.26487,9.82962
2116161595,22.35,0.0,0.0,0.0,-0.30411,-0.25506,9.819809999999999
2121212100,22.35,0.0,0.0,0.0,-0.2943,-0.22563,9.81
2126262605,22.35,0.0,0.0,0.0,-0.31392000000000003,-0.26487,9.82962
2131313110,22.35,0.0,0.0,0.0,-0.30411,-0.25506,9.819809999999999
2136363615,22.35,0.0,0.0,0.0,-0.28449,-0.25506,9.83943
2141414120,22.35,0.0,0.0,0.0,-0.26487,-0.24525000000000002,9.86886
2146464625,22.35,0.0,0.0,0.0,-0.31392000000000003,-0.26487,9.819809999999999
2151515130,22.35,0.0,0.0,0.0,-0.2943,-0.24525000000000002,9.82962
2156565635,22.35,0.0,0.0,0.0,-0.30411,-0.25506,9.82962
2161616140,22.35,0.0,0.0,0.0,-0.27468000000000004,-0.27468000000000004,9.819809999999999
2166666645,22.35,0.0,0.0,0.0,-0.2943,-0.27468000000000004,9.82962
2171717150,22.35,0.0,0.0,0.0,-0.28449,-0.23544,9.819809999999999
2176767655,22.35,0.0,0.0,0.0,-0.28449,-0.24525000000000002,9.82962
2181818160,22.35,0.0,0.0,0.0,-0.30411,-0.26487,9.82962
2186868665,22.35,0.0,0.0,0.0,-0.28449,-0.27468000000000004,9.819809999999999
2191919170,22.35,0.0,0.0,0.0,-0.33354000000000006,-0.24525000000000002,9.85905
2196969675,22.35,0.0,0.0,0.0,-0.26487,-0.22563,9.83943
2202020180,22.35,0.0,0.0,0.0,-0.2943,-0.24525000000000002,9.819809999999999
2207070685,22.35,0.0,0.0,0.0,-0.30411,-0.23544,9.82962
2212121190,22.35,0.0,0.0,0.0,-0.26487,-0.24525000000000002,9.819809999999999
2217171695,22.35,0.0,0.0,0.0,-0.31392000000000003,-0.26487,9.82962
2222222200,22.35,0.0,0.0,0.0,-0.30411,-0.25506,9.82962
2227272705,22.35,0.0,0.0,0.0,-0.30411,-0.23544,9.82962
2232323210,22.35,0.0,0.0,0.0,-0.31392000000000003,-0.27468000000000004,9.81
2237373715,22.35,0.0,0.0,0.0,-0.28449,-0.23544,9.819809999999999
2242424220,22.35,0.0,0.0,0.0,-0.31392000000000003,-0.22563,9.84924
2247474725,22.35,0.0,0.0,0.0,-0.31392000000000003,-0.25506,9.81
2252525230,22.35,0.0,0.0,0.0,-0.32373,-0.25506,9.80019
2257575735,22.35,0.0,0.0,0.0,-0.28449,-0.22563,9.819809999999999
2262626240,22.35,0.0,0.0,0.0,-0.27468000000000004,-0.24525000000000002,9.83943
2267676745,22.35,0.0,0.0,0.0,-0.33354000000000006,-0.26487,9.819809999999999
2272727250,22.35,0.0,0.0,0.0,-0.32373,-0.23544,9.819809999999999
2277777755,22.35,0.0,0.0,0.0,-0.26487,-0.25506,9.819809999999999
2282828260,22.35,0.0,0.0,0.0,-0.2943,-0.26487,9.84924
2287878765,22.35,0.0,0.0,0.0,-0.2943,-0.23544,9.83943
2292929270,22.35,0.0,0.0,0.0,-0.30411,-0.23544,9.82962
2297979775,22.35,0.0,0.0,0.0,-0.31392000000000003,-0.25506,9.84924
2303030280,22.35,0.0,0.0,0.0,-0.30411,-0.26487,9.82962
2308080785,22.35,0.0,0.0,0.0,-0.2943,-0.22563,9.86886
2313131290,22.35,0.0,0.0,0.0,-0.30411,-0.26487,9.82962
2318181795,22.35,0.0,0.0,0.0,-0.30411,-0.26487,9.83943
2323232300,22.35,0.0,0.0,0.0,-0.2943,-0.24525000000000002,9.819809999999999
2328282805,22.35,0.0,0.0,0.0,-0.2943,-0.24525000000000002,9.81
2333333310,22.35,0.0,0.0,0.0,-0.30411,-0.26487,9.83943
2338383815,22.35,0.0,0.0,0.0,-0.31392000000000003,-0.26487,9.85905
2343434320,22.35,0.0,0.0,0.0,-0.27468000000000004,-0.25506,9.82962
2348484825,22.35,0.0,0.0,0.0,-0.30411,-0.26487,9.819809999999999
2353535330,22.35,0.0,0.0,0.0,-0.30411,-0.24525000000000002,9.81
2358585835,22.35,0.0,0.0,0.0,-0.27468000000000004,-0.26487,9.819809999999999
2363636340,22.35,0.0,0.0,0.0,-0.28449,-0.25506,9.83943
2368686845,22.35,0.0,0.0,0.0,-0.31392000000000003,-0.24525000000000002,9.81
2373737350,22.35,0.0,0.0,0.0,-0.30411,-0.26487,9.81
2378787855,22.35,0.0,0.0,0.0,-0.2943,-0.27468000000000004,9.819809999999999
2383838360,22.35,0.0,0.0,0.0,-0.28449,-0.24525000000000002,9.819809999999999
2388888865,22.35,0.0,0.0,0.0,-0.28449,-0.25506,9.82962
2393939370,22.35,0.0,0.0,0.0,-0.30411,-0.26487,9.83943
2398989875,22.35,0.0,0.0,0.0,-0.28449,-0.26487,9.83943
2404040380,22.35,0.0,0.0,0.0,-0.28449,-0.24525000000000002,9.83943
2409090885,22.35,0.0,0.0,0.0,-0.28449,-0.26487,9.83943
2414141390,22.35,0.0,0.0,0.0,-0.28449,-0.23544,9.83943
2419191895,22.35,0.0,0.0,0.0,-0.30411,-0.24525000000000002,9.819809999999999
2424242400,22.35,0.0,0.0,0.0,-0.2943,-0.24525000000000002,9.82962
2429292905,22.35,0.0,0.0,0.0,-0.30411,-0.26487,9.84924
2434343410,22.35,0.0,0.0,0.0,-0.30411,-0.25506,9.82962
2439393915,22.35,0.0,0.0,0.0,-0.2943,-0.24525000000000002,9.82962
2444444420,22.35,0.0,0.0,0.0,-0.27468000000000004,-0.28449,9.819809999999999
2449494925,22.35,0.0,0.0,0.0,-0.30411,-0.26487,9.819809999999999
2454545430,22.35,0.0,0.0,0.0,-0.32373,-0.23544,9.819809999999999
2459595935,22.35,0.0,0.0,0.0,-0.2943,-0.25506,9.84924
2464646440,22.35,0.0,0.0,0.0,-0.28449,-0.25506,9.82962
2469696945,22.35,0.0,0.0,0.0,-0.30411,-0.27468000000000004,9.82962
2474747450,22.35,0.0,0.0,0.0,-0.2943,-0.24525000000000002,9.83943
2479797955,22.35,0.0,0.0,0.0,-0.27468000000000004,-0.22563,9.82962
2484848460,22.35,0.0,0.0,0.0,-0.30411,-0.24525000000000002,9.819809999999999
2489898965,22.35,0.0,0.0,0.0,-0.31392000000000003,-0.25506,9.82962
2494949470,22.35,0.0,0.0,0.0,-0.28449,-0.27468000000000004,9.84924
2499999975,22.35,0.0,0.0,0.0,-0.27468000000000004,-0.24525000000000002,9.819809999999999
2505050480,22.35,0.0,0.0,0.0,-0.2943,-0.25506,9.819809999999999
2510100985,22.35,0.0,0.0,0.0,-0.30411,-0.25506,9.82962
2515151490,22.35,0.0,0.0,0.0,-0.30411,-0.24525000000000002,9.819809999999999
2520201995,22.35,0.0,0.0,0.0,-0.28449,-0.25506,9.819809999999999
2525252500,22.35,0.0,0.0,0.0,-0.30411,-0.27468000000000004,9.83943
2530303005,22.35,0.0,0.0,0.0,-0.30411,-0.22563,9.83943
2535353510,22.35,0.0,0.0,0.0,-0.28449,-0.25506,9.82962
2540404015,22.35,0.0,0.0,0.0,-0.28449,-0.24525000000000002,9.81
2545454520,22.35,0.0,0.0,0.0,-0.2943,-0.26487,9.82962
2550505025,22.35,0.0,0.0,0.0,-0.27468000000000004,-0.22563,9.82962
2555555530,22.35,0.0,0.0,0.0,-0.30411,-0.23544,9.83943
2560606035,22.35,0.0,0.0,0.0,-0.27468000000000004,-0.24525000000000002,9.83943
2565656540,22.35,0.0,0.0,0.0,-0.2943,-0.25506,9.85905
2570707045,22.35,0.0,0.0,0.0,-0.28449,-0.23544,9.83943
2575757550,22.35,0.0,0.0,0.0,-0.28449,-0.24525000000000002,9.81
2580808055,22.35,0.0,0.0,0.0,-0.2943,-0.25506,9.81
2585858560,22.35,0.0,0.0,0.0,-0.30411,-0.23544,9.819809999999999
2590909065,22.35,0.0,0.0,0.0,-0.31392000000000003,-0.25506,9.84924
2595959570,22.35,0.0,0.0,0.0,-0.28449,-0.26487,9.82962
2601010075,22.35,0.0,0.0,0.0,-0.32373,-0.24525000000000002,9.83943
2606060580,22.35,0.0,0.0,0.0,-0.27468000000000004,-0.23544,9.81
2611111085,22.35,0.0,0.0,0.0,-0.27468000000000004,-0.24525000000000002,9.83943
2616161590,22.35,0.0,0.0,0.0,-0.30411,-0.25506,9.82962
2621212095,22.35,0.0,0.0,0.0,-0.2943,-0.24525000000000002,9.84924
2626262600,22.35,0.0,0.0,0.0,-0.28449,-0.25506,9.82962
2631313105,22.35,0.0,0.0,0.0,-0.2943,-0.27468000000000004,9.84924
2636363610,22.35,0.0,0.0,0.0,-0.28449,-0.25506,9.82962
2641414115,22.35,0.0,0.0,0.0,-0.31392000000000003,-0.23544,9.83943
2646464620,22.35,0.0,0.0,0.0,-0.2943,-0.24525000000000002,9.81
2651515125,22.35,0.0,0.0,0.0,-0.2943,-0.25506,9.82962
2656565630,22.35,0.0,0.0,0.0,-0.27468000000000004,-0.25506,9.83943
2661616135,22.35,0.0,0.0,0.0,-0.31392000000000003,-0.24525000000000002,9.82962
2666666640,22.35,0.0,0.0,0.0,-0.33354000000000006,-0.28449,9.81
2671717145,22.35,0.0,0.0,0.0,-0.30411,-0.24525000000000002,9.83943
2676767650,22.35,0.0,0.0,0.0,-0.28449,-0.22563,9.819809999999999
2681818155,22.35,0.0,0.0,0.0,-0.28449,-0.27468000000000004,9.81
2686868660,22.35,0.0,0.0,0.0,-0.30411,-0.27468000000000004,9.81
2691919165,22.35,0.0,0.0,0.0,-0.2943,-0.22563,9.83943
2696969670,22.35,0.0,0.0,0.0,-0.2943,-0.26487,9.819809999999999
2702020175,22.35,0.0,0.0,0.0,-0.31392000000000003,-0.25506,9.82962
2707070680,22.35,0.0,0.0,0.0,-0.28449,-0.23544,9.83943
2712121185,22.35,0.0,0.0,0.0,-0.32373,-0.23544,9.83943
2717171690,22.35,0.0,0.0,0.0,-0.28449,-0.26487,9.83943
2722222195,22.35,0.0,0.0,0.0,-0.30411,-0.24525000000000002,9.819809999999999
2727272700,22.35,0.0,0.0,0.0,-0.30411,-0.28449,9.85905
2732323205,22.35,0.0,0.0,0.0,-0.28449,-0.25506,9.819809999999999
2737373710,22.35,0.0,0.0,0.0,-0.31392000000000003,-0.23544,9.819809999999999
2742424215,22.35,0.0,0.0,0.0,-0.30411,-0.26487,9.82962
2747474720,22.35,0.0,0.0,0.0,-0.28449,-0.25506,9.82962
2752525225,22.35,0.0,0.0,0.0,-0.2943,-0.23544,9.819809999999999
2757575730,22.35,0.0,0.0,0.0,-0.28449,-0.22563,9.819809999999999
2762626235,22.35,0.0,0.0,0.0,-0.2943,-0.26487,9.82962
2767676740,22.35,0.0,0.0,0.0,-0.33354000000000006,-0.27468000000000004,9.84924
2772727245,22.35,0.0,0.0,0.0,-0.28449,-0.24525000000000002,9.82962
2777777750,22.35,0.0,0.0,0.0,-0.27468000000000004,-0.28449,9.819809999999999
2782828255,22.35,0.0,0.0,0.0,-0.2943,-0.26487,9.82962
2787878760,22.35,0.0,0.0,0.0,-0.30411,-0.23544,9.83943
2792929265,22.35,0.0,0.0,0.0,-0.26487,-0.23544,9.819809999999999
2797979770,22.35,0.0,0.0,0.0,-0.27468000000000004,-0.24525000000000002,9.83943
2803030275,22.35,0.0,0.0,0.0,-0.2943,-0.24525000000000002,9.82962
2808080780,22.35,0.0,0.0,0.0,-0.27468000000000004,-0.23544,9.84924
2813131285,22.35,0.0,0.0,0.0,-0.30411,-0.27468000000000004,9.81
2818181790,22.35,0.0,0.0,0.0,-0.31392000000000003,-0.25506,9.82962
2823232295,22.35,0.0,0.0,0.0,-0.2943,-0.25506,9.82962
2828282800,22.35,0.0,0.0,0.0,-0.28449,-0.26487,9.82962
2833333305,22.35,0.0,0.0,0.0,-0.32373,-0.25506,9.82962
2838383810,22.35,0.0,0.0,0.0,-0.2943,-0.24525000000000002,9.81
2843434315,22.35,0.0,0.0,0.0,-0.2943,-0.25506,9.83943
2848484820,22.35,0.0,0.0,0.0,-0.28449,-0.25506,9.81
2853535325,22.35,0.0,0.0,0.0,-0.2943,-0.21582,9.84924
2858585830,22.35,0.0,0.0,0.0,-0.30411,-0.25506,9.819809999999999
2863636335,22.35,0.0,0.0,0.0,-0.2943,-0.26487,9.819809999999999
2868686840,22.35,0.0,0.0,0.0,-0.28449,-0.24525000000000002,9.84924
2873737345,22.35,0.0,0.0,0.0,-0.30411,-0.26487,9.82962
2878787850,22.35,0.0,0.0,0.0,-0.27468000000000004,-0.27468000000000004,9.82962
2883838355,22.35,0.0,0.0,0.0,-0.31392000000000003,-0.26487,9.83943
2888888860,22.35,0.0,0.0,0.0,-0.2943,-0.23544,9.81
2893939365,22.35,0.0,0.0,0.0,-0.27468000000000004,-0.28449,9.82962
2898989870,22.35,0.0,0.0,0.0,-0.31392000000000003,-0.26487,9.83943
2904040375,22.35,0.0,0.0,0.0,-0.30411,-0.21582,9.819809999999999
2909090880,22.35,0.0,0.0,0.0,-0.28449,-0.23544,9.819809999999999
2914141385,22.35,0.0,0.0,0.0,-0.30411,-0.27468000000000004,9.819809999999999
2919191890,22.35,0.0,0.0,0.0,-0.30411,-0.25506,9.84924
2924242395,22.35,0.0,0.0,0.0,-0.30411,-0.21582,9.819809999999999
2929292900,22.35,0.0,0.0,0.0,-0.2943,-0.25506,9.84924
2934343405,22.35,0.0,0.0,0.0,-0.28449,-0.26487,9.819809999999999
2939393910,22.35,0.0,0.0,0.0,-0.32373,-0.26487,9.82962
2944444415,22.35,0.0,0.0,0.0,-0.30411,-0.25506,9.83943
2949494920,22.35,0.0,0.0,0.0,-0.30411,-0.22563,9.85905
2954545425,22.35,0.0,0.0,0.0,-0.2943,-0.24525000000000002,9.819809999999999
2959595930,22.35,0.0,0.0,0.0,-0.31392000000000003,-0.25506,9.82962
2964646435,22.35,0.0,0.0,0.0,-0.2943,-0.23544,9.82962
2969696940,22.35,0.0,0.0,0.0,-0.31392000000000003,-0.24525000000000002,9.819809999999999
2974747445,22.35,0.0,0.0,0.0,-0.30411,-0.24525000000000002,9.83943
2979797950,22.35,0.0,0.0,0.0,-0.2943,-0.25506,9.82962
2984848455,22.35,0.0,0.0,0.0,-0.28449,-0.23544,9.84924
2989898960,22.35,0.0,0.0,0.0,-0.28449,-0.22563,9.82962
2994949465,22.35,0.0,0.0,0.0,-0.30411,-0.26487,9.819809999999999
2999999970,22.35,0.0,0.0,0.0,-0.2943,-0.26487,9.84924
3005050475,22.35,0.0,0.0,0.0,-0.2943,-0.24525000000000002,9.819809999999999
3010100980,22.35,0.0,0.0,0.0,-0.28449,-0.26487,9.81
3015151485,22.35,0.0,0.0,0.0,-0.31392000000000003,-0.25506,9.819809999999999
3020201990,22.35,0.0,0.0,0.0,-0.30411,-0.26487,9.84924
3025252495,22.35,0.0,0.0,0.0,-0.30411,-0.22563,9.82962
3030303000,22.35,0.0,0.0,0.0,-0.2943,-0.23544,9.83943
3035353505,22.35,0.0,0.0,0.0,-0.30411,-0.24525000000000002,9.819809999999999
3040404010,22.35,0.0,0.0,0.0,-0.30411,-0.24525000000000002,9.84924
3045454515,22.35,0.0,0.0,0.0,-0.26487,-0.23544,9.819809999999999
3050505020,22.35,0.0,0.0,0.0,-0.31392000000000003,-0.22563,9.819809999999999
3055555525,22.35,0.0,0.0,0.0,-0.28449,-0.25506,9.81
3060606030,22.35,0.0,0.0,0.0,-0.26487,-0.25506,9.83943
3065656535,22.35,0.0,0.0,0.0,-0.2943,-0.25506,9.83943
3070707040,22.35,0.0,0.0,0.0,-0.31392000000000003,-0.24525000000000002,9.819809999999999
3075757545,22.35,0.0,0.0,0.0,-0.2943,-0.25506,9.84924
3080808050,22.35,0.0,0.0,0.0,-0.32373,-0.26487,9.83943
3085858555,22.35,0.0,0.0,0.0,-0.28449,-0.24525000000000002,9.81
3090909060,22.35,0.0,0.0,0.0,-0.28449,-0.24525000000000002,9.82962
3095959565,22.35,0.0,0.0,0.0,-0.28449,-0.25506,9.819809999999999
3101010070,22.35,0.0,0.0,0.0,-0.2943,-0.26487,9.819809999999999
3106060575,22.35,0.0,0.0,0.0,-0.31392000000000003,-0.26487,9.819809999999999
3111111080,22.35,0.0,0.0,0.0,-0.2943,-0.26487,9.82962
3116161585,22.35,0.0,0.0,0.0,-0.31392000000000003,-0.23544,9.83943
3121212090,22.35,0.0,0.0,0.0,-0.32373,-0.24525000000000002,9.84924
3126262595,22.35,0.0,0.0,0.0,-0.28449,-0.25506,9.82962
3131313100,22.35,0.0,0.0,0.0,-0.30411,-0.25506,9.83943
3136363605,22.35,0.0,0.0,0.0,-0.31392000000000003,-0.23544,9.82962
3141414110,22.35,0.0,0.0,0.0,-0.28449,-0.23544,9.84924
3146464615,22.35,0.0,0.0,0.0,-0.27468000000000004,-0.25506,9.83943
3151515120,22.35,0.0,0.0,0.0,-0.2943,-0.24525000000000002,9.819809999999999
3156565625,22.35,0.0,0.0,0.0,-0.30411,-0.23544,9.83943
3161616130,22.35,0.0,0.0,0.0,-0.28449,-0.22563,9.82962
3166666635,22.35,0.0,0.0,0.0,-0.32373,-0.27468000000000004,9.81
3171717140,22.35,0.0,0.0,0.0,-0.32373,-0.25506,9.83943
3176767645,22.35,0.0,0.0,0.0,-0.2943,-0.26487,9.80019
3181818150,22.35,0.0,0.0,0.0,-0.2943,-0.26487,9.819809999999999
3186868655,22.35,0.0,0.0,0.0,-0.2943,-0.26487,9.83943
3191919160,22.35,0.0,0.0,0.0,-0.31392000000000003,-0.25506,9.82962
3196969665,22.35,0.0,0.0,0.0,-0.30411,-0.27468000000000004,9.819809999999999
3202020170,22.35,0.0,0.0,0.0,-0.30411,-0.23544,9.85905
3207070675,22.35,0.0,0.0,0.0,-0.2943,-0.26487,9.82962
3212121180,22.35,0.0,0.0,0.0,-0.27468000000000004,-0.27468000000000004,9.82962
3217171685,22.35,0.0,0.0,0.0,-0.28449,-0.23544,9.82962
3222222190,22.35,0.0,0.0,0.0,-0.30411,-0.23544,9.81
3227272695,22.35,0.0,0.0,0.0,-0.28449,-0.24525000000000002,9.82962
3232323200,22.35,0.0,0.0,0.0,-0.2943,-0.24525000000000002,9.82962
3237373705,22.35,0.0,0.0,0.0,-0.2943,-0.25506,9.84924
3242424210,22.35,0.0,0.0,0.0,-0.28449,-0.26487,9.82962
3247474715,22.35,0.0,0.0,0.0,-0.30411,-0.25506,9.819809999999999
3252525220,22.35,0.0,0.0,0.0,-0.31392000000000003,-0.23544,9.83943
3257575725,22.35,0.0,0.0,0.0,-0.28449,-0.25506,9.83943
3262626230,22.35,0.0,0.0,0.0,-0.33354000000000006,-0.26487,9.83943
3267676735,22.35,0.0,0.0,0.0,-0.32373,-0.26487,9.83943
3272727240,22.35,0.0,0.0,0.0,-0.30411,-0.24525000000000002,9.83943
3277777745,22.35,0.0,0.0,0.0,-0.27468000000000004,-0.24525000000000002,9.81
3282828250,22.35,0.0,0.0,0.0,-0.2943,-0.27468000000000004,9.819809999999999
3287878755,22.35,0.0,0.0,0.0,-0.31392000000000003,-0.23544,9.84924
3292929260,22.35,0.0,0.0,0.0,-0.28449,-0.22563,9.83943
3297979765,22.35,0.0,0.0,0.0,-0.28449,-0.24525000000000002,9.83943
3303030270,22.35,0.0,0.0,0.0,-0.31392000000000003,-0.26487,9.83943
3308080775,22.35,0.0,0.0,0.0,-0.28449,-0.23544,9.82962
3313131280,22.35,0.0,0.0,0.0,-0.26487,-0.26487,9.83943
3318181785,22.35,0.0,0.0,0.0,-0.32373,-0.25506,9.83943
3323232290,22.35,0.0,0.0,0.0,-0.31392000000000003,-0.23544,9.83943
3328282795,22.35,0.0,0.0,0.0,-0.2943,-0.23544,9.82962
3333333300,22.35,0.0,0.0,0.0,-0.2943,-0.26487,9.83943
3338383805,22.35,0.0,0.0,0.0,-0.30411,-0.25506,9.82962
3343434310,22.35,0.0,0.0,0.0,-0.2943,-0.24525000000000002,9.82962
3348484815,22.35,0.0,0.0,0.0,-0.2943,-0.27468000000000004,9.84924
3353535320,22.35,0.0,0.0,0.0,-0.30411,-0.24525000000000002,9.82962
3358585825,22.35,0.0,0.0,0.0,-0.26487,-0.25506,9.83943
3363636330,22.35,0.0,0.0,0.0,-0.26487,-0.26487,9.819809999999999
3368686835,22.35,0.0,0.0,0.0,-0.31392000000000003,-0.21582,9.83943
3373737340,22.35,0.0,0.0,0.0,-0.2943,-0.23544,9.819809999999999
3378787845,22.35,0.0,0.0,0.0,-0.31392000000000003,-0.26487,9.84924
3383838350,22.35,0.0,0.0,0.0,-0.32373,-0.25506,9.82962
3388888855,22.35,0.0,0.0,0.0,-0.30411,-0.24525000000000002,9.82962
3393939360,22.35,0.0,0.0,0.0,-0.28449,-0.24525000000000002,9.819809999999999
3398989865,22.35,0.0,0.0,0.0,-0.2943,-0.24525000000000002,9.82962
3404040370,22.35,0.0,0.0,0.0,-0.28449,-0.25506,9.82962
3409090875,22.35,0.0,0.0,0.0,-0.27468000000000004,-0.24525000000000002,9.85905
3414141380,22.35,0.0,0.0,0.0,-0.2943,-0.27468000000000004,9.82962
3419191885,22.35,0.0,0.0,0.0,-0.31392000000000003,-0.25506,9.82962
3424242390,22.35,0.0,0.0,0.0,-0.32373,-0.23544,9.82962
3429292895,22.35,0.0,0.0,0.0,-0.30411,-0.26487,9.81
3434343400,22.35,0.0,0.0,0.0,-0.31392000000000003,-0.27468000000000004,9.84924
3439393905,22.35,0.0,0.0,0.0,-0.2943,-0.24525000000000002,9.819809999999999
3444444410,22.35,0.0,0.0,0.0,-0.30411,-0.24525000000000002,9.82962
3449494915,22.35,0.0,0.0,0.0,-0.31392000000000003,-0.26487,9.83943
3454545420,22.35,0.0,0.0,0.0,-0.32373,-0.26487,9.82962
3459595925,22.35,0.0,0.0,0.0,-0.28449,-0.24525000000000002,9.82962
3464646430,22.35,0.0,0.0,0.0,-0.32373,-0.23544,9.83943
3469696935,22.35,0.0,0.0,0.0,-0.30411,-0.26487,9.819809999999999
3474747440,22.35,0.0,0.0,0.0,-0.2943,-0.23544,9.85905
3479797945,22.35,0.0,0.0,0.0,-0.30411,-0.25506,9.819809999999999
3484848450,22.35,0.0,0.0,0.0,-0.31392000000000003,-0.27468000000000004,9.82962
3489898955,22.35,0.0,0.0,0.0,-0.28449,-0.25506,9.83943
3494949460,22.35,0.0,0.0,0.0,-0.27468000000000004,-0.25506,9.83943
3499999965,22.35,0.0,0.0,0.0,-0.27468000000000004,-0.28449,9.83943
3505050470,22.35,0.0,0.0,0.0,-0.31392000000000003,-0.25506,9.84924
3510100975,22.35,0.0,0.0,0.0,-0.30411,-0.25506,9.83943
3515151480,22.35,0.0,0.0,0.0,-0.28449,-0.25506,9.81
3520201985,22.35,0.0,0.0,0.0,-0.30411,-0.23544,9.819809999999999
3525252490,22.35,0.0,0.0,0.0,-0.31392000000000003,-0.23544,9.84924
3530302995,22.35,0.0,0.0,0.0,-0.26487,-0.23544,9.82962
3535353500,22.35,0.0,0.0,0.0,-0.31392000000000003,-0.24525000000000002,9.82962
3540404005,22.35,0.0,0.0,0.0,-0.30411,-0.22563,9.83943
3545454510,22.35,0.0,0.0,0.0,-0.27468000000000004,-0.24525000000000002,9.83943
3550505015,22.35,0.0,0.0,0.0,-0.31392000000000003,-0.2943,9.81
3555555520,22.35,0.0,0.0,0.0,-0.31392000000000003,-0.21582,9.82962
3560606025,22.35,0.0,0.0,0.0,-0.2943,-0.22563,9.82962
3565656530,22.35,0.0,0.0,0.0,-0.26487,-0.28449,9.82962
3570707035,22.35,0.0,0.0,0.0,-0.31392000000000003,-0.26487,9.83943
3575757540,22.35,0.0,0.0,0.0,-0.2943,-0.24525000000000002,9.84924
3580808045,22.35,0.0,0.0,0.0,-0.26487,-0.25506,9.819809999999999
3585858550,22.35,0.0,0.0,0.0,-0.31392000000000003,-0.24525000000000002,9.82962
3590909055,22.35,0.0,0.0,0.0,-0.33354000000000006,-0.23544,9.819809999999999
3595959560,22.35,0.0,0.0,0.0,-0.32373,-0.23544,9.83943
3601010065,22.35,0.0,0.0,0.0,-0.27468000000000004,-0.25506,9.82962
3606060570,22.35,0.0,0.0,0.0,-0.31392000000000003,-0.24525000000000002,9.84924
3611111075,22.35,0.0,0.0,0.0,-0.2943,-0.24525000000000002,9.819809999999999
3616161580,22.35,0.0,0.0,0.0,-0.26487,-0.26487,9.819809999999999
3621212085,22.35,0.0,0.0,0.0,-0.30411,-0.23544,9.85905
3626262590,22.35,0.0,0.0,0.0,-0.31392000000000003,-0.20601000000000003,9.81
3631313095,22.35,0.0,0.0,0.0,-0.28449,-0.24525000000000002,9.81
3636363600,22.35,0.0,0.0,0.0,-0.30411,-0.24525000000000002,9.83943
3641414105,22.35,0.0,0.0,0.0,-0.30411,-0.23544,9.819809999999999
3646464610,22.35,0.0,0.0,0.0,-0.2943,-0.27468000000000004,9.82962
3651515115,22.35,0.0,0.0,0.0,-0.2943,-0.27468000000000004,9.84924
3656565620,22.35,0.0,0.0,0.0,-0.28449,-0.26487,9.83943
3661616125,22.35,0.0,0.0,0.0,-0.2943,-0.25506,9.819809999999999
3666666630,22.35,0.0,0.0,0.0,-0.30411,-0.27468000000000004,9.82962
3671717135,22.35,0.0,0.0,0.0,-0.2943,-0.23544,9.81
3676767640,22.35,0.0,0.0,0.0,-0.28449,-0.25506,9.819809999999999
3681818145,22.35,0.0,0.0,0.0,-0.27468000000000004,-0.26487,9.819809999999999
3686868650,22.35,0.0,0.0,0.0,-0.28449,-0.25506,9.819809999999999
3691919155,22.35,0.0,0.0,0.0,-0.31392000000000003,-0.25506,9.819809999999999
3696969660,22.35,0.0,0.0,0.0,-0.26487,-0.23544,9.80019
3702020165,22.35,0.0,0.0,0.0,-0.2943,-0.23544,9.819809999999999
3707070670,22.35,0.0,0.0,0.0,-0.28449,-0.23544,9.819809999999999
3712121175,22.35,0.0,0.0,0.0,-0.30411,-0.23544,9.819809999999999
3717171680,22.35,0.0,0.0,0.0,-0.31392000000000003,-0.27468000000000004,9.819809999999999
3722222185,22.35,0.0,0.0,0.0,-0.30411,-0.23544,9.82962
3727272690,22.35,0.0,0.0,0.0,-0.30411,-0.24525000000000002,9.83943
3732323195,22.35,0.0,0.0,0.0,-0.31392000000000003,-0.25506,9.82962
3737373700,22.35,0.0,0.0,0.0,-0.30411,-0.26487,9.82962
3742424205,22.35,0.0,0.0,0.0,-0.33354000000000006,-0.24525000000000002,9.819809999999999
3747474710,22.35,0.0,0.0,0.0,-0.2943,-0.25506,9.819809999999999
3752525215,22.35,0.0,0.0,0.0,-0.31392000000000003,-0.23544,9.819809999999999
3757575720,22.35,0.0,0.0,0.0,-0.2943,-0.26487,9.81
3762626225,22.35,0.0,0.0,0.0,-0.31392000000000003,-0.26487,9.819809999999999
3767676730,22.35,0.0,0.0,0.0,-0.30411,-0.26487,9.80019
3772727235,22.35,0.0,0.0,0.0,-0.30411,-0.24525000000000002,9.83943
3777777740,22.35,0.0,0.0,0.0,-0.2943,-0.23544,9.819809999999999
3782828245,22.35,0.0,0.0,0.0,-0.26487,-0.24525000000000002,9.84924
3787878750,22.35,0.0,0.0,0.0,-0.30411,-0.27468000000000004,9.85905
3792929255,22.35,0.0,0.0,0.0,-0.28449,-0.23544,9.82962
3797979760,22.35,0.0,0.0,0.0,-0.28449,-0.24525000000000002,9.81
3803030265,22.35,0.0,0.0,0.0,-0.28449,-0.25506,9.82962
3808080770,22.35,0.0,0.0,0.0,-0.31392000000000003,-0.23544,9.82962
3813131275,22.35,0.0,0.0,0.0,-0.28449,-0.23544,9.81
3818181780,22.35,0.0,0.0,0.0,-0.27468000000000004,-0.24525000000000002,9.819809999999999
3823232285,22.35,0.0,0.0,0.0,-0.32373,-0.24525000000000002,9.819809999999999
3828282790,22.35,0.0,0.0,0.0,-0.32373,-0.23544,9.83943
3833333295,22.35,0.0,0.0,0.0,-0.28449,-0.26487,9.84924
3838383800,22.35,0.0,0.0,0.0,-0.28449,-0.25506,9.819809999999999
3843434305,22.35,0.0,0.0,0.0,-0.31392000000000003,-0.24525000000000002,9.819809999999999
3848484810,22.35,0.0,0.0,0.0,-0.26487,-0.25506,9.83943
3853535315,22.35,0.0,0.0,0.0,-0.32373,-0.25506,9.81
3858585820,22.35,0.0,0.0,0.0,-0.32373,-0.25506,9.83943
3863636325,22.35,0.0,0.0,0.0,-0.28449,-0.24525000000000002,9.819809999999999
3868686830,22.35,0.0,0.0,0.0,-0.31392000000000003,-0.24525000000000002,9.82962
3873737335,22.35,0.0,0.0,0.0,-0.30411,-0.24525000000000002,9.83943
3878787840,22.35,0.0,0.0,0.0,-0.30411,-0.24525000000000002,9.83943
3883838345,22.35,0.0,0.0,0.0,-0.28449,-0.25506,9.82962
3888888850,22.35,0.0,0.0,0.0,-0.30411,-0.24525000000000002,9.83943
3893939355,22.35,0.0,0.0,0.0,-0.31392000000000003,-0.22563,9.81
3898989860,22.35,0.0,0.0,0.0,-0.2943,-0.24525000000000002,9.84924
3904040365,22.35,0.0,0.0,0.0,-0.28449,-0.25506,9.81
3909090870,22.35,0.0,0.0,0.0,-0.2943,-0.24525000000000002,9.83943
3914141375,22.35,0.0,0.0,0.0,-0.2943,-0.26487,9.83943
3919191880,22.35,0.0,0.0,0.0,-0.28449,-0.25506,9.819809999999999
3924242385,22.35,0.0,0.0,0.0,-0.30411,-0.26487,9.82962
3929292890,22.35,0.0,0.0,0.0,-0.27468000000000004,-0.23544,9.83943
3934343395,22.35,0.0,0.0,0.0,-0.28449,-0.26487,9.819809999999999
3939393900,22.35,0.0,0.0,0.0,-0.31392000000000003,-0.26487,9.84924
3944444405,22.35,0.0,0.0,0.0,-0.30411,-0.22563,9.819809999999999
3949494910,22.35,0.0,0.0,0.0,-0.28449,-0.25506,9.819809999999999
3954545415,22.35,0.0,0.0,0.0,-0.30411,-0.25506,9.84924
3959595920,22.35,0.0,0.0,0.0,-0.30411,-0.24525000000000002,9.82962
3964646425,22.35,0.0,0.0,0.0,-0.28449,-0.23544,9.82962
3969696930,22.35,0.0,0.0,0.0,-0.30411,-0.26487,9.82962
3974747435,22.35,0.0,0.0,0.0,-0.2943,-0.24525000000000002,9.82962
3979797940,22.35,0.0,0.0,0.0,-0.28449,-0.25506,9.82962
3984848445,22.35,0.0,0.0,0.0,-0.31392000000000003,-0.26487,9.819809999999999
3989898950,22.35,0.0,0.0,0.0,-0.2943,-0.25506,9.82962
3994949455,22.35,0.0,0.0,0.0,-0.31392000000000003,-0.24525000000000002,9.82962
3999999960,22.35,0.0,0.0,0.0,-0.30411,-0.26487,9.82962
4005050465,22.35,0.0,0.0,0.0,-0.31392000000000003,-0.26487,9.82962
4010100970,22.35,0.0,0.0,0.0,-0.30411,-0.24525000000000002,9.819809999999999
4015151475,22.35,0.0,0.0,0.0,-0.28449,-0.24525000000000002,9.819809999999999
4020201980,22.35,0.0,0.0,0.0,-0.2943,-0.26487,9.82962
4025252485,22.35,0.0,0.0,0.0,-0.30411,-0.25506,9.83943
4030302990,22.35,0.0,0.0,0.0,-0.26487,-0.25506,9.83943
4035353495,22.35,0.0,0.0,0.0,-0.28449,-0.24525000000000002,9.83943
4040404000,22.35,0.0,0.0,0.0,-0.28449,-0.25506,9.84924
4045454505,22.35,0.0,0.0,0.0,-0.32373,-0.23544,9.82962
4050505010,22.35,0.0,0.0,0.0,-0.31392000000000003,-0.25506,9.81
4055555515,22.35,0.0,0.0,0.0,-0.2943,-0.24525000000000002,9.819809999999999
4060606020,22.35,0.0,0.0,0.0,-0.30411,-0.25506,9.819809999999999
4065656525,22.35,0.0,0.0,0.0,-0.31392000000000003,-0.26487,9.819809999999999
4070707030,22.35,0.0,0.0,0.0,-0.28449,-0.23544,9.82962
4075757535,22.35,0.0,0.0,0.0,-0.31392000000000003,-0.25506,9.85905
4080808040,22.35,0.0,0.0,0.0,-0.31392000000000003,-0.24525000000000002,9.84924
4085858545,22.35,0.0,0.0,0.0,-0.31392000000000003,-0.23544,9.82962
4090909050,22.35,0.0,0.0,0.0,-0.31392000000000003,-0.24525000000000002,9.83943
4095959555,22.35,0.0,0.0,0.0,-0.2943,-0.24525000000000002,9.83943
4101010060,22.35,0.0,0.0,0.0,-0.28449,-0.25506,9.81
4106060565,22.35,0.0,0.0,0.0,-0.28449,-0.24525000000000002,9.819809999999999
4111111070,22.35,0.0,0.0,0.0,-0.30411,-0.26487,9.83943
4116161575,22.35,0.0,0.0,0.0,-0.2943,-0.25506,9.819809999999999
4121212080,22.35,0.0,0.0,0.0,-0.27468000000000004,-0.22563,9.82962
4126262585,22.35,0.0,0.0,0.0,-0.31392000000000003,-0.2943,9.83943
4131313090,22.35,0.0,0.0,0.0,-0.30411,-0.26487,9.83943
4136363595,22.35,0.0,0.0,0.0,-0.2943,-0.24525000000000002,9.84924
4141414100,22.35,0.0,0.0,0.0,-0.30411,-0.24525000000000002,9.82962
4146464605,22.35,0.0,0.0,0.0,-0.30411,-0.26487,9.82962
4151515110,22.35,0.0,0.0,0.0,-0.2943,-0.25506,9.82962
4156565615,22.35,0.0,0.0,0.0,-0.27468000000000004,-0.23544,9.85905
4161616120,22.35,0.0,0.0,0.0,-0.2943,-0.24525000000000002,9.819809999999999
4166666625,22.35,0.0,0.0,0.0,-0.32373,-0.22563,9.819809999999999
4171717130,22.35,0.0,0.0,0.0,-0.30411,-0.26487,9.83943
4176767635,22.35,0.0,0.0,0.0,-0.30411,-0.25506,9.82962
4181818140,22.35,0.0,0.0,0.0,-0.30411,-0.26487,9.819809999999999
4186868645,22.35,0.0,0.0,0.0,-0.27468000000000004,-0.23544,9.82962
4191919150,22.35,0.0,0.0,0.0,-0.2943,-0.23544,9.819809999999999
4196969655,22.35,0.0,0.0,0.0,-0.32373,-0.23544,9.82962
4202020160,22.35,0.0,0.0,0.0,-0.2943,-0.26487,9.819809999999999
4207070665,22.35,0.0,0.0,0.0,-0.25506,-0.25506,9.819809999999999
4212121170,22.35,0.0,0.0,0.0,-0.2943,-0.25506,9.83943
4217171675,22.35,0.0,0.0,0.0,-0.30411,-0.24525000000000002,9.84924
4222222180,22.35,0.0,0.0,0.0,-0.2943,-0.24525000000000002,9.82962
4227272685,22.35,0.0,0.0,0.0,-0.30411,-0.25506,9.85905
4232323190,22.35,0.0,0.0,0.0,-0.28449,-0.23544,9.82962
4237373695,22.35,0.0,0.0,0.0,-0.27468000000000004,-0.25506,9.81
4242424200,22.35,0.0,0.0,0.0,-0.30411,-0.27468000000000004,9.819809999999999
4247474705,22.35,0.0,0.0,0.0,-0.31392000000000003,-0.25506,9.83943
4252525210,22.35,0.0,0.0,0.0,-0.28449,-0.26487,9.83943
4257575715,22.35,0.0,0.0,0.0,-0.2943,-0.25506,9.82962
4262626220,22.35,0.0,0.0,0.0,-0.28449,-0.24525000000000002,9.82962
4267676725,22.35,0.0,0.0,0.0,-0.28449,-0.25506,9.819809999999999
4272727230,22.35,0.0,0.0,0.0,-0.30411,-0.24525000000000002,9.83943
4277777735,22.35,0.0,0.0,0.0,-0.2943,-0.24525000000000002,9.819809999999999
4282828240,22.35,0.0,0.0,0.0,-0.30411,-0.23544,9.82962
4287878745,22.35,0.0,0.0,0.0,-0.32373,-0.25506,9.82962
4292929250,22.35,0.0,0.0,0.0,-0.31392000000000003,-0.26487,9.819809999999999
4297979755,22.35,0.0,0.0,0.0,-0.2943,-0.22563,9.83943
4303030260,22.35,0.0,0.0,0.0,-0.28449,-0.23544,9.819809999999999
4308080765,22.35,0.0,0.0,0.0,-0.2943,-0.23544,9.82962
4313131270,22.35,0.0,0.0,0.0,-0.27468000000000004,-0.22563,9.82962
4318181775,22.35,0.0,0.0,0.0,-0.28449,-0.26487,9.83943
4323232280,22.35,0.0,0.0,0.0,-0.2943,-0.23544,9.80019
4328282785,22.35,0.0,0.0,0.0,-0.2943,-0.27468000000000004,9.819809999999999
4333333290,22.35,0.0,0.0,0.0,-0.28449,-0.25506,9.819809999999999
4338383795,22.35,0.0,0.0,0.0,-0.32373,-0.25506,9.84924
4343434300,22.35,0.0,0.0,0.0,-0.30411,-0.25506,9.81
4348484805,22.35,0.0,0.0,0.0,-0.28449,-0.24525000000000002,9.84924
4353535310,22.35,0.0,0.0,0.0,-0.2943,-0.25506,9.83943
4358585815,22.35,0.0,0.0,0.0,-0.27468000000000004,-0.22563,9.83943
4363636320,22.35,0.0,0.0,0.0,-0.27468000000000004,-0.25506,9.82962
4368686825,22.35,0.0,0.0,0.0,-0.2943,-0.26487,9.819809999999999
4373737330,22.35,0.0,0.0,0.0,-0.28449,-0.23544,9.84924
4378787835,22.35,0.0,0.0,0.0,-0.30411,-0.24525000000000002,9.82962
4383838340,22.35,0.0,0.0,0.0,-0.30411,-0.24525000000000002,9.82962
4388888845,22.35,0.0,0.0,0.0,-0.31392000000000003,-0.25506,9.83943
4393939350,22.35,0.0,0.0,0.0,-0.31392000000000003,-0.26487,9.819809999999999
4398989855,22.35,0.0,0.0,0.0,-0.30411,-0.24525000000000002,9.82962
4404040360,22.35,0.0,0.0,0.0,-0.2943,-0.25506,9.82962
4409090865,22.35,0.0,0.0,0.0,-0.2943,-0.23544,9.82962
4414141370,22.35,0.0,0.0,0.0,-0.30411,-0.25506,9.819809999999999
4419191875,22.35,0.0,0.0,0.0,-0.31392000000000003,-0.24525000000000002,9.83943
4424242380,22.35,0.0,0.0,0.0,-0.2943,-0.25506,9.84924
4429292885,22.35,0.0,0.0,0.0,-0.30411,-0.23544,9.83943
4434343390,22.35,0.0,0.0,0.0,-0.31392000000000003,-0.25506,9.82962
4439393895,22.35,0.0,0.0,0.0,-0.30411,-0.24525000000000002,9.84924
4444444400,22.35,0.0,0.0,0.0,-0.32373,-0.24525000000000002,9.82962
4449494905,22.35,0.0,0.0,0.0,-0.30411,-0.24525000000000002,9.80019
4454545410,22.35,0.0,0.0,0.0,-0.31392000000000003,-0.26487,9.83943
4459595915,22.35,0.0,0.0,0.0,-0.2943,-0.24525000000000002,9.82962
4464646420,22.35,0.0,0.0,0.0,-0.2943,-0.22563,9.84924
4469696925,22.35,0.0,0.0,0.0,-0.2943,-0.26487,9.819809999999999
4474747430,22.35,0.0,0.0,0.0,-0.28449,-0.26487,9.819809999999999
4479797935,22.35,0.0,0.0,0.0,-0.30411,-0.27468000000000004,9.82962
4484848440,22.35,0.0,0.0,0.0,-0.2943,-0.24525000000000002,9.82962
4489898945,22.35,0.0,0.0,0.0,-0.2943,-0.22563,9.84924
4494949450,22.35,0.0,0.0,0.0,-0.27468000000000004,-0.24525000000000002,9.819809999999999
4499999955,22.35,0.0,0.0,0.0,-0.2943,-0.24525000000000002,9.82962
4505050460,22.35,0.0,0.0,0.0,-0.30411,-0.25506,9.819809999999999
4510100965,22.35,0.0,0.0,0.0,-0.2943,-0.22563,9.82962
4515151470,22.35,0.0,0.0,0.0,-0.33354000000000006,-0.24525000000000002,9.82962
4520201975,22.35,0.0,0.0,0.0,-0.26487,-0.26487,9.83943
4525252480,22.35,0.0,0.0,0.0,-0.30411,-0.25506,9.82962
4530302985,22.35,0.0,0.0,0.0,-0.31392000000000003,-0.23544,9.83943
4535353490,22.35,0.0,0.0,0.0,-0.2943,-0.25506,9.81
4540403995,22.35,0.0,0.0,0.0,-0.30411,-0.25506,9.82962
4545454500,22.35,0.0,0.0,0.0,-0.30411,-0.25506,9.83943
4550505005,22.35,0.0,0.0,0.0,-0.2943,-0.22563,9.85905
4555555510,22.35,0.0,0.0,0.0,-0.30411,-0.26487,9.82962
4560606015,22.35,0.0,0.0,0.0,-0.30411,-0.24525000000000002,9.83943
4565656520,22.35,0.0,0.0,0.0,-0.28449,-0.25506,9.83943
4570707025,22.35,0.0,0.0,0.0,-0.2943,-0.25506,9.81
4575757530,22.35,0.0,0.0,0.0,-0.2943,-0.25506,9.819809999999999
4580808035,22.35,0.0,0.0,0.0,-0.30411,-0.22563,9.819809999999999
4585858540,22.35,0.0,0.0,0.0,-0.2943,-0.22563,9.83943
4590909045,22.35,0.0,0.0,0.0,-0.2943,-0.26487,9.82962
4595959550,22.35,0.0,0.0,0.0,-0.32373,-0.25506,9.81
4601010055,22.35,0.0,0.0,0.0,-0.31392000000000003,-0.23544,9.819809999999999
4606060560,22.35,0.0,0.0,0.0,-0.25506,-0.27468000000000004,9.83943
4611111065,22.35,0.0,0.0,0.0,-0.2943,-0.25506,9.819809999999999
4616161570,22.35,0.0,0.0,0.0,-0.30411,-0.24525000000000002,9.82962
4621212075,22.35,0.0,0.0,0.0,-0.30411,-0.23544,9.82962
4626262580,22.35,0.0,0.0,0.0,-0.31392000000000003,-0.26487,9.82962
4631313085,22.35,0.0,0.0,0.0,-0.31392000000000003,-0.23544,9.81
4636363590,22.35,0.0,0.0,0.0,-0.26487,-0.22563,9.83943
4641414095,22.35,0.0,0.0,0.0,-0.28449,-0.26487,9.82962
4646464600,22.35,0.0,0.0,0.0,-0.31392000000000003,-0.21582,9.819809999999999
4651515105,22.35,0.0,0.0,0.0,-0.28449,-0.24525000000000002,9.819809999999999
4656565610,22.35,0.0,0.0,0.0,-0.2943,-0.24525000000000002,9.819809999999999
4661616115,22.35,0.0,0.0,0.0,-0.30411,-0.25506,9.81
4666666620,22.35,0.0,0.0,0.0,-0.28449,-0.25506,9.82962
4671717125,22.35,0.0,0.0,0.0,-0.28449,-0.25506,9.81
4676767630,22.35,0.0,0.0,0.0,-0.28449,-0.24525000000000002,9.83943
4681818135,22.35,0.0,0.0,0.0,-0.28449,-0.25506,9.819809999999999
4686868640,22.35,0.0,0.0,0.0,-0.28449,-0.24525000000000002,9.819809999999999
4691919145,22.35,0.0,0.0,0.0,-0.30411,-0.26487,9.81
4696969650,22.35,0.0,0.0,0.0,-0.26487,-0.26487,9.79038
4702020155,22.35,0.0,0.0,0.0,-0.31392000000000003,-0.25506,9.82962
4707070660,22.35,0.0,0.0,0.0,-0.31392000000000003,-0.30411,9.819809999999999
4712121165,22.35,0.0,0.0,0.0,-0.2943,-0.30411,9.770760000000001
4717171670,22.35,0.0,0.0,0.0,-0.1962,-0.009810000000000001,9.53532
4722222175,22.35,0.005323254218582705,0.02556907354171693,0.0,-0.17658,0.21582,9.00558
4727272680,22.35,-0.0170518667919846,0.04153883619746504,0.0,-0.13734000000000002,0.07848000000000001,8.57394
4732323185,22.35,-0.04366813788489812,0.03621558197888234,0.0,-0.6180300000000001,0.13734000000000002,8.42679
4737373690,22.35,-0.05539675045830002,-0.021310470166850764,0.0,-0.47088,-0.02943,8.662230000000001
4742424195,22.35,-0.07883652231258387,-0.0170518667919846,0.0,-0.3924,-0.24525000000000002,8.71128
4747474700,22.35,-0.08203047484373349,0.01918116847941768,0.0,-0.35316,0.10791,9.054630000000001
4752525205,22.35,-0.08628907821859966,-0.015987215948268057,0.0,-0.40221,0.16677000000000003,8.86824
4757575710,22.35,-0.11185815176031658,-0.03728023282259888,0.0,-0.04905,-0.11772,8.49546
4762626215,22.35,-0.1555262896452147,-0.01918116847941768,0.0,-0.24525000000000002,-0.75537,8.86824
4767676720,22.35,-0.12995721610349775,0.05007349623971732,0.007452555906015787,-0.34335000000000004,0.019620000000000002,9.182160000000001
4772727225,22.35,-0.07990117315630041,0.006387905062299246,0.001064650843716541,-0.46107000000000004,0.33354000000000006,9.29988
4777777730,22.35,-0.13208651779093086,-0.014905111812031574,0.0,-0.1962,-0.46107000000000004,9.21159
4782828235,22.35,-0.22903955773921586,-0.015987215948268057,-0.001064650843716541,-0.51993,-1.2360600000000002,9.99639
4787878740,22.35,-0.16084954386379738,-0.060720004676882725,-0.001064650843716541,-0.69651,-0.5591700000000001,10.56537
4792929245,22.35,-0.07670722062515077,-0.07670722062515077,-0.002129301687433082,0.1962,-0.11772,10.48689
4797979750,22.35,-0.1288925652597812,0.02982767691658309,0.0,0.63765,-0.6867000000000001,10.182780000000001
4803030255,22.35,-0.14913838458291545,0.07243116395776468,0.003193952531149623,-0.44145,-0.80442,9.937529999999999
4808080760,22.35,-0.07670722062515077,0.03408628029144926,0.001064650843716541,-0.52974,0.019620000000000002,9.60399
4813131265,22.35,-0.05965535383316618,0.04581489286485115,0.005323254218582705,-0.27468000000000004,0.35316,9.035010000000002
4818181770,22.35,-0.14594443205176583,0.04794419455228423,0.003193952531149623,-0.49050000000000005,-0.06867000000000001,8.662230000000001
4823232275,22.35,-0.19280652246781357,-0.02556907354171693,-0.002129301687433082,-0.6768900000000001,-0.52974,8.71128
4828282780,22.35,-0.18428931571808121,-0.03728023282259888,0.005323254218582705,-0.51012,-0.47088,8.98596
4833333285,22.35,-0.19600047499896323,-0.05007349623971732,0.002129301687433082,-0.32373,-0.2943,9.182160000000001
4838383790,22.35,-0.18428931571808121,-0.02663372438543347,0.002129301687433082,0.009810000000000001,-0.26487,9.182160000000001
4843434295,22.35,-0.19493582415524666,-0.001064650843716541,0.001064650843716541,0.039240000000000004,-1.00062,9.52551
4848484800,22.35,-0.20666443672864854,0.02769837522915001,0.002129301687433082,-0.56898,-1.1772,10.025820000000001
4853535305,22.35,-0.16938420390604966,-0.01918116847941768,0.004258603374866164,-0.73575,-0.33354000000000006,10.52613
4858585810,22.35,-0.12250466019748199,-0.05113814708343386,0.0,0.10791,-0.34335000000000004,10.418220000000002
4863636315,22.35,-0.19280652246781357,0.002129301687433082,0.002129301687433082,0.20601000000000003,-1.31454,10.23183
4868686820,22.35,-0.20772908757236508,0.06178465552059926,0.006387905062299246,-0.65727,-1.01043,10.24164
4873737325,22.35,-0.11824605682261582,-0.011711159280881954,-0.001064650843716541,-0.6768900000000001,-0.05886,9.99639
4878787830,22.35,-0.11292280260403312,-0.023439771854283843,-0.002129301687433082,0.2943,-0.28449,9.48627
4883838335,22.35,-0.20666443672864854,0.06710790973918197,0.002129301687433082,-0.13734000000000002,-1.04967,9.32931
4888888840,22.35,-0.19921188082263275,0.04794419455228423,0.004258603374866164,-1.01043,-0.69651,9.40779
4893939345,22.35,-0.13102186694721432,-0.05007349623971732,-0.001064650843716541,-0.51993,-0.06867000000000001,9.44703
4898989850,22.35,-0.1672549022186166,-0.02769837522915001,0.003193952531149623,0.009810000000000001,-0.6670800000000001,9.34893
4904040355,22.35,-0.2641904888743817,-0.002129301687433082,0.002129301687433082,-0.23544,-1.43226,9.59418
4909090860,22.35,-0.18854791909294744,-0.004258603374866164,0.001064650843716541,-0.6768900000000001,-0.6180300000000001,9.85905
4914141365,22.35,-0.14913838458291545,-0.049008845396000776,-0.005323254218582705,-0.11772,-0.85347,10.1043
4919191870,22.35,-0.19493582415524666,0.0170518667919846,0.001064650843716541,0.07848000000000001,-1.1870100000000001,10.045440000000001
4924242375,22.35,-0.18854791909294744,0.014905111812031574,0.004258603374866164,-0.51993,-1.21644,10.58499
4929292880,22.35,-0.13421581947836395,-0.022375121010567305,-0.004258603374866164,-0.0981,-0.87309,10.594800000000001
4934343385,22.35,-0.13102186694721432,0.039409534510031964,0.005323254218582705,-0.11772,-0.8142300000000001,10.37898
4939393890,22.35,-0.18641861740551433,0.002129301687433082,0.0,-0.5493600000000001,-1.26549,10.36917
4944444395,22.35,-0.14700908289548237,-0.01918116847941768,0.0,-0.24525000000000002,-0.60822,9.91791
4949494900,22.35,-0.12037535851004891,0.007452555906015787,0.001064650843716541,-0.11772,-0.95157,9.79038
4954545405,22.35,-0.17470745812463237,0.02556907354171693,0.003193952531149623,-0.21582,-1.1183400000000001,9.54513
4959595910,22.35,-0.1374272253020335,0.02769837522915001,0.005323254218582705,-0.70632,-0.5395500000000001,9.57456
4964646415,22.35,-0.1278279144160647,-0.044732788728614664,-0.003193952531149623,-0.25506,-0.9613800000000001,9.770760000000001
4969696920,22.35,-0.1757721089683489,0.0,0.0,-0.039240000000000004,-1.44207,9.85905
4974747425,22.35,-0.16404349639494703,0.020245819323134222,0.007452555906015787,-0.72594,-1.1870100000000001,10.280880000000002
4979797930,22.35,-0.11505210429146619,-0.06604325889546543,-0.002129301687433082,-0.13734000000000002,-0.9613800000000001,10.48689
4984848435,22.35,-0.11398745344774965,0.001064650843716541,0.0,0.35316,-1.2753,10.37898
4989898940,22.35,-0.1480737337391989,0.05113814708343386,0.002129301687433082,-0.42183,-1.49112,10.52613
4994949445,22.35,-0.10225884087434776,0.005323254218582705,0.0,-0.59841,-0.87309,10.457460000000001
4999999950,22.35,-0.07030186227033158,-0.01064650843716541,0.0,-0.23544,-0.7848,10.27107
5005050455,22.35,-0.1416858286768997,-0.007452555906015787,0.0,-0.1962,-1.75599,10.27107
5010100960,22.35,-0.12356931104119852,0.011711159280881954,0.004258603374866164,-0.35316,-0.9810000000000001,10.09449
5015151465,22.35,-0.05752605214573309,-0.01064650843716541,0.0,-0.41202000000000005,-0.89271,10.15335
5020201970,22.35,-0.0852244273748831,0.0,0.001064650843716541,0.08829,-1.31454,9.84924
5025252475,22.35,-0.12250466019748199,0.033021629447732716,0.002129301687433082,-0.46107000000000004,-1.49112,10.19259
5030302980,22.35,-0.06391395720803235,-0.008517206749732328,-0.001064650843716541,-0.52974,-0.90252,10.25145
5035353485,22.35,-0.05965535383316618,-0.023439771854283843,0.001064650843716541,-0.06867000000000001,-1.16739,10.09449
5040403990,22.35,-0.09054768159346581,0.015987215948268057,0.001064650843716541,-0.28449,-1.6677000000000002,10.22202
5045454495,22.35,-0.07030186227033158,-0.011711159280881954,0.001064650843716541,-0.42183,-1.20663,10.48689
5050505000,22.35,-0.022375121010567305,-0.001064650843716541,-0.001064650843716541,-0.08829,-0.89271,10.398600000000002
5055555505,22.35,-0.05007349623971732,0.015987215948268057,0.0,-0.1962,-1.6677000000000002,10.35936
5060606010,22.35,-0.07777187146886733,0.005323254218582705,-0.002129301687433082,-0.40221,-1.58922,10.61442
5065656515,22.35,-0.005323254218582705,-0.007452555906015787,0.0,-0.43164,-0.87309,10.66347
5070707020,22.35,-0.006387905062299246,-0.01811651763570114,-0.001064650843716541,-0.05886,-1.22625,10.33974
5075757525,22.35,-0.044732788728614664,0.022375121010567305,0.003193952531149623,-0.1962,-1.5990300000000002,10.23183
5080808030,22.35,-0.012775810124598492,0.013840460968315033,0.003193952531149623,-0.6670800000000001,-1.02024,10.300500000000001
5085858535,22.35,0.01918116847941768,-0.033021629447732716,-0.004258603374866164,-0.20601000000000003,-0.9711900000000001,10.143540000000002
5090909040,22.35,-0.005323254218582705,0.006387905062299246,0.0,-0.009810000000000001,-1.3832099999999998,9.99639
5095959545,22.35,-0.02663372438543347,0.024504422698000388,0.003193952531149623,-0.47088,-1.5499800000000001,10.182780000000001
5101010050,22.35,0.022375121010567305,-0.01811651763570114,-0.003193952531149623,-0.35316,-0.8338500000000001,10.22202
5106060555,22.35,0.04260348704118158,-0.003193952531149623,0.0,-0.0981,-0.94176,10.06506
5111111060,22.35,-0.005323254218582705,0.014905111812031574,0.001064650843716541,-0.31392000000000003,-1.71675,10.03563
5116161565,22.35,-0.001064650843716541,0.008517206749732328,0.002129301687433082,-0.6180300000000001,-1.3537800000000002,10.31031
5121212070,22.35,0.06604325889546543,-0.02982767691658309,-0.003193952531149623,-0.38259000000000004,-1.2360600000000002,10.68309
5126262575,22.35,0.05007349623971732,-0.003193952531149623,-0.001064650843716541,0.04905,-1.31454,10.63404
5131313080,22.35,0.04366813788489812,0.022375121010567305,0.0,-0.40221,-1.42245,10.78119
5136363585,22.35,0.05859070298944965,-0.03089232776029963,-0.003193952531149623,-0.44145,-1.41264,10.653660000000002
5141414090,22.35,0.07883652231258387,-0.015987215948268057,-0.006387905062299246,0.18639,-1.2556800000000001,10.70271
5146464595,22.35,0.08948303074974927,0.028763026072866547,-0.004258603374866164,-0.31392000000000003,-1.5499800000000001,10.72233
5151515100,22.35,0.09906488834319814,0.03621558197888234,0.0,-0.48069000000000006,-1.02024,10.46727
5156565605,22.35,0.11931070766633237,0.0,0.001064650843716541,-0.71613,-0.79461,10.36917
5161616110,22.35,0.06923721142661506,-0.05965535383316618,-0.00958185759344887,-0.009810000000000001,-1.50093,10.31031
5166666615,22.35,0.10012953918691468,-0.007452555906015787,-0.005323254218582705,0.04905,-1.21644,10.006200000000002
5171717120,22.35,0.12463396188491506,0.04260348704118158,0.004258603374866164,-0.38259000000000004,-1.08891,9.97677
5176767625,22.35,0.13955652698946658,0.012775810124598492,-0.001064650843716541,-0.25506,-0.65727,9.82962
5181818130,22.35,0.12250466019748199,-0.003193952531149623,-0.004258603374866164,-0.32373,-1.15758,10.09449
5186868635,22.35,0.09161233243718235,-0.033021629447732716,-0.002129301687433082,-0.30411,-1.6480800000000002,10.12392
5191919140,22.35,0.13849187614575004,0.007452555906015787,0.0,-0.41202000000000005,-0.8142300000000001,10.320120000000001
5196969645,22.35,0.16404349639494703,-0.002129301687433082,-0.001064650843716541,-0.41202000000000005,-0.86328,10.24164
5202020150,22.35,0.12463396188491506,-0.031956978604016174,-0.007452555906015787,0.02943,-1.51074,10.44765
5207070655,22.35,0.1480737337391989,0.003193952531149623,-0.004258603374866164,-0.17658,-1.2753,10.66347
5212121160,22.35,0.17683675981206545,0.00958185759344887,-0.003193952531149623,-0.30411,-0.8829,10.575180000000001
5217171665,22.35,0.18428931571808121,0.015987215948268057,-0.004258603374866164,-0.1962,-0.79461,10.300500000000001
5222222170,22.35,0.177901410655782,0.015987215948268057,-0.002129301687433082,-0.5591700000000001,-1.1183400000000001,10.22202
5227272675,22.35,0.14594443205176583,-0.04581489286485115,-0.005323254218582705,-0.12753,-1.3832099999999998,10.35936
5232323180,22.35,0.20240583335378237,0.020245819323134222,-0.001064650843716541,-0.25506,-0.74556,10.09449
5237373685,22.35,0.2151816434783809,0.012775810124598492,-0.003193952531149623,-0.38259000000000004,-0.6278400000000001,9.819809999999999
5242424190,22.35,0.18748326824923087,0.003193952531149623,-0.006387905062299246,-0.14715,-1.06929,10.006200000000002
5247474695,22.35,0.17470745812463237,0.008517206749732328,-0.001064650843716541,-0.5395500000000001,-1.04967,10.212209999999999
5252525200,22.35,0.2162462943220974,-0.03728023282259888,-0.002129301687433082,-0.3924,-0.80442,10.11411
5257575705,22.35,0.2162462943220974,-0.001064650843716541,-0.001064650843716541,0.019620000000000002,-0.7749900000000001,10.01601
5262626210,22.35,0.19708257913519966,0.0170518667919846,0.0,-0.32373,-1.1477700000000002,10.280880000000002
5267676715,22.35,0.21411699263466438,-0.01064650843716541,-0.003193952531149623,-0.36297,-0.74556,10.163160000000001
5272727220,22.35,0.24075071702009782,-0.007452555906015787,-0.005323254218582705,-0.11772,-0.7848,10.12392
5277777725,22.35,0.22903955773921586,0.03408628029144926,0.002129301687433082,-0.30411,-0.71613,10.006200000000002
5282828230,22.35,0.22156954854068012,0.003193952531149623,-0.004258603374866164,-0.50031,-0.8142300000000001,10.17297
5287878735,22.35,0.23862141533266473,-0.02982767691658309,-0.004258603374866164,-0.34335000000000004,-0.60822,10.15335
5292929240,22.35,0.23329816111408203,-0.007452555906015787,-0.003193952531149623,-0.039240000000000004,-0.86328,10.143540000000002
5297979745,22.35,0.20985838925979816,0.00958185759344887,-0.004258603374866164,-0.31392000000000003,-0.8829,10.11411
5303030250,22.35,0.25139722545726323,-0.001064650843716541,-0.006387905062299246,-0.35316,-0.5591700000000001,10.15335
5308080755,22.35,0.26951374309296433,-0.005323254218582705,-0.006387905062299246,-0.12753,-0.44145,9.96696
5313131260,22.35,0.24500932039496398,0.028763026072866547,-0.001064650843716541,-0.15696000000000002,-0.65727,9.81
5318181765,22.35,0.23649211364523165,0.024504422698000388,-0.003193952531149623,-0.51993,-0.47088,9.74133
5323232270,22.35,0.2705783939366809,-0.004258603374866164,-0.003193952531149623,-0.48069000000000006,-0.15696000000000002,9.74133
5328282775,22.35,0.2524618763009797,-0.014905111812031574,-0.006387905062299246,-0.11772,-0.48069000000000006,9.760950000000001
5333333280,22.35,0.20347048419749894,0.002129301687433082,-0.005323254218582705,-0.33354000000000006,-0.8829,9.79038
5338383785,22.35,0.2343628119577986,-0.01918116847941768,-0.001064650843716541,-0.5886,-0.45126,10.08468
5343434290,22.35,0.27909560068641326,-0.03834488366631542,-0.007452555906015787,-0.05886,-0.28449,10.19259
5348484795,22.35,0.24607397123868052,0.006387905062299246,-0.005323254218582705,0.12753,-0.6670800000000001,10.01601
5353535300,22.35,0.24713862208239704,0.054332099614583476,-0.003193952531149623,-0.50031,-0.28449,9.760950000000001
5358585805,22.35,0.2822895532175628,-0.003193952531149623,-0.005323254218582705,-0.3924,-0.11772,9.78057
5363636310,22.35,0.2705783939366809,0.012775810124598492,-0.002129301687433082,-0.12753,-0.20601000000000003,9.72171
5368686815,22.35,0.2343628119577986,0.01811651763570114,-0.005323254218582705,-0.51012,-0.30411,9.6138
5373737320,22.35,0.2503325746135467,-0.01918116847941768,-0.008517206749732328,-0.50031,-0.05886,9.6138
5378787825,22.35,0.24181536786381436,-0.024504422698000388,-0.005323254218582705,-0.10791,-0.31392000000000003,9.70209
5383838330,22.35,0.2151816434783809,-0.001064650843716541,-0.002129301687433082,-0.34335000000000004,-0.51012,9.888480000000001
5388888835,22.35,0.25139722545726323,-0.014905111812031574,-0.004258603374866164,-0.32373,-0.039240000000000004,9.89829
5393939340,22.35,0.286548156592429,0.0,-0.003193952531149623,0.0,0.17658,9.60399
5398989845,22.35,0.24075071702009782,0.03728023282259888,-0.002129301687433082,-0.17658,-0.36297,9.50589
5404040350,22.35,0.21944024685324706,0.028763026072866547,0.0,-0.65727,-0.039240000000000004,9.57456
5409090855,22.35,0.26844909224924784,-0.01064650843716541,-0.006387905062299246,-0.48069000000000006,0.51012,9.69228
5414141360,22.35,0.2396860661763813,-0.024504422698000388,-0.005323254218582705,-0.0981,-0.11772,9.4176
5419191865,22.35,0.17896606149949854,0.01064650843716541,-0.001064650843716541,-0.40221,-0.46107000000000004,9.50589
5424242370,22.35,0.21944024685324706,-0.023439771854283843,-0.002129301687433082,-0.6768900000000001,0.11772,9.937529999999999
5429292875,22.35,0.26951374309296433,-0.04581489286485115,-0.007452555906015787,0.22563,0.38259000000000004,9.819809999999999
5434343380,22.35,0.22903955773921586,0.046879543708567686,-0.001064650843716541,0.16677000000000003,-0.13734000000000002,9.50589
5439393885,22.35,0.19921188082263275,0.05220279792715039,0.0,-0.75537,0.10791,9.32931
5444444390,22.35,0.2482032729261136,-0.022375121010567305,-0.003193952531149623,-0.49050000000000005,0.5493600000000001,9.496080000000001
5449494895,22.35,0.23223351027036546,-0.003193952531149623,-0.004258603374866164,-0.039240000000000004,0.34335000000000004,9.358740000000001
5454545400,22.35,0.16617279808238014,0.022375121010567305,0.0,-0.42183,-0.02943,9.2214
5459595905,22.35,0.18961256993666398,-0.015987215948268057,-0.004258603374866164,-0.65727,0.37278,9.29007
5464646410,22.35,0.20985838925979816,-0.04366813788489812,-0.006387905062299246,-0.06867000000000001,0.17658,9.60399
5469696915,22.35,0.17257815643719931,0.002129301687433082,-0.002129301687433082,-0.04905,0.0,9.67266
5474747420,22.35,0.18216001403064813,0.02769837522915001,0.0,-0.48069000000000006,0.3924,9.59418
5479797925,22.35,0.22689280275926285,-0.014905111812031574,-0.006387905062299246,-0.22563,0.57879,9.44703
5484848430,22.35,0.1800307123432151,0.02663372438543347,0.0,-0.07848000000000001,0.20601000000000003,9.34893
5489898935,22.35,0.15339698795778162,0.028763026072866547,0.0,-0.6867000000000001,0.32373,9.358740000000001
5494949440,22.35,0.18109536318693162,-0.0170518667919846,-0.005323254218582705,-0.41202000000000005,0.74556,9.25083
5499999945,22.35,0.17470745812463237,-0.00958185759344887,-0.005323254218582705,-0.12753,0.60822,9.1233
5505050450,22.35,0.11292280260403312,0.007452555906015787,-0.004258603374866164,-0.34335000000000004,-0.04905,9.20178
5510100955,22.35,0.1288925652597812,0.0,-0.003193952531149623,-0.48069000000000006,0.56898,9.39798
5515151460,22.35,0.17683675981206545,-0.023439771854283843,-0.005323254218582705,-0.26487,0.6867000000000001,9.4176
5520201965,22.35,0.12995721610349775,-0.006387905062299246,-0.004258603374866164,0.05886,0.30411,9.23121
5525252470,22.35,0.1097288500728835,0.04260348704118158,0.001064650843716541,-0.48069000000000006,0.37278,9.32931
5530302975,22.35,0.13849187614575004,-0.013840460968315033,-0.003193952531149623,-0.46107000000000004,0.6180300000000001,9.45684
5535353480,22.35,0.1374272253020335,-0.006387905062299246,-0.002129301687433082,-0.05886,0.7749900000000001,9.162540000000002
5540403985,22.35,0.10225884087434776,0.02663372438543347,0.0,-0.36297,0.57879,9.074250000000001
5545454490,22.35,0.0852244273748831,-0.002129301687433082,-0.003193952531149623,-0.3924,0.50031,9.172350000000002
5550504995,22.35,0.09800023749948161,-0.002129301687433082,0.001064650843716541,-0.38259000000000004,0.57879,9.25083
5555555500,22.35,0.08096582400001695,-0.008517206749732328,0.0,-0.48069000000000006,0.60822,9.2214
5560606005,22.35,0.07456046564519776,-0.022375121010567305,-0.001064650843716541,-0.08829,0.64746,9.28026
5565656510,22.35,0.07883652231258387,0.014905111812031574,-0.002129301687433082,-0.1962,0.51993,9.28026
5570707015,22.35,0.05007349623971732,0.011711159280881954,0.002129301687433082,-0.34335000000000004,0.3924,9.191970000000001
5575757520,22.35,0.06923721142661506,0.011711159280881954,0.0,-0.50031,0.95157,9.14292
5580808025,22.35,0.07456046564519776,-0.0170518667919846,-0.003193952531149623,-0.21582,0.80442,9.20178
5585858530,22.35,0.015987215948268057,0.004258603374866164,0.0,-0.10791,0.38259000000000004,9.09387
5590909035,22.35,0.021310470166850764,0.03089232776029963,0.005323254218582705,-0.65727,0.73575,9.14292
5595959540,22.35,0.0404741853537485,-0.044732788728614664,-0.004258603374866164,-0.35316,0.7848,9.24102
5601010045,22.35,0.021310470166850764,-0.001064650843716541,-0.001064650843716541,0.08829,0.6670800000000001,9.11349
5606060550,22.35,-0.021310470166850764,0.023439771854283843,0.001064650843716541,-0.47088,0.32373,9.24102
5611111055,22.35,0.005323254218582705,-0.015987215948268057,0.0,-0.46107000000000004,0.80442,9.26064
5616161560,22.35,0.023439771854283843,-0.006387905062299246,-0.001064650843716541,-0.0981,0.80442,9.27045
5621212065,22.35,-0.031956978604016174,0.015987215948268057,0.0,-0.30411,0.28449,9.29988
5626262570,22.35,-0.0404741853537485,0.001064650843716541,0.001064650843716541,-0.52974,0.47088,9.50589
5631313075,22.35,0.011711159280881954,-0.02663372438543347,0.0,-0.3924,0.94176,9.60399
5636363580,22.35,-0.0170518667919846,-0.02556907354171693,-0.003193952531149623,0.13734000000000002,0.52974,9.4176
5641414085,22.35,-0.05752605214573309,0.044732788728614664,0.0,-0.08829,0.51012,9.11349
5646464590,22.35,-0.028763026072866547,0.03515093113516579,0.005323254218582705,-0.6180300000000001,0.7651800000000001,8.99577
5651515095,22.35,0.0,0.020245819323134222,0.004258603374866164,-0.26487,1.1772,8.779950000000001
5656565600,22.35,-0.07349581480148122,0.00958185759344887,0.0,-0.49050000000000005,0.50031,8.75052
5661616105,22.35,-0.12356931104119852,-0.007452555906015787,0.004258603374866164,-0.63765,0.63765,8.799570000000001
5666666610,22.35,-0.08203047484373349,-0.06284930636431581,-0.002129301687433082,-0.27468000000000004,0.72594,9.172350000000002
5671717115,22.35,-0.09161233243718235,-0.007452555906015787,0.0,0.16677000000000003,0.43164,8.97615
5676767620,22.35,-0.14062117783318315,0.04581489286485115,0.002129301687433082,-0.51012,0.45126,8.927100000000001
5681818125,22.35,-0.10545279340549739,-0.022375121010567305,0.0,-0.51012,0.90252,9.20178
5686868630,22.35,-0.0852244273748831,-0.014905111812031574,0.0,0.0981,0.5493600000000001,9.36855
5691919135,22.35,-0.16510814723866357,0.04581489286485115,0.007452555906015787,-0.34335000000000004,-0.15696000000000002,9.44703
5696969640,22.35,-0.16191419470751395,-0.013840460968315033,0.003193952531149623,-1.10853,0.43164,9.751140000000001
5702020145,22.35,-0.08096582400001695,-0.09587093581204853,-0.002129301687433082,0.009810000000000001,0.8829,10.03563
5707070650,22.35,-0.13208651779093086,-0.01918116847941768,0.0,0.60822,-0.13734000000000002,9.751140000000001
5712121155,22.35,-0.18109536318693162,0.09800023749948161,0.005323254218582705,-0.45126,0.039240000000000004,9.36855
5717171660,22.35,-0.08948303074974927,0.015987215948268057,0.001064650843716541,-1.02024,0.9711900000000001,9.30969
5722222165,22.35,-0.08096582400001695,-0.044732788728614664,-0.005323254218582705,0.26487,1.02024,9.162540000000002
5727272670,22.35,-0.1832246648743647,0.060720004676882725,0.002129301687433082,-0.039240000000000004,0.02943,8.927100000000001
5732323175,22.35,-0.21944024685324706,0.05646140130201656,0.008517206749732328,-1.2556800000000001,0.2943,8.84862
5737373680,22.35,-0.14700908289548237,-0.07777187146886733,-0.001064650843716541,-0.72594,0.89271,9.11349
5742424185,22.35,-0.16831955306233315,-0.06391395720803235,-0.006387905062299246,0.25506,0.40221,9.162540000000002
5747474690,22.35,-0.25672047967584594,0.021310470166850764,0.007452555906015787,-0.04905,-0.3924,9.25083
5752525195,22.35,-0.21092304010351473,0.024504422698000388,0.003193952531149623,-0.73575,0.24525000000000002,9.52551
5757575700,22.35,-0.1416858286768997,-0.03408628029144926,0.001064650843716541,-0.44145,0.59841,9.73152
5762626205,22.35,-0.2130523417909478,-0.02769837522915001,-0.002129301687433082,0.25506,-0.04905,9.81
5767676710,22.35,-0.22156954854068012,0.04153883619746504,0.004258603374866164,-0.38259000000000004,-0.039240000000000004,9.72171
5772727215,22.35,-0.19814722997891623,0.00958185759344887,0.002129301687433082,-0.5591700000000001,0.13734000000000002,9.73152
5777777720,22.35,-0.17470745812463237,0.001064650843716541,0.002129301687433082,-0.32373,0.48069000000000006,9.55494
5782828225,22.35,-0.22156954854068012,-0.023439771854283843,0.0,-0.34335000000000004,-0.11772,9.633420000000001
5787878730,22.35,-0.23329816111408203,-0.008517206749732328,-0.001064650843716541,-0.0981,0.0981,9.50589
5792929235,22.35,-0.19387117331153014,0.03728023282259888,0.002129301687433082,-0.3924,0.04905,9.58437
5797979740,22.35,-0.22582815191554628,0.002129301687433082,0.002129301687433082,-0.43164,0.0981,9.36855
5803030245,22.35,-0.2183755960095305,-0.0170518667919846,0.0,-0.32373,0.26487,9.3195
5808080750,22.35,-0.2183755960095305,0.0,0.001064650843716541,-0.009810000000000001,0.07848000000000001,9.30969
5813131255,22.35,-0.26312583803066514,0.03621558197888234,0.004258603374866164,-0.36297,-0.51012,9.33912
5818181760,22.35,-0.25780258381208243,0.022375121010567305,0.005323254218582705,-1.01043,0.25506,9.45684
5823232265,22.35,-0.20666443672864854,-0.10225884087434776,0.0,-0.35316,0.02943,9.888480000000001
5828282770,22.35,-0.27483699731154704,-0.033021629447732716,0.0,0.49050000000000005,-0.6278400000000001,9.91791
5833333275,22.35,-0.27377234646783055,0.06710790973918197,0.008517206749732328,-0.59841,-0.6180300000000001,10.1043
5838383780,22.35,-0.23329816111408203,-0.033021629447732716,0.001064650843716541,-0.75537,-0.0981,10.24164
5843434285,22.35,-0.17683675981206545,-0.04366813788489812,0.0,0.35316,0.16677000000000003,10.006200000000002
5848484790,22.35,-0.2535265271446963,0.04260348704118158,0.004258603374866164,0.15696000000000002,-0.75537,9.87867
5853535295,22.35,-0.25139722545726323,0.07030186227033158,0.01064650843716541,-0.63765,-0.31392000000000003,9.6138
5858585800,22.35,-0.18854791909294744,0.011711159280881954,0.003193952531149623,-0.87309,0.42183,9.54513
5863636305,22.35,-0.2205048976969636,-0.05007349623971732,-0.001064650843716541,-0.07848000000000001,-0.16677000000000003,9.44703
5868686810,22.35,-0.30679397591556323,0.005323254218582705,0.003193952531149623,-0.11772,-0.86328,9.47646
5873737315,22.35,-0.26951374309296433,0.015987215948268057,0.005323254218582705,-0.79461,-0.45126,9.73152
5878787820,22.35,-0.21731094516581398,-0.05646140130201656,0.0,-0.32373,-0.15696000000000002,9.99639
5883838325,22.35,-0.23862141533266473,-0.02769837522915001,0.001064650843716541,0.2943,-0.60822,10.03563
5888888830,22.35,-0.28335420406127937,0.014905111812031574,0.0,-0.21582,-1.03986,10.143540000000002
5893939335,22.35,-0.22476350107182977,0.03089232776029963,0.004258603374866164,-0.42183,-0.26487,10.074869999999999
5898989840,22.35,-0.17896606149949854,0.006387905062299246,0.002129301687433082,-0.31392000000000003,-0.26487,10.025820000000001
5904040345,22.35,-0.24500932039496398,0.004258603374866164,0.003193952531149623,-0.14715,-0.69651,9.937529999999999
5909090850,22.35,-0.2535265271446963,0.005323254218582705,0.005323254218582705,-0.5591700000000001,-0.72594,10.12392
5914141355,22.35,-0.22156954854068012,-0.015987215948268057,0.003193952531149623,-0.42183,-0.5591700000000001,10.11411
5919191860,22.35,-0.2151816434783809,-0.015987215948268057,0.0,-0.14715,-0.60822,9.98658
5924242365,22.35,-0.23862141533266473,0.0,0.004258603374866164,-0.32373,-0.8338500000000001,10.06506
5929292870,22.35,-0.2279749068954993,-0.01918116847941768,-0.001064650843716541,-0.17658,-0.72594,10.06506
5934343375,22.35,-0.18961256993666398,0.02982767691658309,0.0,-0.14715,-0.56898,9.85905
5939393880,22.35,-0.20453513504121545,0.03089232776029963,0.005323254218582705,-0.44145,-0.70632,9.78057
5944444385,22.35,-0.2162462943220974,0.0,0.001064650843716541,-0.51993,-0.6768900000000001,9.908100000000001
5949494890,22.35,-0.20772908757236508,-0.023439771854283843,0.0,-0.38259000000000004,-0.6867000000000001,10.12392
5954545395,22.35,-0.22582815191554628,-0.024504422698000388,-0.001064650843716541,-0.15696000000000002,-1.1772,10.25145
5959595900,22.35,-0.22263419938439669,-0.001064650843716541,0.0,-0.45126,-1.03005,10.38879
5964646405,22.35,-0.1800307123432151,-0.024504422698000388,0.002129301687433082,-0.30411,-0.80442,10.4967
5969696910,22.35,-0.17470745812463237,-0.021310470166850764,-0.004258603374866164,0.13734000000000002,-0.95157,10.42803
5974747415,22.35,-0.18216001403064813,0.060720004676882725,0.003193952531149623,-0.14715,-1.01043,10.22202
5979797920,22.35,-0.15765559133264778,0.03089232776029963,0.004258603374866164,-0.72594,-0.72594,10.19259
5984848425,22.35,-0.15339698795778162,-0.014905111812031574,0.0,-0.2943,-0.65727,10.074869999999999
5989898930,22.35,-0.16831955306233315,-0.006387905062299246,0.001064650843716541,-0.28449,-0.9810000000000001,10.06506
5994949435,22.35,-0.20027653166634932,-0.012775810124598492,0.006387905062299246,-0.40221,-1.3734000000000002,10.15335
5999999940,22.35,-0.1480737337391989,-0.007452555906015787,0.003193952531149623,-0.34335000000000004,-0.6670800000000001,10.2024
6005050445,22.35,-0.13421581947836395,-0.022375121010567305,-0.001064650843716541,-0.24525000000000002,-1.24587,10.34955
6010100950,22.35,-0.16191419470751395,0.003193952531149623,0.002129301687433082,0.08829,-1.19682,10.32993
6015151455,22.35,-0.11931070766633237,0.039409534510031964,0.003193952531149623,-0.57879,-0.9711900000000001,10.51632
6020201960,22.35,-0.1171814059788993,-0.0170518667919846,0.001064650843716541,-0.28449,-0.9221400000000001,10.32993
6025252465,22.35,-0.11931070766633237,0.006387905062299246,0.002129301687433082,-0.1962,-0.9810000000000001,10.24164
6030302970,22.35,-0.13955652698946658,0.002129301687433082,0.001064650843716541,-0.42183,-1.29492,10.33974
6035353475,22.35,-0.11292280260403312,-0.01918116847941768,-0.001064650843716541,-0.18639,-1.1183400000000001,10.320120000000001
6040403980,22.35,-0.09054768159346581,0.012775810124598492,0.004258603374866164,-0.21582,-1.02024,10.398600000000002
6045454485,22.35,-0.09161233243718235,-0.004258603374866164,0.002129301687433082,-0.32373,-1.2556800000000001,10.40841
6050504990,22.35,-0.09267698328089889,0.006387905062299246,0.001064650843716541,-0.18639,-1.0987200000000001,10.48689
6055555495,22.35,-0.07136651311404815,0.012775810124598492,-0.001064650843716541,-0.45126,-1.16739,10.47708
6060606000,22.35,-0.0852244273748831,-0.015987215948268057,0.0,-0.30411,-1.1281500000000002,10.34955
6065656505,22.35,-0.06284930636431581,-0.001064650843716541,0.0,-0.20601000000000003,-0.9711900000000001,10.320120000000001
6070707010,22.35,-0.05752605214573309,0.006387905062299246,0.001064650843716541,-0.23544,-1.1281500000000002,10.24164
6075757515,22.35,-0.06604325889546543,0.002129301687433082,0.001064650843716541,-0.1962,-1.3341600000000002,10.23183
6080808020,22.35,-0.04581489286485115,0.013840460968315033,0.002129301687433082,-0.50031,-1.00062,10.300500000000001
6085858525,22.35,-0.023439771854283843,-0.02556907354171693,0.0,-0.27468000000000004,-1.1477700000000002,10.44765
6090909030,22.35,-0.03728023282259888,-0.004258603374866164,-0.002129301687433082,-0.02943,-1.3832099999999998,10.457460000000001
6095959535,22.35,-0.02769837522915001,0.02663372438543347,0.001064650843716541,-0.46107000000000004,-1.2753,10.555560000000002
6101010040,22.35,-0.01064650843716541,-0.0170518667919846,-0.002129301687433082,-0.42183,-0.9711900000000001,10.555560000000002
6106060545,22.35,0.008517206749732328,-0.00958185759344887,-0.004258603374866164,0.0,-1.08891,10.48689
6111111050,22.35,-0.0170518667919846,0.00958185759344887,0.0,-0.27468000000000004,-1.51074,10.42803
6116161555,22.35,0.0,0.012775810124598492,0.0,-0.41202000000000005,-0.9123300000000001,10.36917
6121212060,22.35,0.04260348704118158,-0.00958185759344887,-0.001064650843716541,-0.32373,-0.70632,10.17297
6126262565,22.35,0.015987215948268057,-0.003193952531149623,0.0,-0.019620000000000002,-1.19682,9.86886
6131313070,22.35,-0.012775810124598492,0.03089232776029963,0.0,-0.52974,-1.40283,9.908100000000001
6136363575,22.35,0.022375121010567305,-0.01064650843716541,0.002129301687433082,-0.6180300000000001,-1.13796,10.212209999999999
6141414080,22.35,0.05220279792715039,-0.04366813788489812,-0.003193952531149623,-0.13734000000000002,-1.15758,10.48689
6146464585,22.35,0.049008845396000776,0.011711159280881954,0.001064650843716541,0.019620000000000002,-1.43226,10.830240000000002
6151515090,22.35,0.049008845396000776,0.01064650843716541,0.0,-0.34335000000000004,-1.42245,11.016630000000001
6156565595,22.35,0.07456046564519776,0.0,-0.002129301687433082,-0.21582,-1.05948,10.97739
6161616100,22.35,0.09693558665576507,0.008517206749732328,0.0,-0.40221,-1.2556800000000001,10.76157
6166666605,22.35,0.07456046564519776,-0.012775810124598492,-0.003193952531149623,-0.21582,-1.39302,10.93815
6171717110,22.35,0.11824605682261582,0.023439771854283843,0.002129301687433082,-0.52974,-0.75537,10.535940000000002
6176767615,22.35,0.11611675513518273,-0.01811651763570114,-0.001064650843716541,-0.2943,-0.73575,10.12392
6181818120,22.35,0.09480628496833199,-0.024504422698000388,-0.005323254218582705,0.07848000000000001,-1.40283,9.888480000000001
6186868625,22.35,0.09374163412461543,0.03515093113516579,0.0,-0.37278,-0.9810000000000001,9.888480000000001
6191919130,22.35,0.1416858286768997,-0.003193952531149623,-0.002129301687433082,-0.44145,-0.72594,9.888480000000001
6196969635,22.35,0.1480737337391989,0.003193952531149623,-0.001064650843716541,-0.07848000000000001,-0.60822,9.633420000000001
6202020140,22.35,0.10225884087434776,0.020245819323134222,0.0,-0.48069000000000006,-1.50093,9.99639
6207070645,22.35,0.08096582400001695,-0.04260348704118158,-0.004258603374866164,-0.35316,-1.2753,10.52613
6212121150,22.35,0.18535396656179778,-0.02556907354171693,-0.001064650843716541,-0.23544,-0.6670800000000001,10.68309
6217171655,22.35,0.14487978120804929,-0.01064650843716541,0.0,-0.039240000000000004,-1.22625,10.38879
6222222160,22.35,0.12037535851004891,0.006387905062299246,-0.004258603374866164,-0.11772,-1.22625,10.594800000000001
6227272665,22.35,0.18961256993666398,0.011711159280881954,-0.001064650843716541,-0.38259000000000004,-0.80442,10.732140000000001
6232323170,22.35,0.18961256993666398,0.0,-0.003193952531149623,-0.06867000000000001,-0.95157,10.437840000000001
6237373675,22.35,0.1555262896452147,0.02663372438543347,-0.001064650843716541,-0.45126,-1.03986,10.29069
6242424180,22.35,0.18641861740551433,-0.015987215948268057,-0.002129301687433082,-0.79461,-0.6278400000000001,10.182780000000001
6247474685,22.35,0.19067722078038052,-0.060720004676882725,-0.00958185759344887,0.13734000000000002,-0.9810000000000001,10.19259
6252525190,22.35,0.18109536318693162,0.04366813788489812,-0.002129301687433082,-0.06867000000000001,-0.9711900000000001,10.01601
6257575695,22.35,0.20027653166634932,0.02663372438543347,-0.001064650843716541,-0.6867000000000001,-0.69651,9.85905
6262626200,22.35,0.22689280275926285,-0.011711159280881954,-0.004258603374866164,-0.08829,-0.28449,9.760950000000001
6267676705,22.35,0.20453513504121545,0.011711159280881954,-0.002129301687433082,-0.13734000000000002,-0.9221400000000001,9.89829
6272727210,22.35,0.15872024217636432,0.012775810124598492,-0.001064650843716541,-0.52974,-1.02024,9.888480000000001
6277777715,22.35,0.22156954854068012,-0.006387905062299246,-0.002129301687433082,-0.6278400000000001,-0.35316,10.13373
6282828220,22.35,0.21411699263466438,-0.05220279792715039,-0.007452555906015787,-0.0981,-0.8338500000000001,10.320120000000001
6287878725,22.35,0.17683675981206545,-0.014905111812031574,-0.003193952531149623,-0.07848000000000001,-1.3341600000000002,10.31031
6292929230,22.35,0.2279749068954993,0.012775810124598492,0.0,-0.40221,-0.6278400000000001,10.54575
6297979735,22.35,0.27164304478039747,0.006387905062299246,-0.004258603374866164,0.0,-0.18639,10.320120000000001
6303030240,22.35,0.25459117798841285,0.03621558197888234,-0.003193952531149623,-0.12753,-0.73575,10.045440000000001
6308080745,22.35,0.19921188082263275,0.021310470166850764,0.0,-0.64746,-0.71613,9.91791
6313131250,22.35,0.24394466955124744,-0.02556907354171693,-0.003193952531149623,-0.3924,-0.27468000000000004,10.06506
6318181755,22.35,0.26312583803066514,-0.004258603374866164,-0.001064650843716541,-0.12753,-0.34335000000000004,9.74133
6323232260,22.35,0.20666443672864854,0.003193952531149623,-0.001064650843716541,-0.27468000000000004,-1.00062,9.751140000000001
6328282765,22.35,0.2151816434783809,-0.005323254218582705,-0.003193952531149623,-0.5886,-0.28449,9.91791
6333333270,22.35,0.2822895532175628,-0.03728023282259888,-0.006387905062299246,-0.019620000000000002,-0.23544,10.025820000000001
6338383775,22.35,0.24075071702009782,0.023439771854283843,-0.003193952531149623,0.14715,-0.6180300000000001,9.64323
6343434280,22.35,0.2205048976969636,0.06604325889546543,-0.001064650843716541,-0.75537,-0.35316,9.70209
6348484785,22.35,0.2599318854995155,-0.04794419455228423,-0.006387905062299246,-0.52974,-0.04905,9.92772
6353535290,22.35,0.25459117798841285,-0.014905111812031574,-0.004258603374866164,0.27468000000000004,-0.30411,9.70209
6358585795,22.35,0.20879373841608162,0.046879543708567686,0.0,-0.50031,-0.69651,9.81
6363636300,22.35,0.22476350107182977,-0.01811651763570114,-0.004258603374866164,-0.79461,-0.20601000000000003,10.01601
6368686805,22.35,0.27377234646783055,-0.05646140130201656,-0.011711159280881954,-0.009810000000000001,-0.05886,10.182780000000001
6373737310,22.35,0.23223351027036546,0.003193952531149623,-0.006387905062299246,0.05886,-0.56898,10.01601
6378787815,22.35,0.22156954854068012,0.033021629447732716,-0.001064650843716541,-0.34335000000000004,-0.46107000000000004,9.89829
6383838320,22.35,0.2844188549049959,0.021310470166850764,-0.002129301687433082,-0.51993,0.37278,9.78057
6388888825,22.35,0.27909560068641326,-0.01064650843716541,-0.008517206749732328,-0.06867000000000001,0.05886,9.57456
6393939330,22.35,0.2130523417909478,0.03089232776029963,-0.005323254218582705,-0.17658,-0.36297,9.32931
6398989835,22.35,0.21944024685324706,0.03089232776029963,-0.002129301687433082,-0.7749900000000001,0.12753,9.39798
6404040340,22.35,0.2652551397180982,-0.033021629447732716,-0.004258603374866164,-0.43164,0.35316,9.45684
6409090845,22.35,0.2205048976969636,-0.02982767691658309,-0.005323254218582705,0.0,-0.25506,9.47646
6414141350,22.35,0.17470745812463237,0.0,-0.001064650843716541,-0.45126,-0.3924,9.74133
6419191855,22.35,0.23329816111408203,-0.021310470166850764,-0.006387905062299246,-0.34335000000000004,0.22563,9.89829
6424242360,22.35,0.26312583803066514,-0.00958185759344887,-0.006387905062299246,0.04905,0.15696000000000002,9.72171
6429292865,22.35,0.21092304010351473,0.03728023282259888,-0.001064650843716541,-0.20601000000000003,-0.15696000000000002,9.65304
6434343370,22.35,0.20879373841608162,0.0170518667919846,-0.004258603374866164,-0.5886,0.15696000000000002,9.633420000000001
6439393875,22.35,0.2503325746135467,-0.004258603374866164,-0.007452555906015787,-0.31392000000000003,0.48069000000000006,9.57456
6444444380,22.35,0.2236988502281132,0.015987215948268057,-0.001064650843716541,-0.24525000000000002,0.18639,9.33912
6449494885,22.35,0.17470745812463237,-0.002129301687433082,-0.002129301687433082,-0.56898,-0.0981,9.496080000000001
6454545390,22.35,0.20027653166634932,-0.03515093113516579,-0.004258603374866164,-0.43164,0.36297,9.623610000000001
6459595895,22.35,0.23010420858293237,-0.024504422698000388,-0.003193952531149623,0.05886,0.32373,9.54513
6464646400,22.35,0.19067722078038052,0.03089232776029963,0.001064650843716541,-0.15696000000000002,0.0981,9.36855
6469696905,22.35,0.18535396656179778,0.031956978604016174,0.0,-0.49050000000000005,0.40221,9.37836
6474747410,22.35,0.21731094516581398,-0.01811651763570114,-0.005323254218582705,-0.37278,0.60822,9.37836
6479797915,22.35,0.17683675981206545,0.007452555906015787,-0.003193952531149623,-0.08829,0.28449,9.20178
6484848420,22.35,0.15339698795778162,0.022375121010567305,-0.001064650843716541,-0.6670800000000001,0.34335000000000004,9.27045
6489898925,22.35,0.1704488547497662,-0.024504422698000388,-0.003193952531149623,-0.43164,0.5493600000000001,9.39798
6494949430,22.35,0.16938420390604966,-0.02663372438543347,-0.006387905062299246,-0.13734000000000002,0.42183,9.39798
6499999935,22.35,0.12995721610349775,0.0,0.0,-0.24525000000000002,-0.019620000000000002,9.52551
6505050440,22.35,0.14381513036433274,0.004258603374866164,-0.002129301687433082,-0.40221,0.5886,9.58437
6510100945,22.35,0.19814722997891623,-0.008517206749732328,-0.002129301687433082,-0.22563,0.69651,9.55494
6515151450,22.35,0.13421581947836395,0.006387905062299246,-0.003193952531149623,-0.009810000000000001,0.30411,9.25083
6520201955,22.35,0.12356931104119852,0.05220279792715039,0.002129301687433082,-0.57879,0.51012,9.23121
6525252460,22.35,0.14381513036433274,-0.023439771854283843,-0.003193952531149623,-0.5493600000000001,0.70632,9.26064
6530302965,22.35,0.1416858286768997,-0.013840460968315033,0.0,-0.05886,0.75537,9.054630000000001
6535353470,22.35,0.09374163412461543,0.015987215948268057,0.001064650843716541,-0.34335000000000004,0.43164,9.13311
6540403975,22.35,0.09374163412461543,-0.00958185759344887,-0.004258603374866164,-0.41202000000000005,0.56898,9.13311
6545454480,22.35,0.10759954838545042,-0.013840460968315033,-0.001064650843716541,-0.27468000000000004,0.5395500000000001,9.26064
6550504985,22.35,0.08628907821859966,0.002129301687433082,0.0,-0.38259000000000004,0.5886,9.32931
6555555490,22.35,0.08309512568745003,-0.014905111812031574,-0.003193952531149623,-0.21582,0.6180300000000001,9.36855
6560605995,22.35,0.09161233243718235,0.008517206749732328,0.0,-0.17658,0.6278400000000001,9.27045
6565656500,22.35,0.06497860805174888,0.01918116847941768,0.003193952531149623,-0.37278,0.47088,9.27045
6570707005,22.35,0.06710790973918197,0.002129301687433082,0.001064650843716541,-0.46107000000000004,0.7848,9.23121
6575757510,22.35,0.07883652231258387,-0.013840460968315033,0.0,-0.21582,0.8240400000000001,9.172350000000002
6580808015,22.35,0.046879543708567686,0.012775810124598492,-0.001064650843716541,-0.17658,0.56898,8.99577
6585858520,22.35,0.015987215948268057,0.01811651763570114,0.002129301687433082,-0.56898,0.46107000000000004,9.152730000000002
6590909025,22.35,0.033021629447732716,-0.023439771854283843,-0.006387905062299246,-0.47088,0.8338500000000001,9.28026
6595959530,22.35,0.04581489286485115,-0.020245819323134222,-0.001064650843716541,-0.13734000000000002,0.73575,9.21159
6601010035,22.35,0.0,0.013840460968315033,-0.001064650843716541,-0.18639,0.3924,9.11349
6606060540,22.35,0.0,0.01811651763570114,0.002129301687433082,-0.47088,0.71613,9.25083
6611111045,22.35,0.02769837522915001,-0.015987215948268057,-0.002129301687433082,-0.30411,0.89271,9.29988
6616161550,22.35,0.004258603374866164,-0.001064650843716541,-0.001064650843716541,-0.06867000000000001,0.59841,9.13311
6621212055,22.35,-0.03728023282259888,0.03089232776029963,0.001064650843716541,-0.45126,0.48069000000000006,9.13311
6626262560,22.35,-0.0170518667919846,-0.014905111812031574,0.0,-0.5591700000000001,0.65727,9.45684
6631313065,22.35,-0.013840460968315033,-0.039409534510031964,-0.004258603374866164,-0.18639,0.6180300000000001,9.53532
6636363570,22.35,-0.028763026072866547,-0.005323254218582705,0.0,-0.13734000000000002,0.48069000000000006,9.496080000000001
6641414075,22.35,-0.0404741853537485,0.013840460968315033,0.002129301687433082,-0.23544,0.60822,9.30969
6646464580,22.35,-0.014905111812031574,0.022375121010567305,0.0,-0.23544,0.86328,9.11349
6651515085,22.35,-0.023439771854283843,0.04260348704118158,0.002129301687433082,-0.2943,0.9810000000000001,8.85843
6656565590,22.35,-0.06497860805174888,0.014905111812031574,-0.002129301687433082,-0.6180300000000001,0.5591700000000001,8.80938
6661616095,22.35,-0.09906488834319814,-0.005323254218582705,0.0,-0.60822,0.7651800000000001,8.779950000000001
6666666600,22.35,-0.08309512568745003,-0.05007349623971732,-0.002129301687433082,-0.33354000000000006,0.74556,9.035010000000002
6671717105,22.35,-0.09906488834319814,-0.01918116847941768,0.0,0.009810000000000001,0.37278,9.00558
6676767610,22.35,-0.12995721610349775,0.03515093113516579,0.003193952531149623,-0.37278,0.52974,9.01539
6681818115,22.35,-0.09374163412461543,-0.012775810124598492,0.0,-0.57879,0.8240400000000001,9.10368
6686868620,22.35,-0.09587093581204853,-0.01811651763570114,0.0,0.039240000000000004,0.65727,9.2214
6691919125,22.35,-0.14594443205176583,0.02982767691658309,0.003193952531149623,-0.37278,0.04905,9.43722
6696969630,22.35,-0.16404349639494703,0.0,0.004258603374866164,-0.9123300000000001,0.26487,9.80019
6702020135,22.35,-0.11185815176031658,-0.07777187146886733,-0.005323254218582705,-0.15696000000000002,0.7651800000000001,9.98658
6707070640,22.35,-0.11292280260403312,-0.02663372438543347,-0.001064650843716541,0.33354000000000006,0.22563,9.70209
6712121145,22.35,-0.16404349639494703,0.060720004676882725,0.006387905062299246,-0.05886,0.05886,9.33912
6717171650,22.35,-0.12037535851004891,0.05859070298944965,0.006387905062299246,-0.79461,0.74556,9.358740000000001
6722222155,22.35,-0.09374163412461543,-0.007452555906015787,0.0,-0.24525000000000002,1.0791000000000002,9.162540000000002
6727272660,22.35,-0.15446163880149816,0.006387905062299246,-0.001064650843716541,-0.12753,0.20601000000000003,8.95653
6732323165,22.35,-0.2205048976969636,0.04366813788489812,0.007452555906015787,-0.79461,0.17658,8.927100000000001
6737373670,22.35,-0.17151350559348277,-0.04260348704118158,0.0,-0.74556,0.75537,9.26064
6742424175,22.35,-0.15765559133264778,-0.07349581480148122,-0.003193952531149623,0.12753,0.49050000000000005,9.26064
6747474680,22.35,-0.2343628119577986,0.008517206749732328,0.0,0.13734000000000002,-0.22563,9.24102
6752525185,22.35,-0.20985838925979816,0.04260348704118158,0.007452555906015787,-0.69651,0.17658,9.43722
6757575690,22.35,-0.14381513036433274,-0.015987215948268057,0.001064650843716541,-0.44145,0.64746,9.623610000000001
6762626195,22.35,-0.18535396656179778,0.0,0.0,0.05886,0.21582,9.60399
6767676700,22.35,-0.24500932039496398,0.023439771854283843,0.004258603374866164,-0.50031,-0.17658,9.6138
6772727205,22.35,-0.20985838925979816,-0.020245819323134222,0.0,-0.5886,0.14715,9.751140000000001
6777777710,22.35,-0.16510814723866357,-0.0170518667919846,0.003193952531149623,-0.18639,0.44145,9.7119
6782828215,22.35,-0.23223351027036546,-0.004258603374866164,0.004258603374866164,-0.04905,-0.24525000000000002,9.68247
6787878720,22.35,-0.23116885942664894,0.004258603374866164,0.004258603374866164,-0.36297,0.039240000000000004,9.55494
6792929225,22.35,-0.177901410655782,0.014905111812031574,0.001064650843716541,-0.27468000000000004,0.43164,9.47646
6797979730,22.35,-0.19814722997891623,0.020245819323134222,0.003193952531149623,-0.13734000000000002,0.13734000000000002,9.25083
6803030235,22.35,-0.2482032729261136,0.04366813788489812,0.007452555906015787,-0.60822,0.06867000000000001,9.182160000000001
6808080740,22.35,-0.23116885942664894,-0.03408628029144926,0.001064650843716541,-0.6278400000000001,0.1962,9.36855
6813131245,22.35,-0.2354274628015151,-0.03728023282259888,0.0,-0.039240000000000004,-0.15696000000000002,9.50589
6818181750,22.35,-0.27164304478039747,0.00958185759344887,0.003193952531149623,-0.33354000000000006,-0.32373,9.70209
6823232255,22.35,-0.25780258381208243,-0.02556907354171693,0.002129301687433082,-0.5886,-0.21582,9.96696
6828282760,22.35,-0.23010420858293237,-0.06284930636431581,-0.001064650843716541,0.20601000000000003,-0.04905,10.05525
6833333265,22.35,-0.2236988502281132,0.04153883619746504,0.004258603374866164,0.02943,-0.34335000000000004,9.82962
6838383770,22.35,-0.2482032729261136,0.05326744877086694,0.007452555906015787,-0.47088,-0.33354000000000006,9.72171
6843434275,22.35,-0.20879373841608162,0.01918116847941768,0.003193952531149623,-0.69651,0.27468000000000004,9.67266
6848484780,22.35,-0.22156954854068012,-0.03089232776029963,0.002129301687433082,-0.20601000000000003,-0.08829,9.78057
6853535285,22.35,-0.27909560068641326,-0.005323254218582705,0.003193952531149623,-0.14715,-0.70632,9.73152
6858585790,22.35,-0.2652551397180982,0.013840460968315033,0.002129301687433082,-0.6278400000000001,-0.27468000000000004,9.83943
6863636295,22.35,-0.21198769094723127,-0.04260348704118158,0.0,-0.37278,-0.019620000000000002,9.86886
6868686800,22.35,-0.24607397123868052,-0.03089232776029963,0.0,0.34335000000000004,-0.57879,9.81
6873737305,22.35,-0.2641904888743817,0.05007349623971732,0.004258603374866164,-0.31392000000000003,-0.65727,9.81
6878787810,22.35,-0.22476350107182977,0.020245819323134222,0.005323254218582705,-0.60822,-0.15696000000000002,9.82962
6883838315,22.35,-0.19280652246781357,-0.002129301687433082,0.002129301687433082,-0.17658,0.0,9.68247
6888888820,22.35,-0.26312583803066514,0.00958185759344887,0.003193952531149623,-0.27468000000000004,-0.6670800000000001,9.68247
6893939325,22.35,-0.27909560068641326,-0.013840460968315033,0.002129301687433082,-0.64746,-0.7749900000000001,9.94734
6898989830,22.35,-0.23223351027036546,-0.02769837522915001,0.003193952531149623,-0.40221,-0.2943,10.08468
6904040335,22.35,-0.22582815191554628,-0.02663372438543347,0.001064650843716541,-0.019620000000000002,-0.69651,10.163160000000001
6909090840,22.35,-0.25780258381208243,0.002129301687433082,0.003193952531149623,-0.17658,-0.8829,10.143540000000002
6914141345,22.35,-0.22582815191554628,-0.001064650843716541,0.003193952531149623,-0.32373,-0.74556,10.32993
6919191850,22.35,-0.19921188082263275,0.014905111812031574,0.001064650843716541,-0.16677000000000003,-0.43164,10.09449
6924242355,22.35,-0.19708257913519966,0.033021629447732716,0.006387905062299246,-0.27468000000000004,-0.41202000000000005,9.87867
6929292860,22.35,-0.2236988502281132,0.011711159280881954,0.0,-0.41202000000000005,-0.6768900000000001,9.81
6934343365,22.35,-0.2354274628015151,-0.005323254218582705,0.001064650843716541,-0.38259000000000004,-0.6867000000000001,9.84924
6939393870,22.35,-0.2151816434783809,-0.01064650843716541,0.004258603374866164,-0.5395500000000001,-0.72594,9.96696
6944444375,22.35,-0.2279749068954993,-0.031956978604016174,0.001064650843716541,-0.25506,-0.7651800000000001,10.08468
6949494880,22.35,-0.21731094516581398,-0.020245819323134222,0.002129301687433082,-0.16677000000000003,-0.87309,10.23183
6954545385,22.35,-0.21944024685324706,-0.014905111812031574,0.001064650843716541,-0.17658,-1.03005,10.31031
6959595890,22.35,-0.19280652246781357,0.011711159280881954,0.002129301687433082,-0.14715,-0.7848,10.22202
6964646395,22.35,-0.17151350559348277,0.020245819323134222,0.0,-0.34335000000000004,-0.63765,10.182780000000001
6969696900,22.35,-0.18428931571808121,0.012775810124598492,0.002129301687433082,-0.25506,-0.87309,10.13373
6974747405,22.35,-0.19814722997891623,0.007452555906015787,0.001064650843716541,-0.47088,-0.9711900000000001,10.22202
6979797910,22.35,-0.1832246648743647,-0.01064650843716541,0.003193952531149623,-0.5395500000000001,-0.8338500000000001,10.19259
6984848415,22.35,-0.17364280728091586,-0.033021629447732716,0.002129301687433082,-0.24525000000000002,-0.90252,10.26126
6989898920,22.35,-0.18216001403064813,0.0,0.001064650843716541,-0.10791,-1.1183400000000001,10.34955
6994949425,22.35,-0.1757721089683489,-0.004258603374866164,-0.001064650843716541,-0.23544,-1.04967,10.36917
6999999930,22.35,-0.14487978120804929,0.005323254218582705,0.003193952531149623,-0.1962,-0.9711900000000001,10.25145
7005050435,22.35,-0.13421581947836395,0.02556907354171693,0.004258603374866164,-0.25506,-0.71613,10.19259
7010100940,22.35,-0.14487978120804929,0.007452555906015787,0.001064650843716541,-0.37278,-1.06929,10.23183
7015151445,22.35,-0.15126768627034853,0.0,0.004258603374866164,-0.37278,-0.9613800000000001,10.09449
7020201950,22.35,-0.1352804703220805,-0.004258603374866164,0.002129301687433082,-0.51993,-1.13796,10.22202
7025252455,22.35,-0.14381513036433274,-0.02769837522915001,-0.002129301687433082,-0.10791,-1.1870100000000001,10.35936
7030302960,22.35,-0.11505210429146619,0.01064650843716541,0.002129301687433082,-0.20601000000000003,-0.9711900000000001,10.40841
7035353465,22.35,-0.1097288500728835,0.002129301687433082,0.0,-0.22563,-1.1183400000000001,10.44765
7040403970,22.35,-0.11292280260403312,0.006387905062299246,0.0,-0.1962,-1.20663,10.418220000000002
7045454475,22.35,-0.09374163412461543,0.0170518667919846,0.002129301687433082,-0.52974,-1.04967,10.50651
7050504980,22.35,-0.08735372906231618,-0.03089232776029963,0.0,-0.27468000000000004,-1.04967,10.47708
7055555485,22.35,-0.07883652231258387,0.004258603374866164,0.001064650843716541,-0.04905,-1.03005,10.320120000000001
7060605990,22.35,-0.09054768159346581,0.011711159280881954,0.0,-0.42183,-1.40283,10.320120000000001
7065656495,22.35,-0.07883652231258387,-0.004258603374866164,0.001064650843716541,-0.34335000000000004,-1.01043,10.280880000000002
7070707000,22.35,-0.04581489286485115,-0.002129301687433082,-0.003193952531149623,-0.36297,-0.94176,10.33974
7075757505,22.35,-0.06178465552059926,-0.005323254218582705,-0.002129301687433082,-0.16677000000000003,-1.24587,10.27107
7080808010,22.35,-0.06391395720803235,0.01064650843716541,0.0,-0.25506,-1.3047300000000002,10.37898
7085858515,22.35,-0.03834488366631542,-0.001064650843716541,0.0,-0.42183,-1.03005,10.42803
7090909020,22.35,-0.020245819323134222,-0.015987215948268057,-0.002129301687433082,-0.11772,-1.15758,10.44765
7095959525,22.35,-0.03834488366631542,0.012775810124598492,0.001064650843716541,-0.20601000000000003,-1.3635900000000003,10.47708
7101010030,22.35,-0.024504422698000388,0.00958185759344887,0.001064650843716541,-0.42183,-1.1772,10.50651
7106060535,22.35,0.003193952531149623,-0.007452555906015787,-0.001064650843716541,-0.38259000000000004,-0.9613800000000001,10.398600000000002
7111111040,22.35,-0.006387905062299246,-0.005323254218582705,-0.001064650843716541,-0.13734000000000002,-1.26549,10.38879
7116161545,22.35,-0.012775810124598492,0.011711159280881954,-0.001064650843716541,-0.32373,-1.1870100000000001,10.320120000000001
7121212050,22.35,0.008517206749732328,-0.004258603374866164,-0.001064650843716541,-0.37278,-0.9711900000000001,10.27107
7126262555,22.35,0.022375121010567305,-0.005323254218582705,-0.002129301687433082,-0.11772,-0.9319500000000001,10.09449
7131313060,22.35,0.006387905062299246,0.006387905062299246,0.0,-0.25506,-1.3243500000000001,10.074869999999999
7136363565,22.35,0.012775810124598492,0.005323254218582705,0.0,-0.41202000000000005,-1.1870100000000001,10.19259
7141414070,22.35,0.0404741853537485,-0.008517206749732328,-0.002129301687433082,-0.38259000000000004,-1.41264,10.44765
7146464575,22.35,0.04153883619746504,-0.004258603374866164,0.001064650843716541,-0.23544,-1.1772,10.66347
7151515080,22.35,0.07456046564519776,0.001064650843716541,0.0,-0.37278,-1.13796,10.91853
7156565585,22.35,0.060720004676882725,-0.03089232776029963,-0.002129301687433082,-0.10791,-1.45188,10.849860000000001
7161616090,22.35,0.06284930636431581,0.01811651763570114,0.0,-0.019620000000000002,-1.16739,10.72233
7166666595,22.35,0.09800023749948161,0.005323254218582705,-0.002129301687433082,-0.47088,-1.3243500000000001,10.732140000000001
7171717100,22.35,0.09906488834319814,0.014905111812031574,-0.002129301687433082,-0.1962,-0.94176,10.48689
7176767605,22.35,0.1097288500728835,0.021310470166850764,0.0,-0.6278400000000001,-0.79461,10.40841
7181818110,22.35,0.08309512568745003,-0.04260348704118158,-0.006387905062299246,-0.30411,-1.3537800000000002,10.22202
7186868615,22.35,0.09906488834319814,-0.008517206749732328,-0.002129301687433082,-0.02943,-1.1870100000000001,10.025820000000001
7191919120,22.35,0.1288925652597812,0.02556907354171693,0.001064650843716541,-0.48069000000000006,-0.9221400000000001,10.22202
7196969625,22.35,0.14487978120804929,0.002129301687433082,-0.002129301687433082,-0.12753,-0.6278400000000001,9.99639
7202020130,22.35,0.12995721610349775,0.01918116847941768,-0.002129301687433082,-0.23544,-1.05948,10.03563
7207070635,22.35,0.09161233243718235,-0.002129301687433082,-0.001064650843716541,-0.56898,-1.45188,10.08468
7212121140,22.35,0.13102186694721432,-0.02982767691658309,-0.001064650843716541,-0.43164,-0.8240400000000001,10.418220000000002
7217171645,22.35,0.16617279808238014,-0.012775810124598492,-0.002129301687433082,-0.16677000000000003,-0.94176,10.4967
7222222150,22.35,0.13421581947836395,0.002129301687433082,-0.003193952531149623,-0.10791,-1.22625,10.320120000000001
7227272655,22.35,0.1480737337391989,0.012775810124598492,-0.002129301687433082,-0.3924,-1.1281500000000002,10.555560000000002
7232323160,22.35,0.18961256993666398,-0.004258603374866164,0.0,-0.31392000000000003,-0.8829,10.64385
7237373665,22.35,0.177901410655782,0.003193952531149623,-0.002129301687433082,-0.24525000000000002,-0.95157,10.51632
7242424170,22.35,0.17151350559348277,0.002129301687433082,0.0,-0.38259000000000004,-0.8142300000000001,10.40841
7247474675,22.35,0.18109536318693162,-0.02769837522915001,-0.005323254218582705,-0.22563,-0.90252,10.22202
7252525180,22.35,0.18535396656179778,0.002129301687433082,-0.001064650843716541,-0.05886,-0.9908100000000001,10.03563
7257575685,22.35,0.19280652246781357,0.031956978604016174,-0.001064650843716541,-0.38259000000000004,-0.70632,9.91791
7262626190,22.35,0.2151816434783809,0.011711159280881954,-0.004258603374866164,-0.3924,-0.5591700000000001,9.79038
7267676695,22.35,0.20134118251006583,0.006387905062299246,-0.003193952531149623,-0.30411,-0.80442,9.91791
7272727200,22.35,0.177901410655782,0.001064650843716541,-0.002129301687433082,-0.47088,-1.01043,10.19259
7277777705,22.35,0.20453513504121545,-0.01918116847941768,-0.002129301687433082,-0.46107000000000004,-0.56898,10.22202
7282828210,22.35,0.2151816434783809,-0.03621558197888234,-0.006387905062299246,-0.019620000000000002,-0.69651,10.2024
7287878715,22.35,0.19708257913519966,0.014905111812031574,-0.004258603374866164,-0.019620000000000002,-0.90252,10.15335
7292929220,22.35,0.19387117331153014,0.002129301687433082,-0.004258603374866164,-0.32373,-1.00062,10.29069
7297979725,22.35,0.25139722545726323,0.002129301687433082,-0.003193952531149623,-0.30411,-0.33354000000000006,10.08468
7303030230,22.35,0.26951374309296433,0.01918116847941768,-0.002129301687433082,-0.17658,-0.42183,9.94734
7308080735,22.35,0.20240583335378237,0.01918116847941768,-0.003193952531149623,-0.3924,-0.9221400000000001,10.12392
7313131240,22.35,0.21092304010351473,-0.00958185759344887,-0.004258603374866164,-0.70632,-0.56898,10.24164
7318181745,22.35,0.26312583803066514,-0.049008845396000776,-0.004258603374866164,-0.23544,-0.23544,10.09449
7323232250,22.35,0.24394466955124744,-0.004258603374866164,-0.003193952531149623,0.21582,-0.70632,9.89829
7328282755,22.35,0.20559978588493202,0.05220279792715039,0.0,-0.36297,-0.59841,9.83943
7333333260,22.35,0.2641904888743817,-0.007452555906015787,-0.006387905062299246,-0.51993,-0.18639,9.80019
7338383765,22.35,0.2641904888743817,-0.003193952531149623,-0.006387905062299246,0.0,-0.20601000000000003,9.56475
7343434270,22.35,0.22903955773921586,0.049008845396000776,0.0,-0.43164,-0.52974,9.65304
7348484775,22.35,0.21731094516581398,0.0,-0.002129301687433082,-0.8338500000000001,-0.26487,9.81
7353535280,22.35,0.2556558288321294,-0.054332099614583476,-0.008517206749732328,-0.22563,-0.20601000000000003,9.91791
7358585785,22.35,0.21731094516581398,-0.01918116847941768,-0.005323254218582705,-0.06867000000000001,-0.73575,10.03563
7363636290,22.35,0.21092304010351473,0.006387905062299246,0.0,-0.31392000000000003,-0.56898,10.143540000000002
7368686795,22.35,0.26844909224924784,-0.0170518667919846,-0.006387905062299246,-0.2943,-0.0981,10.13373
7373737300,22.35,0.28122490237384634,0.00958185759344887,0.0,0.12753,-0.13734000000000002,9.85905
7378787805,22.35,0.2354274628015151,0.04794419455228423,-0.003193952531149623,-0.30411,-0.49050000000000005,9.80019
7383838310,22.35,0.2482032729261136,0.03515093113516579,-0.002129301687433082,-0.6768900000000001,0.07848000000000001,9.623610000000001
7388888815,22.35,0.2822895532175628,-0.013840460968315033,-0.004258603374866164,-0.46107000000000004,0.33354000000000006,9.56475
7393939320,22.35,0.23010420858293237,-0.007452555906015787,-0.002129301687433082,-0.14715,-0.18639,9.4176
7398989825,22.35,0.17896606149949854,-0.005323254218582705,-0.002129301687433082,-0.49050000000000005,-0.5493600000000001,9.633420000000001
7404040330,22.35,0.23329816111408203,-0.024504422698000388,-0.003193952531149623,-0.5395500000000001,0.13734000000000002,9.78057
7409090835,22.35,0.26951374309296433,-0.03728023282259888,-0.007452555906015787,0.0981,0.1962,9.751140000000001
7414141340,22.35,0.2162462943220974,0.024504422698000388,-0.004258603374866164,0.11772,-0.36297,9.59418
7419191845,22.35,0.2130523417909478,0.046879543708567686,0.0,-0.65727,-0.009810000000000001,9.58437
7424242350,22.35,0.26099653634323206,-0.008517206749732328,-0.004258603374866164,-0.48069000000000006,0.35316,9.67266
7429292855,22.35,0.23862141533266473,0.0,-0.004258603374866164,-0.10791,0.25506,9.50589
7434343360,22.35,0.18854791909294744,0.01918116847941768,0.0,-0.47088,-0.17658,9.56475
7439393865,22.35,0.19493582415524666,-0.03089232776029963,-0.003193952531149623,-0.51012,0.009810000000000001,9.64323
7444444370,22.35,0.23649211364523165,-0.023439771854283843,-0.004258603374866164,-0.14715,0.27468000000000004,9.7119
7449494875,22.35,0.2162462943220974,-0.001064650843716541,-0.003193952531149623,-0.02943,0.10791,9.65304
