#timestamp [ns], temperature [degC], w_RS_S_x [rad s^-1], w_RS_S_y [rad s^-1], w_RS_S_z [rad s^-1], a_RS_S_x [m s^-2], a_RS_S_y [m s^-2], a_RS_S_z [m s^-2]
0.0,21.65,0.0,0.0,0.0,0.74556,0.47088,9.83943
5000000.0,21.65,0.0,0.0,0.0,0.755271900097119,0.451456199805762,9.820006199805762
10000000.0,21.65,0.0,0.0,0.0,0.726528599417286,0.46087380019423796,9.810196199805763
15000000.0,21.65,0.0,0.0,0.0,0.744971400582714,0.480101400582714,9.838547100874072
20000000.0,21.65,0.0,0.0,0.0,0.754977600388476,0.490107600388476,9.820594799223048
25000000.0,21.65,0.0,0.0,0.0,0.783328501456785,0.47186099902881,9.810490499514405
30000000.0,21.65,0.0,0.0,0.0,0.775578599417286,0.47088,9.819221400582714
35000000.0,21.65,0.0,0.0,0.0,0.765866699320167,0.480003300679833,9.810686699320167
40000000.0,21.65,0.0,0.0,0.0,0.738104397669144,0.462639598446096,9.837075602330856
45000000.0,21.65,0.0,0.0,0.0,0.7625313026222131,0.46999710087407104,9.830502899125928
50000000.0,21.65,0.0,0.0,0.0,0.75635099902881,0.47088,9.803132997086431
55000000.0,21.65,0.0,0.0,0.0,0.7728318021366181,0.47088,9.80019
60000000.0,21.65,0.0,0.0,0.0,0.7490915965037159,0.488145602330856,9.826088403496284
65000000.0,21.65,0.0,0.0,0.0,0.7626294025250941,0.46489589621235894,9.821085298737453
70000000.0,21.65,0.0,0.0,0.0,0.7651800000000001,0.46107,9.828246601359666
75000000.0,21.65,0.0,0.0,0.0,0.74850299708643,0.47774700291357003,9.821281498543215
80000000.0,21.65,0.0,0.0,0.0,0.737319598446096,0.472449598446096,9.828050401553904
85000000.0,21.65,0.0,0.0,0.0,0.7683192066040921,0.479022301651023,9.837762301651024
90000000.0,21.65,0.0,0.0,0.0,0.7589015965037159,0.488734201748142,9.807253193007432
95000000.0,21.65,0.0,0.0,0.0,0.75537,0.4666616944642169,9.831974407381045
100000000.0,21.65,0.0,0.0,0.0,0.73967399611524,0.48461400582714004,9.83158199805762
105000000.0,21.65,0.0,0.0,0.0,0.751249804078998,0.4905,9.852869706118497
110000000.0,21.65,0.0,0.0,0.0,0.7630218021366181,0.498151802136618,9.836094593590147
115000000.0,21.65,0.0,0.0,0.0,0.7500725955325259,0.49275629776626295,9.82962
120000000.0,21.65,0.0,0.0,0.0,0.74556,0.4606775906765759,9.814708795338289
125000000.0,21.65,0.0,0.0,0.0,0.7676325072839252,0.47333250728392506,9.802642497572025
130000000.0,21.65,0.0,0.0,0.0,0.760471194949812,0.48069,9.829227610100377
135000000.0,21.65,0.0,0.0,0.0,0.75537,0.48069,9.83943
140000000.0,21.65,0.0,0.0,0.0,0.75537,0.46656359456133595,9.853556405438663
145000000.0,21.65,0.0,0.0,0.0,0.7623351028164511,0.46803510281645105,9.824224485917744
150000000.0,21.65,0.0,0.0,0.0,0.75144599417286,0.47774700291357003,9.803132997086431
155000000.0,21.65,0.0,0.0,0.0,0.752328903010689,0.46715219397862195,9.793421096989311
160000000.0,21.65,0.0,0.0,0.0,0.75537,0.47441160621561607,9.803721606215616
165000000.0,21.65,0.0,0.0,0.0,0.7619427032049271,0.48726270320492704,9.823145406409854
170000000.0,21.65,0.0,0.0,0.0,0.7651800000000001,0.48402539669795397,9.842569206604091
175000000.0,21.65,0.0,0.0,0.0,0.75242699320167,0.474313496600835,9.842863496600835
180000000.0,21.65,0.0,0.0,0.0,0.7518384034962841,0.477158403496284,9.80803798251858
185000000.0,21.65,0.0,0.0,0.0,0.75537,0.48687030359340305,9.802740607186808
190000000.0,21.65,0.0,0.0,0.0,0.7675344073810441,0.46617118523791184,9.822164407381045
195000000.0,21.65,0.0,0.0,0.0,0.769005896212359,0.457244103787641,9.847572311362923
200000000.0,21.65,0.0,0.0,0.0,0.7475219883457199,0.47284200776952007,9.84139198834572
205000000.0,21.65,0.0,0.0,0.0,0.741537903981879,0.474902096018121,9.818044192036242
210000000.0,21.65,0.0,0.0,0.0,0.7569396081579961,0.48225960815799607,9.804310195921003
215000000.0,21.65,0.0,0.0,0.0,0.7651800000000001,0.46813318329553183,9.805781704176118
220000000.0,21.65,0.0,0.0,0.0,0.7377119786338199,0.47323441709294417,9.831974417092944
225000000.0,21.65,0.0,0.0,0.0,0.7431075218517753,0.4743134868889349,9.833053486888936
230000000.0,21.65,0.0,0.0,0.0,0.754585191065052,0.4716648089349481,9.814512595532527
235000000.0,21.65,0.0,0.0,0.0,0.74556,0.4702913908708139,9.804800695435407
240000000.0,21.65,0.0,0.0,0.0,0.750661204661712,0.466171204661712,9.805291204661712
245000000.0,21.65,0.0,0.0,0.0,0.75537,0.45587068572350686,9.815003104758832
250000000.0,21.65,0.0,0.0,0.0,0.7651800097119001,0.4610700194238002,9.8099999902881
255000000.0,21.65,0.0,0.0,0.0,0.7557623801877238,0.48069,9.80499690495307
260000000.0,21.65,0.0,0.0,0.0,0.73575,0.48069,9.819417610100377
265000000.0,21.65,0.0,0.0,0.0,0.7495821154419212,0.4622471794107718,9.834230705147307
270000000.0,21.65,0.0,0.0,0.0,0.7651800000000001,0.46852563146655635,9.830404789511148
275000000.0,21.65,0.0,0.0,0.0,0.760765494658455,0.4914809893169099,9.833053516024636
280000000.0,21.65,0.0,0.0,0.0,0.7683192163159922,0.48069,9.840607189122672
285000000.0,21.65,0.0,0.0,0.0,0.7552718612495186,0.47647169446421694,9.821183388928434
290000000.0,21.65,0.0,0.0,0.0,0.7326108225316083,0.4791204112658041,9.814120205632902
295000000.0,21.65,0.0,0.0,0.0,0.7513478942699789,0.4784336828099368,9.823832105730022
300000000.0,21.65,0.0,0.0,0.0,0.7534080116542802,0.46499400582714007,9.83354400582714
305000000.0,21.65,0.0,0.0,0.0,0.761354094075741,0.4785318118485181,9.827952282227223
310000000.0,21.65,0.0,0.0,0.0,0.75537,0.4867721939786219,9.813727806021378
315000000.0,21.65,0.0,0.0,0.0,0.7662591183554912,0.4879494122369941,9.823439706118497
320000000.0,21.65,0.0,0.0,0.0,0.7671419689219198,0.4826519689219197,9.833151606215615
325000000.0,21.65,0.0,0.0,0.0,0.7460505189382052,0.4615605189382052,9.835996493687265
330000000.0,21.65,0.0,0.0,0.0,0.761844593590146,0.4773545935901459,9.832955406409853
335000000.0,21.65,0.0,0.0,0.0,0.75537,0.47088,9.832955386986054
340000000.0,21.65,0.0,0.0,0.0,0.7490915867918159,0.46774079339590796,9.81667079339591
345000000.0,21.65,0.0,0.0,0.0,0.7448733201036333,0.4641111067012111,9.813041106701212
350000000.0,21.65,0.0,0.0,0.0,0.7592939864033399,0.47970902039499025,9.82569601359666
355000000.0,21.65,0.0,0.0,0.0,0.7512498137908982,0.48893037241820375,9.84227490689545
360000000.0,21.65,0.0,0.0,0.0,0.762433193007432,0.46107,9.84924
365000000.0,21.65,0.0,0.0,0.0,0.75537,0.4663674141793741,9.841293878730939
370000000.0,21.65,0.0,0.0,0.0,0.75537,0.47813939281319395,9.817259392813193
375000000.0,21.65,0.0,0.0,0.0,0.7578225072839251,0.47088,9.81
380000000.0,21.65,0.0,0.0,0.0,0.7534079630947798,0.47794322214313223,9.814708814762088
385000000.0,21.65,0.0,0.0,0.0,0.7228989224344893,0.4912847700873477,9.831876307478163
390000000.0,21.65,0.0,0.0,0.0,0.7498764151505641,0.46322820757528205,9.837271792424717
395000000.0,21.65,0.0,0.0,0.0,0.7569395693103957,0.47706032301720325,9.8275598923276
400000000.0,21.65,0.0,0.0,0.0,0.7279020077695201,0.4944239766914398,9.821772007769521
405000000.0,21.65,0.0,0.0,0.0,0.7394778157332782,0.47088,9.825892184266722
410000000.0,21.65,0.0,0.0,0.0,0.753604192036242,0.47088,9.817063231855032
415000000.0,21.65,0.0,0.0,0.0,0.7472277080608771,0.47088,9.845904583878246
420000000.0,21.65,0.0,0.0,0.0,0.7538003918420039,0.4740192163159922,9.828050391842003
425000000.0,21.65,0.0,0.0,0.0,0.7470315082551151,0.4905,9.82275301651023
430000000.0,21.65,0.0,0.0,0.0,0.75537,0.4891265916477659,9.836683183295532
435000000.0,21.65,0.0,0.0,0.0,0.7540946915506469,0.4794146915506469,9.821085308449353
440000000.0,21.65,0.0,0.0,0.0,0.7432055829070559,0.46970279145352795,9.82373395726764
445000000.0,21.65,0.0,0.0,0.0,0.7270191086435911,0.46322821728718216,9.783807325930773
450000000.0,21.65,0.0,0.0,0.0,0.7367310087407101,0.4797089912592899,9.81
455000000.0,21.65,0.0,0.0,0.0,0.746442908837829,0.4717629088378291,9.812648726513487
460000000.0,21.65,0.0,0.0,0.0,0.75537,0.4799051910650519,9.840214808934949
465000000.0,21.65,0.0,0.0,0.0,0.7539965819358658,0.4729401270962013,9.848553290967933
470000000.0,21.65,0.0,0.0,0.0,0.7363386091291861,0.4973669543540696,9.837664172612442
475000000.0,21.65,0.0,0.0,0.0,0.7460505092263051,0.4517505092263051,9.809018981547391
480000000.0,21.65,0.0,0.0,0.0,0.7549775906765759,0.46107,9.791557227970273
485000000.0,21.65,0.0,0.0,0.0,0.7458543094205431,0.46107,9.82069292826163
490000000.0,21.65,0.0,0.0,0.0,0.7555662095176621,0.46126620951766206,9.849436209517663
495000000.0,21.65,0.0,0.0,0.0,0.7648856711556568,0.47088,9.858755671155656
500000000.0,21.65,0.0,0.0,0.0,0.7357500194238002,0.47088000971190014,9.8296199611524
505000000.0,21.65,0.0,0.0,0.0,0.7551738196180382,0.4805919098090191,9.790772360763924
510000000.0,21.65,0.0,0.0,0.0,0.7649838099061381,0.4614623801877238,9.809607619812276
515000000.0,21.65,0.0,0.0,0.0,0.7746957100032572,0.4515542899967429,9.81
520000000.0,21.65,0.0,0.0,0.0,0.765572389899624,0.4795128303011283,9.838252830301128
525000000.0,21.65,0.0,0.0,0.0,0.7651800000000001,0.4527314694075147,9.830110489802506
530000000.0,21.65,0.0,0.0,0.0,0.7559585897053859,0.4881456411784564,9.820398589705386
535000000.0,21.65,0.0,0.0,0.0,0.7827399311751994,0.4722533792165338,9.801563379216534
540000000.0,21.65,0.0,0.0,0.0,0.7667495790222959,0.49795563146655636,9.818240420977705
545000000.0,21.65,0.0,0.0,0.0,0.7741071105859711,0.4824557788280578,9.81981
550000000.0,21.65,0.0,0.0,0.0,0.7573319786338197,0.4542029679507297,9.81981
555000000.0,21.65,0.0,0.0,0.0,0.75537,0.46872182156041825,9.846002732340628
560000000.0,21.65,0.0,0.0,0.0,0.75537,0.47088,9.823341567368017
565000000.0,21.65,0.0,0.0,0.0,0.7468352890255529,0.4623452890255529,9.811275289025554
570000000.0,21.65,0.0,0.0,0.0,0.7539966110715661,0.4948164442862645,9.826873222143133
575000000.0,21.65,0.0,0.0,0.0,0.75537,0.4669559553252595,9.837958511168685
580000000.0,21.65,0.0,0.0,0.0,0.7471295887341959,0.47755082253160824,9.822949177468391
585000000.0,21.65,0.0,0.0,0.0,0.74556,0.48069,9.803525377274154
590000000.0,21.65,0.0,0.0,0.0,0.7696926343801264,0.4887342114600421,9.80019
595000000.0,21.65,0.0,0.0,0.0,0.767043888442839,0.4746077768856778,9.816082223114323
600000000.0,21.65,0.0,0.0,0.0,0.7730280116542801,0.47088,9.835506023308561
605000000.0,21.65,0.0,0.0,0.0,0.7594901764972017,0.46313008824860086,9.854929823502799
610000000.0,21.65,0.0,0.0,0.0,0.7477181881514818,0.47637362369703623,9.851398188151482
615000000.0,21.65,0.0,0.0,0.0,0.7380062880543629,0.48069,9.819025152217453
620000000.0,21.65,0.0,0.0,0.0,0.7581168361282684,0.48069,9.817455612042757
625000000.0,21.65,0.0,0.0,0.0,0.7431074635803747,0.4512599514404995,9.827167512139875
630000000.0,21.65,0.0,0.0,0.0,0.7575282367109825,0.4850064734219648,9.851398236710983
635000000.0,21.65,0.0,0.0,0.0,0.7651800000000001,0.4859873753317738,9.837566062997661
640000000.0,21.65,0.0,0.0,0.0,0.7510535751375358,0.4595003627063036,9.815493575137536
645000000.0,21.65,0.0,0.0,0.0,0.7385948874716489,0.4721553375850534,9.81
650000000.0,21.65,0.0,0.0,0.0,0.7563510378764104,0.4738229873745299,9.830601037876411
655000000.0,21.65,0.0,0.0,0.0,0.7651800000000001,0.49795565089035654,9.852967825445178
660000000.0,21.65,0.0,0.0,0.0,0.7651800000000001,0.5034491871802919,9.839037561540875
665000000.0,21.65,0.0,0.0,0.0,0.7651800000000001,0.4740191483326915,9.816474574166346
670000000.0,21.65,0.0,0.0,0.0,0.7716546130139462,0.47401922602789226,9.81
675000000.0,21.65,0.0,0.0,0.0,0.7622369737778697,0.4743134868889349,9.82275302622213
680000000.0,21.65,0.0,0.0,0.0,0.75537,0.47088,9.82962
685000000.0,21.65,0.0,0.0,0.0,0.75537,0.4832406266106063,9.841980626610606
690000000.0,21.65,0.0,0.0,0.0,0.7614522134024222,0.4722533597927336,9.830993359792734
695000000.0,21.65,0.0,0.0,0.0,0.7472276595013766,0.4670541134995411,9.807841773000918
700000000.0,21.65,0.0,0.0,0.0,0.7475220271933203,0.4649939864033399,9.81784804078998
705000000.0,21.65,0.0,0.0,0.0,0.7495820863062208,0.46685791369377916,9.846983741081337
710000000.0,21.65,0.0,0.0,0.0,0.7512498137908982,0.45950037241820374,9.841980558627306
715000000.0,21.65,0.0,0.0,0.0,0.75537,0.4624434277760343,9.82962
720000000.0,21.65,0.0,0.0,0.0,0.7608636139851361,0.48736084195540846,9.818632772029728
725000000.0,21.65,0.0,0.0,0.0,0.7705755140822552,0.48951897183548976,9.79920897183549
730000000.0,21.65,0.0,0.0,0.0,0.7643951716412517,0.4912848283587483,9.795677414179375
735000000.0,21.65,0.0,0.0,0.0,0.7657686285529863,0.48471205717052057,9.820987257105973
740000000.0,21.65,0.0,0.0,0.0,0.769888785626388,0.4606775712527757,9.834328785626388
745000000.0,21.65,0.0,0.0,0.0,0.7601768855292689,0.46626934341219345,9.82962
750000000.0,21.65,0.0,0.0,0.0,0.7651800291357003,0.4561649271607493,9.8198099708643
755000000.0,21.65,0.0,0.0,0.0,0.7653761706700617,0.46048148798981486,9.81480691466497
760000000.0,21.65,0.0,0.0,0.0,0.7459523704758237,0.4905,9.81981
765000000.0,21.65,0.0,0.0,0.0,0.7495821445776215,0.47666785542237855,9.829031429718414
770000000.0,21.65,0.0,0.0,0.0,0.7696926149563262,0.47460784486897845,9.834917385043674
775000000.0,21.65,0.0,0.0,0.0,0.7573319397862195,0.47725645483966456,9.816376454839665
780000000.0,21.65,0.0,0.0,0.0,0.7443828303011283,0.4697028303011283,9.813139245451692
785000000.0,21.65,0.0,0.0,0.0,0.7638066304953663,0.4680350542569505,9.833838315247684
790000000.0,21.65,0.0,0.0,0.0,0.7667495693103957,0.45950043068960433,9.835309784655198
795000000.0,21.65,0.0,0.0,0.0,0.75537,0.47892423088384234,9.821575769116158
800000000.0,21.65,0.0,0.0,0.0,0.7514459844609598,0.48657598446095984,9.79822795338288
805000000.0,21.65,0.0,0.0,0.0,0.7417340843638408,0.48451591563615914,9.78439591563616
810000000.0,21.65,0.0,0.0,0.0,0.7432056314665563,0.4830443685334437,9.805291262933114
815000000.0,21.65,0.0,0.0,0.0,0.75537,0.4781394316607943,9.833249715830398
820000000.0,21.65,0.0,0.0,0.0,0.7589016159275161,0.4799051522174515,9.835898384072484
825000000.0,21.65,0.0,0.0,0.0,0.7617464839753649,0.4679370320492703,9.82962
830000000.0,21.65,0.0,0.0,0.0,0.7520345838782458,0.47735458387824586,9.82962
835000000.0,21.65,0.0,0.0,0.0,0.7390853675622537,0.4644053675622537,9.826382683781127
840000000.0,21.65,0.0,0.0,0.0,0.7416360815799609,0.46067764894797647,9.826088432631984
845000000.0,21.65,0.0,0.0,0.0,0.7689077671737777,0.48069,9.836388883586888
850000000.0,21.65,0.0,0.0,0.0,0.75537,0.48069,9.82667698348977
855000000.0,21.65,0.0,0.0,0.0,0.75537,0.48353491660734915,9.81696508339265
860000000.0,21.65,0.0,0.0,0.0,0.75537,0.4822595498865955,9.81
865000000.0,21.65,0.0,0.0,0.0,0.7527212831984128,0.46901615040476147,9.812648716801588
870000000.0,21.65,0.0,0.0,0.0,0.7506612337974123,0.48539876620258765,9.824911233797412
875000000.0,21.65,0.0,0.0,0.0,0.7676325169958252,0.4659749660083497,9.83943
880000000.0,21.65,0.0,0.0,0.0,0.7702811658141117,0.4606776683717767,9.832366748721167
885000000.0,21.65,0.0,0.0,0.0,0.7576263171900631,0.48598736561987366,9.81
890000000.0,21.65,0.0,0.0,0.0,0.7587053481384536,0.47519643457436433,9.812158217287182
895000000.0,21.65,0.0,0.0,0.0,0.7439904695372047,0.48431964784709647,9.817749882615699
900000000.0,21.65,0.0,0.0,0.0,0.7691039475557395,0.46303201748142014,9.8198100874071
905000000.0,21.65,0.0,0.0,0.0,0.74556,0.47088,9.85532216484292
910000000.0,21.65,0.0,0.0,0.0,0.7437941823243418,0.47088,9.834132546973025
915000000.0,21.65,0.0,0.0,0.0,0.7390854355455544,0.4742154355455544,9.81
920000000.0,21.65,0.0,0.0,0.0,0.75537,0.48736076426020764,9.81
925000000.0,21.65,0.0,0.0,0.0,0.7509554460989545,0.47088,9.812943035934031
930000000.0,21.65,0.0,0.0,0.0,0.7328070903206709,0.4736268361282684,9.828246581935867
935000000.0,21.65,0.0,0.0,0.0,0.7698887273549874,0.4853987273549873,9.822360636322507
940000000.0,21.65,0.0,0.0,0.0,0.73575,0.4536144365167444,9.835898345224884
945000000.0,21.65,0.0,0.0,0.0,0.73575,0.47411735506647357,9.811079118355492
950000000.0,21.65,0.0,0.0,0.0,0.73575,0.49736694464216946,9.81588592618956
955000000.0,21.65,0.0,0.0,0.0,0.73575,0.4717629185497292,9.784984592748646
960000000.0,21.65,0.0,0.0,0.0,0.73575,0.48069,9.830404818646848
965000000.0,21.65,0.0,0.0,0.0,0.7371234374879344,0.4820634374879344,9.838056562512065
970000000.0,21.65,0.0,0.0,0.0,0.7571358565232585,0.49913276231782766,9.81981
975000000.0,21.65,0.0,0.0,0.0,0.7833284431853845,0.4797089621235896,9.81981
980000000.0,21.65,0.0,0.0,0.0,0.7549775809646758,0.46185483807064837,9.819417580964677
985000000.0,21.65,0.0,0.0,0.0,0.7458543191324432,0.4809843191324432,9.81
990000000.0,21.65,0.0,0.0,0.0,0.7557624384591244,0.4901075615408756,9.81
995000000.0,21.65,0.0,0.0,0.0,0.7747937613466377,0.4709781193266812,9.81
1000000000.0,21.65,0.0,0.0,0.0,0.7553700194238002,0.4806899805761998,9.810000038847601
1005000000.0,21.65,0.0,0.0,0.0,0.7650819195209193,0.47097808047908085,9.829423839041839
1010000000.0,21.65,0.0,0.0,0.0,0.7651800000000001,0.4804938196180382,9.839233819618038
1015000000.0,21.65,0.0,0.0,0.0,0.7556642802848428,0.4711742802848428,9.820398560569686
1020000000.0,21.65,0.0,0.0,0.0,0.7365347603754476,0.4897152396245524,9.800974760375448
1025000000.0,21.65,0.0,0.0,0.0,0.73575,0.4998195199093952,9.80019
1030000000.0,21.65,0.0,0.0,0.0,0.7449714200065142,0.4818671599869716,9.827854260019542
1035000000.0,21.65,0.0,0.0,0.0,0.74556,0.4715666798963668,9.838743320103633
1040000000.0,21.65,0.0,0.0,0.0,0.7545852202007521,0.4889304404015044,9.848455220200751
1045000000.0,21.65,0.0,0.0,0.0,0.75537,0.4815728797021288,9.813531518808515
1050000000.0,21.65,0.0,0.0,0.0,0.7641990203949903,0.48069,9.801170979605011
1055000000.0,21.65,0.0,0.0,0.0,0.7739109204921093,0.4719590795078908,9.80892092049211
1060000000.0,21.65,0.0,0.0,0.0,0.7663571794107719,0.47951282058922823,9.827265641178457
1065000000.0,21.65,0.0,0.0,0.0,0.7481105586273056,0.4892247206863472,9.82962
1070000000.0,21.65,0.0,0.0,0.0,0.7624332415669325,0.4736267584330676,9.82962
1075000000.0,21.65,0.0,0.0,0.0,0.7401644373582444,0.4792185208805852,9.837958520880585
1080000000.0,21.65,0.0,0.0,0.0,0.7522308419554085,0.48069,9.822949158044592
1085000000.0,21.65,0.0,0.0,0.0,0.7472276789251768,0.48069,9.827952321074823
1090000000.0,21.65,0.0,0.0,0.0,0.7616484423438845,0.48069,9.821575778828057
1095000000.0,21.65,0.0,0.0,0.0,0.7651800000000001,0.4568516361928164,9.835702242538122
1100000000.0,21.65,0.0,0.0,0.0,0.7573319786338197,0.46695604273236047,9.83158197863382
1105000000.0,21.65,0.0,0.0,0.0,0.7476200785367008,0.4863798429265984,9.814120157073402
1110000000.0,21.65,0.0,0.0,0.0,0.7685154646812546,0.4905,9.840607286241672
1115000000.0,21.65,0.0,0.0,0.0,0.7523288350273883,0.4753925566849256,9.834132556684926
1120000000.0,21.65,0.0,0.0,0.0,0.74556,0.47088,9.814708756490688
1125000000.0,21.65,0.0,0.0,0.0,0.74556,0.47088,9.81
1130000000.0,21.65,0.0,0.0,0.0,0.7528194219488942,0.4853988438977884,9.817259421948895
1135000000.0,21.65,0.0,0.0,0.0,0.7410473559079735,0.47617735590797355,9.812648677953987
1140000000.0,21.65,0.0,0.0,0.0,0.7569396664293967,0.47088,9.845316110715661
1145000000.0,21.65,0.0,0.0,0.0,0.7512497555194976,0.46391487775974877,9.852084877759749
1150000000.0,21.65,0.0,0.0,0.0,0.7524270223373702,0.4542029776626298,9.821771910650519
1155000000.0,21.65,0.0,0.0,0.0,0.7621389224344893,0.48510461217244616,9.81676892243449
1160000000.0,21.65,0.0,0.0,0.0,0.7518383549367835,0.49363917746839175,9.833151645063216
1165000000.0,21.65,0.0,0.0,0.0,0.7652781678861817,0.47735455474254557,9.826284554742546
1170000000.0,21.65,0.0,0.0,0.0,0.7620407545483076,0.47088,9.81981
1175000000.0,21.65,0.0,0.0,0.0,0.7426169543540696,0.4772565228229652,9.81981
1180000000.0,21.65,0.0,0.0,0.0,0.7420284229200842,0.46813315415983153,9.81981
1185000000.0,21.65,0.0,0.0,0.0,0.7331993539655935,0.46725032301720326,9.80126903094839
1190000000.0,21.65,0.0,0.0,0.0,0.750268892457289,0.47696222311432224,9.81470889245729
1195000000.0,21.65,0.0,0.0,0.0,0.7472276303656763,0.4627376303656763,9.817651753577119
1200000000.0,21.65,0.0,0.0,0.0,0.7475220466171205,0.4689180699256807,9.815886023308561
1205000000.0,21.65,0.0,0.0,0.0,0.75537,0.48647792340567925,9.842961693622717
1210000000.0,21.65,0.0,0.0,0.0,0.7610598235027983,0.4734305294916053,9.841980529491606
1215000000.0,21.65,0.0,0.0,0.0,0.7651800000000001,0.4722534471998345,9.818436552800167
1220000000.0,21.65,0.0,0.0,0.0,0.7541927526059276,0.4861836236970362,9.804506376302964
1225000000.0,21.65,0.0,0.0,0.0,0.7401644762058448,0.46891790482337903,9.805585523794155
1230000000.0,21.65,0.0,0.0,0.0,0.73575,0.4671522716738227,9.820594847782548
1235000000.0,21.65,0.0,0.0,0.0,0.756547295953573,0.47549067601160677,9.840018647976786
1240000000.0,21.65,0.0,0.0,0.0,0.7698887759144878,0.47088,9.839037551828975
1245000000.0,21.65,0.0,0.0,0.0,0.7501706274521063,0.4808862483652625,9.814610627452106
1250000000.0,21.65,0.0,0.0,0.0,0.7406550242797503,0.470879902880999,9.79528497572025
1255000000.0,21.65,0.0,0.0,0.0,0.7551738487537385,0.45606692437686924,9.833642319391823
1260000000.0,21.65,0.0,0.0,0.0,0.7698888244739883,0.4751964734219647,9.864543526578036
1265000000.0,21.65,0.0,0.0,0.0,0.7703792754288928,0.47666782628667825,9.840018550857785
1270000000.0,21.65,0.0,0.0,0.0,0.7651800000000001,0.46107,9.798031627322416
1275000000.0,21.65,0.0,0.0,0.0,0.7607654752346548,0.4698990495306905,9.778608099061382
1280000000.0,21.65,0.0,0.0,0.0,0.7510535751375358,0.46774072541260725,9.804506424862465
1285000000.0,21.65,0.0,0.0,0.0,0.7582149748787498,0.468133299838333,9.81
1290000000.0,21.65,0.0,0.0,0.0,0.7832304501134045,0.48225954988659553,9.826480900226809
1295000000.0,21.65,0.0,0.0,0.0,0.778521499384715,0.46685787484617874,9.837173624538536
1300000000.0,21.65,0.0,0.0,0.0,0.7514459747490597,0.4728420757528207,9.81981
1305000000.0,21.65,0.0,0.0,0.0,0.7532118506961185,0.48667407465194074,9.815984074651942
1310000000.0,21.65,0.0,0.0,0.0,0.7577243491096436,0.47323434910964346,9.817455650890357
1315000000.0,21.65,0.0,0.0,0.0,0.7528194510845946,0.47921862771148627,9.833249725542297
1320000000.0,21.65,0.0,0.0,0.0,0.7616483743605837,0.5030567487211675,9.82883512308175
1325000000.0,21.65,0.0,0.0,0.0,0.7519364742634648,0.4905,9.816867051473071
1330000000.0,21.65,0.0,0.0,0.0,0.7422245741663458,0.48716457416634573,9.819613722499037
1335000000.0,21.65,0.0,0.0,0.0,0.73575,0.47745267406922676,9.816376629653867
1340000000.0,21.65,0.0,0.0,0.0,0.73575,0.4646015479442155,9.83668309588843
1345000000.0,21.65,0.0,0.0,0.0,0.7387911261250113,0.4603833783750338,9.816082252250023
1350000000.0,21.65,0.0,0.0,0.0,0.7514460524442605,0.48069,9.82962
1355000000.0,21.65,0.0,0.0,0.0,0.7623350736807508,0.48069,9.823930147361501
1360000000.0,21.65,0.0,0.0,0.0,0.75537,0.4724495207508952,9.812746826416369
1365000000.0,21.65,0.0,0.0,0.0,0.75537,0.4592061795404618,9.81981
1370000000.0,21.65,0.0,0.0,0.0,0.7528193733893938,0.4832406266106063,9.817259373389394
1375000000.0,21.65,0.0,0.0,0.0,0.7480125267077252,0.4855949465845495,9.802642419876825
1380000000.0,21.65,0.0,0.0,0.0,0.75537,0.4661711463903115,9.789987707219378
1385000000.0,21.65,0.0,0.0,0.0,0.75537,0.4580289807058898,9.817553673098038
1390000000.0,21.65,0.0,0.0,0.0,0.75537,0.47637354600183546,9.814316453998165
1395000000.0,21.65,0.0,0.0,0.0,0.7574301270962013,0.4651902541924025,9.825499745807598
1400000000.0,21.65,0.0,0.0,0.0,0.7612559456133595,0.4826520271933203,9.815886081579961
1405000000.0,21.65,0.0,0.0,0.0,0.7492878545808785,0.4830442908382429,9.83943
1410000000.0,21.65,0.0,0.0,0.0,0.7581166904497669,0.45655748216267483,9.832366690449767
1415000000.0,21.65,0.0,0.0,0.0,0.7326109099387091,0.47735454503064545,9.803525454969355
1420000000.0,21.65,0.0,0.0,0.0,0.7636103724182038,0.4657788827453888,9.81981
1425000000.0,21.65,0.0,0.0,0.0,0.7524269446421694,0.4905,9.81981
1430000000.0,21.65,0.0,0.0,0.0,0.7371234277760343,0.48775314444793144,9.81981
1435000000.0,21.65,0.0,0.0,0.0,0.7468353278731533,0.4721553278731533,9.821085327873154
1440000000.0,21.65,0.0,0.0,0.0,0.7577244559405446,0.48069,9.827265544059456
1445000000.0,21.65,0.0,0.0,0.0,0.7695943596630437,0.47745261579782616,9.811079128067393
1450000000.0,21.65,0.0,0.0,0.0,0.7288830844935309,0.45420308449353086,9.81981
1455000000.0,21.65,0.0,0.0,0.0,0.7571358565232585,0.48069,9.81981
1460000000.0,21.65,0.0,0.0,0.0,0.7749900000000001,0.48069,9.820594828358749
1465000000.0,21.65,0.0,0.0,0.0,0.7743032715441328,0.4820634569117346,9.828246543088266
1470000000.0,21.65,0.0,0.0,0.0,0.7651800000000001,0.49972137144701373,9.811177257105973
1475000000.0,21.65,0.0,0.0,0.0,0.7641989426997895,0.4895189426997894,9.829129471349894
1480000000.0,21.65,0.0,0.0,0.0,0.74556,0.47048757125277574,9.820594857494449
1485000000.0,21.65,0.0,0.0,0.0,0.7461486576886865,0.46195298653302985,9.83854701346697
1490000000.0,21.65,0.0,0.0,0.0,0.7653762289414624,0.48991131317561315,9.81
1495000000.0,21.65,0.0,0.0,0.0,0.7747937419228375,0.46126625807716254,9.81
1500000000.0,21.65,0.0,0.0,0.0,0.7553700291357003,0.4806900582714006,9.81
1505000000.0,21.65,0.0,0.0,0.0,0.7650819292328194,0.5001138584656386,9.81
1510000000.0,21.65,0.0,0.0,0.0,0.7651800000000001,0.4618546826802468,9.848455317319754
1515000000.0,21.65,0.0,0.0,0.0,0.7461485411458855,0.4801014588541146,9.830208541145886
1520000000.0,21.65,0.0,0.0,0.0,0.7643952590483527,0.4901076295241763,9.810784740951648
1525000000.0,21.65,0.0,0.0,0.0,0.7279018815148188,0.4718609407574094,9.800680470378705
1530000000.0,21.65,0.0,0.0,0.0,0.7536042891552429,0.4801014297184143,9.809411429718415
1535000000.0,21.65,0.0,0.0,0.0,0.7736166596310666,0.48069,9.81
1540000000.0,21.65,0.0,0.0,0.0,0.7659647700873478,0.4897152299126523,9.837075689737958
1545000000.0,21.65,0.0,0.0,0.0,0.7651800000000001,0.4815728699902287,9.83943
1550000000.0,21.65,0.0,0.0,0.0,0.7475219397862194,0.4718609698931097,9.804113879572439
1555000000.0,21.65,0.0,0.0,0.0,0.74556,0.4796109302040093,9.80892093020401
1560000000.0,21.65,0.0,0.0,0.0,0.74556,0.47205716969887174,9.81
1565000000.0,21.65,0.0,0.0,0.0,0.74556,0.47941473039824734,9.84413892159299
1570000000.0,21.65,0.0,0.0,0.0,0.74556,0.48069,9.8239301085139
1575000000.0,21.65,0.0,0.0,0.0,0.74556,0.48069,9.81981
1580000000.0,21.65,0.0,0.0,0.0,0.74556,0.4724495693103957,9.811569569310397
1585000000.0,21.65,0.0,0.0,0.0,0.74556,0.47088,9.83442699236017
1590000000.0,21.65,0.0,0.0,0.0,0.7857811544192116,0.4869684617676846,9.83943
1595000000.0,21.65,0.0,0.0,0.0,0.7787177380380774,0.46666160705711607,9.831483869019038
1600000000.0,21.65,0.0,0.0,0.0,0.7357498446095985,0.46891803107808033,9.813923937843839
1605000000.0,21.65,0.0,0.0,0.0,0.7569397247007973,0.4786299311751993,9.81
1610000000.0,21.65,0.0,0.0,0.0,0.7651800000000001,0.46538633745536334,9.84825915636159
1615000000.0,21.65,0.0,0.0,0.0,0.7576262686305627,0.4686237313694373,9.836388805891689
1620000000.0,21.65,0.0,0.0,0.0,0.7628256314665564,0.47833563146655633,9.837075631466556
1625000000.0,21.65,0.0,0.0,0.0,0.7578224684363247,0.4733324684363247,9.817357405308975
1630000000.0,21.65,0.0,0.0,0.0,0.7408511366784114,0.48539886332158866,9.81
1635000000.0,21.65,0.0,0.0,0.0,0.7429113317579134,0.4833386682420867,9.817161331757914
1640000000.0,21.65,0.0,0.0,0.0,0.7596864637100647,0.45950030443490303,9.812746768144969
1645000000.0,21.65,0.0,0.0,0.0,0.7582148680478487,0.47215539585645394,9.844825659760756
1650000000.0,21.65,0.0,0.0,0.0,0.7622370320492704,0.48069,9.85218296795073
1655000000.0,21.65,0.0,0.0,0.0,0.7448732035608321,0.4739210678536107,9.822164271414444
1660000000.0,21.65,0.0,0.0,0.0,0.73575,0.48422166448701665,9.783316671025966
1665000000.0,21.65,0.0,0.0,0.0,0.7423227323406273,0.4773545353187454,9.803623661703137
1670000000.0,21.65,0.0,0.0,0.0,0.7520346324377463,0.47735463243774634,9.832759264875493
1675000000.0,21.65,0.0,0.0,0.0,0.7681230650697307,0.4743134674651347,9.833053467465135
1680000000.0,21.65,0.0,0.0,0.0,0.737319404208094,0.4771584326319843,9.84217686526397
1685000000.0,21.65,0.0,0.0,0.0,0.7408513309164133,0.4930506654582067,9.836879334541793
1690000000.0,21.65,0.0,0.0,0.0,0.75537,0.48814553434755537,9.811373301521334
1695000000.0,21.65,0.0,0.0,0.0,0.7493858670766587,0.48069,9.806174132923342
1700000000.0,21.65,0.0,0.0,0.0,0.7514460330204603,0.463031900938619,9.821772066040921
1705000000.0,21.65,0.0,0.0,0.0,0.7611579331175794,0.468623799352738,9.82962
1710000000.0,21.65,0.0,0.0,0.0,0.7481105003559051,0.47500016678530166,9.835309833214698
1715000000.0,21.65,0.0,0.0,0.0,0.7413417333118173,0.47088,9.822654800064548
1720000000.0,21.65,0.0,0.0,0.0,0.7510536334089363,0.4818672668178727,9.81
1725000000.0,21.65,0.0,0.0,0.0,0.75537,0.47970893298788936,9.815395533506056
1730000000.0,21.65,0.0,0.0,0.0,0.7606674336031743,0.4761774336031743,9.830404867206349
1735000000.0,21.65,0.0,0.0,0.0,0.7651800000000001,0.4702913325994133,9.844629333700293
1740000000.0,21.65,0.0,0.0,0.0,0.7651800000000001,0.47127246759482466,9.813531363418114
1745000000.0,21.65,0.0,0.0,0.0,0.7451674644218746,0.48569313389453134,9.800582535578126
1750000000.0,21.65,0.0,0.0,0.0,0.7455601359666014,0.48559496600834967,9.82471503399165
1755000000.0,21.65,0.0,0.0,0.0,0.750759197733692,0.48069,9.83442693408877
1760000000.0,21.65,0.0,0.0,0.0,0.7451676683717767,0.4901076683717767,9.825303497442336
1765000000.0,21.65,0.0,0.0,0.0,0.741537797150978,0.49108853143398534,9.819221468566015
1770000000.0,21.65,0.0,0.0,0.0,0.7349652687602527,0.48069,9.820594731239748
1775000000.0,21.65,0.0,0.0,0.0,0.7632181379089814,0.467446396568264,9.81
1780000000.0,21.65,0.0,0.0,0.0,0.7804835654256357,0.46852573829745736,9.822949303723094
1785000000.0,21.65,0.0,0.0,0.0,0.76233499598555,0.48206333065703333,9.82677499598555
1790000000.0,21.65,0.0,0.0,0.0,0.7496802347686023,0.48324070430580707,9.822360704305808
1795000000.0,21.65,0.0,0.0,0.0,0.7593921348657213,0.50031,9.827363595402836
1800000000.0,21.65,0.0,0.0,0.0,0.7573319300743193,0.50031,9.817848069925681
1805000000.0,21.65,0.0,0.0,0.0,0.7493859350599593,0.48883219482012197,9.83344593505996
1810000000.0,21.65,0.0,0.0,0.0,0.7590978351570784,0.46715216484292166,9.831974329685844
1815000000.0,21.65,0.0,0.0,0.0,0.754290794237408,0.46107,9.816180264745803
1820000000.0,21.65,0.0,0.0,0.0,0.7428132707026327,0.4681332707026327,9.802936729297368
1825000000.0,21.65,0.0,0.0,0.0,0.75537,0.48069,9.793813535448436
1830000000.0,21.65,0.0,0.0,0.0,0.7620408710911087,0.48069,9.803525435545556
1835000000.0,21.65,0.0,0.0,0.0,0.7588033217866332,0.48069,9.826186678213366
1840000000.0,21.65,0.0,0.0,0.0,0.7384969429591695,0.47755076426020765,9.85905
1845000000.0,21.65,0.0,0.0,0.0,0.7590977283261774,0.4678388641630887,9.849926592489266
1850000000.0,21.65,0.0,0.0,0.0,0.7426169640659697,0.46401303593403037,9.82373392813194
1855000000.0,21.65,0.0,0.0,0.0,0.73575,0.47088,9.804310127937702
1860000000.0,21.65,0.0,0.0,0.0,0.7467373445130735,0.4653863277434633,9.795873672256537
1865000000.0,21.65,0.0,0.0,0.0,0.7696925275492253,0.45390873622538735,9.823243681126938
1870000000.0,21.65,0.0,0.0,0.0,0.7579206363225064,0.46362063632250633,9.853948727354988
1875000000.0,21.65,0.0,0.0,0.0,0.7651800000000001,0.47578507283925076,9.83452492716075
1880000000.0,21.65,0.0,0.0,0.0,0.7628255634832557,0.4881455634832556,9.817455563483255
1885000000.0,21.65,0.0,0.0,0.0,0.7531136633861366,0.47843366338613663,9.803230990158411
1890000000.0,21.65,0.0,0.0,0.0,0.74556,0.46872176328901766,9.78057
1895000000.0,21.65,0.0,0.0,0.0,0.7517404104243042,0.46313013680810133,9.792930820848609
1900000000.0,21.65,0.0,0.0,0.0,0.7730279630947797,0.4689179630947796,9.847278147620882
1905000000.0,21.65,0.0,0.0,0.0,0.759588188992982,0.4666618110070181,9.867486377985964
1910000000.0,21.65,0.0,0.0,0.0,0.7428133483978335,0.4905,9.818044162900541
1915000000.0,21.65,0.0,0.0,0.0,0.7683190512136906,0.4888322628034226,9.806664525606847
1920000000.0,21.65,0.0,0.0,0.0,0.7388892745873927,0.47912036270630365,9.796658549174786
1925000000.0,21.65,0.0,0.0,0.0,0.7568415373908154,0.47088,9.831091537390815
1930000000.0,21.65,0.0,0.0,0.0,0.7610596875361969,0.4722534374879344,9.842176874975868
1935000000.0,21.65,0.0,0.0,0.0,0.7344746624149466,0.48069,9.853948649659786
1940000000.0,21.65,0.0,0.0,0.0,0.7341806637752066,0.4818672376821724,9.818632762317828
1945000000.0,21.65,0.0,0.0,0.0,0.7902934488828345,0.4905,9.813237413337875
1950000000.0,21.65,0.0,0.0,0.0,0.7573320757528208,0.48853792424717923,9.837467924247179
1955000000.0,21.65,0.0,0.0,0.0,0.7732241240529413,0.4717629379735294,9.818927062026471
1960000000.0,21.65,0.0,0.0,0.0,0.7561548380706484,0.4799051619293516,9.809215161929352
1965000000.0,21.65,0.0,0.0,0.0,0.7638065236644653,0.47019326183223265,9.801563476335536
1970000000.0,21.65,0.0,0.0,0.0,0.7467372765297727,0.46283591479465913,9.820398638264887
1975000000.0,21.65,0.0,0.0,0.0,0.7661610767240109,0.4905,9.829129461637995
1980000000.0,21.65,0.0,0.0,0.0,0.7832302461635026,0.4901075615408756,9.819417561540876
1985000000.0,21.65,0.0,0.0,0.0,0.74556,0.4803956614437566,9.809705661443758
1990000000.0,21.65,0.0,0.0,0.0,0.7453637613466376,0.4710762386533624,9.799993761346638
1995000000.0,21.65,0.0,0.0,0.0,0.7358481387504814,0.4804937224990372,9.790674416251445
2000000000.0,21.65,0.0,0.0,0.0,0.7455599611523996,0.4610700388476004,9.819810038847601
2005000000.0,21.65,0.0,0.0,0.0,0.7358480610552807,0.4707819389447194,9.829521938944719
2010000000.0,21.65,0.0,0.0,0.0,0.7742053561673536,0.4997215171255152,9.848847678083677
2015000000.0,21.65,0.0,0.0,0.0,0.7654742608610426,0.47176278258312787,9.820692782583128
2020000000.0,21.65,0.0,0.0,0.0,0.7651800000000001,0.4802976392360764,9.829227639236077
2025000000.0,21.65,0.0,0.0,0.0,0.7651800000000001,0.4620509213336092,9.79234184266722
2030000000.0,21.65,0.0,0.0,0.0,0.7375156817090568,0.47951287886062877,9.80882287886063
2035000000.0,21.65,0.0,0.0,0.0,0.73575,0.4989366790548668,9.8373700185823
2040000000.0,21.65,0.0,0.0,0.0,0.7538004792491048,0.46420904150179043,9.830404760375448
2045000000.0,21.65,0.0,0.0,0.0,0.75537,0.4699971397216714,9.847474279443343
2050000000.0,21.65,0.0,0.0,0.0,0.7465409601812096,0.4885380796375808,9.831581920362419
2055000000.0,21.65,0.0,0.0,0.0,0.74556,0.4730381201681812,9.838350939915909
2060000000.0,21.65,0.0,0.0,0.0,0.7282943199739432,0.47088,9.813531479960915
2065000000.0,21.65,0.0,0.0,0.0,0.7515442203304422,0.4879494802202948,9.835604220330442
2070000000.0,21.65,0.0,0.0,0.0,0.7638066402072665,0.4651900793782008,9.83943
2075000000.0,21.65,0.0,0.0,0.0,0.7485029193912291,0.4944241612175416,9.83943
2080000000.0,21.65,0.0,0.0,0.0,0.7620408808030089,0.48382911919699123,9.822949119196991
2085000000.0,21.65,0.0,0.0,0.0,0.7651800000000001,0.4725476595013766,9.81981
2090000000.0,21.65,0.0,0.0,0.0,0.7651800000000001,0.47088,9.81981
2095000000.0,21.65,0.0,0.0,0.0,0.7731261406928615,0.4867722813857228,9.81981
2100000000.0,21.65,0.0,0.0,0.0,0.7592939184200392,0.46695587763005875,9.851202163159922
2105000000.0,21.65,0.0,0.0,0.0,0.7476200591129006,0.4765698817741988,9.828050236451602
2110000000.0,21.65,0.0,0.0,0.0,0.7532118409842185,0.4730381590157816,9.835113681968437
2115000000.0,21.65,0.0,0.0,0.0,0.7478162589186625,0.47088,9.80921503567465
2120000000.0,21.65,0.0,0.0,0.0,0.7381043588215436,0.4857912823569128,9.830012564713826
2125000000.0,21.65,0.0,0.0,0.0,0.7504650825511509,0.4978575412755754,9.82471491744885
2130000000.0,21.65,0.0,0.0,0.0,0.75537,0.4785316758819168,9.812550558627306
2135000000.0,21.65,0.0,0.0,0.0,0.7696926829396269,0.47088,9.831484024409441
2140000000.0,21.65,0.0,0.0,0.0,0.7538002752992028,0.4638167584330676,9.83943
2145000000.0,21.65,0.0,0.0,0.0,0.74556,0.4680351416640514,9.825499716671898
2150000000.0,21.65,0.0,0.0,0.0,0.7318259164776592,0.47088,9.83354408352234
2155000000.0,21.65,0.0,0.0,0.0,0.7394778837165789,0.47088,9.83943
2160000000.0,21.65,0.0,0.0,0.0,0.7655725258662253,0.47088,9.819417474133775
2165000000.0,21.65,0.0,0.0,0.0,0.7684172579474726,0.48402548410505486,9.81
2170000000.0,21.65,0.0,0.0,0.0,0.7522307157007072,0.48402535785035355,9.81
2175000000.0,21.65,0.0,0.0,0.0,0.7646896267402963,0.46793691550646915,9.816376542246767
2180000000.0,21.65,0.0,0.0,0.0,0.7624331153122311,0.46734844234388445,9.813531557656116
2185000000.0,21.65,0.0,0.0,0.0,0.7677306848820069,0.46469965755899656,9.81
2190000000.0,21.65,0.0,0.0,0.0,0.7749900000000001,0.46107,9.816082242538123
2195000000.0,21.65,0.0,0.0,0.0,0.7630217147295172,0.4909907131762071,9.81981
2200000000.0,21.65,0.0,0.0,0.0,0.75537,0.4924618718029187,9.82569604273236
2205000000.0,21.65,0.0,0.0,0.0,0.7669458856589589,0.48069,9.82383205717052
2210000000.0,21.65,0.0,0.0,0.0,0.7636103141468031,0.48069,9.825499842926599
2215000000.0,21.65,0.0,0.0,0.0,0.75537,0.46950651395256515,9.818436513952566
2220000000.0,21.65,0.0,0.0,0.0,0.7608636431208364,0.4665636431208364,9.826480929362509
2225000000.0,21.65,0.0,0.0,0.0,0.7543889135640892,0.4654844567820446,9.85022108643591
2230000000.0,21.65,0.0,0.0,0.0,0.74556,0.48225977326029773,9.843157670054778
2235000000.0,21.65,0.0,0.0,0.0,0.74556,0.48991131317561315,9.824420656587806
2240000000.0,21.65,0.0,0.0,0.0,0.7506612435093124,0.48069,9.814708756490688
2245000000.0,21.65,0.0,0.0,0.0,0.7503668563935686,0.48069,9.81
2250000000.0,21.65,0.0,0.0,0.0,0.7553700874071009,0.47578495629644957,9.8198100874071
2255000000.0,21.65,0.0,0.0,0.0,0.7651800000000001,0.47088,9.848847775202678
2260000000.0,21.65,0.0,0.0,0.0,0.7557623122044231,0.48500653169336533,9.850024624408846
2265000000.0,21.65,0.0,0.0,0.0,0.7501707439949075,0.49108851201018516,9.801955536030555
2270000000.0,21.65,0.0,0.0,0.0,0.7643952881840529,0.48520264409202646,9.788810576368105
2275000000.0,21.65,0.0,0.0,0.0,0.7617463674325637,0.49491454418914543,9.823243632567436
2280000000.0,21.65,0.0,0.0,0.0,0.7671422214313223,0.48304422285494225,9.83943
2285000000.0,21.65,0.0,0.0,0.0,0.7861733112332332,0.45685165561661656,9.847866688766766
2290000000.0,21.65,0.0,0.0,0.0,0.7749900000000001,0.46774097792200975,9.838448777597488
2295000000.0,21.65,0.0,0.0,0.0,0.7669457108447572,0.48647785542237854,9.805977855422379
2300000000.0,21.65,0.0,0.0,0.0,0.75537,0.48069,9.811962134024222
2305000000.0,21.65,0.0,0.0,0.0,0.763021889543719,0.48451594477185944,9.83727188954372
2310000000.0,21.65,0.0,0.0,0.0,0.7675343102620431,0.4755886205240862,9.84924
2315000000.0,21.65,0.0,0.0,0.0,0.7589997449660975,0.45126,9.841980510067804
2320000000.0,21.65,0.0,0.0,0.0,0.7581167098735672,0.4583232901264329,9.826088354936784
2325000000.0,21.65,0.0,0.0,0.0,0.74556,0.46744645483966457,9.812942909679329
2330000000.0,21.65,0.0,0.0,0.0,0.74556,0.47107633577236335,9.796854554742547
2335000000.0,21.65,0.0,0.0,0.0,0.752034690709147,0.4905,9.816278762836587
2340000000.0,21.65,0.0,0.0,0.0,0.7651800000000001,0.4842215090966151,9.853163772741537
2345000000.0,21.65,0.0,0.0,0.0,0.7621388544511886,0.46783885445118856,9.81981
2350000000.0,21.65,0.0,0.0,0.0,0.75537,0.46107,9.81686695435407
2355000000.0,21.65,0.0,0.0,0.0,0.75537,0.4667598914860989,9.818534837229148
2360000000.0,21.65,0.0,0.0,0.0,0.7443826166393261,0.4861836916803369,9.836683154159832
2365000000.0,21.65,0.0,0.0,0.0,0.7293737296864373,0.49501250812542513,9.832268745937288
2370000000.0,21.65,0.0,0.0,0.0,0.7626293539655936,0.48069,9.836879353965594
2375000000.0,21.65,0.0,0.0,0.0,0.75537,0.48314254613152546,9.82962
2380000000.0,21.65,0.0,0.0,0.0,0.75537,0.4834366613140666,9.82962
2385000000.0,21.65,0.0,0.0,0.0,0.7576263463257634,0.45881365367423654,9.82962
2390000000.0,21.65,0.0,0.0,0.0,0.7630217535771175,0.4555764928457649,9.831778246422882
2395000000.0,21.65,0.0,0.0,0.0,0.751249706959997,0.47706043956000443,9.827069120879992
2400000000.0,21.65,0.0,0.0,0.0,0.7396740932342409,0.49834795338287957,9.786456139851362
2405000000.0,21.65,0.0,0.0,0.0,0.7535060532857605,0.48863605328576054,9.81372789342848
2410000000.0,21.65,0.0,0.0,0.0,0.749091693622717,0.47892415318864157,9.82962
2415000000.0,21.65,0.0,0.0,0.0,0.7635122530915226,0.47421549381695494,9.826284506183045
2420000000.0,21.65,0.0,0.0,0.0,0.7585092940111929,0.4889303529944035,9.817848235027983
2425000000.0,21.65,0.0,0.0,0.0,0.7720469057945691,0.4777469057945691,9.853163811589138
2430000000.0,21.65,0.0,0.0,0.0,0.7539965528001655,0.46381689439966894,9.814316211200662
2435000000.0,21.65,0.0,0.0,0.0,0.74556,0.47686395810913956,9.783120694593908
2440000000.0,21.65,0.0,0.0,0.0,0.74556,0.453614494788145,9.802544494788146
2445000000.0,21.65,0.0,0.0,0.0,0.7444808525088086,0.46980085250880854,9.81981
2450000000.0,21.65,0.0,0.0,0.0,0.7386931427649315,0.4640131427649314,9.824715237941552
2455000000.0,21.65,0.0,0.0,0.0,0.7642970523145706,0.48961705231457053,9.865328209258282
2460000000.0,21.65,0.0,0.0,0.0,0.7545851522174515,0.47912030443490305,9.825695761087259
2465000000.0,21.65,0.0,0.0,0.0,0.7462467478796675,0.46244349575933497,9.781256747879668
2470000000.0,21.65,0.0,0.0,0.0,0.75537,0.4812786479767865,9.79214594393036
2475000000.0,21.65,0.0,0.0,0.0,0.7563510961478109,0.4900094519260945,9.821281644221717
2480000000.0,21.65,0.0,0.0,0.0,0.7745975518289756,0.479905103657951,9.849632448171025
2485000000.0,21.65,0.0,0.0,0.0,0.7651800000000001,0.46165869653628694,9.859344348268143
2490000000.0,21.65,0.0,0.0,0.0,0.7645912549042126,0.4808862483652625,9.867093764712637
2495000000.0,21.65,0.0,0.0,0.0,0.735946296924763,0.4905,9.780668148462382
2500000000.0,21.65,0.0,0.0,0.0,0.7553700485595005,0.49049990288099904,9.790380145678503
2505000000.0,21.65,0.0,0.0,0.0,0.7650819486566196,0.47107610268676103,9.819515845969859
2510000000.0,21.65,0.0,0.0,0.0,0.7363384537387846,0.45165230249252303,9.867879243768693
2515000000.0,21.65,0.0,0.0,0.0,0.754781497701715,0.47029149770171497,9.849828502298285
2520000000.0,21.65,0.0,0.0,0.0,0.7647876489479766,0.4802976489479765,9.830404702104047
2525000000.0,21.65,0.0,0.0,0.0,0.7558604509549045,0.47137045095490454,9.81098090190981
2530000000.0,21.65,0.0,0.0,0.0,0.7461485508577855,0.4616585508577855,9.800778550857785
2535000000.0,21.65,0.0,0.0,0.0,0.7546833492393334,0.479316698478667,9.818436698478667
2540000000.0,21.65,0.0,0.0,0.0,0.7463447506635476,0.46263950132709497,9.810784750663547
2545000000.0,21.65,0.0,0.0,0.0,0.7544871494335715,0.496778597734286,9.818927149433572
2550000000.0,21.65,0.0,0.0,0.0,0.7641990495306906,0.48265190093861904,9.83746809906138
2555000000.0,21.65,0.0,0.0,0.0,0.7739109496278096,0.47195905037219055,9.830699050372191
2560000000.0,21.65,0.0,0.0,0.0,0.7490914508252146,0.47088,9.846885699449857
2565000000.0,21.65,0.0,0.0,0.0,0.7540947498220475,0.4964842494661425,9.81510100071181
2570000000.0,21.65,0.0,0.0,0.0,0.7469333500808335,0.483436700161667,9.818436649919168
2575000000.0,21.65,0.0,0.0,0.0,0.74556,0.47235144998371453,9.828148550016286
2580000000.0,21.65,0.0,0.0,0.0,0.74556,0.4791204501134045,9.82962
2585000000.0,21.65,0.0,0.0,0.0,0.7862717510526176,0.4725476497894765,9.837762350210523
2590000000.0,21.65,0.0,0.0,0.0,0.7704772490770726,0.4789242503076425,9.831385749692357
2595000000.0,21.65,0.0,0.0,0.0,0.7731261504047616,0.464797699190477,9.82962
2600000000.0,21.65,0.0,0.0,0.0,0.7828380505018806,0.476766101003761,9.806075848494359
2605000000.0,21.65,0.0,0.0,0.0,0.7693000988020011,0.49618990119799905,9.815689901197999
2610000000.0,21.65,0.0,0.0,0.0,0.7422244479116445,0.469702597215526,9.82746185069612
2615000000.0,21.65,0.0,0.0,0.0,0.73575,0.47617750158647504,9.82962
2620000000.0,21.65,0.0,0.0,0.0,0.7432056508903565,0.4881456508903565,9.844531301780712
2625000000.0,21.65,0.0,0.0,0.0,0.7676326529624266,0.475784898025049,9.84924
2630000000.0,21.65,0.0,0.0,0.0,0.760471097830811,0.45636109783081097,9.812942744577027
2635000000.0,21.65,0.0,0.0,0.0,0.7482086488182865,0.47274405354514054,9.807351351181714
2640000000.0,21.65,0.0,0.0,0.0,0.7596865025576651,0.4736267487211675,9.817063251278833
2645000000.0,21.65,0.0,0.0,0.0,0.7651800000000001,0.47088,9.833740302751902
2650000000.0,21.65,0.0,0.0,0.0,0.7583129485269295,0.4777470514730705,9.83256294852693
2655000000.0,21.65,0.0,0.0,0.0,0.7486010484298105,0.4739210484298105,9.81608209685962
2660000000.0,21.65,0.0,0.0,0.0,0.7522308516673085,0.47088,9.81
2665000000.0,21.65,0.0,0.0,0.0,0.7619427517644276,0.47088,9.81
2670000000.0,21.65,0.0,0.0,0.0,0.752230696276907,0.47088,9.81
2675000000.0,21.65,0.0,0.0,0.0,0.7519365519586655,0.47088,9.835506207834662
2680000000.0,21.65,0.0,0.0,0.0,0.7616484520557846,0.47088,9.83668309588843
2685000000.0,21.65,0.0,0.0,0.0,0.752819295694193,0.47706035215290354,9.823439647847097
2690000000.0,21.65,0.0,0.0,0.0,0.733395495499955,0.48069,9.807645495499955
2695000000.0,21.65,0.0,0.0,0.0,0.737908304694283,0.4866741523471415,9.806174152347142
2700000000.0,21.65,0.0,0.0,0.0,0.7573321048885211,0.4846139475557395,9.81
2705000000.0,21.65,0.0,0.0,0.0,0.7651800000000001,0.48069,9.81578795254138
2710000000.0,21.65,0.0,0.0,0.0,0.7651800000000001,0.4750001473615015,9.831189705276998
2715000000.0,21.65,0.0,0.0,0.0,0.7595882472643825,0.47088,9.833838247264383
2720000000.0,21.65,0.0,0.0,0.0,0.7498763471672635,0.4763736528327365,9.82962
2725000000.0,21.65,0.0,0.0,0.0,0.74556,0.4752944470701445,9.835015552929855
2730000000.0,21.65,0.0,0.0,0.0,0.7614523590809237,0.47088,9.823537640919076
2735000000.0,21.65,0.0,0.0,0.0,0.7749900000000001,0.47607935312409355,9.820398706248188
2740000000.0,21.65,0.0,0.0,0.0,0.7596862403363625,0.4908925064424251,9.834721253221213
2745000000.0,21.65,0.0,0.0,0.0,0.74556,0.49530684668166847,9.844433153318331
2750000000.0,21.65,0.0,0.0,0.0,0.74556,0.4855949465845495,9.829619786338197
2755000000.0,21.65,0.0,0.0,0.0,0.7503669535125695,0.48549695351256955,9.824420860537709
2760000000.0,21.65,0.0,0.0,0.0,0.75537,0.4905,9.825303439170934
2765000000.0,21.65,0.0,0.0,0.0,0.7461484925863849,0.4905,9.819221507413616
2770000000.0,21.65,0.0,0.0,0.0,0.7538006152157062,0.4905,9.820594692392147
2775000000.0,21.65,0.0,0.0,0.0,0.766160892197909,0.4905,9.823243661703136
2780000000.0,21.65,0.0,0.0,0.0,0.7467370920036709,0.48618354600183544,9.843746453998165
2785000000.0,21.65,0.0,0.0,0.0,0.7484050622858507,0.48490835409528354,9.832366583618866
2790000000.0,21.65,0.0,0.0,0.0,0.7569394916151949,0.4740189832303898,9.81
2795000000.0,21.65,0.0,0.0,0.0,0.7536043085790431,0.4633264628685646,9.818044308579044
2800000000.0,21.65,0.0,0.0,0.0,0.757331891226719,0.48069,9.82962
2805000000.0,21.65,0.0,0.0,0.0,0.7417340455162404,0.47686404551624045,9.825794045516242
2810000000.0,21.65,0.0,0.0,0.0,0.73575,0.48206356374263565,9.823537854580879
2815000000.0,21.65,0.0,0.0,0.0,0.7393797546779975,0.4894207359660074,9.82962
2820000000.0,21.65,0.0,0.0,0.0,0.7490916547751165,0.4779433095502331,9.81902503567465
2825000000.0,21.65,0.0,0.0,0.0,0.7656706646167066,0.4836328902555289,9.807057109744472
2830000000.0,21.65,0.0,0.0,0.0,0.7747936350919363,0.47088,9.81981
2835000000.0,21.65,0.0,0.0,0.0,0.7488952898670529,0.4773547101329471,9.823047355066475
2840000000.0,21.65,0.0,0.0,0.0,0.7483070206543703,0.4905,9.82962
2845000000.0,21.65,0.0,0.0,0.0,0.7658665342178654,0.4844176894785769,9.823537689478577
2850000000.0,21.65,0.0,0.0,0.0,0.74556,0.4649938892843389,9.81
2855000000.0,21.65,0.0,0.0,0.0,0.7484049554549496,0.45410495545494955,9.81853486636485
2860000000.0,21.65,0.0,0.0,0.0,0.7608637111041371,0.4665637111041371,9.842176855552069
2865000000.0,21.65,0.0,0.0,0.0,0.7643949774032498,0.48333875564918755,9.841293733052437
2870000000.0,21.65,0.0,0.0,0.0,0.73575,0.4905,9.817259344253694
2875000000.0,21.65,0.0,0.0,0.0,0.7406551116868512,0.49295255584342557,9.81
2880000000.0,21.65,0.0,0.0,0.0,0.75537,0.4956010881189109,9.812354455940545
2885000000.0,21.65,0.0,0.0,0.0,0.7508572879246729,0.48294635603766356,9.826579068112991
2890000000.0,21.65,0.0,0.0,0.0,0.7400665122695651,0.48618348773043485,9.847081743865218
2895000000.0,21.65,0.0,0.0,0.0,0.7615504686957046,0.4646995313042953,9.833249531304295
2900000000.0,21.65,0.0,0.0,0.0,0.7808758873419589,0.4473361689870617,9.81
2905000000.0,21.65,0.0,0.0,0.0,0.7651800000000001,0.4727439564261396,9.806272087147722
2910000000.0,21.65,0.0,0.0,0.0,0.7634141434767415,0.48069,9.800975139139553
2915000000.0,21.65,0.0,0.0,0.0,0.75537,0.48235775662037755,9.850907756620378
2920000000.0,21.65,0.0,0.0,0.0,0.7569396567174965,0.48736068656500686,9.855910686565007
2925000000.0,21.65,0.0,0.0,0.0,0.7607653295561534,0.47088,9.837958443185384
2930000000.0,21.65,0.0,0.0,0.0,0.7384969138234692,0.47362691382346916,9.825499629264797
2935000000.0,21.65,0.0,0.0,0.0,0.75537,0.48794928598229287,9.802740714017707
2940000000.0,21.65,0.0,0.0,0.0,0.7565472571059726,0.4732345142119452,9.824519028423891
2945000000.0,21.65,0.0,0.0,0.0,0.7641008427969085,0.48834168559381685,9.857970842796908
2950000000.0,21.65,0.0,0.0,0.0,0.75537,0.47284211460042114,9.845315770799157
2955000000.0,21.65,0.0,0.0,0.0,0.7544870426026704,0.48785112780801126,9.80911704260267
2960000000.0,21.65,0.0,0.0,0.0,0.7463448574944486,0.46107,9.801759714988897
2965000000.0,21.65,0.0,0.0,0.0,0.7560567575915675,0.46175675759156753,9.820496757591568
2970000000.0,21.65,0.0,0.0,0.0,0.7634140269339403,0.47088,9.82962
2975000000.0,21.65,0.0,0.0,0.0,0.7372216733574167,0.47038944221419443,9.82962
2980000000.0,21.65,0.0,0.0,0.0,0.7651800000000001,0.46146245788292456,9.829227542117076
2985000000.0,21.65,0.0,0.0,0.0,0.7654743579800437,0.47058564201995645,9.81981
2990000000.0,21.65,0.0,0.0,0.0,0.7747937419228375,0.4618550323086503,9.82059503230865
2995000000.0,21.65,0.0,0.0,0.0,0.7651800000000001,0.4999173673028737,9.858951841825718
3000000000.0,21.65,0.0,0.0,0.0,0.7651799417285995,0.4610701748142017,9.849239825185798
3005000000.0,21.65,0.0,0.0,0.0,0.7554680416314804,0.49020587510555874,9.820104124894442
3010000000.0,21.65,0.0,0.0,0.0,0.75537,0.4905,9.800582283068723
3015000000.0,21.65,0.0,0.0,0.0,0.75537,0.46195272431172724,9.809705758562759
3020000000.0,21.65,0.0,0.0,0.0,0.75537,0.4516523413401234,9.83825297597963
3025000000.0,21.65,0.0,0.0,0.0,0.7740091175139913,0.4792186762709868,9.848749558756996
3030000000.0,21.65,0.0,0.0,0.0,0.7473256234376562,0.4899114588541146,9.840018541145886
3035000000.0,21.65,0.0,0.0,0.0,0.74556,0.4722532820975328,9.8120599231463
3040000000.0,21.65,0.0,0.0,0.0,0.7365347409516474,0.4889305180967052,9.782924222854943
3045000000.0,21.65,0.0,0.0,0.0,0.73575,0.4905,9.816278636581886
3050000000.0,21.65,0.0,0.0,0.0,0.7710662369703625,0.4816709407574094,9.837468118485182
3055000000.0,21.65,0.0,0.0,0.0,0.7662590406602905,0.48069,9.85689191867942
3060000000.0,21.65,0.0,0.0,0.0,0.7651800000000001,0.4634242811263428,9.850417140563172
3065000000.0,21.65,0.0,0.0,0.0,0.7737147595339476,0.4781395190678952,9.840705240466052
3070000000.0,21.65,0.0,0.0,0.0,0.7412433614757337,0.4722533403689334,9.797246701844667
3075000000.0,21.65,0.0,0.0,0.0,0.7524271194563712,0.4875571194563712,9.79038
3080000000.0,21.65,0.0,0.0,0.0,0.7388890803493908,0.47401908034939083,9.839822758951827
3085000000.0,21.65,0.0,0.0,0.0,0.7601770797672709,0.4627376400775764,9.832955280155153
3090000000.0,21.65,0.0,0.0,0.0,0.7490914799609149,0.4771585200390852,9.845708520039086
3095000000.0,21.65,0.0,0.0,0.0,0.7535061601166616,0.48069,9.817455359533353
3100000000.0,21.65,0.0,0.0,0.0,0.7475219397862194,0.48069,9.81
3105000000.0,21.65,0.0,0.0,0.0,0.74556,0.4884399603108996,9.8177499603109
3110000000.0,21.65,0.0,0.0,0.0,0.74556,0.4981518604080186,9.81981
3115000000.0,21.65,0.0,0.0,0.0,0.74556,0.47764871848458723,9.804702478989725
3120000000.0,21.65,0.0,0.0,0.0,0.7604713212045133,0.47833566060225663,9.830012642409027
3125000000.0,21.65,0.0,0.0,0.0,0.7578224393006244,0.46597487860124875,9.832072439300624
3130000000.0,21.65,0.0,0.0,0.0,0.7481105392035053,0.4755889215929892,9.815101078407011
3135000000.0,21.65,0.0,0.0,0.0,0.74556,0.4878513608936136,9.824322721787228
3140000000.0,21.65,0.0,0.0,0.0,0.7738130439629305,0.48343673900926737,9.822556739009269
3145000000.0,21.65,0.0,0.0,0.0,0.7639045167364452,0.49462032217570323,9.826775161087852
3150000000.0,21.65,0.0,0.0,0.0,0.75537,0.47970881644508817,9.83648706118497
3155000000.0,21.65,0.0,0.0,0.0,0.75537,0.47088,9.83266103871791
3160000000.0,21.65,0.0,0.0,0.0,0.7420282772415828,0.4775508613792086,9.809607415862375
3165000000.0,21.65,0.0,0.0,0.0,0.755468284428983,0.48726276147632763,9.813335522952656
3170000000.0,21.65,0.0,0.0,0.0,0.7522306768531068,0.47107601527966014,9.845708646293787
3175000000.0,21.65,0.0,0.0,0.0,0.7583131233411313,0.46744656167056564,9.839920314988303
3180000000.0,21.65,0.0,0.0,0.0,0.7589015382323154,0.4834369235353692,9.823341538232317
3185000000.0,21.65,0.0,0.0,0.0,0.7615503618648036,0.4905,9.813629638135197
3190000000.0,21.65,0.0,0.0,0.0,0.7712622619619227,0.48441773803807736,9.83432904784769
3195000000.0,21.65,0.0,0.0,0.0,0.7690058379409584,0.46872167588191677,9.861208324118083
3200000000.0,21.65,0.0,0.0,0.0,0.7416357513753575,0.47872818646848186,9.845315751375358
3205000000.0,21.65,0.0,0.0,0.0,0.7375159245065592,0.49628796225327965,9.812256113240162
3210000000.0,21.65,0.0,0.0,0.0,0.74556,0.4775505505984055,9.8058798623504
3215000000.0,21.65,0.0,0.0,0.0,0.7567435248950353,0.4778452873425529,9.826775287342553
3220000000.0,21.65,0.0,0.0,0.0,0.7761673250892733,0.4905,9.844923662544637
3225000000.0,21.65,0.0,0.0,0.0,0.7740088747164888,0.47970887471648876,9.854635562641755
3230000000.0,21.65,0.0,0.0,0.0,0.7545850745222508,0.47088,9.843157611783376
3235000000.0,21.65,0.0,0.0,0.0,0.74556,0.47088,9.803623185820033
3240000000.0,21.65,0.0,0.0,0.0,0.7506612629331126,0.47598126293311266,9.785671262933114
3245000000.0,21.65,0.0,0.0,0.0,0.7503668369697684,0.48069,9.800386326060464
3250000000.0,21.65,0.0,0.0,0.0,0.7504650631273506,0.4757849368726494,9.81
3255000000.0,21.65,0.0,0.0,0.0,0.7601769632244697,0.4853008896734089,9.795579110326592
3260000000.0,21.65,0.0,0.0,0.0,0.7510534100352342,0.50031,9.761734546713646
3265000000.0,21.65,0.0,0.0,0.0,0.749582290256123,0.5233638170935382,9.74133
3270000000.0,21.65,0.0,0.0,0.0,0.7651800000000001,0.5493600000000001,9.745842663515827
3275000000.0,21.65,0.0,0.0,0.0,0.7740091272258913,0.5405308727741087,9.746725436387054
3280000000.0,21.65,0.0,0.0,0.0,0.7675341451597415,0.5340564637100647,9.762912318550324
3285000000.0,21.65,-0.0054936814512799356,0.0,0.0,0.7624334552287346,0.5311132723856328,9.79038
3290000000.0,21.65,-0.0127758101245984,0.0008943205794190509,0.0,0.7765594721913948,0.49520841657418413,9.794500263904304
3295000000.0,21.65,-0.01409250746383588,0.001256274103808192,0.0,0.7571356719971568,0.4530256719971567,9.792145671997158
3300000000.0,21.65,-0.015554367223304904,0.0004258672939152824,0.0,0.7494840640985406,0.4336018718029187,9.772721871802919
3305000000.0,21.65,-0.013659449423976979,0.0018950924357528608,0.0,0.75537,0.42565596419565965,9.783905785173957
3310000000.0,21.65,-0.009283713492155588,0.001980229636786444,0.0,0.7479142714144427,0.45400718575667187,9.82353786429278
3315000000.0,21.65,-0.004929326418358745,0.0,0.0,0.7502690575595906,0.4759809424404094,9.822360471220206
3320000000.0,21.65,-0.0038753220725393036,0.0,0.0,0.7608633420519335,0.4759816514091165,9.802936671025968
3325000000.0,21.65,-0.0028213177267198903,-0.0014905392177187336,0.0,0.73575,0.530230693752407,9.776645741663458
3330000000.0,21.65,-0.0017673133809004468,-0.0031726384552684065,0.0,0.755762788087528,0.5693727880875279,9.75114
3335000000.0,21.65,-0.00352404350416462,-0.0003619672264456368,0.0,0.7719484465513845,0.6017452704432527,9.75114
3340000000.0,21.65,-0.011929745026144013,0.0003832602222398799,0.0,0.7384970595019706,0.5603466161205661,9.741722205373522
3345000000.0,21.65,-0.02050136373078242,0.0042215407980187745,0.0,0.7651800000000001,0.5124746598904466,9.779492134479622
3350000000.0,21.65,-0.020879317231207485,0.010871542805639088,0.0,0.7475216095816162,0.5307208047908081,9.86395402395404
3355000000.0,21.65,-0.01738021991917843,0.00047912824151825624,0.0,0.7205448258342482,0.4987401393326014,9.778019791001098
3360000000.0,21.65,-0.022545443896834303,0.0015756195025176003,0.0,0.7361419431522195,0.45439880841618807,9.814316269472062
3365000000.0,21.65,-0.0202458193231342,-0.0033110144698137297,0.0,0.7184851843330519,0.4358588882497889,9.792243703916737
3370000000.0,21.65,-0.01941537035306743,0.003513383304210956,0.0,0.7738120145015202,0.48245534179255345,9.826874640080545
3375000000.0,21.65,-0.017850376268360002,0.0023953292223048246,0.0,0.6817948688893488,0.41447204111272046,9.905645336674253
3380000000.0,21.65,-0.02305657592630901,-0.007920866900932839,0.0,0.695333587829336,0.36297,9.69816698478667
3385000000.0,21.65,-0.027790058125467483,0.001081743960489068,0.0,0.7690054397530545,0.36297,9.79194907400349
3390000000.0,21.65,-0.01431276147335358,-0.014151990855685151,0.0,0.7657701144737011,0.375919595080096,9.753102658466826
3395000000.0,21.65,-0.01195904162985638,0.0061110529027958195,0.0,0.8943761832925619,0.45067232321322326,9.893485144257852
3400000000.0,21.65,0.0027680778592038767,-0.0002129731721206493,0.0,0.733788594368286,0.5748665283273653,10.041512896076728
3405000000.0,21.65,-0.0017674208893438154,-0.003502636675901073,0.0,0.798828101585881,0.6227382708956828,9.689435695242357
3410000000.0,21.65,-0.015951690420774507,0.0029170929936158043,0.0,0.7696924012945241,0.5468089363538894,9.736227872707778
3415000000.0,21.65,-0.028827034702783784,0.0018769542304745337,0.0,0.760569896990499,0.475490103009501,9.665304158306942
3420000000.0,21.65,-0.043881032006692744,0.02424601291906229,0.0,0.7946083392650835,0.3849436692766367,9.919089325740693
3425000000.0,21.65,-0.03813189573813391,0.010752930201958407,0.0,0.6092019313712194,0.29135686694696866,10.143047703784076
3430000000.0,21.65,-0.02746154216324157,0.00338549568691104,0.0,0.70533800064548,0.28841466623634665,9.897308000645479
3435000000.0,21.65,-0.005142198406062153,-0.010318829855474054,0.0,0.5991958675320587,0.3855336672075367,9.727397531494375
3440000000.0,21.65,0.002682891119966071,-0.021095372968628193,0.0,0.746345401360854,0.4755890672714907,9.483133405897034
3445000000.0,21.65,-0.0012988885535140265,-0.012062515845578183,0.0,0.8240400000000001,0.5144366676599667,9.841393338299834
3450000000.0,21.65,-0.0047927833346496345,-0.012775664671998706,0.0,0.8377749381695495,0.5424925309152254,10.012085731951556
3455000000.0,21.65,-0.019756123634044716,0.0063879050622992,0.0,0.9393058222692582,0.478041098672311,9.970589230235392
3460000000.0,21.65,-0.026080149708961275,0.006473084423506593,0.0,0.7239786720634868,0.44419619514286196,9.882984249396841
3465000000.0,21.65,-0.031211649970913354,0.007899753085877351,0.0,0.8066755596618557,0.3664038365173384,9.601047673034676
3470000000.0,21.65,-0.020542786464427084,0.013393256410422933,0.0,0.7045539977982399,0.4167293392046934,9.69934400880704
3475000000.0,21.65,-0.00835748714718421,0.006121705724719048,0.0,0.6778711349954114,0.491971702493117,9.814415107479352
3480000000.0,21.65,-0.005536221066677243,0.0006387171475274189,0.0,0.695332597215526,0.521107402784474,9.895150259241403
3485000000.0,21.65,-0.011094288360478965,-0.009517963850005227,0.0,0.6703180446113806,0.5461219553886196,9.81892689692417
3490000000.0,21.65,-0.02569687578466489,-0.007516457027489696,0.0,0.774401196632812,0.44105746442187466,9.78959492884375
3495000000.0,21.65,-0.03192501697623347,-0.010571931305672602,0.0,0.7463453430894534,0.42153549634145493,9.749863817479637
3500000000.0,21.65,-0.028762952292562295,-0.0031939082629670753,0.0,0.8240397280667974,0.3924004758831048,9.623611359666013
3505000000.0,21.65,-0.018222908834368112,0.0031301178119493922,0.0,0.7851921276783214,0.4603837765629377,9.817849361608394
3510000000.0,21.65,-0.00975249148011289,6.385685329146932e-05,0.0,0.8040277363550774,0.5572086817753868,9.800582263644923
3515000000.0,21.65,-0.0095818575934488,0.0,0.0,0.775872695176027,0.5401384634506847,9.733579622077396
3520000000.0,21.65,-0.016753118487019797,0.005110361150792365,0.0,0.7561546632564466,0.5866383418588834,9.797443678602438
3525000000.0,21.65,-0.03728038143721162,0.009368957147628046,0.0,0.7460504315311043,0.44880647296656473,9.967942232440123
3530000000.0,21.65,-0.04434955907250074,0.0035771821872634633,0.0,0.6533453143398532,0.3584567829058678,9.829226502943765
3535000000.0,21.65,-0.05068981683162164,-0.0037369766241200754,0.0,0.7204469493050696,0.23455620737926208,9.64646599540046
3540000000.0,21.65,-0.035450310114862056,-0.009156034567716026,0.0,0.7349652687602527,0.26173107504101073,9.777824300164044
3545000000.0,21.65,-0.015662442599965246,-0.01345721655614029,0.0,0.7893130131442302,0.3362873508589735,9.924287532860577
3550000000.0,21.65,-0.002342142055006085,-0.003300335297781792,0.0,0.8564134826814349,0.49344417222634174,9.955188137908982
3555000000.0,21.65,-0.00011710409883791619,0.0026084320369600075,0.0,0.7847012785355129,0.5625058143096582,9.878571278535512
3560000000.0,21.65,-0.01969026420705378,0.004130852778131062,0.0,0.7749900000000001,0.4826513085127131,9.687569747876697
3565000000.0,21.65,-0.038121434745001695,0.013521140865709854,0.0,0.7493856922624569,0.38553230754152307,9.645780461508306
3570000000.0,21.65,-0.041389792604935714,0.009411468304908013,0.0,0.6949399839421999,0.33903332262813324,9.879456741603066
3575000000.0,21.65,-0.027964424898113027,0.0030874422299914583,0.0,0.6950385694400857,0.3752328472004285,10.068004249921543
3580000000.0,21.65,-0.009456756055210024,-0.005025212355710976,0.0,0.6305862437023625,0.49795657352086575,9.946161548330315
3585000000.0,21.65,-0.0037369017898115533,-0.021424743296409532,0.0,0.6831689570745896,0.5524994785372949,9.616642323530023
3590000000.0,21.65,-0.018922647027855264,-0.01663291953768356,0.0,0.8010855065087552,0.48677157241701574,9.52276292107423
3595000000.0,21.65,-0.041361503059178885,-0.004556614671611756,0.0,0.9114478681141787,0.35963362240013624,9.762031264685413
3600000000.0,21.65,-0.04751834939246016,0.017474411138493975,0.0,0.9084057902229579,0.3021477202972772,10.078796307547464
3605000000.0,21.65,-0.03699634336981736,0.0223751210105673,0.0,0.7630205395896055,0.3097999400455994,10.205539760182399
3610000000.0,21.65,-0.02079931600328478,0.012396284101525702,0.0,0.6341175585609755,0.3827868310792683,9.816470883644309
3615000000.0,21.65,-0.00556138485023455,-0.004354551498474791,0.0,0.5855586893488869,0.47774770217037704,9.40749296153553
3620000000.0,21.65,-0.006984155320729251,-0.015003609554873978,0.0,0.6980807250265073,0.5450440218849403,9.438790725026507
3625000000.0,21.65,-0.018112246136220193,-0.005859835856858791,0.0,0.8166832745240327,0.5003094367097944,9.925271795087818
3630000000.0,21.65,-0.03312820931317755,0.00023424614183228205,0.0,0.821881588474816,0.4516521179664212,10.314432526777027
3635000000.0,21.65,-0.042720652272271495,0.0010646508437165,0.0,0.7855845175779452,0.37699766455037664,10.09066106396291
3640000000.0,21.65,-0.04627846778627341,-0.0027681305594211593,0.0,0.704357292973673,0.30371710508157107,9.637733006273631
3645000000.0,21.65,-0.040063963700342466,-0.005770422940326963,0.0,0.7326113663980137,0.2635944876007449,9.38051692560447
3650000000.0,21.65,-0.02386549369559937,-0.0019163253532994131,0.0,0.8034394962780951,0.29626242538122427,9.61772697766857
3655000000.0,21.65,-0.01369677401593751,0.0036730839346809027,0.0,0.8375779419879794,0.4154545649098456,10.073009578705497
3660000000.0,21.65,-0.0117111592808819,0.008943105663777992,0.0,0.7902930312711304,0.46107,10.242032613273327
3665000000.0,21.65,-0.018856091024942973,0.0035132705257460333,0.0,0.699452288117723,0.4479244576235446,9.922811440588614
3670000000.0,21.65,-0.030807248529505026,0.0,0.0,0.6800293425706935,0.396127301002573,9.540811176298211
3675000000.0,21.65,-0.034458900339818035,0.0,0.0,0.7185828569123286,0.37278,9.542188284884382
3680000000.0,21.65,-0.027272437316943492,0.0013627685949010905,0.0,0.7483069429591694,0.40417235739792357,9.848850387703804
3685000000.0,21.65,-0.014709184758456917,0.00011708828877272882,0.0,0.7430092568465926,0.4774533441903335,10.091646316803963
3690000000.0,21.65,-0.014873409175579052,-0.005025198653654437,0.0,0.7418322716738227,0.5222845433476454,9.952635034763851
3695000000.0,21.65,-0.029806524103366778,-0.011349224728570967,0.0,0.7635125153128252,0.42202490812304905,9.62615815978798
3700000000.0,21.65,-0.04623388120804275,-0.0042584863803838136,0.0,0.8220785749444858,0.311957496923575,9.57259893428479
3705000000.0,21.65,-0.04843388707936056,0.010933724569564887,0.0,0.8361060841044609,0.2729140560696406,9.866704822537548
3710000000.0,21.65,-0.0340721689356922,0.015189227823911095,0.0,0.7557615352524154,0.31607884856068846,10.103908464747585
3715000000.0,21.65,-0.020714203044351173,0.007165014034437076,0.0,0.6559940505652405,0.37552708863767087,9.946454430101545
3720000000.0,21.65,-0.015253455876798652,-0.0074100953409444465,0.0,0.6564857057957572,0.41437468902614694,9.598101471021215
3725000000.0,21.65,-0.01677788948981007,-0.011977282730149133,0.0,0.7568424405975245,0.43164,9.506381295890213
3730000000.0,21.65,-0.021480845753335028,-0.00325774509017601,0.0,0.8301224173523242,0.4581273622538736,9.809218677637187
3735000000.0,21.65,-0.028518227239523887,0.005514938610926409,0.0,0.8176631372605314,0.4650918823563188,10.08301309802683
3740000000.0,21.65,-0.03911151899726886,0.005749075136306762,0.0,0.7333947282598473,0.39004472825984726,9.990894365939644
3745000000.0,21.65,-0.044189808903826636,-0.0027788255415182204,0.0,0.6918995182263952,0.30352096354720964,9.658923090314731
3750000000.0,21.65,-0.041006471250443786,-0.004790873461496244,0.0,0.7651808740710088,0.2795850728392507,9.476460145678502
3755000000.0,21.65,-0.030519581231409274,0.003108843788233376,0.0,0.8096190811908909,0.34217367523643677,9.765074430309443
3760000000.0,21.65,-0.020330959686180802,0.0069415155749191,0.0,0.7663567617990676,0.4210454921339549,10.140009714602797
3765000000.0,21.65,-0.02312045596769608,0.003385542063102232,0.0,0.7080853612163537,0.4137853612163536,10.079674486689944
3770000000.0,21.65,-0.03660701208254555,-0.0044077260177213555,0.0,0.6994533661386337,0.3419759409504594,9.71405505120775
3775000000.0,21.65,-0.04677309453966162,-0.0071863534064225305,0.0,0.7656711599236117,0.26781256005092563,9.543659453222993
3780000000.0,21.65,-0.04137815421983416,0.0004259400202151764,0.0,0.8185464734219648,0.2613388405317884,9.820990724254306
3785000000.0,21.65,-0.027070127506789537,0.005472289379077171,0.0,0.7902930118473301,0.33226536167175363,10.147955602786256
3790000000.0,21.65,-0.017839684448275946,0.00023415128144113184,0.0,0.7208383583027836,0.39083054723240546,10.06701905535189
3795000000.0,21.65,-0.02078887925225245,-0.00663279875603299,0.0,0.702788694853287,0.3941656525733565,9.682565225180452
3800000000.0,21.65,-0.03195705870834644,-0.005110259966375154,0.0,0.7612566642939667,0.3551214833269148,9.535321476208814
3805000000.0,21.65,-0.03917532736636045,0.004152218500225222,0.0,0.8104040260924403,0.2909641565546416,9.836686747562869
3810000000.0,21.65,-0.038046733240996077,0.009432782380789168,0.0,0.7783248819672488,0.25506,10.138831496018716
3815000000.0,21.65,-0.02975306289493815,0.004301125072189518,0.0,0.7103415812874159,0.2804684187125842,10.010709487724494
3820000000.0,21.65,-0.01930257884260113,-0.0045141920506969226,0.0,0.6882700451935005,0.35198339359133396,9.65225312243033
3825000000.0,21.65,-0.012722553393012904,-0.0106465084371654,0.0,0.7465414457762145,0.42281144577621443,9.531397188736571
3830000000.0,21.65,-0.01354835757327276,-0.007026614831796275,0.0,0.798141897572619,0.46774094878630945,9.75349707815357
3835000000.0,21.65,-0.02234325424317573,0.002459400038478508,0.0,0.8208026255097264,0.46774050203890505,9.996292123470822
3840000000.0,21.65,-0.03285138244977853,0.0071118595412730445,0.0,0.7891158033008581,0.42575362706303627,9.943806684489967
3845000000.0,21.65,-0.042528985798001635,0.005397755461762566,0.0,0.723585301261953,0.36807060252390605,9.735638855678788
3850000000.0,21.65,-0.04281636851492406,0.001596935686407506,0.0,0.6906238504367385,0.302147700873477,9.634401523471414
3855000000.0,21.65,-0.036183585568956275,-0.003364329171638223,0.0,0.6939598492724985,0.28890487439374873,9.716609698544998
3860000000.0,21.65,-0.029401775894528696,-0.007282236181761737,0.0,0.7439906249276063,0.3402112498552125,9.811177499903476
3865000000.0,21.65,-0.02470668191594573,-0.008719465967677628,0.0,0.7757751002919511,0.3878875501459755,9.826186124635061
3870000000.0,21.65,-0.024866477406806715,-0.004173366043419734,0.0,0.80442,0.3945579744896798,9.800582700680428
3875000000.0,21.65,-0.03461868739864425,0.002129301687433,0.0,0.7921571236638713,0.35315939786219397,9.856598327939484
3880000000.0,21.65,-0.04285901142274721,0.0013627285427359492,0.0,0.7483065739069658,0.29194552463565526,9.911630770992208
3885000000.0,21.65,-0.041953992699218096,-0.00033001719271081394,0.0,0.7372218773073188,0.2799772490770725,9.784492490770726
3890000000.0,21.65,-0.0334048053496249,0.0025977644589759027,0.0,0.7555655199727552,0.28861103114441033,9.637736551117165
3895000000.0,21.65,-0.02411052651790678,0.003811433599117441,0.0,0.6990610539342106,0.37071982434429823,9.704544391392544
3900000000.0,21.65,-0.028550169895228256,0.0012775481275242103,0.0,0.7435979242471793,0.3590458484943585,9.943417742314876
3905000000.0,21.65,-0.03662016576304247,-0.003140761147833417,0.0,0.743205903399759,0.3340301207503012,10.097824338100843
3910000000.0,21.65,-0.03911146524304723,-0.0061110381467349845,0.0,0.7767558759470589,0.2907682481058825,9.93007196969412
3915000000.0,21.65,-0.042422488144895666,0.00036199779257166555,0.0,0.7764611197791113,0.2646733437349334,9.662653343734934
3920000000.0,21.65,-0.04102777900229885,0.002129301687433,0.0,0.7404590284238903,0.21738967614129678,9.648332875108528
3925000000.0,21.65,-0.037546354163857425,0.0016501839859582308,0.0,0.7710663049536631,0.23004472871524728,9.863466253483562
3930000000.0,21.65,-0.03197821362957138,-0.0007665320385275636,0.0,0.7975526183223262,0.25643347633553476,10.062117381677673
3935000000.0,21.65,-0.025153834827624847,0.0009262379390191533,0.0,0.7579207528653076,0.26997150573061507,10.064763330587734
3940000000.0,21.65,-0.022886186637768213,0.00025553281360045013,0.0,0.7691036173511362,0.3017554469404545,9.771935363285454
3945000000.0,21.65,-0.0266337243854334,0.0022464215963361144,0.0,0.7270191766268917,0.28664835325378357,9.580937649403376
3950000000.0,21.65,-0.026953144618451358,0.002874532298131644,0.0,0.7386932301720324,0.30411,9.742313378444333
3955000000.0,21.65,-0.02944436926414755,0.0,0.0,0.7651800000000001,0.3094078609267786,10.028371675495816
3960000000.0,21.65,-0.02522835188086993,-0.0005962629064821883,0.0,0.7628253692452538,0.3661095076729951,10.129803692452537
3965000000.0,21.65,-0.02145953800147994,-0.007228954154071841,0.0,0.7378103310461034,0.4001496689538967,9.829518588339186
3970000000.0,21.65,-0.02388698379020629,-0.00400305369719611,0.0,0.7645913228875133,0.37160264577502644,9.442518094012382
3975000000.0,21.65,-0.03153121881854412,0.0,0.0,0.7568417316288173,0.35021653674236536,9.545623665593837
3980000000.0,21.65,-0.0436681378848981,8.518884724650544e-05,0.0,0.7851924773067248,0.2911601815462018,9.93596202344122
3985000000.0,21.65,-0.04344450240481518,0.0020654058359807375,0.0,0.7934324903846249,0.21699750961537512,10.126959319711593
3990000000.0,21.65,-0.036002567700592195,-4.2602855658019275e-05,0.0,0.7551737224990372,0.25643394250673945,9.900052622460526
3995000000.0,21.65,-0.02550514396212557,-0.0020547171779097813,0.0,0.7453636448038364,0.3247117759808178,9.506577243186573
4000000000.0,21.65,-0.019181185343487134,0.005323212058408867,0.0,0.72594,0.4218302330856023,9.574562408551223
4005000000.0,21.65,-0.02128919403512599,5.3190329311777335e-05,0.0,0.72594,0.45096593337695934,9.875631311561913
4010000000.0,21.65,-0.038004330646163764,-0.0010433662799570235,0.0,0.7547816336683163,0.364735098995051,10.003650412562706
4015000000.0,21.65,-0.048689011319407546,-0.004162810189896302,0.0,0.7648857779865579,0.2582964421478644,9.920557998120978
4020000000.0,21.65,-0.05003091868016357,0.002895909614273555,0.0,0.7934330342510304,0.25506,9.644797335573372
4025000000.0,21.65,-0.042976927968869386,0.005216806103681013,0.0,0.7386925309152254,0.23642084363840846,9.69865704726557
4030000000.0,21.65,-0.034597244734232924,0.0023209133534769,0.0,0.6896426086104261,0.26310443483374435,9.868076609002467
4035000000.0,21.65,-0.037056681662863536,-0.003811501055395587,0.0,0.7231935135001352,0.24662324324993243,9.951657027000271
4040000000.0,21.65,-0.03532125823745012,-0.0022996287897174197,0.0,0.7891169493050696,0.24525,9.966175278472154
4045000000.0,21.65,-0.03611977192984296,0.0007772206965985179,0.0,0.79461,0.2541771785692718,9.833052321460924
4050000000.0,21.65,-0.0381319705724425,0.005855622327616936,0.0,0.7769518426672185,0.19325644933526448,9.846297235999172
4055000000.0,21.65,-0.04403017045961316,0.0063879050622992,0.0,0.7051421698919217,0.13400412741894127,9.91908783010808
4060000000.0,21.65,-0.03911138092269958,-0.0039180092485450405,0.0,0.7483072731637728,0.15342863658188635,9.953618636581886
4065000000.0,21.65,-0.027229826029250725,-0.0071757638247600735,0.0,0.7724395579154957,0.19109911583099118,9.931545663126757
4070000000.0,21.65,-0.01824420710018412,-0.003790122685249354,0.0,0.7581166418902664,0.2636934324389343,9.843353209451333
4075000000.0,21.65,-0.011607260508753877,-0.0013840289165606278,0.0,0.7803857374559574,0.32471147491191477,9.746234208480143
4080000000.0,21.65,-0.017815691819055623,0.0034069257032701937,0.0,0.7848,0.3500209584982096,9.805684313241944
4085000000.0,21.65,-0.02890152540592022,0.0042586033748661,0.0,0.7359457239226572,0.312448103268881,9.941945690193357
4090000000.0,21.65,-0.034384417014711996,-0.00010650819314937578,0.0,0.7098514411133143,0.263888602783286,9.902605764453257
4095000000.0,21.65,-0.029976676240929798,-0.0002022750280105427,0.0,0.7301585386213854,0.294790897702309,9.777233486433534
4100000000.0,21.65,-0.0287630260728665,-0.0008517293178088357,0.0,0.7435980796375808,0.3198061592751616,9.641266885073868
4105000000.0,21.65,-0.027080860433042996,-0.0019057336636282142,0.0,0.74556,0.3392299594693996,9.668049858142899
4110000000.0,21.65,-0.02912503335147726,-0.002129301687433,0.0,0.7532118798318188,0.29743872100908725,9.835507596636376
4115000000.0,21.65,-0.03310683621305304,-0.006228250808020509,0.0,0.7704775598578757,0.28449,9.893777559857876
4120000000.0,21.65,-0.03570456694388997,-0.0017885526224731005,0.0,0.7973570400781704,0.2770343199739432,9.816277519713376
4125000000.0,21.65,-0.0362155819788823,0.00399248414161629,0.0,0.7455593590145936,0.29675274036952737,9.68737387827554
4130000000.0,21.65,-0.029124929005047047,0.0053232542185827,0.0,0.7114210395594104,0.33314792088117917,9.63852103955941
4135000000.0,21.65,-0.029742539715549486,0.002214438888466614,0.0,0.7278041409522414,0.3361886196825862,9.769486226030862
4140000000.0,21.65,-0.037024786437354726,-0.0043012504987066874,0.0,0.7640031216581312,0.29116031751280314,9.883379523730795
4145000000.0,21.65,-0.0394095345100319,-0.004120172552094903,0.0,0.7958855415349555,0.23985409744174097,9.887204458465044
4150000000.0,21.65,-0.04313585620422014,-0.00021289517579904877,0.0,0.7632175163473751,0.2187629193912292,9.864935838782458
4155000000.0,21.65,-0.04621406732592089,0.0017992686846569988,0.0,0.7523289807058898,0.18197509647055096,9.764284270117543
4160000000.0,21.65,-0.04541973263980797,0.003577244373519822,0.0,0.7353573575909735,0.13341559598495595,9.801760569636105
4165000000.0,21.65,-0.038312865122298034,-2.134569601150091e-05,0.0,0.7653766854007669,0.16372946630089466,9.89858502810115
4170000000.0,21.65,-0.033042896093418234,-0.0007239449929347316,0.0,0.7977493619944936,0.18639,9.992466809972468
4175000000.0,21.65,-0.026420723809199805,0.0006920318493520126,0.0,0.7661605134338051,0.21189632437746325,10.006690256716903
4180000000.0,21.65,-0.029572240017378078,0.0003832654922616089,0.0,0.7392815188085152,0.20051607523406076,9.81431404544694
4185000000.0,21.65,-0.039058279129752814,0.0040244331213467426,0.0,0.73575,0.15548809355698093,9.755162669020228
4190000000.0,21.65,-0.0426034870411815,0.003087443283995836,0.0,0.7235854372285544,0.1008463116856631,9.926544753257348
4195000000.0,21.65,-0.03740792017907311,0.0004152049859529735,0.0,0.7460509074142091,0.09643254444852545,10.05191508889705
4200000000.0,21.65,-0.02514308925331917,0.0,0.0,0.7651800000000001,0.1491125710597257,9.980692694720627
4205000000.0,21.65,-0.01288934227182342,-0.0018844585859079089,0.0,0.7420280732916807,0.23445981677079814,9.750058531364685
4210000000.0,21.65,-0.010987232206021005,-0.001958939803005218,0.0,0.7714590541935906,0.2803698817741988,9.650489645322596
4215000000.0,21.65,-0.019461217174920414,0.001969648487158758,0.0,0.7820528725147288,0.29567356374263565,9.84178701988217
4220000000.0,21.65,-0.028081702907667982,0.0018737499017543692,0.0,0.7596863180315632,0.2766415901578159,10.026213137715931
4225000000.0,21.65,-0.033234595241822845,0.0,0.0,0.7607655820655559,0.23347767173777673,9.96254394075444
4230000000.0,21.65,-0.034576010762682026,0.0017247611174510808,0.0,0.738692589186626,0.21052251783732517,9.72504301728243
4235000000.0,21.65,-0.029007815420170002,0.0015011309073898848,0.0,0.71613,0.22160814677938148,9.568183088701032
4240000000.0,21.65,-0.025058050074689787,-0.0011072547533788652,0.0,0.71613,0.2558451294276513,9.672662058922821
4245000000.0,21.65,-0.025026092662924538,-0.0064731487177716925,0.0,0.7311395473620955,0.2696768175459682,9.865427736810478
4250000000.0,21.65,-0.02610142584068597,-0.005323164628213305,0.0,0.7798955778580559,0.2795852476534525,9.917909669795396
4255000000.0,21.65,-0.02769837522915,0.0031301272979885053,0.0,0.7853881041103811,0.3135279305930793,9.811764312331142
4260000000.0,21.65,-0.03229774769505866,0.003832698136794372,0.0,0.7412433517638335,0.3005778207822782,9.64165899332839
4265000000.0,21.65,-0.039782207258618016,0.0010646508437165,0.0,0.7213292171574922,0.24181608578746086,9.61949095979511
4270000000.0,21.65,-0.0426034870411815,-0.0008943427135103589,0.0,0.7386934146981342,0.20228195118111952,9.77802097585291
4275000000.0,21.65,-0.0402079775841335,-0.0022357487483303912,0.0,0.7740091660734917,0.19963374911023749,9.93164499644095
4280000000.0,21.65,-0.03493795585503641,0.0008091707303333848,0.0,0.7761670337322704,0.22445296626772968,9.953225168661351
4285000000.0,21.65,-0.034246023082092875,0.0013627169486882024,0.0,0.7356513173831132,0.2227848503070485,9.805485568918355
4290000000.0,21.65,-0.04131202493317304,-0.0006174884459982828,0.0,0.7129911333124113,0.17716801670328017,9.690710566656206
4295000000.0,21.65,-0.0468795437085676,0.0013095476994633276,0.0,0.7437943668504436,0.11722908287389082,9.810688952480989
4300000000.0,21.65,-0.04303973762564638,0.001490474923453664,0.0,0.7592940835223408,0.09613816704468167,10.033669419879795
4305000000.0,21.65,-0.03561934120649135,0.00018101786836405742,0.0,0.7537020491416205,0.10408401638054017,10.087818196566483
4310000000.0,21.65,-0.0322124766354732,0.0005109960629140762,0.0,0.73575,0.09064423256684233,9.896717721069477
4315000000.0,21.65,-0.030498397852066955,-0.0005535820545025623,0.0,0.7502691352547914,0.08573956762739568,9.709349567627395
4320000000.0,21.65,-0.028677826685576502,0.001746018277097512,0.0,0.7714583160891832,0.10516336782163369,9.834723885146138
4325000000.0,21.65,-0.0251431767356799,0.0010646508437165,0.0,0.7720471680158717,0.12802075202380753,10.07683300809523
4330000000.0,21.65,-0.020927159352402254,0.0007026604291752551,0.0,0.7614516112646161,0.14715,10.079969349688794
4335000000.0,21.65,-0.017413829802412822,-0.0007026878332882465,0.0,0.7290795368086954,0.16009953680869538,9.824221552923916
4340000000.0,21.65,-0.015987215948268,-0.00042581459369795955,0.0,0.7522307157007071,0.20522570579575705,9.609876421496464
4345000000.0,21.65,-0.015321703435734618,0.0022037997685999287,0.0,0.7516423687928238,0.25437355318923555,9.743589085081592
4350000000.0,21.65,-0.015123314798207275,-0.0012776176918110644,0.0,0.7563507465194075,0.27762308449353085,9.99639084493531
4355000000.0,21.65,-0.020586581036146287,-0.0042586033748661,0.0,0.7442849537719496,0.26742009245610093,9.979710462280504
4360000000.0,21.65,-0.029316727229860153,-0.0030661576662320096,0.0,0.7569393459366935,0.2201362306244623,9.70208788280578
4365000000.0,21.65,-0.0362155819788823,0.0011498597170456028,0.0,0.7436963543546635,0.20336121521511216,9.562592986988431
4370000000.0,21.65,-0.035108308253425154,0.0042586033748661,0.0,0.7600786302359863,0.1962,9.7368198615782
4375000000.0,21.65,-0.031690806670548945,0.00292774370753032,0.0,0.7406548300417483,0.2011051699582517,9.962055509874755
4380000000.0,21.65,-0.029870226018019436,-0.0025978034571367244,0.0,0.7330034552287346,0.2205289701524897,9.92379302233143
4385000000.0,21.65,-0.026388845447760493,-0.0054935244046323915,0.0,0.7598827703467277,0.24220915552009156,9.624491452052816
4390000000.0,21.65,-0.026037538421268495,0.0015331157232680945,0.0,0.7685151441885515,0.26918657054096573,9.539245705409657
4395000000.0,21.65,-0.030157820589815396,0.0034175384730282645,0.0,0.7434998146323981,0.26800851705918516,9.745844819557648
4400000000.0,21.65,-0.04132948031642294,0.0027680272669952572,0.0,0.73575,0.18835123081751232,9.94537791453528
4405000000.0,21.65,-0.048401966557747415,-0.0029916595850651593,0.0,0.7450699278091993,0.11585601443816015,9.903978259886882
4410000000.0,21.65,-0.044086933086113084,-0.0015543623428710997,0.0,0.7830341143410412,0.11144177131791771,9.753886457364164
4415000000.0,21.65,-0.034948582326850997,0.0014266507442968741,0.0,0.7699866427317665,0.13420114302431144,9.736720071804701
4420000000.0,21.65,-0.029103732977652633,0.0023421852691842986,0.0,0.7439903141468032,0.16520031414680314,9.841393717063937
4425000000.0,21.65,-0.03153115557828336,-0.0029278364599127074,0.0,0.7386931719006318,0.14813048429810483,9.994427312397475
4430000000.0,21.65,-0.036045293874758626,-0.0064091327098239744,0.0,0.7581169720948697,0.09535302790513028,9.918105597667957
4435000000.0,21.65,-0.04167725015616669,0.0008304837522101805,0.0,0.7775407722891078,0.07210306927723069,9.861600772289108
4440000000.0,21.65,-0.04183688227635405,0.006771207444712924,0.0,0.78636899630829,0.027075427516654278,9.890442862416728
4445000000.0,21.65,-0.03574709812725248,0.008527768927281723,0.0,0.7227024409836245,0.00981,9.981086745355167
4450000000.0,21.65,-0.03089223395391278,-0.0005323723250516589,0.0,0.6974910864359108,0.012753259307732592,10.002274789897248
4455000000.0,21.65,-0.020733931413890898,-0.005419082185695906,0.0,0.7107349326651493,0.04453791919817919,9.87248909426879
4460000000.0,21.65,-0.014734748873599322,-0.005961997716218761,0.0,0.7585095465205954,0.10202443315074433,9.814709319780894
4465000000.0,21.65,-0.013447846751244821,-0.0006919759871216772,0.0,0.7925496398181965,0.14577642654546427,9.877101440727214
4470000000.0,21.65,-0.02224734406372361,0.004130826428022411,0.0,0.7651800000000001,0.12635262635122627,9.984225252702453
4475000000.0,21.65,-0.0202458193231342,0.002129301687433,0.0,0.761745891549459,0.10987234768602348,9.940962370020424
4480000000.0,21.65,-0.020032143648477715,0.0019163242992950033,0.0,0.6980799480744995,0.14950492211174923,9.814707668757878
4485000000.0,21.65,-0.014937584545528052,-0.0031300545716886428,0.0,0.7366331613472317,0.20601,9.691985612884256
4490000000.0,21.65,-0.01611503083926814,-0.001107255807383213,0.0,0.7647874255742744,0.20601,9.684825446554354
4495000000.0,21.65,-0.022396432978439768,-0.003183296547213365,0.0,0.7460509365499094,0.20601,9.800582749239927
4500000000.0,21.65,-0.024504479614234975,-0.002129254257237438,0.0,0.7946097377786974,0.2060096503715965,9.839430174814202
4505000000.0,21.65,-0.030828505689151544,0.0031407674718595528,0.0,0.7654740374873404,0.1671620499831205,9.85885397500844
4510000000.0,21.65,-0.02671885842445393,0.0021505851971881326,0.0,0.7267244495946446,0.18599777520267774,9.77252501158795
4515000000.0,21.65,-0.02766644522149774,-0.0009688608207597434,0.0,0.72594,0.1768742123015421,9.656570547618506
4520000000.0,21.65,-0.02769837522915,-0.0010646508437165,0.0,0.7541930633867306,0.19541537559115377,9.634204624408845
4525000000.0,21.65,-0.028709803069420007,0.0009582048368235094,0.0,0.7740091757853919,0.17756082421460823,9.74525505471235
4530000000.0,21.65,-0.026761463388120642,0.0030662135284623606,0.0,0.8026544639694446,0.2319089279388893,9.889462319847222
4535000000.0,21.65,-0.03356466829676401,0.0031939525311496,0.0,0.7405562833914628,0.1989464476522645,9.962153716608537
4540000000.0,21.65,-0.04290167541065733,0.0002554874914135882,0.0,0.7086741354478413,0.13302298271162982,9.822555389055154
4545000000.0,21.65,-0.04659054608419978,-0.001937683697363037,0.0,0.715247188281172,0.04718530546945304,9.685019364063594
4550000000.0,21.65,-0.0439892495357097,-0.003087497038217487,0.0,0.7602754418914545,0.01275273486512735,9.734463618648036
4555000000.0,21.65,-0.03798284476757418,-0.0003513059724876851,0.0,0.7913729654262297,0.02727197695081977,9.959604711885246
4560000000.0,21.65,-0.03072191633766746,0.0028107070649705493,0.0,0.7600784457098845,0.03806288857252888,10.133339105732992
4565000000.0,21.65,-0.0233438859169316,-0.0014373267543156482,0.0,0.7383004226607043,0.07337915467859155,9.982654226607043
4570000000.0,21.65,-0.024206339728959123,-0.004876129765020904,0.0,0.7441866887667669,0.061606622466466227,9.754669469597594
4575000000.0,21.65,-0.02812427414319563,-0.0007984399120885841,0.0,0.7789143554555436,0.033844233408342334,9.671678466816685
4580000000.0,21.65,-0.032340291526473344,0.007154530907213593,0.0,0.7765595110389951,0.004708533116985332,9.93478613571316
4585000000.0,21.65,-0.025952270523696,0.0085172067497323,0.0,0.7587052218837522,0.032569556232495564,10.206424504569345
4590000000.0,21.65,-0.01926628249235559,0.0015330198088726573,0.0,0.7071042650685426,0.07141715662097156,10.074475638584657
4595000000.0,21.65,-0.017254140765990796,-0.009486145566813656,0.0,0.6806176214952763,0.04669524299055242,9.733674808410248
4600000000.0,21.65,-0.019607057907424227,-0.006600777050002651,0.0,0.7632189828442899,0.06278426804844267,9.56082483845675
4605000000.0,21.65,-0.0202458193231342,-0.002800002596834362,0.0,0.8080499683397998,0.06867,9.814319620077596
4610000000.0,21.65,-0.014419143963525631,0.004514197320718663,0.0,0.821881889543719,0.12223322680603227,10.087429128136693
4615000000.0,21.65,-0.011136228368354767,0.008027486818542911,0.0,0.7560558932324589,0.1448937896408379,10.098217262154973
4620000000.0,21.65,-0.01226479719761479,-0.004429103333863281,0.0,0.6835601718343018,0.15460568973795688,9.734262582316026
4625000000.0,21.65,-0.01837838543011017,-0.006121713102749504,0.0,0.7332983085156831,0.1496024101649241,9.432312664288027
4630000000.0,21.65,-0.01867011655427322,-0.0005961459119998387,0.0,0.7771484697965847,0.1834474496609745,9.600853677830237
4635000000.0,21.65,-0.016562107862634366,0.0041734703898499695,0.0,0.7991227800586278,0.21052278005862782,9.947441431084615
4640000000.0,21.65,-0.018286891114176702,0.004556695829946418,0.0,0.7479136789885368,0.2228832901264329,10.09488303088503
4645000000.0,21.65,-0.02296072793311318,-0.001032779860307656,0.0,0.6841488586586887,0.2047344293293443,9.842467581281475
4650000000.0,21.65,-0.032702342019262275,-0.005429748709675568,0.0,0.6876812709620127,0.13439618711396187,9.491171838776518
4655000000.0,21.65,-0.03988867645360666,-0.004184048377464597,0.0,0.777737885013479,0.06729605749326058,9.516780817938008
4660000000.0,21.65,-0.03719500181517846,0.0018738542481845973,0.0,0.820900890514909,0.06239178102981781,9.841395620596357
4665000000.0,21.65,-0.030157649841111356,0.004971929274016768,0.0,0.7780304657158047,0.06867,10.085270231016503
4670000000.0,21.65,-0.022779619420375444,0.002512536613568648,0.0,0.7424206185817062,0.10104345354573455,10.001096804398768
4675000000.0,21.65,-0.021629885129846982,-0.003779579479778139,0.0,0.73575,0.10496681838746819,9.698162730974428
4680000000.0,21.65,-0.027144825848782087,-0.002299586629543651,0.0,0.7608639636135397,0.09182150909661509,9.543167545483076
4685000000.0,21.65,-0.034522856269517996,0.005365919260497111,0.0,0.7935311730015118,0.05120765399697654,9.717102121015621
4690000000.0,21.65,-0.03463985918393876,0.00983739356906235,0.0,0.7800908356095084,0.041594582195245824,10.0425001884168
4695000000.0,21.65,-0.027826054153589477,0.006749826966557983,0.0,0.7232906616368067,0.05503419119474191,10.161001617610516
4700000000.0,21.65,-0.0245044226980003,0.00042580089164153583,0.0,0.6847378174162783,0.06474609129186092,9.95322289607673
4705000000.0,21.65,-0.02513257661397399,-0.007782686931195899,0.0,0.7000419655559197,0.057094017222040175,9.669322223886523
4710000000.0,21.65,-0.02989162546825263,-0.006771099936269665,0.0,0.7616491318887914,0.009220759597307594,9.638718589319286
4715000000.0,21.65,-0.0330216294477327,0.0004472129899268304,0.0,0.8225689579160895,-0.025211791583217916,9.882400913829409
4720000000.0,21.65,-0.029444342914038947,0.0049825957979964496,0.0,0.8271789249589893,-0.018442616639326167,10.15217490864775
4725000000.0,21.65,-0.02077804514158175,0.005802337137914057,0.0,0.7818564493352645,0.006376775332367753,10.13274698089597
4730000000.0,21.65,-0.011953341021433875,-0.0004259600462977308,0.0,0.7129900650034007,0.05140495124744951,9.823730325017003
4735000000.0,21.65,-0.0085172067497323,-0.004758979289991747,0.0,0.7184851357735514,0.08887878394338784,9.580837296339674
4740000000.0,21.65,-0.011285348903201296,-0.0020440896520909344,0.0,0.7655725841376259,0.11340387620643877,9.637738425513884
4745000000.0,21.65,-0.014935326177068945,0.0038008735295767004,0.0,0.779993192165932,0.12753,9.94646087880321
4750000000.0,21.65,-0.017584222252966658,0.00638788503621663,0.0,0.7749898154738982,0.1079096309477963,10.19259092263051
4755000000.0,21.65,-0.0191811684794176,0.0011497427225632432,0.0,0.7363380458389804,0.08348300763983008,10.058974290313543
4760000000.0,21.65,-0.020714295796733572,-0.0037049949702548917,0.0,0.711028892457289,0.07848,9.675795409251155
4765000000.0,21.65,-0.019873141304526352,-0.0037582074336579294,0.0,0.7391839627720397,0.08309079255440792,9.480482377663224
4770000000.0,21.65,-0.0170518667919846,-0.0007452053145943086,0.0,0.7832307706061078,0.07926461469694614,9.654024242803443
4775000000.0,21.65,-0.018489175628226426,0.002129301687433,0.0,0.7955908145027082,0.06867,9.989526153453962
4780000000.0,21.65,-0.02071427577065101,0.003066214582466656,0.0,0.7848,0.06867,10.12117208585082
4785000000.0,21.65,-0.019021420418752193,0.002427363576387319,0.0,0.7552712493998125,0.07710678588576786,9.89495106817041
4790000000.0,21.65,-0.01553272194815652,0.0,0.0,0.7078894139199942,0.10477117216001172,9.579462673999927
4795000000.0,21.65,-0.013595560950555134,-0.0008730339076508828,0.0,0.7045543862742438,0.1395965794113658,9.521686055879561
4800000000.0,21.65,-0.01597684532304935,-0.0012775607755763601,0.0,0.7396745594054457,0.14911181353151812,9.76095279702723
4805000000.0,21.65,-0.025696912674817003,0.0,0.0,0.7864679799940798,0.12203602667456026,9.99874589330176
4810000000.0,21.65,-0.03129690522043368,0.0,0.0,0.80442,0.06827685257216853,10.019932131430421
4815000000.0,21.65,-0.030775185717305198,0.0015757238489478578,0.0,0.7826412388464123,0.023249793525597934,9.814804748911246
4820000000.0,21.65,-0.02684660375116726,0.003875318910526266,0.0,0.7384966127545661,0.025898306377283065,9.67266
4825000000.0,21.65,-0.023812409820726514,0.0013307626989360042,0.0,0.7328071874396719,0.02992078115950781,9.720730312077704
4830000000.0,21.65,-0.023056456823817906,-0.0017673102188874093,0.0,0.7522309876339099,0.042379012366090124,9.893387345423873
4835000000.0,21.65,-0.02235388914702508,-0.0017673407850134712,0.0,0.7813669695703698,0.019717818257778186,10.035825636515556
4840000000.0,21.65,-0.027996518276438856,-0.0008090632218901031,0.0,0.8048121179664213,-0.021975058078350578,9.952439883843299
4845000000.0,21.65,-0.028581963936319926,0.005578811274283066,0.0,0.7726352235667523,-0.07475238821662387,9.82863805891688
4850000000.0,21.65,-0.020879291883266905,0.006920179364946717,0.0,0.74556,-0.06180215215112152,9.79332403625974
4855000000.0,21.65,-0.01120000406331156,0.0022676755939696224,0.0,0.7398700113949002,0.014224971512749717,9.89446494872295
4860000000.0,21.65,-0.0015330767251072771,-0.0014905624058143628,0.0,0.72594,0.07102515519735156,9.940668633601986
4865000000.0,21.65,-0.0011498639330629861,-0.004748322252051193,0.0,0.7391839724839397,0.13282758899357588,9.874450849528909
4870000000.0,21.65,-0.007861794709008588,-0.0018098551043064827,0.0,0.7851927783756278,0.12419374865483748,9.81
4875000000.0,21.65,-0.021842939460302205,0.003193993637319037,0.0,0.7970618371628184,0.04169183716281837,9.836978541601285
4880000000.0,21.65,-0.03225504997900953,0.005876852083150425,0.0,0.7408510104237102,-0.02158247394072474,9.920264494788144
4885000000.0,21.65,-0.026889117016455865,0.003034203416479808,0.0,0.72594,-0.049834420458944206,9.911925235803153
4890000000.0,21.65,-0.01306605750438155,-0.0015331178312767862,0.0,0.7324148849471489,0.0019629498238294997,9.837467050176171
4895000000.0,21.65,0.0017354118313655526,-0.0038647135187986526,0.0,0.753309804920498,0.1032023409540234,9.746528634443486
4900000000.0,21.65,0.0031939008849366348,-0.0051102620743838255,0.0,0.7514462855298629,0.19423790482337905,9.71190095176621
4905000000.0,21.65,-0.005720729140841757,0.0006068820002663214,0.0,0.7749900000000001,0.17147803781008036,9.8183399291061
4910000000.0,21.65,-0.0284437860745917,0.0031939525311496,0.0,0.7732241046291412,0.07965567406625675,9.944593581483437
4915000000.0,21.65,-0.041357835193170475,0.0035559545397386657,0.0,0.7568410226601103,-0.060724568275845686,9.953420863448308
4920000000.0,21.65,-0.03655603170660807,0.004130772673800848,0.0,0.7129906088698061,-0.10987152217451522,9.812745175393353
4925000000.0,21.65,-0.013429269648189641,-0.002289009695933296,0.0,0.6994531913244318,-0.04512446940454469,9.666773617351136
4930000000.0,21.65,0.0018099583967323269,-0.0036411370629590933,0.0,0.7202504872780049,0.10339845335268454,9.656769427908694
4935000000.0,21.65,0.005003754935238779,-0.006249490049593162,0.0,0.7519369792822698,0.19492460414354607,9.821871729559717
4940000000.0,21.65,-0.006688299722052147,-0.0043011061001113305,0.0,0.7934327040464271,0.17697163237141633,9.968137295953573
4945000000.0,21.65,-0.026495496985500896,0.0037795626157085976,0.0,0.7804832157972322,0.09280125529031255,9.962740451341004
4950000000.0,21.65,-0.042709962560196185,0.008410731230717616,0.0,0.7435978077043781,-0.04316534606935346,9.834523557782836
4955000000.0,21.65,-0.04290150571595765,0.006973410800427922,0.0,0.7224080150202802,-0.16677,9.70738797746958
4960000000.0,21.65,-0.0331051541430684,0.0013626589784491092,0.0,0.6921942743943428,-0.1604908292636083,9.771153652446635
4965000000.0,21.65,-0.00853835323892244,-0.0076016279566623254,0.0,0.7581171857566719,-0.07592766409497663,9.894661167952512
4970000000.0,21.65,0.005259364691156507,-0.009198520428891663,0.0,0.796376089608861,0.09064478614514786,9.973237820782279
4975000000.0,21.65,0.003459957931930086,-0.0028744943539751946,0.0,0.8220776134663762,0.12654880673318808,9.912513437032533
4980000000.0,21.65,-0.012393402090790281,0.0034069351893093298,0.0,0.785192496730525,0.10359253596422537,9.809607503269476
4985000000.0,21.65,-0.0288908262078058,0.008581106817201948,0.0,0.7919604285512043,-0.0038271587593715875,9.804017158759372
4990000000.0,21.65,-0.03285120116103108,0.010476080150463783,0.0,0.705927406150474,-0.12831518769905187,9.929879266172394
4995000000.0,21.65,-0.02434439242335159,0.0020653594597895204,0.0,0.686896394043764,-0.16568983275929833,10.034648029781179
5000000000.0,21.65,-0.008517080269210801,-0.0042586560750833904,0.0,0.7063202913570029,-0.058859125928991264,9.937528154738983
5005000000.0,21.65,0.004130971880622135,-0.009528677804180482,0.0,0.73545599164836,0.02854797494507976,9.75300205289372
5010000000.0,21.65,0.00947544531469487,-0.007495120817517272,0.0,0.7934333838794339,0.04865779462647794,9.65500102686761
5015000000.0,21.65,-0.0028108050873747095,-0.002288946455672539,0.0,0.823157392231074,0.05856579741035798,9.833840150796801
5020000000.0,21.65,-0.013414706452864704,0.004003150665595928,0.0,0.8146223024925231,0.021189209970092104,10.008948555134586
5025000000.0,21.65,-0.012829032074040554,0.008304318951963692,0.0,0.7769516095816161,0.06621798802297987,9.988051207186212
5030000000.0,21.65,-0.005770333349957609,0.004514077164223196,0.0,0.6735535252811353,0.12399898621028987,9.737599562053695
5035000000.0,21.65,-0.0013627106246620838,-0.0016822120160146373,0.0,0.657956602201166,0.1640235911953359,9.548365441822154
5040000000.0,21.65,-0.004003119045465549,-0.005067769889182141,0.0,0.7114217873757179,0.16677,9.616547681063576
5045000000.0,21.65,-0.01590060087763281,-0.0033855684132108803,0.0,0.7875475839445759,0.059643624083136254,9.909280335778304
5050000000.0,21.65,-0.029508420054238704,-0.0003193633167832819,0.0,0.821097294270573,-0.021582784721527838,10.069966471352865
5055000000.0,21.65,-0.03373497748097455,0.0037901996275665735,0.0,0.7803850090634502,-0.09927798549847985,9.901329038066491
5060000000.0,21.65,-0.028464859837482023,0.005195506783860687,0.0,0.7490913051467131,-0.09927710171557103,9.619683051467131
5065000000.0,21.65,-0.011936823200967724,0.001618226574193013,0.0,0.7284904032369041,-0.08103040323690403,9.575835201618451
5070000000.0,21.65,0.0014054673649546226,-0.0007665699826840133,0.0,0.742813396957334,0.03963377870133779,9.768604065009342
5075000000.0,21.65,0.0095286999382718,-0.0010646508437165,0.0,0.778914394303144,0.15892318290943183,9.991977767243077
5080000000.0,21.65,0.004386286515323053,-0.0019589682611225135,0.0,0.7765595013270951,0.20130149601871494,10.001098503981284
5085000000.0,21.65,-0.01449395226754541,0.0005217110710936759,0.0,0.758705202459952,0.1408708098398081,9.800972429519424
5090000000.0,21.65,-0.03383095722471354,0.0045567485301637465,0.0,0.7634142988671431,-0.0092230807414308,9.70463990793
5095000000.0,21.65,-0.041592122441172205,0.004460876294867969,0.0,0.7333952041429521,-0.13459438757114386,9.835311581356716
5100000000.0,21.65,-0.03323444135718838,-5.3754221616443554e-08,0.0,0.7573323962455241,-0.18835239624552397,10.002277684043476
5105000000.0,21.65,-0.016580095708145212,-0.003587905627477796,0.0,0.7341800033660001,-0.17295000252450002,10.027880000841499
5110000000.0,21.65,-0.00031923367424874574,-0.00674991866493603,0.0,0.741243798511238,-0.09790290669942905,9.87278201488762
5115000000.0,21.65,0.004833536395402002,-0.0066327639738895374,0.0,0.790882796116428,-0.02560340453083404,9.738974407767143
5120000000.0,21.65,0.001277527047437342,-0.001533032456924801,0.0,0.811875699449857,0.005101398899713989,9.793912693948426
5125000000.0,21.65,-0.003992494681659748,0.004790993617991668,0.0,0.8142300000000001,0.00981,9.944889192298593
5130000000.0,21.65,-0.0013839920264085617,0.0063879050622992,0.0,0.7779325017795251,0.031588498932284985,10.008358498932285
5135000000.0,21.65,0.003886029702688529,0.005610699121761523,0.0,0.743695800776358,0.08220839844728399,9.844136406210865
5140000000.0,21.65,0.0053232542185827,0.004556694775942073,0.0,0.6863069011316691,0.13341649919166498,9.709937001616671
5145000000.0,21.65,3.186360537852338e-05,0.001234951595892295,0.0,0.687975599806356,0.14715,9.703365599806355
5150000000.0,21.65,-0.011072499049589093,-0.0029810657873853177,0.0,0.717111300097713,0.085346099706861,9.890444600846847
5155000000.0,21.65,-0.021528734302557237,-0.006462463221713741,0.0,0.7800920010375201,-0.015599001426590021,10.034650001296901
5160000000.0,21.65,-0.029572236855364985,-0.0052806355528594254,0.0,0.791078199546382,-0.10908810204128101,9.93164199546382
5165000000.0,21.65,-0.02411038211931141,-0.002118622515401191,0.0,0.778227199676072,-0.143912800323928,9.711112792225727
5170000000.0,21.65,-0.011099454053056559,0.00034071006679915164,0.0,0.787939400842094,-0.134200599157906,9.620470599157905
5175000000.0,21.65,0.0019165024260295108,0.0010646508437165,0.0,0.788233399481834,-0.04463419326384194,9.74133201036332
5180000000.0,21.65,0.011839004738008054,0.004471588141034541,0.0,0.7848,0.06278500615285007,9.91045600984456
5185000000.0,21.65,0.012892888927332053,0.007729386985432185,0.0,0.747717595725576,0.14754320569923204,9.93605799643798
5190000000.0,21.65,0.003790025716849577,0.007857112286062898,0.0,0.6955284959523851,0.15225079676190795,9.814510886238109
5195000000.0,21.65,-0.00950747439875564,0.0029064201456100516,0.0,0.664921598186716,0.11340319637343196,9.727203196373432
5200000000.0,21.65,-0.017470789838743048,-0.004471610275125796,0.0,0.6631561010037611,0.0392389899623899,9.753102707026327
5205000000.0,21.65,-0.01792485853946165,-0.008080710875993734,0.0,0.7307480121096802,-0.005788001100880011,9.83266200990792
5210000000.0,21.65,-0.012719184397712174,-0.009134715221813153,0.0,0.7920597035939971,0.0015698023959980247,9.857480197604001
5215000000.0,21.65,-0.0095818575934488,-0.007154409696713816,0.0,0.826787205180472,0.004218198704881986,9.815689192229293
5220000000.0,21.65,-0.012562934974881963,0.0006389005442836273,0.0,0.827178895823289,-0.010987402784474028,9.806861104176711
5225000000.0,21.65,-0.017256987217038552,0.00766553013214071,0.0,0.798043195531932,-0.05199360893613608,9.857579210425492
5230000000.0,21.65,-0.018606245998925235,0.010731702554433589,0.0,0.758312492067625,-0.09437250475942505,9.914967507932376
5235000000.0,21.65,-0.01415733533159006,0.00832550338531032,0.0,0.70975299158203,-0.10791,9.895934786531248
5240000000.0,21.65,-0.006217472559580198,0.000894218340997551,0.0,0.6867000000000001,-0.0773021893157219,9.818239585754297
5245000000.0,21.65,0.000585613246572064,-0.004822901491552659,0.0,0.7117160093891601,-0.04404679812216798,9.80058280751133
5250000000.0,21.65,0.003726289020053481,-0.007452578040107012,0.0,0.750465305924853,-0.01961959210019592,9.908101835549118
5255000000.0,21.65,0.002693533401845772,-0.007473826767718732,0.0,0.7844080082882802,0.00480700207207002,10.01561800828828
5260000000.0,21.65,-0.0020016101149414236,-0.003321644103641276,0.0,0.8091289021691891,-0.004316706507567063,9.955578663123786
5265000000.0,21.65,-0.005823651213795217,0.002001587980850113,0.0,0.79117598866846,-0.038063209065232084,9.799697966005379
5270000000.0,21.65,-0.005408404067668364,0.005238104369496935,0.0,0.7651800000000001,-0.05886,9.72171
5275000000.0,21.65,-0.0023421873771929612,0.005908801062880926,0.0,0.751936192618362,-0.03237238523672385,9.78792903690819
5280000000.0,21.65,0.002810745009126999,0.0029809667109768527,0.0,0.731433497442335,0.012949507672995077,9.899075517903656
5285000000.0,21.65,0.00684571606592323,0.0,0.0,0.730158402654784,0.037866805309568055,9.908001181416513
5290000000.0,21.65,0.006111062388834932,-0.001341493517180768,0.0,0.739870302751903,0.05317030275190303,9.802935155969552
5295000000.0,21.65,0.0016394953278873357,-0.0018843985076601973,0.0,0.74556,0.046793391452933916,9.7119
5300000000.0,21.65,-0.0029810447072983713,-0.0012776145297980369,0.0,0.7534082058922821,0.025505897053858972,9.758989235353692
5305000000.0,21.65,-0.0042586033748661,-0.0031939525311496,0.0,0.7690060030432601,0.02727200608652006,9.84492401217304
5310000000.0,21.65,-0.0026402893183123713,-0.0035985310452880223,0.0,0.7675341937192419,0.04296790314037903,9.850220484298104
5315000000.0,21.65,-0.00039393201624130105,-0.0022889432936595575,0.0,0.7626296064749961,0.05630960647499607,9.76536295143753
5320000000.0,21.65,-0.001831221880404895,0.001831221880404895,0.0,0.7749900000000001,0.0580748899961489,9.679723406669234
5325000000.0,21.65,-0.005429786653832017,0.0035665915515966577,0.0,0.771556396568264,0.028939189704791896,9.754084861771249
5330000000.0,21.65,-0.011029827683648614,0.004982588419966007,0.0,0.75850899294229,-0.003532014115420142,9.898879531759695
5335000000.0,21.65,-0.012786422894356522,0.004279828914382245,0.0,0.739085192748052,-0.026192596374025965,9.940962981870129
5340000000.0,21.65,-0.009283710330142563,0.0,0.0,0.7196613925538139,-0.02589860744618607,9.86728905159979
5345000000.0,21.65,-0.005067692946864851,-0.0009901590865757464,0.0,0.7184848152808481,-0.027075184719151844,9.771446388539365
5350000000.0,21.65,-0.0014904886255100993,-0.0025551394692266693,0.0,0.7514462078346621,-0.002943103917331039,9.786457247007972
5355000000.0,21.65,-0.0006175200661286574,-0.001990930942909515,0.0,0.7680250040144501,-0.01265500401445004,9.88877502810115
5360000000.0,21.65,-0.002725528757767442,-0.0033642627693644504,0.0,0.7804838082231381,-0.02236690411156904,9.926542383553723
5365000000.0,21.65,-0.004833537449406298,8.521730536386945e-05,0.0,0.789312391582624,-0.04002521683475217,9.895641195791312
5370000000.0,21.65,-0.0063879050622992,0.003470773070522564,0.0,0.772439295694193,-0.06867,9.873175774165157
5375000000.0,21.65,-0.004790860813444094,0.0042586033748661,0.0,0.7553695823882959,-0.05885958238829582,9.844335626417557
5380000000.0,21.65,0.001022110174314908,0.0029809656569724707,0.0,0.723585495499955,-0.027075495499954957,9.895543513500135
5385000000.0,21.65,0.0049932465119109214,-0.001554412935079722,0.0,0.7228992137914921,-0.01736359540283595,9.908884381611344
5390000000.0,21.65,0.006515617714877767,-0.0034281870789340777,0.0,0.7520349140828492,-0.014126609388566094,9.86356186714002
5395000000.0,21.65,0.0029703644812622224,-0.0035878392252040097,0.0,0.7749900000000001,-0.02324938562579386,9.820301023957011
5400000000.0,21.65,0.002129301687433,-0.0008517092917262651,0.0,0.7828384195540843,-0.003924209777042098,9.870822629331126
5405000000.0,21.65,0.002129301687433,0.0010114752704656045,0.0,0.8086379850430799,-0.017755995014359947,9.908589975071799
5410000000.0,21.65,0.002895895912217003,0.00513160566238669,0.0,0.7724386644206866,-0.002746379668963796,9.854732759337928
5415000000.0,21.65,0.006930911237195828,0.004439605433164987,0.0,0.714462194820122,0.03276561035975611,9.775369753381097
5420000000.0,21.65,0.009070790912243538,0.004471476416573925,0.0,0.7094594105539941,0.052189410553994106,9.706799115830991
5425000000.0,21.65,0.005908777874785304,-0.00015970906250462714,0.0,0.724468394625884,0.06867,9.747707659115276
5430000000.0,21.65,0.002448639708112058,-0.0013627759729315252,0.0,0.7188770109424701,0.07004350547123504,9.840803505471236
5435000000.0,21.65,-0.002544549887564178,-0.00402444893141193,0.0,0.7421270278417703,0.07082756658987566,9.841587566589876
5440000000.0,21.65,-0.005451023787395963,-0.0095818575934488,0.0,0.7859773056654731,0.017265388669053885,9.779784249010744
5445000000.0,21.65,-0.005919412778634614,-0.008527749955203497,0.0,0.7967684115251842,0.0,9.70748602881296
5450000000.0,21.65,-0.001916348541394961,0.0006388594381141365,0.0,0.812267788280578,0.0,9.758007741017977
5455000000.0,21.65,-0.00019166015024379578,0.0063879050622992,0.0,0.7928439880863399,-0.0017660119136601192,9.825991041697812
5460000000.0,21.65,-0.0022996688418825606,0.006558272216748761,0.0,0.7726352818381529,-0.02040490605394906,9.883770563676306
5465000000.0,21.65,-0.004333140454193762,0.008368132591076983,0.0,0.7407523569425236,-0.030116806151068064,9.830993612302136
5470000000.0,21.65,-0.005131582474291088,0.006196233318007594,0.0,0.6774787062481872,-0.03982870624818706,9.850417412496373
5475000000.0,21.65,-0.001969569436832765,0.002767999862882291,0.0,0.6871906063453062,-0.05003121269061213,9.87131303172653
5480000000.0,21.65,0.0011498460149890844,-0.00540844938985528,0.0,0.6980800257697002,-0.06827749355757493,9.918302506442425
5485000000.0,21.65,0.0032578547066279403,-0.007580360256972381,0.0,0.7375164392372644,-0.05827118692091187,9.926247967302281
5490000000.0,21.65,0.005365863398266794,-0.011540722562145517,0.0,0.7950026132733262,-0.03924,9.878277386726673
5495000000.0,21.65,0.00743123972212585,-0.0031619782553148224,0.0,0.8144264134675643,-0.03914179326621793,9.859639240402693
5500000000.0,21.65,0.005323265812630504,5.797023902006799e-08,0.0,0.8338495726763958,-0.029429786338197865,9.917910427323603
5505000000.0,21.65,0.0063772701584498825,0.00527007969933611,0.0,0.7950019722879198,-0.010005986143959863,9.95675802771208
5510000000.0,21.65,0.00847464394623942,0.009496731986463041,0.0,0.7465404648743047,-0.00019609297486092823,9.918694371899443
5515000000.0,21.65,0.00954992969380524,0.0033855199290109697,0.0,0.6789493501441937,0.0,9.813236121655162
5520000000.0,21.65,0.0095818575934488,0.00012772319262205085,0.0,0.6863077072193772,0.009417707219377073,9.753493756683737
5525000000.0,21.65,0.012616147438284982,-0.00404571979311488,0.0,0.7332980365824804,0.0004903926835039263,9.807057643898977
5530000000.0,21.65,0.008772676323072007,-0.0042586033748661,0.0,0.7634145222408453,0.0,9.920658088963382
5535000000.0,21.65,0.007527069797247755,-0.0042586033748661,0.0,0.7743034075107341,0.0,9.964213630042936
5540000000.0,21.65,0.006473065451428368,-0.0042586033748661,0.0,0.7930406152157062,-0.009025307607853077,9.84963100109791
5545000000.0,21.65,0.0034813731922284786,-0.00038322754810516833,0.0,0.7767555845900559,-0.0008827922950279225,9.71444909213039
5550000000.0,21.65,0.007026742366322045,0.0,0.0,0.7749900000000001,-0.017658215604182157,9.79038107802091
5555000000.0,21.65,0.008400106866911755,0.003790203843583957,0.0,0.76625899210079,-0.01962,9.85257604739526
5560000000.0,21.65,0.00664339782373452,0.0042586033748661,0.0,0.7479141840073419,-0.0023541840073418377,9.902214539981644
5565000000.0,21.65,0.005461647097197476,0.0005535715144591169,0.0,0.7370251919065519,0.0,9.839821535252415
5570000000.0,21.65,0.002576419816968721,0.002746834401613893,0.0,0.7020031672377316,-0.008436708190567082,9.778999750856597
5575000000.0,21.65,0.003034266656740566,-0.0022358372846954548,0.0,0.7131872165753722,-0.00981,9.804114433150744
5580000000.0,21.65,0.010348500302432726,-0.0031939525311496,0.0,0.7408515251544152,-0.001569491615194915,9.85944305030883
5585000000.0,21.65,0.012594831254395138,-0.0067286404252026345,0.0,0.7699872254457724,0.04885445089154451,9.844432774554228
5590000000.0,21.65,0.014521861075830714,-0.005706504954783468,0.0,0.8071672343161724,0.06690430857904309,9.807252765683828
5595000000.0,21.65,0.008868458967998295,-0.002736117285425554,0.0,0.8142300000000001,0.060723791323837914,9.72867412191454
5600000000.0,21.65,0.0031938935069061748,0.002129360711676446,0.0,0.806381891226719,0.04316378245343783,9.78253297895953
5605000000.0,21.65,0.0004471297235834968,0.008240468422698266,0.0,0.7734199645183997,0.03148999112959991,9.8621900709632
5610000000.0,21.65,0.00083043948402763,0.006260099657338201,0.0,0.7192685461948854,0.006474273097442734,9.886321908967519
5615000000.0,21.65,0.0018844438298470084,0.004503461232452114,0.0,0.6987661909353619,-0.007553809064638091,9.835603336547534
5620000000.0,21.65,0.0045567411521333125,0.00021287093369908895,0.0,0.703965709161757,-0.00981,9.804898581676486
5625000000.0,21.65,0.003726254237910094,-0.004258650805061712,0.0,0.7283928277766283,0.004905218517752186,9.807547609258876
5630000000.0,21.65,0.003981806023588744,-0.0029596937412651203,0.0,0.7575285280679853,-0.01196852806798528,9.889854602915946
5635000000.0,21.65,0.005813017363950217,-0.0029065086819750952,0.0,0.7795028189062283,-0.01962,9.946555637812457
5640000000.0,21.65,0.005621344565654299,-0.0008942710412148257,0.0,0.7918633095502331,-0.05493654775116547,9.928896761799066
5645000000.0,21.65,0.007590996214826109,0.0015118279974955585,0.0,0.7806795807052959,-0.054739580705295804,9.862188322821183
5650000000.0,21.65,0.009262474250582957,0.0028745691882837276,0.0,0.7475215610221156,-0.04905,9.832562890255529
5655000000.0,21.65,0.011785720602309476,0.004663194537056742,0.0,0.7222119803168199,-0.0422809901584099,9.87023405904954
5660000000.0,21.65,0.013499784629654883,0.00315133070341332,0.0,0.6961172701838728,-0.0258981801225818,9.921834549693546
5665000000.0,21.65,0.016705466898708988,-0.0007240103412041723,0.0,0.680127189964172,-0.0261928100358281,9.878374709677548
5670000000.0,21.65,0.017413836126438927,-0.006345390743006227,0.0,0.7027888405317885,-0.0229552898670529,9.810391739202318
5675000000.0,21.65,0.016359831780619484,-0.010593311783827514,0.0,0.7543896613803966,-0.01962,9.752120338619603
5680000000.0,21.65,0.017349992975203923,-0.00830421671354213,0.0,0.7938255309815554,-0.0007844690184446897,9.775469572290296
5685000000.0,21.65,0.02147022771355526,-0.001692710953303425,0.0,0.8106004104243042,0.05307287297012873,9.880535335515955
5690000000.0,21.65,0.0234397718542838,0.005685319467432484,0.0,0.7899007579143077,0.10889155260711553,9.92772
5695000000.0,21.65,0.02019252675540086,0.007218308710179111,0.0,0.7510531575258316,0.1215457893814579,9.831972630103326
5700000000.0,21.65,0.014273230331934466,0.008943115149817089,0.0,0.7004333357060334,0.09417555713735556,9.711898892843388
5705000000.0,21.65,0.007314067113005477,0.00876204036521832,0.0,0.6653139783744398,0.037963924310539236,9.771056183817262
5710000000.0,21.65,0.0017885652705252448,0.003747498749504389,0.0,0.6800296436395964,-0.024329465459394656,9.90201902000889
5715000000.0,21.65,0.0012137260563761553,-0.005610842466352583,0.0,0.690918188992982,-0.06023362201403622,9.913789133957891
5720000000.0,21.65,0.0063028173994698605,-0.015426014720973373,0.0,0.7416371110413712,-0.05768257779172578,9.844530311166903
5725000000.0,21.65,0.013104877296539717,-0.018010028414629932,0.0,0.8225692784087928,-0.054445611201256114,9.739857054383672
5730000000.0,21.65,0.016562139482764766,-0.010718282936545153,0.0,0.8640650225967502,-0.027074932209749325,9.714255067790251
5735000000.0,21.65,0.02156608308478149,0.00031951614741342754,0.0,0.8938876455819764,0.04159529116395291,9.8297199937234
5740000000.0,21.65,0.023354551386906917,0.01252952713218558,0.0,0.8817221310443213,0.08358131149261311,9.94380918044829
5745000000.0,21.65,0.0218534542076561,0.0191811684794176,0.0,0.7734186145642861,0.10830284635892846,9.891715402974555
5750000000.0,21.65,0.019713433296026064,0.01651075391991068,0.0,0.6572691065051911,0.12753,9.706992654576126
5755000000.0,21.65,0.013913168209704544,0.009145241563214855,0.0,0.6132229882160299,0.12753,9.68570920032749
5760000000.0,21.65,0.0055360629660253695,0.001192336092182149,0.0,0.6364734712865348,0.09927652871346529,9.81784911881089
5765000000.0,21.65,-0.0035027863445181305,-0.006132486081168087,0.0,0.6716908119782082,0.017951068239710682,9.896524871869248
5770000000.0,21.65,-0.007942307457335486,-0.013593046459040024,0.0,0.7175044086779442,-0.07534169660261697,9.94577084830131
5775000000.0,21.65,-0.007079891589464397,-0.014169382290245119,0.0,0.7828384486897846,-0.16186612172446124,9.905155429585754
5780000000.0,21.65,0.0007667070032489898,-0.00877267421506332,0.0,0.8216860490782605,-0.2115034877304349,9.799404414113043
5785000000.0,21.65,0.015391892729857009,-0.0036410327165288573,0.0,0.84366,-0.14695222686642226,9.794697298933473
5790000000.0,21.65,0.02942324385504431,0.0031301589181188666,0.0,0.84366,-0.03982781275337813,9.860031562319016
5795000000.0,21.65,0.03665210104071643,0.009198632153352315,0.0,0.8195267246344673,0.048266550731065505,9.880435574878156
5800000000.0,21.65,0.03515087000291366,0.0117111592808819,0.0,0.7651794367097944,0.16088523923845238,9.912025239238453
5805000000.0,21.65,0.02988084827381657,0.010050255016722262,0.0,0.7089679107138792,0.19502189795871896,9.930857846938078
5810000000.0,21.65,0.021367557547640432,0.005429658065301782,0.0,0.6521683485908836,0.13969417429544176,9.844138348590883
5815000000.0,21.65,0.010018278632878796,-0.0022039620852692264,0.0,0.6641381294939813,0.08760205755662058,9.845218690645787
5820000000.0,21.65,0.004556681073885613,-0.010731717310494411,0.0,0.7400668521860686,-0.008633704372137046,9.874353147813931
5825000000.0,21.65,0.0035665926056010037,-0.012403170050146996,0.0,0.7789144525745446,-0.07602806571818066,9.842372773712729
5830000000.0,21.65,0.0057065776810832965,-0.009539197821556138,0.0,0.8210975662037756,-0.10457448675924487,9.859639619166796
5835000000.0,21.65,0.011685090245821574,-0.0025124775893253155,0.0,0.8502325866621259,-0.09486258666212587,9.892010693297006
5840000000.0,21.65,0.02186422402406166,0.004556754854189789,0.0,0.8248241193900412,-0.06317549252005492,9.811176179085061
5845000000.0,21.65,0.03312821774521233,0.0077826099888786485,0.0,0.7787175729357758,0.020602135321121352,9.742016359403664
5850000000.0,21.65,0.04015477776878267,0.008197799164766473,0.0,0.7563506591123067,0.11772113629231136,9.736425568146155
5855000000.0,21.65,0.03724820690055109,0.006217511557740973,0.0,0.7186799176418992,0.19208002745270028,9.819125233347952
5860000000.0,21.65,0.028975832712300458,0.00200149417446336,0.0,0.6823838276469384,0.21425074147040743,9.926542344706125
5865000000.0,21.65,0.01699373620607384,-0.0027894593913631426,0.0,0.6885635582382356,0.2063030468735305,9.885045930397059
5870000000.0,21.65,0.002555038284809497,-0.008006199092770346,0.0,0.6849349981239501,0.10712428785834288,9.816080717769808
5875000000.0,21.65,-0.0055894293140628885,-0.0095818575934488,0.0,0.7455604564593046,0.0049029459331294545,9.726615228229653
5880000000.0,21.65,-0.005876847867133042,-0.008815271800699576,0.0,0.7891170852716709,-0.1393025710597257,9.769584170543341
5885000000.0,21.65,-0.0010751360789487186,-0.004673730364497537,0.0,0.8406192429271925,-0.16304151414561513,9.872588485854385
5890000000.0,21.65,0.013333467149968302,0.0027043000562383323,0.0,0.8524884279690843,-0.09613685593816856,9.922226628812366
5895000000.0,21.65,0.028646026320458803,0.008293617645840577,0.0,0.797748283973583,-0.003138283973582838,9.914867640463678
5900000000.0,21.65,0.035789696766893114,0.007026670694026539,0.0,0.7239773123974732,0.06670845840168459,9.82962
5905000000.0,21.65,0.03226561531857199,0.005120958110485222,0.0,0.6768900000000001,0.0981,9.835212044092621
5910000000.0,21.65,0.022201485578707637,0.002725406493263363,0.0,0.687485488767955,0.08750451123204511,9.862581829589319
5915000000.0,21.65,0.011168149943972234,-0.004620609599472549,0.0,0.7324143702164437,0.027565295757552954,9.873666555324665
5920000000.0,21.65,0.00971249578195871,-0.006047191833486995,0.0,0.7208391449666914,-0.02943,9.852379429977795
5925000000.0,21.65,0.017424606996848818,-0.0045780236078840604,0.0,0.754389690516097,-0.019128694397886947,9.86444515474195
5930000000.0,21.65,0.02601626439755247,-0.005493523350628063,0.0,0.8085405455494055,0.04336054554940545,9.843550545549405
5935000000.0,21.65,0.0287630260728665,0.0004152513621442026,0.0,0.8287483388789835,0.0712208305605083,9.86886
5940000000.0,21.65,0.028251943581596044,0.0035772643996024368,0.0,0.7910780538678805,0.08593536924525369,9.867682684622627
5945000000.0,21.65,0.02380167794847736,0.006270780937378713,0.0,0.7608631381020314,0.06327392262753923,9.857970784525508
5950000000.0,21.65,0.017795339219761754,0.005216776591559325,0.0,0.7239777688567777,0.017657768856777688,9.846296653285167
5955000000.0,21.65,0.01548166958890581,0.003875278858361116,0.0,0.70632,0.0008830156687301567,9.823342062674921
5960000000.0,21.65,0.022247501110371087,-0.00017036926245824434,0.0,0.7094596630633966,0.017659157658491575,9.857480168468301
5965000000.0,21.65,0.03361793451438873,-0.0024274542207610166,0.0,0.7462468158629681,0.11409134276671343,9.834622288959222
5970000000.0,21.65,0.04115548638485571,-0.006451796697734079,0.0,0.7571361478802615,0.19678871596008718,9.771348715960087
5975000000.0,21.65,0.03424576379702379,-0.007079839943251388,0.0,0.7857812321144124,0.20306630365676304,9.78204184817162
5980000000.0,21.65,0.01658258341758282,4.2598639640636e-05,0.0,0.8048125161543251,0.14126225768512257,9.811962580771626
5985000000.0,21.65,0.005131541368121608,0.0012563636941775927,0.0,0.8142300000000001,-0.001766497508664975,9.859933248754333
5990000000.0,21.65,-0.0008515944052525648,0.0074525559060157,0.0,0.8126594692114948,-0.05846736730287368,9.888283683651437
5995000000.0,21.65,0.009805874398481036,0.00738860103032007,0.0,0.735160701325907,-0.03815961909749619,9.877098536869084
6000000000.0,21.65,0.031957117732589746,0.001064574955403601,0.0,0.6768902330856025,0.06867163159921631,9.721709533828795
6005000000.0,21.65,0.04355116553660341,-0.0052594511195128675,0.0,0.6963140332798403,0.20463823295888234,9.68286193344032
6010000000.0,21.65,0.03636454441307696,-0.008453365706506018,0.0,0.754193500422235,0.18678216652592167,9.788223084107432
6015000000.0,21.65,0.016593826015413104,-0.005419034755500348,0.0,0.8029490841707909,0.14832673266336732,9.952148886180689
6020000000.0,21.65,0.0016613755768897613,0.005919598283399484,0.0,0.8232554338625544,0.005884246030842449,9.985403150793832
6025000000.0,21.65,5.3219841433457815e-05,0.007399336064582243,0.0,0.7401634467444345,-0.0652373191987732,9.91202306377283
6030000000.0,21.65,0.008006276035087646,0.0034494178884719234,0.0,0.7080854486234545,-0.07789151712551516,9.85277089724691
6035000000.0,21.65,0.032296750676062545,-0.001756737501294488,0.0,0.70632,0.021877589448975887,9.712388741660488
6040000000.0,21.65,0.043881195377366344,-0.006047267721799894,0.0,0.7514465865987658,0.1287084905172849,9.792343173197532
