#timestamp [ns], temperature [degC], w_RS_S_x [rad s^-1], w_RS_S_y [rad s^-1], w_RS_S_z [rad s^-1], a_RS_S_x [m s^-2], a_RS_S_y [m s^-2], a_RS_S_z [m s^-2]
0.0,22.22,0.0,0.0,0.0,0.59841,-0.12753,9.81981
5000000.0,22.22,0.0,0.0,0.0,0.588698099902881,-0.16637760038847602,9.839233800194238
10000000.0,22.22,0.0,0.0,0.0,0.5693723996115241,-0.13792859941728597,9.83943
15000000.0,22.22,0.0,0.0,0.0,0.607042801165428,-0.15637140058271398,9.791851498543215
20000000.0,22.22,0.0,0.0,0.0,0.60822,-0.15696,9.780962399611525
25000000.0,22.22,0.0,0.0,0.0,0.60822,-0.147640499514405,9.79920900097119
30000000.0,22.22,0.0,0.0,0.0,0.589777198834572,-0.15637140058271398,9.837075602330856
35000000.0,22.22,0.0,0.0,0.0,0.5886,-0.13871339864033397,9.821183398640335
40000000.0,22.22,0.0,0.0,0.0,0.570549598446096,-0.13734,9.77468399611524
45000000.0,22.22,0.0,0.0,0.0,0.586834201748142,-0.13734,9.788614201748143
50000000.0,22.22,0.0,0.0,0.0,0.59742900097119,-0.15499800194238,9.80803800194238
55000000.0,22.22,0.0,0.0,0.0,0.572217296795073,-0.165690901068309,9.81
60000000.0,22.22,0.0,0.0,0.0,0.577612801165428,-0.15813719883457197,9.801367198834573
65000000.0,22.22,0.0,0.0,0.0,0.587324701262547,-0.148425298737453,9.808724701262548
70000000.0,22.22,0.0,0.0,0.0,0.5886,-0.17245980407899802,9.801563398640335
75000000.0,22.22,0.0,0.0,0.0,0.5886,-0.15156449562964497,9.841882507283925
80000000.0,22.22,0.0,0.0,0.0,0.580359598446096,-0.138909598446096,9.824518795338289
85000000.0,22.22,0.0,0.0,0.0,0.595074603302046,-0.14548230165102302,9.803525396697955
90000000.0,22.22,0.0,0.0,0.0,0.59841,-0.14715,9.768013193007432
95000000.0,22.22,0.0,0.0,0.0,0.606356101845261,-0.14715,9.792734407381044
100000000.0,22.22,0.0,0.0,0.0,0.60822,-0.14715,9.84727801165428
105000000.0,22.22,0.0,0.0,0.0,0.5849702938815029,-0.14715,9.8513000979605
110000000.0,22.22,0.0,0.0,0.0,0.586441802136618,-0.13949819786338197,9.818632791453528
115000000.0,22.22,0.0,0.0,0.0,0.6037074044674741,-0.13734,9.779785191065052
120000000.0,22.22,0.0,0.0,0.0,0.600764397669144,-0.15970680699256806,9.800582409323424
125000000.0,22.22,0.0,0.0,0.0,0.5910524975720249,-0.15205499514404996,9.8394300097119
130000000.0,22.22,0.0,0.0,0.0,0.5958594025250941,-0.15440940252509402,9.84924
135000000.0,22.22,0.0,0.0,0.0,0.591248697377787,-0.1283147895111479,9.820594789511148
140000000.0,22.22,0.0,0.0,0.0,0.595663202719332,-0.1459728108773281,9.78174718912267
145000000.0,22.22,0.0,0.0,0.0,0.5775146915506469,-0.14999489718354897,9.791655308449354
150000000.0,22.22,0.0,0.0,0.0,0.5895810087407101,-0.13341599417285993,9.81392400582714
155000000.0,22.22,0.0,0.0,0.0,0.591641096989311,-0.14106780602137806,9.833347806021377
160000000.0,22.22,0.0,0.0,0.0,0.595270803107808,-0.14715,9.819417590676576
165000000.0,22.22,0.0,0.0,0.0,0.59841,-0.14715,9.803427296795073
170000000.0,22.22,0.0,0.0,0.0,0.6048846033020461,-0.1665738099061381,9.806664603302046
175000000.0,22.22,0.0,0.0,0.0,0.5827139864033399,-0.1638269932016699,9.803623496600835
180000000.0,22.22,0.0,0.0,0.0,0.5752584034962841,-0.14440319300743193,9.81274680699257
185000000.0,22.22,0.0,0.0,0.0,0.57879,-0.14352030359340304,9.825990303593404
190000000.0,22.22,0.0,0.0,0.0,0.572707796309478,-0.15323220369052204,9.841784407381045
195000000.0,22.22,0.0,0.0,0.0,0.5749641037876411,-0.15097589621235896,9.813335377274154
200000000.0,22.22,0.0,0.0,0.0,0.56113198834572,-0.14715,9.808038011654281
205000000.0,22.22,0.0,0.0,0.0,0.5667237119456372,-0.14715,9.814022096018121
210000000.0,22.22,0.0,0.0,0.0,0.5901696081579961,-0.14715,9.821379608157997
215000000.0,22.22,0.0,0.0,0.0,0.604001704176117,-0.15833340835223408,9.82962
220000000.0,22.22,0.0,0.0,0.0,0.5972327914535279,-0.14479558290705583,9.82962
225000000.0,22.22,0.0,0.0,0.0,0.57780899125929,-0.1383210087407101,9.813433486888936
230000000.0,22.22,0.0,0.0,0.0,0.5795748089349481,-0.14185259553252594,9.779000382130103
235000000.0,22.22,0.0,0.0,0.0,0.5989986091291861,-0.15293791369377913,9.786946522822966
240000000.0,22.22,0.0,0.0,0.0,0.613321204661712,-0.16677,9.825303613985136
245000000.0,22.22,0.0,0.0,0.0,0.5980175809646758,-0.16677,9.834426895241169
250000000.0,22.22,0.0,0.0,0.0,0.5689799902881,-0.15205498543214985,9.80509497572025
255000000.0,22.22,0.0,0.0,0.0,0.5783976198122762,-0.1469538099061381,9.78057
260000000.0,22.22,0.0,0.0,0.0,0.59841,-0.16166880505018805,9.799405220200752
265000000.0,22.22,0.0,0.0,0.0,0.5891885897053859,-0.15293788455807883,9.83825282058923
270000000.0,22.22,0.0,0.0,0.0,0.5833026052444261,-0.1463652104888521,9.845512184266722
275000000.0,22.22,0.0,0.0,0.0,0.57977098931691,-0.15696,9.807547473292276
280000000.0,22.22,0.0,0.0,0.0,0.564663594561336,-0.15696,9.771937189122673
285000000.0,22.22,0.0,0.0,0.0,0.5718249166073492,-0.15696,9.769386611071566
290000000.0,22.22,0.0,0.0,0.0,0.5886,-0.14871958873419588,9.81765185069612
295000000.0,22.22,0.0,0.0,0.0,0.5886,-0.1453842114600421,9.864837894269979
300000000.0,22.22,0.0,0.0,0.0,0.5886,-0.15696,9.835505965037159
305000000.0,22.22,0.0,0.0,0.0,0.5809481881514819,-0.15696,9.777234564454446
310000000.0,22.22,0.0,0.0,0.0,0.572707806021378,-0.16068780602137805,9.756241224085512
315000000.0,22.22,0.0,0.0,0.0,0.5860494122369941,-0.16677,9.802348236710984
320000000.0,22.22,0.0,0.0,0.0,0.59841,-0.1561751813531518,9.850024818646848
325000000.0,22.22,0.0,0.0,0.0,0.6018435063127351,-0.14764051893820518,9.85512597474906
330000000.0,22.22,0.0,0.0,0.0,0.6015491871802918,-0.16009918718029187,9.809607561540876
335000000.0,22.22,0.0,0.0,0.0,0.5950746130139462,-0.15038730650697307,9.767522693493026
340000000.0,22.22,0.0,0.0,0.0,0.60822,-0.1632384132081841,9.77664603302046
345000000.0,22.22,0.0,0.0,0.0,0.6051788932987889,-0.1644155731951557,9.825205533506056
350000000.0,22.22,0.0,0.0,0.0,0.5925239864033399,-0.14028300679833006,9.85022097960501
355000000.0,22.22,0.0,0.0,0.0,0.57879,-0.14430509310455092,9.821085279313653
360000000.0,22.22,0.0,0.0,0.0,0.581536806992568,-0.14008680699256806,9.80019
365000000.0,22.22,0.0,0.0,0.0,0.5859512929103129,-0.14979870708968707,9.786946464551566
370000000.0,22.22,0.0,0.0,0.0,0.5813406071868061,-0.1544093928131939,9.76389303593403
375000000.0,22.22,0.0,0.0,0.0,0.5861474927160749,-0.14960250728392507,9.807547521851776
380000000.0,22.22,0.0,0.0,0.0,0.5834988147620882,-0.15696,9.834328814762088
385000000.0,22.22,0.0,0.0,0.0,0.5961536925218369,-0.15696,9.837958462609185
390000000.0,22.22,0.0,0.0,0.0,0.5886,-0.15264358484943583,9.791557169698873
395000000.0,22.22,0.0,0.0,0.0,0.5886,-0.13734,9.767130323017202
400000000.0,22.22,0.0,0.0,0.0,0.5886,-0.13930200776952006,9.79822803107808
405000000.0,22.22,0.0,0.0,0.0,0.5886,-0.14901390786663907,9.837075631466556
410000000.0,22.22,0.0,0.0,0.0,0.5886,-0.15872580796375807,9.863562576108725
415000000.0,22.22,0.0,0.0,0.0,0.5886,-0.16677,9.832759167756493
420000000.0,22.22,0.0,0.0,0.0,0.5886,-0.1652003918420039,9.793911567368015
425000000.0,22.22,0.0,0.0,0.0,0.5886,-0.15401698348976983,9.768307541275576
430000000.0,22.22,0.0,0.0,0.0,0.5886,-0.13871340835223409,9.814120225056703
435000000.0,22.22,0.0,0.0,0.0,0.5886,-0.14715,9.840705308449353
440000000.0,22.22,0.0,0.0,0.0,0.5886,-0.14950441709294418,9.840999540174696
445000000.0,22.22,0.0,0.0,0.0,0.5907582172871821,-0.1678491086435911,9.776253565425636
450000000.0,22.22,0.0,0.0,0.0,0.6052769737778697,-0.1736369737778697,9.74917806992568
455000000.0,22.22,0.0,0.0,0.0,0.5814387265134873,-0.14715,9.822458726513487
460000000.0,22.22,0.0,0.0,0.0,0.60822,-0.14715,9.84924
465000000.0,22.22,0.0,0.0,0.0,0.6075332909679328,-0.14715,9.843059618711397
470000000.0,22.22,0.0,0.0,0.0,0.5972327817416279,-0.1483272182583722,9.759772781741628
475000000.0,22.22,0.0,0.0,0.0,0.57879,-0.16627949077369492,9.744763564584135
480000000.0,22.22,0.0,0.0,0.0,0.5799672279702723,-0.15656759067657589,9.81274686526397
485000000.0,22.22,0.0,0.0,0.0,0.60822,-0.1477386188410862,9.878081381158914
490000000.0,22.22,0.0,0.0,0.0,0.6078275809646758,-0.16677,9.857480323858702
495000000.0,22.22,0.0,0.0,0.0,0.5886981096147811,-0.1668681096147811,9.780177561540876
500000000.0,22.22,0.0,0.0,0.0,0.5984099805761998,-0.1765799708642997,9.7413300388476
505000000.0,22.22,0.0,0.0,0.0,0.5789861803819618,-0.1474442705729427,9.780177639236078
510000000.0,22.22,0.0,0.0,0.0,0.5884038099061382,-0.14715,9.857480479249105
515000000.0,22.22,0.0,0.0,0.0,0.5886,-0.15666571000325707,9.840018579993487
520000000.0,22.22,0.0,0.0,0.0,0.5697647797992479,-0.1663776101003761,9.79234194949812
525000000.0,22.22,0.0,0.0,0.0,0.56898,-0.1481309796050098,9.753101959210019
530000000.0,22.22,0.0,0.0,0.0,0.5874228205892282,-0.14715,9.788025641178457
535000000.0,22.22,0.0,0.0,0.0,0.5886,-0.1562733103917331,9.8177499311752
540000000.0,22.22,0.0,0.0,0.0,0.5705495790222959,-0.13890957902229578,9.837860420977705
545000000.0,22.22,0.0,0.0,0.0,0.5868342211719422,-0.1551942211719422,9.812648668242087
550000000.0,22.22,0.0,0.0,0.0,0.5709419786338198,-0.13930197863381977,9.757025935901458
555000000.0,22.22,0.0,0.0,0.0,0.5864418215604182,-0.17226364312083642,9.794794553901045
560000000.0,22.22,0.0,0.0,0.0,0.5886,-0.14204875649068754,9.84335405438664
565000000.0,22.22,0.0,0.0,0.0,0.5886,-0.16294413292334134,9.823635867076659
570000000.0,22.22,0.0,0.0,0.0,0.5886,-0.14989677785686778,9.769190333570602
575000000.0,22.22,0.0,0.0,0.0,0.5969385111686851,-0.12213446649394467,9.77762702233737
580000000.0,22.22,0.0,0.0,0.0,0.5901695887341959,-0.15068164506321644,9.813531645063216
585000000.0,22.22,0.0,0.0,0.0,0.5886,-0.1651023113629231,9.860521556814616
590000000.0,22.22,0.0,0.0,0.0,0.5966442114600421,-0.16677,9.82863894269979
595000000.0,22.22,0.0,0.0,0.0,0.5904638884428389,-0.15882388844283887,9.795971665328517
600000000.0,22.22,0.0,0.0,0.0,0.5964480116542801,-0.14911198834571987,9.77468397669144
605000000.0,22.22,0.0,0.0,0.0,0.59841,-0.13940008824860087,9.77076
610000000.0,22.22,0.0,0.0,0.0,0.59841,-0.10673275260592753,9.831974494788145
615000000.0,22.22,0.0,0.0,0.0,0.5833025761087258,-0.1358685597281856,9.87190113583691
620000000.0,22.22,0.0,0.0,0.0,0.57879,-0.14715,9.833936327743464
625000000.0,22.22,0.0,0.0,0.0,0.5935050242797503,-0.16186502427975025,9.812452487860126
630000000.0,22.22,0.0,0.0,0.0,0.5911505877630059,-0.14499176328901764,9.788221763289018
635000000.0,22.22,0.0,0.0,0.0,0.5886,-0.13734,9.794892624668227
640000000.0,22.22,0.0,0.0,0.0,0.5886,-0.15852963729369637,9.82844284972493
645000000.0,22.22,0.0,0.0,0.0,0.5955651125283511,-0.15283977494329776,9.818534662414947
650000000.0,22.22,0.0,0.0,0.0,0.59841,-0.16088402525094025,9.81686701262547
655000000.0,22.22,0.0,0.0,0.0,0.5916410872774108,-0.1464632618322326,9.81981
660000000.0,22.22,0.0,0.0,0.0,0.5819291871802919,-0.1573524384591244,9.793126748721168
665000000.0,22.22,0.0,0.0,0.0,0.5919354258336542,-0.16019728708317285,9.78057
670000000.0,22.22,0.0,0.0,0.0,0.5919353869860539,-0.15048538698605388,9.793519226027893
675000000.0,22.22,0.0,0.0,0.0,0.5949765131110651,-0.1662795393331954,9.844825591777456
680000000.0,22.22,0.0,0.0,0.0,0.6046884132081841,-0.1577447603754476,9.86886
685000000.0,22.22,0.0,0.0,0.0,0.5834987467787874,-0.15333031330530314,9.825597806862879
690000000.0,22.22,0.0,0.0,0.0,0.5811444268048442,-0.16304221340242214,9.757614506183046
695000000.0,22.22,0.0,0.0,0.0,0.5945841134995411,-0.15480177300091774,9.761440567497706
700000000.0,22.22,0.0,0.0,0.0,0.5925239864033399,-0.14715,9.821772095176621
705000000.0,22.22,0.0,0.0,0.0,0.6001758273875583,-0.15872582738755828,9.866603741081336
710000000.0,22.22,0.0,0.0,0.0,0.5968403724182038,-0.16108018620910186,9.844531117254611
715000000.0,22.22,0.0,0.0,0.0,0.5886,-0.15136828611198286,9.775076288895862
720000000.0,22.22,0.0,0.0,0.0,0.5940936139851362,-0.14715,9.768798069925682
725000000.0,22.22,0.0,0.0,0.0,0.59841,-0.15254551408225514,9.838939626740297
730000000.0,22.22,0.0,0.0,0.0,0.6090048283587484,-0.16225741417937414,9.873372585820626
735000000.0,22.22,0.0,0.0,0.0,0.6076313714470137,-0.15117205717052057,9.832464800064548
740000000.0,22.22,0.0,0.0,0.0,0.5933087856263879,-0.14754242874722429,9.764481499384715
745000000.0,22.22,0.0,0.0,0.0,0.5886,-0.15195688552926884,9.746529343412194
750000000.0,22.22,0.0,0.0,0.0,0.5886,-0.14224498543214986,9.790380087407101
755000000.0,22.22,0.0,0.0,0.0,0.5934069146649692,-0.14214691466496915,9.858265317319754
760000000.0,22.22,0.0,0.0,0.0,0.5937011852379118,-0.15185881476208815,9.865328296665382
765000000.0,22.22,0.0,0.0,0.0,0.5932107148592072,-0.16157071485920715,9.792734281126343
770000000.0,22.22,0.0,0.0,0.0,0.59841,-0.16225738504367385,9.755652614956325
775000000.0,22.22,0.0,0.0,0.0,0.5939954849465549,-0.15254548494655484,9.78743709032067
780000000.0,22.22,0.0,0.0,0.0,0.5972328303011283,-0.1557828303011283,9.828442830301128
785000000.0,22.22,0.0,0.0,0.0,0.5955650542569505,-0.15411505425695055,9.830993369504634
790000000.0,22.22,0.0,0.0,0.0,0.5829102153448021,-0.14146021534480216,9.803329138620793
795000000.0,22.22,0.0,0.0,0.0,0.5886,-0.15519423088384232,9.78057
800000000.0,22.22,0.0,0.0,0.0,0.5846759844609598,-0.16284598446095985,9.79234204661712
805000000.0,22.22,0.0,0.0,0.0,0.5749640843638408,-0.15696,9.817651831272318
810000000.0,22.22,0.0,0.0,0.0,0.5838912629331127,-0.15696,9.822164368533445
815000000.0,22.22,0.0,0.0,0.0,0.6009605683392056,-0.14970056833920567,9.806370284169603
820000000.0,22.22,0.0,0.0,0.0,0.5921316159275162,-0.14087161592751615,9.796658384072485
825000000.0,22.22,0.0,0.0,0.0,0.5915429679507297,-0.1574505480739055,9.79724703204927
830000000.0,22.22,0.0,0.0,0.0,0.5821254161217542,-0.16990916775649167,9.813335416121754
835000000.0,22.22,0.0,0.0,0.0,0.5983119486566195,-0.15696,9.816572683781127
840000000.0,22.22,0.0,0.0,0.0,0.6086123510520236,-0.15068156736801566,9.803721567368017
845000000.0,22.22,0.0,0.0,0.0,0.5855588835868889,-0.14342223282622232,9.799503349239334
850000000.0,22.22,0.0,0.0,0.0,0.57879,-0.15696,9.81981
855000000.0,22.22,0.0,0.0,0.0,0.5844798332146983,-0.15696,9.81981
860000000.0,22.22,0.0,0.0,0.0,0.5929163665910637,-0.16245363340893632,9.81981
865000000.0,22.22,0.0,0.0,0.0,0.5867361504047616,-0.16598513279365132,9.817161283198413
870000000.0,22.22,0.0,0.0,0.0,0.6005681493038815,-0.1449918506961185,9.804898766202589
875000000.0,22.22,0.0,0.0,0.0,0.57879,-0.16677,9.79528503399165
880000000.0,22.22,0.0,0.0,0.0,0.5811444170929442,-0.1597067487211675,9.81
885000000.0,22.22,0.0,0.0,0.0,0.5818310484298105,-0.13959631719006316,9.81676895157019
890000000.0,22.22,0.0,0.0,0.0,0.5656446518615466,-0.14930821728718216,9.835113565425635
895000000.0,22.22,0.0,0.0,0.0,0.5886,-0.16108023476860234,9.803329060925591
900000000.0,22.22,0.0,0.0,0.0,0.5866379825185798,-0.17069394755573947,9.74917806992568
905000000.0,22.22,0.0,0.0,0.0,0.57879,-0.14901391757853918,9.786161752735618
910000000.0,22.22,0.0,0.0,0.0,0.5805558176756582,-0.15696,9.81882908837829
915000000.0,22.22,0.0,0.0,0.0,0.5886,-0.15862771777277718,9.85905
920000000.0,22.22,0.0,0.0,0.0,0.5886,-0.16520038213010382,9.848062674910727
925000000.0,22.22,0.0,0.0,0.0,0.5915430359340303,-0.15696,9.785965446098954
930000000.0,22.22,0.0,0.0,0.0,0.6040997458075974,-0.1555865819358658,9.765070254192402
935000000.0,22.22,0.0,0.0,0.0,0.5826159544837596,-0.14715,9.79803190896752
940000000.0,22.22,0.0,0.0,0.0,0.6046883452248835,-0.14950443651674436,9.850417218258372
945000000.0,22.22,0.0,0.0,0.0,0.57879,-0.16353264493352646,9.853654408222544
950000000.0,22.22,0.0,0.0,0.0,0.5797710184526103,-0.14028305535783053,9.80705694464217
955000000.0,22.22,0.0,0.0,0.0,0.5868341629005417,-0.16500416290054162,9.78145291854973
960000000.0,22.22,0.0,0.0,0.0,0.5705496372936965,-0.14793481864684818,9.792734455940545
965000000.0,22.22,0.0,0.0,0.0,0.5886,-0.15696,9.821870156231903
970000000.0,22.22,0.0,0.0,0.0,0.5880113811589138,-0.1563713811589138,9.846296905794569
975000000.0,22.22,0.0,0.0,0.0,0.5792805189382052,-0.14764051893820518,9.798227924247179
980000000.0,22.22,0.0,0.0,0.0,0.5882075809646758,-0.1565675809646758,9.762127257105972
985000000.0,22.22,0.0,0.0,0.0,0.5790843191324432,-0.1477386382648864,9.790968638264888
990000000.0,22.22,0.0,0.0,0.0,0.5887962192295622,-0.16637756154087563,9.81078487691825
995000000.0,22.22,0.0,0.0,0.0,0.59841,-0.1470518806733188,9.849043761346637
1000000000.0,22.22,0.0,0.0,0.0,0.5984099805761998,-0.1373400194238002,9.8296199417286
1005000000.0,22.22,0.0,0.0,0.0,0.5886980804790808,-0.1470519195209192,9.800484241437243
1010000000.0,22.22,0.0,0.0,0.0,0.5789861803819618,-0.14715,9.780962360763924
1015000000.0,22.22,0.0,0.0,0.0,0.5883057197151572,-0.1281185605696856,9.790085719715158
1020000000.0,22.22,0.0,0.0,0.0,0.5791823801877238,-0.1652004792491048,9.846885718873658
1025000000.0,22.22,0.0,0.0,0.0,0.57879,-0.1574504800906048,9.84924
1030000000.0,22.22,0.0,0.0,0.0,0.5880114200065142,-0.1477385799934858,9.812354319973943
1035000000.0,22.22,0.0,0.0,0.0,0.5886,-0.17451996031089959,9.764383399481833
1040000000.0,22.22,0.0,0.0,0.0,0.5795747797992479,-0.1495043393977434,9.788025660602257
1045000000.0,22.22,0.0,0.0,0.0,0.6055713608936136,-0.15607712029787119,9.843942721787228
1050000000.0,22.22,0.0,0.0,0.0,0.60822,-0.15696,9.84924
1055000000.0,22.22,0.0,0.0,0.0,0.5994890795078908,-0.15696,9.805585397539454
1060000000.0,22.22,0.0,0.0,0.0,0.5897771794107718,-0.15696,9.791557179410773
1065000000.0,22.22,0.0,0.0,0.0,0.5971347206863472,-0.1740294413726944,9.807449441372695
1070000000.0,22.22,0.0,0.0,0.0,0.59841,-0.14283351686613516,9.826873241566933
1075000000.0,22.22,0.0,0.0,0.0,0.6067485208805852,-0.14567852088058522,9.81294295823883
1080000000.0,22.22,0.0,0.0,0.0,0.5834987370668874,-0.1553904209777042,9.818240420977705
1085000000.0,22.22,0.0,0.0,0.0,0.5869323210748232,-0.15696,9.811667678925177
1090000000.0,22.22,0.0,0.0,0.0,0.5805557788280579,-0.14087155765611556,9.826088442343885
1095000000.0,22.22,0.0,0.0,0.0,0.5946822425381224,-0.15323224253812243,9.813727757461878
1100000000.0,22.22,0.0,0.0,0.0,0.5905619786338198,-0.16480802136618022,9.79430395726764
1105000000.0,22.22,0.0,0.0,0.0,0.5886,-0.14352023561010235,9.7981299214633
1110000000.0,22.22,0.0,0.0,0.0,0.5809481784395818,-0.1449918215604182,9.80784182156042
1115000000.0,22.22,0.0,0.0,0.0,0.6014511649726116,-0.16225744331507444,9.825107443315074
1120000000.0,22.22,0.0,0.0,0.0,0.60822,-0.16677,9.814708756490688
1125000000.0,22.22,0.0,0.0,0.0,0.60822,-0.1741275218517752,9.81
1130000000.0,22.22,0.0,0.0,0.0,0.5937011561022115,-0.16206115610221156,9.788221734153318
1135000000.0,22.22,0.0,0.0,0.0,0.6029226440920264,-0.1641213220460132,9.809215288184053
1140000000.0,22.22,0.0,0.0,0.0,0.5799671114274711,-0.15970677785686777,9.81981
1145000000.0,22.22,0.0,0.0,0.0,0.5759451222402513,-0.1290995110389951,9.805879755519499
1150000000.0,22.22,0.0,0.0,0.0,0.5856570223373703,-0.15205511168685112,9.807057022337371
1155000000.0,22.22,0.0,0.0,0.0,0.5953689224344892,-0.16000107756551077,9.81676892243449
1160000000.0,22.22,0.0,0.0,0.0,0.5917391774683918,-0.17030164506321643,9.813139177468392
1165000000.0,22.22,0.0,0.0,0.0,0.5820272773712728,-0.15686183211381832,9.816572722628727
1170000000.0,22.22,0.0,0.0,0.0,0.5982138681775386,-0.14715,9.800386131822462
1175000000.0,22.22,0.0,0.0,0.0,0.5954669543540696,-0.15352652282296522,9.796756522822966
1180000000.0,22.22,0.0,0.0,0.0,0.5948784229200842,-0.15696,9.806468422920085
1185000000.0,22.22,0.0,0.0,0.0,0.59841,-0.16314032301720321,9.82854096905161
1190000000.0,22.22,0.0,0.0,0.0,0.5862455537713556,-0.14244110754271108,9.821183330657034
1195000000.0,22.22,0.0,0.0,0.0,0.5967423696343237,-0.15745061605720614,9.81
1200000000.0,22.22,0.0,0.0,0.0,0.5964479533828795,-0.1589219300743193,9.81
1205000000.0,22.22,0.0,0.0,0.0,0.5943879234056793,-0.14715,9.786848306377284
1210000000.0,22.22,0.0,0.0,0.0,0.5927201764972018,-0.14715,9.787829470508395
1215000000.0,22.22,0.0,0.0,0.0,0.5997834471998345,-0.13596655280016554,9.816965170799753
1220000000.0,22.22,0.0,0.0,0.0,0.5972327526059276,-0.12753,9.835113623697037
1225000000.0,22.22,0.0,0.0,0.0,0.5832044762058448,-0.1437165713824657,9.823243428617534
1230000000.0,22.22,0.0,0.0,0.0,0.57879,-0.15166257610872574,9.799405152217453
1235000000.0,22.22,0.0,0.0,0.0,0.5839893239883932,-0.15234932398839324,9.800778647976786
1240000000.0,22.22,0.0,0.0,0.0,0.5886,-0.15185877591448776,9.815101224085513
1245000000.0,22.22,0.0,0.0,0.0,0.5785937516347376,-0.15215312418263124,9.81480687581737
1250000000.0,22.22,0.0,0.0,0.0,0.5836950728392507,-0.16677004855950048,9.81
1255000000.0,22.22,0.0,0.0,0.0,0.5887961512462615,-0.17177307562313074,9.81
1260000000.0,22.22,0.0,0.0,0.0,0.5929164734219647,-0.15264352657803526,9.800582351052023
1265000000.0,22.22,0.0,0.0,0.0,0.5989985508577855,-0.15117217371332173,9.80882289828443
1270000000.0,22.22,0.0,0.0,0.0,0.5886,-0.1577447506635475,9.820594750663547
1275000000.0,22.22,0.0,0.0,0.0,0.5930145247653452,-0.1383209504693095,9.814414524765345
1280000000.0,22.22,0.0,0.0,0.0,0.5854607254126073,-0.14479569944985698,9.802544300550144
1285000000.0,22.22,0.0,0.0,0.0,0.5731983249595833,-0.15411502512125025,9.797443299838333
1290000000.0,22.22,0.0,0.0,0.0,0.5705495498865956,-0.13734,9.811569549886595
1295000000.0,22.22,0.0,0.0,0.0,0.5672142503076425,-0.15342850061528499,9.808234250307644
1300000000.0,22.22,0.0,0.0,0.0,0.57879,-0.16480792424717924,9.81196194949812
1305000000.0,22.22,0.0,0.0,0.0,0.5749640746519408,-0.15097592534805926,9.80401592534806
1310000000.0,22.22,0.0,0.0,0.0,0.5764356508903565,-0.15323217455482174,9.81
1315000000.0,22.22,0.0,0.0,0.0,0.5849702744577028,-0.15077972554229727,9.813629725542297
1320000000.0,22.22,0.0,0.0,0.0,0.5858532512788325,-0.15342837436058374,9.816278374360584
1325000000.0,22.22,0.0,0.0,0.0,0.6018435257365352,-0.15058352573653525,9.81
1330000000.0,22.22,0.0,0.0,0.0,0.6015491483326915,-0.16029542583365425,9.81
1335000000.0,22.22,0.0,0.0,0.0,0.5886,-0.16029534813845348,9.803525348138454
1340000000.0,22.22,0.0,0.0,0.0,0.5823215479442155,-0.14715,9.799797678083678
1345000000.0,22.22,0.0,0.0,0.0,0.56898,-0.1380266216249662,9.81676887387499
1350000000.0,22.22,0.0,0.0,0.0,0.5748660524442606,-0.12066302622213027,9.80705697377787
1355000000.0,22.22,0.0,0.0,0.0,0.5857550736807507,-0.1360647789577478,9.803034926319249
1360000000.0,22.22,0.0,0.0,0.0,0.5815368264163683,-0.15696,9.807253173583632
1365000000.0,22.22,0.0,0.0,0.0,0.5859512734865128,-0.15431127348651272,9.813433632567437
1370000000.0,22.22,0.0,0.0,0.0,0.5813406266106063,-0.14970062661060626,9.841588120168181
1375000000.0,22.22,0.0,0.0,0.0,0.5836949465845495,-0.15205494658454946,9.817357473292276
1380000000.0,22.22,0.0,0.0,0.0,0.5736888536096886,-0.13969442680484426,9.800582292780623
1385000000.0,22.22,0.0,0.0,0.0,0.5886,-0.14940632690196326,9.779785307607852
1390000000.0,22.22,0.0,0.0,0.0,0.5929164539981645,-0.15911822699908226,9.814316453998165
1395000000.0,22.22,0.0,0.0,0.0,0.6061598729037987,-0.16677,9.8316801270962
1400000000.0,22.22,0.0,0.0,0.0,0.5925239184200392,-0.16088391842003918,9.83354391842004
1405000000.0,22.22,0.0,0.0,0.0,0.5764357091617571,-0.13920392729043926,9.800680363547803
1410000000.0,22.22,0.0,0.0,0.0,0.6064541726124417,-0.14538417261244171,9.76095
1415000000.0,22.22,0.0,0.0,0.0,0.6000777274846772,-0.13734,9.775959547362095
1420000000.0,22.22,0.0,0.0,0.0,0.6066503724182037,-0.1436185103271851,9.852379255163592
1425000000.0,22.22,0.0,0.0,0.0,0.5954669446421694,-0.17216541696325416,9.860030833926508
1430000000.0,22.22,0.0,0.0,0.0,0.5801634277760344,-0.14852342777603428,9.797639150015693
1435000000.0,22.22,0.0,0.0,0.0,0.5886,-0.15696,9.729361967238919
1440000000.0,22.22,0.0,0.0,0.0,0.5897772279702723,-0.15460554405945542,9.786456139851362
1445000000.0,22.22,0.0,0.0,0.0,0.5994891280673913,-0.13734,9.831778256134783
1450000000.0,22.22,0.0,0.0,0.0,0.6072389718354897,-0.13734,9.84629691550647
1455000000.0,22.22,0.0,0.0,0.0,0.5992929282616293,-0.13910585652325855,9.813629502168595
1460000000.0,22.22,0.0,0.0,0.0,0.60822,-0.15696,9.751924828358748
1465000000.0,22.22,0.0,0.0,0.0,0.6061598146323981,-0.15764672845586727,9.764383642279336
1470000000.0,22.22,0.0,0.0,0.0,0.5793786285529863,-0.16382685723506857,9.812354514211945
1475000000.0,22.22,0.0,0.0,0.0,0.5881094713498948,-0.11919158595031587,9.846787356749473
1480000000.0,22.22,0.0,0.0,0.0,0.5795748574944486,-0.14715,9.799797571252777
1485000000.0,22.22,0.0,0.0,0.0,0.5981156711556567,-0.14656134231131343,9.79038
1490000000.0,22.22,0.0,0.0,0.0,0.5889924578829245,-0.1277262289414623,9.791361144707313
1495000000.0,22.22,0.0,0.0,0.0,0.6080237419228374,-0.13753625807716258,9.83943
1500000000.0,22.22,0.0,0.0,0.0,0.5885999708642997,-0.15696,9.839429825185798
1505000000.0,22.22,0.0,0.0,0.0,0.5788880707671807,-0.15696,9.781158424603085
1510000000.0,22.22,0.0,0.0,0.0,0.57879,-0.15696,9.78057
1515000000.0,22.22,0.0,0.0,0.0,0.5883057294270573,-0.1474442705729427,9.790085729427059
1520000000.0,22.22,0.0,0.0,0.0,0.6074352590483526,-0.15656762952417627,9.846885777145058
1525000000.0,22.22,0.0,0.0,0.0,0.5895809407574094,-0.1662795296212953,9.839920470378704
1530000000.0,22.22,0.0,0.0,0.0,0.5886,-0.1575485702815857,9.802544281126343
1535000000.0,22.22,0.0,0.0,0.0,0.5886,-0.1660833298155333,9.763696680737866
1540000000.0,22.22,0.0,0.0,0.0,0.5976252299126523,-0.1396943102620431,9.779000459825305
1545000000.0,22.22,0.0,0.0,0.0,0.5894828699902287,-0.1641213900293139,9.85198704007817
1550000000.0,22.22,0.0,0.0,0.0,0.5621129096793291,-0.15794096989310968,9.823733879572439
1555000000.0,22.22,0.0,0.0,0.0,0.5766318604080186,-0.1744218604080186,9.837271860408018
1560000000.0,22.22,0.0,0.0,0.0,0.57879,-0.14204867879548677,9.79626584849436
1565000000.0,22.22,0.0,0.0,0.0,0.57879,-0.1458747303982473,9.815984191194742
1570000000.0,22.22,0.0,0.0,0.0,0.5872266304953663,-0.1302767390092674,9.81981
1575000000.0,22.22,0.0,0.0,0.0,0.5719229388150294,-0.1358685305924853,9.811471469407515
1580000000.0,22.22,0.0,0.0,0.0,0.593701292068813,-0.1455804306896043,9.801759569310397
1585000000.0,22.22,0.0,0.0,0.0,0.6065523307867233,-0.13900766921327667,9.783905338426555
1590000000.0,22.22,0.0,0.0,0.0,0.5921315382323153,-0.16147269265152692,9.85296807795458
1595000000.0,22.22,0.0,0.0,0.0,0.5806538690190387,-0.15087773803807739,9.852967738038076
1600000000.0,22.22,0.0,0.0,0.0,0.57879,-0.14715,9.825695906765759
1605000000.0,22.22,0.0,0.0,0.0,0.5632901376496015,-0.1394000688248007,9.788810275299204
1610000000.0,22.22,0.0,0.0,0.0,0.5668218312723183,-0.14499183127231832,9.788221831272319
1615000000.0,22.22,0.0,0.0,0.0,0.5765337313694373,-0.13959626863056268,9.805487462738876
1620000000.0,22.22,0.0,0.0,0.0,0.5937012629331127,-0.12988436853344368,9.824911262933114
1625000000.0,22.22,0.0,0.0,0.0,0.5910524684363246,-0.14224506312735063,9.814904936872649
1630000000.0,22.22,0.0,0.0,0.0,0.5813405683392057,-0.15440943166079432,9.773702841696029
1635000000.0,22.22,0.0,0.0,0.0,0.57879,-0.14263733648417334,9.796756658789567
1640000000.0,22.22,0.0,0.0,0.0,0.5999796955650969,-0.15852969556509694,9.81
1645000000.0,22.22,0.0,0.0,0.0,0.6012548680478487,-0.15283973609569737,9.81
1650000000.0,22.22,0.0,0.0,0.0,0.59841,-0.14715,9.80313296795073
1655000000.0,22.22,0.0,0.0,0.0,0.5781032035608321,-0.14715,9.786652135707222
1660000000.0,22.22,0.0,0.0,0.0,0.5956633289740333,-0.15382083224350832,9.800582496730526
1665000000.0,22.22,0.0,0.0,0.0,0.60822,-0.15696,9.823145464681255
1670000000.0,22.22,0.0,0.0,0.0,0.5823214702490147,-0.15696,9.82962
1675000000.0,22.22,0.0,0.0,0.0,0.5753565325348654,-0.15696,9.797737337325675
1680000000.0,22.22,0.0,0.0,0.0,0.5850684326319844,-0.15068156736801566,9.78057
1685000000.0,22.22,0.0,0.0,0.0,0.5886,-0.13478933454179334,9.805291330916415
1690000000.0,22.22,0.0,0.0,0.0,0.5946822328262223,-0.13969446565244467,9.81981
1695000000.0,22.22,0.0,0.0,0.0,0.59841,-0.15911826584668265,9.81981
1700000000.0,22.22,0.0,0.0,0.0,0.6042960330204603,-0.15499793395907935,9.80803793395908
1705000000.0,22.22,0.0,0.0,0.0,0.5966441337648414,-0.14715,9.788614133764842
1710000000.0,22.22,0.0,0.0,0.0,0.5886,-0.14715,9.809019166073492
1715000000.0,22.22,0.0,0.0,0.0,0.5997834666236347,-0.14155826668818267,9.835211733311818
1720000000.0,22.22,0.0,0.0,0.0,0.5917390997731911,-0.13734,9.822949099773192
1725000000.0,22.22,0.0,0.0,0.0,0.5841855335060554,-0.14273553350605533,9.793813399481834
1730000000.0,22.22,0.0,0.0,0.0,0.5780051327936514,-0.15774486720634867,9.807057168015872
1735000000.0,22.22,0.0,0.0,0.0,0.58457800110088,-0.15637133259941333,9.819221332599414
1740000000.0,22.22,0.0,0.0,0.0,0.5933087662025877,-0.15735246759482469,9.825303701392237
1745000000.0,22.22,0.0,0.0,0.0,0.5936031338945313,-0.16677,9.809411196632812
1750000000.0,22.22,0.0,0.0,0.0,0.5885999320166994,-0.16186496600834965,9.790380067983302
1755000000.0,22.22,0.0,0.0,0.0,0.57879,-0.15696,9.80499693408877
1760000000.0,22.22,0.0,0.0,0.0,0.5882076683717767,-0.16166883418588834,9.828835336743554
1765000000.0,22.22,0.0,0.0,0.0,0.5937992657169927,-0.1575485314339853,9.83079706286797
1770000000.0,22.22,0.0,0.0,0.0,0.5886,-0.1561752687602527,9.819025268760253
1775000000.0,22.22,0.0,0.0,0.0,0.5797709310455094,-0.16677,9.825205465522755
1780000000.0,22.22,0.0,0.0,0.0,0.5732964345743644,-0.15382069627690695,9.806860696276907
1785000000.0,22.22,0.0,0.0,0.0,0.57879,-0.15421333868593337,9.811471673357417
1790000000.0,22.22,0.0,0.0,0.0,0.5870304695372047,-0.17245976523139764,9.827069295694193
1795000000.0,22.22,0.0,0.0,0.0,0.5903657302685573,-0.16677,9.81
1800000000.0,22.22,0.0,0.0,0.0,0.5866380699256807,-0.16284596503715965,9.813924034962842
1805000000.0,22.22,0.0,0.0,0.0,0.5945840649400407,-0.15313406494004064,9.812158129880082
1810000000.0,22.22,0.0,0.0,0.0,0.5886,-0.1396943296858433,9.80391783515708
1815000000.0,22.22,0.0,0.0,0.0,0.5958594705083947,-0.14204894101678942,9.802740529491606
1820000000.0,22.22,0.0,0.0,0.0,0.5976250939460509,-0.14911182324341823,9.79038
1825000000.0,22.22,0.0,0.0,0.0,0.57879,-0.13145414179374143,9.807547677242177
1830000000.0,22.22,0.0,0.0,0.0,0.5854608710911088,-0.15696,9.826088257817784
1835000000.0,22.22,0.0,0.0,0.0,0.59841,-0.15696,9.80019
1840000000.0,22.22,0.0,0.0,0.0,0.6015492357397924,-0.15382076426020763,9.797050764260208
1845000000.0,22.22,0.0,0.0,0.0,0.5990965924892659,-0.14410886416308863,9.78733886416309
1850000000.0,22.22,0.0,0.0,0.0,0.5817330359340304,-0.14616910780209108,9.792342143736121
1855000000.0,22.22,0.0,0.0,0.0,0.5829101279377013,-0.16677,9.828344808093448
1860000000.0,22.22,0.0,0.0,0.0,0.5772205083848051,-0.15852949161519492,9.840999491615195
1865000000.0,22.22,0.0,0.0,0.0,0.5957612637746127,-0.14528620867616207,9.81186379132384
1870000000.0,22.22,0.0,0.0,0.0,0.5860493636774936,-0.16421936367749362,9.785278727354987
1875000000.0,22.22,0.0,0.0,0.0,0.5812425364196254,-0.15696,9.785475218517751
1880000000.0,22.22,0.0,0.0,0.0,0.5909544365167444,-0.15460556348325563,9.831974436516745
1885000000.0,22.22,0.0,0.0,0.0,0.59841,-0.14940633661386338,9.828148316930683
1890000000.0,22.22,0.0,0.0,0.0,0.5919352898670529,-0.15911823671098235,9.79038
1895000000.0,22.22,0.0,0.0,0.0,0.5792806840405069,-0.16470986319189862,9.79038
1900000000.0,22.22,0.0,0.0,0.0,0.6101818523791186,-0.15499796309477962,9.802152221431323
1905000000.0,22.22,0.0,0.0,0.0,0.5731981889929819,-0.15087787400467875,9.852967874004678
1910000000.0,22.22,0.0,0.0,0.0,0.5528916741989168,-0.16500416290054162,9.85826497740325
1915000000.0,22.22,0.0,0.0,0.0,0.5706477371965775,-0.15696,9.801661314017114
1920000000.0,22.22,0.0,0.0,0.0,0.5834989118810892,-0.15539036270630363,9.762519637293696
1925000000.0,22.22,0.0,0.0,0.0,0.6052769252183693,-0.14862153739081538,9.784003836517337
1930000000.0,22.22,0.0,0.0,0.0,0.5913468749758688,-0.15558656251206562,9.860423437487935
1935000000.0,22.22,0.0,0.0,0.0,0.6056693248298932,-0.15097601275516012,9.86120797448968
1940000000.0,22.22,0.0,0.0,0.0,0.5862455246356553,-0.17304828695348287,9.801759336224794
1945000000.0,22.22,0.0,0.0,0.0,0.5700591377792914,-0.14715,9.743488275558583
1950000000.0,22.22,0.0,0.0,0.0,0.57879,-0.14715,9.767817265134871
1955000000.0,22.22,0.0,0.0,0.0,0.5805558759470588,-0.14979881392058814,9.833151751894118
1960000000.0,22.22,0.0,0.0,0.0,0.5991948380706483,-0.17344064771740647,9.863366133505462
1965000000.0,22.22,0.0,0.0,0.0,0.6061597854966978,-0.13734,9.796756309161164
1970000000.0,22.22,0.0,0.0,0.0,0.5793786382648864,-0.13851727652977275,9.754671829589318
1975000000.0,22.22,0.0,0.0,0.0,0.5881094616379946,-0.15696,9.811962153448022
1980000000.0,22.22,0.0,0.0,0.0,0.5791824384591244,-0.15578268462262684,9.848062684622628
1985000000.0,22.22,0.0,0.0,0.0,0.5883056614437566,-0.12841301566873017,9.81892698433127
1990000000.0,22.22,0.0,0.0,0.0,0.5791824773067248,-0.15715623865336237,9.790183761346638
1995000000.0,22.22,0.0,0.0,0.0,0.5982137224990373,-0.16677,9.780864416251445
2000000000.0,22.22,0.0,0.0,0.0,0.5787900388476004,-0.16676996115239962,9.810000155390401
2005000000.0,22.22,0.0,0.0,0.0,0.5885019389447194,-0.1570580610552806,9.848847755778877
2010000000.0,22.22,0.0,0.0,0.0,0.6078276780836768,-0.15696,9.858853839041839
2015000000.0,22.22,0.0,0.0,0.0,0.5891885217220852,-0.1379285217220852,9.782924086888341
2020000000.0,22.22,0.0,0.0,0.0,0.5791823607639236,-0.1467576392360764,9.761734721527846
2025000000.0,22.22,0.0,0.0,0.0,0.57879,-0.15646953933319538,9.788908617999587
2030000000.0,22.22,0.0,0.0,0.0,0.5972328788606288,-0.1385171211393712,9.836487197151571
2035000000.0,22.22,0.0,0.0,0.0,0.5801633209451332,-0.182956697637167,9.83943
2040000000.0,22.22,0.0,0.0,0.0,0.5968404792491048,-0.1502890415017904,9.812354281126343
2045000000.0,22.22,0.0,0.0,0.0,0.5894828602783286,-0.16500427944334278,9.756437161669972
2050000000.0,22.22,0.0,0.0,0.0,0.5709419203624192,-0.16677,9.795285199093952
2055000000.0,22.22,0.0,0.0,0.0,0.5777109399159094,-0.15803906008409058,9.826382819747728
2060000000.0,22.22,0.0,0.0,0.0,0.57879,-0.1396943199739432,9.855518520039086
2065000000.0,22.22,0.0,0.0,0.0,0.5958594802202948,-0.1458747401101474,9.816376299449264
2070000000.0,22.22,0.0,0.0,0.0,0.5731000793782008,-0.1555866402072664,9.793126719585468
2075000000.0,22.22,0.0,0.0,0.0,0.5856570806087709,-0.18197562091315622,9.807057080608772
2080000000.0,22.22,0.0,0.0,0.0,0.5803595595984956,-0.1781495595984956,9.81
2085000000.0,22.22,0.0,0.0,0.0,0.5950746809972468,-0.16029531900275318,9.81
2090000000.0,22.22,0.0,0.0,0.0,0.5823215188085152,-0.15696,9.801955759404258
2095000000.0,22.22,0.0,0.0,0.0,0.5867361406928614,-0.1490138593071386,9.816082281385723
2100000000.0,22.22,0.0,0.0,0.0,0.5964480407899804,-0.1549980407899804,9.835506081579961
2105000000.0,22.22,0.0,0.0,0.0,0.5829101182258012,-0.15696,9.800680295564504
2110000000.0,22.22,0.0,0.0,0.0,0.5711381590157816,-0.1646118409842184,9.79038
2115000000.0,22.22,0.0,0.0,0.0,0.5840874821626748,-0.14410877675598777,9.797933741081337
2120000000.0,22.22,0.0,0.0,0.0,0.6035112823569128,-0.12242871764308717,9.815101282356913
2125000000.0,22.22,0.0,0.0,0.0,0.571432293622123,-0.14715016510230164,9.81981
2130000000.0,22.22,0.0,0.0,0.0,0.5882077654907777,-0.14244111725461117,9.81981
2135000000.0,22.22,0.0,0.0,0.0,0.59841,-0.15166268293962681,9.805487317060374
2140000000.0,22.22,0.0,0.0,0.0,0.5842835168661352,-0.1640232415669324,9.807253241566933
2145000000.0,22.22,0.0,0.0,0.0,0.5857551416640514,-0.18070028332810284,9.816965141664053
2150000000.0,22.22,0.0,0.0,0.0,0.5954670417611704,-0.16578887471648873,9.81294295823883
2155000000.0,22.22,0.0,0.0,0.0,0.59841,-0.14342211628342116,9.81
2160000000.0,22.22,0.0,0.0,0.0,0.5917391580445915,-0.15068168391081682,9.796658316089184
2165000000.0,22.22,0.0,0.0,0.0,0.5886,-0.15038725794747257,9.810098226157583
2170000000.0,22.22,0.0,0.0,0.0,0.6015492842992929,-0.14715,9.826284642149647
2175000000.0,22.22,0.0,0.0,0.0,0.5890903732597037,-0.14715,9.82962
2180000000.0,22.22,0.0,0.0,0.0,0.57879,-0.14087155765611556,9.817063115312232
2185000000.0,22.22,0.0,0.0,0.0,0.5973310273230102,-0.1620613697640137,9.81
2190000000.0,22.22,0.0,0.0,0.0,0.5960555149237552,-0.16441551492375514,9.803917757461878
2195000000.0,22.22,0.0,0.0,0.0,0.5886,-0.15097585736475858,9.812158285270483
2200000000.0,22.22,0.0,0.0,0.0,0.6003720854647209,-0.14715,9.82569604273236
2205000000.0,22.22,0.0,0.0,0.0,0.5908561715115618,-0.13557411434104114,9.806468228682084
2210000000.0,22.22,0.0,0.0,0.0,0.5958595287797953,-0.13890968585319685,9.796069842926599
2215000000.0,22.22,0.0,0.0,0.0,0.5914447709288477,-0.14715,9.811373486047435
2220000000.0,22.22,0.0,0.0,0.0,0.5897772862416729,-0.13616271375832714,9.814316356879164
2225000000.0,22.22,0.0,0.0,0.0,0.5930144567820446,-0.14911217287182174,9.815395543217956
2230000000.0,22.22,0.0,0.0,0.0,0.5991948866301489,-0.17206744331507443,9.814512556684926
2235000000.0,22.22,0.0,0.0,0.0,0.6030206565878066,-0.16618131317561313,9.820398686824387
2240000000.0,22.22,0.0,0.0,0.0,0.5882075129813752,-0.14675751298137513,9.82962
2245000000.0,22.22,0.0,0.0,0.0,0.5887962872128629,-0.1523494308192943,9.819613712787138
2250000000.0,22.22,0.0,0.0,0.0,0.5836948688893487,-0.15695991259289913,9.8198100874071
2255000000.0,22.22,0.0,0.0,0.0,0.56898,-0.13753611239866112,9.83442694380067
2260000000.0,22.22,0.0,0.0,0.0,0.5831065316933653,-0.1416565316933653,9.830012312204424
2265000000.0,22.22,0.0,0.0,0.0,0.5845777680152777,-0.15234925600509255,9.824420743994908
2270000000.0,22.22,0.0,0.0,0.0,0.5825179322760794,-0.14715,9.820594711815948
2275000000.0,22.22,0.0,0.0,0.0,0.5939954558108546,-0.14715,9.792341823243419
2280000000.0,22.22,0.0,0.0,0.0,0.5929164442862644,-0.14715,9.792342221431323
2285000000.0,22.22,0.0,0.0,0.0,0.606846688766767,-0.15136834438338345,9.83246503315015
2290000000.0,22.22,0.0,0.0,0.0,0.6097895110389951,-0.15283975551949755,9.840999511038996
2295000000.0,22.22,0.0,0.0,0.0,0.59841,-0.14312785542237855,9.817553566267136
2300000000.0,22.22,0.0,0.0,0.0,0.6023340446747404,-0.14126404467474044,9.80411404467474
2305000000.0,22.22,0.0,0.0,0.0,0.5967421656844216,-0.1548018895437189,9.81
2310000000.0,22.22,0.0,0.0,0.0,0.5825178448689785,-0.16677,9.821183534606936
2315000000.0,22.22,0.0,0.0,0.0,0.5886,-0.16314025503390256,9.821281275169513
2320000000.0,22.22,0.0,0.0,0.0,0.5850683549367836,-0.16049164506321645,9.80097493518965
2325000000.0,22.22,0.0,0.0,0.0,0.5822235451603355,-0.14960227419832275,9.816376454839665
2330000000.0,22.22,0.0,0.0,0.0,0.5886,-0.1310617810298178,9.813335445257454
2335000000.0,22.22,0.0,0.0,0.0,0.5821253092908532,-0.15048530929085308,9.81981
2340000000.0,22.22,0.0,0.0,0.0,0.5815369818067698,-0.1436184909033849,9.826088490903386
2345000000.0,22.22,0.0,0.0,0.0,0.6021377089023771,-0.15696,9.81814198115832
2350000000.0,22.22,0.0,0.0,0.0,0.5886,-0.15107390870813908,9.782532182583722
2355000000.0,22.22,0.0,0.0,0.0,0.5914449457430495,-0.14587483722914837,9.81284494574305
2360000000.0,22.22,0.0,0.0,0.0,0.59841,-0.15578261663932616,9.825303691680338
2365000000.0,22.22,0.0,0.0,0.0,0.5878150162508502,-0.1407737296864373,9.831483762188137
2370000000.0,22.22,0.0,0.0,0.0,0.5668219381032195,-0.16637741586237415,9.797246769827968
2375000000.0,22.22,0.0,0.0,0.0,0.5910525461315255,-0.1422450922630509,9.76095
2380000000.0,22.22,0.0,0.0,0.0,0.5960555537713556,-0.15225110754271107,9.772722231143222
2385000000.0,22.22,0.0,0.0,0.0,0.5886,-0.13734,9.814512692651528
2390000000.0,22.22,0.0,0.0,0.0,0.5864417535771176,-0.13734,9.827461753577118
2395000000.0,22.22,0.0,0.0,0.0,0.582910293040003,-0.14146029304000293,9.813629560439995
2400000000.0,22.22,0.0,0.0,0.0,0.5944859067657591,-0.15499795338287953,9.79038
2405000000.0,22.22,0.0,0.0,0.0,0.57879,-0.1527418401427184,9.79783578685696
2410000000.0,22.22,0.0,0.0,0.0,0.5770241531886415,-0.16951661275456611,9.827854153188643
2415000000.0,22.22,0.0,0.0,0.0,0.5656445061830451,-0.13900774690847745,9.81981
2420000000.0,22.22,0.0,0.0,0.0,0.552499294011193,-0.14715,9.811961764972018
2425000000.0,22.22,0.0,0.0,0.0,0.5748661884108619,-0.15009309420543093,9.77370309420543
2430000000.0,22.22,0.0,0.0,0.0,0.6068465528001655,-0.16402310560033107,9.797247235999173
2435000000.0,22.22,0.0,0.0,0.0,0.5971346527030466,-0.14842534729695347,9.838154652703047
2440000000.0,22.22,0.0,0.0,0.0,0.5874227526059276,-0.15813724739407248,9.828442752605929
2445000000.0,22.22,0.0,0.0,0.0,0.57879,-0.16461170501761704,9.817651705017617
2450000000.0,22.22,0.0,0.0,0.0,0.57879,-0.14813104758831047,9.799208952411691
2455000000.0,22.22,0.0,0.0,0.0,0.5805558953708589,-0.15519410462914104,9.793911790741719
2460000000.0,22.22,0.0,0.0,0.0,0.5944857610872576,-0.13890969556509694,9.828835152217453
2465000000.0,22.22,0.0,0.0,0.0,0.5521069915186699,-0.15696,9.819123252120333
2470000000.0,22.22,0.0,0.0,0.0,0.5880113520232135,-0.1563713520232135,9.81
2475000000.0,22.22,0.0,0.0,0.0,0.579771096147811,-0.14813109614781098,9.810490548073906
2480000000.0,22.22,0.0,0.0,0.0,0.5988024481710245,-0.16520020731590207,9.81981
2485000000.0,22.22,0.0,0.0,0.0,0.607631303463713,-0.12811869653628696,9.819221303463713
2490000000.0,22.22,0.0,0.0,0.0,0.588207503269475,-0.14715,9.80019
2495000000.0,22.22,0.0,0.0,0.0,0.569176296924763,-0.1472481484623815,9.800484445387145
2500000000.0,22.22,0.0,0.0,0.0,0.5885999028809991,-0.15696004855950046,9.829619951440499
2505000000.0,22.22,0.0,0.0,0.0,0.5691761026867611,-0.1666719486566195,9.819908051343381
2510000000.0,22.22,0.0,0.0,0.0,0.56898,-0.14754230249252304,9.810196151246261
2515000000.0,22.22,0.0,0.0,0.0,0.5975272465525725,-0.16618149770171498,9.819515748850858
2520000000.0,22.22,0.0,0.0,0.0,0.59841,-0.11968175526011757,9.79155705315607
2525000000.0,22.22,0.0,0.0,0.0,0.6077295490450955,-0.13635909809019098,9.809019098090191
2530000000.0,22.22,0.0,0.0,0.0,0.5805556525733565,-0.15578289828442898,9.819221449142216
2535000000.0,22.22,0.0,0.0,0.0,0.5879133492393335,-0.1660833492393335,9.828933349239334
2540000000.0,22.22,0.0,0.0,0.0,0.5976252493364524,-0.15774475066354748,9.802544251990643
2545000000.0,22.22,0.0,0.0,0.0,0.59841,-0.1480328505664285,9.79126285056643
2550000000.0,22.22,0.0,0.0,0.0,0.5895809504693095,-0.1383209504693095,9.808038099061381
2555000000.0,22.22,0.0,0.0,0.0,0.5798690503721905,-0.13734,9.836192848883428
2560000000.0,22.22,0.0,0.0,0.0,0.5874228497249285,-0.1459728497249285,9.830797150275071
2565000000.0,22.22,0.0,0.0,0.0,0.5886,-0.14715,9.804015750533859
2570000000.0,22.22,0.0,0.0,0.0,0.571726700161667,-0.164023299838333,9.80019
2575000000.0,22.22,0.0,0.0,0.0,0.585657100032571,-0.1417543499511435,9.808528550016286
2580000000.0,22.22,0.0,0.0,0.0,0.5721190997731911,-0.16206135034021352,9.818240450113406
2585000000.0,22.22,0.0,0.0,0.0,0.5934070506315705,-0.134200599157906,9.81981
2590000000.0,22.22,0.0,0.0,0.0,0.59841,-0.1516627509229275,9.795677249077073
2595000000.0,22.22,0.0,0.0,0.0,0.6063561504047615,-0.15696,9.758595398380955
2600000000.0,22.22,0.0,0.0,0.0,0.5846758484943585,-0.14126389899623898,9.798228303011284
2605000000.0,22.22,0.0,0.0,0.0,0.57879,-0.152839901197999,9.825499901197999
2610000000.0,22.22,0.0,0.0,0.0,0.6017455520883556,-0.172263701392237,9.83727185069612
2615000000.0,22.22,0.0,0.0,0.0,0.593112498413525,-0.15391874762028748,9.816768747620287
2620000000.0,22.22,0.0,0.0,0.0,0.5811443491096435,-0.14715,9.795088698219288
2625000000.0,22.22,0.0,0.0,0.0,0.5861475509874755,-0.1397924490125245,9.783022449012526
2630000000.0,22.22,0.0,0.0,0.0,0.5886,-0.14459945108459452,9.809607804338379
2635000000.0,22.22,0.0,0.0,0.0,0.5957613511817135,-0.16147270236342703,9.81981
2640000000.0,22.22,0.0,0.0,0.0,0.59841,-0.15970674872116747,9.812746748721167
2645000000.0,22.22,0.0,0.0,0.0,0.59841,-0.1499948486240485,9.796069697248099
2650000000.0,22.22,0.0,0.0,0.0,0.584675897053859,-0.16775115441921154,9.797247051473072
2655000000.0,22.22,0.0,0.0,0.0,0.5855589515701896,-0.16304209685962096,9.82049685471057
2660000000.0,22.22,0.0,0.0,0.0,0.575258296665383,-0.14361829666538295,9.82962
2665000000.0,22.22,0.0,0.0,0.0,0.5624072482355725,-0.15705825529328254,9.816474496471145
2670000000.0,22.22,0.0,0.0,0.0,0.5980179111692792,-0.1732446518615465,9.81
2675000000.0,22.22,0.0,0.0,0.0,0.5861472402066724,-0.16382689608266895,9.81
2680000000.0,22.22,0.0,0.0,0.0,0.5940938082231381,-0.15696,9.816278452055785
2685000000.0,22.22,0.0,0.0,0.0,0.60822,-0.15077964784709647,9.813629647847097
2690000000.0,22.22,0.0,0.0,0.0,0.60822,-0.15323225225002252,9.797835495499955
2695000000.0,22.22,0.0,0.0,0.0,0.6022358476528584,-0.15097584765285849,9.796364152347142
2700000000.0,22.22,0.0,0.0,0.0,0.5925239475557394,-0.15892210488852104,9.806076052444261
2705000000.0,22.22,0.0,0.0,0.0,0.5943879525413795,-0.15519409491724095,9.81
2710000000.0,22.22,0.0,0.0,0.0,0.5870302947230029,-0.15852970527699706,9.787240589446006
2715000000.0,22.22,0.0,0.0,0.0,0.57879,-0.16677,9.787535258206853
2720000000.0,22.22,0.0,0.0,0.0,0.57879,-0.15578269433452693,9.80019
2725000000.0,22.22,0.0,0.0,0.0,0.57879,-0.14715,9.810981105859712
2730000000.0,22.22,0.0,0.0,0.0,0.5840874530269745,-0.15244745302697452,9.825107453026975
2735000000.0,22.22,0.0,0.0,0.0,0.5834006468759065,-0.15696,9.803623234379533
2740000000.0,22.22,0.0,0.0,0.0,0.5838912532212126,-0.15185874677878747,9.785671253221214
2745000000.0,22.22,0.0,0.0,0.0,0.5936031533183316,-0.15215315331833154,9.815395766591658
2750000000.0,22.22,0.0,0.0,0.0,0.59841,-0.16186505341545052,9.83452494658455
2755000000.0,22.22,0.0,0.0,0.0,0.59841,-0.1523491394622914,9.810392185949722
2760000000.0,22.22,0.0,0.0,0.0,0.6031188536096885,-0.14204885360968852,9.79038
2765000000.0,22.22,0.0,0.0,0.0,0.6036092462931925,-0.15176075370680753,9.804212261120423
2770000000.0,22.22,0.0,0.0,0.0,0.5938973461960735,-0.16147265380392653,9.837860615215707
2775000000.0,22.22,0.0,0.0,0.0,0.5797708921979089,-0.16235544609895447,9.841391784395817
2780000000.0,22.22,0.0,0.0,0.0,0.5819293619944936,-0.15264354600183547,9.806860638005507
2785000000.0,22.22,0.0,0.0,0.0,0.5899732918094329,-0.14715,9.786161645904718
2790000000.0,22.22,0.0,0.0,0.0,0.570549491615195,-0.14302974580759745,9.792930762577209
2795000000.0,22.22,0.0,0.0,0.0,0.5712364628685647,-0.14538430857904308,9.814022154289521
2800000000.0,22.22,0.0,0.0,0.0,0.5925240543866406,-0.15696,9.823734054386641
2805000000.0,22.22,0.0,0.0,0.0,0.59841,-0.16461190896751907,9.818142136548722
2810000000.0,22.22,0.0,0.0,0.0,0.5946821454191215,-0.16539643625736436,9.80019
2815000000.0,22.22,0.0,0.0,0.0,0.5922297546779975,-0.1544095093559951,9.792930490644006
2820000000.0,22.22,0.0,0.0,0.0,0.6054733095502332,-0.16677,9.808823238200933
2825000000.0,22.22,0.0,0.0,0.0,0.611162890255529,-0.1599028902555289,9.845315780511058
2830000000.0,22.22,0.0,0.0,0.0,0.5917390900612909,-0.14715,9.813139090061291
2835000000.0,22.22,0.0,0.0,0.0,0.57879,-0.14715,9.793715289867054
2840000000.0,22.22,0.0,0.0,0.0,0.5756507448364074,-0.15028925516359254,9.796266275817963
2845000000.0,22.22,0.0,0.0,0.0,0.5750623105214231,-0.15696,9.826578844739288
2850000000.0,22.22,0.0,0.0,0.0,0.5827138892843389,-0.1628461107156611,9.810980833926509
2855000000.0,22.22,0.0,0.0,0.0,0.56898,-0.15951026727030265,9.793224955454951
2860000000.0,22.22,0.0,0.0,0.0,0.5744737111041371,-0.12596056665620567,9.797443144447932
2865000000.0,22.22,0.0,0.0,0.0,0.5938975112983751,-0.14715,9.795677511298376
2870000000.0,22.22,0.0,0.0,0.0,0.60822,-0.14715,9.820202622985226
2875000000.0,22.22,0.0,0.0,0.0,0.60822,-0.14469744415657443,9.839429776626298
2880000000.0,22.22,0.0,0.0,0.0,0.60822,-0.13734,9.807645544059456
2885000000.0,22.22,0.0,0.0,0.0,0.60822,-0.13959635603766354,9.797933643962336
2890000000.0,22.22,0.0,0.0,0.0,0.6039034877304349,-0.1428334877304349,9.794696512269566
2895000000.0,22.22,0.0,0.0,0.0,0.5906601562319016,-0.13165031246380313,9.818240624927606
2900000000.0,22.22,0.0,0.0,0.0,0.5944858873419588,-0.14518794367097942,9.841391774683919
2905000000.0,22.22,0.0,0.0,0.0,0.5843818692784187,-0.13361208714772085,9.806272087147722
2910000000.0,22.22,0.0,0.0,0.0,0.6046882869534829,-0.1230175695697757,9.793911713046517
2915000000.0,22.22,0.0,0.0,0.0,0.5886,-0.1521532698611327,9.808332243379622
2920000000.0,22.22,0.0,0.0,0.0,0.5901696567174965,-0.17030137313001373,9.80489897015249
2925000000.0,22.22,0.0,0.0,0.0,0.5969384431853845,-0.14469778407307785,9.823733772741537
2930000000.0,22.22,0.0,0.0,0.0,0.5831061723530617,-0.17402888779438888,9.79312691382347
2935000000.0,22.22,0.00041523239006597786,0.006648256299963512,0.0,0.5570121420531214,-0.10702749906197499,9.802347857946879
2940000000.0,22.22,0.0026828953359834544,0.05394896165684764,0.0,0.5705477726088777,-0.14557937209249372,9.779394170543341
2945000000.0,22.22,-0.0016502398481885814,0.08147617578981553,0.0017586869773653284,0.28458758517217586,-0.0042190436401904376,9.94557202628252
2950000000.0,22.22,-0.005536134638320857,0.1357219390228801,0.014388400972111914,0.19718048429810484,-0.10790942699789427,9.560822905788628
2955000000.0,22.22,1.9585076784952877e-05,0.11721156904329894,0.00019164961020033759,0.1283154887679549,-0.023151829589318294,9.16529208055432
2960000000.0,22.22,-0.020798003957940545,0.08454300091725869,0.0026403715306513075,0.23073085503330856,-0.054150855033308555,10.012480297316802
2965000000.0,22.22,-0.01647150164039544,0.0695472796000238,0.007920952275284873,0.181387303140973,-0.01167487905664879,10.311683515183134
2970000000.0,22.22,-0.03651360908569312,-0.028189418609665,-0.00012777062281760834,0.24642731537737314,-0.1744225499529255,10.295787854056178
2975000000.0,22.22,-0.02514328846014052,-0.0746710614745453,-0.0028222790305195197,0.2673227889290279,-0.3016583667870837,9.743780477496804
2980000000.0,22.22,-0.036769125035224046,-0.178582887705615,-0.015518002241825606,0.3229465313072653,-0.4434122894146229,9.415637710585377
2985000000.0,22.22,-0.024024711730308897,-0.19579888493554728,-0.004322495010300981,0.5445540856607409,-0.48961692605986923,9.389449416583094
2990000000.0,22.22,-0.008069921033505605,-0.22308082078414657,-0.006366605742478882,0.7110301938519019,-0.46107,10.074480387703804
2995000000.0,22.22,0.01397912228974153,-0.19214569823572533,-0.005291295752813108,0.9425452653942527,-0.4597939437343394,10.532504463900146
3000000000.0,22.22,0.027698495489317982,-0.12676301050763256,-0.002129308011459075,1.020239708642997,-0.3335399417285994,10.192585280016552
3005000000.0,22.22,0.047741856819654455,-0.08458555791508823,-0.003183312357278552,0.9716802081574021,-0.32382804163148043,9.405921372149914
3010000000.0,22.22,0.07089820633514837,-0.011072971502717424,0.004109596672488919,0.9231207076718071,-0.16029440608414405,9.18647511375595
3015000000.0,22.22,0.07549738381025314,0.00487618984326863,-0.001937702669441258,0.8269824143724243,0.03335517125515172,9.38199092981791
3020000000.0,22.22,0.07870808528255947,0.03395800241608105,0.00706933889795399,0.9087989279388893,0.14283424525864247,10.028570788871606
3025000000.0,22.22,0.052522899945471206,0.013894432159338131,0.003406857192987736,0.8470930887010308,0.18442823502798236,10.20436294011193
3030000000.0,22.22,0.026102286374758633,-0.006238975302239231,0.0011923961704298144,0.8989887531246875,0.18639,10.221431458854115
3035000000.0,22.22,0.001715162334431232,0.00046849755368628,-0.00487613925106003,0.8204097694388979,0.14077320524383205,9.692865180828452
3040000000.0,22.22,-0.004897425922828197,-0.02050008035090075,-0.001405313480320105,0.859356295241763,0.05611266856482669,9.273979119969193
3045000000.0,22.22,-0.011136286338593768,0.02900509458570571,0.0028107039029575146,0.9079157957273579,0.004414204272642039,9.526689092655092
3050000000.0,22.22,-0.028974326747435435,0.0542240243243169,-0.0006388162239359279,0.8858428222722282,-0.03531623697036237,9.828640836520309
3055000000.0,22.22,-0.04036778466904233,0.1086074813719335,0.004620623301529105,0.8392452033014521,-0.02177808132058081,9.893973837358837
3060000000.0,22.22,-0.05092318713040004,0.15254343101371576,0.003449455832628379,0.6352942329529423,-0.1404800321156003,9.820594265068543
3065000000.0,22.22,-0.05590780870747046,0.15858184402772776,0.005046457921309677,0.5058028855926289,-0.1398904809321048,9.707582885592629
3070000000.0,22.22,-0.060123826090748164,0.1642138793594617,0.008070072810131406,0.4651900211068002,-0.22170659631066597,9.7175899788932
3075000000.0,22.22,-0.05348032708259635,0.1307048432608973,0.00037256945616027937,0.34433016380540166,-0.2187628805436288,9.946851112661012
3080000000.0,22.22,-0.05041417152437304,0.13089415429463566,0.006984167968781424,0.2578063213975632,-0.3229459777289598,10.068984598253046
3085000000.0,22.22,-0.03592034264445112,0.12236618405252386,0.0014478731217999813,0.13939932100849323,-0.3596347198448472,9.824124482482445
3090000000.0,22.22,-0.03651371027011033,0.09417044053556717,0.0,0.1418527800586278,-0.403191300097713,9.77076
3095000000.0,22.22,-0.019156247687058852,0.0987668643984003,0.005174242246183756,0.05974223871672239,-0.36434303930003037,9.746921519650014
3100000000.0,22.22,-0.005536112504229595,0.04239708707213048,0.0021292690132983195,0.015695819358658193,-0.3767041806413418,9.890443144061832
3105000000.0,22.22,0.011104419571202256,0.024334052381537755,0.007793296538940917,0.025309920621799206,-0.32834027782370273,9.966469801554497
3110000000.0,22.22,0.02322306762773031,-0.03805320100907351,-0.004535524044651984,0.0370818604080186,-0.28331255836792557,9.97677
3115000000.0,22.22,0.023929498109499264,-0.0906610613938659,-0.0019589050208618335,0.14499264707192647,-0.2520187184845872,9.886124873938348
3120000000.0,22.22,0.03234032525461234,-0.1303498031065212,-0.004045706091058442,0.22876962421579625,-0.2228830181932302,9.74721509096615
3125000000.0,22.22,0.03754641529610946,-0.1747033847606897,-0.007718738379526384,0.3629709711900097,-0.20846243930062439,9.829620971190009
3130000000.0,22.22,0.0383448836663154,-0.17854013518133988,-0.00221442097039276,0.5038424511509245,-0.16971269601752695,9.890638382389483
3135000000.0,22.22,0.03679048021727474,-0.1889845382851944,-0.0015544034490405866,0.6111636089361361,-0.1712827217872272,9.769385503914954
3140000000.0,22.22,0.035449026752259055,-0.17086195003370908,-0.0005961912341866564,0.7718519588239197,-0.12713717306487174,9.785279348916594
3145000000.0,22.22,0.04044229223624826,-0.15662283360643134,-0.004535452372356443,0.8101096778242968,-0.1009448389121484,9.67766193933082
3150000000.0,22.22,0.04559675337811747,-0.13581786561715406,-0.0026615939081544165,0.9005588565895886,-0.06376469407514694,9.747217101329472
3155000000.0,22.22,0.04539826936183621,-0.10283893661551452,-0.0010646508437165,0.9552979225641792,-0.021974154871641553,9.766345193589551
3160000000.0,22.22,0.03604515790819803,-0.07567314091830331,-0.0017886200787511856,1.0080760296544602,-0.003139138620791386,9.75114
3165000000.0,22.22,0.020532120994451723,-0.02463648598677958,-0.001415978950295436,1.0629138073816382,0.026291045905310458,9.816867614763275
3170000000.0,22.22,0.012094406855069663,0.017195177689434495,-0.00036197460447605747,1.0337773689858738,0.05218932314689323,9.655000152796601
3175000000.0,22.22,0.006494329989105279,0.05746699885677203,0.0048442081894033776,0.9721706299766063,0.05886,9.612329055035092
3180000000.0,22.22,-0.005280762033381013,0.08645326664406515,0.003364256445338376,0.8950638440908385,0.07141692353536923,9.706014617676846
3185000000.0,22.22,-0.01602339808591145,0.10044900158010643,0.003747597825912938,0.832378190675982,0.06611927627039277,9.858756875431268
3190000000.0,22.22,-0.030402702689501293,0.11364022718050938,0.004003073723278725,0.7716541662665417,0.022366428228464283,9.939884523923846
3195000000.0,22.22,-0.045084204438505596,0.11606348891755801,0.0012456212818850348,0.6737500552915006,-0.06582578264945783,9.923403351763833
3200000000.0,22.22,-0.05773906326201016,0.10758900884307623,0.0012775945037154265,0.5866375649068757,-0.17265668371776685,9.796264819032947
3205000000.0,22.22,-0.06222115561035515,0.09892643644033998,0.0027574524413936504,0.5186542642270426,-0.2563357357729574,9.663830377467203
3210000000.0,22.22,-0.05807962998421826,0.07980570213380646,0.0013414397629591317,0.4734304129488041,-0.32431903645279037,9.794305870511957
3215000000.0,22.22,-0.04871136663063111,0.06392455627573389,0.0018205732744991027,0.4666617624475176,-0.3755270497900705,9.951460574685106
3220000000.0,22.22,-0.0365136027616671,0.04818979425614207,0.0014053187503418629,0.4379180247321803,-0.4088809876339099,9.916339712008996
3225000000.0,22.22,-0.023279985849461955,0.024867294709422477,0.0,0.4174155626417556,-0.42722556264175565,9.825695498865956
3230000000.0,22.22,-0.0055440766129029526,0.009241114852514967,0.000574918264474984,0.4165325372611254,-0.39985522356675224,9.774487611783377
3235000000.0,22.22,0.012167658463785615,-0.008792790302693516,-0.0006281644560170874,0.4068206371640064,-0.32598573447605733,9.838940442539904
3240000000.0,22.22,0.026931922240948286,-0.020203219629489167,-0.00046842588139077716,0.44812136639801364,-0.2691862112006621,9.923403788799337
3245000000.0,22.22,0.03571521660380011,-0.02298201987490309,-0.0016502430102016475,0.45547785878837854,-0.21003153272791533,9.902507858788379
3250000000.0,22.22,0.03834489736837184,-0.02023701035222329,-0.002661606556206556,0.4512603787641038,-0.1324345581085456,9.70208785367008
3255000000.0,22.22,0.043591572935766584,-0.006536860118463487,-0.0005429650687271237,0.48069,-0.05003036775530368,9.55935481612235
3260000000.0,22.22,0.044358541919571205,0.0056640043375469845,0.0025551963854613695,0.4712722733568227,0.023544316607943167,9.744471352934013
3265000000.0,22.22,0.03747182867857756,0.01966178162299278,0.0038220758809972065,0.4380161829064618,0.0767145805122458,9.95479610734966
3270000000.0,22.22,0.02232434091273422,0.03031742319788106,0.0016395554061349883,0.3984820094525201,0.10339733648417337,9.991877336484173
3275000000.0,22.22,0.0037262089157232637,0.0308923277602996,0.0015437506271173901,0.3605171819352718,0.08044174554821747,9.84531396438574
3280000000.0,22.22,-0.007750741113478444,0.020578675917158833,0.0011923951164254628,0.31627414515974145,0.045910608869806094,9.599280116928902
3285000000.0,22.22,-0.018575071142189856,-0.0030845052382425754,0.0,0.3069550914215509,-0.00853527426465275,9.611349095179591
3290000000.0,22.22,-0.02925285562050784,-0.03092116626953303,0.0008943205794190509,0.3566921112344211,-0.10418290294732904,9.870627653224776
3295000000.0,22.22,-0.04033582936528575,-0.060993496998827994,0.0003832465201833843,0.44645380401563806,-0.21503596801705968,10.079873804015639
3300000000.0,22.22,-0.04260345225903811,-0.08479869920954139,-0.00383277086309421,0.5336643845912439,-0.31980657688686576,10.029742141142322
3305000000.0,22.22,-0.034842105753831974,-0.10317070549433305,-0.005972684266281039,0.6034136777609368,-0.38808385678263857,9.75192300252153
3310000000.0,22.22,-0.01919568260306488,-0.11251822830591202,-0.0037049570260984663,0.6945486429277864,-0.4194757285855573,9.603009321463892
3315000000.0,22.22,-0.001383976216343374,-0.11107029615986866,-0.0022464342443882903,0.7989271726787718,-0.4280102356101024,9.771351046816111
3320000000.0,22.22,0.01146203835584982,-0.1016736594239823,-0.003492040770212471,0.9013433158961331,-0.40064001307790015,10.016794993461051
3325000000.0,22.22,0.02908254749030169,-0.07803175018428817,-0.0025019364918627096,0.9584371291682713,-0.34236861249518613,9.980692966653828
3330000000.0,22.22,0.043716700271193724,-0.05094038616597005,-0.0021079876115519067,0.9578481412749814,-0.27075535318745353,9.788612453606124
3335000000.0,22.22,0.051106270830003186,-0.020356939217265533,0.0003513418086354316,0.9222379056648791,-0.16068689310276893,9.568476893102769
3340000000.0,22.22,0.05718535683499469,0.014783178265281076,0.00140534615445481,0.8993807351245073,-0.01844176199211761,9.580055740891257
3345000000.0,22.22,0.05448110842496931,0.05328240592191452,0.002789399313115408,0.8683806802191069,0.10653698983566989,9.867095629397456
3350000000.0,22.22,0.04431901846720019,0.09342767976806847,0.004578005689810196,0.7789132191632323,0.1648083904183839,9.998351609581617
3355000000.0,22.22,0.024094638214495263,0.12215854965431738,0.005632010035629646,0.6538355224972552,0.20601,9.88033594049506
3360000000.0,22.22,0.002086588161318702,0.14164329222351535,0.005791686423999524,0.5081570210404702,0.2005162694720627,9.634595829456659
3365000000.0,22.22,-0.016890202568697187,0.14384227935643604,0.005120991838624234,0.3783711117502111,0.17579493855564937,9.536596541860664
3370000000.0,22.22,-0.037263641169992236,0.12752507529560989,0.006898923259304538,0.30626800362538004,0.11144068358510684,9.744078632829787
3375000000.0,22.22,-0.059655467665635495,0.09506780677285538,0.003992405091290354,0.26732204111272045,-0.017168221108582214,9.98167591777456
3380000000.0,22.22,-0.07422401615770324,0.053177788543446486,-0.0007665699826840372,0.22759232826222328,-0.14048038174400382,10.04936301521333
3385000000.0,22.22,-0.07867277463372246,0.010847327522320368,-0.002949075701485361,0.26712636574956367,-0.3062691204938912,9.874351759012217
3390000000.0,22.22,-0.07057855000515693,-0.02361415592296786,-0.0018950713556659053,0.2962626584668266,-0.4400774560068746,9.673641329233414
3395000000.0,22.22,-0.05310397848521482,-0.05291630722305713,-0.0010646508437165,0.3913214934942149,-0.5498508297190083,9.740742323213222
3400000000.0,22.22,-0.035360198514400296,-0.07733210595269673,-0.0017034628516350747,0.4846147924910479,-0.5925241320818413,9.882595122695651
3405000000.0,22.22,-0.010859295050516766,-0.08517123072154519,-0.003854021698714621,0.5881098306901983,-0.5951722370337224,10.001098270895682
3410000000.0,22.22,0.01233202131833102,-0.08833316470867751,-0.001746013007075783,0.6349034649406348,-0.5165937389429375,9.89868094282651
3415000000.0,22.22,0.043575452060248585,-0.07983419734864079,-0.00018099784228148695,0.6737510653291108,-0.39534233667722335,9.71503893467089
3420000000.0,22.22,0.06476571392995416,-0.060674489019739326,-0.0008942994993321345,0.7125986657175866,-0.28880533712965334,9.696596997864571
3425000000.0,22.22,0.07019544050553851,-0.03839525983858136,0.00047911453946174653,0.7426168669469687,-0.13341493557574935,9.797248197477282
3430000000.0,22.22,0.0745817080487834,-0.004490187758313765,0.0028958358339693413,0.7204461335054614,0.012361199612711996,9.939099200258193
3435000000.0,22.22,0.06734208947874046,0.02398520833857803,0.0013414745451025146,0.6764970662339708,0.10486976736979767,9.87445096607171
3440000000.0,22.22,0.05909948859790538,0.051053091040734855,0.00383277929512902,0.594092798185528,0.21699726681787268,9.764088264549784
3445000000.0,22.22,0.03671388086613252,0.06475495149157902,0.00793161247523849,0.4861833323400333,0.22778833382998334,9.64970500148995
3450000000.0,22.22,0.012349775243992143,0.05241385174007843,0.0028745354601446816,0.448316798963668,0.24034466493944665,9.720730273230103
3455000000.0,22.22,-0.012564596534978784,0.032562062023620685,-9.58258591045146e-05,0.4227129671092297,0.18560439468924395,9.891128901327688
3460000000.0,22.22,-0.033747141572342036,0.0047694971993586755,-0.001149830204923893,0.4347794688253947,0.06670699190476992,9.913200796761908
3465000000.0,22.22,-0.05522649397430669,-0.015854070127910607,-0.0020547688241227286,0.4736270692138707,-0.07828474224854742,9.851495559661856
3470000000.0,22.22,-0.06704402337376876,-0.044010034397736646,-0.0010646508437165,0.5136520044035201,-0.21601734580997345,9.75114
3475000000.0,22.22,-0.06572381969036922,-0.06662977022285511,-0.0011178907112325285,0.5733951074793511,-0.37768567497705674,9.755064539981644
3480000000.0,22.22,-0.05893056829768369,-0.07802743168658074,-0.0020867083178140932,0.6619796111378962,-0.4732348055689481,9.833544675948247
3485000000.0,22.22,-0.04093184563475105,-0.083936148429114,-0.0011285445871600738,0.7764618384597185,-0.52974,9.926542529232226
3490000000.0,22.22,-0.02079891200860261,-0.07640866620514926,-0.0031300514096756064,0.8250213389453135,-0.5287586610546866,9.884947179796871
3495000000.0,22.22,0.004525124926758398,-0.06148617234092428,-1.0653875927542277e-05,0.873384503658545,-0.4798064890243649,9.711703664227636
3500000000.0,22.22,0.030892460685798494,-0.03195675714215216,-0.0010646434656860792,0.9025198640333987,-0.3923991842003919,9.692280815799608
3505000000.0,22.22,0.04988181767031558,-0.000319348007802131,-1.0639119866700771e-05,0.8830960638391606,-0.2758563830349638,9.808823616965036
3510000000.0,22.22,0.059463783273291694,0.041751713386075064,0.0020867304519053553,0.8540583954673839,-0.1304719773369198,9.838841604532616
3515000000.0,22.22,0.061720791289277314,0.08291337706577781,0.003162020415488653,0.7583123172534232,0.015206524119865228,9.820398463450685
3520000000.0,22.22,0.0556522221396484,0.11688284317869932,0.005238096991466565,0.6235226427951265,0.14204968883309688,9.763303989769339
3525000000.0,22.22,0.045265912385977235,0.13442886853879746,0.007346105683105326,0.4875560414354604,0.2217065477511655,9.723671726124417
3530000000.0,22.22,0.02471720404133002,0.12026878180661696,0.006451776671651508,0.40691825147188254,0.24407293713202938,9.832367622792177
3535000000.0,22.22,-0.00033964550513105457,0.10048195398925289,0.003417506852897897,0.3292230506949305,0.2270032626737326,9.912416949305069
3540000000.0,22.22,-0.026632514803134652,0.06868475779607658,0.00025549381543966314,0.26055311867823117,0.11732677487696776,9.926935268760253
3545000000.0,22.22,-0.049124543245696206,0.03308682509388841,-0.0019376794813456538,0.25506,0.0007839737115397372,9.793812467139425
3550000000.0,22.22,-0.0626364659967427,-0.0027666014237392525,-0.003087494930208795,0.25506,-0.16873324118083244,9.692279310455094
3555000000.0,22.22,-0.06770414418754682,-0.039567574686245666,-0.00035131229651376005,0.31617678336126787,-0.29989259767092596,9.769779690516097
3560000000.0,22.22,-0.06723566033591695,-0.06429530233893335,-0.0018738004939629245,0.4100586914872869,-0.4088815606360156,9.918695906379659
3565000000.0,22.22,-0.0513615960047475,-0.07916439296496872,-0.00027679418926431854,0.49010815396678153,-0.5157124617043246,9.997273384720936
3570000000.0,22.22,-0.028850475914943646,-0.08554386025595317,-0.0009156072511872192,0.5678033547437336,-0.5466133386859334,9.913396637227367
3575000000.0,22.22,-0.006550062300439037,-0.08085931369885885,-0.0019696115970065974,0.6538371249607714,-0.524344291679743,9.756534319518543
3580000000.0,22.22,0.014706993466143233,-0.06736611269136551,-0.002129301687433,0.7165228172232282,-0.4704871827767718,9.665596243702362
3585000000.0,22.22,0.03137153399813942,-0.04640709878765488,-0.002129301687433,0.7422247392686474,-0.35521919475379193,9.767033174880533
3590000000.0,22.22,0.05330705982654988,-0.011160409871698064,0.000489762091363199,0.74556,-0.23700876322268766,9.911044045971641
3595000000.0,22.22,0.06356267547764453,0.019902027243955314,0.002789400367119804,0.7137753206857531,-0.10457362240013622,9.858068301714383
3600000000.0,22.22,0.0649786080517488,0.04687624289525294,0.00404568079495409,0.6356873706688737,0.054937188736571885,9.70601281126343
3605000000.0,22.22,0.05993211745630443,0.05893145205440956,0.005099685140773547,0.5560302398176025,0.1580397302051973,9.726909790159597
3610000000.0,22.22,0.04778143081239776,0.06155043994489295,0.0036623836825621283,0.48598690916056914,0.1995356103597561,9.80254496095935
3615000000.0,22.22,0.02833701332635148,0.05358676781946764,0.0023741637610363974,0.4482186893488869,0.2135637702170377,9.910455242604453
3620000000.0,22.22,0.0023888081492535983,0.03656032155613178,0.0013201594152169962,0.4116273187433732,0.1636303078009031,9.862973296858433
3625000000.0,22.22,-0.024234087827499914,0.009586006828425562,0.00026615506939761777,0.3874948591774486,0.08828943670979436,9.729066443830865
3630000000.0,22.22,-0.04351083174495681,-0.016791996508598445,-0.0007878492764217607,0.4188873525419735,-0.018443646100736455,9.663242117966421
3635000000.0,22.22,-0.05338461400195689,-0.04132817678950734,-0.0026190564007658513,0.46744685302756855,-0.1564705590827056,9.78910604150476
3640000000.0,22.22,-0.0553967504583,-0.05867598248106987,-0.0016608399698944925,0.5654492484315925,-0.2738959777289598,9.959505601944757
3645000000.0,22.22,-0.050105381979187014,-0.06814067484342871,-0.0010646508437165,0.6332358539987586,-0.3667965371977654,9.971374146001242
3650000000.0,22.22,-0.039734080988218956,-0.07553092269506358,-0.0010646508437165,0.695529496278095,-0.4542036380718364,9.812941511165715
3655000000.0,22.22,-0.023727096600967217,-0.07629059499684847,-0.000330034056780347,0.7567438259639383,-0.5009969129819691,9.710526174036062
3660000000.0,22.22,-0.004349213778564974,-0.06910938388756274,0.0,0.8083443554555436,-0.47676564454445647,9.745646968728868
3665000000.0,22.22,0.01569414755177153,-0.04962511786655916,-0.0014266475822838198,0.870049398317594,-0.38876951692949513,9.82991494069405
3670000000.0,22.22,0.03361795770248431,-0.017636288927252042,-0.0014266243941882116,0.89271,-0.2948879584318796,9.846100657429307
3675000000.0,22.22,0.04772524882134105,0.018217137590375704,0.0017034723376742318,0.84807400032274,-0.18835114341041143,9.788417428940274
3680000000.0,22.22,0.056291103711853765,0.0513450269182012,0.0031939525311496,0.780090699642907,-0.0655298707653987,9.685608342244985
3685000000.0,22.22,0.055237013991682356,0.07493358245790986,0.004535428130256511,0.6935662842329628,0.054544458920444586,9.729755202073854
3690000000.0,22.22,0.044675440680455016,0.08863138786029666,0.0053232542185827,0.6207763699570638,0.14067590171675903,9.865721803433518
3695000000.0,22.22,0.027719528042366222,0.08942975926210277,0.0053232542185827,0.5206157669777577,0.1727541717709417,9.923894171770941
3700000000.0,22.22,0.008098179408379836,0.08031647559445845,0.004045657606858522,0.429677496923575,0.15892178439581783,9.833542850111028
3705000000.0,22.22,-0.010688878306026703,0.05929316948182528,0.0006813452992897912,0.36748216820892166,0.11242216820892167,9.695516364452663
3710000000.0,22.22,-0.027996602596786505,0.033113944072786096,-0.000447145533648684,0.36041961618689616,0.02001153525241535,9.68874897649839
3715000000.0,22.22,-0.04365690301067335,0.00719370220118184,-0.0006068588121706945,0.3783717721594177,-0.08534772159417722,9.79440303807243
3720000000.0,22.22,-0.05305455781108527,-0.017981260575523954,-0.00046843852944292706,0.4155520335392203,-0.1989477393349774,9.893189378052295
3725000000.0,22.22,-0.05481118464192349,-0.03637538168576064,-0.0011711316327529028,0.4684278617682786,-0.30362015118290153,9.916928855292689
3730000000.0,22.22,-0.04857348152292959,-0.04893702445131469,-0.0015543823689536701,0.5169873622538737,-0.3804323071554231,9.849827803041478
3735000000.0,22.22,-0.03351122711441793,-0.05658919089691234,-0.0005003780231342917,0.5863443529310436,-0.44321623528736237,9.768993764712638
3740000000.0,22.22,-0.015637325693683077,-0.056929824021394286,-0.0005536263226850868,0.6380425452900255,-0.46577872735498727,9.751532545290026
3745000000.0,22.22,0.0017781011153800126,-0.04778613160266512,-0.0016076306685044652,0.6824822091949221,-0.43605413628934137,9.785965863710658
3750000000.0,22.22,0.01970490177016074,-0.030892185469712917,-0.0005323017067604692,0.7112249271607493,-0.36787434444674344,9.81
3755000000.0,22.22,0.03450158119179769,-0.00825974719890892,0.0015863376727102221,0.70632,-0.26604632476356327,9.81480697293637
3760000000.0,22.22,0.04405984538177067,0.018618680537440667,0.0016182613563363994,0.6921933808995339,-0.13537690449766904,9.843354365167444
3765000000.0,22.22,0.04994576988508216,0.044538890788914556,0.0025658323433149837,0.6353930418245305,-0.026584588085745875,9.845806134346962
3770000000.0,22.22,0.047787043264587895,0.061933778163454405,0.0042586033748661,0.5524986141781861,0.04591138582181386,9.783708614178186
3775000000.0,22.22,0.03589607531750797,0.06854521225139766,0.0037795025374608637,0.4703888400763884,0.10594829329938293,9.754573719974537
3780000000.0,22.22,0.02160078923620807,0.06421195585672579,0.002257043852133327,0.40456410631214107,0.13184647342196473,9.805291787375717
3785000000.0,22.22,0.0033108806112617777,0.04775554726482353,0.0006068430021055071,0.37415325296183255,0.10781138536641385,9.84924
3790000000.0,22.22,-0.016914097762991208,0.026817863247059266,-0.0004471613437138713,0.36297,0.03158753745417537,9.83275890553519
3795000000.0,22.22,-0.030807251691518104,0.002054560131262347,-0.0006281359978997502,0.36699217371332177,-0.055819563419895635,9.797933478860035
3800000000.0,22.22,-0.03962248871007432,-0.028546861842113233,0.0004258683479196282,0.39632444286264445,-0.14715073810440737,9.788418147620883
3805000000.0,22.22,-0.04278450174753256,-0.05689806054642864,-0.0005962365563735657,0.4698997390755974,-0.2480957129831571,9.826971817352918
3810000000.0,22.22,-0.0406870352073606,-0.07409874803494151,-0.0023848018268987914,0.5632908660421087,-0.3325593700233937,9.894955118032751
3815000000.0,22.22,-0.030146991749166418,-0.08163654598950514,-0.002246437406401328,0.6361788705089888,-0.38474864461078645,9.926640677694607
3820000000.0,22.22,-0.018067535548330706,-0.07904312890104423,-0.0042586033748661,0.6882700451935005,-0.4288933483978335,9.844529864419497
3825000000.0,22.22,-0.003300304731655838,-0.07338930133831008,-0.0031406957995640033,0.739674297184143,-0.42084855422378553,9.721219277111892
3830000000.0,22.22,0.011461690361628056,-0.06344538165802438,-0.000702661483179601,0.7818573719657738,-0.3592416792479168,9.735444743931549
3835000000.0,22.22,0.027985984557006738,-0.04306212377945607,0.0,0.8207047489805476,-0.28154625509726255,9.832563744902737
3840000000.0,22.22,0.044610688666456275,-0.014959339298898342,0.0,0.8275714508252147,-0.1812879795386798,9.885732901650428
3845000000.0,22.22,0.05212829668397043,0.014570061143812834,0.000990149600536634,0.8051064759464649,-0.07445707847037078,9.828638253154882
3850000000.0,22.22,0.05209627603194442,0.03994721779019453,0.0035133559000980127,0.761255401746954,0.02648767303467673,9.728576177402061
3855000000.0,22.22,0.04286064279685066,0.055769500149203344,0.0042586033748661,0.6750252763337528,0.09682492463624924,9.684334723666247
3860000000.0,22.22,0.029146194596728327,0.0674060201123361,0.004556713748020297,0.5929162500482625,0.1232137499517375,9.799406249662162
3865000000.0,22.22,0.014289570077502407,0.06558538570558496,0.005610718093839748,0.5655461246350613,0.126744899708049,9.906236325218963
3870000000.0,22.22,-0.003922599938555136,0.054433904339257745,0.005280635552859441,0.5144359489793595,0.08534662414946625,9.879257171767971
3875000000.0,22.22,-0.021842909948180524,0.035678680718107925,0.0015969599285073897,0.4659748494655485,0.029429397862193982,9.714351672060516
3880000000.0,22.22,-0.03532134888182392,0.010050148562283345,0.00025552438156568354,0.4583234260930343,-0.057683704372137046,9.659319229007792
3885000000.0,22.22,-0.04334213508372277,-0.009245314748815393,0.000574895076379376,0.48971550184585505,-0.16520100369171004,9.79548301107513
3890000000.0,22.22,-0.046283355636394005,-0.024014740710967427,-0.0008304194579450595,0.5350379289100793,-0.25368758226157584,9.985403102234331
3895000000.0,22.22,-0.046375435011133184,-0.029156922252960023,-0.0006707546636229777,0.5927203513114035,-0.361400702622807,9.978926838197369
3900000000.0,22.22,-0.03770598628404481,-0.026420785995456206,-0.002768075751195185,0.6121441515056415,-0.3982862272584623,9.808036787954869
3905000000.0,22.22,-0.02197769460706557,-0.024557614081316483,-0.0012669427357965759,0.6297039758499399,-0.41623807245018074,9.675014096600242
3910000000.0,22.22,0.0005537338311284324,-0.018326223653531086,-0.0017460108990670913,0.6429476278411763,-0.38533649621176497,9.680313394888234
3915000000.0,22.22,0.014950764075049567,-0.0068668741491612235,0.00036199779257166555,0.6670800000000001,-0.3398177916465779,9.870921088574311
3920000000.0,22.22,0.02710224512721535,0.008775631302009914,0.0019589492890442887,0.6639406477174066,-0.2574135624457356,9.965782267010923
3925000000.0,22.22,0.03578975473713209,0.02466429407717422,0.0009049449432249103,0.6371589663310897,-0.15205423761584239,9.886026356423763
3930000000.0,22.22,0.03926047510743744,0.04545929431279563,0.0002981188051889363,0.5746695709933958,-0.05905566565125665,9.751335665651256
3935000000.0,22.22,0.03820647076161804,0.05756870453959532,0.0022677145921303596,0.5366062356734624,0.007652258595922586,9.701207635028576
3940000000.0,22.22,0.03498043750019467,0.0644675424245479,0.002810653310748913,0.4453736173511362,0.06356910611909106,9.770368212238182
3945000000.0,22.22,0.016474918912550984,0.0593145657700454,0.000468479635612425,0.3968141168655412,0.09594164674621647,9.84590505976135
3950000000.0,22.22,0.0019162715990777763,0.04613240109942823,0.0038327097308421616,0.34825461637994615,0.07357461637994615,9.891422462931924
3955000000.0,22.22,-0.01073335148375696,0.02752626006896848,0.00019165382621772086,0.30587595364225956,0.02589809271548093,9.822556185430962
3960000000.0,22.22,-0.023056564332261234,0.002042516179111439,0.001958940857009522,0.32529975383649756,-0.019228523018985227,9.75114
3965000000.0,22.22,-0.03133953126418732,-0.02530434165464627,-7.453391731461735e-05,0.34884421612294214,-0.13577132418441323,9.756634216122942
3970000000.0,22.22,-0.037216345403181306,-0.051095694950397265,-0.0011285382631339958,0.4259507397874074,-0.2470160313374603,9.833740739787407
3975000000.0,22.22,-0.035683172763678536,-0.06780091452093893,-0.0020760607659126257,0.49540577209605774,-0.2776234632576346,9.896818268371183
3980000000.0,22.22,-0.02501464776537487,-0.0810510128472634,-0.0010646508437165,0.5893849546134495,-0.33589486384034867,9.864935226932753
3985000000.0,22.22,-0.011391680023620575,-0.08319096946462841,-0.0010965987694426312,0.6108693966345939,-0.3929887548076876,9.769876867788469
3990000000.0,22.22,-0.0008516365654263976,-0.08616126965162554,-0.0020866988317749806,0.6982764975086649,-0.41103861249518614,9.74270394250674
3995000000.0,22.22,0.009763166073273395,-0.07973051960640769,-1.0654929931888096e-05,0.7851927103923272,-0.3621845792153458,9.810294532794245
4000000000.0,22.22,0.027698484845601962,-0.06284916288149468,-0.0010646592757512666,0.8240403107808032,-0.2844895338287954,9.839430155390401
4005000000.0,22.22,0.04140054134125438,-0.044913810242796975,-0.002118663621570645,0.8628879111692792,-0.22621813324608134,9.858853955584639
4010000000.0,22.22,0.048859504522409614,-0.020735364289602178,-4.2569127518952976e-05,0.8440522442211225,-0.12949122110561223,9.810980610552807
4015000000.0,22.22,0.045910686049820904,0.0004255061505573608,0.0,0.8246284440268845,-0.06091955409409554,9.752905332080653
4020000000.0,22.22,0.04170984442845945,0.025611164963364522,0.0010220732841627804,0.8146223219163233,0.025899102753091034,9.72288696574897
4025000000.0,22.22,0.02940171476227662,0.04991312123653242,5.322405745084111e-05,0.7489929527344296,0.09466704726557049,9.777627469084775
4030000000.0,22.22,0.01975600347754929,0.0711537528508053,0.004003121153474243,0.662566695498767,0.11654295655582958,9.76212704344417
4035000000.0,22.22,0.00629319750180563,0.07540156532917903,0.003268469584394684,0.5934063513747635,0.11772,9.797443513500136
4040000000.0,22.22,-0.013287004340329533,0.07268665461119123,0.002214465238575214,0.5434736076392361,0.08161888611138886,9.80019
4045000000.0,22.22,-0.029453606368168003,0.06468043760034693,0.0011604608927558273,0.5127684642921847,-0.010791785692717853,9.782335642861458
4050000000.0,22.22,-0.04047427072810047,0.048582848459550854,0.0010646508437165,0.48363276400082766,-0.0814235506647355,9.815886314665564
4055000000.0,22.22,-0.0472396565612363,0.03549343655149855,0.00011710304483357036,0.44576608494596087,-0.1581378301080783,9.863464893817548
4060000000.0,22.22,-0.052628701057213415,0.0143959939330254,0.0,0.4500828788606288,-0.2617316674669167,9.842961363418114
4065000000.0,22.22,-0.05048868436160075,-0.004035172371626292,-0.002778764409266146,0.4683295579154956,-0.3685625685352257,9.779686547295764
4070000000.0,22.22,-0.039071186605201785,-0.017390214696814628,-0.0013627359207663838,0.5215000743292008,-0.4332100743292008,9.7960700371646
4075000000.0,22.22,-0.022800843905887196,-0.022801015708595544,-0.0010646508437165,0.5547557374559574,-0.41643426254404264,9.825205737455958
4080000000.0,22.22,-0.003239167537873018,-0.021651141235489075,-0.00017033553431917807,0.5344485622526857,-0.42026047924910476,9.854341437747314
4085000000.0,22.22,0.013269518546462489,-0.015993970923890266,0.0,0.5867366554235666,-0.3648333445764334,9.810195723922657
4090000000.0,22.22,0.026463483711505358,-0.007920933303206625,-0.0008730223136030788,0.59841,-0.2807614850099148,9.792145720556658
4095000000.0,22.22,0.03824916004563243,0.0005111014633486198,0.0006601007876954146,0.5825176409190764,-0.19335438413584383,9.806272359080925
4100000000.0,22.22,0.04217764398936617,0.009794865547712842,0.0019163801615253357,0.5709419203624192,-0.09025112398661124,9.825696159275163
4105000000.0,22.22,0.0426034870411815,0.019294692903036984,0.002129301687433,0.5457300607959007,-0.014420141857101415,9.821870020265301
4110000000.0,22.22,0.036790432787079115,0.027123524420953084,0.002129301687433,0.501290600840906,0.030607519327275193,9.835113759663638
4115000000.0,22.22,0.026953032893990682,0.03040260572110152,0.0004897220391980577,0.4753924401421244,0.06190133978681339,9.756338420781685
4120000000.0,22.22,0.012354008160002497,0.029274041107858827,0.0,0.4410572798957728,0.0761256800260568,9.724064319973943
4125000000.0,22.22,-0.004258742503439798,0.02397204510292698,0.0,0.4169248397536484,0.04904967950729679,9.832073701847637
4130000000.0,22.22,-0.015620775302754838,0.012908001466266295,0.0007878503304261065,0.40476051977970523,0.0029425988985259874,9.897897920881178
4135000000.0,22.22,-0.026665759793520226,-0.0005217922294282959,0.0010646508437165,0.4165327606348276,-0.08142380317413804,9.829324816508448
4140000000.0,22.22,-0.0313607915858468,-0.021901988585082136,-0.00123502116017909,0.4359565608290656,-0.17147952373079525,9.757810317512803
4145000000.0,22.22,-0.03498062195095521,-0.04691727813543106,-0.001373390850698258,0.49717144409321445,-0.25192144409321443,9.783121083069911
4150000000.0,22.22,-0.03323452462353168,-0.06402053601947288,-0.0018099151825541203,0.5542654030438541,-0.3227495642613956,9.834525403043854
4155000000.0,22.22,-0.02387618235367034,-0.07993848895337219,-0.0028639195283735675,0.6502077684706777,-0.38396388423533884,9.883084903529449
4160000000.0,22.22,-0.010098352137853699,-0.0873963414040133,-0.002469981188106155,0.7467379272270793,-0.3888682383939824,9.878277357590973
4165000000.0,22.22,0.0010966693877338023,-0.08556508052544755,-0.0007026519971404886,0.7881355618002557,-0.38916278090012785,9.829423314599234
4170000000.0,22.22,0.015512976248020699,-0.07571611704700856,-0.0014053566944982683,0.8399327669807277,-0.34707723301927235,9.745253190027531
4175000000.0,22.22,0.03169094790713128,-0.06029400352441544,-0.0007452379887289747,0.8760331621887316,-0.27909393233943935,9.731029743283097
4180000000.0,22.22,0.04342387123735624,-0.035923524873637466,0.0,0.8954569623829696,-0.2048321504681215,9.804114811914848
4185000000.0,22.22,0.048221021415683206,-0.009460345337419046,0.0,0.8839788561341886,-0.10241542453675424,9.851790762577208
4190000000.0,22.22,0.04371728536455698,0.022453961278621242,0.001320184711321296,0.8365963116856632,-0.004119467528494666,9.792144904757048
4195000000.0,22.22,0.037226956064930684,0.055709604365194815,0.0027787475451965873,0.7783249111029491,0.05935090741420908,9.739171637034316
4200000000.0,22.22,0.029401736896367877,0.08223661862061346,0.0038327518910160046,0.6965091842003919,0.10202432631984326,9.725633918420039
4205000000.0,22.22,0.014252024438368219,0.10041677009265373,0.0030022976509274744,0.6051781649062817,0.14665990838539908,9.74486192670832
4210000000.0,22.22,-0.004109703126927898,0.11023993572616694,0.0015117953233608381,0.5234609458064095,0.15539023645160235,9.789399408870993
4215000000.0,22.22,-0.022644585394429366,0.10623739555371109,0.0016715107098915403,0.4457657450294574,0.09123218128682181,9.843550691227907
4220000000.0,22.22,-0.038643101547912825,0.09105856276990619,0.002129301687433,0.39004527212625273,-0.0058868196843681955,9.85237895409469
4225000000.0,22.22,-0.05059805688931431,0.06727522073027635,0.002129301687433,0.3565932538033325,-0.1030058206555582,9.817847671737777
4230000000.0,22.22,-0.05999611343816956,0.03822490426090078,-0.0007453001749854319,0.32745755351197553,-0.21601726811477268,9.80019
4235000000.0,22.22,-0.06222113558427258,0.008695503818189562,-0.0015011309073898848,0.3347175290391753,-0.3266738225979382,9.815788146779381
4240000000.0,22.22,-0.053522848779919766,-0.015851250234316567,0.0,0.38886897649838975,-0.4135902588553026,9.850025129427651
4245000000.0,22.22,-0.037096986564423826,-0.032627824966017197,0.0,0.43183636490806365,-0.46626954736209547,9.863856817545967
4250000000.0,22.22,-0.01757529519901154,-0.0426122675885326,0.0,0.4806906604092066,-0.4757849174488492,9.85905
4255000000.0,22.22,0.0008944502219536314,-0.04528465272147599,0.0,0.5247369826482698,-0.43723112146211124,9.839822069406921
4260000000.0,22.22,0.018788980252890802,-0.04268862318821077,0.0,0.5485755309815553,-0.3645389380368894,9.815101117254612
4265000000.0,22.22,0.03727794235020403,-0.036471026256117714,0.0,0.5782015656850157,-0.28223295441742957,9.81
4270000000.0,22.22,0.04932828565510121,-0.030977481825402647,0.0004897483893067033,0.5840873170603732,-0.19482585354335855,9.81
4275000000.0,22.22,0.0522027979271503,-0.02647396367671584,0.0005855489523069182,0.5920337491102375,-0.09417500355905004,9.80117083392651
4280000000.0,22.22,0.049860520959587915,-0.01908825365936496,0.0,0.5995870337322703,-0.007847584330675846,9.794696483133865
4285000000.0,22.22,0.04595642085347435,-0.00941140506464722,0.00045780889561533865,0.5970367664619677,0.04493029938590299,9.804408383230985
4290000000.0,22.22,0.03847251516055931,0.00010651030115812771,0.0010646508437165,0.5711374500470745,0.08260028332810283,9.789398583359485
4295000000.0,22.22,0.02196323472144529,0.0014478889318651766,0.0006281349438954044,0.5360187337008874,0.09231218342522184,9.756927816574777
4300000000.0,22.22,0.0021291203986856,-0.004045736657184438,0.000425869401923974,0.5552459164776592,0.07063141534361415,9.778608584656386
4305000000.0,22.22,-0.014805544410286964,-0.013506688530907609,0.000234205035662795,0.5608379508583795,0.010300081902700823,9.83128795085838
4310000000.0,22.22,-0.0237379286036292,-0.02576081063427793,-0.0010646508437165,0.5825178837165789,-0.05317095344920954,9.838056348850264
4315000000.0,22.22,-0.029274094862080473,-0.03854310603033752,-0.0010646508437165,0.6176382705095828,-0.14783762195067623,9.816180216186302
4320000000.0,22.22,-0.034639962476364625,-0.05216031206597471,-0.0025977844850585234,0.6882701034649011,-0.23701010346490103,9.7888098965351
4325000000.0,22.22,-0.03717371303540164,-0.0581648061834126,-0.004950617306144298,0.7465415040476151,-0.3021486720634867,9.768307920039678
4330000000.0,22.22,-0.027591773229613824,-0.05140892162925531,-0.003534622545783576,0.8048129046303291,-0.35316,9.823538388735384
4335000000.0,22.22,-0.012478636139272383,-0.03628991563537122,-0.0014266138541447534,0.8566095368086953,-0.35963476840434766,9.878572152606521
4340000000.0,22.22,-0.0004683731811734905,-0.015853726263312447,0.0,0.8703428628028286,-0.3602228628028286,9.857479304109193
4345000000.0,22.22,0.008959225018765128,0.0030079275546651043,-0.00033005092084988015,0.8406188156035882,-0.3061693404322934,9.746430524828705
4350000000.0,22.22,0.019926506598559518,0.02684687463028411,-0.00042584199781098276,0.8191345775323459,-0.21876223955822238,9.712881591454716
4355000000.0,22.22,0.02941254571093425,0.05245679846033462,0.001373408768772137,0.7648851078654512,-0.13135513868415138,9.795089815087797
4360000000.0,22.22,0.03502313627024818,0.07673740587547796,0.002129301687433,0.6914080378100804,-0.04944180718561807,9.867682461248924
4365000000.0,22.22,0.02764500466509503,0.09370979581534124,0.002991696475217236,0.6040009369360094,0.018541493494214936,9.804995797796458
4370000000.0,22.22,0.013214493627553638,0.10364747103824067,0.004492798924489831,0.5140431511799316,0.0635686302359863,9.709349315117993
4375000000.0,22.22,0.0037262226177797444,0.10786572031891754,0.0026616455543673266,0.41937673518786733,0.051502584979125854,9.731521019749511
4380000000.0,22.22,-0.003875430634986919,0.10508265418961964,0.0040030779392960705,0.33196963431379634,0.0494420596950206,9.833936910457469
4385000000.0,22.22,-0.01645300859850648,0.08737076733630525,0.0034388314688225076,0.2513316889598169,0.001568918613089186,9.87867
4390000000.0,22.22,-0.03180804778995183,0.05971514314545702,0.0033216736157629326,0.20601,-0.07828456743434568,9.859245432565654
4395000000.0,22.22,-0.04350149615200568,0.03034540328105044,-0.00022358594187866474,0.20807018536760186,-0.1656916683084167,9.771838331691583
4400000000.0,22.22,-0.04517253734615813,-0.0034107074190268026,-0.0008517113997349567,0.22366834185888343,-0.25506085464720857,9.721710854647208
4405000000.0,22.22,-0.03753571188197768,-0.03995609200570231,-0.0004045858921688433,0.27369985561839855,-0.3409959422473594,9.826285797865758
4410000000.0,22.22,-0.03274475515413805,-0.06938961810510913,-0.002512594583807618,0.36905297093062966,-0.3816094282947943,9.93753
4415000000.0,22.22,-0.023734757968490592,-0.0920170300538118,-0.0038966034742857255,0.4547922860486229,-0.42183,9.919184356683145
4420000000.0,22.22,-0.006515495450373677,-0.10626482321765193,-0.002129301687433,0.5356268585319686,-0.42026031414680315,9.81549282732123
4425000000.0,22.22,0.012938321784658589,-0.1161167551351827,-0.002129301687433,0.6298026876025269,-0.40171889834778896,9.742801585950316
4430000000.0,22.22,0.03285134134360902,-0.11507333193899096,-0.002129301687433,0.7074978883794789,-0.33785605581026057,9.766248346521783
4435000000.0,22.22,0.039175367418525585,-0.10644730680864954,-0.0019908877287313077,0.7839177030118771,-0.2900807524099075,9.866702316867324
4440000000.0,22.22,0.045884790424393564,-0.0885438188293347,-0.001192418304521071,0.8471918587250186,-0.18678171006661712,9.904959851341598
4445000000.0,22.22,0.05515194635493558,-0.06311331480699368,-0.0018950597616181012,0.8741691863387919,-0.10476976393449765,9.79812895027329
4450000000.0,22.22,0.06114580873053722,-0.036745927401740645,0.0001064744650103278,0.8799567406922674,0.007848691487286915,9.70110891356409
4455000000.0,22.22,0.05424524390266093,-0.010475938913881377,0.0010646508437165,0.8508210404009103,0.08289493266514933,9.69846090573121
4460000000.0,22.22,0.04141094647215627,0.01482156180331265,0.0009794693745004152,0.8216853401095535,0.13145443315074434,9.765659319780893
4465000000.0,22.22,0.026579128774589785,0.03998587492010837,0.00014906994263792634,0.7884289194545893,0.17658,9.821183573454537
4470000000.0,22.22,0.010561166759288716,0.0629356953942157,0.002320967107698537,0.7021991922292918,0.1724591922292919,9.833543131756132
4475000000.0,22.22,-0.008731236137879933,0.0809658240000169,0.005270012243057975,0.6347064784709648,0.10545706539247066,9.73887706539247
4480000000.0,22.22,-0.033618664421037586,0.08083803756713409,0.0041308169419833,0.5776125389441255,0.05650507788825078,9.695027409130374
4485000000.0,22.22,-0.04816783741039755,0.07757965383671836,0.001032701863986023,0.5484768386527684,-0.003827032504670325,9.76330509692595
4490000000.0,22.22,-0.055418052940133355,0.07113218581388117,8.520992733342383e-05,0.5195374255742743,-0.12870772327717725,9.840018861638589
4495000000.0,22.22,-0.05652533720563391,0.059474027417988864,0.004215979439121163,0.5000154380700544,-0.18776462233974622,9.868270876140109
4500000000.0,22.22,-0.06284925893412023,0.04153867493480009,-9.486039112374406e-09,0.47087991259289913,-0.32373069925680703,9.8099999125929
4505000000.0,22.22,-0.05757923720502305,0.023620601055869963,-0.0010540138318584909,0.4611680124957801,-0.401425900033759,9.80028801249578
4510000000.0,22.22,-0.040815070419826585,0.011945626798184334,-0.0010646508437165,0.46107,-0.4406655504053555,9.838645550405356
4515000000.0,22.22,-0.018787047796398424,0.0003512300841747879,0.0010007908284119956,0.4705857876984579,-0.45096578769845785,9.829914212301542
4520000000.0,22.22,-0.0007244985698401894,-0.007154520367170077,4.257650554937375e-05,0.4991330633867307,-0.4135892488176925,9.810784624408846
4525000000.0,22.22,0.010114278402700426,-0.012509695107365913,-0.0010114278402700047,0.50031,-0.3747416484292165,9.782041236321913
4530000000.0,22.22,0.028676978851392223,-0.0127758101245984,0.0009369118410292663,0.5279744639694446,-0.2713436321120363,9.826677439949075
4535000000.0,22.22,0.041709295050292604,-0.010795540435646877,7.451599924073837e-05,0.5206166119130661,-0.18275950721759504,9.847866776173868
4540000000.0,22.22,0.047516985960084426,-0.014564461823480052,0.00195897669315728,0.5109047118159471,-0.09535240634352406,9.84924
4545000000.0,22.22,0.040177577109574654,-0.015889836313970146,0.002129301687433,0.51012,-0.052581246875312466,9.84924
4550000000.0,22.22,0.03366036240532534,-0.013096921775410005,-0.001703479715704588,0.51012,0.003924530269745298,9.796265469730255
4555000000.0,22.22,0.028283885183296144,-0.00709051700727457,-0.0030768505403203643,0.5188509884754099,0.04473395390163954,9.75545604609836
4560000000.0,22.22,0.02020315638922842,-0.008261709772279595,0.0024274615987914987,0.5026642228549423,0.04041711142747111,9.733874222854942
4565000000.0,22.22,0.0024933785294950217,-0.014074741892290667,0.0031939525311496,0.5088447886696479,0.005100845321408448,9.799798309357184
4570000000.0,22.22,-0.014664759736630152,-0.01675134051991847,0.0013627338127576922,0.5438667550670676,-0.016873377533533775,9.852183443833834
4575000000.0,22.22,-0.020671718237179844,-0.022481643959777507,-0.0025552006014787415,0.5576985888638859,-0.09466729977497301,9.850711411136114
4580000000.0,22.22,-0.020416153803449032,-0.03417156821510423,0.00038331292245715473,0.5838914668830146,-0.17383391168803913,9.84924
4585000000.0,22.22,-0.023780498785152468,-0.04151760117190974,0.0001809809782119538,0.6455967234068672,-0.21081716717437168,9.816670443767505
4590000000.0,22.22,-0.0245044226980003,-0.050475009208133984,-0.0017460467352148493,0.6814028674657288,-0.2721300240867003,9.785867132534273
4595000000.0,22.22,-0.020192538349448626,-0.05392755166657099,-0.002129301687433,0.7343771355141714,-0.30832856775708567,9.82030094626181
4600000000.0,22.22,-0.00809471085286533,-0.04922171738370415,-0.0004258409438066368,0.7848004467474045,-0.32961617869896176,9.813923821301039
4605000000.0,22.22,0.0056108361423264745,-0.03363198043548245,-0.00084108387391606,0.8023599894465999,-0.3180400211068002,9.794500021106801
4610000000.0,22.22,0.011008518877789194,-0.018187939924841707,0.000596223908321377,0.8273756686311567,-0.2756605522814055,9.782728110456281
4615000000.0,22.22,0.01582355286621449,0.003950078384770905,0.001884441721838317,0.8187424207183244,-0.18177831395078314,9.795677579281676
4620000000.0,22.22,0.025143310594231853,0.02658715424013895,0.0005110129269836092,0.7694958615722587,-0.12713724104817242,9.807645689737958
4625000000.0,22.22,0.03169086464078802,0.04714152849745906,0.0015969957646551477,0.7112244609895446,-0.05150169148431691,9.780569640659696
4630000000.0,22.22,0.027506669756719313,0.06717197423132948,0.002129301687433,0.6674720402712204,-0.0003920402712204035,9.778019489932195
4635000000.0,22.22,0.016229873839602862,0.07788433922721183,0.0013520968008996692,0.585656099706861,0.0384555601172556,9.802054170087942
4640000000.0,22.22,0.004343667849599811,0.0890998738199352,0.0018312092323527092,0.5097269691149697,0.0702398703792987,9.81
4645000000.0,22.22,-0.004982644282196345,0.0919210713901597,0.004397037359650404,0.420848097764481,0.03668885865868859,9.77517404888224
4650000000.0,22.22,-0.014917427299892108,0.08415967850876235,0.0030874580400566615,0.3580645483966455,0.005885819358658192,9.788418361282684
4655000000.0,22.22,-0.03133965774470879,0.06773064095830517,0.0006600638975433107,0.3162740383288404,-0.04061394250673943,9.81372798083558
4660000000.0,22.22,-0.04017612241078983,0.042225532400358354,0.0,0.30411,-0.13223979566399796,9.873177124119271
4665000000.0,22.22,-0.03939885850001313,0.013036810404315893,0.0007133258991506015,0.29753720938797207,-0.21935232489622325,9.885144418775944
4670000000.0,22.22,-0.03693952486380837,-0.017195269439648858,0.00036197144246302,0.3072493814182938,-0.30999690709146904,9.813923092908531
4675000000.0,22.22,-0.03413948326881316,-0.049162740034892294,-0.0013840658067127169,0.35855613564386135,-0.35610318161253185,9.799699772418798
4680000000.0,22.22,-0.02961469742043639,-0.07367751664955063,-0.0007665288765145262,0.4579318908406189,-0.4069194363236944,9.828835472710155
4685000000.0,22.22,-0.012931101526593316,-0.0923684024285733,-0.0013414798151242307,0.5373923460030235,-0.4192792179989922,9.857971173001511
4690000000.0,22.22,0.009614179431536371,-0.10104516857219314,-0.002789395097098056,0.6443220753667207,-0.40593770890237707,9.874942291097623
4695000000.0,22.22,0.026559327488683743,-0.10160939396257983,-0.0012456117958459224,0.7264309559737095,-0.3663048528315485,9.84874904402629
4700000000.0,22.22,0.03515098067336997,-0.09480618589192345,-0.0006388004138707507,0.7749904564593046,-0.28448908708139087,9.794303452248835
4705000000.0,22.22,0.04482837741946257,-0.0767179978368655,-0.002320958675663817,0.8235499569448995,-0.20473406027714058,9.77076
4710000000.0,22.22,0.055013555584329535,-0.05351262346907075,-0.0013414302769200193,0.8493498914860989,-0.11968108513901085,9.810589240402692
4715000000.0,22.22,0.05555639838855256,-0.028496614880412878,0.0012137218403587722,0.8422864168335642,-0.022562084167820844,9.817062833667128
4720000000.0,22.22,0.04729553054112134,0.0038351860017407716,0.0015330872651507354,0.8228626166393262,0.06356953344269534,9.783708924958988
4725000000.0,22.22,0.03440553609978922,0.036065752755703895,0.00047908291933135695,0.7764608575578086,0.1304735506647355,9.75457322466763
4730000000.0,22.22,0.024823768096709782,0.06454114885259574,0.0017247642794641182,0.7137750487525505,0.17285247562372474,9.73073501625085
4735000000.0,22.22,0.011080372030083422,0.08172179596900375,0.0054510522455132535,0.6295066883113669,0.16559243211322433,9.752906351830164
4740000000.0,22.22,-0.010570622076766253,0.08688531266696449,0.005238042183240535,0.5583848317247484,0.13184612379356125,9.811177752412878
4745000000.0,22.22,-0.03325607268837761,0.0851604883092526,0.0026509705983528923,0.5095308470044085,0.06268488617474886,9.854439576497796
4750000000.0,22.22,-0.05059720532291791,0.07297204564003278,0.0015969662525334646,0.4610696309477963,-0.039240922630509226,9.844334538684745
4755000000.0,22.22,-0.0564614013020165,0.05190655937932054,0.0005429619067140862,0.44145,-0.14116691596186917,9.781354061118641
4760000000.0,22.22,-0.05748348618022713,0.025603010909285136,0.0,0.4367411075427111,-0.2668333868593339,9.755456677371866
4765000000.0,22.22,-0.0585907029894496,0.003140569319042558,-0.0010007918824163414,0.44086158510881585,-0.37101475532644757,9.821478718098486
4770000000.0,22.22,-0.05221593154700716,-0.014146772877580429,-0.002619051130744095,0.47833615590916156,-0.4337988485606885,9.896720770606107
4775000000.0,22.22,-0.03275521509326596,-0.025462628588828203,-0.0017566436949077724,0.5410221492405215,-0.46205081450270813,9.89583703625677
4780000000.0,22.22,-0.010613534861538196,-0.028507550175500714,0.000468456447516806,0.5744735071542351,-0.4426270143084701,9.85159402861694
4785000000.0,22.22,0.005344688450959298,-0.032265757609158695,0.0006068408940968154,0.5774167858857678,-0.4147664282284643,9.808528035285581
4790000000.0,22.22,0.02100240674426518,-0.031850463032836306,-0.0017886538068902936,0.6050811721600118,-0.34707677655996777,9.772329413919994
4795000000.0,22.22,0.03656704816003055,-0.02570740739608829,-0.0029490525133897346,0.6399065794113659,-0.25231245490302456,9.809216317645463
4800000000.0,22.22,0.04899847477078205,-0.017896525036539927,0.0014905718918534988,0.6376495338287953,-0.1589208811891088,9.87867
4805000000.0,22.22,0.050407256011793744,-0.009038794502317498,0.004077582344489027,0.6043940066686401,-0.0653340400118404,9.85571404001184
4810000000.0,22.22,0.04138975466077923,0.000851822070191282,0.0013201467671648463,0.59841,-0.007062639429126397,9.797442639429127
4815000000.0,22.22,0.03586415584989916,0.01061046148853831,-0.0003939309622369552,0.5875206194232062,0.047578967627989674,9.764579793525597
4820000000.0,22.22,0.02637811673752439,0.017137069341287538,-0.0002980819150368326,0.5548532255091323,0.08201169362271693,9.77076
4825000000.0,22.22,0.013159589141600394,0.0191811684794176,0.0010646508437165,0.5160056251206563,0.07455562512065625,9.78792796859918
4830000000.0,22.22,-0.005067880559638438,0.01627930244468319,0.0007026593751709093,0.4971709876339099,0.03904351854913519,9.836487469084775
4835000000.0,22.22,-0.01842432127213353,0.00643036878938364,-0.00035134497064846906,0.51012,0.00019563651555636746,9.855910424343705
4840000000.0,22.22,-0.0272725659054737,-0.0072453639995682,-4.2555425462457476e-05,0.5195378820335789,-0.08005082214550821,9.801366353899263
4845000000.0,22.22,-0.03287263960942502,-0.023397349233368902,0.001139145762870322,0.5517147764332478,-0.18501716464987164,9.75653597054156
4850000000.0,22.22,-0.03791904377651304,-0.03866962753705394,-0.0013840563206736045,0.5964485652325857,-0.2550609420543094,9.796266188410863
4855000000.0,22.22,-0.03663070369849194,-0.04811457962480759,-0.002129301687433,0.6461849829076499,-0.32657499430254994,9.82422497151275
4860000000.0,22.22,-0.024158652684633294,-0.05024380963994519,-0.0018311892062701386,0.6918020495970205,-0.3472744719983447,9.85905
4865000000.0,22.22,-0.006132265794259814,-0.044202424212726715,-0.0010646508437165,0.758018794496788,-0.3772924110064241,9.84580602751606
4870000000.0,22.22,0.005131688928730006,-0.030487626981657034,-0.0007878313583478817,0.767730694593907,-0.3502165270304653,9.789594443248745
4875000000.0,22.22,0.013046428816006855,-0.015184169069577681,0.0,0.7700848106179482,-0.29184664778076647,9.726614810617948
4880000000.0,22.22,0.023056610708452423,0.004859192260758792,0.0,0.757724494788145,-0.20679404169484042,9.735444947881449
4885000000.0,22.22,0.03367113854575694,0.024163899189970396,0.00024487999167725365,0.7471288409178884,-0.13135523580315236,9.814512789770529
4890000000.0,22.22,0.03800413354735106,0.041031808616421715,0.0017673513250569184,0.6715919351233194,-0.06337193512331935,9.827461705017617
4895000000.0,22.22,0.03011499850125344,0.05813307854459473,0.003587842387217047,0.6077290246024903,0.006671560636015608,9.811569219681992
4900000000.0,22.22,0.01832591565963818,0.07371229777351582,0.0010646508437165,0.5532832385870324,0.0725941903532419,9.776645809646759
4905000000.0,22.22,0.012477583810966194,0.07903881631267258,0.001873826844071608,0.47745203308382034,0.08269801417878014,9.762813995273738
4910000000.0,22.22,-0.00017046833886682307,0.07817320387424449,0.005514901720774346,0.41476641851656415,0.05003052314570523,9.76899410462914
4915000000.0,22.22,-0.01390749374404555,0.06758684720591353,0.005663901045121068,0.37425102266011023,0.0014710226601102258,9.7759601592118
4920000000.0,22.22,-0.031701576486954514,0.05126292580260384,0.0017885926746381941,0.3272612177396122,-0.04865817339058173,9.850809695565097
4925000000.0,22.22,-0.041858252214465576,0.03067648873308389,-0.0001597080085002813,0.2972431913244319,-0.1187023392710234,9.847277234702272
4930000000.0,22.22,-0.042922830331882274,0.0006999037585632079,-0.0009155893331133402,0.3166669915186699,-0.24780146183401464,9.784690487278006
4935000000.0,22.22,-0.03848329867902144,-0.031022604632663993,-0.00027683002541207646,0.3424677709951777,-0.33265777099517774,9.821478562708085
4940000000.0,22.22,-0.038259617876751605,-0.05608045066247971,-0.002129301687433,0.4151602554893026,-0.3959318878607189,9.891226224278562
4945000000.0,22.22,-0.027483316545282886,-0.0788154169295631,-0.002129301687433,0.5198327644562276,-0.4196716078986161,9.841588392101384
4950000000.0,22.22,-0.006707122926482789,-0.09661626444515124,-0.0023422527254623573,0.6062587691824877,-0.40122890385218907,9.85905
4955000000.0,22.22,0.010733376814418778,-0.10313183367582919,-0.004066945332630987,0.6830709737145099,-0.3906340075101401,9.85463501877535
4960000000.0,22.22,0.023226946242771634,-0.10034236479842686,-0.002129301687433,0.7502693780522938,-0.36728572560565725,9.804505725605658
4965000000.0,22.22,0.03414089172963686,-0.0892048112355917,-0.002278373738079625,0.8078539821958398,-0.2979288320474883,9.745450778635007
4970000000.0,22.22,0.049456072087984033,-0.06996094351067192,-0.004194713847439913,0.8528813034637129,-0.20993303463713037,9.801367393072574
4975000000.0,22.22,0.056408158272487435,-0.04629191496378378,-0.0029277373835042654,0.8461129831670298,-0.11183284039912841,9.81981
4980000000.0,22.22,0.055141171268508316,-0.013541324496011989,0.002044108624169111,0.8903550196168502,0.002747477113674771,9.81981
4985000000.0,22.22,0.048688821287607625,0.020204093329976806,6.390006746964564e-05,0.8317892222064923,0.07131957144879571,9.818926809517068
4990000000.0,22.22,0.03804663416458757,0.053821689940939575,0.002129301687433,0.7636096246018963,0.15735259384952593,9.787828139978082
4995000000.0,22.22,0.02326908454169451,0.08104042326560096,0.002171929839195321,0.6856198327592984,0.17638360595623603,9.662555408934354
5000000000.0,22.22,0.006387609768294773,0.08841847476642382,0.006387852362081909,0.5787894172859942,0.15695970864299708,9.633421942380018
5005000000.0,22.22,-0.0231417906744164,0.09790451387879863,0.0011178306329848184,0.5205180167032801,0.1278240083516401,9.8276599443224
5010000000.0,22.22,-0.03909029767377012,0.08965329039575548,2.128245575078484e-05,0.4814744107470441,0.06984661612056615,9.973828459698584
5015000000.0,22.22,-0.05181912705790577,0.07087710686146348,0.004130887560274471,0.4045636207171362,-0.04551956892429568,9.862580431075704
5020000000.0,22.22,-0.05833525028017942,0.04371114673957432,0.003236527982694628,0.38337460498504605,-0.1997331601196316,9.727202234895323
5025000000.0,22.22,-0.0646592763550959,0.019340622472870585,0.0001596658483264536,0.38259,-0.2898863784413638,9.740349195209191
5030000000.0,22.22,-0.06397782565537156,-0.009921795731655372,0.0,0.44714048391200484,-0.40495797242057974,9.824323479315435
5035000000.0,22.22,-0.05005205462931024,-0.024599157697164475,-0.0009901358984801074,0.4786301933965019,-0.4758837845918379,9.893483784591837
5040000000.0,22.22,-0.025485042578719915,-0.03928192514987925,-8.516144313351409e-05,0.5528923831676239,-0.498740595791906,9.907315297895952
5045000000.0,22.22,-0.005015874032715854,-0.04144302825643436,-0.0019376858053717287,0.5859515939792159,-0.50031,9.818828020069281
5050000000.0,22.22,0.010220797135893248,-0.03770605057830985,-0.00021290887785551434,0.615087294270573,-0.4208481171882812,9.730538117188281
5055000000.0,22.22,0.027835041303071056,-0.032542483288140515,-0.0009475499068916213,0.62676099818731,-0.3159790199395902,9.75663399274924
5060000000.0,22.22,0.04951800757774685,-0.026335558150048927,0.0008091559742724995,0.653738694853287,-0.23504681372456815,9.881810575982005
5065000000.0,22.22,0.05590782557153999,-0.017232761341840153,0.0010646508437165,0.6316656048553562,-0.15735161294761613,9.89829
5070000000.0,22.22,0.05096773882281479,-0.007731712222691608,0.0010646508437165,0.6278400000000001,-0.03747291977732921,9.864543206085331
5075000000.0,22.22,0.045533841189180045,0.003566698006035625,-0.001650240902192905,0.602824204272642,0.030411591454715912,9.792341211393714
5080000000.0,22.22,0.03757824938936624,0.01247779355783106,-0.00034066685262097284,0.5654480053083801,0.08868299203742992,9.706405511943855
5085000000.0,22.22,0.028262543703301942,0.012956790048806024,0.0026510127585267587,0.526600404919904,0.08995760122997601,9.724849595080096
5090000000.0,22.22,0.005666826390985997,0.010156736859763007,0.0023209281095377477,0.51993,0.07220140226571402,9.81196298867143
5095000000.0,22.22,-0.01274753327873005,0.004407590051160745,-0.0004578320837109466,0.51993,0.03688520414295204,9.877297193785571
5100000000.0,22.22,-0.021949335928990933,-0.0036198988753908586,0.0006388120079185548,0.559170495306905,-0.03335479249104793,9.864935702815856
5105000000.0,22.22,-0.030168451277647283,-0.017112231486975715,0.00022356591579609413,0.553480001683,-0.11104999326799994,9.797050006732
5110000000.0,22.22,-0.038600486044202686,-0.03187195734346057,0.0,0.595271395533714,-0.19639709330057095,9.757614302233144
5115000000.0,22.22,-0.03965439342162226,-0.040889474660049066,0.0,0.64598899676369,-0.2913579935273799,9.78890899676369
5120000000.0,22.22,-0.03374551647042838,-0.0426034870411815,-0.0008091454342290412,0.702004196699142,-0.336287098349571,9.844924196699141
5125000000.0,22.22,-0.018369406539875725,-0.04100648916851766,-0.0010646508437165,0.738202798640928,-0.358065199093952,9.851692400453024
5130000000.0,22.22,-0.005174084145531851,-0.03259566096940015,-0.00027679840528170184,0.76007899928819,-0.37748899928818996,9.82020200142362
5135000000.0,22.22,0.0033111398963308817,-0.021278411570668267,-0.0007772059405376766,0.7795027994824281,-0.33962160155271603,9.759870201811502
5140000000.0,22.22,0.014534534078509699,0.0010600349785534757,-0.0010646508437165,0.798926599676666,-0.25309700161667004,9.762519899514999
5145000000.0,22.22,0.02945521180685303,0.022891944715345672,0.00044717504577036706,0.755663600451836,-0.169908400516384,9.798620799741808
5150000000.0,22.22,0.038557878972527285,0.04889743762045285,0.0033004501842555057,0.7014144998371451,-0.092213199739432,9.81
5155000000.0,22.22,0.033862605813205514,0.06781073143102208,0.00499322332381536,0.60547199844372,-0.028055999221859994,9.81
5160000000.0,22.22,0.022204646347674432,0.0825786606897243,0.004599280767530563,0.542296399092764,0.023544501134045007,9.776645498865955
5165000000.0,22.22,0.014538188985448241,0.09306034468755595,0.002831949468556138,0.47058479708464795,0.06553120129571201,9.747804399352143
5170000000.0,22.22,0.006451686027277769,0.0881414508042121,0.0042373430532066094,0.39612709705267096,0.07200529957895299,9.780178202526283
5175000000.0,22.22,-0.006494522871900584,0.0709997865223395,0.003939186303861227,0.34089699740917,0.03678699740916997,9.812943201036333
5180000000.0,22.22,-0.02466869129691117,0.04482393805683053,0.0011497901527587882,0.32373,-0.024329504306995056,9.87003800492228
5185000000.0,22.22,-0.03463994245028207,0.01596527857568578,-0.0006707409615664612,0.31754959928759596,-0.12321480854884809,9.885929198575191
5190000000.0,22.22,-0.03819586536989038,-0.015150495375883494,-0.0010646508437165,0.326084601619046,-0.2215107072857071,9.842176195142862
5195000000.0,22.22,-0.03681174264694291,-0.04524411699296402,-0.0010646508437165,0.38141360725313606,-0.29096520543985205,9.78988899546679
5200000000.0,22.22,-0.033873328199415506,-0.07052550575048026,-0.002342253779466753,0.45322270702632705,-0.36100880803008806,9.788418303011284
5205000000.0,22.22,-0.027996389687908664,-0.08492641291612438,-0.0031939525311496,0.5385700110088001,-0.40397600220176005,9.84070600770616
5210000000.0,22.22,-0.011526621694595637,-0.09150592226643708,-0.0044289694753113645,0.6356890119799902,-0.417709901197999,9.891619604791995
5215000000.0,22.22,0.010017886353195844,-0.09131418622788036,-0.0035026682960313904,0.7104408077707082,-0.3938709935244099,9.868957390934174
5220000000.0,22.22,0.023950892289710708,-0.08471330693945614,-0.0027255171637196665,0.7632185069611851,-0.3398177916465779,9.811961493038815
5225000000.0,22.22,0.03355406501304511,-0.07100155187594621,-0.002022814574370567,0.8063824059574242,-0.2761507895745079,9.768797594042576
5230000000.0,22.22,0.042953688468951076,-0.04674205195183229,-0.0010646508437165,0.8293375015864751,-0.18697748254877483,9.7723300063459
5235000000.0,22.22,0.05365085549971081,-0.016084099543930478,6.390112147399156e-05,0.8234511966328121,-0.08534598316405984,9.816377008417971
5240000000.0,22.22,0.055779947440279073,0.014999680105721426,0.0016182803284146242,0.7836221893157219,0.0015704142457041437,9.819024792877148
5245000000.0,22.22,0.044049151764695614,0.04015325502624185,0.003215267661035056,0.7403603943665039,0.07926561502265614,9.755161183099512
5250000000.0,22.22,0.028230534645323782,0.05912321655108363,0.0037262668859622187,0.6916042861753429,0.13734040789980406,9.721710203949902
5255000000.0,22.22,0.013455297145111516,0.0707810105379324,0.0021505725491360317,0.6236209854955099,0.14734599585585995,9.75555501036035
5260000000.0,22.22,-0.0007667038412359729,0.07145164082904255,0.0036198683092647857,0.5509287826464878,0.12792219566162194,9.808823413015135
5265000000.0,22.22,-0.021035334859475376,0.061230859503214406,0.004886714076661604,0.4870659886684599,0.06700117507061176,9.844040802266308
5270000000.0,22.22,-0.042015466794258834,0.04191000878684931,0.0017247010392033692,0.46107,-0.03080432127084321,9.813138381092584
5275000000.0,22.22,-0.05198991223739044,0.021195950763128895,-0.0004791039994182734,0.465484602460546,-0.13586983198709832,9.761930795078907
5280000000.0,22.22,-0.05386364211306225,0.002682730911305555,-0.0001277358406741963,0.47951300511533007,-0.24054202046132023,9.77703901534599
5285000000.0,22.22,-0.05097839375274666,-0.011580360037052234,0.0015224618473405303,0.5158104159287041,-0.3393292345121924,9.826873610619137
5290000000.0,22.22,-0.04614820596370885,-0.021970676354980765,-0.00010652084120158552,0.5740818165114182,-0.43262151375951513,9.84924
5295000000.0,22.22,-0.03406474171264241,-0.0287630260728665,-0.0031939525311496,0.6162644056980441,-0.4490033914529339,9.841195594301956
5300000000.0,22.22,-0.011721407624317753,-0.025781925503337723,-0.001916338001351563,0.6435364117845642,-0.43164,9.82962
5305000000.0,22.22,0.00854550802776701,-0.015905738042977992,0.0008304500240710883,0.6594279939134801,-0.3895539665241397,9.82579399695674
5310000000.0,22.22,0.023077868922103274,-0.0001701426515238651,0.0013201446591561547,0.643732096859621,-0.29390677487696776,9.81608209685962
5315000000.0,22.22,0.030455899342839182,0.016838733393924617,0.00039393201624130105,0.626760590287506,-0.20895196762501966,9.81
5320000000.0,22.22,0.03745064424523088,0.032468212871912386,0.001831221880404895,0.5976248899961489,-0.11536466998844669,9.795873186661533
5325000000.0,22.22,0.041538836197465,0.04734737070814487,0.0035665915515966577,0.5444539656826397,-0.03825837940958379,9.777627206863471
5330000000.0,22.22,0.03755691844941553,0.05111682035950046,0.00462059589741607,0.4706834894134349,0.010006510586565105,9.82373503528855
5335000000.0,22.22,0.024551726775894647,0.0458409714032293,0.004620562169277037,0.4318355782441558,0.04237961450389614,9.88848
5340000000.0,22.22,0.009411367120490826,0.03191414492140636,0.002171853950882488,0.3924,0.05925208883072088,9.869644177661442
5345000000.0,22.22,-0.0026404242308686672,0.008060532550270888,0.0,0.38631759235957597,0.02099277707872777,9.817455184719153
5350000000.0,22.22,-0.012994134355831483,-0.019488696225892846,-0.0006388130619229005,0.38455241566932413,-0.04610793525597935,9.781550688248007
5355000000.0,22.22,-0.026218612151862875,-0.052493931379013,-0.0015117816213043424,0.44331504415895046,-0.13920504415895046,9.7837100321156
5360000000.0,22.22,-0.0330216294477327,-0.08207326425816065,-0.0002981135351672072,0.5419052328925523,-0.2350483287809833,9.850417616446276
5365000000.0,22.22,-0.03100936018684202,-0.09788320507293918,-0.0016395849182566985,0.6196004336695043,-0.3083292378781924,9.873372391582624
5370000000.0,22.22,-0.02251950956698511,-0.10276985063931834,-0.003470773070522564,0.7023970430580705,-0.38043211291742113,9.843745774165157
5375000000.0,22.22,-0.010912546512080607,-0.09746775344996925,-0.003460081250438547,0.7946108352234084,-0.40221,9.78792697798537
5380000000.0,22.22,0.0009370288355117478,-0.0816853934580582,-0.001320178387295221,0.8675970270002702,-0.3880829729997297,9.76055801800018
5385000000.0,22.22,0.01407885752007975,-0.060981869153769866,-0.001639539596069801,0.914586404597164,-0.3185295494311955,9.797149213791492
5390000000.0,22.22,0.028379888115130748,-0.032037901722887535,0.0,0.924298304694283,-0.22896508591715087,9.813335085917151
5395000000.0,22.22,0.039462823915752225,0.005923533486379121,0.00044717609977471277,0.9175285664601857,-0.18334774729457748,9.784199385625794
5400000000.0,22.22,0.04239048857295663,0.04431434264474071,0.0023422432394232546,0.8456210560033106,-0.07651684622626848,9.755063685334436
5405000000.0,22.22,0.03626875755213319,0.08095541676110625,0.003396247585242713,0.7582139551292396,0.022858034899480347,9.7221999750718
5410000000.0,22.22,0.0306154387106441,0.10136781279715985,0.00445025193106211,0.6672750440896505,0.09084133557931336,9.698363145744832
5415000000.0,22.22,0.02106241634346428,0.11222015587691425,0.005142252160283813,0.5621119482012195,0.14548219482012195,9.785770246618902
5420000000.0,22.22,0.0008486994527260581,0.1119403940088236,0.0037475366936608376,0.4712717683380177,0.13263088416900884,9.866898526384984
5425000000.0,22.22,-0.019287793667049455,0.09735855434916747,0.0010646508437165,0.4144719731294197,0.09319394625883946,9.897798762381187
5430000000.0,22.22,-0.03344760425009121,0.07115079590208884,0.0010646508437165,0.3631654617013546,-0.003925054712350547,9.82294793434518
5435000000.0,22.22,-0.04371308469071233,0.039236554634317924,0.0009262347770061159,0.3104870278417703,-0.10614567795695677,9.719159188863292
5440000000.0,22.22,-0.05139368622106034,0.0058744455147687604,-0.0001277695688132625,0.3578692226618922,-0.2362257509892575,9.718572279316623
5445000000.0,22.22,-0.05303320262903461,-0.023301562372425175,-0.0010646508437165,0.39671682305036826,-0.3236328518633285,9.853459674913697
5450000000.0,22.22,-0.04985868268961505,-0.03962248765606995,-0.0010646508437165,0.4375266351582664,-0.40907774101797745,9.964016682420867
5455000000.0,22.22,-0.03652411223899927,-0.042307047783278276,-0.000968820768594602,0.49403202382732025,-0.4735290178704902,9.92075288682023
5460000000.0,22.22,-0.016496633216344647,-0.049903129085267735,0.0,0.5344494363236943,-0.4932458455144585,9.748000375784203
5465000000.0,22.22,0.003323116876008763,-0.04786965747295654,-0.0001490741586553096,0.5906604184532042,-0.40927277539572776,9.71876806151068
5470000000.0,22.22,0.020203417782306176,-0.04604791876338982,-0.002065411106002467,0.6221509437373095,-0.3663042312699423,9.815298356233685
5475000000.0,22.22,0.036695651584511435,-0.03227621227826491,-0.0010114067601830882,0.685718787309388,-0.2604545428922454,9.89927121269061
5480000000.0,22.22,0.04598528320739627,-0.017263867601899262,0.0,0.665902480672725,-0.17265493557574935,9.913592429133324
5485000000.0,22.22,0.049945691888760614,0.003513463408541298,0.0,0.6361779673022797,-0.07700796730227967,9.80705593460456
5490000000.0,22.22,0.04568671607022763,0.014011246942622565,4.2609179684094194e-05,0.588403693363337,-0.02785954690669547,9.711507386726673
5495000000.0,22.22,0.03931361168252757,0.02239643719445715,0.002129301687433,0.5782007595973077,0.04954103366891034,9.69365489427295
5500000000.0,22.22,0.02982749122175178,0.024504399509904694,0.002129313281480804,0.5199295726763957,0.09809989316909894,9.829621495632615
5505000000.0,22.22,0.012946142928873541,0.022396390818265933,0.0031833176273002813,0.4810819722879197,0.08838799307197992,9.965588096992281
5510000000.0,22.22,-0.002874731504953005,0.007750844405904327,6.384420523931943e-05,0.47107609297486097,0.05944827892458279,9.890048743798888
5515000000.0,22.22,-0.018701726576573298,-0.012169180031370727,-0.0010327229440729394,0.47088,-0.007750649855806514,9.726711278921613
5520000000.0,22.22,-0.030424009387352076,-0.036300323738219786,-0.004130880182244049,0.5085508288775084,-0.10398707219377074,9.636950635025606
5525000000.0,22.22,-0.03594947750169327,-0.058536842555276476,-0.001224313530029916,0.6033160731649607,-0.1824668585319686,9.791853324380433
5530000000.0,22.22,-0.03521479852850063,-0.06666083798583741,0.0009369160570466496,0.6727705518953057,-0.29704808896338086,9.91084808896338
5535000000.0,22.22,-0.0331706572301968,-0.0690881836441509,-0.0009156230612524065,0.7316304450644044,-0.34972703755367035,9.93615681502147
5540000000.0,22.22,-0.019308763083509504,-0.06140128778991607,-0.003023631752891255,0.7989271532549715,-0.3982865380392654,9.793125078274352
5545000000.0,22.22,-0.0055056635109132675,-0.051031565109980234,-0.0012562646177690885,0.8312016231149163,-0.3843555845900558,9.69129792295028
5550000000.0,22.22,0.006281568671858143,-0.03664302366155128,-0.00010645338492341146,0.8868246468125465,-0.35610267659372674,9.726615539010455
