#timestamp [ns], temperature [degC], w_RS_S_x [rad s^-1], w_RS_S_y [rad s^-1], w_RS_S_z [rad s^-1], a_RS_S_x [m s^-2], a_RS_S_y [m s^-2], a_RS_S_z [m s^-2]
0,21.78,0.0,0.0,0.0,0.72594,0.46107000000000004,9.83943
5050505,21.78,0.0,0.0,0.0,0.7651800000000001,0.44145,9.83943
10101010,21.78,0.0,0.0,0.0,0.73575,0.47088,9.81
15151515,21.78,0.0,0.0,0.0,0.75537,0.48069000000000006,9.819809999999999
20202020,21.78,0.0,0.0,0.0,0.7651800000000001,0.46107000000000004,9.83943
25252525,21.78,0.0,0.0,0.0,0.7651800000000001,0.46107000000000004,9.82962
30303030,21.78,0.0,0.0,0.0,0.72594,0.49050000000000005,9.81
35353535,21.78,0.0,0.0,0.0,0.72594,0.48069000000000006,9.79038
40404040,21.78,0.0,0.0,0.0,0.74556,0.47088,9.80019
45454545,21.78,0.0,0.0,0.0,0.75537,0.46107000000000004,9.819809999999999
50505050,21.78,0.0,0.0,0.0,0.73575,0.46107000000000004,9.83943
55555555,21.78,0.0,0.0,0.0,0.75537,0.49050000000000005,9.83943
60606060,21.78,0.0,0.0,0.0,0.74556,0.47088,9.83943
65656565,21.78,0.0,0.0,0.0,0.7651800000000001,0.47088,9.81
70707070,21.78,0.0,0.0,0.0,0.74556,0.45126,9.82962
75757575,21.78,0.0,0.0,0.0,0.73575,0.49050000000000005,9.80019
80808080,21.78,0.0,0.0,0.0,0.73575,0.48069000000000006,9.84924
85858585,21.78,0.0,0.0,0.0,0.7848,0.47088,9.84924
90909090,21.78,0.0,0.0,0.0,0.73575,0.47088,9.83943
95959595,21.78,0.0,0.0,0.0,0.74556,0.46107000000000004,9.83943
101010100,21.78,0.0,0.0,0.0,0.75537,0.48069000000000006,9.79038
106060605,21.78,0.0,0.0,0.0,0.74556,0.47088,9.819809999999999
111111110,21.78,0.0,0.0,0.0,0.75537,0.50031,9.80019
116161615,21.78,0.0,0.0,0.0,0.74556,0.49050000000000005,9.84924
121212120,21.78,0.0,0.0,0.0,0.7749900000000001,0.46107000000000004,9.84924
126262625,21.78,0.0,0.0,0.0,0.7651800000000001,0.48069000000000006,9.81
131313130,21.78,0.0,0.0,0.0,0.72594,0.47088,9.81
136363635,21.78,0.0,0.0,0.0,0.75537,0.47088,9.81
141414140,21.78,0.0,0.0,0.0,0.74556,0.48069000000000006,9.83943
146464645,21.78,0.0,0.0,0.0,0.74556,0.47088,9.82962
151515150,21.78,0.0,0.0,0.0,0.75537,0.47088,9.82962
156565655,21.78,0.0,0.0,0.0,0.74556,0.45126,9.819809999999999
161616160,21.78,0.0,0.0,0.0,0.75537,0.48069000000000006,9.819809999999999
166666665,21.78,0.0,0.0,0.0,0.72594,0.48069000000000006,9.81
171717170,21.78,0.0,0.0,0.0,0.73575,0.47088,9.82962
176767675,21.78,0.0,0.0,0.0,0.73575,0.51012,9.819809999999999
181818180,21.78,0.0,0.0,0.0,0.72594,0.47088,9.82962
186868685,21.78,0.0,0.0,0.0,0.75537,0.45126,9.81
191919190,21.78,0.0,0.0,0.0,0.7651800000000001,0.46107000000000004,9.83943
196969695,21.78,0.0,0.0,0.0,0.7651800000000001,0.46107000000000004,9.86886
202020200,21.78,0.0,0.0,0.0,0.73575,0.48069000000000006,9.81
207070705,21.78,0.0,0.0,0.0,0.73575,0.49050000000000005,9.78057
212121210,21.78,0.0,0.0,0.0,0.73575,0.48069000000000006,9.80019
217171715,21.78,0.0,0.0,0.0,0.75537,0.47088,9.819809999999999
222222220,21.78,0.0,0.0,0.0,0.7651800000000001,0.45126,9.86886
227272725,21.78,0.0,0.0,0.0,0.73575,0.48069000000000006,9.86886
232323230,21.78,0.0,0.0,0.0,0.74556,0.48069000000000006,9.80019
237373735,21.78,0.0,0.0,0.0,0.73575,0.48069000000000006,9.751140000000001
242424240,21.78,0.0,0.0,0.0,0.73575,0.46107000000000004,9.79038
247474745,21.78,0.0,0.0,0.0,0.7749900000000001,0.48069000000000006,9.82962
252525250,21.78,0.0,0.0,0.0,0.75537,0.47088,9.86886
257575755,21.78,0.0,0.0,0.0,0.75537,0.47088,9.82962
262626260,21.78,0.0,0.0,0.0,0.74556,0.47088,9.79038
267676765,21.78,0.0,0.0,0.0,0.72594,0.49050000000000005,9.78057
272727270,21.78,0.0,0.0,0.0,0.7651800000000001,0.47088,9.83943
277777775,21.78,0.0,0.0,0.0,0.7651800000000001,0.46107000000000004,9.86886
282828280,21.78,0.0,0.0,0.0,0.75537,0.48069000000000006,9.83943
287878785,21.78,0.0,0.0,0.0,0.7651800000000001,0.45126,9.819809999999999
292929290,21.78,0.0,0.0,0.0,0.74556,0.48069000000000006,9.81
297979795,21.78,0.0,0.0,0.0,0.7651800000000001,0.49050000000000005,9.83943
303030300,21.78,0.0,0.0,0.0,0.7749900000000001,0.48069000000000006,9.85905
308080805,21.78,0.0,0.0,0.0,0.75537,0.49050000000000005,9.80019
313131310,21.78,0.0,0.0,0.0,0.75537,0.48069000000000006,9.81
318181815,21.78,0.0,0.0,0.0,0.74556,0.46107000000000004,9.80019
323232320,21.78,0.0,0.0,0.0,0.75537,0.48069000000000006,9.85905
328282825,21.78,0.0,0.0,0.0,0.7651800000000001,0.49050000000000005,9.86886
333333330,21.78,0.0,0.0,0.0,0.75537,0.48069000000000006,9.82962
338383835,21.78,0.0,0.0,0.0,0.74556,0.48069000000000006,9.80019
343434340,21.78,0.0,0.0,0.0,0.72594,0.48069000000000006,9.81
348484845,21.78,0.0,0.0,0.0,0.74556,0.49050000000000005,9.81
353535350,21.78,0.0,0.0,0.0,0.75537,0.48069000000000006,9.84924
358585855,21.78,0.0,0.0,0.0,0.73575,0.47088,9.85905
363636360,21.78,0.0,0.0,0.0,0.74556,0.48069000000000006,9.81
368686865,21.78,0.0,0.0,0.0,0.74556,0.47088,9.80019
373737370,21.78,0.0,0.0,0.0,0.7651800000000001,0.47088,9.81
378787875,21.78,0.0,0.0,0.0,0.71613,0.45126,9.819809999999999
383838380,21.78,0.0,0.0,0.0,0.75537,0.50031,9.85905
388888885,21.78,0.0,0.0,0.0,0.73575,0.47088,9.83943
393939390,21.78,0.0,0.0,0.0,0.75537,0.48069000000000006,9.81
398989895,21.78,0.0,0.0,0.0,0.7848,0.47088,9.819809999999999
404040400,21.78,0.0,0.0,0.0,0.73575,0.46107000000000004,9.80019
409090905,21.78,0.0,0.0,0.0,0.74556,0.47088,9.81
414141410,21.78,0.0,0.0,0.0,0.74556,0.49050000000000005,9.888480000000001
419191915,21.78,0.0,0.0,0.0,0.74556,0.49050000000000005,9.81
424242420,21.78,0.0,0.0,0.0,0.75537,0.50031,9.81
429292925,21.78,0.0,0.0,0.0,0.73575,0.48069000000000006,9.81
434343430,21.78,0.0,0.0,0.0,0.74556,0.48069000000000006,9.81
439393935,21.78,0.0,0.0,0.0,0.7651800000000001,0.48069000000000006,9.85905
444444440,21.78,0.0,0.0,0.0,0.75537,0.50031,9.84924
449494945,21.78,0.0,0.0,0.0,0.75537,0.49050000000000005,9.82962
454545450,21.78,0.0,0.0,0.0,0.75537,0.47088,9.80019
459595955,21.78,0.0,0.0,0.0,0.72594,0.47088,9.79038
464646460,21.78,0.0,0.0,0.0,0.7651800000000001,0.47088,9.819809999999999
469696965,21.78,0.0,0.0,0.0,0.74556,0.49050000000000005,9.85905
474747470,21.78,0.0,0.0,0.0,0.74556,0.48069000000000006,9.83943
479797975,21.78,0.0,0.0,0.0,0.73575,0.46107000000000004,9.81
484848480,21.78,0.0,0.0,0.0,0.72594,0.48069000000000006,9.81
489898985,21.78,0.0,0.0,0.0,0.74556,0.47088,9.81
494949490,21.78,0.0,0.0,0.0,0.73575,0.49050000000000005,9.84924
499999995,21.78,0.0,0.0,0.0,0.75537,0.47088,9.83943
505050500,21.78,0.0,0.0,0.0,0.70632,0.46107000000000004,9.79038
510101005,21.78,0.0,0.0,0.0,0.7651800000000001,0.46107000000000004,9.770760000000001
515151510,21.78,0.0,0.0,0.0,0.7651800000000001,0.48069000000000006,9.82962
520202015,21.78,0.0,0.0,0.0,0.7651800000000001,0.47088,9.83943
525252520,21.78,0.0,0.0,0.0,0.7651800000000001,0.47088,9.84924
530303025,21.78,0.0,0.0,0.0,0.75537,0.50031,9.82962
535353530,21.78,0.0,0.0,0.0,0.73575,0.45126,9.78057
540404035,21.78,0.0,0.0,0.0,0.75537,0.47088,9.80019
545454540,21.78,0.0,0.0,0.0,0.73575,0.46107000000000004,9.81
550505045,21.78,0.0,0.0,0.0,0.7651800000000001,0.45126,9.87867
555555550,21.78,0.0,0.0,0.0,0.75537,0.47088,9.819809999999999
560606055,21.78,0.0,0.0,0.0,0.73575,0.48069000000000006,9.819809999999999
565656560,21.78,0.0,0.0,0.0,0.73575,0.48069000000000006,9.81
570707065,21.78,0.0,0.0,0.0,0.73575,0.45126,9.82962
575757570,21.78,0.0,0.0,0.0,0.73575,0.46107000000000004,9.85905
580808075,21.78,0.0,0.0,0.0,0.75537,0.47088,9.82962
585858580,21.78,0.0,0.0,0.0,0.75537,0.48069000000000006,9.81
590909085,21.78,0.0,0.0,0.0,0.75537,0.47088,9.819809999999999
595959590,21.78,0.0,0.0,0.0,0.74556,0.49050000000000005,9.81
601010095,21.78,0.0,0.0,0.0,0.74556,0.47088,9.83943
606060600,21.78,0.0,0.0,0.0,0.72594,0.45126,9.86886
611111105,21.78,0.0,0.0,0.0,0.74556,0.48069000000000006,9.81
616161610,21.78,0.0,0.0,0.0,0.72594,0.48069000000000006,9.81
621212115,21.78,0.0,0.0,0.0,0.75537,0.49050000000000005,9.819809999999999
626262620,21.78,0.0,0.0,0.0,0.75537,0.47088,9.82962
631313125,21.78,0.0,0.0,0.0,0.74556,0.48069000000000006,9.82962
636363630,21.78,0.0,0.0,0.0,0.74556,0.48069000000000006,9.819809999999999
641414135,21.78,0.0,0.0,0.0,0.73575,0.51012,9.80019
646464640,21.78,0.0,0.0,0.0,0.73575,0.48069000000000006,9.79038
651515145,21.78,0.0,0.0,0.0,0.73575,0.50031,9.819809999999999
656565650,21.78,0.0,0.0,0.0,0.74556,0.49050000000000005,9.83943
661616155,21.78,0.0,0.0,0.0,0.72594,0.46107000000000004,9.82962
666666660,21.78,0.0,0.0,0.0,0.73575,0.46107000000000004,9.84924
671717165,21.78,0.0,0.0,0.0,0.73575,0.45126,9.81
676767670,21.78,0.0,0.0,0.0,0.74556,0.48069000000000006,9.819809999999999
681818175,21.78,0.0,0.0,0.0,0.74556,0.49050000000000005,9.82962
686868680,21.78,0.0,0.0,0.0,0.75537,0.46107000000000004,9.82962
691919185,21.78,0.0,0.0,0.0,0.7848,0.46107000000000004,9.79038
696969690,21.78,0.0,0.0,0.0,0.75537,0.46107000000000004,9.819809999999999
702020195,21.78,0.0,0.0,0.0,0.74556,0.48069000000000006,9.819809999999999
707070700,21.78,0.0,0.0,0.0,0.75537,0.45126,9.81
712121205,21.78,0.0,0.0,0.0,0.72594,0.47088,9.82962
717171710,21.78,0.0,0.0,0.0,0.73575,0.48069000000000006,9.81
722222215,21.78,0.0,0.0,0.0,0.73575,0.45126,9.81
727272720,21.78,0.0,0.0,0.0,0.7651800000000001,0.48069000000000006,9.79038
732323225,21.78,0.0,0.0,0.0,0.74556,0.47088,9.84924
737373730,21.78,0.0,0.0,0.0,0.75537,0.46107000000000004,9.81
742424235,21.78,0.0,0.0,0.0,0.75537,0.49050000000000005,9.82962
747474740,21.78,0.0,0.0,0.0,0.75537,0.49050000000000005,9.80019
752525245,21.78,0.0,0.0,0.0,0.72594,0.49050000000000005,9.80019
757575750,21.78,0.0,0.0,0.0,0.7749900000000001,0.47088,9.819809999999999
762626255,21.78,0.0,0.0,0.0,0.7651800000000001,0.47088,9.84924
767676760,21.78,0.0,0.0,0.0,0.74556,0.46107000000000004,9.84924
772727265,21.78,0.0,0.0,0.0,0.72594,0.47088,9.819809999999999
777777770,21.78,0.0,0.0,0.0,0.74556,0.48069000000000006,9.81
782828275,21.78,0.0,0.0,0.0,0.75537,0.48069000000000006,9.78057
787878780,21.78,0.0,0.0,0.0,0.75537,0.47088,9.819809999999999
792929285,21.78,0.0,0.0,0.0,0.7651800000000001,0.47088,9.85905
797979790,21.78,0.0,0.0,0.0,0.7651800000000001,0.47088,9.83943
803030295,21.78,0.0,0.0,0.0,0.75537,0.51993,9.819809999999999
808080800,21.78,0.0,0.0,0.0,0.74556,0.46107000000000004,9.81
813131305,21.78,0.0,0.0,0.0,0.74556,0.48069000000000006,9.82962
818181810,21.78,0.0,0.0,0.0,0.7651800000000001,0.48069000000000006,9.82962
823232315,21.78,0.0,0.0,0.0,0.74556,0.46107000000000004,9.82962
828282820,21.78,0.0,0.0,0.0,0.74556,0.50031,9.84924
833333325,21.78,0.0,0.0,0.0,0.72594,0.47088,9.81
838383830,21.78,0.0,0.0,0.0,0.75537,0.48069000000000006,9.80019
843434335,21.78,0.0,0.0,0.0,0.72594,0.48069000000000006,9.82962
848484840,21.78,0.0,0.0,0.0,0.73575,0.49050000000000005,9.83943
853535345,21.78,0.0,0.0,0.0,0.74556,0.47088,9.819809999999999
858585850,21.78,0.0,0.0,0.0,0.72594,0.47088,9.82962
863636355,21.78,0.0,0.0,0.0,0.74556,0.48069000000000006,9.81
868686860,21.78,0.0,0.0,0.0,0.74556,0.47088,9.819809999999999
873737365,21.78,0.0,0.0,0.0,0.74556,0.49050000000000005,9.82962
878787870,21.78,0.0,0.0,0.0,0.74556,0.47088,9.83943
883838375,21.78,0.0,0.0,0.0,0.75537,0.49050000000000005,9.80019
888888880,21.78,0.0,0.0,0.0,0.73575,0.46107000000000004,9.80019
893939385,21.78,0.0,0.0,0.0,0.75537,0.45126,9.80019
898989890,21.78,0.0,0.0,0.0,0.74556,0.48069000000000006,9.83943
904040395,21.78,0.0,0.0,0.0,0.73575,0.48069000000000006,9.84924
909090900,21.78,0.0,0.0,0.0,0.74556,0.48069000000000006,9.81
914141405,21.78,0.0,0.0,0.0,0.73575,0.47088,9.819809999999999
919191910,21.78,0.0,0.0,0.0,0.74556,0.48069000000000006,9.82962
924242415,21.78,0.0,0.0,0.0,0.75537,0.47088,9.83943
929292920,21.78,0.0,0.0,0.0,0.75537,0.46107000000000004,9.819809999999999
934343425,21.78,0.0,0.0,0.0,0.7749900000000001,0.47088,9.81
939393930,21.78,0.0,0.0,0.0,0.73575,0.48069000000000006,9.81
944444435,21.78,0.0,0.0,0.0,0.73575,0.47088,9.79038
949494940,21.78,0.0,0.0,0.0,0.7651800000000001,0.49050000000000005,9.81
954545445,21.78,0.0,0.0,0.0,0.74556,0.50031,9.819809999999999
959595950,21.78,0.0,0.0,0.0,0.75537,0.48069000000000006,9.85905
964646455,21.78,0.0,0.0,0.0,0.7651800000000001,0.48069000000000006,9.83943
969696960,21.78,0.0,0.0,0.0,0.74556,0.48069000000000006,9.81
974747465,21.78,0.0,0.0,0.0,0.73575,0.47088,9.82962
979797970,21.78,0.0,0.0,0.0,0.73575,0.44145,9.80019
984848475,21.78,0.0,0.0,0.0,0.73575,0.48069000000000006,9.819809999999999
989898980,21.78,0.0,0.0,0.0,0.7651800000000001,0.49050000000000005,9.82962
994949485,21.78,0.0,0.0,0.0,0.7651800000000001,0.49050000000000005,9.82962
999999990,21.78,0.0,0.0,0.0,0.75537,0.49050000000000005,9.81
1005050495,21.78,0.0,0.0,0.0,0.75537,0.49050000000000005,9.819809999999999
1010101000,21.78,0.0,0.0,0.0,0.75537,0.47088,9.82962
1015151505,21.78,0.0,0.0,0.0,0.75537,0.46107000000000004,9.819809999999999
1020202010,21.78,0.0,0.0,0.0,0.75537,0.47088,9.819809999999999
1025252515,21.78,0.0,0.0,0.0,0.74556,0.49050000000000005,9.83943
1030303020,21.78,0.0,0.0,0.0,0.74556,0.48069000000000006,9.83943
1035353525,21.78,0.0,0.0,0.0,0.75537,0.49050000000000005,9.819809999999999
1040404030,21.78,0.0,0.0,0.0,0.75537,0.46107000000000004,9.819809999999999
1045454535,21.78,0.0,0.0,0.0,0.73575,0.45126,9.81
1050505040,21.78,0.0,0.0,0.0,0.72594,0.49050000000000005,9.81
1055555545,21.78,0.0,0.0,0.0,0.7749900000000001,0.49050000000000005,9.819809999999999
1060606050,21.78,0.0,0.0,0.0,0.74556,0.48069000000000006,9.83943
1065656555,21.78,0.0,0.0,0.0,0.75537,0.48069000000000006,9.81
1070707060,21.78,0.0,0.0,0.0,0.72594,0.48069000000000006,9.81
1075757565,21.78,0.0,0.0,0.0,0.72594,0.47088,9.819809999999999
1080808070,21.78,0.0,0.0,0.0,0.74556,0.48069000000000006,9.81
1085858575,21.78,0.0,0.0,0.0,0.7651800000000001,0.50031,9.82962
1090909080,21.78,0.0,0.0,0.0,0.74556,0.48069000000000006,9.84924
1095959585,21.78,0.0,0.0,0.0,0.73575,0.49050000000000005,9.84924
1101010090,21.78,0.0,0.0,0.0,0.74556,0.47088,9.80019
1106060595,21.78,0.0,0.0,0.0,0.74556,0.47088,9.81
1111111100,21.78,0.0,0.0,0.0,0.73575,0.47088,9.80019
1116161605,21.78,0.0,0.0,0.0,0.7749900000000001,0.46107000000000004,9.81
1121212110,21.78,0.0,0.0,0.0,0.74556,0.49050000000000005,9.84924
1126262615,21.78,0.0,0.0,0.0,0.75537,0.47088,9.84924
1131313120,21.78,0.0,0.0,0.0,0.74556,0.47088,9.84924
1136363625,21.78,0.0,0.0,0.0,0.75537,0.49050000000000005,9.81
1141414130,21.78,0.0,0.0,0.0,0.73575,0.46107000000000004,9.78057
1146464635,21.78,0.0,0.0,0.0,0.73575,0.45126,9.80019
1151515140,21.78,0.0,0.0,0.0,0.7651800000000001,0.48069000000000006,9.82962
1156565645,21.78,0.0,0.0,0.0,0.73575,0.48069000000000006,9.83943
1161616150,21.78,0.0,0.0,0.0,0.72594,0.51012,9.82962
1166666655,21.78,0.0,0.0,0.0,0.74556,0.48069000000000006,9.82962
1171717160,21.78,0.0,0.0,0.0,0.75537,0.48069000000000006,9.80019
1176767665,21.78,0.0,0.0,0.0,0.75537,0.48069000000000006,9.82962
1181818170,21.78,0.0,0.0,0.0,0.74556,0.49050000000000005,9.819809999999999
1186868675,21.78,0.0,0.0,0.0,0.7651800000000001,0.47088,9.83943
1191919180,21.78,0.0,0.0,0.0,0.73575,0.48069000000000006,9.819809999999999
1196969685,21.78,0.0,0.0,0.0,0.73575,0.49050000000000005,9.79038
1202020190,21.78,0.0,0.0,0.0,0.7848,0.47088,9.81
1207070695,21.78,0.0,0.0,0.0,0.73575,0.47088,9.82962
1212121200,21.78,0.0,0.0,0.0,0.74556,0.47088,9.84924
1217171705,21.78,0.0,0.0,0.0,0.75537,0.48069000000000006,9.819809999999999
1222222210,21.78,0.0,0.0,0.0,0.7651800000000001,0.50031,9.81
1227272715,21.78,0.0,0.0,0.0,0.73575,0.49050000000000005,9.79038
1232323220,21.78,0.0,0.0,0.0,0.74556,0.50031,9.83943
1237373725,21.78,0.0,0.0,0.0,0.7651800000000001,0.48069000000000006,9.83943
1242424230,21.78,0.0,0.0,0.0,0.75537,0.48069000000000006,9.83943
1247474735,21.78,0.0,0.0,0.0,0.73575,0.47088,9.84924
1252525240,21.78,0.0,0.0,0.0,0.69651,0.50031,9.819809999999999
1257575745,21.78,0.0,0.0,0.0,0.73575,0.50031,9.81
1262626250,21.78,0.0,0.0,0.0,0.73575,0.48069000000000006,9.82962
1267676755,21.78,0.0,0.0,0.0,0.74556,0.48069000000000006,9.82962
1272727260,21.78,0.0,0.0,0.0,0.74556,0.47088,9.82962
1277777765,21.78,0.0,0.0,0.0,0.75537,0.48069000000000006,9.81
1282828270,21.78,0.0,0.0,0.0,0.74556,0.46107000000000004,9.80019
1287878775,21.78,0.0,0.0,0.0,0.75537,0.50031,9.82962
1292929280,21.78,0.0,0.0,0.0,0.73575,0.49050000000000005,9.819809999999999
1297979785,21.78,0.0,0.0,0.0,0.74556,0.48069000000000006,9.85905
1303030290,21.78,0.0,0.0,0.0,0.75537,0.47088,9.84924
1308080795,21.78,0.0,0.0,0.0,0.74556,0.47088,9.819809999999999
1313131300,21.78,0.0,0.0,0.0,0.75537,0.46107000000000004,9.81
1318181805,21.78,0.0,0.0,0.0,0.74556,0.48069000000000006,9.819809999999999
1323232310,21.78,0.0,0.0,0.0,0.7749900000000001,0.51012,9.84924
1328282815,21.78,0.0,0.0,0.0,0.72594,0.48069000000000006,9.83943
1333333320,21.78,0.0,0.0,0.0,0.70632,0.49050000000000005,9.81
1338383825,21.78,0.0,0.0,0.0,0.75537,0.46107000000000004,9.79038
1343434330,21.78,0.0,0.0,0.0,0.73575,0.45126,9.81
1348484835,21.78,0.0,0.0,0.0,0.7651800000000001,0.47088,9.85905
1353535340,21.78,0.0,0.0,0.0,0.72594,0.46107000000000004,9.85905
1358585845,21.78,0.0,0.0,0.0,0.73575,0.49050000000000005,9.81
1363636350,21.78,0.0,0.0,0.0,0.74556,0.47088,9.80019
1368686855,21.78,0.0,0.0,0.0,0.75537,0.46107000000000004,9.80019
1373737360,21.78,0.0,0.0,0.0,0.7651800000000001,0.48069000000000006,9.83943
1378787865,21.78,0.0,0.0,0.0,0.75537,0.48069000000000006,9.86886
1383838370,21.78,0.0,0.0,0.0,0.75537,0.47088,9.819809999999999
1388888875,21.78,0.0,0.0,0.0,0.74556,0.48069000000000006,9.82962
1393939380,21.78,0.0,0.0,0.0,0.74556,0.48069000000000006,9.81
1398989885,21.78,0.0,0.0,0.0,0.73575,0.47088,9.819809999999999
1404040390,21.78,0.0,0.0,0.0,0.72594,0.49050000000000005,9.87867
1409090895,21.78,0.0,0.0,0.0,0.7651800000000001,0.48069000000000006,9.83943
1414141400,21.78,0.0,0.0,0.0,0.73575,0.49050000000000005,9.83943
1419191905,21.78,0.0,0.0,0.0,0.7651800000000001,0.49050000000000005,9.79038
1424242410,21.78,0.0,0.0,0.0,0.75537,0.49050000000000005,9.81
1429292915,21.78,0.0,0.0,0.0,0.7651800000000001,0.50031,9.819809999999999
1434343420,21.78,0.0,0.0,0.0,0.7651800000000001,0.44145,9.84924
1439393925,21.78,0.0,0.0,0.0,0.73575,0.47088,9.83943
1444444430,21.78,0.0,0.0,0.0,0.74556,0.49050000000000005,9.80019
1449494935,21.78,0.0,0.0,0.0,0.74556,0.49050000000000005,9.81
1454545440,21.78,0.0,0.0,0.0,0.73575,0.48069000000000006,9.81
1459595945,21.78,0.0,0.0,0.0,0.74556,0.46107000000000004,9.81
1464646450,21.78,0.0,0.0,0.0,0.73575,0.47088,9.82962
1469696955,21.78,0.0,0.0,0.0,0.7651800000000001,0.48069000000000006,9.819809999999999
1474747460,21.78,0.0,0.0,0.0,0.74556,0.46107000000000004,9.819809999999999
1479797965,21.78,0.0,0.0,0.0,0.73575,0.46107000000000004,9.82962
1484848470,21.78,0.0,0.0,0.0,0.74556,0.46107000000000004,9.84924
1489898975,21.78,0.0,0.0,0.0,0.75537,0.47088,9.83943
1494949480,21.78,0.0,0.0,0.0,0.72594,0.46107000000000004,9.819809999999999
1499999985,21.78,0.0,0.0,0.0,0.73575,0.49050000000000005,9.80019
1505050490,21.78,0.0,0.0,0.0,0.73575,0.47088,9.78057
1510100995,21.78,0.0,0.0,0.0,0.7651800000000001,0.46107000000000004,9.82962
1515151500,21.78,0.0,0.0,0.0,0.74556,0.47088,9.83943
1520202005,21.78,0.0,0.0,0.0,0.72594,0.49050000000000005,9.85905
1525252510,21.78,0.0,0.0,0.0,0.7651800000000001,0.48069000000000006,9.81
1530303015,21.78,0.0,0.0,0.0,0.75537,0.47088,9.819809999999999
1535353520,21.78,0.0,0.0,0.0,0.71613,0.47088,9.81
1540404025,21.78,0.0,0.0,0.0,0.74556,0.47088,9.83943
1545454530,21.78,0.0,0.0,0.0,0.74556,0.47088,9.82962
1550505035,21.78,0.0,0.0,0.0,0.75537,0.48069000000000006,9.81
1555555540,21.78,0.0,0.0,0.0,0.73575,0.48069000000000006,9.80019
1560606045,21.78,0.0,0.0,0.0,0.73575,0.48069000000000006,9.819809999999999
1565656550,21.78,0.0,0.0,0.0,0.73575,0.46107000000000004,9.82962
1570707055,21.78,0.0,0.0,0.0,0.73575,0.47088,9.82962
1575757560,21.78,0.0,0.0,0.0,0.73575,0.48069000000000006,9.81
1580808065,21.78,0.0,0.0,0.0,0.74556,0.48069000000000006,9.80019
1585858570,21.78,0.0,0.0,0.0,0.74556,0.47088,9.81
1590909075,21.78,0.0,0.0,0.0,0.7651800000000001,0.47088,9.82962
1595959580,21.78,0.0,0.0,0.0,0.75537,0.48069000000000006,9.85905
1601010085,21.78,0.0,0.0,0.0,0.73575,0.48069000000000006,9.83943
1606060590,21.78,0.0,0.0,0.0,0.74556,0.48069000000000006,9.79038
1611111095,21.78,0.0,0.0,0.0,0.74556,0.47088,9.81
1616161600,21.78,0.0,0.0,0.0,0.74556,0.49050000000000005,9.81
1621212105,21.78,0.0,0.0,0.0,0.75537,0.49050000000000005,9.819809999999999
1626262610,21.78,0.0,0.0,0.0,0.75537,0.47088,9.82962
1631313115,21.78,0.0,0.0,0.0,0.74556,0.46107000000000004,9.86886
1636363620,21.78,0.0,0.0,0.0,0.73575,0.47088,9.81
1641414125,21.78,0.0,0.0,0.0,0.73575,0.48069000000000006,9.80019
1646464630,21.78,0.0,0.0,0.0,0.7749900000000001,0.47088,9.819809999999999
1651515135,21.78,0.0,0.0,0.0,0.73575,0.46107000000000004,9.80019
1656565640,21.78,0.0,0.0,0.0,0.7651800000000001,0.48069000000000006,9.80019
1661616145,21.78,0.0,0.0,0.0,0.7651800000000001,0.49050000000000005,9.82962
1666666650,21.78,0.0,0.0,0.0,0.7749900000000001,0.49050000000000005,9.82962
1671717155,21.78,0.0,0.0,0.0,0.74556,0.47088,9.83943
1676767660,21.78,0.0,0.0,0.0,0.72594,0.48069000000000006,9.82962
1681818165,21.78,0.0,0.0,0.0,0.72594,0.49050000000000005,9.82962
1686868670,21.78,0.0,0.0,0.0,0.73575,0.47088,9.79038
1691919175,21.78,0.0,0.0,0.0,0.73575,0.46107000000000004,9.81
1696969680,21.78,0.0,0.0,0.0,0.74556,0.48069000000000006,9.82962
1702020185,21.78,0.0,0.0,0.0,0.75537,0.47088,9.86886
1707070690,21.78,0.0,0.0,0.0,0.73575,0.49050000000000005,9.819809999999999
1712121195,21.78,0.0,0.0,0.0,0.74556,0.48069000000000006,9.83943
1717171700,21.78,0.0,0.0,0.0,0.75537,0.47088,9.80019
1722222205,21.78,0.0,0.0,0.0,0.72594,0.47088,9.79038
1727272710,21.78,0.0,0.0,0.0,0.75537,0.48069000000000006,9.80019
1732323215,21.78,0.0,0.0,0.0,0.73575,0.47088,9.87867
1737373720,21.78,0.0,0.0,0.0,0.75537,0.49050000000000005,9.83943
1742424225,21.78,0.0,0.0,0.0,0.74556,0.48069000000000006,9.81
1747474730,21.78,0.0,0.0,0.0,0.74556,0.47088,9.80019
1752525235,21.78,0.0,0.0,0.0,0.72594,0.47088,9.80019
1757575740,21.78,0.0,0.0,0.0,0.71613,0.45126,9.819809999999999
1762626245,21.78,0.0,0.0,0.0,0.74556,0.48069000000000006,9.83943
1767676750,21.78,0.0,0.0,0.0,0.73575,0.47088,9.85905
1772727255,21.78,0.0,0.0,0.0,0.73575,0.47088,9.81
1777777760,21.78,0.0,0.0,0.0,0.70632,0.48069000000000006,9.78057
1782828265,21.78,0.0,0.0,0.0,0.73575,0.48069000000000006,9.81
1787878770,21.78,0.0,0.0,0.0,0.73575,0.46107000000000004,9.84924
1792929275,21.78,0.0,0.0,0.0,0.73575,0.48069000000000006,9.85905
1797979780,21.78,0.0,0.0,0.0,0.75537,0.48069000000000006,9.82962
1803030285,21.78,0.0,0.0,0.0,0.74556,0.51012,9.819809999999999
1808080790,21.78,0.0,0.0,0.0,0.72594,0.50031,9.78057
1813131295,21.78,0.0,0.0,0.0,0.74556,0.48069000000000006,9.819809999999999
1818181800,21.78,0.0,0.0,0.0,0.75537,0.46107000000000004,9.83943
1823232305,21.78,0.0,0.0,0.0,0.74556,0.47088,9.85905
1828282810,21.78,0.0,0.0,0.0,0.75537,0.49050000000000005,9.819809999999999
1833333315,21.78,0.0,0.0,0.0,0.72594,0.48069000000000006,9.819809999999999
1838383820,21.78,0.0,0.0,0.0,0.74556,0.47088,9.83943
1843434325,21.78,0.0,0.0,0.0,0.73575,0.49050000000000005,9.82962
1848484830,21.78,0.0,0.0,0.0,0.74556,0.47088,9.84924
1853535335,21.78,0.0,0.0,0.0,0.73575,0.50031,9.819809999999999
1858585840,21.78,0.0,0.0,0.0,0.72594,0.47088,9.81
1863636345,21.78,0.0,0.0,0.0,0.74556,0.46107000000000004,9.819809999999999
1868686850,21.78,0.0,0.0,0.0,0.74556,0.48069000000000006,9.819809999999999
1873737355,21.78,0.0,0.0,0.0,0.73575,0.48069000000000006,9.81
1878787860,21.78,0.0,0.0,0.0,0.73575,0.46107000000000004,9.82962
1883838365,21.78,0.0,0.0,0.0,0.72594,0.47088,9.819809999999999
1888888870,21.78,0.0,0.0,0.0,0.75537,0.45126,9.82962
1893939375,21.78,0.0,0.0,0.0,0.75537,0.46107000000000004,9.82962
1898989880,21.78,0.0,0.0,0.0,0.72594,0.48069000000000006,9.80019
1904040385,21.78,0.0,0.0,0.0,0.74556,0.48069000000000006,9.82962
1909090890,21.78,0.0,0.0,0.0,0.7651800000000001,0.48069000000000006,9.78057
1914141395,21.78,0.0,0.0,0.0,0.72594,0.48069000000000006,9.82962
1919191900,21.78,0.0,0.0,0.0,0.7749900000000001,0.48069000000000006,9.82962
1924242405,21.78,0.0,0.0,0.0,0.73575,0.48069000000000006,9.819809999999999
1929292910,21.78,0.0,0.0,0.0,0.73575,0.47088,9.81
1934343415,21.78,0.0,0.0,0.0,0.74556,0.47088,9.81
1939393920,21.78,0.0,0.0,0.0,0.74556,0.49050000000000005,9.819809999999999
1944444425,21.78,0.0,0.0,0.0,0.74556,0.47088,9.819809999999999
1949494930,21.78,0.0,0.0,0.0,0.73575,0.47088,9.819809999999999
1954545435,21.78,0.0,0.0,0.0,0.74556,0.49050000000000005,9.819809999999999
1959595940,21.78,0.0,0.0,0.0,0.7651800000000001,0.47088,9.819809999999999
1964646445,21.78,0.0,0.0,0.0,0.71613,0.47088,9.81
1969696950,21.78,0.0,0.0,0.0,0.73575,0.48069000000000006,9.84924
1974747455,21.78,0.0,0.0,0.0,0.73575,0.49050000000000005,9.81
1979797960,21.78,0.0,0.0,0.0,0.74556,0.45126,9.79038
1984848465,21.78,0.0,0.0,0.0,0.73575,0.48069000000000006,9.819809999999999
1989898970,21.78,0.0,0.0,0.0,0.75537,0.48069000000000006,9.81
1994949475,21.78,0.0,0.0,0.0,0.73575,0.47088,9.84924
1999999980,21.78,0.0,0.0,0.0,0.73575,0.49050000000000005,9.81
2005050485,21.78,0.0,0.0,0.0,0.73575,0.47088,9.81
2010100990,21.78,0.0,0.0,0.0,0.72594,0.48069000000000006,9.81
2015151495,21.78,0.0,0.0,0.0,0.73575,0.47088,9.82962
2020202000,21.78,0.0,0.0,0.0,0.75537,0.47088,9.86886
2025252505,21.78,0.0,0.0,0.0,0.7749900000000001,0.49050000000000005,9.84924
2030303010,21.78,0.0,0.0,0.0,0.75537,0.47088,9.81
2035353515,21.78,0.0,0.0,0.0,0.72594,0.48069000000000006,9.80019
2040404020,21.78,0.0,0.0,0.0,0.73575,0.47088,9.819809999999999
2045454525,21.78,0.0,0.0,0.0,0.73575,0.48069000000000006,9.82962
2050505030,21.78,0.0,0.0,0.0,0.73575,0.47088,9.82962
2055555535,21.78,0.0,0.0,0.0,0.75537,0.48069000000000006,9.819809999999999
2060606040,21.78,0.0,0.0,0.0,0.73575,0.49050000000000005,9.79038
2065656545,21.78,0.0,0.0,0.0,0.74556,0.47088,9.82962
2070707050,21.78,0.0,0.0,0.0,0.74556,0.48069000000000006,9.84924
2075757555,21.78,0.0,0.0,0.0,0.73575,0.46107000000000004,9.83943
2080808060,21.78,0.0,0.0,0.0,0.7651800000000001,0.47088,9.81
2085858565,21.78,0.0,0.0,0.0,0.74556,0.49050000000000005,9.83943
2090909070,21.78,0.0,0.0,0.0,0.73575,0.49050000000000005,9.83943
2095959575,21.78,0.0,0.0,0.0,0.74556,0.47088,9.819809999999999
2101010080,21.78,0.0,0.0,0.0,0.74556,0.49050000000000005,9.83943
2106060585,21.78,0.0,0.0,0.0,0.71613,0.48069000000000006,9.819809999999999
2111111090,21.78,0.0,0.0,0.0,0.72594,0.49050000000000005,9.819809999999999
2116161595,21.78,0.0,0.0,0.0,0.73575,0.48069000000000006,9.81
2121212100,21.78,0.0,0.0,0.0,0.74556,0.48069000000000006,9.85905
2126262605,21.78,0.0,0.0,0.0,0.7749900000000001,0.48069000000000006,9.82962
2131313110,21.78,0.0,0.0,0.0,0.73575,0.46107000000000004,9.83943
2136363615,21.78,0.0,0.0,0.0,0.74556,0.46107000000000004,9.83943
2141414120,21.78,0.0,0.0,0.0,0.71613,0.48069000000000006,9.83943
2146464625,21.78,0.0,0.0,0.0,0.74556,0.48069000000000006,9.79038
2151515130,21.78,0.0,0.0,0.0,0.73575,0.47088,9.79038
2156565635,21.78,0.0,0.0,0.0,0.74556,0.47088,9.81
2161616140,21.78,0.0,0.0,0.0,0.74556,0.49050000000000005,9.81
2166666645,21.78,0.0,0.0,0.0,0.75537,0.47088,9.819809999999999
2171717150,21.78,0.0,0.0,0.0,0.74556,0.47088,9.80019
2176767655,21.78,0.0,0.0,0.0,0.74556,0.47088,9.819809999999999
2181818160,21.78,0.0,0.0,0.0,0.74556,0.49050000000000005,9.81
2186868665,21.78,0.0,0.0,0.0,0.74556,0.46107000000000004,9.83943
2191919170,21.78,0.0,0.0,0.0,0.73575,0.47088,9.83943
2196969675,21.78,0.0,0.0,0.0,0.72594,0.49050000000000005,9.81
2202020180,21.78,0.0,0.0,0.0,0.74556,0.46107000000000004,9.80019
2207070685,21.78,0.0,0.0,0.0,0.74556,0.47088,9.82962
2212121190,21.78,0.0,0.0,0.0,0.75537,0.50031,9.84924
2217171695,21.78,0.0,0.0,0.0,0.74556,0.47088,9.81
2222222200,21.78,0.0,0.0,0.0,0.72594,0.49050000000000005,9.81
2227272705,21.78,0.0,0.0,0.0,0.75537,0.48069000000000006,9.819809999999999
2232323210,21.78,0.0,0.0,0.0,0.73575,0.47088,9.81
2237373715,21.78,0.0,0.0,0.0,0.75537,0.47088,9.83943
2242424220,21.78,0.0,0.0,0.0,0.73575,0.45126,9.82962
2247474725,21.78,0.0,0.0,0.0,0.74556,0.47088,9.81
2252525230,21.78,0.0,0.0,0.0,0.72594,0.49050000000000005,9.819809999999999
2257575735,21.78,0.0,0.0,0.0,0.73575,0.48069000000000006,9.81
2262626240,21.78,0.0,0.0,0.0,0.73575,0.49050000000000005,9.81
2267676745,21.78,0.0,0.0,0.0,0.75537,0.47088,9.82962
2272727250,21.78,0.0,0.0,0.0,0.7651800000000001,0.48069000000000006,9.81
2277777755,21.78,0.0,0.0,0.0,0.7651800000000001,0.48069000000000006,9.83943
2282828260,21.78,0.0,0.0,0.0,0.7651800000000001,0.48069000000000006,9.819809999999999
2287878765,21.78,0.0,0.0,0.0,0.75537,0.45126,9.81
2292929270,21.78,0.0,0.0,0.0,0.74556,0.49050000000000005,9.81
2297979775,21.78,0.0,0.0,0.0,0.74556,0.48069000000000006,9.83943
2303030280,21.78,0.0,0.0,0.0,0.74556,0.48069000000000006,9.83943
2308080785,21.78,0.0,0.0,0.0,0.75537,0.47088,9.86886
2313131290,21.78,0.0,0.0,0.0,0.73575,0.49050000000000005,9.83943
2318181795,21.78,0.0,0.0,0.0,0.7848,0.47088,9.819809999999999
2323232300,21.78,0.0,0.0,0.0,0.71613,0.46107000000000004,9.819809999999999
2328282805,21.78,0.0,0.0,0.0,0.75537,0.46107000000000004,9.819809999999999
2333333310,21.78,0.0,0.0,0.0,0.75537,0.47088,9.79038
2338383815,21.78,0.0,0.0,0.0,0.74556,0.48069000000000006,9.82962
2343434320,21.78,0.0,0.0,0.0,0.74556,0.48069000000000006,9.84924
2348484825,21.78,0.0,0.0,0.0,0.73575,0.49050000000000005,9.83943
2353535330,21.78,0.0,0.0,0.0,0.7651800000000001,0.49050000000000005,9.82962
2358585835,21.78,0.0,0.0,0.0,0.72594,0.48069000000000006,9.81
2363636340,21.78,0.0,0.0,0.0,0.75537,0.49050000000000005,9.82962
2368686845,21.78,0.0,0.0,0.0,0.75537,0.47088,9.81
2373737350,21.78,0.0,0.0,0.0,0.74556,0.47088,9.86886
2378787855,21.78,0.0,0.0,0.0,0.73575,0.48069000000000006,9.82962
2383838360,21.78,0.0,0.0,0.0,0.72594,0.50031,9.78057
2388888865,21.78,0.0,0.0,0.0,0.74556,0.48069000000000006,9.81
2393939370,21.78,0.0,0.0,0.0,0.74556,0.47088,9.81
2398989875,21.78,0.0,0.0,0.0,0.74556,0.47088,9.85905
2404040380,21.78,0.0,0.0,0.0,0.74556,0.48069000000000006,9.85905
2409090885,21.78,0.0,0.0,0.0,0.75537,0.47088,9.819809999999999
2414141390,21.78,0.0,0.0,0.0,0.73575,0.47088,9.81
2419191895,21.78,0.0,0.0,0.0,0.72594,0.50031,9.80019
2424242400,21.78,0.0,0.0,0.0,0.7651800000000001,0.49050000000000005,9.85905
2429292905,21.78,0.0,0.0,0.0,0.73575,0.47088,9.84924
2434343410,21.78,0.0,0.0,0.0,0.74556,0.48069000000000006,9.83943
2439393915,21.78,0.0,0.0,0.0,0.73575,0.46107000000000004,9.770760000000001
2444444420,21.78,0.0,0.0,0.0,0.75537,0.47088,9.80019
2449494925,21.78,0.0,0.0,0.0,0.73575,0.46107000000000004,9.819809999999999
2454545430,21.78,0.0,0.0,0.0,0.7651800000000001,0.49050000000000005,9.83943
2459595935,21.78,0.0,0.0,0.0,0.74556,0.49050000000000005,9.84924
2464646440,21.78,0.0,0.0,0.0,0.7749900000000001,0.47088,9.81
2469696945,21.78,0.0,0.0,0.0,0.74556,0.46107000000000004,9.78057
2474747450,21.78,0.0,0.0,0.0,0.72594,0.48069000000000006,9.81
2479797955,21.78,0.0,0.0,0.0,0.7651800000000001,0.47088,9.82962
2484848460,21.78,0.0,0.0,0.0,0.75537,0.49050000000000005,9.84924
2489898965,21.78,0.0,0.0,0.0,0.74556,0.46107000000000004,9.81
2494949470,21.78,0.0,0.0,0.0,0.72594,0.50031,9.81
2499999975,21.78,0.0,0.0,0.0,0.74556,0.47088,9.81
2505050480,21.78,0.0,0.0,0.0,0.74556,0.47088,9.82962
2510100985,21.78,0.0,0.0,0.0,0.71613,0.48069000000000006,9.82962
2515151490,21.78,0.0,0.0,0.0,0.75537,0.46107000000000004,9.83943
2520201995,21.78,0.0,0.0,0.0,0.73575,0.49050000000000005,9.80019
2525252500,21.78,0.0,0.0,0.0,0.75537,0.49050000000000005,9.819809999999999
2530303005,21.78,0.0,0.0,0.0,0.7651800000000001,0.48069000000000006,9.819809999999999
2535353510,21.78,0.0,0.0,0.0,0.75537,0.48069000000000006,9.85905
2540404015,21.78,0.0,0.0,0.0,0.73575,0.49050000000000005,9.85905
2545454520,21.78,0.0,0.0,0.0,0.72594,0.49050000000000005,9.82962
2550505025,21.78,0.0,0.0,0.0,0.73575,0.47088,9.81
2555555530,21.78,0.0,0.0,0.0,0.74556,0.49050000000000005,9.819809999999999
2560606035,21.78,0.0,0.0,0.0,0.75537,0.46107000000000004,9.84924
2565656540,21.78,0.0,0.0,0.0,0.74556,0.49050000000000005,9.86886
2570707045,21.78,0.0,0.0,0.0,0.75537,0.46107000000000004,9.83943
2575757550,21.78,0.0,0.0,0.0,0.74556,0.43164,9.819809999999999
2580808055,21.78,0.0,0.0,0.0,0.73575,0.50031,9.81
2585858560,21.78,0.0,0.0,0.0,0.73575,0.48069000000000006,9.81
2590909065,21.78,0.0,0.0,0.0,0.7749900000000001,0.50031,9.83943
2595959570,21.78,0.0,0.0,0.0,0.73575,0.47088,9.87867
2601010075,21.78,0.0,0.0,0.0,0.7651800000000001,0.47088,9.83943
2606060580,21.78,0.0,0.0,0.0,0.7651800000000001,0.48069000000000006,9.81
2611111085,21.78,0.0,0.0,0.0,0.75537,0.48069000000000006,9.79038
2616161590,21.78,0.0,0.0,0.0,0.75537,0.45126,9.80019
2621212095,21.78,0.0,0.0,0.0,0.74556,0.46107000000000004,9.83943
2626262600,21.78,0.0,0.0,0.0,0.7651800000000001,0.48069000000000006,9.83943
2631313105,21.78,0.0,0.0,0.0,0.74556,0.47088,9.82962
2636363610,21.78,0.0,0.0,0.0,0.7848,0.49050000000000005,9.81
2641414115,21.78,0.0,0.0,0.0,0.75537,0.49050000000000005,9.79038
2646464620,21.78,0.0,0.0,0.0,0.74556,0.50031,9.83943
2651515125,21.78,0.0,0.0,0.0,0.75537,0.46107000000000004,9.819809999999999
2656565630,21.78,0.0,0.0,0.0,0.73575,0.47088,9.81
2661616135,21.78,0.0,0.0,0.0,0.7651800000000001,0.49050000000000005,9.81
2666666640,21.78,0.0,0.0,0.0,0.73575,0.47088,9.83943
2671717145,21.78,0.0,0.0,0.0,0.74556,0.46107000000000004,9.819809999999999
2676767650,21.78,0.0,0.0,0.0,0.74556,0.48069000000000006,9.81
2681818155,21.78,0.0,0.0,0.0,0.73575,0.47088,9.82962
2686868660,21.78,0.0,0.0,0.0,0.73575,0.50031,9.80019
2691919165,21.78,0.0,0.0,0.0,0.73575,0.47088,9.83943
2696969670,21.78,0.0,0.0,0.0,0.74556,0.49050000000000005,9.81
2702020175,21.78,0.0,0.0,0.0,0.73575,0.48069000000000006,9.82962
2707070680,21.78,0.0,0.0,0.0,0.74556,0.49050000000000005,9.819809999999999
2712121185,21.78,0.0,0.0,0.0,0.74556,0.48069000000000006,9.819809999999999
2717171690,21.78,0.0,0.0,0.0,0.75537,0.46107000000000004,9.819809999999999
2722222195,21.78,0.0,0.0,0.0,0.74556,0.47088,9.819809999999999
2727272700,21.78,0.0,0.0,0.0,0.73575,0.48069000000000006,9.81
2732323205,21.78,0.0,0.0,0.0,0.74556,0.48069000000000006,9.84924
2737373710,21.78,0.0,0.0,0.0,0.73575,0.47088,9.84924
2742424215,21.78,0.0,0.0,0.0,0.72594,0.49050000000000005,9.79038
2747474720,21.78,0.0,0.0,0.0,0.74556,0.47088,9.819809999999999
2752525225,21.78,0.0,0.0,0.0,0.73575,0.47088,9.82962
2757575730,21.78,0.0,0.0,0.0,0.73575,0.48069000000000006,9.84924
2762626235,21.78,0.0,0.0,0.0,0.74556,0.48069000000000006,9.82962
2767676740,21.78,0.0,0.0,0.0,0.73575,0.47088,9.80019
2772727245,21.78,0.0,0.0,0.0,0.73575,0.47088,9.81
2777777750,21.78,0.0,0.0,0.0,0.74556,0.47088,9.83943
2782828255,21.78,0.0,0.0,0.0,0.74556,0.51012,9.82962
2787878760,21.78,0.0,0.0,0.0,0.75537,0.49050000000000005,9.80019
2792929265,21.78,0.0,0.0,0.0,0.71613,0.46107000000000004,9.80019
2797979770,21.78,0.0,0.0,0.0,0.75537,0.45126,9.79038
2803030275,21.78,0.0,0.0,0.0,0.75537,0.48069000000000006,9.84924
2808080780,21.78,0.0,0.0,0.0,0.72594,0.47088,9.83943
2813131285,21.78,0.0,0.0,0.0,0.7651800000000001,0.48069000000000006,9.82962
2818181790,21.78,0.0,0.0,0.0,0.74556,0.47088,9.80019
2823232295,21.78,0.0,0.0,0.0,0.73575,0.48069000000000006,9.81
2828282800,21.78,0.0,0.0,0.0,0.75537,0.47088,9.84924
2833333305,21.78,0.0,0.0,0.0,0.74556,0.48069000000000006,9.84924
2838383810,21.78,0.0,0.0,0.0,0.74556,0.48069000000000006,9.819809999999999
2843434315,21.78,0.0,0.0,0.0,0.74556,0.47088,9.78057
2848484820,21.78,0.0,0.0,0.0,0.74556,0.48069000000000006,9.80019
2853535325,21.78,0.0,0.0,0.0,0.73575,0.46107000000000004,9.81
2858585830,21.78,0.0,0.0,0.0,0.7651800000000001,0.49050000000000005,9.86886
2863636335,21.78,0.0,0.0,0.0,0.72594,0.50031,9.82962
2868686840,21.78,0.0,0.0,0.0,0.74556,0.47088,9.80019
2873737345,21.78,0.0,0.0,0.0,0.75537,0.48069000000000006,9.81
2878787850,21.78,0.0,0.0,0.0,0.7651800000000001,0.47088,9.819809999999999
2883838355,21.78,0.0,0.0,0.0,0.7651800000000001,0.45126,9.85905
2888888860,21.78,0.0,0.0,0.0,0.74556,0.48069000000000006,9.83943
2893939365,21.78,0.0,0.0,0.0,0.74556,0.50031,9.83943
2898989870,21.78,0.0,0.0,0.0,0.7651800000000001,0.47088,9.80019
2904040375,21.78,0.0,0.0,0.0,0.73575,0.46107000000000004,9.81
2909090880,21.78,0.0,0.0,0.0,0.75537,0.48069000000000006,9.81
2914141385,21.78,0.0,0.0,0.0,0.74556,0.47088,9.83943
2919191890,21.78,0.0,0.0,0.0,0.7749900000000001,0.46107000000000004,9.84924
2924242395,21.78,0.0,0.0,0.0,0.7651800000000001,0.46107000000000004,9.819809999999999
2929292900,21.78,0.0,0.0,0.0,0.7749900000000001,0.46107000000000004,9.82962
2934343405,21.78,0.0,0.0,0.0,0.74556,0.48069000000000006,9.81
2939393910,21.78,0.0,0.0,0.0,0.75537,0.47088,9.81
2944444415,21.78,0.0,0.0,0.0,0.75537,0.49050000000000005,9.84924
2949494920,21.78,0.0,0.0,0.0,0.73575,0.48069000000000006,9.85905
2954545425,21.78,0.0,0.0,0.0,0.74556,0.48069000000000006,9.82962
2959595930,21.78,0.0,0.0,0.0,0.74556,0.48069000000000006,9.819809999999999
2964646435,21.78,0.0,0.0,0.0,0.75537,0.49050000000000005,9.80019
2969696940,21.78,0.0,0.0,0.0,0.7651800000000001,0.47088,9.82962
2974747445,21.78,0.0,0.0,0.0,0.74556,0.43164,9.84924
2979797950,21.78,0.0,0.0,0.0,0.75537,0.47088,9.819809999999999
2984848455,21.78,0.0,0.0,0.0,0.75537,0.46107000000000004,9.82962
2989898960,21.78,0.0,0.0,0.0,0.74556,0.47088,9.81
2994949465,21.78,0.0,0.0,0.0,0.74556,0.49050000000000005,9.819809999999999
2999999970,21.78,0.0,0.0,0.0,0.73575,0.48069000000000006,9.819809999999999
3005050475,21.78,0.0,0.0,0.0,0.71613,0.47088,9.82962
3010100980,21.78,0.0,0.0,0.0,0.74556,0.50031,9.81
3015151485,21.78,0.0,0.0,0.0,0.75537,0.48069000000000006,9.81
3020201990,21.78,0.0,0.0,0.0,0.74556,0.49050000000000005,9.83943
3025252495,21.78,0.0,0.0,0.0,0.7651800000000001,0.47088,9.80019
3030303000,21.78,0.0,0.0,0.0,0.75537,0.48069000000000006,9.82962
3035353505,21.78,0.0,0.0,0.0,0.75537,0.46107000000000004,9.819809999999999
3040404010,21.78,0.0,0.0,0.0,0.7749900000000001,0.50031,9.81
3045454515,21.78,0.0,0.0,0.0,0.73575,0.46107000000000004,9.819809999999999
3050505020,21.78,0.0,0.0,0.0,0.74556,0.45126,9.81
3055555525,21.78,0.0,0.0,0.0,0.72594,0.46107000000000004,9.83943
3060606030,21.78,0.0,0.0,0.0,0.75537,0.45126,9.81
3065656535,21.78,0.0,0.0,0.0,0.74556,0.48069000000000006,9.82962
3070707040,21.78,0.0,0.0,0.0,0.74556,0.47088,9.819809999999999
3075757545,21.78,0.0,0.0,0.0,0.75537,0.46107000000000004,9.83943
3080808050,21.78,0.0,0.0,0.0,0.7651800000000001,0.45126,9.82962
3085858555,21.78,0.0,0.0,0.0,0.75537,0.47088,9.819809999999999
3090909060,21.78,0.0,0.0,0.0,0.75537,0.50031,9.78057
3095959565,21.78,0.0,0.0,0.0,0.73575,0.49050000000000005,9.82962
3101010070,21.78,0.0,0.0,0.0,0.73575,0.45126,9.82962
3106060575,21.78,0.0,0.0,0.0,0.75537,0.48069000000000006,9.819809999999999
3111111080,21.78,0.0,0.0,0.0,0.7651800000000001,0.48069000000000006,9.819809999999999
3116161585,21.78,0.0,0.0,0.0,0.75537,0.47088,9.82962
3121212090,21.78,0.0,0.0,0.0,0.75537,0.47088,9.819809999999999
3126262595,21.78,0.0,0.0,0.0,0.7651800000000001,0.47088,9.819809999999999
3131313100,21.78,0.0,0.0,0.0,0.7651800000000001,0.48069000000000006,9.81
3136363605,21.78,0.0,0.0,0.0,0.73575,0.49050000000000005,9.819809999999999
3141414110,21.78,0.0,0.0,0.0,0.7651800000000001,0.49050000000000005,9.82962
3146464615,21.78,0.0,0.0,0.0,0.72594,0.47088,9.81
3151515120,21.78,0.0,0.0,0.0,0.71613,0.50031,9.82962
3156565625,21.78,0.0,0.0,0.0,0.73575,0.47088,9.80019
3161616130,21.78,0.0,0.0,0.0,0.75537,0.48069000000000006,9.80019
3166666635,21.78,0.0,0.0,0.0,0.73575,0.46107000000000004,9.819809999999999
3171717140,21.78,0.0,0.0,0.0,0.75537,0.47088,9.83943
3176767645,21.78,0.0,0.0,0.0,0.74556,0.46107000000000004,9.83943
3181818150,21.78,0.0,0.0,0.0,0.75537,0.50031,9.83943
3186868655,21.78,0.0,0.0,0.0,0.71613,0.47088,9.79038
3191919160,21.78,0.0,0.0,0.0,0.75537,0.49050000000000005,9.80019
3196969665,21.78,0.0,0.0,0.0,0.74556,0.49050000000000005,9.819809999999999
3202020170,21.78,0.0,0.0,0.0,0.72594,0.49050000000000005,9.83943
3207070675,21.78,0.0,0.0,0.0,0.7651800000000001,0.50031,9.82962
3212121180,21.78,0.0,0.0,0.0,0.73575,0.49050000000000005,9.84924
3217171685,21.78,0.0,0.0,0.0,0.7651800000000001,0.51012,9.80019
3222222190,21.78,0.0,0.0,0.0,0.73575,0.45126,9.81
3227272695,21.78,0.0,0.0,0.0,0.7651800000000001,0.45126,9.81
3232323200,21.78,0.0,0.0,0.0,0.74556,0.47088,9.83943
3237373705,21.78,0.0,0.0,0.0,0.73575,0.49050000000000005,9.83943
3242424210,21.78,0.0,0.0,0.0,0.75537,0.49050000000000005,9.819809999999999
3247474715,21.78,0.0,0.0,0.0,0.74556,0.48069000000000006,9.819809999999999
3252525220,21.78,0.0,0.0,0.0,0.73575,0.48069000000000006,9.81
3257575725,21.78,0.0,0.0,0.0,0.73575,0.47088,9.85905
3262626230,21.78,0.0,0.0,0.0,0.75537,0.48069000000000006,9.819809999999999
3267676735,21.78,0.0,0.0,0.0,0.74556,0.48069000000000006,9.819809999999999
3272727240,21.78,0.0,0.0,0.0,0.72594,0.48069000000000006,9.82962
3277777745,21.78,0.0,0.0,0.0,0.74556,0.47088,9.819809999999999
3282828250,21.78,0.0,0.0,0.0,0.73575,0.48069000000000006,9.82962
3287878755,21.78,0.0,0.0,0.0,0.74556,0.50031,9.83943
3292929260,21.78,0.0,0.0,0.0,0.71613,0.48069000000000006,9.83943
3297979765,21.78,0.0,0.0,0.0,0.72594,0.48069000000000006,9.81
3303030270,21.78,0.0,0.0,0.0,0.75537,0.48069000000000006,9.819809999999999
3308080775,21.78,0.0,0.0,0.0,0.74556,0.46107000000000004,9.80019
3313131280,21.78,0.0,0.0,0.0,0.7651800000000001,0.47088,9.82962
3318181785,21.78,0.0,0.0,0.0,0.75537,0.49050000000000005,9.82962
3323232290,21.78,0.0,0.0,0.0,0.74556,0.48069000000000006,9.81
3328282795,21.78,0.0,0.0,0.0,0.74556,0.46107000000000004,9.819809999999999
3333333300,21.78,0.0,0.0,0.0,0.75537,0.49050000000000005,9.80019
3338383805,21.78,0.0,0.0,0.0,0.74556,0.49050000000000005,9.82962
3343434310,21.78,0.0,0.0,0.0,0.73575,0.48069000000000006,9.819809999999999
3348484815,21.78,0.0,0.0,0.0,0.72594,0.50031,9.82962
3353535320,21.78,0.0,0.0,0.0,0.75537,0.47088,9.81
3358585825,21.78,0.0,0.0,0.0,0.71613,0.47088,9.81
3363636330,21.78,0.0,0.0,0.0,0.7651800000000001,0.48069000000000006,9.80019
3368686835,21.78,0.0,0.0,0.0,0.73575,0.46107000000000004,9.86886
3373737340,21.78,0.0,0.0,0.0,0.72594,0.48069000000000006,9.86886
3378787845,21.78,0.0,0.0,0.0,0.7749900000000001,0.48069000000000006,9.81
3383838350,21.78,0.0,0.0,0.0,0.73575,0.48069000000000006,9.82962
3388888855,21.78,0.0,0.0,0.0,0.74556,0.47088,9.819809999999999
3393939360,21.78,0.0,0.0,0.0,0.74556,0.47088,9.83943
3398989865,21.78,0.0,0.0,0.0,0.74556,0.48069000000000006,9.83943
3404040370,21.78,0.0,0.0,0.0,0.74556,0.47088,9.84924
3409090875,21.78,0.0,0.0,0.0,0.73575,0.48069000000000006,9.81
3414141380,21.78,0.0,0.0,0.0,0.74556,0.48069000000000006,9.78057
3419191885,21.78,0.0,0.0,0.0,0.7651800000000001,0.48069000000000006,9.83943
3424242390,21.78,0.0,0.0,0.0,0.74556,0.50031,9.80019
3429292895,21.78,0.0,0.0,0.0,0.73575,0.45126,9.86886
3434343400,21.78,0.0,0.0,0.0,0.73575,0.47088,9.82962
3439393905,21.78,0.0,0.0,0.0,0.71613,0.47088,9.81
3444444410,21.78,0.0,0.0,0.0,0.74556,0.47088,9.81
3449494915,21.78,0.0,0.0,0.0,0.7749900000000001,0.46107000000000004,9.819809999999999
3454545420,21.78,0.0,0.0,0.0,0.75537,0.49050000000000005,9.84924
3459595925,21.78,0.0,0.0,0.0,0.74556,0.47088,9.819809999999999
3464646430,21.78,0.0,0.0,0.0,0.75537,0.48069000000000006,9.82962
3469696935,21.78,0.0,0.0,0.0,0.73575,0.46107000000000004,9.82962
3474747440,21.78,0.0,0.0,0.0,0.72594,0.48069000000000006,9.83943
3479797945,21.78,0.0,0.0,0.0,0.71613,0.46107000000000004,9.82962
3484848450,21.78,0.0,0.0,0.0,0.75537,0.48069000000000006,9.82962
3489898955,21.78,0.0,0.0,0.0,0.73575,0.48069000000000006,9.819809999999999
3494949460,21.78,0.0,0.0,0.0,0.74556,0.47088,9.83943
3499999965,21.78,0.0,0.0,0.0,0.75537,0.49050000000000005,9.82962
3505050470,21.78,0.0,0.0,0.0,0.71613,0.47088,9.819809999999999
3510100975,21.78,0.0,0.0,0.0,0.74556,0.48069000000000006,9.82962
3515151480,21.78,0.0,0.0,0.0,0.73575,0.46107000000000004,9.78057
3520201985,21.78,0.0,0.0,0.0,0.74556,0.47088,9.819809999999999
3525252490,21.78,0.0,0.0,0.0,0.74556,0.47088,9.819809999999999
3530302995,21.78,0.0,0.0,0.0,0.75537,0.46107000000000004,9.85905
3535353500,21.78,0.0,0.0,0.0,0.7749900000000001,0.46107000000000004,9.82962
3540404005,21.78,0.0,0.0,0.0,0.74556,0.46107000000000004,9.84924
3545454510,21.78,0.0,0.0,0.0,0.74556,0.49050000000000005,9.819809999999999
3550505015,21.78,0.0,0.0,0.0,0.74556,0.49050000000000005,9.80019
3555555520,21.78,0.0,0.0,0.0,0.75537,0.46107000000000004,9.84924
3560606025,21.78,0.0,0.0,0.0,0.75537,0.47088,9.82962
3565656530,21.78,0.0,0.0,0.0,0.74556,0.49050000000000005,9.84924
3570707035,21.78,0.0,0.0,0.0,0.7749900000000001,0.48069000000000006,9.82962
3575757540,21.78,0.0,0.0,0.0,0.71613,0.45126,9.82962
3580808045,21.78,0.0,0.0,0.0,0.73575,0.47088,9.80019
3585858550,21.78,0.0,0.0,0.0,0.75537,0.47088,9.84924
3590909055,21.78,0.0,0.0,0.0,0.73575,0.47088,9.82962
3595959560,21.78,0.0,0.0,0.0,0.75537,0.48069000000000006,9.81
3601010065,21.78,0.0,0.0,0.0,0.75537,0.49050000000000005,9.82962
3606060570,21.78,0.0,0.0,0.0,0.73575,0.47088,9.81
3611111075,21.78,0.0,0.0,0.0,0.71613,0.46107000000000004,9.80019
3616161580,21.78,0.0,0.0,0.0,0.74556,0.49050000000000005,9.819809999999999
3621212085,21.78,0.0,0.0,0.0,0.75537,0.47088,9.819809999999999
3626262590,21.78,0.0,0.0,0.0,0.7651800000000001,0.47088,9.82962
3631313095,21.78,0.0,0.0,0.0,0.75537,0.49050000000000005,9.81
3636363600,21.78,0.0,0.0,0.0,0.74556,0.48069000000000006,9.819809999999999
3641414105,21.78,0.0,0.0,0.0,0.74556,0.48069000000000006,9.81
3646464610,21.78,0.0,0.0,0.0,0.73575,0.47088,9.82962
3651515115,21.78,0.0,0.0,0.0,0.73575,0.47088,9.84924
3656565620,21.78,0.0,0.0,0.0,0.74556,0.48069000000000006,9.81
3661616125,21.78,0.0,0.0,0.0,0.75537,0.47088,9.80019
3666666630,21.78,0.0,0.0,0.0,0.73575,0.49050000000000005,9.819809999999999
3671717135,21.78,0.0,0.0,0.0,0.7651800000000001,0.48069000000000006,9.82962
3676767640,21.78,0.0,0.0,0.0,0.7651800000000001,0.48069000000000006,9.85905
3681818145,21.78,0.0,0.0,0.0,0.7651800000000001,0.48069000000000006,9.81
3686868650,21.78,0.0,0.0,0.0,0.73575,0.47088,9.80019
3691919155,21.78,0.0,0.0,0.0,0.75537,0.50031,9.84924
3696969660,21.78,0.0,0.0,0.0,0.75537,0.49050000000000005,9.83943
3702020165,21.78,0.0,0.0,0.0,0.75537,0.50031,9.82962
3707070670,21.78,0.0,0.0,0.0,0.74556,0.48069000000000006,9.81
3712121175,21.78,0.0,0.0,0.0,0.74556,0.46107000000000004,9.82962
3717171680,21.78,0.0,0.0,0.0,0.74556,0.45126,9.81
3722222185,21.78,0.0,0.0,0.0,0.7651800000000001,0.48069000000000006,9.83943
3727272690,21.78,0.0,0.0,0.0,0.74556,0.48069000000000006,9.83943
3732323195,21.78,0.0,0.0,0.0,0.7651800000000001,0.49050000000000005,9.80019
3737373700,21.78,0.0,0.0,0.0,0.73575,0.46107000000000004,9.81
3742424205,21.78,0.0,0.0,0.0,0.73575,0.47088,9.81
3747474710,21.78,0.0,0.0,0.0,0.74556,0.47088,9.82962
3752525215,21.78,0.0,0.0,0.0,0.73575,0.49050000000000005,9.82962
3757575720,21.78,0.0,0.0,0.0,0.75537,0.49050000000000005,9.82962
3762626225,21.78,0.0,0.0,0.0,0.73575,0.48069000000000006,9.81
3767676730,21.78,0.0,0.0,0.0,0.75537,0.47088,9.81
3772727235,21.78,0.0,0.0,0.0,0.73575,0.47088,9.84924
3777777740,21.78,0.0,0.0,0.0,0.75537,0.47088,9.83943
3782828245,21.78,0.0,0.0,0.0,0.74556,0.49050000000000005,9.82962
3787878750,21.78,0.0,0.0,0.0,0.75537,0.48069000000000006,9.82962
3792929255,21.78,0.0,0.0,0.0,0.72594,0.49050000000000005,9.81
3797979760,21.78,0.0,0.0,0.0,0.75537,0.48069000000000006,9.82962
3803030265,21.78,0.0,0.0,0.0,0.74556,0.46107000000000004,9.819809999999999
3808080770,21.78,0.0,0.0,0.0,0.7749900000000001,0.47088,9.819809999999999
3813131275,21.78,0.0,0.0,0.0,0.74556,0.48069000000000006,9.81
3818181780,21.78,0.0,0.0,0.0,0.7651800000000001,0.47088,9.81
3823232285,21.78,0.0,0.0,0.0,0.75537,0.51012,9.82962
3828282790,21.78,0.0,0.0,0.0,0.73575,0.50031,9.84924
3833333295,21.78,0.0,0.0,0.0,0.75537,0.46107000000000004,9.82962
3838383800,21.78,0.0,0.0,0.0,0.71613,0.45126,9.81
3843434305,21.78,0.0,0.0,0.0,0.74556,0.48069000000000006,9.819809999999999
3848484810,21.78,0.0,0.0,0.0,0.72594,0.47088,9.819809999999999
3853535315,21.78,0.0,0.0,0.0,0.75537,0.48069000000000006,9.819809999999999
3858585820,21.78,0.0,0.0,0.0,0.73575,0.48069000000000006,9.82962
3863636325,21.78,0.0,0.0,0.0,0.74556,0.49050000000000005,9.82962
3868686830,21.78,0.0,0.0,0.0,0.73575,0.49050000000000005,9.82962
3873737335,21.78,0.0,0.0,0.0,0.75537,0.49050000000000005,9.82962
3878787840,21.78,0.0,0.0,0.0,0.72594,0.47088,9.819809999999999
3883838345,21.78,0.0,0.0,0.0,0.73575,0.49050000000000005,9.81
3888888850,21.78,0.0,0.0,0.0,0.74556,0.50031,9.81
3893939355,21.78,0.0,0.0,0.0,0.71613,0.48069000000000006,9.83943
3898989860,21.78,0.0,0.0,0.0,0.75537,0.47088,9.819809999999999
3904040365,21.78,0.0,0.0,0.0,0.74556,0.47088,9.82962
3909090870,21.78,0.0,0.0,0.0,0.75537,0.45126,9.819809999999999
3914141375,21.78,0.0,0.0,0.0,0.74556,0.48069000000000006,9.82962
3919191880,21.78,0.0,0.0,0.0,0.72594,0.45126,9.84924
3924242385,21.78,0.0,0.0,0.0,0.74556,0.49050000000000005,9.82962
3929292890,21.78,0.0,0.0,0.0,0.73575,0.47088,9.819809999999999
3934343395,21.78,0.0,0.0,0.0,0.7651800000000001,0.48069000000000006,9.819809999999999
3939393900,21.78,0.0,0.0,0.0,0.72594,0.45126,9.82962
3944444405,21.78,0.0,0.0,0.0,0.75537,0.46107000000000004,9.83943
3949494910,21.78,0.0,0.0,0.0,0.70632,0.46107000000000004,9.82962
3954545415,21.78,0.0,0.0,0.0,0.75537,0.48069000000000006,9.80019
3959595920,21.78,0.0,0.0,0.0,0.74556,0.48069000000000006,9.79038
3964646425,21.78,0.0,0.0,0.0,0.72594,0.47088,9.81
3969696930,21.78,0.0,0.0,0.0,0.73575,0.49050000000000005,9.81
3974747435,21.78,0.0,0.0,0.0,0.72594,0.47088,9.84924
3979797940,21.78,0.0,0.0,0.0,0.73575,0.49050000000000005,9.80019
3984848445,21.78,0.0,0.0,0.0,0.73575,0.49050000000000005,9.80019
3989898950,21.78,0.0,0.0,0.0,0.73575,0.47088,9.819809999999999
3994949455,21.78,0.0,0.0,0.0,0.75537,0.48069000000000006,9.83943
3999999960,21.78,0.0,0.0,0.0,0.74556,0.49050000000000005,9.83943
4005050465,21.78,0.0,0.0,0.0,0.75537,0.48069000000000006,9.81
4010100970,21.78,0.0,0.0,0.0,0.74556,0.47088,9.83943
4015151475,21.78,0.0,0.0,0.0,0.73575,0.44145,9.81
4020201980,21.78,0.0,0.0,0.0,0.7651800000000001,0.47088,9.82962
4025252485,21.78,0.0,0.0,0.0,0.75537,0.49050000000000005,9.81
4030302990,21.78,0.0,0.0,0.0,0.7651800000000001,0.48069000000000006,9.79038
4035353495,21.78,0.0,0.0,0.0,0.7651800000000001,0.47088,9.819809999999999
4040404000,21.78,0.0,0.0,0.0,0.73575,0.47088,9.83943
4045454505,21.78,0.0,0.0,0.0,0.74556,0.48069000000000006,9.86886
4050505010,21.78,0.0,0.0,0.0,0.72594,0.46107000000000004,9.81
4055555515,21.78,0.0,0.0,0.0,0.72594,0.46107000000000004,9.79038
4060606020,21.78,0.0,0.0,0.0,0.74556,0.48069000000000006,9.80019
4065656525,21.78,0.0,0.0,0.0,0.75537,0.47088,9.83943
4070707030,21.78,0.0,0.0,0.0,0.7651800000000001,0.47088,9.84924
4075757535,21.78,0.0,0.0,0.0,0.72594,0.47088,9.83943
4080808040,21.78,0.0,0.0,0.0,0.70632,0.49050000000000005,9.78057
4085858545,21.78,0.0,0.0,0.0,0.72594,0.48069000000000006,9.80019
4090909050,21.78,0.0,0.0,0.0,0.73575,0.46107000000000004,9.81
4095959555,21.78,0.0,0.0,0.0,0.75537,0.48069000000000006,9.84924
4101010060,21.78,0.0,0.0,0.0,0.75537,0.50031,9.86886
4106060565,21.78,0.0,0.0,0.0,0.7651800000000001,0.46107000000000004,9.82962
4111111070,21.78,0.0,0.0,0.0,0.74556,0.47088,9.819809999999999
4116161575,21.78,0.0,0.0,0.0,0.73575,0.47088,9.81
4121212080,21.78,0.0,0.0,0.0,0.72594,0.48069000000000006,9.81
4126262585,21.78,0.0,0.0,0.0,0.74556,0.48069000000000006,9.819809999999999
4131313090,21.78,0.0,0.0,0.0,0.75537,0.47088,9.819809999999999
4136363595,21.78,0.0,0.0,0.0,0.75537,0.48069000000000006,9.83943
4141414100,21.78,0.0,0.0,0.0,0.74556,0.49050000000000005,9.819809999999999
4146464605,21.78,0.0,0.0,0.0,0.72594,0.49050000000000005,9.84924
4151515110,21.78,0.0,0.0,0.0,0.73575,0.46107000000000004,9.82962
4156565615,21.78,0.0,0.0,0.0,0.73575,0.46107000000000004,9.81
4161616120,21.78,0.0,0.0,0.0,0.74556,0.47088,9.81
4166666625,21.78,0.0,0.0,0.0,0.74556,0.48069000000000006,9.82962
4171717130,21.78,0.0,0.0,0.0,0.75537,0.50031,9.86886
4176767635,21.78,0.0,0.0,0.0,0.73575,0.47088,9.83943
4181818140,21.78,0.0,0.0,0.0,0.74556,0.47088,9.81
4186868645,21.78,0.0,0.0,0.0,0.74556,0.45126,9.79038
4191919150,21.78,0.0,0.0,0.0,0.70632,0.48069000000000006,9.83943
4196969655,21.78,0.0,0.0,0.0,0.72594,0.48069000000000006,9.819809999999999
4202020160,21.78,0.0,0.0,0.0,0.7651800000000001,0.49050000000000005,9.82962
4207070665,21.78,0.0,0.0,0.0,0.73575,0.48069000000000006,9.819809999999999
4212121170,21.78,0.0,0.0,0.0,0.75537,0.48069000000000006,9.82962
4217171675,21.78,0.0,0.0,0.0,0.7651800000000001,0.46107000000000004,9.82962
4222222180,21.78,0.0,0.0,0.0,0.75537,0.50031,9.819809999999999
4227272685,21.78,0.0,0.0,0.0,0.74556,0.48069000000000006,9.819809999999999
4232323190,21.78,0.0,0.0,0.0,0.75537,0.48069000000000006,9.81
4237373695,21.78,0.0,0.0,0.0,0.75537,0.47088,9.819809999999999
4242424200,21.78,0.0,0.0,0.0,0.7651800000000001,0.48069000000000006,9.83943
4247474705,21.78,0.0,0.0,0.0,0.75537,0.46107000000000004,9.819809999999999
4252525210,21.78,0.0,0.0,0.0,0.73575,0.46107000000000004,9.80019
4257575715,21.78,0.0,0.0,0.0,0.73575,0.47088,9.80019
4262626220,21.78,0.0,0.0,0.0,0.7651800000000001,0.46107000000000004,9.82962
4267676725,21.78,0.0,0.0,0.0,0.71613,0.48069000000000006,9.85905
4272727230,21.78,0.0,0.0,0.0,0.73575,0.47088,9.85905
4277777735,21.78,0.0,0.0,0.0,0.73575,0.48069000000000006,9.80019
4282828240,21.78,0.0,0.0,0.0,0.7651800000000001,0.44145,9.81
4287878745,21.78,0.0,0.0,0.0,0.74556,0.47088,9.770760000000001
4292929250,21.78,0.0,0.0,0.0,0.75537,0.46107000000000004,9.84924
4297979755,21.78,0.0,0.0,0.0,0.75537,0.48069000000000006,9.82962
4303030260,21.78,0.0,0.0,0.0,0.75537,0.49050000000000005,9.80019
4308080765,21.78,0.0,0.0,0.0,0.72594,0.48069000000000006,9.819809999999999
4313131270,21.78,0.0,0.0,0.0,0.73575,0.46107000000000004,9.81
4318181775,21.78,0.0,0.0,0.0,0.73575,0.47088,9.82962
4323232280,21.78,0.0,0.0,0.0,0.74556,0.47088,9.819809999999999
4328282785,21.78,0.0,0.0,0.0,0.7651800000000001,0.49050000000000005,9.81
4333333290,21.78,0.0,0.0,0.0,0.75537,0.48069000000000006,9.81
4338383795,21.78,0.0,0.0,0.0,0.72594,0.50031,9.84924
4343434300,21.78,0.0,0.0,0.0,0.75537,0.47088,9.83943
4348484805,21.78,0.0,0.0,0.0,0.7651800000000001,0.44145,9.81
4353535310,21.78,0.0,0.0,0.0,0.75537,0.47088,9.78057
4358585815,21.78,0.0,0.0,0.0,0.75537,0.48069000000000006,9.81
4363636320,21.78,0.0,0.0,0.0,0.74556,0.49050000000000005,9.84924
4368686825,21.78,0.0,0.0,0.0,0.74556,0.49050000000000005,9.84924
4373737330,21.78,0.0,0.0,0.0,0.73575,0.48069000000000006,9.82962
4378787835,21.78,0.0,0.0,0.0,0.74556,0.48069000000000006,9.80019
4383838340,21.78,0.0,0.0,0.0,0.73575,0.45126,9.819809999999999
4388888845,21.78,0.0,0.0,0.0,0.75537,0.45126,9.84924
4393939350,21.78,0.0,0.0,0.0,0.75537,0.47088,9.82962
4398989855,21.78,0.0,0.0,0.0,0.7651800000000001,0.49050000000000005,9.84924
4404040360,21.78,0.0,0.0,0.0,0.7651800000000001,0.49050000000000005,9.81
4409090865,21.78,0.0,0.0,0.0,0.73575,0.48069000000000006,9.82962
4414141370,21.78,0.0,0.0,0.0,0.7651800000000001,0.48069000000000006,9.84924
4419191875,21.78,0.0,0.0,0.0,0.7651800000000001,0.46107000000000004,9.83943
4424242380,21.78,0.0,0.0,0.0,0.73575,0.47088,9.82962
4429292885,21.78,0.0,0.0,0.0,0.72594,0.47088,9.81
4434343390,21.78,0.0,0.0,0.0,0.7749900000000001,0.49050000000000005,9.819809999999999
4439393895,21.78,0.0,0.0,0.0,0.7749900000000001,0.46107000000000004,9.81
4444444400,21.78,0.0,0.0,0.0,0.72594,0.48069000000000006,9.81
4449494905,21.78,0.0,0.0,0.0,0.7651800000000001,0.46107000000000004,9.84924
4454545410,21.78,0.0,0.0,0.0,0.71613,0.47088,9.81
4459595915,21.78,0.0,0.0,0.0,0.74556,0.48069000000000006,9.79038
4464646420,21.78,0.0,0.0,0.0,0.74556,0.46107000000000004,9.82962
4469696925,21.78,0.0,0.0,0.0,0.75537,0.51993,9.83943
4474747430,21.78,0.0,0.0,0.0,0.75537,0.47088,9.84924
4479797935,21.78,0.0,0.0,0.0,0.7749900000000001,0.47088,9.82962
4484848440,21.78,0.0,0.0,0.0,0.73575,0.47088,9.80019
4489898945,21.78,0.0,0.0,0.0,0.73575,0.48069000000000006,9.79038
4494949450,21.78,0.0,0.0,0.0,0.75537,0.45126,9.81
4499999955,21.78,0.0,0.0,0.0,0.74556,0.46107000000000004,9.82962
4505050460,21.78,0.0,0.0,0.0,0.74556,0.47088,9.84924
4510100965,21.78,0.0,0.0,0.0,0.74556,0.49050000000000005,9.81
4515151470,21.78,0.0,0.0,0.0,0.75537,0.49050000000000005,9.819809999999999
4520201975,21.78,0.0,0.0,0.0,0.74556,0.48069000000000006,9.819809999999999
4525252480,21.78,0.0,0.0,0.0,0.73575,0.46107000000000004,9.86886
4530302985,21.78,0.0,0.0,0.0,0.75537,0.48069000000000006,9.83943
4535353490,21.78,0.0,0.0,0.0,0.74556,0.47088,9.819809999999999
4540403995,21.78,0.0,0.0,0.0,0.75537,0.49050000000000005,9.81
4545454500,21.78,0.0,0.0,0.0,0.75537,0.49050000000000005,9.819809999999999
4550505005,21.78,0.0,0.0,0.0,0.7651800000000001,0.47088,9.819809999999999
4555555510,21.78,0.0,0.0,0.0,0.73575,0.47088,9.83943
4560606015,21.78,0.0,0.0,0.0,0.73575,0.46107000000000004,9.819809999999999
4565656520,21.78,0.0,0.0,0.0,0.73575,0.49050000000000005,9.80019
4570707025,21.78,0.0,0.0,0.0,0.7651800000000001,0.50031,9.80019
4575757530,21.78,0.0,0.0,0.0,0.74556,0.49050000000000005,9.83943
4580808035,21.78,0.0,0.0,0.0,0.74556,0.46107000000000004,9.83943
4585858540,21.78,0.0,0.0,0.0,0.74556,0.46107000000000004,9.84924
4590909045,21.78,0.0,0.0,0.0,0.75537,0.49050000000000005,9.819809999999999
4595959550,21.78,0.0,0.0,0.0,0.74556,0.48069000000000006,9.81
4601010055,21.78,0.0,0.0,0.0,0.75537,0.47088,9.81
4606060560,21.78,0.0,0.0,0.0,0.7651800000000001,0.48069000000000006,9.81
4611111065,21.78,0.0,0.0,0.0,0.75537,0.46107000000000004,9.85905
4616161570,21.78,0.0,0.0,0.0,0.74556,0.50031,9.82962
4621212075,21.78,0.0,0.0,0.0,0.73575,0.48069000000000006,9.82962
4626262580,21.78,0.0,0.0,0.0,0.74556,0.46107000000000004,9.81
4631313085,21.78,0.0,0.0,0.0,0.72594,0.48069000000000006,9.79038
4636363590,21.78,0.0,0.0,0.0,0.73575,0.49050000000000005,9.83943
4641414095,21.78,0.0,0.0,0.0,0.7651800000000001,0.47088,9.83943
4646464600,21.78,0.0,0.0,0.0,0.75537,0.46107000000000004,9.82962
4651515105,21.78,0.0,0.0,0.0,0.75537,0.48069000000000006,9.80019
4656565610,21.78,0.0,0.0,0.0,0.74556,0.45126,9.80019
4661616115,21.78,0.0,0.0,0.0,0.73575,0.48069000000000006,9.81
4666666620,21.78,0.0,0.0,0.0,0.75537,0.48069000000000006,9.81
4671717125,21.78,0.0,0.0,0.0,0.74556,0.49050000000000005,9.84924
4676767630,21.78,0.0,0.0,0.0,0.7651800000000001,0.48069000000000006,9.81
4681818135,21.78,0.0,0.0,0.0,0.72594,0.46107000000000004,9.83943
4686868640,21.78,0.0,0.0,0.0,0.74556,0.45126,9.82962
4691919145,21.78,0.0,0.0,0.0,0.71613,0.49050000000000005,9.819809999999999
4696969650,21.78,0.0,0.0,0.0,0.75537,0.50031,9.81
4702020155,21.78,0.0,0.0,0.0,0.75537,0.49050000000000005,9.819809999999999
4707070660,21.78,0.0,0.0,0.0,0.74556,0.48069000000000006,9.82962
4712121165,21.78,0.0,0.0,0.0,0.73575,0.46107000000000004,9.82962
4717171670,21.78,0.0,0.0,0.0,0.75537,0.48069000000000006,9.82962
4722222175,21.78,0.0,0.0,0.0,0.74556,0.49050000000000005,9.82962
4727272680,21.78,0.0,0.0,0.0,0.74556,0.47088,9.83943
4732323185,21.78,0.0,0.0,0.0,0.73575,0.48069000000000006,9.82962
4737373690,21.78,0.0,0.0,0.0,0.72594,0.50031,9.80019
4742424195,21.78,0.0,0.0,0.0,0.75537,0.48069000000000006,9.81
4747474700,21.78,0.0,0.0,0.0,0.7749900000000001,0.46107000000000004,9.82962
4752525205,21.78,0.0,0.0,0.0,0.75537,0.48069000000000006,9.82962
4757575710,21.78,0.0,0.0,0.0,0.74556,0.47088,9.819809999999999
4762626215,21.78,0.0,0.0,0.0,0.7651800000000001,0.47088,9.82962
4767676720,21.78,0.0,0.0,0.0,0.73575,0.48069000000000006,9.81
4772727225,21.78,0.0,0.0,0.0,0.73575,0.47088,9.81
4777777730,21.78,0.0,0.0,0.0,0.73575,0.48069000000000006,9.84924
4782828235,21.78,0.0,0.0,0.0,0.75537,0.46107000000000004,9.82962
4787878740,21.78,0.0,0.0,0.0,0.74556,0.48069000000000006,9.81
4792929245,21.78,0.0,0.0,0.0,0.72594,0.49050000000000005,9.82962
4797979750,21.78,0.0,0.0,0.0,0.74556,0.47088,9.80019
4803030255,21.78,0.0,0.0,0.0,0.75537,0.47088,9.81
4808080760,21.78,0.0,0.0,0.0,0.74556,0.46107000000000004,9.84924
4813131265,21.78,0.0,0.0,0.0,0.75537,0.47088,9.83943
4818181770,21.78,0.0,0.0,0.0,0.74556,0.46107000000000004,9.82962
4823232275,21.78,0.0,0.0,0.0,0.7651800000000001,0.45126,9.81
4828282780,21.78,0.0,0.0,0.0,0.72594,0.47088,9.81
4833333285,21.78,0.0,0.0,0.0,0.75537,0.46107000000000004,9.81
4838383790,21.78,0.0,0.0,0.0,0.73575,0.48069000000000006,9.819809999999999
4843434295,21.78,0.0,0.0,0.0,0.73575,0.49050000000000005,9.82962
4848484800,21.78,0.0,0.0,0.0,0.74556,0.49050000000000005,9.819809999999999
4853535305,21.78,0.0,0.0,0.0,0.73575,0.46107000000000004,9.83943
4858585810,21.78,0.0,0.0,0.0,0.7749900000000001,0.47088,9.819809999999999
4863636315,21.78,0.0,0.0,0.0,0.75537,0.46107000000000004,9.79038
4868686820,21.78,0.0,0.0,0.0,0.74556,0.51012,9.80019
4873737325,21.78,0.0,0.0,0.0,0.75537,0.47088,9.82962
4878787830,21.78,0.0,0.0,0.0,0.73575,0.51012,9.85905
4883838335,21.78,0.0,0.0,0.0,0.75537,0.47088,9.82962
4888888840,21.78,0.0,0.0,0.0,0.73575,0.48069000000000006,9.79038
4893939345,21.78,0.0,0.0,0.0,0.7651800000000001,0.47088,9.770760000000001
4898989850,21.78,0.0,0.0,0.0,0.75537,0.48069000000000006,9.81
4904040355,21.78,0.0,0.0,0.0,0.7651800000000001,0.48069000000000006,9.82962
4909090860,21.78,0.0,0.0,0.0,0.74556,0.47088,9.84924
4914141365,21.78,0.0,0.0,0.0,0.7749900000000001,0.48069000000000006,9.819809999999999
4919191870,21.78,0.0,0.0,0.0,0.72594,0.47088,9.80019
4924242375,21.78,0.0,0.0,0.0,0.73575,0.49050000000000005,9.81
4929292880,21.78,0.0,0.0,0.0,0.74556,0.47088,9.83943
4934343385,21.78,0.0,0.0,0.0,0.7749900000000001,0.47088,9.819809999999999
4939393890,21.78,0.0,0.0,0.0,0.74556,0.48069000000000006,9.82962
4944444395,21.78,0.0,0.0,0.0,0.73575,0.47088,9.819809999999999
4949494900,21.78,0.0,0.0,0.0,0.75537,0.47088,9.81
4954545405,21.78,0.0,0.0,0.0,0.71613,0.45126,9.82962
4959595910,21.78,0.0,0.0,0.0,0.73575,0.49050000000000005,9.82962
4964646415,21.78,0.0,0.0,0.0,0.72594,0.47088,9.81
4969696920,21.78,0.0,0.0,0.0,0.74556,0.47088,9.819809999999999
4974747425,21.78,0.0,0.0,0.0,0.72594,0.48069000000000006,9.82962
4979797930,21.78,0.0,0.0,0.0,0.75537,0.49050000000000005,9.84924
4984848435,21.78,0.0,0.0,0.0,0.73575,0.48069000000000006,9.82962
4989898940,21.78,0.0,0.0,0.0,0.72594,0.47088,9.81
4994949445,21.78,0.0,0.0,0.0,0.73575,0.48069000000000006,9.79038
4999999950,21.78,0.0,0.0,0.0,0.75537,0.47088,9.80019
5005050455,21.78,0.0,0.0,0.0,0.7749900000000001,0.48069000000000006,9.82962
5010100960,21.78,0.0,0.0,0.0,0.74556,0.47088,9.86886
5015151465,21.78,0.0,0.0,0.0,0.75537,0.48069000000000006,9.83943
5020201970,21.78,0.0,0.0,0.0,0.71613,0.47088,9.81
5025252475,21.78,0.0,0.0,0.0,0.74556,0.47088,9.80019
5030302980,21.78,0.0,0.0,0.0,0.72594,0.46107000000000004,9.83943
5035353485,21.78,0.0,0.0,0.0,0.74556,0.48069000000000006,9.85905
5040403990,21.78,0.0,0.0,0.0,0.75537,0.47088,9.819809999999999
5045454495,21.78,0.0,0.0,0.0,0.75537,0.48069000000000006,9.81
5050505000,21.78,0.0,0.0,0.0,0.75537,0.47088,9.81
5055555505,21.78,0.0,0.0,0.0,0.75537,0.48069000000000006,9.83943
5060606010,21.78,0.0,0.0,0.0,0.74556,0.47088,9.81
5065656515,21.78,0.0,0.0,0.0,0.73575,0.48069000000000006,9.82962
5070707020,21.78,0.0,0.0,0.0,0.7651800000000001,0.48069000000000006,9.83943
5075757525,21.78,0.0,0.0,0.0,0.74556,0.48069000000000006,9.81
5080808030,21.78,0.0,0.0,0.0,0.75537,0.49050000000000005,9.83943
5085858535,21.78,0.0,0.0,0.0,0.73575,0.50031,9.81
5090909040,21.78,0.0,0.0,0.0,0.74556,0.47088,9.819809999999999
5095959545,21.78,0.0,0.0,0.0,0.7749900000000001,0.48069000000000006,9.819809999999999
5101010050,21.78,0.0,0.0,0.0,0.74556,0.47088,9.81
5106060555,21.78,0.0,0.0,0.0,0.74556,0.47088,9.81
5111111060,21.78,0.0,0.0,0.0,0.73575,0.49050000000000005,9.82962
5116161565,21.78,0.0,0.0,0.0,0.73575,0.49050000000000005,9.81
5121212070,21.78,0.0,0.0,0.0,0.72594,0.47088,9.81
5126262575,21.78,0.0,0.0,0.0,0.74556,0.46107000000000004,9.83943
5131313080,21.78,0.0,0.0,0.0,0.72594,0.47088,9.79038
5136363585,21.78,0.0,0.0,0.0,0.74556,0.47088,9.81
5141414090,21.78,0.0,0.0,0.0,0.74556,0.48069000000000006,9.82962
5146464595,21.78,0.0,0.0,0.0,0.74556,0.49050000000000005,9.85905
5151515100,21.78,0.0,0.0,0.0,0.7848,0.48069000000000006,9.82962
5156565605,21.78,0.0,0.0,0.0,0.74556,0.48069000000000006,9.819809999999999
5161616110,21.78,0.0,0.0,0.0,0.70632,0.47088,9.81
5166666615,21.78,0.0,0.0,0.0,0.73575,0.47088,9.819809999999999
5171717120,21.78,0.0,0.0,0.0,0.75537,0.49050000000000005,9.83943
5176767625,21.78,0.0,0.0,0.0,0.75537,0.47088,9.83943
5181818130,21.78,0.0,0.0,0.0,0.72594,0.46107000000000004,9.81
5186868635,21.78,0.0,0.0,0.0,0.7651800000000001,0.48069000000000006,9.80019
5191919140,21.78,0.0,0.0,0.0,0.73575,0.46107000000000004,9.81
5196969645,21.78,0.0,0.0,0.0,0.75537,0.49050000000000005,9.83943
5202020150,21.78,0.0,0.0,0.0,0.74556,0.47088,9.81
5207070655,21.78,0.0,0.0,0.0,0.72594,0.48069000000000006,9.82962
5212121160,21.78,0.0,0.0,0.0,0.7848,0.48069000000000006,9.81
5217171665,21.78,0.0,0.0,0.0,0.75537,0.48069000000000006,9.81
5222222170,21.78,0.0,0.0,0.0,0.74556,0.48069000000000006,9.81
5227272675,21.78,0.0,0.0,0.0,0.75537,0.48069000000000006,9.85905
5232323180,21.78,0.0,0.0,0.0,0.75537,0.46107000000000004,9.83943
5237373685,21.78,0.0,0.0,0.0,0.74556,0.48069000000000006,9.84924
5242424190,21.78,0.0,0.0,0.0,0.74556,0.46107000000000004,9.770760000000001
5247474695,21.78,0.0,0.0,0.0,0.72594,0.46107000000000004,9.81
5252525200,21.78,0.0,0.0,0.0,0.75537,0.47088,9.819809999999999
5257575705,21.78,0.0,0.0,0.0,0.75537,0.46107000000000004,9.83943
5262626210,21.78,0.0,0.0,0.0,0.72594,0.47088,9.84924
5267676715,21.78,0.0,0.0,0.0,0.74556,0.47088,9.80019
5272727220,21.78,0.0,0.0,0.0,0.73575,0.50031,9.760950000000001
5277777725,21.78,0.0,0.0,0.0,0.72594,0.48069000000000006,9.80019
5282828230,21.78,0.0,0.0,0.0,0.75537,0.49050000000000005,9.82962
5287878735,21.78,0.0,0.0,0.0,0.72594,0.48069000000000006,9.84924
5292929240,21.78,0.0,0.0,0.0,0.75537,0.46107000000000004,9.84924
5297979745,21.78,0.0,0.0,0.0,0.72594,0.47088,9.79038
5303030250,21.78,0.0,0.0,0.0,0.75537,0.47088,9.80019
5308080755,21.78,0.0,0.0,0.0,0.73575,0.50031,9.83943
5313131260,21.78,0.0,0.0,0.0,0.75537,0.50031,9.84924
5318181765,21.78,0.0,0.0,0.0,0.74556,0.47088,9.84924
5323232270,21.78,0.0,0.0,0.0,0.74556,0.48069000000000006,9.819809999999999
5328282775,21.78,0.0,0.0,0.0,0.72594,0.46107000000000004,9.81
5333333280,21.78,0.0,0.0,0.0,0.73575,0.47088,9.82962
5338383785,21.78,0.0,0.0,0.0,0.75537,0.47088,9.819809999999999
5343434290,21.78,0.0,0.0,0.0,0.7651800000000001,0.47088,9.83943
5348484795,21.78,0.0,0.0,0.0,0.73575,0.46107000000000004,9.79038
5353535300,21.78,0.0,0.0,0.0,0.74556,0.48069000000000006,9.80019
5358585805,21.78,0.0,0.0,0.0,0.7651800000000001,0.47088,9.82962
5363636310,21.78,0.0,0.0,0.0,0.7651800000000001,0.48069000000000006,9.819809999999999
5368686815,21.78,0.0,0.0,0.0,0.75537,0.48069000000000006,9.83943
5373737320,21.78,0.0,0.0,0.0,0.75537,0.46107000000000004,9.81
5378787825,21.78,0.0,0.0,0.0,0.75537,0.48069000000000006,9.81
5383838330,21.78,0.0,0.0,0.0,0.75537,0.49050000000000005,9.819809999999999
5388888835,21.78,0.0,0.0,0.0,0.71613,0.47088,9.85905
5393939340,21.78,0.0,0.0,0.0,0.75537,0.48069000000000006,9.83943
5398989845,21.78,0.0,0.0,0.0,0.73575,0.48069000000000006,9.82962
5404040350,21.78,0.0,0.0,0.0,0.73575,0.47088,9.79038
5409090855,21.78,0.0,0.0,0.0,0.73575,0.47088,9.81
5414141360,21.78,0.0,0.0,0.0,0.72594,0.47088,9.819809999999999
5419191865,21.78,0.0,0.0,0.0,0.75537,0.47088,9.85905
5424242370,21.78,0.0,0.0,0.0,0.74556,0.48069000000000006,9.82962
5429292875,21.78,0.0,0.0,0.0,0.73575,0.49050000000000005,9.80019
5434343380,21.78,0.0,0.0,0.0,0.72594,0.49050000000000005,9.81
5439393885,21.78,0.0,0.0,0.0,0.75537,0.47088,9.79038
5444444390,21.78,0.0,0.0,0.0,0.75537,0.45126,9.819809999999999
5449494895,21.78,0.0,0.0,0.0,0.75537,0.47088,9.83943
5454545400,21.78,0.0,0.0,0.0,0.73575,0.44145,9.819809999999999
5459595905,21.78,0.0,0.0,0.0,0.73575,0.46107000000000004,9.80019
5464646410,21.78,0.0,0.0,0.0,0.75537,0.46107000000000004,9.819809999999999
5469696915,21.78,0.0,0.0,0.0,0.74556,0.49050000000000005,9.82962
5474747420,21.78,0.0,0.0,0.0,0.7651800000000001,0.48069000000000006,9.819809999999999
5479797925,21.78,0.0,0.0,0.0,0.71613,0.48069000000000006,9.82962
5484848430,21.78,0.0,0.0,0.0,0.7651800000000001,0.49050000000000005,9.819809999999999
5489898935,21.78,0.0,0.0,0.0,0.72594,0.48069000000000006,9.82962
5494949440,21.78,0.0,0.0,0.0,0.75537,0.48069000000000006,9.81
5499999945,21.78,0.0,0.0,0.0,0.73575,0.47088,9.819809999999999
5505050450,21.78,0.0,0.0,0.0,0.74556,0.46107000000000004,9.819809999999999
5510100955,21.78,0.0,0.0,0.0,0.7651800000000001,0.46107000000000004,9.819809999999999
5515151460,21.78,0.0,0.0,0.0,0.74556,0.49050000000000005,9.819809999999999
5520201965,21.78,0.0,0.0,0.0,0.74556,0.47088,9.819809999999999
5525252470,21.78,0.0,0.0,0.0,0.71613,0.48069000000000006,9.83943
5530302975,21.78,0.0,0.0,0.0,0.74556,0.47088,9.819809999999999
5535353480,21.78,0.0,0.0,0.0,0.71613,0.49050000000000005,9.81
5540403985,21.78,0.0,0.0,0.0,0.74556,0.50031,9.819809999999999
5545454490,21.78,0.0,0.0,0.0,0.73575,0.46107000000000004,9.819809999999999
5550504995,21.78,0.0,0.0,0.0,0.7651800000000001,0.48069000000000006,9.85905
5555555500,21.78,0.0,0.0,0.0,0.74556,0.47088,9.84924
5560606005,21.78,0.0,0.0,0.0,0.72594,0.48069000000000006,9.81
5565656510,21.78,0.0,0.0,0.0,0.71613,0.48069000000000006,9.81
5570707015,21.78,0.0,0.0,0.0,0.74556,0.48069000000000006,9.81
5575757520,21.78,0.0,0.0,0.0,0.75537,0.49050000000000005,9.81
5580808025,21.78,0.0,0.0,0.0,0.75537,0.46107000000000004,9.83943
5585858530,21.78,0.0,0.0,0.0,0.75537,0.48069000000000006,9.82962
5590909035,21.78,0.0,0.0,0.0,0.72594,0.46107000000000004,9.819809999999999
5595959540,21.78,0.0,0.0,0.0,0.75537,0.48069000000000006,9.80019
5601010045,21.78,0.0,0.0,0.0,0.73575,0.48069000000000006,9.83943
5606060550,21.78,0.0,0.0,0.0,0.71613,0.49050000000000005,9.81
5611111055,21.78,0.0,0.0,0.0,0.74556,0.47088,9.81
5616161560,21.78,0.0,0.0,0.0,0.75537,0.47088,9.82962
5621212065,21.78,0.0,0.0,0.0,0.74556,0.48069000000000006,9.819809999999999
5626262570,21.78,0.0,0.0,0.0,0.73575,0.49050000000000005,9.81
5631313075,21.78,0.0,0.0,0.0,0.74556,0.46107000000000004,9.81
5636363580,21.78,0.0,0.0,0.0,0.7651800000000001,0.47088,9.82962
5641414085,21.78,0.0,0.0,0.0,0.74556,0.49050000000000005,9.78057
5646464590,21.78,0.0,0.0,0.0,0.7651800000000001,0.48069000000000006,9.83943
5651515095,21.78,0.0,0.0,0.0,0.75537,0.47088,9.85905
5656565600,21.78,0.0,0.0,0.0,0.74556,0.49050000000000005,9.81
5661616105,21.78,0.0,0.0,0.0,0.7651800000000001,0.48069000000000006,9.81
5666666610,21.78,0.0,0.0,0.0,0.7651800000000001,0.46107000000000004,9.819809999999999
5671717115,21.78,0.0,0.0,0.0,0.73575,0.48069000000000006,9.82962
5676767620,21.78,0.0,0.0,0.0,0.75537,0.46107000000000004,9.819809999999999
5681818125,21.78,0.0,0.0,0.0,0.73575,0.46107000000000004,9.82962
5686868630,21.78,0.0,0.0,0.0,0.75537,0.49050000000000005,9.82962
5691919135,21.78,0.0,0.0,0.0,0.73575,0.50031,9.82962
5696969640,21.78,0.0,0.0,0.0,0.74556,0.50031,9.819809999999999
5702020145,21.78,0.0,0.0,0.0,0.71613,0.46107000000000004,9.770760000000001
5707070650,21.78,0.0,0.0,0.0,0.74556,0.49050000000000005,9.81
5712121155,21.78,0.0,0.0,0.0,0.74556,0.50031,9.83943
5717171660,21.78,0.0,0.0,0.0,0.73575,0.49050000000000005,9.85905
5722222165,21.78,0.0,0.0,0.0,0.75537,0.46107000000000004,9.83943
5727272670,21.78,0.0,0.0,0.0,0.73575,0.48069000000000006,9.81
5732323175,21.78,0.0,0.0,0.0,0.73575,0.49050000000000005,9.79038
5737373680,21.78,0.0,0.0,0.0,0.71613,0.45126,9.81
5742424185,21.78,0.0,0.0,0.0,0.74556,0.47088,9.83943
5747474690,21.78,0.0,0.0,0.0,0.74556,0.49050000000000005,9.82962
5752525195,21.78,0.0,0.0,0.0,0.72594,0.49050000000000005,9.84924
5757575700,21.78,0.0,0.0,0.0,0.73575,0.48069000000000006,9.81
5762626205,21.78,0.0,0.0,0.0,0.72594,0.46107000000000004,9.81
5767676710,21.78,0.0,0.0,0.0,0.72594,0.48069000000000006,9.83943
5772727215,21.78,0.0,0.0,0.0,0.73575,0.48069000000000006,9.82962
5777777720,21.78,0.0,0.0,0.0,0.72594,0.46107000000000004,9.82962
5782828225,21.78,0.0,0.0,0.0,0.74556,0.47088,9.819809999999999
5787878730,21.78,0.0,0.0,0.0,0.75537,0.47088,9.81
5792929235,21.78,0.0,0.0,0.0,0.72594,0.48069000000000006,9.82962
5797979740,21.78,0.0,0.0,0.0,0.74556,0.45126,9.84924
5803030245,21.78,0.0,0.0,0.0,0.7651800000000001,0.46107000000000004,9.82962
5808080750,21.78,0.0,0.0,0.0,0.74556,0.49050000000000005,9.81
5813131255,21.78,0.0,0.0,0.0,0.72594,0.48069000000000006,9.80019
5818181760,21.78,0.0,0.0,0.0,0.75537,0.49050000000000005,9.81
5823232265,21.78,0.0,0.0,0.0,0.73575,0.48069000000000006,9.83943
5828282770,21.78,0.0,0.0,0.0,0.71613,0.47088,9.83943
5833333275,21.78,0.0,0.0,0.0,0.7749900000000001,0.47088,9.81
5838383780,21.78,0.0,0.0,0.0,0.74556,0.46107000000000004,9.819809999999999
5843434285,21.78,0.0,0.0,0.0,0.75537,0.48069000000000006,9.819809999999999
5848484790,21.78,0.0,0.0,0.0,0.74556,0.49050000000000005,9.819809999999999
5853535295,21.78,0.0,0.0,0.0,0.73575,0.47088,9.84924
5858585800,21.78,0.0,0.0,0.0,0.74556,0.47088,9.80019
5863636305,21.78,0.0,0.0,0.0,0.75537,0.46107000000000004,9.819809999999999
5868686810,21.78,0.0,0.0,0.0,0.75537,0.45126,9.81
5873737315,21.78,0.0,0.0,0.0,0.75537,0.48069000000000006,9.83943
5878787820,21.78,0.0,0.0,0.0,0.72594,0.45126,9.82962
5883838325,21.78,0.0,0.0,0.0,0.75537,0.46107000000000004,9.819809999999999
5888888830,21.78,0.0,0.0,0.0,0.74556,0.46107000000000004,9.79038
5893939335,21.78,0.0,0.0,0.0,0.7651800000000001,0.48069000000000006,9.81
5898989840,21.78,0.0,0.0,0.0,0.75537,0.47088,9.82962
5904040345,21.78,0.0,0.0,0.0,0.71613,0.47088,9.83943
5909090850,21.78,0.0,0.0,0.0,0.72594,0.46107000000000004,9.819809999999999
5914141355,21.78,0.0,0.0,0.0,0.72594,0.48069000000000006,9.81
5919191860,21.78,0.0,0.0,0.0,0.74556,0.48069000000000006,9.81
5924242365,21.78,0.0,0.0,0.0,0.74556,0.47088,9.81
5929292870,21.78,0.0,0.0,0.0,0.75537,0.48069000000000006,9.819809999999999
5934343375,21.78,0.0,0.0,0.0,0.74556,0.47088,9.83943
5939393880,21.78,0.0,0.0,0.0,0.75537,0.46107000000000004,9.83943
5944444385,21.78,0.0,0.0,0.0,0.73575,0.48069000000000006,9.819809999999999
5949494890,21.78,0.0,0.0,0.0,0.74556,0.48069000000000006,9.81
5954545395,21.78,0.0,0.0,0.0,0.75537,0.46107000000000004,9.83943
5959595900,21.78,0.0,0.0,0.0,0.75537,0.48069000000000006,9.82962
5964646405,21.78,0.0,0.0,0.0,0.72594,0.47088,9.82962
5969696910,21.78,0.0,0.0,0.0,0.74556,0.47088,9.819809999999999
5974747415,21.78,0.0,0.0,0.0,0.74556,0.47088,9.81
5979797920,21.78,0.0,0.0,0.0,0.75537,0.49050000000000005,9.83943
5984848425,21.78,0.0,0.0,0.0,0.75537,0.49050000000000005,9.85905
5989898930,21.78,0.0,0.0,0.0,0.75537,0.47088,9.82962
5994949435,21.78,0.0,0.0,0.0,0.73575,0.47088,9.81
5999999940,21.78,0.0,0.0,0.0,0.74556,0.48069000000000006,9.81
6005050445,21.78,0.0,0.0,0.0,0.7651800000000001,0.47088,9.83943
6010100950,21.78,0.0,0.0,0.0,0.74556,0.48069000000000006,9.82962
6015151455,21.78,0.0,0.0,0.0,0.74556,0.48069000000000006,9.81
6020201960,21.78,0.0,0.0,0.0,0.72594,0.47088,9.819809999999999
6025252465,21.78,0.0,0.0,0.0,0.75537,0.50031,9.82962
6030302970,21.78,0.0,0.0,0.0,0.75537,0.44145,9.82962
6035353475,21.78,0.0,0.0,0.0,0.7651800000000001,0.48069000000000006,9.85905
6040403980,21.78,0.0,0.0,0.0,0.74556,0.49050000000000005,9.819809999999999
6045454485,21.78,0.0,0.0,0.0,0.73575,0.48069000000000006,9.819809999999999
6050504990,21.78,0.0,0.0,0.0,0.74556,0.48069000000000006,9.80019
6055555495,21.78,0.0,0.0,0.0,0.75537,0.46107000000000004,9.83943
6060606000,21.78,0.0,0.0,0.0,0.75537,0.45126,9.85905
6065656505,21.78,0.0,0.0,0.0,0.75537,0.45126,9.819809999999999
6070707010,21.78,0.0,0.0,0.0,0.73575,0.49050000000000005,9.819809999999999
6075757515,21.78,0.0,0.0,0.0,0.71613,0.46107000000000004,9.770760000000001
6080808020,21.78,0.0,0.0,0.0,0.72594,0.48069000000000006,9.82962
6085858525,21.78,0.0,0.0,0.0,0.75537,0.47088,9.82962
6090909030,21.78,0.0,0.0,0.0,0.74556,0.47088,9.83943
6095959535,21.78,0.0,0.0,0.0,0.75537,0.47088,9.819809999999999
6101010040,21.78,0.0,0.0,0.0,0.73575,0.46107000000000004,9.81
6106060545,21.78,0.0,0.0,0.0,0.73575,0.47088,9.81
6111111050,21.78,0.0,0.0,0.0,0.74556,0.48069000000000006,9.79038
6116161555,21.78,0.0,0.0,0.0,0.75537,0.46107000000000004,9.82962
6121212060,21.78,0.0,0.0,0.0,0.7749900000000001,0.49050000000000005,9.819809999999999
6126262565,21.78,0.0,0.0,0.0,0.7651800000000001,0.47088,9.82962
6131313070,21.78,0.0,0.0,0.0,0.7651800000000001,0.47088,9.819809999999999
6136363575,21.78,0.0,0.0,0.0,0.74556,0.47088,9.80019
6141414080,21.78,0.0,0.0,0.0,0.74556,0.47088,9.82962
6146464585,21.78,0.0,0.0,0.0,0.75537,0.47088,9.81
6151515090,21.78,0.0,0.0,0.0,0.73575,0.50031,9.82962
6156565595,21.78,0.0,0.0,0.0,0.75537,0.48069000000000006,9.84924
6161616100,21.78,0.0,0.0,0.0,0.74556,0.45126,9.85905
6166666605,21.78,0.0,0.0,0.0,0.7651800000000001,0.45126,9.82962
6171717110,21.78,0.0,0.0,0.0,0.74556,0.48069000000000006,9.80019
6176767615,21.78,0.0,0.0,0.0,0.73575,0.47088,9.80019
6181818120,21.78,0.0,0.0,0.0,0.72594,0.46107000000000004,9.819809999999999
6186868625,21.78,0.0,0.0,0.0,0.75537,0.45126,9.82962
6191919130,21.78,0.0,0.0,0.0,0.74556,0.49050000000000005,9.84924
6196969635,21.78,0.0,0.0,0.0,0.73575,0.46107000000000004,9.84924
6202020140,21.78,0.0,0.0,0.0,0.74556,0.48069000000000006,9.760950000000001
6207070645,21.78,0.0,0.0,0.0,0.75537,0.47088,9.81
6212121150,21.78,0.0,0.0,0.0,0.74556,0.49050000000000005,9.82962
6217171655,21.78,0.0,0.0,0.0,0.73575,0.46107000000000004,9.81
6222222160,21.78,0.0,0.0,0.0,0.75537,0.46107000000000004,9.83943
6227272665,21.78,0.0,0.0,0.0,0.74556,0.48069000000000006,9.82962
6232323170,21.78,0.0,0.0,0.0,0.74556,0.49050000000000005,9.80019
6237373675,21.78,0.0,0.0,0.0,0.75537,0.46107000000000004,9.819809999999999
6242424180,21.78,0.0,0.0,0.0,0.71613,0.47088,9.819809999999999
6247474685,21.78,0.0,0.0,0.0,0.7651800000000001,0.47088,9.81
6252525190,21.78,0.0,0.0,0.0,0.74556,0.48069000000000006,9.819809999999999
6257575695,21.78,0.0,0.0,0.0,0.74556,0.46107000000000004,9.81
6262626200,21.78,0.0,0.0,0.0,0.75537,0.47088,9.84924
6267676705,21.78,0.0,0.0,0.0,0.73575,0.46107000000000004,9.83943
6272727210,21.78,0.0,0.0,0.0,0.73575,0.49050000000000005,9.83943
6277777715,21.78,0.0,0.0,0.0,0.74556,0.49050000000000005,9.82962
6282828220,21.78,0.0,0.0,0.0,0.73575,0.47088,9.78057
6287878725,21.78,0.0,0.0,0.0,0.73575,0.46107000000000004,9.81
6292929230,21.78,0.0,0.0,0.0,0.7651800000000001,0.49050000000000005,9.85905
6297979735,21.78,0.0,0.0,0.0,0.72594,0.48069000000000006,9.85905
6303030240,21.78,0.0,0.0,0.0,0.7651800000000001,0.49050000000000005,9.81
6308080745,21.78,0.0,0.0,0.0,0.75537,0.48069000000000006,9.81
6313131250,21.78,0.0,0.0,0.0,0.7651800000000001,0.46107000000000004,9.819809999999999
6318181755,21.78,0.0,0.0,0.0,0.74556,0.48069000000000006,9.819809999999999
6323232260,21.78,0.0,0.0,0.0,0.74556,0.49050000000000005,9.84924
6328282765,21.78,0.0,0.0,0.0,0.75537,0.49050000000000005,9.82962
6333333270,21.78,0.0,0.0,0.0,0.73575,0.49050000000000005,9.83943
6338383775,21.78,0.0,0.0,0.0,0.74556,0.45126,9.81
6343434280,21.78,0.0,0.0,0.0,0.73575,0.47088,9.83943
6348484785,21.78,0.0,0.0,0.0,0.73575,0.45126,9.81
6353535290,21.78,0.0,0.0,0.0,0.75537,0.46107000000000004,9.84924
6358585795,21.78,0.0,0.0,0.0,0.75537,0.48069000000000006,9.84924
6363636300,21.78,0.0,0.0,0.0,0.75537,0.46107000000000004,9.82962
6368686805,21.78,0.0,0.0,0.0,0.75537,0.47088,9.81
6373737310,21.78,0.0,0.0,0.0,0.75537,0.48069000000000006,9.78057
6378787815,21.78,0.0,0.0,0.0,0.73575,0.48069000000000006,9.819809999999999
6383838320,21.78,0.0,0.0,0.0,0.7651800000000001,0.45126,9.819809999999999
6388888825,21.78,0.0,0.0,0.0,0.74556,0.47088,9.85905
6393939330,21.78,0.0,0.0,0.0,0.73575,0.47088,9.83943
6398989835,21.78,0.0,0.0,0.0,0.75537,0.46107000000000004,9.80019
6404040340,21.78,0.0,0.0,0.0,0.7651800000000001,0.47088,9.80019
6409090845,21.78,0.0,0.0,0.0,0.7651800000000001,0.47088,9.84924
6414141350,21.78,0.0,0.0,0.0,0.7749900000000001,0.48069000000000006,9.87867
6419191855,21.78,0.0,0.0,0.0,0.72594,0.48069000000000006,9.84924
6424242360,21.78,0.0,0.0,0.0,0.75537,0.49050000000000005,9.819809999999999
6429292865,21.78,0.0,0.0,0.0,0.73575,0.48069000000000006,9.79038
6434343370,21.78,0.0,0.0,0.0,0.74556,0.47088,9.819809999999999
6439393875,21.78,0.0,0.0,0.0,0.72594,0.47088,9.82962
6444444380,21.78,0.0,0.0,0.0,0.73575,0.48069000000000006,9.84924
6449494885,21.78,0.0,0.0,0.0,0.73575,0.49050000000000005,9.82962
6454545390,21.78,0.0,0.0,0.0,0.71613,0.49050000000000005,9.80019
6459595895,21.78,0.0,0.0,0.0,0.74556,0.48069000000000006,9.819809999999999
6464646400,21.78,0.0,0.0,0.0,0.73575,0.47088,9.84924
6469696905,21.78,0.0,0.0,0.0,0.73575,0.49050000000000005,9.83943
6474747410,21.78,0.0,0.0,0.0,0.7651800000000001,0.47088,9.84924
6479797915,21.78,0.0,0.0,0.0,0.75537,0.47088,9.80019
6484848420,21.78,0.0,0.0,0.0,0.75537,0.47088,9.80019
6489898925,21.78,0.0,0.0,0.0,0.74556,0.49050000000000005,9.819809999999999
6494949430,21.78,0.0,0.0,0.0,0.75537,0.48069000000000006,9.84924
6499999935,21.78,0.0,0.0,0.0,0.75537,0.47088,9.84924
6505050440,21.78,0.0,0.0,0.0,0.74556,0.49050000000000005,9.81
6510100945,21.78,0.0,0.0,0.0,0.74556,0.46107000000000004,9.819809999999999
6515151450,21.78,0.0,0.0,0.0,0.71613,0.47088,9.83943
6520201955,21.78,0.0,0.0,0.0,0.7651800000000001,0.48069000000000006,9.83943
6525252460,21.78,0.0,0.0,0.0,0.7651800000000001,0.49050000000000005,9.85905
6530302965,21.78,0.0,0.0,0.0,0.71613,0.49050000000000005,9.84924
6535353470,21.78,0.0,0.0,0.0,0.7651800000000001,0.46107000000000004,9.81
6540403975,21.78,0.0,0.0,0.0,0.75537,0.49050000000000005,9.819809999999999
6545454480,21.78,0.0,0.0,0.0,0.73575,0.47088,9.819809999999999
6550504985,21.78,0.0,0.0,0.0,0.73575,0.47088,9.82962
6555555490,21.78,0.0,0.0,0.0,0.72594,0.45126,9.819809999999999
6560605995,21.78,0.0,0.0,0.0,0.7651800000000001,0.47088,9.83943
6565656500,21.78,0.0,0.0,0.0,0.74556,0.44145,9.81
6570707005,21.78,0.0,0.0,0.0,0.73575,0.49050000000000005,9.82962
6575757510,21.78,0.0,0.0,0.0,0.72594,0.47088,9.82962
6580808015,21.78,0.0,0.0,0.0,0.75537,0.46107000000000004,9.81
6585858520,21.78,0.0,0.0,0.0,0.75537,0.48069000000000006,9.82962
6590909025,21.78,0.0,0.0,0.0,0.75537,0.47088,9.81
6595959530,21.78,0.0,0.0,0.0,0.75537,0.46107000000000004,9.82962
6601010035,21.78,0.0,0.0,0.0,0.75537,0.47088,9.819809999999999
6606060540,21.78,0.0,0.0,0.0,0.74556,0.47088,9.819809999999999
6611111045,21.78,0.0,0.0,0.0,0.72594,0.46107000000000004,9.81
6616161550,21.78,0.0,0.0,0.0,0.75537,0.49050000000000005,9.83943
6621212055,21.78,0.0,0.0,0.0,0.74556,0.48069000000000006,9.82962
6626262560,21.78,0.0,0.0,0.0,0.7651800000000001,0.49050000000000005,9.81
6631313065,21.78,0.0,0.0,0.0,0.75537,0.48069000000000006,9.79038
6636363570,21.78,0.0,0.0,0.0,0.75537,0.49050000000000005,9.81
6641414075,21.78,0.0,0.0,0.0,0.73575,0.48069000000000006,9.84924
6646464580,21.78,0.0,0.0,0.0,0.74556,0.47088,9.85905
6651515085,21.78,0.0,0.0,0.0,0.73575,0.47088,9.819809999999999
6656565590,21.78,0.0,0.0,0.0,0.71613,0.49050000000000005,9.80019
6661616095,21.78,0.0,0.0,0.0,0.71613,0.47088,9.81
6666666600,21.78,0.0,0.0,0.0,0.74556,0.48069000000000006,9.84924
6671717105,21.78,0.0,0.0,0.0,0.74556,0.47088,9.85905
6676767610,21.78,0.0,0.0,0.0,0.73575,0.49050000000000005,9.819809999999999
6681818115,21.78,0.0,0.0,0.0,0.74556,0.48069000000000006,9.79038
6686868620,21.78,0.0,0.0,0.0,0.72594,0.50031,9.80019
6691919125,21.78,0.0,0.0,0.0,0.7651800000000001,0.48069000000000006,9.819809999999999
6696969630,21.78,0.0,0.0,0.0,0.74556,0.47088,9.85905
6702020135,21.78,0.0,0.0,0.0,0.75537,0.50031,9.85905
6707070640,21.78,0.0,0.0,0.0,0.70632,0.48069000000000006,9.82962
6712121145,21.78,0.0,0.0,0.0,0.74556,0.47088,9.80019
6717171650,21.78,0.0,0.0,0.0,0.7651800000000001,0.47088,9.81
6722222155,21.78,0.0,0.0,0.0,0.7651800000000001,0.49050000000000005,9.82962
6727272660,21.78,0.0,0.0,0.0,0.75537,0.50031,9.84924
6732323165,21.78,0.0,0.0,0.0,0.73575,0.48069000000000006,9.83943
6737373670,21.78,0.0,0.0,0.0,0.72594,0.45126,9.81
6742424175,21.78,0.0,0.0,0.0,0.75537,0.47088,9.81
6747474680,21.78,0.0,0.0,0.0,0.72594,0.47088,9.82962
6752525185,21.78,0.0,0.0,0.0,0.75537,0.48069000000000006,9.819809999999999
6757575690,21.78,0.0,0.0,0.0,0.75537,0.48069000000000006,9.82962
6762626195,21.78,0.0,0.0,0.0,0.73575,0.48069000000000006,9.81
6767676700,21.78,0.0,0.0,0.0,0.7651800000000001,0.48069000000000006,9.819809999999999
6772727205,21.78,0.0,0.0,0.0,0.75537,0.46107000000000004,9.819809999999999
6777777710,21.78,0.0,0.0,0.0,0.73575,0.46107000000000004,9.85905
6782828215,21.78,0.0,0.0,0.0,0.72594,0.48069000000000006,9.81
6787878720,21.78,0.0,0.0,0.0,0.75537,0.46107000000000004,9.83943
6792929225,21.78,0.0,0.0,0.0,0.7651800000000001,0.48069000000000006,9.80019
6797979730,21.78,0.0,0.0,0.0,0.71613,0.48069000000000006,9.81
6803030235,21.78,0.0,0.0,0.0,0.75537,0.48069000000000006,9.84924
6808080740,21.78,0.0,0.0,0.0,0.75537,0.47088,9.85905
6813131245,21.78,0.0,0.0,0.0,0.7651800000000001,0.47088,9.81
6818181750,21.78,0.0,0.0,0.0,0.75537,0.47088,9.79038
6823232255,21.78,0.0,0.0,0.0,0.71613,0.46107000000000004,9.770760000000001
6828282760,21.78,0.0,0.0,0.0,0.74556,0.47088,9.819809999999999
6833333265,21.78,0.0,0.0,0.0,0.75537,0.48069000000000006,9.84924
6838383770,21.78,0.0,0.0,0.0,0.72594,0.47088,9.85905
6843434275,21.78,0.0,0.0,0.0,0.73575,0.51012,9.819809999999999
6848484780,21.78,0.0,0.0,0.0,0.72594,0.48069000000000006,9.78057
6853535285,21.78,0.0,0.0,0.0,0.73575,0.46107000000000004,9.81
6858585790,21.78,0.0,0.0,0.0,0.75537,0.49050000000000005,9.84924
6863636295,21.78,0.0,0.0,0.0,0.7749900000000001,0.45126,9.83943
6868686800,21.78,0.0,0.0,0.0,0.73575,0.46107000000000004,9.819809999999999
6873737305,21.78,0.0,0.0,0.0,0.7651800000000001,0.48069000000000006,9.84924
6878787810,21.78,0.0,0.0,0.0,0.72594,0.48069000000000006,9.81
6883838315,21.78,0.0,0.0,0.0,0.7651800000000001,0.46107000000000004,9.81
6888888820,21.78,0.0,0.0,0.0,0.73575,0.48069000000000006,9.85905
6893939325,21.78,0.0,0.0,0.0,0.74556,0.50031,9.84924
6898989830,21.78,0.0,0.0,0.0,0.74556,0.49050000000000005,9.82962
6904040335,21.78,0.0,0.0,0.0,0.74556,0.49050000000000005,9.81
6909090840,21.78,0.0,0.0,0.0,0.7651800000000001,0.47088,9.819809999999999
6914141345,21.78,0.0,0.0,0.0,0.7651800000000001,0.46107000000000004,9.81
6919191850,21.78,0.0,0.0,0.0,0.75537,0.47088,9.819809999999999
6924242355,21.78,0.0,0.0,0.0,0.72594,0.50031,9.82962
6929292860,21.78,0.0,0.0,0.0,0.75537,0.50031,9.81
6934343365,21.78,0.0,0.0,0.0,0.74556,0.48069000000000006,9.80019
6939393870,21.78,0.0,0.0,0.0,0.75537,0.49050000000000005,9.81
6944444375,21.78,0.0,0.0,0.0,0.74556,0.45126,9.82962
6949494880,21.78,0.0,0.0,0.0,0.71613,0.46107000000000004,9.81
6954545385,21.78,0.0,0.0,0.0,0.75537,0.47088,9.82962
6959595890,21.78,0.0,0.0,0.0,0.75537,0.45126,9.80019
6964646395,21.78,0.0,0.0,0.0,0.75537,0.46107000000000004,9.82962
6969696900,21.78,0.0,0.0,0.0,0.73575,0.45126,9.82962
6974747405,21.78,0.0,0.0,0.0,0.71613,0.48069000000000006,9.82962
6979797910,21.78,0.0,0.0,0.0,0.75537,0.46107000000000004,9.84924
6984848415,21.78,0.0,0.0,0.0,0.74556,0.48069000000000006,9.82962
6989898920,21.78,0.0,0.0,0.0,0.75537,0.48069000000000006,9.81
6994949425,21.78,0.0,0.0,0.0,0.7651800000000001,0.47088,9.86886
6999999930,21.78,0.0,0.0,0.0,0.75537,0.46107000000000004,9.85905
7005050435,21.78,0.0,0.0,0.0,0.75537,0.49050000000000005,9.83943
7010100940,21.78,0.0,0.0,0.0,0.7651800000000001,0.47088,9.81
7015151445,21.78,0.0,0.0,0.0,0.75537,0.47088,9.81
7020201950,21.78,0.0,0.0,0.0,0.7651800000000001,0.47088,9.82962
7025252455,21.78,0.0,0.0,0.0,0.74556,0.46107000000000004,9.85905
7030302960,21.78,0.0,0.0,0.0,0.73575,0.47088,9.84924
7035353465,21.78,0.0,0.0,0.0,0.72594,0.47088,9.83943
7040403970,21.78,0.0,0.0,0.0,0.73575,0.47088,9.79038
7045454475,21.78,0.0,0.0,0.0,0.75537,0.48069000000000006,9.79038
7050504980,21.78,0.0,0.0,0.0,0.7651800000000001,0.47088,9.81
7055555485,21.78,0.0,0.0,0.0,0.7651800000000001,0.48069000000000006,9.85905
7060605990,21.78,0.0,0.0,0.0,0.73575,0.48069000000000006,9.82962
7065656495,21.78,0.0,0.0,0.0,0.73575,0.48069000000000006,9.80019
7070707000,21.78,0.0,0.0,0.0,0.75537,0.49050000000000005,9.80019
7075757505,21.78,0.0,0.0,0.0,0.72594,0.50031,9.83943
7080808010,21.78,0.0,0.0,0.0,0.72594,0.45126,9.819809999999999
7085858515,21.78,0.0,0.0,0.0,0.73575,0.48069000000000006,9.819809999999999
7090909020,21.78,0.0,0.0,0.0,0.75537,0.49050000000000005,9.80019
7095959525,21.78,0.0,0.0,0.0,0.7651800000000001,0.50031,9.81
7101010030,21.78,0.0,0.0,0.0,0.7651800000000001,0.47088,9.81
7106060535,21.78,0.0,0.0,0.0,0.75537,0.46107000000000004,9.84924
7111111040,21.78,0.0,0.0,0.0,0.74556,0.47088,9.819809999999999
7116161545,21.78,0.0,0.0,0.0,0.71613,0.47088,9.819809999999999
7121212050,21.78,0.0,0.0,0.0,0.73575,0.46107000000000004,9.819809999999999
7126262555,21.78,0.0,0.0,0.0,0.73575,0.47088,9.819809999999999
7131313060,21.78,0.0,0.0,0.0,0.7651800000000001,0.47088,9.84924
7136363565,21.78,0.0,0.0,0.0,0.73575,0.49050000000000005,9.80019
7141414070,21.78,0.0,0.0,0.0,0.70632,0.51993,9.760950000000001
7146464575,21.78,0.0,0.0,0.0,0.71613,0.43164,9.770760000000001
7151515080,21.78,0.0,0.0,0.0,0.65727,0.47088,9.82962
7156565585,21.78,-0.039409534510031964,0.11292280260403312,-0.007452555906015787,1.19682,0.30411,9.97677
7161616090,21.78,-0.003193952531149623,0.13849187614575004,-0.003193952531149623,-0.24525000000000002,0.26487,10.19259
7166666595,21.78,-0.01811651763570114,0.2886949115723821,-0.011711159280881954,0.72594,0.37278,10.25145
7171717100,21.78,0.08309512568745003,0.19067722078038052,0.0,-1.83447,0.72594,10.1043
7176767605,21.78,-0.04153883619746504,0.16617279808238014,-0.011711159280881954,-1.19682,0.38259000000000004,8.60337
7181818110,21.78,0.02769837522915001,0.09480628496833199,0.002129301687433082,-1.58922,0.38259000000000004,10.34955
7186868615,21.78,-0.001064650843716541,-0.17257815643719931,0.004258603374866164,-2.2563000000000004,0.6670800000000001,9.70209
7191919120,21.78,-0.02769837522915001,-0.10012953918691468,0.00958185759344887,0.06867000000000001,0.5886,9.95715
7196969625,21.78,0.02556907354171693,-0.4463505029050298,0.011711159280881954,-1.20663,0.5493600000000001,10.56537
7202020130,21.78,0.0,-0.35899677384271356,0.006387905062299246,2.30535,0.50031,8.28945
7207070635,21.78,0.00958185759344887,-0.3792425931658478,0.014905111812031574,1.1477700000000002,2.52117,10.535940000000002
7212121140,21.78,0.02769837522915001,-0.3526088687804144,0.00958185759344887,6.052770000000001,-0.009810000000000001,9.99639
7217171645,21.78,-0.10759954838545042,0.15978489302008084,0.0,2.24649,-0.30411,9.42741
7222222150,21.78,-0.05752605214573309,0.05113814708343386,-0.001064650843716541,3.48255,-0.04905,8.83881
7227272655,21.78,-0.008517206749732328,0.24713862208239704,0.001064650843716541,2.06991,-0.12753,9.21159
7232323160,21.78,0.03728023282259888,0.258867234655799,-0.008517206749732328,0.60822,0.48069000000000006,10.604610000000001
7237373665,21.78,0.06391395720803235,0.28335420406127937,-0.013840460968315033,0.5493600000000001,0.9810000000000001,10.38879
7242424170,21.78,0.06604325889546543,0.24607397123868052,-0.014905111812031574,-0.9810000000000001,0.9319500000000001,10.653660000000002
7247474675,21.78,0.03728023282259888,0.12676326357234816,-0.008517206749732328,-0.9221400000000001,1.06929,8.779950000000001
7252525180,21.78,-0.05539675045830002,0.13634512116579703,-0.004258603374866164,-1.0987200000000001,0.9123300000000001,9.65304
7257575685,21.78,-0.04153883619746504,-0.0756251164889143,0.004258603374866164,-1.39302,0.6278400000000001,9.26064
7262626190,21.78,-0.11079350091660004,-0.08309512568745003,0.011711159280881954,-0.5886,0.32373,9.81
7267676695,21.78,-0.07349581480148122,-0.22156954854068012,0.015987215948268057,-0.37278,0.11772,10.712520000000001
7272727200,21.78,-0.0404741853537485,-0.31744048435272865,0.01064650843716541,0.69651,0.10791,10.15335
7277777705,21.78,-0.022375121010567305,-0.27377234646783055,0.012775810124598492,1.5303600000000002,0.06867000000000001,9.937529999999999
7282828210,21.78,-0.002129301687433082,-0.28761280743614553,0.006387905062299246,2.24649,0.50031,9.23121
7287878715,21.78,-0.005323254218582705,-0.12356931104119852,0.002129301687433082,3.8553300000000004,0.08829,9.94734
7292929220,21.78,-0.014905111812031574,0.11611675513518273,-0.005323254218582705,2.7173700000000003,0.12753,9.96696
7297979725,21.78,0.01064650843716541,0.20879373841608162,-0.007452555906015787,2.7075600000000004,0.36297,9.39798
7303030230,21.78,0.03089232776029963,0.3110525792904294,-0.004258603374866164,0.6867000000000001,0.8142300000000001,10.11411
7308080735,21.78,0.04260348704118158,0.22689280275926285,-0.008517206749732328,-0.15696000000000002,0.87309,10.05525
7313131240,21.78,0.011711159280881954,0.20240583335378237,-0.002129301687433082,-0.24525000000000002,0.9711900000000001,10.1043
7318181745,21.78,-0.011711159280881954,0.07883652231258387,-0.003193952531149623,-1.21644,0.70632,10.05525
7323232250,21.78,-0.05326744877086694,-0.03089232776029963,0.0,-0.3924,0.5886,9.45684
7328282755,21.78,-0.06923721142661506,-0.05752605214573309,0.005323254218582705,-0.50031,0.26487,9.65304
7333333260,21.78,-0.060720004676882725,-0.19387117331153014,0.004258603374866164,0.21582,-0.04905,9.358740000000001
7338383765,21.78,-0.06604325889546543,-0.11185815176031658,0.004258603374866164,0.90252,0.08829,9.85905
7343434270,21.78,0.007452555906015787,-0.1555262896452147,0.005323254218582705,0.8142300000000001,0.10791,10.24164
7348484775,21.78,0.03728023282259888,-0.08203047484373349,0.002129301687433082,1.6382700000000001,0.56898,9.623610000000001
7353535280,21.78,0.044732788728614664,-0.021310470166850764,0.005323254218582705,1.24587,0.79461,9.99639
7358585785,21.78,0.02663372438543347,-0.049008845396000776,-0.001064650843716541,1.3832099999999998,0.8142300000000001,9.56475
7363636290,21.78,-0.015987215948268057,0.03089232776029963,0.001064650843716541,1.44207,0.8142300000000001,9.55494
7368686795,21.78,-0.02769837522915001,-0.0,-0.002129301687433082,1.2753,0.64746,9.78057
7373737300,21.78,-0.049008845396000776,0.06817256058289851,-0.004258603374866164,1.3537800000000002,0.59841,9.82962
7378787805,21.78,-0.05007349623971732,0.08628907821859966,0.0,0.80442,0.45126,10.1043
7383838310,21.78,-0.05220279792715039,0.0852244273748831,-0.004258603374866164,0.72594,0.37278,9.57456
7388888815,21.78,-0.05965535383316618,0.10866419922916695,0.0,0.2943,0.24525000000000002,9.79038
7393939320,21.78,-0.04153883619746504,0.04366813788489812,-0.002129301687433082,0.039240000000000004,0.18639,9.80019
7398989825,21.78,-0.04153883619746504,0.05326744877086694,0.0,0.019620000000000002,0.23544,9.91791
7404040330,21.78,-0.007452555906015787,-0.049008845396000776,0.003193952531149623,-0.07848000000000001,0.23544,10.13373
7409090835,21.78,0.001064650843716541,-0.08203047484373349,0.001064650843716541,0.2943,0.43164,9.64323
7414141340,21.78,0.00958185759344887,-0.10759954838545042,0.005323254218582705,0.50031,0.50031,9.67266
7419191845,21.78,0.006387905062299246,-0.14594443205176583,0.002129301687433082,1.1477700000000002,0.52974,9.47646
7424242350,21.78,-0.01811651763570114,-0.060720004676882725,0.0,1.54017,0.63765,9.97677
7429292855,21.78,-0.001064650843716541,-0.03834488366631542,0.002129301687433082,1.5990300000000002,0.5886,10.31031
7434343360,21.78,-0.01918116847941768,0.05220279792715039,-0.002129301687433082,1.51074,0.72594,9.86886
7439393865,21.78,-0.03621558197888234,0.09161233243718235,-0.002129301687433082,0.9613800000000001,0.50031,9.64323
7444444370,21.78,-0.05007349623971732,0.08096582400001695,-0.002129301687433082,0.73575,0.34335000000000004,9.33912
7449494875,21.78,-0.07030186227033158,0.09800023749948161,0.0,0.38259000000000004,0.31392000000000003,9.760950000000001
7454545380,21.78,-0.04153883619746504,0.03089232776029963,-0.001064650843716541,0.24525000000000002,0.16677000000000003,10.17297
7459595885,21.78,-0.031956978604016174,0.007452555906015787,0.0,0.20601000000000003,0.31392000000000003,10.12392
7464646390,21.78,-0.011711159280881954,-0.039409534510031964,0.004258603374866164,0.23544,0.32373,9.85905
7469696895,21.78,-0.002129301687433082,-0.08628907821859966,0.001064650843716541,0.5886,0.43164,9.358740000000001
7474747400,21.78,0.0,-0.05113814708343386,0.001064650843716541,0.85347,0.57879,9.496080000000001
7479797905,21.78,-0.005323254218582705,-0.04581489286485115,0.0,1.06929,0.56898,9.937529999999999
7484848410,21.78,-0.015987215948268057,0.005323254218582705,0.0,1.2360600000000002,0.63765,10.13373
7489898915,21.78,-0.023439771854283843,0.031956978604016174,-0.001064650843716541,0.9123300000000001,0.60822,10.08468
7494949420,21.78,-0.03621558197888234,0.02982767691658309,-0.002129301687433082,0.80442,0.49050000000000005,9.46665
7499999925,21.78,-0.04581489286485115,0.04260348704118158,0.0,0.64746,0.48069000000000006,9.37836
7505050430,21.78,-0.044732788728614664,0.002129301687433082,0.001064650843716541,0.47088,0.37278,9.74133
7510100935,21.78,-0.05752605214573309,-0.004258603374866164,0.002129301687433082,0.75537,0.25506,10.01601
7515151440,21.78,-0.04581489286485115,-0.02663372438543347,0.004258603374866164,0.6180300000000001,0.20601000000000003,10.37898
7520201945,21.78,-0.02556907354171693,-0.03621558197888234,0.001064650843716541,0.9613800000000001,0.32373,9.770760000000001
7525252450,21.78,-0.014905111812031574,-0.007452555906015787,0.0,0.89271,0.32373,9.633420000000001
7530302955,21.78,-0.01064650843716541,-0.003193952531149623,-0.001064650843716541,0.9123300000000001,0.46107000000000004,9.44703
7535353460,21.78,-0.0170518667919846,0.04794419455228423,0.0,0.9613800000000001,0.49050000000000005,9.64323
7540403965,21.78,-0.01918116847941768,0.03408628029144926,-0.001064650843716541,0.63765,0.47088,10.212209999999999
7545454470,21.78,-0.031956978604016174,0.049008845396000776,0.001064650843716541,0.51993,0.50031,10.15335
7550504975,21.78,-0.03408628029144926,0.005323254218582705,0.001064650843716541,0.32373,0.40221,10.074869999999999
7555555480,21.78,-0.039409534510031964,-0.033021629447732716,0.001064650843716541,0.41202000000000005,0.36297,9.56475
7560605985,21.78,-0.039409534510031964,-0.049008845396000776,0.003193952531149623,0.5886,0.31392000000000003,9.57456
7565656490,21.78,-0.021310470166850764,-0.08309512568745003,0.003193952531149623,0.95157,0.31392000000000003,9.66285
7570706995,21.78,-0.031956978604016174,-0.03834488366631542,0.0,1.21644,0.34335000000000004,9.98658
7575757500,21.78,-0.02663372438543347,-0.008517206749732328,0.0,1.3243500000000001,0.27468000000000004,10.23183
7580808005,21.78,-0.0170518667919846,0.046879543708567686,-0.001064650843716541,1.1183400000000001,0.42183,9.74133
7585858510,21.78,-0.020245819323134222,0.09374163412461543,-0.001064650843716541,0.7651800000000001,0.44145,9.52551
7590909015,21.78,-0.005323254218582705,0.07243116395776468,-0.001064650843716541,0.45126,0.46107000000000004,9.45684
7595959520,21.78,-0.023439771854283843,0.06497860805174888,-0.002129301687433082,0.17658,0.59841,9.83943
7601010025,21.78,-0.021310470166850764,-0.007452555906015787,0.001064650843716541,0.1962,0.51012,10.31031
7606060530,21.78,-0.031956978604016174,-0.060720004676882725,0.002129301687433082,0.27468000000000004,0.51993,10.074869999999999
7611111035,21.78,-0.0404741853537485,-0.07883652231258387,0.004258603374866164,0.65727,0.46107000000000004,9.5157
7616161540,21.78,-0.046879543708567686,-0.10438814256178083,0.003193952531149623,1.03986,0.23544,9.25083
7621212045,21.78,-0.05752605214573309,-0.04366813788489812,0.001064650843716541,1.31454,0.2943,9.60399
7626262550,21.78,-0.033021629447732716,-0.012775810124598492,0.001064650843716541,1.42245,0.22563,10.26126
7631313055,21.78,-0.020245819323134222,0.031956978604016174,-0.002129301687433082,1.3047300000000002,0.42183,10.182780000000001
7636363560,21.78,-0.01918116847941768,0.0852244273748831,-0.002129301687433082,0.94176,0.45126,9.760950000000001
7641414065,21.78,-0.013840460968315033,0.07777187146886733,-0.003193952531149623,0.6670800000000001,0.43164,9.29007
7646464570,21.78,-0.03621558197888234,0.09480628496833199,-0.004258603374866164,0.25506,0.52974,9.6138
7651515075,21.78,-0.03515093113516579,0.02982767691658309,0.001064650843716541,0.13734000000000002,0.44145,10.17297
7656565580,21.78,-0.044732788728614664,-0.02769837522915001,0.0,0.08829,0.37278,10.163160000000001
7661616085,21.78,-0.05326744877086694,-0.07030186227033158,0.003193952531149623,0.3924,0.2943,9.87867
7666666590,21.78,-0.03408628029144926,-0.09800023749948161,0.003193952531149623,0.85347,0.20601000000000003,9.38817
7671717095,21.78,-0.03408628029144926,-0.05326744877086694,0.002129301687433082,1.05948,0.41202000000000005,9.60399
7676767600,21.78,-0.020245819323134222,-0.03728023282259888,0.004258603374866164,1.26549,0.32373,10.1043
7681818105,21.78,-0.031956978604016174,0.005323254218582705,-0.002129301687433082,1.1772,0.40221,10.12392
7686868610,21.78,-0.04366813788489812,0.039409534510031964,0.0,1.02024,0.36297,9.86886
7691919115,21.78,-0.02663372438543347,0.044732788728614664,0.002129301687433082,0.94176,0.27468000000000004,9.46665
7696969620,21.78,-0.03728023282259888,0.07883652231258387,0.0,0.51012,0.45126,9.67266
7702020125,21.78,-0.022375121010567305,0.039409534510031964,0.0,0.51012,0.35316,10.12392
7707070630,21.78,-0.031956978604016174,0.001064650843716541,0.0,0.16677000000000003,0.40221,10.074869999999999
7712121135,21.78,-0.04581489286485115,-0.039409534510031964,-0.001064650843716541,0.50031,0.27468000000000004,9.82962
7717171640,21.78,-0.02982767691658309,-0.07990117315630041,0.002129301687433082,0.65727,0.24525000000000002,9.60399
7722222145,21.78,-0.0404741853537485,-0.054332099614583476,0.003193952531149623,1.01043,0.34335000000000004,9.751140000000001
7727272650,21.78,-0.024504422698000388,-0.03515093113516579,0.002129301687433082,1.3734000000000002,0.20601000000000003,10.045440000000001
7732323155,21.78,-0.022375121010567305,0.014905111812031574,-0.001064650843716541,1.10853,0.46107000000000004,9.85905
7737373660,21.78,-0.015987215948268057,0.05965535383316618,0.0,1.0987200000000001,0.34335000000000004,9.73152
7742424165,21.78,-0.006387905062299246,0.06923721142661506,-0.001064650843716541,0.6180300000000001,0.5395500000000001,9.50589
7747474670,21.78,-0.039409534510031964,0.08203047484373349,-0.001064650843716541,0.37278,0.48069000000000006,9.7119
7752525175,21.78,-0.031956978604016174,0.020245819323134222,-0.001064650843716541,0.30411,0.2943,10.074869999999999
7757575680,21.78,-0.049008845396000776,-0.005323254218582705,-0.002129301687433082,0.11772,0.47088,10.045440000000001
7762626185,21.78,-0.033021629447732716,-0.06178465552059926,0.005323254218582705,0.51012,0.28449,9.760950000000001
7767676690,21.78,-0.03515093113516579,-0.08628907821859966,0.002129301687433082,0.57879,0.38259000000000004,9.40779
7772727195,21.78,-0.04366813788489812,-0.07777187146886733,0.005323254218582705,1.06929,0.25506,9.54513
7777777700,21.78,-0.03089232776029963,-0.07243116395776468,0.003193952531149623,1.3635900000000003,0.27468000000000004,9.83943
7782828205,21.78,-0.044732788728614664,0.003193952531149623,0.0,1.49112,0.36297,10.22202
7787878710,21.78,-0.014905111812031574,0.03515093113516579,-0.001064650843716541,1.3537800000000002,0.35316,10.1043
7792929215,21.78,-0.033021629447732716,0.08415977653116657,-0.003193952531149623,0.87309,0.50031,9.48627
7797979720,21.78,-0.0404741853537485,0.09374163412461543,-0.001064650843716541,0.60822,0.31392000000000003,9.47646
7803030225,21.78,-0.04366813788489812,0.06284930636431581,-0.001064650843716541,0.26487,0.40221,9.69228
7808080730,21.78,-0.05113814708343386,0.044732788728614664,0.001064650843716541,0.23544,0.31392000000000003,10.29069
7813131235,21.78,-0.04153883619746504,-0.03515093113516579,0.004258603374866164,0.16677000000000003,0.26487,10.32993
7818181740,21.78,-0.04794419455228423,-0.05646140130201656,0.0,0.44145,0.1962,9.79038
7823232245,21.78,-0.03515093113516579,-0.09054768159346581,0.004258603374866164,0.72594,0.1962,9.48627
7828282750,21.78,-0.02982767691658309,-0.07243116395776468,0.003193952531149623,1.0791000000000002,0.23544,9.44703
7833333255,21.78,-0.02769837522915001,-0.03834488366631542,0.003193952531149623,1.31454,0.27468000000000004,10.06506
7838383760,21.78,-0.02769837522915001,-0.002129301687433082,-0.001064650843716541,1.3341600000000002,0.27468000000000004,10.32993
7843434265,21.78,-0.02769837522915001,0.04366813788489812,-0.002129301687433082,1.22625,0.34335000000000004,10.006200000000002
7848484770,21.78,-0.02982767691658309,0.0756251164889143,-0.002129301687433082,0.8829,0.33354000000000006,9.66285
7853535275,21.78,-0.02769837522915001,0.09267698328089889,-0.002129301687433082,0.56898,0.35316,9.43722
7858585780,21.78,-0.03515093113516579,0.07349581480148122,-0.001064650843716541,0.16677000000000003,0.34335000000000004,9.81
7863636285,21.78,-0.03621558197888234,0.01811651763570114,0.0,0.12753,0.32373,10.074869999999999
7868686790,21.78,-0.03834488366631542,-0.03515093113516579,0.001064650843716541,0.08829,0.33354000000000006,10.074869999999999
7873737295,21.78,-0.03515093113516579,-0.08948303074974927,0.004258603374866164,0.47088,0.24525000000000002,9.81
7878787800,21.78,-0.03408628029144926,-0.10225884087434776,0.006387905062299246,0.7749900000000001,0.30411,9.58437
7883838305,21.78,-0.031956978604016174,-0.10012953918691468,0.004258603374866164,1.15758,0.25506,9.57456
7888888810,21.78,-0.031956978604016174,-0.06284930636431581,0.001064650843716541,1.5303600000000002,0.28449,9.751140000000001
7893939315,21.78,-0.028763026072866547,-0.007452555906015787,0.0,1.5990300000000002,0.35316,10.045440000000001
7898989820,21.78,-0.021310470166850764,0.05646140130201656,-0.002129301687433082,1.46169,0.3924,9.819809999999999
7904040325,21.78,-0.033021629447732716,0.11398745344774965,-0.002129301687433082,1.03005,0.42183,9.73152
7909090830,21.78,-0.03728023282259888,0.13421581947836395,-0.002129301687433082,0.60822,0.40221,9.58437
7914141335,21.78,-0.04260348704118158,0.12356931104119852,-0.001064650843716541,0.04905,0.42183,9.83943
7919191840,21.78,-0.05113814708343386,0.06817256058289851,0.0,-0.17658,0.33354000000000006,9.96696
7924242345,21.78,-0.05646140130201656,-0.012775810124598492,0.002129301687433082,-0.27468000000000004,0.22563,9.89829
7929292850,21.78,-0.06178465552059926,-0.0852244273748831,0.003193952531149623,0.07848000000000001,0.15696000000000002,9.7119
7934343355,21.78,-0.04581489286485115,-0.1374272253020335,0.008517206749732328,0.50031,0.0981,9.82962
7939393860,21.78,-0.03089232776029963,-0.150203035426632,0.002129301687433082,1.1183400000000001,0.18639,9.85905
7944444365,21.78,-0.01918116847941768,-0.1171814059788993,0.006387905062299246,1.51074,0.21582,9.89829
7949494870,21.78,-0.01811651763570114,-0.06497860805174888,0.002129301687433082,1.8442800000000001,0.34335000000000004,9.83943
7954545375,21.78,-0.0170518667919846,0.023439771854283843,0.0,1.8639000000000001,0.36297,9.770760000000001
7959595880,21.78,-0.02769837522915001,0.08948303074974927,-0.002129301687433082,1.5303600000000002,0.41202000000000005,9.82962
7964646385,21.78,-0.0404741853537485,0.15233233711406508,-0.002129301687433082,1.03986,0.36297,10.006200000000002
7969696890,21.78,-0.05007349623971732,0.14700908289548237,-0.004258603374866164,0.36297,0.26487,10.006200000000002
7974747395,21.78,-0.060720004676882725,0.12250466019748199,-0.001064650843716541,-0.039240000000000004,0.17658,9.79038
7979797900,21.78,-0.05539675045830002,0.06817256058289851,0.0,-0.25506,0.0981,9.84924
7984848405,21.78,-0.04366813788489812,-0.011711159280881954,-0.001064650843716541,-0.34335000000000004,0.0981,9.95715
7989898910,21.78,-0.031956978604016174,-0.08735372906231618,0.004258603374866164,-0.019620000000000002,0.0981,9.81
7994949415,21.78,-0.02663372438543347,-0.1416858286768997,0.006387905062299246,0.37278,0.10791,9.80019
7999999920,21.78,-0.01811651763570114,-0.17151350559348277,0.006387905062299246,1.00062,0.1962,9.82962
8005050425,21.78,-0.007452555906015787,-0.1352804703220805,0.005323254218582705,1.54017,0.30411,9.91791
8010100930,21.78,-0.001064650843716541,-0.08628907821859966,0.002129301687433082,1.90314,0.40221,9.74133
8015151435,21.78,-0.01064650843716541,0.006387905062299246,0.0,2.01105,0.47088,9.74133
8020201940,21.78,-0.022375121010567305,0.06923721142661506,-0.003193952531149623,1.65789,0.51993,9.7119
8025252445,21.78,-0.04260348704118158,0.15446163880149816,-0.008517206749732328,1.3341600000000002,0.51012,9.70209
8030302950,21.78,-0.05220279792715039,0.16938420390604966,-0.004258603374866164,0.52974,0.34335000000000004,9.94734
8035353455,21.78,-0.06923721142661506,0.1704488547497662,-0.004258603374866164,0.14715,0.2943,9.81
8040403960,21.78,-0.06817256058289851,0.09587093581204853,0.0,-0.51993,0.08829,9.91791
8045454465,21.78,-0.06178465552059926,0.0170518667919846,0.0,-0.43164,0.11772,9.6138
8050504970,21.78,-0.05220279792715039,-0.0756251164889143,0.005323254218582705,-0.41202000000000005,0.0,9.80019
8055555475,21.78,-0.03515093113516579,-0.15659094048893124,0.004258603374866164,0.32373,0.04905,9.64323
8060605980,21.78,-0.022375121010567305,-0.16404349639494703,0.005323254218582705,0.70632,0.14715,9.94734
8065656485,21.78,-0.007452555906015787,-0.19067722078038052,0.007452555906015787,1.50093,0.21582,9.87867
8070706990,21.78,-0.004258603374866164,-0.10012953918691468,0.004258603374866164,1.83447,0.3924,9.92772
8075757495,21.78,-0.00958185759344887,-0.06178465552059926,0.002129301687433082,2.08953,0.43164,9.66285
8080808000,21.78,-0.02769837522915001,0.06604325889546543,0.0,2.04048,0.48069000000000006,9.6138
8085858505,21.78,-0.04794419455228423,0.1171814059788993,-0.004258603374866164,1.43226,0.35316,10.01601
8090909010,21.78,-0.06178465552059926,0.19280652246781357,-0.008517206749732328,1.13796,0.31392000000000003,9.908100000000001
8095959515,21.78,-0.06817256058289851,0.18535396656179778,-0.005323254218582705,0.039240000000000004,0.12753,10.1043
8101010020,21.78,-0.07243116395776468,0.14594443205176583,-0.003193952531149623,-0.039240000000000004,-0.019620000000000002,9.72171
8106060525,21.78,-0.07030186227033158,0.08735372906231618,0.0,-0.69651,-0.18639,10.045440000000001
8111111030,21.78,-0.04260348704118158,-0.022375121010567305,0.0,-0.3924,-0.07848000000000001,9.85905
8116161535,21.78,-0.01064650843716541,-0.08309512568745003,0.006387905062299246,-0.33354000000000006,0.0981,9.91791
8121212040,21.78,0.0,-0.1800307123432151,0.006387905062299246,0.20601000000000003,0.20601000000000003,9.60399
8126262545,21.78,0.004258603374866164,-0.17683675981206545,0.008517206749732328,0.9221400000000001,0.30411,9.751140000000001
8131313050,21.78,-0.001064650843716541,-0.2130523417909478,0.006387905062299246,1.3047300000000002,0.34335000000000004,10.01601
8136363555,21.78,-0.011711159280881954,-0.1374272253020335,0.002129301687433082,2.31516,0.6180300000000001,9.89829
8141414060,21.78,-0.0170518667919846,-0.05007349623971732,0.002129301687433082,2.4525,0.26487,10.31031
8146464565,21.78,-0.03408628029144926,0.044732788728614664,-0.002129301687433082,2.27592,0.3924,9.10368
8151515070,21.78,-0.05965535383316618,0.18854791909294744,-0.003193952531149623,1.49112,0.30411,9.58437
8156565575,21.78,-0.046879543708567686,0.18109536318693162,-0.007452555906015787,0.94176,0.1962,9.60399
8161616080,21.78,-0.07243116395776468,0.24926792376983012,-0.007452555906015787,0.25506,0.16677000000000003,10.143540000000002
8166666585,21.78,-0.046879543708567686,0.16191419470751395,-0.004258603374866164,-0.51012,0.04905,10.33974
8171717090,21.78,-0.04366813788489812,0.1097288500728835,-0.001064650843716541,-0.60822,0.13734000000000002,9.87867
8176767595,21.78,-0.03728023282259888,0.01064650843716541,0.001064650843716541,-0.9123300000000001,0.11772,9.64323
8181818100,21.78,-0.02982767691658309,-0.09054768159346581,0.002129301687433082,-0.37278,0.15696000000000002,9.2214
8186868605,21.78,-0.033021629447732716,-0.15126768627034853,0.005323254218582705,-0.0981,0.1962,9.770760000000001
8191919110,21.78,-0.01811651763570114,-0.2162462943220974,0.008517206749732328,0.63765,0.1962,10.01601
8196969615,21.78,-0.02663372438543347,-0.2162462943220974,0.007452555906015787,1.2753,0.22563,10.320120000000001
8202020120,21.78,-0.01918116847941768,-0.19708257913519966,0.00958185759344887,1.8737100000000002,0.22563,9.95715
8207070625,21.78,-0.02556907354171693,-0.13208651779093086,0.002129301687433082,2.48193,0.32373,9.54513
8212121130,21.78,-0.03515093113516579,0.002129301687433082,0.0,2.65851,0.26487,9.70209
8217171635,21.78,-0.03728023282259888,0.09906488834319814,-0.001064650843716541,2.20725,0.22563,9.59418
8222222140,21.78,-0.05539675045830002,0.20772908757236508,-0.007452555906015787,1.58922,0.21582,10.074869999999999
8227272645,21.78,-0.049008845396000776,0.2162462943220974,-0.007452555906015787,0.6768900000000001,0.11772,10.045440000000001
8232323150,21.78,-0.06178465552059926,0.2130523417909478,-0.007452555906015787,0.10791,-0.039240000000000004,10.045440000000001
8237373655,21.78,-0.05326744877086694,0.17470745812463237,-0.003193952531149623,-0.47088,-0.02943,10.17297
8242424160,21.78,-0.03089232776029963,0.08735372906231618,-0.003193952531149623,-0.7848,0.0,9.82962
8247474665,21.78,-0.024504422698000388,0.02663372438543347,-0.002129301687433082,-0.70632,0.11772,9.55494
8252525170,21.78,-0.013840460968315033,-0.08735372906231618,0.0,-0.5886,0.10791,9.54513
8257575675,21.78,-0.0170518667919846,-0.14381513036433274,0.005323254218582705,0.0,0.21582,9.78057
8262626180,21.78,-0.013840460968315033,-0.19067722078038052,0.005323254218582705,0.41202000000000005,0.20601000000000003,10.300500000000001
8267676685,21.78,-0.007452555906015787,-0.2151816434783809,0.004258603374866164,1.1477700000000002,0.30411,10.11411
8272727190,21.78,-0.011711159280881954,-0.17470745812463237,0.008517206749732328,1.6382700000000001,0.2943,9.66285
8277777695,21.78,-0.01918116847941768,-0.13102186694721432,0.004258603374866164,2.10915,0.24525000000000002,9.36855
8282828200,21.78,-0.02982767691658309,-0.03515093113516579,0.0,2.3544,0.31392000000000003,9.5157
8287878705,21.78,-0.03408628029144926,0.046879543708567686,-0.001064650843716541,2.2366800000000002,0.23544,9.937529999999999
8292929210,21.78,-0.04260348704118158,0.12250466019748199,-0.001064650843716541,1.80504,0.2943,10.03563
8297979715,21.78,-0.04581489286485115,0.1672549022186166,-0.004258603374866164,1.13796,0.24525000000000002,9.83943
8303030220,21.78,-0.04581489286485115,0.18428931571808121,-0.006387905062299246,0.52974,0.20601000000000003,9.59418
8308080725,21.78,-0.054332099614583476,0.17151350559348277,-0.005323254218582705,-0.019620000000000002,0.17658,9.70209
8313131230,21.78,-0.05539675045830002,0.11505210429146619,-0.002129301687433082,-0.38259000000000004,0.009810000000000001,9.89829
8318181735,21.78,-0.06178465552059926,0.05326744877086694,0.0,-0.41202000000000005,-0.06867000000000001,9.99639
8323232240,21.78,-0.0404741853537485,-0.014905111812031574,0.0,-0.51993,0.039240000000000004,10.045440000000001
8328282745,21.78,-0.022375121010567305,-0.08096582400001695,0.002129301687433082,-0.11772,0.06867000000000001,9.623610000000001
8333333250,21.78,-0.020245819323134222,-0.10332349171806432,0.003193952531149623,0.16677000000000003,0.16677000000000003,9.6138
8338383755,21.78,-0.01811651763570114,-0.13849187614575004,0.006387905062299246,0.48069000000000006,0.15696000000000002,9.81
8343434260,21.78,-0.024504422698000388,-0.13849187614575004,0.002129301687433082,1.1183400000000001,0.16677000000000003,9.908100000000001
8348484765,21.78,-0.02663372438543347,-0.1171814059788993,0.004258603374866164,1.39302,0.18639,10.15335
8353535270,21.78,-0.02769837522915001,-0.0852244273748831,0.004258603374866164,1.70694,0.13734000000000002,10.09449
8358585775,21.78,-0.028763026072866547,-0.020245819323134222,0.001064650843716541,1.7756100000000001,0.16677000000000003,9.78057
8363636280,21.78,-0.03728023282259888,0.012775810124598492,0.0,1.6284600000000002,0.07848000000000001,9.59418
8368686785,21.78,-0.04153883619746504,0.07136651311404815,0.0,1.5499800000000001,0.11772,9.64323
8373737290,21.78,-0.0404741853537485,0.08096582400001695,-0.001064650843716541,1.1183400000000001,0.02943,10.03563
8378787795,21.78,-0.03515093113516579,0.09480628496833199,-0.002129301687433082,0.95157,0.07848000000000001,10.13373
8383838300,21.78,-0.033021629447732716,0.08948303074974927,0.0,0.48069000000000006,0.02943,10.1043
8388888805,21.78,-0.024504422698000388,0.05752605214573309,-0.002129301687433082,0.41202000000000005,0.08829,9.72171
8393939310,21.78,-0.021310470166850764,0.05113814708343386,-0.001064650843716541,0.1962,0.13734000000000002,9.57456
8398989815,21.78,-0.01918116847941768,0.01918116847941768,-0.001064650843716541,0.17658,0.14715,9.70209
8404040320,21.78,-0.024504422698000388,0.00958185759344887,0.0,0.18639,0.14715,9.95715
8409090825,21.78,-0.024504422698000388,-0.028763026072866547,0.002129301687433082,0.22563,0.14715,9.98658
8414141330,21.78,-0.02556907354171693,-0.04153883619746504,0.0,0.44145,0.13734000000000002,9.83943
8419191835,21.78,-0.023439771854283843,-0.046879543708567686,0.002129301687433082,0.57879,0.17658,9.81
8424242340,21.78,-0.015987215948268057,-0.05113814708343386,0.003193952531149623,0.73575,0.23544,9.65304
8429292845,21.78,-0.02769837522915001,-0.04366813788489812,0.0,0.9221400000000001,0.21582,9.55494
8434343350,21.78,-0.03834488366631542,-0.03515093113516579,0.001064650843716541,1.02024,0.12753,9.72171
8439393855,21.78,-0.039409534510031964,-0.0170518667919846,0.0,1.10853,0.11772,9.97677
8444444360,21.78,-0.02982767691658309,-0.004258603374866164,0.001064650843716541,1.10853,0.12753,10.03563
8449494865,21.78,-0.031956978604016174,0.01064650843716541,-0.001064650843716541,1.04967,0.16677000000000003,9.82962
8454545370,21.78,-0.03408628029144926,0.015987215948268057,0.0,0.90252,0.15696000000000002,9.633420000000001
8459595875,21.78,-0.03728023282259888,0.008517206749732328,0.001064650843716541,0.89271,0.04905,9.42741
8464646380,21.78,-0.04581489286485115,0.014905111812031574,0.0,0.89271,0.02943,9.78057
8469696885,21.78,-0.03728023282259888,0.021310470166850764,0.001064650843716541,0.8240400000000001,0.04905,10.280880000000002
8474747390,21.78,-0.03408628029144926,0.004258603374866164,-0.001064650843716541,0.7848,0.04905,10.35936
8479797895,21.78,-0.02769837522915001,0.007452555906015787,0.0,0.74556,0.11772,9.819809999999999
8484848400,21.78,-0.02982767691658309,-0.007452555906015787,0.0,0.65727,0.0,9.33912
8489898905,21.78,-0.033021629447732716,0.011711159280881954,0.001064650843716541,0.9221400000000001,0.04905,9.44703
8494949410,21.78,-0.03089232776029963,0.03089232776029963,0.001064650843716541,0.6867000000000001,0.0,10.320120000000001
8499999915,21.78,-0.02556907354171693,0.02663372438543347,-0.002129301687433082,0.69651,0.0981,10.457460000000001
8505050420,21.78,-0.024504422698000388,0.02556907354171693,0.002129301687433082,0.40221,0.06867000000000001,10.074869999999999
8510100925,21.78,-0.02769837522915001,-0.011711159280881954,0.0,0.38259000000000004,0.019620000000000002,9.358740000000001
8515151430,21.78,-0.033021629447732716,-0.00958185759344887,0.0,0.60822,-0.019620000000000002,9.33912
8520201935,21.78,-0.021310470166850764,-0.015987215948268057,0.001064650843716541,0.6180300000000001,0.02943,10.045440000000001
8525252440,21.78,-0.011711159280881954,-0.02663372438543347,0.001064650843716541,0.73575,0.12753,10.398600000000002
8530302945,21.78,-0.007452555906015787,-0.033021629447732716,0.001064650843716541,0.7651800000000001,0.16677000000000003,10.163160000000001
8535353450,21.78,-0.0170518667919846,-0.03515093113516579,0.001064650843716541,0.86328,0.13734000000000002,9.38817
8540403955,21.78,-0.028763026072866547,-0.024504422698000388,0.0,1.01043,0.07848000000000001,9.24102
8545454460,21.78,-0.02663372438543347,0.001064650843716541,0.0,1.03986,0.11772,9.81
8550504965,21.78,-0.014905111812031574,0.007452555906015787,0.0,1.03005,0.1962,10.26126
