#timestamp [ns], temperature [degC], w_RS_S_x [rad s^-1], w_RS_S_y [rad s^-1], w_RS_S_z [rad s^-1], a_RS_S_x [m s^-2], a_RS_S_y [m s^-2], a_RS_S_z [m s^-2]
0,22.28,0.0,0.0,0.0,-0.32373,-0.23544,9.819809999999999
5050505,22.28,0.0,0.0,0.0,-0.27468000000000004,-0.26487,9.83943
10101010,22.28,0.0,0.0,0.0,-0.28449,-0.27468000000000004,9.81
15151515,22.28,0.0,0.0,0.0,-0.31392000000000003,-0.26487,9.84924
20202020,22.28,0.0,0.0,0.0,-0.30411,-0.25506,9.819809999999999
25252525,22.28,0.0,0.0,0.0,-0.27468000000000004,-0.24525000000000002,9.81
30303030,22.28,0.0,0.0,0.0,-0.2943,-0.27468000000000004,9.81
35353535,22.28,0.0,0.0,0.0,-0.30411,-0.24525000000000002,9.83943
40404040,22.28,0.0,0.0,0.0,-0.28449,-0.25506,9.82962
45454545,22.28,0.0,0.0,0.0,-0.33354000000000006,-0.26487,9.81
50505050,22.28,0.0,0.0,0.0,-0.30411,-0.25506,9.819809999999999
55555555,22.28,0.0,0.0,0.0,-0.2943,-0.25506,9.82962
60606060,22.28,0.0,0.0,0.0,-0.27468000000000004,-0.27468000000000004,9.819809999999999
65656565,22.28,0.0,0.0,0.0,-0.28449,-0.24525000000000002,9.83943
70707070,22.28,0.0,0.0,0.0,-0.30411,-0.21582,9.81
75757575,22.28,0.0,0.0,0.0,-0.28449,-0.25506,9.81
80808080,22.28,0.0,0.0,0.0,-0.31392000000000003,-0.27468000000000004,9.81
85858585,22.28,0.0,0.0,0.0,-0.31392000000000003,-0.24525000000000002,9.819809999999999
90909090,22.28,0.0,0.0,0.0,-0.26487,-0.22563,9.819809999999999
95959595,22.28,0.0,0.0,0.0,-0.30411,-0.26487,9.819809999999999
101010100,22.28,0.0,0.0,0.0,-0.32373,-0.23544,9.819809999999999
106060605,22.28,0.0,0.0,0.0,-0.2943,-0.22563,9.819809999999999
111111110,22.28,0.0,0.0,0.0,-0.28449,-0.28449,9.83943
116161615,22.28,0.0,0.0,0.0,-0.31392000000000003,-0.22563,9.81
121212120,22.28,0.0,0.0,0.0,-0.30411,-0.23544,9.84924
126262625,22.28,0.0,0.0,0.0,-0.2943,-0.26487,9.82962
131313130,22.28,0.0,0.0,0.0,-0.30411,-0.24525000000000002,9.83943
136363635,22.28,0.0,0.0,0.0,-0.27468000000000004,-0.23544,9.83943
141414140,22.28,0.0,0.0,0.0,-0.28449,-0.23544,9.819809999999999
146464645,22.28,0.0,0.0,0.0,-0.30411,-0.27468000000000004,9.81
151515150,22.28,0.0,0.0,0.0,-0.28449,-0.23544,9.819809999999999
156565655,22.28,0.0,0.0,0.0,-0.27468000000000004,-0.25506,9.83943
161616160,22.28,0.0,0.0,0.0,-0.27468000000000004,-0.26487,9.81
166666665,22.28,0.0,0.0,0.0,-0.30411,-0.27468000000000004,9.82962
171717170,22.28,0.0,0.0,0.0,-0.30411,-0.25506,9.83943
176767675,22.28,0.0,0.0,0.0,-0.2943,-0.24525000000000002,9.83943
181818180,22.28,0.0,0.0,0.0,-0.33354000000000006,-0.22563,9.84924
186868685,22.28,0.0,0.0,0.0,-0.30411,-0.23544,9.819809999999999
191919190,22.28,0.0,0.0,0.0,-0.30411,-0.25506,9.85905
196969695,22.28,0.0,0.0,0.0,-0.30411,-0.26487,9.81
202020200,22.28,0.0,0.0,0.0,-0.2943,-0.25506,9.819809999999999
207070705,22.28,0.0,0.0,0.0,-0.30411,-0.25506,9.85905
212121210,22.28,0.0,0.0,0.0,-0.2943,-0.23544,9.82962
217171715,22.28,0.0,0.0,0.0,-0.31392000000000003,-0.25506,9.83943
222222220,22.28,0.0,0.0,0.0,-0.28449,-0.23544,9.84924
227272725,22.28,0.0,0.0,0.0,-0.30411,-0.27468000000000004,9.83943
232323230,22.28,0.0,0.0,0.0,-0.31392000000000003,-0.22563,9.82962
237373735,22.28,0.0,0.0,0.0,-0.2943,-0.24525000000000002,9.819809999999999
242424240,22.28,0.0,0.0,0.0,-0.2943,-0.26487,9.83943
247474745,22.28,0.0,0.0,0.0,-0.28449,-0.28449,9.82962
252525250,22.28,0.0,0.0,0.0,-0.31392000000000003,-0.25506,9.84924
257575755,22.28,0.0,0.0,0.0,-0.30411,-0.23544,9.82962
262626260,22.41,0.0,0.0,0.0,-0.30411,-0.25506,9.84924
267676765,22.41,0.0,0.0,0.0,-0.30411,-0.24525000000000002,9.819809999999999
272727270,22.41,0.0,0.0,0.0,-0.2943,-0.25506,9.83943
277777775,22.41,0.0,0.0,0.0,-0.26487,-0.24525000000000002,9.819809999999999
282828280,22.41,0.0,0.0,0.0,-0.30411,-0.27468000000000004,9.83943
287878785,22.41,0.0,0.0,0.0,-0.2943,-0.25506,9.85905
292929290,22.41,0.0,0.0,0.0,-0.26487,-0.24525000000000002,9.83943
297979795,22.41,0.0,0.0,0.0,-0.30411,-0.25506,9.819809999999999
303030300,22.41,0.0,0.0,0.0,-0.32373,-0.25506,9.82962
308080805,22.41,0.0,0.0,0.0,-0.28449,-0.23544,9.84924
313131310,22.41,0.0,0.0,0.0,-0.30411,-0.25506,9.819809999999999
318181815,22.41,0.0,0.0,0.0,-0.28449,-0.25506,9.81
323232320,22.41,0.0,0.0,0.0,-0.30411,-0.22563,9.819809999999999
328282825,22.41,0.0,0.0,0.0,-0.28449,-0.24525000000000002,9.819809999999999
333333330,22.41,0.0,0.0,0.0,-0.28449,-0.26487,9.819809999999999
338383835,22.41,0.0,0.0,0.0,-0.2943,-0.27468000000000004,9.82962
343434340,22.41,0.0,0.0,0.0,-0.30411,-0.25506,9.83943
348484845,22.41,0.0,0.0,0.0,-0.30411,-0.24525000000000002,9.84924
353535350,22.41,0.0,0.0,0.0,-0.2943,-0.24525000000000002,9.81
358585855,22.41,0.0,0.0,0.0,-0.31392000000000003,-0.26487,9.79038
363636360,22.41,0.0,0.0,0.0,-0.31392000000000003,-0.25506,9.83943
368686865,22.41,0.0,0.0,0.0,-0.28449,-0.25506,9.86886
373737370,22.41,0.0,0.0,0.0,-0.28449,-0.23544,9.83943
378787875,22.41,0.0,0.0,0.0,-0.31392000000000003,-0.24525000000000002,9.83943
383838380,22.41,0.0,0.0,0.0,-0.31392000000000003,-0.26487,9.819809999999999
388888885,22.41,0.0,0.0,0.0,-0.2943,-0.24525000000000002,9.82962
393939390,22.41,0.0,0.0,0.0,-0.30411,-0.24525000000000002,9.82962
398989895,22.41,0.0,0.0,0.0,-0.2943,-0.23544,9.819809999999999
404040400,22.41,0.0,0.0,0.0,-0.32373,-0.24525000000000002,9.82962
409090905,22.41,0.0,0.0,0.0,-0.31392000000000003,-0.24525000000000002,9.82962
414141410,22.41,0.0,0.0,0.0,-0.26487,-0.25506,9.82962
419191915,22.41,0.0,0.0,0.0,-0.30411,-0.25506,9.81
424242420,22.41,0.0,0.0,0.0,-0.2943,-0.22563,9.819809999999999
429292925,22.41,0.0,0.0,0.0,-0.31392000000000003,-0.26487,9.84924
434343430,22.41,0.0,0.0,0.0,-0.30411,-0.26487,9.82962
439393935,22.41,0.0,0.0,0.0,-0.30411,-0.21582,9.85905
444444440,22.41,0.0,0.0,0.0,-0.28449,-0.25506,9.84924
449494945,22.41,0.0,0.0,0.0,-0.31392000000000003,-0.27468000000000004,9.82962
454545450,22.41,0.0,0.0,0.0,-0.31392000000000003,-0.25506,9.83943
459595955,22.41,0.0,0.0,0.0,-0.26487,-0.25506,9.82962
464646460,22.41,0.0,0.0,0.0,-0.31392000000000003,-0.27468000000000004,9.82962
469696965,22.41,0.0,0.0,0.0,-0.2943,-0.25506,9.82962
474747470,22.41,0.0,0.0,0.0,-0.27468000000000004,-0.23544,9.82962
479797975,22.41,0.0,0.0,0.0,-0.2943,-0.26487,9.82962
484848480,22.41,0.0,0.0,0.0,-0.32373,-0.25506,9.83943
489898985,22.41,0.0,0.0,0.0,-0.2943,-0.23544,9.82962
494949490,22.41,0.0,0.0,0.0,-0.27468000000000004,-0.23544,9.82962
499999995,22.41,0.0,0.0,0.0,-0.28449,-0.27468000000000004,9.83943
505050500,22.41,0.0,0.0,0.0,-0.30411,-0.26487,9.82962
510101005,22.41,0.0,0.0,0.0,-0.31392000000000003,-0.24525000000000002,9.83943
515151510,22.41,0.0,0.0,0.0,-0.2943,-0.24525000000000002,9.819809999999999
520202015,22.41,0.0,0.0,0.0,-0.30411,-0.27468000000000004,9.82962
525252520,22.41,0.0,0.0,0.0,-0.2943,-0.24525000000000002,9.82962
530303025,22.41,0.0,0.0,0.0,-0.31392000000000003,-0.26487,9.82962
535353530,22.41,0.0,0.0,0.0,-0.30411,-0.25506,9.819809999999999
540404035,22.41,0.0,0.0,0.0,-0.28449,-0.24525000000000002,9.819809999999999
545454540,22.41,0.0,0.0,0.0,-0.30411,-0.24525000000000002,9.81
550505045,22.41,0.0,0.0,0.0,-0.32373,-0.25506,9.819809999999999
555555550,22.41,0.0,0.0,0.0,-0.27468000000000004,-0.20601000000000003,9.82962
560606055,22.41,0.0,0.0,0.0,-0.30411,-0.25506,9.82962
565656560,22.41,0.0,0.0,0.0,-0.31392000000000003,-0.24525000000000002,9.80019
570707065,22.41,0.0,0.0,0.0,-0.2943,-0.25506,9.82962
575757570,22.41,0.0,0.0,0.0,-0.2943,-0.25506,9.82962
580808075,22.41,0.0,0.0,0.0,-0.30411,-0.26487,9.82962
585858580,22.41,0.0,0.0,0.0,-0.30411,-0.23544,9.84924
590909085,22.41,0.0,0.0,0.0,-0.30411,-0.23544,9.84924
595959590,22.41,0.0,0.0,0.0,-0.27468000000000004,-0.24525000000000002,9.82962
601010095,22.41,0.0,0.0,0.0,-0.2943,-0.23544,9.819809999999999
606060600,22.41,0.0,0.0,0.0,-0.30411,-0.27468000000000004,9.82962
611111105,22.41,0.0,0.0,0.0,-0.27468000000000004,-0.22563,9.82962
616161610,22.41,0.0,0.0,0.0,-0.2943,-0.25506,9.82962
621212115,22.41,0.0,0.0,0.0,-0.32373,-0.23544,9.819809999999999
626262620,22.41,0.0,0.0,0.0,-0.28449,-0.23544,9.83943
631313125,22.41,0.0,0.0,0.0,-0.31392000000000003,-0.24525000000000002,9.81
636363630,22.41,0.0,0.0,0.0,-0.2943,-0.23544,9.83943
641414135,22.41,0.0,0.0,0.0,-0.28449,-0.26487,9.819809999999999
646464640,22.41,0.0,0.0,0.0,-0.2943,-0.27468000000000004,9.82962
651515145,22.41,0.0,0.0,0.0,-0.30411,-0.25506,9.82962
656565650,22.41,0.0,0.0,0.0,-0.2943,-0.22563,9.83943
661616155,22.41,0.0,0.0,0.0,-0.30411,-0.24525000000000002,9.819809999999999
666666660,22.41,0.0,0.0,0.0,-0.31392000000000003,-0.26487,9.82962
671717165,22.41,0.0,0.0,0.0,-0.30411,-0.23544,9.82962
676767670,22.41,0.0,0.0,0.0,-0.28449,-0.26487,9.83943
681818175,22.41,0.0,0.0,0.0,-0.28449,-0.26487,9.82962
686868680,22.41,0.0,0.0,0.0,-0.2943,-0.25506,9.83943
691919185,22.41,0.0,0.0,0.0,-0.28449,-0.23544,9.82962
696969690,22.41,0.0,0.0,0.0,-0.28449,-0.27468000000000004,9.83943
702020195,22.41,0.0,0.0,0.0,-0.2943,-0.25506,9.82962
707070700,22.41,0.0,0.0,0.0,-0.30411,-0.22563,9.82962
712121205,22.41,0.0,0.0,0.0,-0.2943,-0.24525000000000002,9.819809999999999
717171710,22.41,0.0,0.0,0.0,-0.28449,-0.27468000000000004,9.80019
722222215,22.41,0.0,0.0,0.0,-0.2943,-0.24525000000000002,9.82962
727272720,22.41,0.0,0.0,0.0,-0.31392000000000003,-0.23544,9.82962
732323225,22.41,0.0,0.0,0.0,-0.2943,-0.26487,9.81
737373730,22.41,0.0,0.0,0.0,-0.26487,-0.24525000000000002,9.83943
742424235,22.41,0.0,0.0,0.0,-0.30411,-0.23544,9.83943
747474740,22.41,0.0,0.0,0.0,-0.28449,-0.23544,9.819809999999999
752525245,22.41,0.0,0.0,0.0,-0.28449,-0.25506,9.83943
757575750,22.41,0.0,0.0,0.0,-0.30411,-0.23544,9.82962
762626255,22.41,0.0,0.0,0.0,-0.27468000000000004,-0.27468000000000004,9.82962
767676760,22.41,0.0,0.0,0.0,-0.28449,-0.25506,9.81
772727265,22.41,0.0,0.0,0.0,-0.28449,-0.23544,9.819809999999999
777777770,22.41,0.0,0.0,0.0,-0.31392000000000003,-0.26487,9.819809999999999
782828275,22.41,0.0,0.0,0.0,-0.30411,-0.23544,9.82962
787878780,22.41,0.0,0.0,0.0,-0.30411,-0.24525000000000002,9.81
792929285,22.41,0.0,0.0,0.0,-0.2943,-0.23544,9.82962
797979790,22.41,0.0,0.0,0.0,-0.27468000000000004,-0.27468000000000004,9.819809999999999
803030295,22.41,0.0,0.0,0.0,-0.2943,-0.24525000000000002,9.83943
808080800,22.41,0.0,0.0,0.0,-0.28449,-0.23544,9.82962
813131305,22.41,0.0,0.0,0.0,-0.27468000000000004,-0.25506,9.819809999999999
818181810,22.41,0.0,0.0,0.0,-0.32373,-0.23544,9.83943
823232315,22.41,0.0,0.0,0.0,-0.27468000000000004,-0.20601000000000003,9.82962
828282820,22.41,0.0,0.0,0.0,-0.30411,-0.24525000000000002,9.80019
833333325,22.41,0.0,0.0,0.0,-0.2943,-0.24525000000000002,9.81
838383830,22.41,0.0,0.0,0.0,-0.31392000000000003,-0.24525000000000002,9.84924
843434335,22.41,0.0,0.0,0.0,-0.28449,-0.23544,9.83943
848484840,22.41,0.0,0.0,0.0,-0.26487,-0.25506,9.81
853535345,22.41,0.0,0.0,0.0,-0.30411,-0.26487,9.82962
858585850,22.41,0.0,0.0,0.0,-0.30411,-0.24525000000000002,9.819809999999999
863636355,22.41,0.0,0.0,0.0,-0.2943,-0.25506,9.84924
868686860,22.41,0.0,0.0,0.0,-0.30411,-0.25506,9.82962
873737365,22.41,0.0,0.0,0.0,-0.30411,-0.26487,9.81
878787870,22.41,0.0,0.0,0.0,-0.31392000000000003,-0.23544,9.84924
883838375,22.41,0.0,0.0,0.0,-0.2943,-0.25506,9.83943
888888880,22.41,0.0,0.0,0.0,-0.2943,-0.25506,9.81
893939385,22.41,0.0,0.0,0.0,-0.28449,-0.24525000000000002,9.82962
898989890,22.41,0.0,0.0,0.0,-0.30411,-0.25506,9.83943
904040395,22.41,0.0,0.0,0.0,-0.30411,-0.24525000000000002,9.81
909090900,22.41,0.0,0.0,0.0,-0.30411,-0.25506,9.82962
914141405,22.41,0.0,0.0,0.0,-0.28449,-0.25506,9.83943
919191910,22.41,0.0,0.0,0.0,-0.31392000000000003,-0.28449,9.83943
924242415,22.41,0.0,0.0,0.0,-0.31392000000000003,-0.25506,9.83943
929292920,22.41,0.0,0.0,0.0,-0.2943,-0.27468000000000004,9.819809999999999
934343425,22.41,0.0,0.0,0.0,-0.31392000000000003,-0.25506,9.82962
939393930,22.41,0.0,0.0,0.0,-0.31392000000000003,-0.25506,9.83943
944444435,22.41,0.0,0.0,0.0,-0.27468000000000004,-0.25506,9.82962
949494940,22.41,0.0,0.0,0.0,-0.2943,-0.24525000000000002,9.819809999999999
954545445,22.41,0.0,0.0,0.0,-0.31392000000000003,-0.24525000000000002,9.82962
959595950,22.41,0.0,0.0,0.0,-0.28449,-0.23544,9.82962
964646455,22.41,0.0,0.0,0.0,-0.28449,-0.23544,9.82962
969696960,22.41,0.0,0.0,0.0,-0.2943,-0.26487,9.83943
974747465,22.41,0.0,0.0,0.0,-0.2943,-0.23544,9.83943
979797970,22.41,0.0,0.0,0.0,-0.2943,-0.25506,9.83943
984848475,22.41,0.0,0.0,0.0,-0.27468000000000004,-0.24525000000000002,9.819809999999999
989898980,22.41,0.0,0.0,0.0,-0.2943,-0.25506,9.819809999999999
994949485,22.41,0.0,0.0,0.0,-0.28449,-0.25506,9.86886
999999990,22.41,0.0,0.0,0.0,-0.2943,-0.23544,9.82962
1005050495,22.41,0.0,0.0,0.0,-0.2943,-0.25506,9.82962
1010101000,22.41,0.0,0.0,0.0,-0.27468000000000004,-0.25506,9.83943
1015151505,22.41,0.004258603374866164,0.008517206749732328,0.0,-0.33354000000000006,-1.0791000000000002,9.819809999999999
1020202010,22.41,0.014905111812031574,0.150203035426632,0.008517206749732328,-0.71613,-0.24525000000000002,9.95715
1025252515,22.41,0.12356931104119852,0.15659094048893124,0.003193952531149623,-2.01105,0.6768900000000001,10.074869999999999
1030303020,22.41,0.039409534510031964,0.0,-0.008517206749732328,-2.01105,0.6180300000000001,9.42741
1035353525,22.41,-0.06497860805174888,-0.20453513504121545,-0.012775810124598492,-1.10853,0.08829,9.32931
1040404030,22.41,-0.2151816434783809,-0.28975956241609857,-0.006387905062299246,0.2943,-2.87433,10.604610000000001
1045454535,22.41,-0.07349581480148122,-0.11931070766633237,0.007452555906015787,0.71613,-0.51993,10.712520000000001
1050505040,22.41,0.09587093581204853,0.1171814059788993,0.011711159280881954,0.79461,-0.63765,10.50651
1055555545,22.41,0.09693558665576507,0.18216001403064813,0.007452555906015787,0.6180300000000001,0.60822,9.172350000000002
1060606050,22.41,0.1278279144160647,0.21198769094723127,0.002129301687433082,-1.10853,-0.14715,9.908100000000001
1065656555,22.41,0.001064650843716541,0.08309512568745003,0.001064650843716541,-2.14839,0.11772,9.58437
1070707060,22.41,0.01064650843716541,-0.03728023282259888,0.001064650843716541,-1.9816200000000002,0.46107000000000004,9.751140000000001
1075757565,22.41,-0.08735372906231618,-0.20134118251006583,-0.003193952531149623,-0.79461,-0.02943,10.24164
1080808070,22.41,-0.15446163880149816,-0.24607397123868052,-0.01064650843716541,0.72594,-2.16801,10.074869999999999
1085858575,22.41,-0.05859070298944965,-0.039409534510031964,-0.005323254218582705,1.02024,-0.51993,10.19259
1090909080,22.41,0.08309512568745003,0.1480737337391989,0.0,0.35316,-0.6670800000000001,10.24164
1095959585,22.41,0.1629788455512305,0.23116885942664894,0.005323254218582705,-0.89271,0.90252,9.13311
1101010090,22.41,0.07030186227033158,0.09800023749948161,0.007452555906015787,-1.6284600000000002,0.5493600000000001,9.99639
1106060595,22.41,-0.07777187146886733,-0.09480628496833199,0.0,-0.95157,-0.04905,10.01601
1111111100,22.41,-0.12995721610349775,-0.17151350559348277,-0.005323254218582705,-0.21582,-0.7749900000000001,9.89829
1116161605,22.41,-0.10012953918691468,-0.1352804703220805,-0.003193952531149623,0.37278,-0.9908100000000001,9.29988
1121212110,22.41,0.024504422698000388,0.0,-0.001064650843716541,0.8829,-0.5591700000000001,9.5157
1126262615,22.41,0.07030186227033158,0.1331511686346474,0.002129301687433082,0.44145,-0.13734000000000002,9.80019
1131313120,22.41,0.09693558665576507,0.18854791909294744,0.004258603374866164,-0.64746,-0.06867000000000001,10.15335
1136363625,22.41,0.05007349623971732,0.12250466019748199,0.003193952531149623,-1.72656,0.25506,9.82962
1141414130,22.41,-0.002129301687433082,-0.0404741853537485,0.0,-1.6677000000000002,0.44145,9.81
1146464635,22.41,-0.08309512568745003,-0.18428931571808121,-0.003193952531149623,-0.56898,0.08829,9.80019
1151515140,22.41,-0.1555262896452147,-0.23116885942664894,-0.01064650843716541,0.46107000000000004,-1.9227600000000002,9.87867
1156565645,22.41,-0.05220279792715039,-0.12463396188491506,-0.003193952531149623,1.3635900000000003,-0.5493600000000001,9.819809999999999
1161616150,22.41,0.0756251164889143,0.12037535851004891,0.002129301687433082,1.08891,-1.1281500000000002,10.25145
1166666655,22.41,0.12250466019748199,0.2769662989989801,0.007452555906015787,-0.0981,0.56898,9.58437
1171717160,22.41,0.13208651779093086,0.22263419938439669,0.006387905062299246,-2.02086,0.57879,10.212209999999999
1176767665,22.41,0.015987215948268057,-0.008517206749732328,-0.001064650843716541,-2.10915,0.52974,9.42741
1181818170,22.41,-0.08415977653116657,-0.1704488547497662,-0.006387905062299246,-1.19682,-0.21582,9.60399
1186868675,22.41,-0.16938420390604966,-0.22582815191554628,-0.003193952531149623,-0.28449,-1.58922,10.025820000000001
1191919180,22.41,-0.10545279340549739,-0.1832246648743647,-0.003193952531149623,1.58922,-0.6180300000000001,10.13373
1196969685,22.41,0.04794419455228423,-0.039409534510031964,-0.001064650843716541,1.71675,-0.17658,10.03563
1202020190,22.41,0.024504422698000388,0.12676326357234816,0.002129301687433082,1.21644,-0.6768900000000001,9.3195
1207070695,22.41,0.07349581480148122,0.2343628119577986,0.006387905062299246,-0.38259000000000004,-0.5591700000000001,9.81
1212121200,22.41,0.12995721610349775,0.2279749068954993,0.00958185759344887,-2.00124,0.51993,10.08468
1217171705,22.41,0.07456046564519776,0.07990117315630041,0.002129301687433082,-2.6781300000000003,0.8142300000000001,10.01601
1222222210,22.41,-0.05646140130201656,-0.15233233711406508,-0.003193952531149623,-1.5696,0.75537,9.39798
1227272715,22.41,-0.19174187162409706,-0.31744048435272865,-0.00958185759344887,-0.27468000000000004,-2.48193,9.98658
1232323220,22.41,-0.20027653166634932,-0.2482032729261136,-0.007452555906015787,3.08034,-1.2753,10.604610000000001
1237373725,22.41,0.1171814059788993,0.02663372438543347,-0.003193952531149623,2.5407900000000003,-0.46107000000000004,10.212209999999999
1242424230,22.41,0.046879543708567686,0.27270769562411395,0.008517206749732328,1.06929,-0.12753,8.907480000000001
1247474735,22.41,0.18428931571808121,0.3206518901763982,0.011711159280881954,-1.40283,0.6867000000000001,9.888480000000001
1252525240,22.41,0.04153883619746504,0.09800023749948161,0.0,-2.5506,0.26487,9.908100000000001
1257575745,22.41,-0.013840460968315033,-0.07136651311404815,-0.004258603374866164,-1.73637,0.45126,9.7119
1262626250,22.41,-0.11292280260403312,-0.17151350559348277,-0.008517206749732328,-1.15758,-0.64746,9.97677
1267676755,22.41,-0.13421581947836395,-0.21731094516581398,-0.003193952531149623,-0.36297,-1.08891,9.82962
1272727260,22.41,-0.08948303074974927,-0.18748326824923087,-0.005323254218582705,1.6480800000000002,-0.56898,10.15335
1277777765,22.41,0.03728023282259888,-0.033021629447732716,-0.005323254218582705,2.10915,-0.3924,9.96696
1282828270,22.41,0.013840460968315033,0.1672549022186166,0.005323254218582705,1.03005,-0.9221400000000001,9.42741
1287878775,22.41,0.10012953918691468,0.25780258381208243,0.008517206749732328,-0.6768900000000001,0.07848000000000001,9.78057
1292929280,22.41,0.12356931104119852,0.16084954386379738,0.004258603374866164,-1.80504,0.5493600000000001,10.074869999999999
1297979785,22.41,0.03834488366631542,0.011711159280881954,-0.001064650843716541,-1.8246600000000002,0.48069000000000006,9.79038
1303030290,22.41,-0.0756251164889143,-0.10225884087434776,-0.002129301687433082,-1.29492,-0.14715,9.58437
1308080795,22.41,-0.14062117783318315,-0.19814722997891623,-0.006387905062299246,-0.6180300000000001,-0.8240400000000001,9.937529999999999
1313131300,22.41,-0.10012953918691468,-0.18748326824923087,-0.005323254218582705,0.42183,-0.9123300000000001,9.85905
1318181805,22.41,0.014905111812031574,-0.03834488366631542,-0.003193952531149623,1.3734000000000002,-0.16677000000000003,9.58437
1323232310,22.41,0.03515093113516579,0.09480628496833199,0.002129301687433082,0.79461,-0.46107000000000004,9.57456
1328282815,22.41,0.060720004676882725,0.150203035426632,0.003193952531149623,-0.039240000000000004,-0.1962,9.79038
1333333320,22.41,0.060720004676882725,0.10438814256178083,0.004258603374866164,-0.6867000000000001,-0.02943,9.98658
1338383825,22.41,0.04794419455228423,0.08841837990603273,0.0,-1.01043,-0.12753,9.89829
1343434330,22.41,0.00958185759344887,0.04260348704118158,0.004258603374866164,-1.51074,-0.02943,9.74133
1348484835,22.41,-0.021310470166850764,-0.044732788728614664,0.0,-1.46169,0.2943,9.751140000000001
1353535340,22.41,-0.05539675045830002,-0.17470745812463237,-0.002129301687433082,-0.57879,0.16677000000000003,9.81
1358585845,22.41,-0.1374272253020335,-0.2343628119577986,-0.01064650843716541,0.75537,-1.9129500000000002,9.79038
1363636350,22.41,-0.06178465552059926,-0.10653489754173388,-0.003193952531149623,1.70694,-0.50031,9.91791
1368686855,22.41,0.0756251164889143,0.14487978120804929,0.004258603374866164,1.03005,-1.1183400000000001,10.29069
1373737360,22.41,0.12676326357234816,0.27803094984269666,0.01064650843716541,-0.15696000000000002,0.52974,9.38817
1378787865,22.41,0.13849187614575004,0.22903955773921586,0.008517206749732328,-2.06991,0.6278400000000001,10.31031
1383838370,22.41,0.006387905062299246,-0.006387905062299246,0.001064650843716541,-2.14839,0.40221,9.56475
1388888875,22.41,-0.07349581480148122,-0.16617279808238014,-0.006387905062299246,-1.34397,0.30411,9.65304
1393939380,22.41,-0.17257815643719931,-0.27270769562411395,-0.011711159280881954,-0.27468000000000004,-1.9620000000000002,9.98658
1398989885,22.41,-0.1416858286768997,-0.20027653166634932,-0.007452555906015787,2.4426900000000002,-0.8338500000000001,10.280880000000002
1404040390,22.41,0.08628907821859966,0.04153883619746504,0.001064650843716541,1.8246600000000002,-0.5886,10.25145
1409090895,22.41,0.04581489286485115,0.20027653166634932,0.008517206749732328,0.90252,-0.0981,9.27045
1414141400,22.41,0.12463396188491506,0.23010420858293237,0.006387905062299246,-0.7651800000000001,0.27468000000000004,9.84924
1419191905,22.41,0.039409534510031964,0.09267698328089889,0.001064650843716541,-1.65789,0.15696000000000002,9.89829
1424242410,22.41,-0.004258603374866164,-0.028763026072866547,-0.002129301687433082,-1.2556800000000001,-0.02943,9.7119
1429292915,22.41,-0.039409534510031964,-0.05752605214573309,0.0,-1.16739,-0.22563,9.84924
1434343420,22.41,-0.06710790973918197,-0.11292280260403312,-0.004258603374866164,-0.84366,-0.27468000000000004,9.760950000000001
1439393925,22.41,-0.06284930636431581,-0.15126768627034853,-0.001064650843716541,0.10791,-0.22563,9.81
1444444430,22.41,-0.06923721142661506,-0.12676326357234816,-0.001064650843716541,0.95157,-0.9123300000000001,9.92772
1449494935,22.41,-0.005323254218582705,0.001064650843716541,0.001064650843716541,1.3341600000000002,-0.47088,9.72171
1454545440,22.41,0.04366813788489812,0.14487978120804929,0.007452555906015787,0.46107000000000004,-0.6670800000000001,9.633420000000001
1459595945,22.41,0.10332349171806432,0.20772908757236508,0.005323254218582705,-0.73575,0.14715,9.751140000000001
1464646450,22.41,0.10225884087434776,0.1480737337391989,0.006387905062299246,-1.65789,0.49050000000000005,9.937529999999999
1469696955,22.41,0.02663372438543347,0.01811651763570114,0.003193952531149623,-1.71675,0.3924,9.67266
1474747460,22.41,-0.06391395720803235,-0.12356931104119852,0.0,-1.40283,0.14715,9.751140000000001
1479797965,22.41,-0.1416858286768997,-0.23755676448894822,-0.001064650843716541,-0.31392000000000003,-1.22625,9.94734
1484848470,22.41,-0.1555262896452147,-0.2428800187075309,-0.005323254218582705,1.70694,-1.1772,9.94734
1489898975,22.41,0.05007349623971732,-0.011711159280881954,0.0,1.7658,-0.64746,9.87867
1494949480,22.41,0.04794419455228423,0.2183755960095305,0.01064650843716541,0.85347,-0.35316,9.33912
1499999985,22.41,0.15126768627034853,0.2620611871869486,0.00958185759344887,-1.1183400000000001,0.6278400000000001,9.87867
1505050490,22.41,0.07456046564519776,0.09267698328089889,0.003193952531149623,-2.04048,0.41202000000000005,9.79038
1510100995,22.41,-0.03621558197888234,-0.10119419003063122,-0.005323254218582705,-1.2556800000000001,0.31392000000000003,9.6138
1515151500,22.41,-0.1374272253020335,-0.18216001403064813,-0.002129301687433082,-0.38259000000000004,-0.86328,10.01601
1520202005,22.41,-0.13102186694721432,-0.16938420390604966,-0.002129301687433082,0.12753,-1.6284600000000002,9.937529999999999
1525252510,22.41,0.01064650843716541,-0.046879543708567686,0.0,0.7651800000000001,-0.30411,9.770760000000001
1530303015,22.41,0.06923721142661506,0.09374163412461543,0.001064650843716541,0.8142300000000001,-0.08829,10.01601
1535353520,22.41,0.07990117315630041,0.150203035426632,0.001064650843716541,-0.02943,0.0,9.85905
1540404025,22.41,0.02556907354171693,0.08628907821859966,0.001064650843716541,-1.01043,0.11772,9.70209
1545454530,22.41,-0.012775810124598492,-0.04366813788489812,0.0,-0.90252,0.05886,9.85905
1550505035,22.41,-0.05965535383316618,-0.10119419003063122,-0.003193952531149623,-0.12753,-0.5886,9.87867
1555555540,22.41,-0.06391395720803235,-0.05220279792715039,-0.001064650843716541,0.08829,-1.00062,9.87867
1560606045,22.41,0.003193952531149623,0.03515093113516579,0.0,-0.20601000000000003,-0.46107000000000004,9.908100000000001
1565656550,22.41,0.08096582400001695,0.0756251164889143,0.002129301687433082,-0.42183,0.32373,9.79038
1570707055,22.41,0.054332099614583476,0.05007349623971732,0.002129301687433082,-0.59841,0.33354000000000006,9.70209
1575757560,22.41,-0.031956978604016174,-0.020245819323134222,0.0,-0.64746,-0.10791,9.70209
1580808065,22.41,-0.08628907821859966,-0.11292280260403312,-0.002129301687433082,-0.37278,-0.5395500000000001,9.95715
1585858570,22.41,-0.06923721142661506,-0.12569861272863161,-0.003193952531149623,0.38259000000000004,-0.87309,9.86886
1590909075,22.41,-0.022375121010567305,-0.03089232776029963,-0.002129301687433082,0.85347,-0.6180300000000001,9.888480000000001
1595959580,22.41,0.0404741853537485,0.09800023749948161,0.004258603374866164,0.36297,-0.8142300000000001,9.91791
1601010085,22.41,0.10438814256178083,0.19493582415524666,0.00958185759344887,-0.63765,0.16677000000000003,9.82962
1606060590,22.41,0.1171814059788993,0.16510814723866357,0.006387905062299246,-1.72656,0.63765,9.908100000000001
1611111095,22.41,0.023439771854283843,-0.003193952531149623,0.003193952531149623,-1.75599,0.56898,9.57456
1616161600,22.41,-0.08948303074974927,-0.1757721089683489,-0.003193952531149623,-0.9123300000000001,0.0,9.68247
1621212105,22.41,-0.1704488547497662,-0.2535265271446963,-0.006387905062299246,0.12753,-2.21706,9.92772
1626262610,22.41,-0.07243116395776468,-0.13955652698946658,-0.003193952531149623,1.2360600000000002,-0.24525000000000002,10.01601
1631313115,22.41,0.07136651311404815,0.06497860805174888,0.002129301687433082,1.49112,-0.9810000000000001,10.29069
1636363620,22.41,0.05539675045830002,0.22476350107182977,0.003193952531149623,0.5395500000000001,-0.27468000000000004,9.57456
1641414125,22.41,0.12463396188491506,0.2556558288321294,0.00958185759344887,-1.43226,0.26487,10.29069
1646464630,22.41,0.07883652231258387,0.11292280260403312,0.006387905062299246,-2.36421,0.56898,9.96696
1651515135,22.41,0.01064650843716541,-0.05326744877086694,-0.002129301687433082,-1.83447,0.63765,9.48627
1656565640,22.41,-0.1171814059788993,-0.19067722078038052,-0.003193952531149623,-1.00062,-0.36297,9.82962
1661616145,22.41,-0.1672549022186166,-0.2482032729261136,-0.002129301687433082,0.04905,-1.9914300000000003,9.89829
1666666650,22.41,-0.05539675045830002,-0.13849187614575004,-0.002129301687433082,1.1281500000000002,-0.17658,9.96696
1671717155,22.41,0.05646140130201656,0.05859070298944965,0.003193952531149623,1.51074,-0.85347,10.163160000000001
1676767660,22.41,0.05965535383316618,0.20559978588493202,0.006387905062299246,0.41202000000000005,-0.18639,9.54513
1681818165,22.41,0.09480628496833199,0.19280652246781357,0.004258603374866164,-1.1183400000000001,0.06867000000000001,10.31031
1686868670,22.41,0.07349581480148122,0.07136651311404815,0.002129301687433082,-1.55979,0.42183,9.92772
1691919175,22.41,-0.014905111812031574,-0.02663372438543347,-0.002129301687433082,-1.2753,0.15696000000000002,9.633420000000001
1696969680,22.41,-0.08735372906231618,-0.10759954838545042,-0.004258603374866164,-0.9908100000000001,-0.3924,9.84924
1702020185,22.41,-0.09800023749948161,-0.16084954386379738,-0.002129301687433082,-0.40221,-0.6278400000000001,9.98658
1707070690,22.41,-0.05859070298944965,-0.1374272253020335,-0.006387905062299246,0.6278400000000001,-0.6670800000000001,9.770760000000001
1712121195,22.41,0.0,-0.003193952531149623,0.0,1.04967,-0.5591700000000001,9.623610000000001
1717171700,22.41,0.028763026072866547,0.10119419003063122,0.002129301687433082,0.49050000000000005,-0.5591700000000001,9.770760000000001
1722222205,22.41,0.08948303074974927,0.1480737337391989,0.004258603374866164,-0.36297,0.02943,9.85905
1727272710,22.41,0.07670722062515077,0.11398745344774965,0.005323254218582705,-0.9810000000000001,0.28449,9.80019
1732323215,22.41,0.020245819323134222,0.04153883619746504,0.001064650843716541,-1.3047300000000002,0.04905,9.770760000000001
1737373720,22.41,-0.05113814708343386,-0.07243116395776468,0.0,-1.15758,-0.13734000000000002,9.83943
1742424225,22.41,-0.08203047484373349,-0.14913838458291545,-0.003193952531149623,-0.41202000000000005,-0.37278,9.91791
1747474730,22.41,-0.07883652231258387,-0.14913838458291545,-0.003193952531149623,0.41202000000000005,-1.10853,9.81
1752525235,22.41,-0.03621558197888234,-0.0404741853537485,-0.002129301687433082,0.95157,-0.49050000000000005,9.94734
1757575740,22.41,0.044732788728614664,0.08309512568745003,0.002129301687433082,0.60822,-0.63765,10.09449
1762626245,22.41,0.08203047484373349,0.14487978120804929,0.003193952531149623,-0.019620000000000002,0.0,9.6138
1767676750,22.41,0.08203047484373349,0.14594443205176583,0.001064650843716541,-0.87309,0.15696000000000002,9.888480000000001
1772727255,22.41,0.03728023282259888,0.06923721142661506,0.002129301687433082,-1.3832099999999998,0.0981,9.87867
1777777760,22.41,-0.0170518667919846,-0.02982767691658309,0.0,-1.2556800000000001,0.02943,9.70209
1782828265,22.41,-0.05007349623971732,-0.11824605682261582,-0.002129301687433082,-0.89271,0.02943,9.72171
1787878770,22.41,-0.09267698328089889,-0.17364280728091586,-0.005323254218582705,0.12753,-0.63765,9.72171
1792929275,22.41,-0.08096582400001695,-0.10866419922916695,-0.003193952531149623,0.79461,-0.9711900000000001,9.74133
1797979780,22.41,0.020245819323134222,0.024504422698000388,0.0,0.6768900000000001,-0.60822,9.82962
1803030285,22.41,0.05752605214573309,0.12995721610349775,0.005323254218582705,0.50031,-0.10791,9.72171
1808080790,22.41,0.09906488834319814,0.16510814723866357,0.004258603374866164,-0.47088,-0.019620000000000002,10.074869999999999
1813131295,22.41,0.03621558197888234,0.11079350091660004,0.001064650843716541,-1.3832099999999998,0.0981,9.91791
1818181800,22.41,0.0170518667919846,-0.012775810124598492,0.001064650843716541,-1.4715,0.20601000000000003,9.760950000000001
1823232305,22.41,-0.04260348704118158,-0.11505210429146619,-0.001064650843716541,-0.84366,0.07848000000000001,9.770760000000001
1828282810,22.41,-0.10545279340549739,-0.1672549022186166,-0.004258603374866164,-0.04905,-0.74556,9.78057
1833333315,22.41,-0.10119419003063122,-0.11824605682261582,-0.003193952531149623,0.59841,-1.02024,9.81
1838383820,22.41,0.03089232776029963,0.021310470166850764,-0.001064650843716541,0.64746,-0.42183,9.69228
1843434325,22.41,0.05220279792715039,0.11079350091660004,0.002129301687433082,0.52974,-0.07848000000000001,9.66285
1848484830,22.41,0.07990117315630041,0.150203035426632,0.004258603374866164,-0.28449,-0.039240000000000004,10.025820000000001
1853535335,22.41,0.033021629447732716,0.08415977653116657,0.005323254218582705,-1.08891,0.02943,9.937529999999999
1858585840,22.41,0.006387905062299246,-0.004258603374866164,0.001064650843716541,-1.24587,0.16677000000000003,9.96696
1863636345,22.41,-0.031956978604016174,-0.08203047484373349,-0.002129301687433082,-0.71613,-0.28449,9.85905
1868686850,22.41,-0.06817256058289851,-0.08948303074974927,0.0,-0.30411,-0.70632,9.79038
1873737355,22.41,-0.046879543708567686,-0.04794419455228423,0.0,-0.039240000000000004,-0.6768900000000001,9.94734
1878787860,22.41,0.015987215948268057,0.004258603374866164,0.001064650843716541,0.06867000000000001,-0.12753,9.83943
1883838365,22.41,0.0404741853537485,0.033021629447732716,0.001064650843716541,0.019620000000000002,-0.019620000000000002,9.65304
1888888870,22.41,0.007452555906015787,0.03515093113516579,0.001064650843716541,-0.13734000000000002,-0.24525000000000002,9.68247
1893939375,22.41,-0.01064650843716541,0.015987215948268057,0.002129301687433082,-0.41202000000000005,-0.46107000000000004,9.92772
1898989880,22.41,-0.003193952531149623,-0.003193952531149623,0.003193952531149623,-0.41202000000000005,-0.26487,9.94734
1904040385,22.41,0.01918116847941768,0.008517206749732328,0.001064650843716541,-0.32373,-0.10791,9.81
1909090890,22.41,0.0,0.007452555906015787,0.003193952531149623,-0.40221,-0.31392000000000003,9.85905
1914141395,22.41,-0.007452555906015787,-0.011711159280881954,0.0,-0.49050000000000005,-0.17658,9.908100000000001
1919191900,22.41,-0.011711159280881954,-0.04794419455228423,0.0,-0.16677000000000003,-0.30411,9.89829
1924242405,22.41,-0.014905111812031574,-0.006387905062299246,-0.003193952531149623,0.14715,-0.56898,9.7119
1929292910,22.41,-0.001064650843716541,0.05220279792715039,0.0,-0.34335000000000004,-0.43164,9.81
1934343415,22.41,0.0404741853537485,0.03834488366631542,0.004258603374866164,-0.59841,0.22563,9.87867
1939393920,22.41,0.023439771854283843,-0.013840460968315033,-0.001064650843716541,-0.33354000000000006,0.11772,9.68247
1944444425,22.41,-0.0404741853537485,-0.024504422698000388,0.0,-0.17658,-0.5886,9.66285
1949494930,22.41,-0.05007349623971732,-0.01064650843716541,-0.002129301687433082,-0.42183,-0.73575,9.97677
1954545435,22.41,0.01811651763570114,-0.004258603374866164,-0.001064650843716541,-0.48069000000000006,-0.08829,10.025820000000001
1959595940,22.41,0.03728023282259888,-0.007452555906015787,0.0,-0.0981,0.11772,9.81
1964646445,22.41,-0.012775810124598492,0.004258603374866164,-0.002129301687433082,-0.02943,-0.3924,9.80019
1969696950,22.41,-0.031956978604016174,0.004258603374866164,0.0,-0.34335000000000004,-0.42183,9.92772
1974747455,22.41,0.006387905062299246,-0.02982767691658309,0.0,-0.32373,-0.04905,9.85905
1979797960,22.41,-0.007452555906015787,-0.05752605214573309,0.0,0.3924,-0.21582,9.70209
1984848465,22.41,-0.03089232776029963,0.0170518667919846,0.0,0.38259000000000004,-0.8338500000000001,9.72171
1989898970,22.41,0.004258603374866164,0.07777187146886733,0.0,-0.28449,-0.74556,9.83943
1994949475,22.41,0.09054768159346581,0.10332349171806432,0.003193952531149623,-1.00062,0.42183,9.79038
1999999980,22.41,0.06497860805174888,0.05326744877086694,0.0,-0.9123300000000001,0.41202000000000005,9.87867
2005050485,22.41,-0.01918116847941768,-0.008517206749732328,-0.001064650843716541,-0.86328,-0.41202000000000005,9.82962
2010100990,22.41,-0.07456046564519776,-0.06710790973918197,0.003193952531149623,-0.9319500000000001,-0.49050000000000005,10.045440000000001
2015151495,22.41,-0.05859070298944965,-0.13208651779093086,0.0,-0.38259000000000004,-0.02943,9.98658
2020202000,22.41,-0.04153883619746504,-0.13421581947836395,-0.004258603374866164,0.75537,-0.69651,9.58437
2025252505,22.41,-0.039409534510031964,-0.024504422698000388,0.0,1.24587,-0.7848,9.66285
2030303010,22.41,0.031956978604016174,0.10332349171806432,0.002129301687433082,0.41202000000000005,-0.9123300000000001,10.045440000000001
2035353515,22.41,0.10438814256178083,0.16404349639494703,0.005323254218582705,-0.36297,0.44145,9.73152
2040404020,22.41,0.10759954838545042,0.1374272253020335,0.001064650843716541,-1.0987200000000001,0.42183,10.01601
2045454525,22.41,-0.004258603374866164,0.04153883619746504,0.0,-1.5696,-0.019620000000000002,9.83943
2050505030,22.41,-0.046879543708567686,-0.07990117315630041,0.0,-1.3243500000000001,-0.009810000000000001,9.87867
2055555535,22.41,-0.07777187146886733,-0.177901410655782,-0.005323254218582705,-0.51012,-0.27468000000000004,9.89829
2060606040,22.41,-0.09161233243718235,-0.16938420390604966,-0.002129301687433082,0.6867000000000001,-1.2556800000000001,9.58437
2065656545,22.41,-0.03408628029144926,-0.03834488366631542,-0.002129301687433082,0.9613800000000001,-0.60822,9.819809999999999
2070707050,22.41,0.05326744877086694,0.10332349171806432,0.002129301687433082,0.43164,-0.59841,10.212209999999999
2075757555,22.41,0.11185815176031658,0.16617279808238014,0.005323254218582705,-0.07848000000000001,0.44145,9.53532
2080808060,22.41,0.08203047484373349,0.1288925652597812,0.002129301687433082,-1.06929,0.14715,9.85905
2085858565,22.41,-0.007452555906015787,0.021310470166850764,0.0,-1.3047300000000002,-0.20601000000000003,9.84924
2090909070,22.41,-0.0404741853537485,-0.07030186227033158,-0.003193952531149623,-1.03986,-0.11772,9.92772
2095959575,22.41,-0.05646140130201656,-0.11611675513518273,-0.004258603374866164,-0.47088,-0.41202000000000005,9.888480000000001
2101010080,22.41,-0.05646140130201656,-0.08203047484373349,-0.002129301687433082,0.10791,-0.5493600000000001,9.64323
2106060585,22.41,-0.02663372438543347,-0.033021629447732716,0.0,0.24525000000000002,-0.70632,9.82962
2111111090,22.41,0.021310470166850764,0.033021629447732716,0.002129301687433082,0.24525000000000002,-0.1962,9.888480000000001
2116161595,22.41,0.05752605214573309,0.060720004676882725,0.003193952531149623,-0.039240000000000004,0.0,9.770760000000001
2121212100,22.41,0.01918116847941768,0.05220279792715039,0.0,-0.16677000000000003,-0.20601000000000003,9.69228
2126262605,22.41,0.003193952531149623,0.03728023282259888,0.0,-0.6278400000000001,-0.2943,9.89829
2131313110,22.41,-0.008517206749732328,-0.013840460968315033,0.0,-0.63765,-0.23544,9.98658
2136363615,22.41,0.002129301687433082,-0.022375121010567305,0.0,-0.40221,-0.07848000000000001,9.751140000000001
2141414120,22.41,-0.0170518667919846,-0.01918116847941768,0.0,-0.25506,-0.41202000000000005,9.80019
2146464625,22.41,-0.021310470166850764,-0.014905111812031574,0.0,-0.23544,-0.50031,9.94734
2151515130,22.41,0.006387905062299246,0.003193952531149623,0.001064650843716541,-0.28449,-0.1962,9.95715
2156565635,22.41,0.023439771854283843,0.001064650843716541,0.001064650843716541,-0.14715,-0.05886,9.760950000000001
2161616140,22.41,0.0,0.011711159280881954,0.002129301687433082,-0.14715,-0.25506,9.66285
2166666645,22.41,-0.014905111812031574,-0.005323254218582705,0.0,-0.28449,-0.47088,9.888480000000001
2171717150,22.41,0.006387905062299246,-0.004258603374866164,0.0,-0.28449,-0.27468000000000004,9.85905
2176767655,22.41,0.011711159280881954,0.01811651763570114,0.001064650843716541,-0.23544,-0.17658,9.79038
2181818160,22.41,0.011711159280881954,0.03089232776029963,0.0,-0.50031,-0.16677000000000003,9.79038
2186868665,22.41,-0.006387905062299246,-0.011711159280881954,0.001064650843716541,-0.48069000000000006,-0.1962,9.85905
2191919170,22.41,-0.004258603374866164,-0.03728023282259888,-0.001064650843716541,-0.34335000000000004,-0.15696000000000002,9.84924
2196969675,22.41,-0.02556907354171693,-0.0404741853537485,0.001064650843716541,-0.05886,-0.37278,9.83943
2202020180,22.41,-0.023439771854283843,-0.02769837522915001,-0.001064650843716541,0.04905,-0.47088,9.86886
2207070685,22.41,0.0,-0.001064650843716541,-0.002129301687433082,0.0,-0.57879,9.85905
2212121190,22.41,0.02982767691658309,0.046879543708567686,0.002129301687433082,-0.02943,-0.31392000000000003,9.86886
2217171695,22.41,0.049008845396000776,0.10119419003063122,0.006387905062299246,-0.5493600000000001,-0.08829,9.89829
2222222200,22.41,0.04794419455228423,0.07243116395776468,0.005323254218582705,-1.02024,0.22563,9.760950000000001
2227272705,22.41,0.005323254218582705,-0.022375121010567305,0.0,-1.04967,0.12753,9.65304
2232323210,22.41,-0.05326744877086694,-0.10332349171806432,0.0,-0.50031,-0.14715,9.7119
2237373715,22.41,-0.09054768159346581,-0.13102186694721432,-0.007452555906015787,0.15696000000000002,-0.7749900000000001,9.83943
2242424220,22.41,-0.07030186227033158,-0.10332349171806432,0.0,0.74556,-0.8240400000000001,9.83943
2247474725,22.41,0.03089232776029963,0.008517206749732328,0.0,0.7749900000000001,-0.69651,9.86886
2252525230,22.41,0.05859070298944965,0.14913838458291545,0.005323254218582705,0.45126,-0.3924,9.81
2257575735,22.41,0.11398745344774965,0.2183755960095305,0.01064650843716541,-0.8829,0.11772,10.11411
2262626240,22.41,0.0852244273748831,0.12144000935376545,0.004258603374866164,-1.9718100000000003,0.5493600000000001,9.80019
2267676745,22.41,0.006387905062299246,-0.05539675045830002,0.0,-1.60884,0.44145,9.48627
2272727250,22.41,-0.10012953918691468,-0.19600047499896323,-0.002129301687433082,-0.6867000000000001,-0.18639,9.86886
2277777755,22.41,-0.16831955306233315,-0.24181536786381436,-0.005323254218582705,0.30411,-2.01105,10.01601
2282828260,22.41,-0.03621558197888234,-0.13421581947836395,0.0,1.4715,-0.27468000000000004,9.81
2287878765,22.41,0.08203047484373349,0.10653489754173388,0.005323254218582705,1.21644,-0.9319500000000001,10.17297
2292929270,22.41,0.09906488834319814,0.2343628119577986,0.008517206749732328,0.27468000000000004,0.10791,9.5157
2297979775,22.41,0.12250466019748199,0.23329816111408203,0.006387905062299246,-1.70694,0.27468000000000004,10.320120000000001
2303030280,22.41,0.04153883619746504,0.060720004676882725,0.002129301687433082,-2.40345,0.63765,9.908100000000001
2308080785,22.41,-0.03089232776029963,-0.12037535851004891,-0.004258603374866164,-1.52055,0.40221,9.57456
2313131290,22.41,-0.13208651779093086,-0.23329816111408203,-0.008517206749732328,-0.49050000000000005,-0.57879,9.85905
2318181795,22.41,-0.16404349639494703,-0.24607397123868052,-0.005323254218582705,0.64746,-1.68732,9.89829
2323232300,22.41,0.022375121010567305,-0.00958185759344887,-0.005323254218582705,1.46169,0.009810000000000001,9.53532
2328282805,22.41,0.07243116395776468,0.15446163880149816,0.007452555906015787,0.6867000000000001,-0.6867000000000001,9.47646
2333333310,22.41,0.12144000935376545,0.25780258381208243,0.008517206749732328,-0.5591700000000001,0.41202000000000005,9.60399
2338383815,22.41,0.08309512568745003,0.14594443205176583,0.006387905062299246,-1.81485,0.43164,10.01601
2343434320,22.41,0.014905111812031574,-0.05752605214573309,-0.002129301687433082,-1.49112,0.44145,9.56475
2348484825,22.41,-0.09480628496833199,-0.17151350559348277,-0.006387905062299246,-0.59841,-0.33354000000000006,9.67266
2353535330,22.41,-0.14913838458291545,-0.19174187162409706,-0.006387905062299246,-0.009810000000000001,-1.81485,9.888480000000001
2358585835,22.41,-0.05220279792715039,-0.06710790973918197,-0.005323254218582705,0.8240400000000001,-0.40221,10.182780000000001
2363636340,22.41,0.07883652231258387,0.08948303074974927,0.001064650843716541,0.6670800000000001,-0.65727,10.24164
2368686845,22.41,0.10332349171806432,0.2162462943220974,0.005323254218582705,-0.1962,0.47088,9.3195
2373737350,22.41,0.08735372906231618,0.1416858286768997,0.003193952531149623,-1.54017,0.60822,9.89829
2378787855,22.41,-0.011711159280881954,-0.05539675045830002,0.0,-1.24587,0.30411,9.84924
2383838360,22.41,-0.08948303074974927,-0.17151350559348277,-0.007452555906015787,-0.26487,-0.6768900000000001,9.84924
2388888865,22.41,-0.1374272253020335,-0.1374272253020335,-0.002129301687433082,0.14715,-1.65789,9.99639
2393939370,22.41,0.008517206749732328,0.003193952531149623,0.002129301687433082,0.21582,-0.7848,9.86886
2398989875,22.41,0.10119419003063122,0.1416858286768997,0.004258603374866164,-0.06867000000000001,0.04905,10.11411
2404040380,22.41,0.12569861272863161,0.16831955306233315,0.005323254218582705,-0.8142300000000001,0.6768900000000001,9.89829
2409090885,22.41,0.020245819323134222,0.03621558197888234,0.006387905062299246,-1.60884,0.38259000000000004,9.6138
2414141390,22.41,-0.06391395720803235,-0.14381513036433274,-0.004258603374866164,-0.86328,0.10791,9.7119
2419191895,22.41,-0.1416858286768997,-0.2279749068954993,-0.005323254218582705,0.11772,-2.21706,10.025820000000001
2424242400,22.41,-0.09161233243718235,-0.09267698328089889,-0.006387905062299246,1.46169,-0.6670800000000001,10.25145
2429292905,22.41,0.09906488834319814,0.13955652698946658,0.001064650843716541,0.9613800000000001,-1.13796,10.418220000000002
2434343410,22.41,0.1374272253020335,0.28122490237384634,0.01064650843716541,-0.49050000000000005,0.59841,9.32931
2439393915,22.41,0.14062117783318315,0.22903955773921586,0.008517206749732328,-2.2955400000000004,0.8142300000000001,10.163160000000001
2444444420,22.41,-0.00958185759344887,-0.05326744877086694,-0.001064650843716541,-1.9914300000000003,0.70632,9.47646
2449494925,22.41,-0.1097288500728835,-0.23223351027036546,-0.006387905062299246,-0.7848,-0.34335000000000004,9.81
2454545430,22.41,-0.18641861740551433,-0.22582815191554628,-0.00958185759344887,0.05886,-2.33478,9.937529999999999
2459595935,22.41,-0.02982767691658309,-0.10332349171806432,-0.003193952531149623,0.9221400000000001,0.019620000000000002,9.81
2464646440,22.41,0.07883652231258387,0.06497860805174888,0.001064650843716541,0.9319500000000001,-0.38259000000000004,10.280880000000002
2469696945,22.41,0.07456046564519776,0.16938420390604966,0.005323254218582705,0.50031,0.05886,9.33912
2474747450,22.41,0.044732788728614664,0.13421581947836395,0.005323254218582705,-0.89271,-0.24525000000000002,10.03563
2479797955,22.41,0.03089232776029963,0.05007349623971732,0.0,-1.1477700000000002,0.06867000000000001,10.025820000000001
2484848460,22.41,0.01064650843716541,0.006387905062299246,-0.001064650843716541,-1.15758,-0.10791,9.95715
2489898965,22.41,-0.0170518667919846,-0.024504422698000388,-0.001064650843716541,-1.13796,-0.04905,9.760950000000001
2494949470,22.41,-0.039409534510031964,-0.08735372906231618,-0.004258603374866164,-0.75537,0.0,9.80019
2499999975,22.41,-0.060720004676882725,-0.14913838458291545,-0.004258603374866164,0.07848000000000001,-0.32373,9.73152
2505050480,22.41,-0.07990117315630041,-0.11292280260403312,-0.002129301687433082,0.75537,-1.0791000000000002,9.81
2510100985,22.41,-0.002129301687433082,-0.001064650843716541,0.0,1.06929,-0.52974,9.73152
2515151490,22.41,0.054332099614583476,0.11398745344774965,0.003193952531149623,0.41202000000000005,-0.46107000000000004,9.82962
2520201995,22.41,0.11292280260403312,0.17364280728091586,0.004258603374866164,-0.49050000000000005,0.24525000000000002,9.7119
2525252500,22.41,0.06497860805174888,0.11611675513518273,0.006387905062299246,-1.41264,0.18639,9.83943
2530303005,22.41,0.007452555906015787,-0.020245819323134222,0.0,-1.44207,0.16677000000000003,9.79038
2535353510,22.41,-0.06497860805174888,-0.10653489754173388,-0.004258603374866164,-0.87309,-0.27468000000000004,9.86886
2540404015,22.41,-0.0852244273748831,-0.12569861272863161,-0.001064650843716541,-0.42183,-0.6768900000000001,9.937529999999999
2545454520,22.41,-0.05752605214573309,-0.11079350091660004,0.0,0.1962,-0.5395500000000001,9.87867
2550505025,22.41,-0.014905111812031574,-0.08203047484373349,0.0,0.9221400000000001,-0.31392000000000003,9.908100000000001
2555555530,22.41,0.005323254218582705,0.01064650843716541,-0.001064650843716541,1.15758,-0.72594,9.83943
2560606035,22.41,0.02556907354171693,0.13955652698946658,0.003193952531149623,0.48069000000000006,-0.9221400000000001,9.79038
2565656540,22.41,0.10332349171806432,0.2183755960095305,0.008517206749732328,-0.9810000000000001,0.08829,10.01601
2570707045,22.41,0.12676326357234816,0.15659094048893124,0.004258603374866164,-1.8639000000000001,0.9711900000000001,9.83943
2575757550,22.41,0.02769837522915001,-0.02982767691658309,0.0,-1.78542,0.63765,9.4176
2580808055,22.41,-0.11824605682261582,-0.18641861740551433,-0.006387905062299246,-0.87309,-0.20601000000000003,9.751140000000001
2585858560,22.41,-0.1800307123432151,-0.24713862208239704,-0.008517206749732328,0.019620000000000002,-2.28573,10.08468
2590909065,22.41,-0.01918116847941768,-0.12037535851004891,-0.002129301687433082,1.1183400000000001,0.0,9.84924
2595959570,22.41,0.0756251164889143,0.0756251164889143,0.005323254218582705,0.90252,-0.47088,10.24164
2601010075,22.41,0.06817256058289851,0.15339698795778162,0.004258603374866164,0.60822,0.009810000000000001,9.36855
2606060580,22.41,0.060720004676882725,0.15339698795778162,0.004258603374866164,-0.85347,-0.36297,10.09449
2611111085,22.41,0.03515093113516579,0.08841837990603273,0.004258603374866164,-1.3341600000000002,-0.009810000000000001,9.98658
2616161590,22.41,0.04581489286485115,0.02982767691658309,0.002129301687433082,-1.49112,0.37278,9.67266
2621212095,22.41,-0.02663372438543347,-0.07670722062515077,-0.002129301687433082,-1.2851100000000002,0.14715,9.67266
2626262600,22.41,-0.08948303074974927,-0.16191419470751395,-0.004258603374866164,-0.37278,-0.35316,9.770760000000001
2631313105,22.41,-0.11292280260403312,-0.1757721089683489,-0.006387905062299246,0.36297,-1.43226,9.85905
2636363610,22.41,-0.021310470166850764,-0.06497860805174888,-0.001064650843716541,0.9908100000000001,-0.23544,9.79038
2641414115,22.41,0.05007349623971732,0.0756251164889143,0.003193952531149623,0.72594,-0.57879,10.03563
2646464620,22.41,0.07349581480148122,0.15659094048893124,0.008517206749732328,0.10791,0.019620000000000002,9.59418
2651515125,22.41,0.0756251164889143,0.1374272253020335,0.005323254218582705,-0.90252,0.039240000000000004,9.94734
2656565630,22.41,0.03089232776029963,0.05859070298944965,0.002129301687433082,-1.2360600000000002,0.019620000000000002,9.89829
2661616135,22.41,0.006387905062299246,0.006387905062299246,0.003193952531149623,-1.2753,-0.08829,9.7119
2666666640,22.41,-0.0404741853537485,-0.06604325889546543,-0.001064650843716541,-1.20663,-0.07848000000000001,9.82962
2671717145,22.41,-0.05220279792715039,-0.13634512116579703,-0.002129301687433082,-0.43164,0.0,9.82962
2676767650,22.41,-0.08309512568745003,-0.16617279808238014,-0.004258603374866164,0.43164,-1.1477700000000002,9.80019
2681818155,22.41,-0.07777187146886733,-0.08628907821859966,-0.004258603374866164,1.5499800000000001,-0.74556,10.09449
2686868660,22.41,0.05220279792715039,0.08203047484373349,0.002129301687433082,1.2556800000000001,-1.08891,10.11411
2691919165,22.41,0.08628907821859966,0.23755676448894822,0.006387905062299246,-0.06867000000000001,0.019620000000000002,9.65304
2696969670,22.41,0.14700908289548237,0.23862141533266473,0.008517206749732328,-1.6480800000000002,0.7651800000000001,10.006200000000002
2702020175,22.41,0.049008845396000776,0.06284930636431581,0.001064650843716541,-2.2661100000000003,0.44145,9.74133
2707070680,22.41,-0.05007349623971732,-0.11505210429146619,-0.002129301687433082,-1.46169,0.0,9.56475
2712121185,22.41,-0.1352804703220805,-0.17683675981206545,-0.003193952531149623,-0.74556,-0.63765,10.06506
2717171690,22.41,-0.11398745344774965,-0.20666443672864854,-0.006387905062299246,0.14715,-1.26549,9.86886
2722222195,22.41,-0.003193952531149623,-0.1278279144160647,0.0,1.5696,-0.10791,9.67266
2727272700,22.41,0.033021629447732716,0.03408628029144926,-0.002129301687433082,1.5794100000000002,-0.6180300000000001,10.09449
2732323205,22.41,0.02769837522915001,0.1800307123432151,0.007452555906015787,0.75537,-0.90252,9.81
2737373710,22.41,0.12463396188491506,0.2599318854995155,0.006387905062299246,-1.3243500000000001,0.07848000000000001,9.92772
2742424215,22.41,0.12144000935376545,0.1555262896452147,0.007452555906015787,-2.17782,0.9221400000000001,9.80019
2747474720,22.41,0.028763026072866547,-0.033021629447732716,-0.001064650843716541,-1.81485,0.65727,9.5157
2752525225,22.41,-0.09800023749948161,-0.1672549022186166,-0.003193952531149623,-0.9908100000000001,-0.35316,9.73152
2757575730,22.41,-0.17470745812463237,-0.21092304010351473,-0.005323254218582705,-0.33354000000000006,-1.68732,9.937529999999999
2762626235,22.41,-0.09906488834319814,-0.17257815643719931,-0.002129301687433082,1.3047300000000002,-0.47088,10.01601
2767676740,22.41,0.06391395720803235,-0.04153883619746504,-0.001064650843716541,1.51074,-0.019620000000000002,10.045440000000001
2772727245,22.41,0.014905111812031574,0.08415977653116657,0.001064650843716541,1.3047300000000002,-0.52974,9.34893
2777777750,22.41,0.03728023282259888,0.18109536318693162,0.003193952531149623,-0.10791,-0.74556,9.89829
2782828255,22.41,0.08735372906231618,0.18109536318693162,0.005323254218582705,-1.2753,0.12753,9.99639
2787878760,22.41,0.1097288500728835,0.10119419003063122,0.004258603374866164,-1.75599,0.8142300000000001,9.888480000000001
2792929265,22.41,-0.007452555906015787,-0.03515093113516579,0.0,-1.51074,0.41202000000000005,9.4176
2797979770,22.41,-0.10438814256178083,-0.15126768627034853,-0.006387905062299246,-0.9319500000000001,-0.44145,9.770760000000001
2803030275,22.41,-0.1416858286768997,-0.18535396656179778,-0.006387905062299246,-0.27468000000000004,-1.34397,10.05525
2808080780,22.41,-0.07030186227033158,-0.1352804703220805,-0.003193952531149623,1.0791000000000002,-0.47088,10.05525
2813131285,22.41,0.04366813788489812,-0.00958185759344887,-0.001064650843716541,1.0791000000000002,-0.17658,9.888480000000001
2818181790,22.41,0.01064650843716541,0.06923721142661506,0.0,0.9613800000000001,-0.32373,9.46665
2823232295,22.41,0.03728023282259888,0.12995721610349775,0.002129301687433082,0.0981,-0.69651,9.94734
2828282800,22.41,0.06178465552059926,0.15233233711406508,0.003193952531149623,-0.87309,-0.23544,9.95715
2833333305,22.41,0.09800023749948161,0.13634512116579703,0.004258603374866164,-1.6775100000000003,0.59841,9.87867
2838383810,22.41,0.020245819323134222,-0.006387905062299246,0.0,-1.79523,0.52974,9.65304
2843434315,22.41,-0.08628907821859966,-0.14913838458291545,-0.003193952531149623,-0.95157,-0.11772,9.70209
2848484820,22.41,-0.14381513036433274,-0.20879373841608162,-0.008517206749732328,-0.0981,-1.55979,9.98658
2853535325,22.41,-0.11611675513518273,-0.16191419470751395,-0.005323254218582705,1.52055,-0.5591700000000001,10.15335
2858585830,22.41,0.06923721142661506,-0.01811651763570114,-0.002129301687433082,1.45188,-0.30411,10.025820000000001
2863636335,22.41,0.023439771854283843,0.12250466019748199,0.003193952531149623,1.16739,-0.41202000000000005,9.29988
2868686840,22.41,0.07670722062515077,0.20985838925979816,0.006387905062299246,-0.2943,-0.50031,9.95715
2873737345,22.41,0.0852244273748831,0.18854791909294744,0.003193952531149623,-1.65789,0.36297,9.97677
2878787850,22.41,0.08735372906231618,0.08415977653116657,0.004258603374866164,-2.2366800000000002,0.7651800000000001,9.81
2883838355,22.41,-0.031956978604016174,-0.09267698328089889,-0.001064650843716541,-1.6677000000000002,0.42183,9.39798
2888888860,22.41,-0.13849187614575004,-0.22903955773921586,-0.003193952531149623,-0.65727,-0.5395500000000001,9.888480000000001
2893939365,22.41,-0.1757721089683489,-0.258867234655799,-0.003193952531149623,0.41202000000000005,-1.68732,10.05525
2898989870,22.41,0.022375121010567305,-0.02556907354171693,-0.001064650843716541,1.69713,0.25506,9.5157
2904040375,22.41,0.05965535383316618,0.11079350091660004,0.004258603374866164,0.9613800000000001,-0.70632,9.59418
2909090880,22.41,0.08841837990603273,0.22689280275926285,0.006387905062299246,0.16677000000000003,0.10791,9.59418
2914141385,22.41,0.09161233243718235,0.17896606149949854,0.005323254218582705,-1.49112,0.0,10.25145
2919191890,22.41,0.04581489286485115,0.07670722062515077,0.004258603374866164,-1.8737100000000002,0.47088,9.89829
2924242395,22.41,0.0,-0.03408628029144926,0.0,-1.7658,0.34335000000000004,9.55494
2929292900,22.41,-0.09587093581204853,-0.1629788455512305,-0.004258603374866164,-1.15758,-0.14715,9.74133
2934343405,22.41,-0.13208651779093086,-0.22903955773921586,-0.007452555906015787,0.039240000000000004,-1.4813100000000001,9.91791
2939393910,22.41,-0.10225884087434776,-0.1704488547497662,-0.005323254218582705,1.9620000000000002,-0.71613,10.26126
2944444415,22.41,0.05220279792715039,0.020245819323134222,-0.001064650843716541,2.08953,-0.6867000000000001,10.11411
2949494920,22.41,0.046879543708567686,0.2183755960095305,0.008517206749732328,0.8142300000000001,-0.64746,9.34893
2954545425,22.41,0.150203035426632,0.2961474674783978,0.01064650843716541,-1.3341600000000002,0.59841,9.84924
2959595930,22.41,0.10332349171806432,0.12569861272863161,0.006387905062299246,-2.48193,0.75537,9.7119
2964646435,22.41,-0.01918116847941768,-0.08948303074974927,-0.001064650843716541,-1.70694,0.60822,9.43722
2969696940,22.41,-0.14275047952061623,-0.20772908757236508,-0.007452555906015787,-0.85347,-0.73575,9.95715
2974747445,22.41,-0.1672549022186166,-0.20879373841608162,-0.004258603374866164,-0.16677000000000003,-1.8442800000000001,10.074869999999999
2979797950,22.41,-0.008517206749732328,-0.13208651779093086,0.0,0.8338500000000001,0.0981,9.89829
2984848455,22.41,0.05220279792715039,0.00958185759344887,0.001064650843716541,1.3832099999999998,-0.44145,10.08468
2989898960,22.41,0.021310470166850764,0.12250466019748199,0.006387905062299246,0.9711900000000001,-0.6180300000000001,9.623610000000001
2994949465,22.41,0.05113814708343386,0.1800307123432151,0.004258603374866164,-0.49050000000000005,-0.71613,10.15335
2999999970,22.41,0.10866419922916695,0.17470745812463237,0.006387905062299246,-1.43226,0.64746,9.83943
3005050475,22.41,0.09161233243718235,0.09374163412461543,0.003193952531149623,-2.03067,0.60822,9.66285
3010100980,22.41,-0.04366813788489812,-0.08735372906231618,0.0,-1.5499800000000001,0.35316,9.4176
3015151485,22.41,-0.13955652698946658,-0.2162462943220974,-0.006387905062299246,-0.59841,-0.7651800000000001,9.99639
3020201990,22.41,-0.15765559133264778,-0.21198769094723127,-0.005323254218582705,0.33354000000000006,-1.54017,10.074869999999999
3025252495,22.41,0.013840460968315033,-0.04260348704118158,-0.003193952531149623,1.5794100000000002,0.05886,9.56475
3030303000,22.41,0.06604325889546543,0.08948303074974927,0.004258603374866164,0.79461,-0.40221,9.751140000000001
3035353505,22.41,0.07136651311404815,0.18428931571808121,0.004258603374866164,0.25506,-0.13734000000000002,9.64323
3040404010,22.41,0.06284930636431581,0.16084954386379738,0.004258603374866164,-1.0791000000000002,-0.13734000000000002,10.06506
3045454515,22.41,0.05752605214573309,0.08415977653116657,0.002129301687433082,-1.55979,0.34335000000000004,9.751140000000001
3050505020,22.41,0.020245819323134222,-0.006387905062299246,0.0,-1.5696,0.1962,9.65304
3055555525,22.41,-0.05859070298944965,-0.10225884087434776,-0.004258603374866164,-1.19682,0.039240000000000004,9.67266
3060606030,22.41,-0.10759954838545042,-0.18535396656179778,-0.005323254218582705,-0.35316,-0.45126,9.888480000000001
3065656535,22.41,-0.11079350091660004,-0.19600047499896323,-0.004258603374866164,0.73575,-1.1870100000000001,9.83943
3070707040,22.41,-0.008517206749732328,-0.04153883619746504,-0.002129301687433082,1.80504,-0.37278,9.70209
3075757545,22.41,0.05539675045830002,0.14487978120804929,0.004258603374866164,0.8142300000000001,-0.84366,9.84924
3080808050,22.41,0.12144000935376545,0.27377234646783055,0.008517206749732328,-0.48069000000000006,0.26487,9.59418
3085858555,22.41,0.11611675513518273,0.18748326824923087,0.008517206749732328,-1.9816200000000002,0.5493600000000001,10.1043
3090909060,22.41,0.020245819323134222,-0.01811651763570114,-0.001064650843716541,-1.9914300000000003,0.50031,9.73152
3095959565,22.41,-0.09054768159346581,-0.16084954386379738,-0.004258603374866164,-1.0791000000000002,-0.20601000000000003,9.78057
3101010070,22.41,-0.14487978120804929,-0.19600047499896323,-0.007452555906015787,-0.26487,-1.03986,9.92772
3106060575,22.41,-0.10225884087434776,-0.1416858286768997,-0.004258603374866164,0.49050000000000005,-0.8142300000000001,9.78057
3111111080,22.41,0.03408628029144926,-0.03408628029144926,-0.003193952531149623,0.84366,0.0981,9.69228
3116161585,22.41,0.020245819323134222,0.03515093113516579,0.0,1.13796,-0.47088,9.56475
3121212090,22.41,0.03728023282259888,0.14700908289548237,0.002129301687433082,0.40221,-0.6867000000000001,9.819809999999999
3126262595,22.41,0.060720004676882725,0.18961256993666398,0.005323254218582705,-0.9221400000000001,-0.24525000000000002,10.045440000000001
3131313100,22.41,0.11292280260403312,0.15126768627034853,0.003193952531149623,-1.78542,0.69651,9.86886
3136363605,22.41,0.033021629447732716,0.003193952531149623,0.003193952531149623,-2.05029,0.51993,9.67266
3141414110,22.41,-0.08948303074974927,-0.16191419470751395,-0.005323254218582705,-1.0987200000000001,0.0981,9.60399
3146464615,22.41,-0.17364280728091586,-0.2652551397180982,-0.008517206749732328,-0.11772,-2.20725,10.006200000000002
3151515120,22.41,-0.12356931104119852,-0.177901410655782,-0.006387905062299246,1.9620000000000002,-0.60822,10.418220000000002
3156565625,22.41,0.08309512568745003,0.05646140130201656,-0.002129301687433082,2.24649,-0.9711900000000001,10.38879
3161616130,22.41,0.06178465552059926,0.28335420406127937,0.01064650843716541,0.87309,-0.41202000000000005,9.40779
3166666635,22.41,0.177901410655782,0.35793212299899707,0.01064650843716541,-1.9816200000000002,1.16739,9.94734
3171717140,22.41,0.07243116395776468,0.10012953918691468,0.004258603374866164,-3.0999600000000003,0.7651800000000001,9.751140000000001
3176767645,22.41,-0.02982767691658309,-0.17470745812463237,-0.003193952531149623,-1.6677000000000002,0.74556,9.26064
3181818150,22.41,-0.19493582415524666,-0.2961474674783978,-0.007452555906015787,-0.47088,-1.75599,10.11411
3186868655,22.41,-0.22263419938439669,-0.2769662989989801,-0.00958185759344887,1.15758,-1.65789,9.89829
3191919160,22.41,0.09161233243718235,-0.01918116847941768,-0.001064650843716541,1.02024,-0.11772,9.85905
3196969665,22.41,0.05220279792715039,0.150203035426632,0.008517206749732328,1.29492,0.02943,9.10368
3202020170,22.41,0.1097288500728835,0.2130523417909478,0.008517206749732328,-0.28449,0.11772,10.17297
3207070675,22.41,0.022375121010567305,0.09906488834319814,0.002129301687433082,-1.42245,-0.06867000000000001,10.006200000000002
3212121180,22.41,0.004258603374866164,-0.023439771854283843,-0.001064650843716541,-1.29492,0.06867000000000001,9.64323
3217171685,22.41,-0.03515093113516579,-0.06178465552059926,0.0,-0.9221400000000001,-0.27468000000000004,9.69228
3222222190,22.41,-0.04794419455228423,-0.06178465552059926,0.001064650843716541,-0.6670800000000001,-0.5395500000000001,9.68247
3227272695,22.41,-0.03515093113516579,-0.04153883619746504,-0.002129301687433082,-0.48069000000000006,-0.31392000000000003,9.82962
3232323200,22.41,-0.005323254218582705,-0.05007349623971732,0.001064650843716541,-0.1962,0.039240000000000004,9.83943
3237373705,22.41,-0.02769837522915001,-0.07030186227033158,-0.003193952531149623,0.31392000000000003,-0.18639,9.87867
3242424210,22.41,-0.049008845396000776,-0.06284930636431581,-0.003193952531149623,0.6278400000000001,-0.9613800000000001,9.86886
3247474715,22.41,-0.0170518667919846,0.01811651763570114,-0.001064650843716541,0.6278400000000001,-0.9221400000000001,9.84924
3252525220,22.41,0.05965535383316618,0.1416858286768997,0.001064650843716541,0.019620000000000002,-0.44145,9.98658
3257575725,22.41,0.11931070766633237,0.20453513504121545,0.008517206749732328,-0.94176,0.38259000000000004,9.83943
3262626230,22.41,0.08309512568745003,0.1352804703220805,0.004258603374866164,-1.9816200000000002,0.57879,9.751140000000001
3267676735,22.41,-0.0404741853537485,-0.05752605214573309,0.0,-1.7756100000000001,0.48069000000000006,9.496080000000001
3272727240,22.41,-0.11824605682261582,-0.2183755960095305,-0.004258603374866164,-0.73575,-0.20601000000000003,9.82962
3277777745,22.41,-0.1800307123432151,-0.27270769562411395,-0.007452555906015787,0.47088,-2.04048,9.87867
3282828250,22.41,-0.0170518667919846,-0.10012953918691468,-0.008517206749732328,2.5506,-0.04905,9.48627
3287878755,22.41,0.09161233243718235,0.15978489302008084,0.003193952531149623,1.1281500000000002,-1.1183400000000001,10.05525
3292929260,22.41,0.1278279144160647,0.3344923511447132,0.014905111812031574,-0.06867000000000001,0.38259000000000004,9.39798
3297979765,22.41,0.14062117783318315,0.2705783939366809,0.01064650843716541,-2.65851,0.56898,10.40841
3303030270,22.41,0.024504422698000388,-0.01918116847941768,0.0,-2.5015500000000004,0.86328,9.44703
3308080775,22.41,-0.07349581480148122,-0.22689280275926285,-0.008517206749732328,-1.1772,0.33354000000000006,9.496080000000001
3313131280,22.41,-0.2205048976969636,-0.3163758335090121,-0.00958185759344887,0.039240000000000004,-3.0607200000000003,9.85905
3318181785,22.41,-0.12463396188491506,-0.14913838458291545,-0.007452555906015787,1.52055,-0.35316,10.34955
3323232290,22.41,0.11079350091660004,0.0852244273748831,0.003193952531149623,1.7756100000000001,-1.1281500000000002,10.732140000000001
3328282795,22.41,0.09161233243718235,0.28122490237384634,0.011711159280881954,0.42183,0.31392000000000003,9.30969
3333333300,22.41,0.14700908289548237,0.2886949115723821,0.01064650843716541,-1.8442800000000001,0.41202000000000005,10.22202
3338383805,22.41,0.03408628029144926,0.05965535383316618,0.004258603374866164,-2.6781300000000003,0.49050000000000005,9.74133
3343434310,22.41,-0.033021629447732716,-0.13634512116579703,-0.004258603374866164,-1.6382700000000001,0.42183,9.39798
3348484815,22.41,-0.14487978120804929,-0.23649211364523165,-0.007452555906015787,-0.60822,-0.6180300000000001,9.94734
3353535320,22.41,-0.1757721089683489,-0.24500932039496398,-0.00958185759344887,0.65727,-1.78542,9.99639
3358585825,22.41,0.01918116847941768,-0.01918116847941768,-0.001064650843716541,1.72656,0.04905,9.60399
3363636330,22.41,0.07670722062515077,0.15126768627034853,0.007452555906015787,0.70632,-0.72594,9.69228
3368686835,22.41,0.11824605682261582,0.2652551397180982,0.00958185759344887,-0.52974,0.51012,9.53532
3373737340,22.41,0.08203047484373349,0.1352804703220805,0.003193952531149623,-1.83447,0.30411,10.045440000000001
3378787845,22.41,0.0,-0.04153883619746504,-0.003193952531149623,-1.49112,0.27468000000000004,9.72171
3383838350,22.41,-0.07777187146886733,-0.1288925652597812,0.0,-0.9123300000000001,-0.31392000000000003,9.78057
3388888855,22.41,-0.12250466019748199,-0.16617279808238014,-0.003193952531149623,-0.44145,-0.86328,9.94734
3393939360,22.41,-0.06391395720803235,-0.1278279144160647,-0.004258603374866164,0.51012,-0.71613,9.83943
3398989865,22.41,0.01811651763570114,-0.004258603374866164,0.0,0.90252,-0.56898,9.78057
3404040370,22.41,0.04153883619746504,0.1171814059788993,0.004258603374866164,0.5493600000000001,-0.35316,9.84924
3409090875,22.41,0.08628907821859966,0.1629788455512305,0.005323254218582705,-0.41202000000000005,0.05886,9.98658
3414141380,22.41,0.07349581480148122,0.10119419003063122,0.005323254218582705,-1.2360600000000002,0.47088,9.70209
3419191885,22.41,0.0,-0.013840460968315033,0.0,-1.1281500000000002,-0.04905,9.74133
3424242390,22.41,-0.05752605214573309,-0.08203047484373349,-0.001064650843716541,-0.7848,-0.38259000000000004,9.83943
3429292895,22.41,-0.07990117315630041,-0.09587093581204853,-0.002129301687433082,-0.43164,-0.6278400000000001,9.95715
3434343400,22.41,-0.031956978604016174,-0.07456046564519776,-0.003193952531149623,0.04905,-0.51012,9.83943
3439393905,22.41,0.004258603374866164,-0.002129301687433082,0.002129301687433082,0.22563,-0.33354000000000006,9.770760000000001
3444444410,22.41,0.02663372438543347,0.046879543708567686,-0.001064650843716541,0.0981,-0.28449,9.86886
3449494915,22.41,0.03834488366631542,0.06710790973918197,0.004258603374866164,-0.30411,-0.0981,9.84924
3454545420,22.41,0.01918116847941768,0.03408628029144926,0.001064650843716541,-0.5395500000000001,-0.009810000000000001,9.83943
3459595925,22.41,-0.003193952531149623,-0.011711159280881954,0.0,-0.57879,-0.17658,9.78057
3464646430,22.41,-0.02769837522915001,-0.04366813788489812,0.002129301687433082,-0.34335000000000004,-0.41202000000000005,9.80019
3469696935,22.41,-0.02556907354171693,-0.02982767691658309,0.0,-0.20601000000000003,-0.5395500000000001,9.81
3474747440,22.41,0.001064650843716541,0.014905111812031574,0.002129301687433082,-0.26487,-0.38259000000000004,9.770760000000001
3479797945,22.41,0.024504422698000388,0.0404741853537485,0.001064650843716541,-0.41202000000000005,-0.17658,9.82962
3484848450,22.41,0.033021629447732716,0.04260348704118158,0.0,-0.64746,0.0,9.85905
3489898955,22.41,0.0,-0.005323254218582705,0.002129301687433082,-0.64746,-0.039240000000000004,9.86886
3494949460,22.41,-0.02982767691658309,-0.05326744877086694,-0.002129301687433082,-0.50031,-0.28449,9.83943
3499999965,22.41,-0.04581489286485115,-0.07136651311404815,-0.001064650843716541,-0.17658,-0.45126,9.86886
3505050470,22.41,-0.0404741853537485,-0.07136651311404815,-0.002129301687433082,0.22563,-0.60822,9.92772
3510100975,22.41,0.001064650843716541,0.013840460968315033,-0.001064650843716541,0.37278,-0.51012,9.79038
3515151480,22.41,0.04153883619746504,0.0852244273748831,0.005323254218582705,-0.009810000000000001,-0.3924,9.770760000000001
3520201985,22.41,0.06391395720803235,0.11079350091660004,0.004258603374866164,-0.6768900000000001,0.13734000000000002,9.74133
3525252490,22.41,0.05326744877086694,0.06604325889546543,0.003193952531149623,-1.0791000000000002,0.27468000000000004,9.770760000000001
3530302995,22.41,-0.007452555906015787,-0.02556907354171693,0.0,-1.00062,-0.019620000000000002,9.73152
3535353500,22.41,-0.06710790973918197,-0.09480628496833199,-0.002129301687433082,-0.6278400000000001,-0.46107000000000004,9.86886
3540404005,22.41,-0.0756251164889143,-0.11505210429146619,-0.006387905062299246,-0.08829,-0.65727,9.94734
3545454510,22.41,-0.031956978604016174,-0.06604325889546543,-0.001064650843716541,0.34335000000000004,-0.59841,9.92772
3550505015,22.41,0.005323254218582705,0.011711159280881954,0.0,0.48069000000000006,-0.50031,9.86886
3555555520,22.41,0.04366813788489812,0.07990117315630041,0.001064650843716541,0.15696000000000002,-0.35316,9.80019
3560606025,22.41,0.060720004676882725,0.1171814059788993,0.006387905062299246,-0.45126,-0.08829,9.84924
3565656530,22.41,0.05539675045830002,0.09161233243718235,0.003193952531149623,-1.08891,0.1962,9.81
3570707035,22.41,0.003193952531149623,-0.002129301687433082,0.001064650843716541,-1.20663,0.11772,9.67266
3575757540,22.41,-0.04794419455228423,-0.0852244273748831,-0.003193952531149623,-0.8240400000000001,-0.24525000000000002,9.74133
3580808045,22.41,-0.07990117315630041,-0.1171814059788993,-0.006387905062299246,-0.20601000000000003,-0.6867000000000001,9.91791
3585858550,22.41,-0.05113814708343386,-0.07670722062515077,-0.002129301687433082,0.17658,-0.60822,9.94734
3590909055,22.41,0.002129301687433082,-0.0170518667919846,0.0,0.28449,-0.43164,9.908100000000001
3595959560,22.41,0.028763026072866547,0.0404741853537485,0.0,0.35316,-0.27468000000000004,9.81
3601010065,22.41,0.04260348704118158,0.07990117315630041,0.005323254218582705,-0.05886,-0.27468000000000004,9.81
3606060570,22.41,0.03728023282259888,0.07990117315630041,0.004258603374866164,-0.56898,-0.11772,9.81
3611111075,22.41,0.03089232776029963,0.04260348704118158,0.0,-0.8338500000000001,0.039240000000000004,9.770760000000001
3616161580,22.41,0.0,-0.002129301687433082,0.001064650843716541,-0.80442,-0.16677000000000003,9.760950000000001
3621212085,22.41,-0.02663372438543347,-0.031956978604016174,0.001064650843716541,-0.74556,-0.30411,9.81
3626262590,22.41,-0.03408628029144926,-0.05859070298944965,-0.001064650843716541,-0.56898,-0.23544,9.91791
3631313095,22.41,-0.03408628029144926,-0.0852244273748831,-0.005323254218582705,0.0,-0.36297,9.888480000000001
3636363600,22.41,-0.03621558197888234,-0.04581489286485115,-0.001064650843716541,0.37278,-0.7848,9.89829
3641414105,22.41,0.001064650843716541,0.04366813788489812,0.002129301687433082,0.13734000000000002,-0.60822,9.91791
3646464610,22.41,0.06178465552059926,0.09800023749948161,0.002129301687433082,-0.37278,0.04905,9.86886
3651515115,22.41,0.07243116395776468,0.06497860805174888,0.007452555906015787,-0.6278400000000001,0.40221,9.70209
3656565620,22.41,-0.002129301687433082,-0.0,-0.003193952531149623,-0.60822,-0.0981,9.67266
3661616125,22.41,-0.060720004676882725,-0.04581489286485115,-0.001064650843716541,-0.51012,-0.6278400000000001,9.78057
3666666630,22.41,-0.03834488366631542,-0.04581489286485115,0.0,-0.49050000000000005,-0.48069000000000006,9.89829
3671717135,22.41,0.001064650843716541,-0.03621558197888234,0.001064650843716541,-0.13734000000000002,-0.14715,9.82962
3676767640,22.41,0.005323254218582705,-0.013840460968315033,0.0,0.13734000000000002,-0.28449,9.79038
3681818145,22.41,-0.006387905062299246,0.020245819323134222,0.002129301687433082,-0.02943,-0.56898,9.92772
3686868650,22.41,0.00958185759344887,0.0404741853537485,0.002129301687433082,-0.37278,-0.30411,9.94734
3691919155,22.41,0.03728023282259888,0.02982767691658309,0.001064650843716541,-0.52974,0.05886,9.86886
3696969660,22.41,0.014905111812031574,0.007452555906015787,0.0,-0.43164,-0.009810000000000001,9.751140000000001
3702020165,22.41,-0.02769837522915001,-0.0170518667919846,-0.003193952531149623,-0.43164,-0.3924,9.79038
3707070670,22.41,-0.039409534510031964,-0.03728023282259888,-0.001064650843716541,-0.38259000000000004,-0.43164,9.80019
3712121175,22.41,-0.008517206749732328,-0.031956978604016174,0.0,-0.10791,-0.31392000000000003,9.770760000000001
3717171680,22.41,0.004258603374866164,0.004258603374866164,0.0,-0.039240000000000004,-0.34335000000000004,9.78057
3722222185,22.41,0.01064650843716541,0.03408628029144926,0.004258603374866164,-0.20601000000000003,-0.2943,9.908100000000001
3727272690,22.41,0.014905111812031574,0.022375121010567305,0.0,-0.41202000000000005,-0.08829,9.95715
3732323195,22.41,0.00958185759344887,-0.002129301687433082,0.001064650843716541,-0.3924,-0.27468000000000004,9.80019
3737373700,22.41,-0.01064650843716541,0.012775810124598492,-0.001064650843716541,-0.3924,-0.60822,9.888480000000001
3742424205,22.41,0.013840460968315033,0.05965535383316618,0.0,-0.86328,-0.30411,9.92772
3747474710,22.41,0.031956978604016174,0.01918116847941768,0.004258603374866164,-1.03986,0.12753,9.89829
3752525215,22.41,0.01064650843716541,-0.03089232776029963,0.001064650843716541,-0.6867000000000001,0.40221,9.81
3757575720,22.41,-0.07136651311404815,-0.12356931104119852,-0.004258603374866164,-0.13734000000000002,-0.47088,9.908100000000001
3762626225,22.41,-0.09693558665576507,-0.1278279144160647,-0.005323254218582705,0.41202000000000005,-1.19682,9.72171
3767676730,22.41,-0.011711159280881954,-0.03621558197888234,-0.004258603374866164,0.72594,-0.47088,9.78057
3772727235,22.41,0.04260348704118158,0.08203047484373349,0.0,0.5886,-0.43164,9.85905
3777777740,22.41,0.09054768159346581,0.15446163880149816,0.007452555906015787,-0.18639,0.15696000000000002,9.58437
3782828245,22.41,0.06497860805174888,0.12569861272863161,0.005323254218582705,-1.1772,0.15696000000000002,9.819809999999999
3787878750,22.41,0.022375121010567305,0.03621558197888234,0.001064650843716541,-1.42245,0.05886,9.84924
3792929255,22.41,-0.04366813788489812,-0.06284930636431581,-0.003193952531149623,-1.22625,0.02943,9.73152
3797979760,22.41,-0.07990117315630041,-0.15446163880149816,-0.002129301687433082,-0.57879,-0.45126,9.888480000000001
3803030265,22.41,-0.09267698328089889,-0.15446163880149816,-0.004258603374866164,0.35316,-1.20663,9.98658
3808080770,22.41,-0.020245819323134222,-0.05220279792715039,-0.002129301687433082,0.79461,-0.44145,10.1043
3813131275,22.41,0.04153883619746504,0.09587093581204853,0.004258603374866164,0.49050000000000005,-0.5395500000000001,9.99639
3818181780,22.41,0.08948303074974927,0.16510814723866357,0.003193952531149623,-0.32373,0.14715,9.496080000000001
3823232285,22.41,0.0852244273748831,0.13208651779093086,0.006387905062299246,-1.0987200000000001,0.2943,9.770760000000001
3828282790,22.41,0.022375121010567305,0.02769837522915001,0.003193952531149623,-1.3047300000000002,0.1962,9.70209
3833333295,22.41,-0.05326744877086694,-0.07456046564519776,-0.002129301687433082,-1.02024,-0.0981,9.65304
3838383800,22.41,-0.0852244273748831,-0.13955652698946658,-0.003193952531149623,-0.5493600000000001,-0.5886,9.819809999999999
3843434305,22.41,-0.07883652231258387,-0.1278279144160647,-0.002129301687433082,0.21582,-1.00062,9.97677
3848484810,22.41,-0.015987215948268057,-0.024504422698000388,0.0,0.63765,-0.59841,10.006200000000002
3853535315,22.41,0.04366813788489812,0.08203047484373349,0.003193952531149623,0.42183,-0.46107000000000004,10.01601
3858585820,22.41,0.08841837990603273,0.14594443205176583,0.005323254218582705,-0.40221,0.1962,9.819809999999999
3863636325,22.41,0.060720004676882725,0.08096582400001695,0.004258603374866164,-1.08891,0.22563,9.888480000000001
3868686830,22.41,-0.001064650843716541,-0.015987215948268057,-0.001064650843716541,-0.9711900000000001,0.08829,9.78057
3873737335,22.41,-0.060720004676882725,-0.10653489754173388,-0.002129301687433082,-0.44145,-0.45126,9.85905
3878787840,22.41,-0.09054768159346581,-0.11398745344774965,-0.004258603374866164,0.06867000000000001,-0.8142300000000001,9.81
3883838345,22.41,-0.02556907354171693,-0.05220279792715039,-0.001064650843716541,0.34335000000000004,-0.64746,9.84924
3888888850,22.41,0.033021629447732716,0.044732788728614664,0.0,0.45126,-0.48069000000000006,9.70209
3893939355,22.41,0.08415977653116657,0.15233233711406508,0.004258603374866164,-0.20601000000000003,0.0,9.65304
3898989860,22.41,0.07349581480148122,0.1374272253020335,0.004258603374866164,-1.15758,0.22563,9.79038
3904040365,22.41,0.024504422698000388,0.01918116847941768,0.002129301687433082,-1.43226,0.27468000000000004,9.84924
3909090870,22.41,-0.05539675045830002,-0.10759954838545042,-0.001064650843716541,-0.87309,-0.04905,9.81
3914141375,22.41,-0.10332349171806432,-0.16084954386379738,-0.007452555906015787,-0.16677000000000003,-0.8142300000000001,9.96696
3919191880,22.41,-0.09480628496833199,-0.12144000935376545,-0.004258603374866164,0.45126,-0.95157,9.937529999999999
3924242385,22.41,0.033021629447732716,0.005323254218582705,-0.003193952531149623,0.6768900000000001,-0.48069000000000006,9.81
3929292890,22.41,0.05965535383316618,0.12144000935376545,0.004258603374866164,0.51993,-0.12753,9.69228
3934343395,22.41,0.08096582400001695,0.16404349639494703,0.001064650843716541,-0.43164,-0.07848000000000001,9.99639
3939393900,22.41,0.060720004676882725,0.11292280260403312,0.004258603374866164,-1.3832099999999998,0.28449,9.751140000000001
3944444405,22.41,0.007452555906015787,0.0,0.0,-1.49112,0.12753,9.67266
3949494910,22.41,-0.05113814708343386,-0.10545279340549739,-0.003193952531149623,-0.9221400000000001,-0.02943,9.66285
3954545415,22.41,-0.09693558665576507,-0.15233233711406508,-0.002129301687433082,-0.28449,-0.69651,9.86886
3959595920,22.41,-0.08096582400001695,-0.11398745344774965,-0.004258603374866164,0.43164,-1.03986,9.937529999999999
3964646425,22.41,0.014905111812031574,-0.004258603374866164,0.0,0.6180300000000001,-0.56898,9.91791
3969696930,22.41,0.05220279792715039,0.09693558665576507,0.002129301687433082,0.3924,-0.14715,10.006200000000002
3974747435,22.41,0.08628907821859966,0.13208651779093086,0.005323254218582705,-0.28449,0.05886,9.94734
3979797940,22.41,0.03621558197888234,0.08309512568745003,0.006387905062299246,-0.95157,-0.039240000000000004,9.82962
3984848445,22.41,0.004258603374866164,0.00958185759344887,0.0,-1.1281500000000002,0.019620000000000002,9.770760000000001
3989898950,22.41,-0.028763026072866547,-0.06604325889546543,0.0,-0.8142300000000001,-0.18639,9.81
3994949455,22.41,-0.05007349623971732,-0.09161233243718235,-0.003193952531149623,-0.23544,-0.41202000000000005,9.72171
3999999960,22.41,-0.046879543708567686,-0.06391395720803235,-0.003193952531149623,0.07848000000000001,-0.6278400000000001,9.84924
4005050465,22.41,-0.004258603374866164,-0.007452555906015787,0.001064650843716541,0.13734000000000002,-0.48069000000000006,9.81
4010100970,22.41,0.033021629447732716,0.04581489286485115,0.0,0.009810000000000001,-0.18639,9.78057
4015151475,22.41,0.0404741853537485,0.06604325889546543,0.0,-0.24525000000000002,-0.019620000000000002,9.80019
4020201980,22.41,0.008517206749732328,0.03515093113516579,0.0,-0.49050000000000005,-0.23544,9.888480000000001
4025252485,22.41,0.004258603374866164,0.01064650843716541,0.003193952531149623,-0.6278400000000001,-0.16677000000000003,9.908100000000001
4030302990,22.41,-0.011711159280881954,-0.023439771854283843,0.001064650843716541,-0.60822,-0.31392000000000003,9.87867
4035353495,22.41,-0.01811651763570114,-0.03515093113516579,0.0,-0.34335000000000004,-0.24525000000000002,9.79038
4040404000,22.41,-0.015987215948268057,-0.03089232776029963,-0.002129301687433082,-0.18639,-0.42183,9.86886
4045454505,22.41,-0.007452555906015787,-0.004258603374866164,-0.001064650843716541,-0.05886,-0.41202000000000005,9.87867
4050505010,22.41,0.015987215948268057,0.02556907354171693,0.0,-0.26487,-0.17658,9.81
4055555515,22.41,0.020245819323134222,0.015987215948268057,0.001064650843716541,-0.31392000000000003,-0.04905,9.72171
4060606020,22.41,0.003193952531149623,-0.003193952531149623,0.002129301687433082,-0.30411,-0.15696000000000002,9.79038
4065656525,22.41,-0.02769837522915001,-0.02556907354171693,-0.002129301687433082,-0.16677000000000003,-0.5886,9.937529999999999
4070707030,22.41,-0.003193952531149623,0.014905111812031574,0.0,-0.21582,-0.41202000000000005,9.83943
4075757535,22.41,0.03089232776029963,0.05113814708343386,0.001064650843716541,-0.52974,-0.26487,9.78057
4080808040,22.41,0.03728023282259888,0.04794419455228423,0.0,-0.74556,0.16677000000000003,9.7119
4085858545,22.41,0.01064650843716541,-0.005323254218582705,-0.001064650843716541,-0.7848,0.05886,9.87867
4090909050,22.41,-0.046879543708567686,-0.07990117315630041,-0.002129301687433082,-0.42183,-0.28449,9.99639
4095959555,22.41,-0.07136651311404815,-0.11185815176031658,0.0,0.06867000000000001,-0.59841,9.98658
4101010060,22.41,-0.05752605214573309,-0.09161233243718235,-0.003193952531149623,0.6278400000000001,-0.80442,9.87867
4106060565,22.41,0.028763026072866547,0.033021629447732716,-0.003193952531149623,0.59841,-0.71613,9.74133
4111111070,22.41,0.07456046564519776,0.15765559133264778,0.004258603374866164,0.0,-0.35316,9.623610000000001
4116161575,22.41,0.12995721610349775,0.23223351027036546,0.008517206749732328,-1.2556800000000001,0.6768900000000001,9.87867
4121212080,22.41,0.06817256058289851,0.08841837990603273,0.004258603374866164,-2.24649,0.51993,9.81
4126262585,22.41,-0.04794419455228423,-0.13849187614575004,-0.002129301687433082,-1.52055,0.57879,9.5157
4131313090,22.41,-0.16191419470751395,-0.2886949115723821,-0.008517206749732328,-0.16677000000000003,-1.8737100000000002,10.03563
4136363595,22.41,-0.20453513504121545,-0.27590164815526363,-0.00958185759344887,2.91357,-1.3734000000000002,10.51632
4141414100,22.41,0.1097288500728835,0.03621558197888234,-0.001064650843716541,2.39364,-0.6278400000000001,10.300500000000001
4146464605,22.41,0.060720004676882725,0.28548350574871245,0.00958185759344887,0.9810000000000001,-0.35316,9.152730000000002
4151515110,22.41,0.20347048419749894,0.35686747215528053,0.008517206749732328,-1.6775100000000003,1.03005,9.83943
4156565615,22.41,0.05539675045830002,0.10012953918691468,0.004258603374866164,-3.07053,0.35316,9.888480000000001
4161616120,22.41,-0.033021629447732716,-0.13849187614575004,-0.005323254218582705,-1.8639000000000001,0.75537,9.55494
4166666625,22.41,-0.17151350559348277,-0.286548156592429,-0.006387905062299246,-0.6867000000000001,-0.9123300000000001,10.17297
4171717130,22.41,-0.19814722997891623,-0.2929535149472482,-0.006387905062299246,0.8142300000000001,-1.81485,9.79038
4176767635,22.41,0.05646140130201656,-0.023439771854283843,-0.004258603374866164,1.31454,-0.039240000000000004,9.58437
4181818140,22.41,0.05113814708343386,0.17470745812463237,0.006387905062299246,1.0987200000000001,-0.51993,9.13311
4186868645,22.41,0.13849187614575004,0.25780258381208243,0.008517206749732328,-0.65727,0.5395500000000001,9.74133
4191919150,22.41,0.05859070298944965,0.09374163412461543,0.0,-1.6677000000000002,0.32373,10.006200000000002
4196969655,22.41,-0.015987215948268057,-0.06284930636431581,-0.004258603374866164,-1.06929,-0.05886,9.74133
4202020160,22.41,-0.07243116395776468,-0.07883652231258387,0.0,-0.7848,-0.69651,9.89829
4207070665,22.41,-0.06923721142661506,-0.07349581480148122,0.0,-0.85347,-0.59841,9.84924
4212121170,22.41,-0.007452555906015787,-0.07243116395776468,-0.001064650843716541,-0.20601000000000003,0.06867000000000001,9.85905
4217171675,22.41,0.0,-0.07136651311404815,-0.002129301687433082,0.41202000000000005,-0.12753,9.819809999999999
4222222180,22.41,-0.05646140130201656,-0.05007349623971732,0.0,0.6867000000000001,-0.9123300000000001,9.908100000000001
4227272685,22.41,-0.0170518667919846,0.020245819323134222,0.002129301687433082,0.51993,-0.80442,9.98658
4232323190,22.41,0.05007349623971732,0.10545279340549739,0.002129301687433082,0.15696000000000002,-0.56898,10.045440000000001
4237373695,22.41,0.11824605682261582,0.177901410655782,0.002129301687433082,-0.70632,0.40221,9.72171
4242424200,22.41,0.07777187146886733,0.12144000935376545,0.004258603374866164,-1.58922,0.34335000000000004,9.7119
4247474705,22.41,0.003193952531149623,-0.01811651763570114,0.001064650843716541,-1.6382700000000001,0.36297,9.60399
4252525210,22.41,-0.09374163412461543,-0.16084954386379738,-0.005323254218582705,-0.9908100000000001,-0.21582,9.92772
4257575715,22.41,-0.14062117783318315,-0.2279749068954993,-0.006387905062299246,0.0,-1.6677000000000002,10.025820000000001
4262626220,22.41,-0.06391395720803235,-0.09906488834319814,-0.003193952531149623,1.50093,-0.57879,10.182780000000001
4267676725,22.41,0.05752605214573309,0.06604325889546543,0.002129301687433082,1.1870100000000001,-0.86328,10.212209999999999
4272727230,22.41,0.07030186227033158,0.177901410655782,0.006387905062299246,0.10791,0.13734000000000002,9.48627
4277777735,22.41,0.09587093581204853,0.15872024217636432,0.001064650843716541,-0.8142300000000001,0.06867000000000001,10.045440000000001
4282828240,22.41,0.04581489286485115,0.07883652231258387,0.004258603374866164,-1.39302,0.23544,9.78057
4287878745,22.41,-0.00958185759344887,-0.008517206749732328,0.0,-1.2851100000000002,-0.17658,9.623610000000001
4292929250,22.41,-0.03089232776029963,-0.046879543708567686,-0.001064650843716541,-1.29492,-0.019620000000000002,9.79038
4297979755,22.41,-0.054332099614583476,-0.13208651779093086,-0.002129301687433082,-0.71613,-0.1962,9.85905
4303030260,22.41,-0.08096582400001695,-0.16831955306233315,-0.003193952531149623,0.37278,-0.8142300000000001,9.80019
4308080765,22.41,-0.0756251164889143,-0.11185815176031658,-0.002129301687433082,1.5990300000000002,-0.9711900000000001,10.11411
4313131270,22.41,0.0404741853537485,0.060720004676882725,0.002129301687433082,1.19682,-0.9319500000000001,10.08468
4318181775,22.41,0.07990117315630041,0.21731094516581398,0.008517206749732328,0.06867000000000001,0.019620000000000002,9.69228
4323232280,22.41,0.12250466019748199,0.18748326824923087,0.004258603374866164,-1.1281500000000002,0.51993,10.03563
4328282785,22.41,0.05326744877086694,0.05752605214573309,-0.001064650843716541,-1.50093,0.21582,9.67266
4333333290,22.41,-0.03834488366631542,-0.03728023282259888,-0.001064650843716541,-1.3341600000000002,-0.16677000000000003,9.633420000000001
4338383795,22.41,-0.08096582400001695,-0.10438814256178083,0.0,-1.0791000000000002,-0.45126,9.937529999999999
4343434300,22.41,-0.06710790973918197,-0.15765559133264778,-0.001064650843716541,-0.47088,-0.24525000000000002,9.81
4348484805,22.41,-0.05326744877086694,-0.15126768627034853,-0.005323254218582705,0.65727,-0.85347,9.80019
4353535310,22.41,-0.04153883619746504,-0.060720004676882725,-0.004258603374866164,1.3635900000000003,-0.6180300000000001,9.96696
4358585815,22.41,0.03621558197888234,0.10225884087434776,0.002129301687433082,0.8829,-0.94176,10.074869999999999
4363636320,22.41,0.10119419003063122,0.20559978588493202,0.005323254218582705,-0.12753,0.06867000000000001,9.64323
4368686825,22.41,0.13102186694721432,0.20453513504121545,0.005323254218582705,-1.60884,0.6867000000000001,10.05525
4373737330,22.41,0.03515093113516579,0.0404741853537485,0.002129301687433082,-2.00124,0.3924,9.85905
4378787835,22.41,-0.04366813788489812,-0.10119419003063122,-0.002129301687433082,-1.3734000000000002,0.14715,9.60399
4383838340,22.41,-0.13208651779093086,-0.19600047499896323,-0.007452555906015787,-0.63765,-0.71613,9.95715
4388888845,22.41,-0.1288925652597812,-0.19600047499896323,-0.005323254218582705,0.43164,-1.24587,9.83943
4393939350,22.41,0.020245819323134222,-0.05646140130201656,-0.002129301687433082,1.44207,-0.039240000000000004,9.633420000000001
4398989855,22.41,0.04260348704118158,0.07349581480148122,0.004258603374866164,0.9319500000000001,-0.57879,9.85905
4404040360,22.41,0.06817256058289851,0.17683675981206545,0.004258603374866164,0.28449,-0.13734000000000002,9.6138
4409090865,22.41,0.06710790973918197,0.15233233711406508,0.0,-0.9810000000000001,-0.18639,10.1043
4414141370,22.41,0.06710790973918197,0.08735372906231618,0.002129301687433082,-1.3537800000000002,0.38259000000000004,9.81
4419191875,22.41,0.015987215948268057,0.00958185759344887,0.001064650843716541,-1.43226,0.02943,9.633420000000001
4424242380,22.41,-0.044732788728614664,-0.06923721142661506,0.0,-1.31454,0.13734000000000002,9.66285
4429292885,22.41,-0.08948303074974927,-0.18216001403064813,-0.004258603374866164,-0.50031,-0.48069000000000006,9.87867
4434343390,22.41,-0.09800023749948161,-0.17896606149949854,-0.004258603374866164,0.64746,-1.16739,9.819809999999999
4439393895,22.41,-0.012775810124598492,-0.060720004676882725,0.0,1.2753,-0.46107000000000004,9.85905
4444444400,22.41,0.044732788728614664,0.09906488834319814,0.001064650843716541,0.6867000000000001,-0.52974,10.01601
4449494905,22.41,0.09587093581204853,0.15978489302008084,0.008517206749732328,0.0981,0.13734000000000002,9.48627
4454545410,22.41,0.06817256058289851,0.13421581947836395,0.002129301687433082,-0.86328,-0.04905,10.006200000000002
4459595915,22.41,0.03089232776029963,0.07670722062515077,0.0,-1.34397,-0.019620000000000002,9.82962
4464646420,22.41,-0.007452555906015787,0.014905111812031574,0.0,-1.4715,0.06867000000000001,9.751140000000001
4469696925,22.41,-0.020245819323134222,-0.07349581480148122,0.001064650843716541,-1.3635900000000003,0.21582,9.68247
4474747430,22.41,-0.08309512568745003,-0.1704488547497662,-0.006387905062299246,-0.3924,-0.22563,9.770760000000001
4479797935,22.41,-0.10545279340549739,-0.18854791909294744,-0.004258603374866164,0.63765,-1.42245,9.86886
4484848440,22.41,-0.021310470166850764,-0.06604325889546543,-0.001064650843716541,1.5499800000000001,-0.48069000000000006,9.81
4489898945,22.41,0.06391395720803235,0.13102186694721432,0.004258603374866164,0.64746,-0.56898,10.08468
4494949450,22.41,0.10332349171806432,0.19387117331153014,0.006387905062299246,-0.14715,0.22563,9.43722
4499999955,22.41,0.09374163412461543,0.16404349639494703,0.003193952531149623,-1.26549,0.0981,10.045440000000001
4505050460,22.41,0.031956978604016174,0.07670722062515077,0.005323254218582705,-1.9620000000000002,0.08829,9.908100000000001
4510100965,22.41,-0.02982767691658309,-0.03834488366631542,0.0,-1.72656,0.28449,9.67266
4515151470,22.41,-0.07030186227033158,-0.18535396656179778,-0.002129301687433082,-1.0791000000000002,0.30411,9.770760000000001
4520201975,22.41,-0.15126768627034853,-0.28975956241609857,-0.01064650843716541,0.6867000000000001,-2.08953,9.85905
4525252480,22.41,-0.07349581480148122,-0.150203035426632,-0.003193952531149623,1.90314,-0.59841,9.97677
4530302985,22.41,0.06817256058289851,0.14381513036433274,0.002129301687433082,1.46169,-1.44207,10.38879
4535353490,22.41,0.1171814059788993,0.3195872393326817,0.00958185759344887,-0.07848000000000001,0.60822,9.60399
4540403995,22.41,0.1757721089683489,0.2482032729261136,0.008517206749732328,-2.16801,0.65727,10.34955
4545454500,22.41,-0.005323254218582705,-0.007452555906015787,-0.002129301687433082,-2.18763,0.43164,9.33912
4550505005,22.41,-0.06923721142661506,-0.1374272253020335,-0.005323254218582705,-1.4813100000000001,-0.05886,9.60399
4555555510,22.41,-0.1555262896452147,-0.2162462943220974,-0.001064650843716541,-0.73575,-0.8142300000000001,10.074869999999999
4560606015,22.41,-0.11824605682261582,-0.22689280275926285,-0.004258603374866164,0.60822,-0.89271,9.83943
4565656520,22.41,0.014905111812031574,-0.07030186227033158,-0.004258603374866164,1.6480800000000002,0.0,9.59418
4570707025,22.41,0.03728023282259888,0.09054768159346581,0.001064650843716541,1.45188,-0.9810000000000001,9.45684
4575757530,22.41,0.060720004676882725,0.2482032729261136,0.007452555906015787,0.019620000000000002,-0.44145,9.80019
4580808035,22.41,0.1278279144160647,0.21092304010351473,0.008517206749732328,-1.5499800000000001,0.51993,10.300500000000001
4585858540,22.41,0.10438814256178083,0.09693558665576507,0.003193952531149623,-2.03067,0.56898,9.87867
4590909045,22.41,-0.020245819323134222,-0.05007349623971732,0.001064650843716541,-1.69713,0.44145,9.43722
4595959550,22.41,-0.12995721610349775,-0.1800307123432151,-0.004258603374866164,-1.1183400000000001,-0.44145,9.908100000000001
4601010055,22.41,-0.15659094048893124,-0.258867234655799,-0.00958185759344887,-0.05886,-1.8442800000000001,9.94734
4606060560,22.41,-0.03408628029144926,-0.150203035426632,-0.002129301687433082,1.51074,-0.21582,9.937529999999999
4611111065,22.41,0.054332099614583476,0.07456046564519776,0.002129301687433082,1.52055,-0.84366,10.27107
4616161570,22.41,0.05752605214573309,0.20985838925979816,0.006387905062299246,0.48069000000000006,-0.21582,9.6138
4621212075,22.41,0.10653489754173388,0.21944024685324706,0.003193952531149623,-1.0791000000000002,0.02943,10.26126
4626262580,22.41,0.08735372906231618,0.11398745344774965,0.002129301687433082,-1.90314,0.38259000000000004,9.80019
4631313085,22.41,0.008517206749732328,-0.001064650843716541,0.0,-1.78542,0.51993,9.56475
4636363590,22.41,-0.06391395720803235,-0.13208651779093086,-0.001064650843716541,-1.31454,0.05886,9.69228
4641414095,22.41,-0.15126768627034853,-0.2396860661763813,-0.006387905062299246,-0.24525000000000002,-1.3635900000000003,9.888480000000001
4646464600,22.41,-0.1416858286768997,-0.22263419938439669,-0.005323254218582705,1.5303600000000002,-1.00062,9.94734
4651515105,22.41,0.05859070298944965,-0.01064650843716541,0.0,1.4715,-0.41202000000000005,9.98658
4656565610,22.41,0.03728023282259888,0.1672549022186166,0.007452555906015787,1.0791000000000002,-0.1962,9.28026
4661616115,22.41,0.11079350091660004,0.20453513504121545,0.005323254218582705,-0.60822,0.13734000000000002,9.888480000000001
4666666620,22.41,0.05007349623971732,0.09054768159346581,0.0,-1.2851100000000002,0.07848000000000001,9.91791
4671717125,22.41,0.02556907354171693,0.033021629447732716,0.0,-1.2753,-0.04905,9.72171
4676767630,22.41,-0.020245819323134222,-0.006387905062299246,0.0,-1.6382700000000001,0.04905,9.78057
4681818135,22.41,-0.05326744877086694,-0.1352804703220805,-0.002129301687433082,-1.13796,0.23544,9.69228
4686868640,22.41,-0.09800023749948161,-0.2354274628015151,-0.004258603374866164,0.37278,-1.03005,9.82962
4691919145,22.41,-0.1416858286768997,-0.18535396656179778,-0.005323254218582705,2.2661100000000003,-1.26549,10.09449
4696969650,22.41,0.046879543708567686,0.05859070298944965,0.001064650843716541,1.69713,-0.8142300000000001,9.96696
4702020155,22.41,0.07243116395776468,0.2354274628015151,0.005323254218582705,0.52974,-0.0981,9.52551
4707070660,22.41,0.15978489302008084,0.23755676448894822,0.006387905062299246,-1.03005,0.70632,9.96696
4712121165,22.41,0.03834488366631542,0.08628907821859966,0.003193952531149623,-2.1582000000000003,0.26487,9.751140000000001
4717171670,22.41,-0.03515093113516579,-0.05113814708343386,-0.002129301687433082,-1.54017,-0.039240000000000004,9.80019
4722222175,22.41,-0.08309512568745003,-0.11824605682261582,-0.002129301687433082,-1.22625,-0.41202000000000005,10.025820000000001
4727272680,22.41,-0.10119419003063122,-0.17896606149949854,-0.001064650843716541,-0.47088,-0.25506,9.87867
4732323185,22.41,-0.07136651311404815,-0.19387117331153014,-0.004258603374866164,0.84366,-0.80442,9.751140000000001
4737373690,22.41,-0.023439771854283843,-0.05752605214573309,-0.005323254218582705,2.03067,-0.50031,9.6138
4742424195,22.41,0.03621558197888234,0.1416858286768997,0.003193952531149623,1.06929,-1.24587,9.80019
4747474700,22.41,0.10438814256178083,0.2599318854995155,0.008517206749732328,-0.41202000000000005,0.14715,9.80019
4752525205,22.41,0.1555262896452147,0.20666443672864854,0.006387905062299246,-1.80504,0.6180300000000001,10.36917
4757575710,22.41,0.04794419455228423,0.04366813788489812,0.0,-2.31516,0.60822,9.70209
4762626215,22.41,-0.07670722062515077,-0.12356931104119852,-0.003193952531149623,-1.5303600000000002,0.1962,9.45684
4767676720,22.41,-0.15765559133264778,-0.25672047967584594,-0.005323254218582705,-0.6867000000000001,-0.95157,10.01601
4772727225,22.41,-0.16191419470751395,-0.27270769562411395,-0.005323254218582705,1.1772,-1.43226,9.82962
4777777730,22.41,0.04366813788489812,-0.04153883619746504,-0.001064650843716541,1.49112,0.039240000000000004,9.68247
4782828235,22.41,0.039409534510031964,0.15446163880149816,0.005323254218582705,1.01043,-0.60822,9.191970000000001
4787878740,22.41,0.10653489754173388,0.2354274628015151,0.004258603374866164,-0.2943,0.32373,9.633420000000001
4792929245,22.41,0.07456046564519776,0.13955652698946658,0.003193952531149623,-1.45188,0.009810000000000001,10.13373
4797979750,22.41,0.03728023282259888,0.02769837522915001,0.0,-1.5499800000000001,0.13734000000000002,9.79038
4803030255,22.41,-0.023439771854283843,-0.03089232776029963,0.001064650843716541,-1.5794100000000002,0.039240000000000004,9.760950000000001
4808080760,22.41,-0.06497860805174888,-0.12995721610349775,0.0,-1.13796,0.0,9.81
4813131265,22.41,-0.11079350091660004,-0.21944024685324706,-0.004258603374866164,-0.02943,-0.90252,9.91791
4818181770,22.41,-0.1288925652597812,-0.20772908757236508,-0.006387905062299246,1.8639000000000001,-1.0791000000000002,9.95715
4823232275,22.41,0.03728023282259888,0.01064650843716541,0.001064650843716541,1.83447,-0.7749900000000001,9.937529999999999
4828282780,22.41,0.03834488366631542,0.2205048976969636,0.008517206749732328,0.59841,-0.46107000000000004,9.43722
4833333285,22.41,0.1480737337391989,0.24075071702009782,0.007452555906015787,-1.1477700000000002,0.69651,9.770760000000001
4838383790,22.41,0.0852244273748831,0.09054768159346581,0.001064650843716541,-1.71675,0.23544,9.92772
4843434295,22.41,-0.02663372438543347,-0.028763026072866547,-0.003193952531149623,-1.3635900000000003,0.14715,9.73152
4848484800,22.41,-0.09161233243718235,-0.11505210429146619,-0.001064650843716541,-1.2360600000000002,-0.49050000000000005,9.95715
4853535305,22.41,-0.10653489754173388,-0.18961256993666398,-0.005323254218582705,-0.57879,-0.3924,9.819809999999999
4858585810,22.41,-0.06497860805174888,-0.16404349639494703,-0.003193952531149623,0.7848,-0.9319500000000001,9.80019
4863636315,22.41,-0.014905111812031574,-0.03728023282259888,0.0,1.51074,-0.32373,9.74133
4868686820,22.41,0.03728023282259888,0.09587093581204853,0.004258603374866164,0.7749900000000001,-0.6670800000000001,9.87867
4873737325,22.41,0.07777187146886733,0.15978489302008084,0.003193952531149623,0.20601000000000003,-0.21582,9.633420000000001
4878787830,22.41,0.09374163412461543,0.18748326824923087,0.006387905062299246,-1.06929,0.0981,10.05525
4883838335,22.41,0.06284930636431581,0.10119419003063122,0.003193952531149623,-1.7658,0.22563,9.97677
4888888840,22.41,0.013840460968315033,-0.014905111812031574,0.001064650843716541,-1.7658,0.52974,9.73152
4893939345,22.41,-0.08415977653116657,-0.15872024217636432,-0.003193952531149623,-1.0791000000000002,-0.009810000000000001,9.79038
4898989850,22.41,-0.1555262896452147,-0.24713862208239704,-0.003193952531149623,0.009810000000000001,-1.8933300000000002,9.92772
4904040355,22.41,-0.09480628496833199,-0.13421581947836395,-0.007452555906015787,1.8246600000000002,-0.56898,10.300500000000001
4909090860,22.41,0.06923721142661506,0.0756251164889143,0.0,1.72656,-1.15758,10.212209999999999
4914141365,22.41,0.07349581480148122,0.26312583803066514,0.008517206749732328,0.02943,0.10791,9.43722
4919191870,22.41,0.13634512116579703,0.2130523417909478,0.005323254218582705,-1.5696,0.6768900000000001,10.212209999999999
4924242375,22.41,0.04581489286485115,0.022375121010567305,0.003193952531149623,-1.9718100000000003,0.52974,9.81
4929292880,22.41,-0.05113814708343386,-0.09800023749948161,-0.006387905062299246,-1.02024,-0.23544,9.60399
4934343385,22.41,-0.11931070766633237,-0.12037535851004891,0.0,-0.7651800000000001,-0.79461,9.97677
4939393890,22.41,-0.07883652231258387,-0.13102186694721432,-0.003193952531149623,-0.15696000000000002,-0.72594,9.86886
4944444395,22.41,0.0,-0.06178465552059926,-0.001064650843716541,0.44145,-0.15696000000000002,9.78057
4949494900,22.41,0.013840460968315033,0.0170518667919846,0.0,0.60822,-0.24525000000000002,9.78057
4954545405,22.41,0.001064650843716541,0.039409534510031964,0.0,0.40221,-0.36297,9.82962
4959595910,22.41,0.01918116847941768,0.04794419455228423,0.003193952531149623,0.07848000000000001,-0.41202000000000005,9.89829
4964646415,22.41,0.02769837522915001,0.07136651311404815,0.003193952531149623,-0.25506,-0.38259000000000004,9.888480000000001
4969696920,22.41,0.05220279792715039,0.09800023749948161,0.003193952531149623,-0.75537,0.0,9.82962
4974747425,22.41,0.04366813788489812,0.06817256058289851,0.001064650843716541,-1.2556800000000001,0.0981,9.85905
4979797930,22.41,-0.003193952531149623,0.002129301687433082,0.0,-1.50093,0.21582,9.86886
4984848435,22.41,-0.05220279792715039,-0.1171814059788993,0.0,-0.9221400000000001,0.18639,9.85905
4989898940,22.41,-0.10653489754173388,-0.2151816434783809,-0.004258603374866164,0.11772,-1.00062,9.819809999999999
4994949445,22.41,-0.13421581947836395,-0.18109536318693162,-0.006387905062299246,2.02086,-1.2360600000000002,9.87867
4999999950,22.41,0.04581489286485115,0.049008845396000776,-0.001064650843716541,1.51074,-0.9221400000000001,10.01601
5005050455,22.41,0.07030186227033158,0.24075071702009782,0.007452555906015787,0.50031,-0.06867000000000001,9.65304
5010100960,22.41,0.17151350559348277,0.2599318854995155,0.006387905062299246,-1.29492,0.74556,10.01601
5015151465,22.41,0.02769837522915001,0.08841837990603273,0.0,-2.3544,0.33354000000000006,9.79038
5020201970,22.41,-0.044732788728614664,-0.09587093581204853,0.0,-1.6775100000000003,0.31392000000000003,9.70209
5025252475,22.41,-0.13102186694721432,-0.2396860661763813,-0.006387905062299246,-0.6867000000000001,-0.5493600000000001,10.1043
5030302980,22.41,-0.1555262896452147,-0.25459117798841285,-0.005323254218582705,0.72594,-1.6186500000000001,9.78057
5035353485,22.41,0.008517206749732328,-0.004258603374866164,-0.001064650843716541,1.65789,-0.15696000000000002,9.496080000000001
5040403990,22.41,0.07670722062515077,0.17683675981206545,0.00958185759344887,0.57879,-0.6278400000000001,9.67266
5045454495,22.41,0.1352804703220805,0.26951374309296433,0.008517206749732328,-0.64746,0.63765,9.53532
5050505000,22.41,0.08096582400001695,0.13102186694721432,0.003193952531149623,-1.80504,0.47088,9.96696
5055555505,22.41,-0.024504422698000388,-0.07030186227033158,-0.003193952531149623,-1.3243500000000001,0.25506,9.65304
5060606010,22.41,-0.10438814256178083,-0.177901410655782,-0.003193952531149623,-0.5395500000000001,-0.6180300000000001,10.01601
5065656515,22.41,-0.12037535851004891,-0.14700908289548237,-0.003193952531149623,-0.07848000000000001,-1.2360600000000002,9.98658
5070707020,22.41,-0.046879543708567686,-0.06817256058289851,0.0,0.72594,-0.56898,9.95715
5075757525,22.41,0.054332099614583476,0.03834488366631542,0.0,0.5395500000000001,-0.26487,9.908100000000001
5080808030,22.41,0.07349581480148122,0.12037535851004891,0.005323254218582705,0.05886,0.019620000000000002,9.60399
5085858535,22.41,0.04794419455228423,0.11185815176031658,0.005323254218582705,-0.69651,0.1962,9.78057
5090909040,22.41,0.012775810124598492,0.013840460968315033,0.003193952531149623,-0.9908100000000001,0.13734000000000002,9.84924
5095959545,22.41,-0.046879543708567686,-0.09587093581204853,-0.001064650843716541,-0.41202000000000005,-0.25506,9.81
5101010050,22.41,-0.07243116395776468,-0.10225884087434776,-0.002129301687433082,0.0,-0.8829,9.83943
5106060555,22.41,-0.04153883619746504,-0.024504422698000388,0.0,0.11772,-0.80442,9.888480000000001
5111111060,22.41,0.05220279792715039,0.06391395720803235,0.002129301687433082,-0.12753,-0.1962,9.85905
5116161565,22.41,0.07349581480148122,0.09693558665576507,0.003193952531149623,-0.47088,0.16677000000000003,9.82962
5121212070,22.41,0.04260348704118158,0.06284930636431581,0.004258603374866164,-0.85347,0.25506,9.819809999999999
5126262575,22.41,-0.02769837522915001,-0.03408628029144926,-0.001064650843716541,-0.87309,-0.04905,9.751140000000001
5131313080,22.41,-0.07456046564519776,-0.11398745344774965,-0.003193952531149623,-0.31392000000000003,-0.37278,9.760950000000001
5136363585,22.41,-0.08203047484373349,-0.1288925652597812,-0.002129301687433082,0.26487,-1.08891,9.82962
5141414090,22.41,-0.03408628029144926,-0.03834488366631542,-0.001064650843716541,0.8829,-0.5395500000000001,10.01601
5146464595,22.41,0.04794419455228423,0.0852244273748831,0.0,0.43164,-0.69651,10.025820000000001
5151515100,22.41,0.08841837990603273,0.17896606149949854,0.008517206749732328,-0.50031,0.24525000000000002,9.60399
5156565605,22.41,0.08309512568745003,0.12569861272863161,0.005323254218582705,-1.42245,0.38259000000000004,9.81
5161616110,22.41,0.004258603374866164,-0.01811651763570114,0.0,-1.45188,0.33354000000000006,9.81
5166666615,22.41,-0.07777187146886733,-0.13421581947836395,0.0,-0.60822,-0.1962,9.78057
5171717120,22.41,-0.12463396188491506,-0.16510814723866357,-0.007452555906015787,-0.13734000000000002,-1.21644,9.937529999999999
5176767625,22.41,-0.08415977653116657,-0.12569861272863161,-0.003193952531149623,1.01043,-0.6768900000000001,9.91791
5181818130,22.41,0.04794419455228423,0.011711159280881954,0.001064650843716541,0.89271,-0.7651800000000001,9.92772
5186868635,22.41,0.06284930636431581,0.177901410655782,0.008517206749732328,0.21582,-0.02943,9.5157
5191919140,22.41,0.09480628496833199,0.1757721089683489,0.004258603374866164,-1.02024,0.17658,10.143540000000002
5196969645,22.41,0.04581489286485115,0.054332099614583476,0.0,-1.44207,0.6180300000000001,9.78057
5202020150,22.41,-0.03515093113516579,-0.09906488834319814,-0.003193952531149623,-0.85347,-0.019620000000000002,9.55494
5207070655,22.41,-0.11292280260403312,-0.14913838458291545,-0.002129301687433082,-0.24525000000000002,-0.71613,9.888480000000001
5212121160,22.41,-0.09587093581204853,-0.12995721610349775,-0.003193952531149623,0.2943,-1.10853,9.937529999999999
5217171665,22.41,0.01811651763570114,-0.001064650843716541,-0.004258603374866164,0.8142300000000001,-0.63765,9.69228
5222222170,22.41,0.07136651311404815,0.13634512116579703,0.005323254218582705,0.32373,-0.13734000000000002,9.908100000000001
5227272675,22.41,0.08628907821859966,0.16084954386379738,0.003193952531149623,-0.52974,0.04905,10.06506
5232323180,22.41,0.05646140130201656,0.09906488834319814,0.003193952531149623,-1.3635900000000003,0.33354000000000006,9.73152
5237373685,22.41,-0.005323254218582705,-0.03621558197888234,-0.002129301687433082,-1.29492,0.0981,9.633420000000001
5242424190,22.41,-0.0756251164889143,-0.1278279144160647,-0.004258603374866164,-0.60822,-0.18639,9.74133
5247474695,22.41,-0.10438814256178083,-0.17683675981206545,-0.005323254218582705,0.13734000000000002,-1.29492,9.81
5252525200,22.41,-0.07243116395776468,-0.09161233243718235,-0.003193952531149623,1.2753,-0.5591700000000001,10.025820000000001
5257575705,22.41,0.05007349623971732,0.044732788728614664,0.002129301687433082,0.89271,-0.73575,10.06506
5262626210,22.41,0.05539675045830002,0.13955652698946658,0.001064650843716541,0.15696000000000002,-0.13734000000000002,9.59418
5267676715,22.41,0.09800023749948161,0.16510814723866357,0.006387905062299246,-0.7749900000000001,0.02943,10.11411
5272727220,22.41,0.03834488366631542,0.08415977653116657,0.003193952531149623,-1.3832099999999998,0.1962,9.97677
5277777725,22.41,-0.005323254218582705,-0.020245819323134222,-0.001064650843716541,-1.29492,0.30411,9.633420000000001
5282828230,22.41,-0.06497860805174888,-0.12676326357234816,-0.002129301687433082,-0.7651800000000001,-0.34335000000000004,9.79038
5287878735,22.41,-0.09480628496833199,-0.14487978120804929,-0.003193952531149623,0.0,-0.6670800000000001,9.70209
5292929240,22.41,-0.06817256058289851,-0.09906488834319814,-0.001064650843716541,0.45126,-0.75537,9.84924
5297979745,22.41,0.015987215948268057,0.0,0.0,0.85347,-0.5493600000000001,9.64323
5303030250,22.41,0.046879543708567686,0.11398745344774965,0.003193952531149623,0.3924,-0.35316,9.79038
5308080755,22.41,0.06817256058289851,0.15126768627034853,0.006387905062299246,-0.43164,-0.0981,10.09449
5313131260,22.41,0.06604325889546543,0.09054768159346581,0.004258603374866164,-1.1772,0.35316,9.86886
5318181765,22.41,0.01064650843716541,0.0,0.0,-1.1772,-0.009810000000000001,9.84924
5323232270,22.41,-0.046879543708567686,-0.05752605214573309,-0.002129301687433082,-0.8240400000000001,-0.26487,9.84924
5328282775,22.41,-0.07136651311404815,-0.09693558665576507,-0.001064650843716541,-0.5591700000000001,-0.49050000000000005,9.99639
5333333280,22.41,-0.04366813788489812,-0.1171814059788993,0.0,0.17658,-0.33354000000000006,9.78057
5338383785,22.41,-0.033021629447732716,-0.05220279792715039,-0.001064650843716541,0.65727,-0.69651,9.74133
5343434290,22.41,0.002129301687433082,0.04366813788489812,0.002129301687433082,0.44145,-0.60822,9.770760000000001
5348484795,22.41,0.054332099614583476,0.09693558665576507,0.0,-0.02943,-0.18639,9.87867
5353535300,22.41,0.08309512568745003,0.10759954838545042,0.0,-0.48069000000000006,0.28449,9.83943
5358585805,22.41,0.031956978604016174,0.060720004676882725,0.001064650843716541,-0.84366,-0.039240000000000004,9.80019
5363636310,22.41,-0.022375121010567305,-0.013840460968315033,0.002129301687433082,-0.9711900000000001,-0.2943,9.84924
5368686815,22.41,-0.031956978604016174,-0.06497860805174888,0.0,-0.70632,-0.36297,9.92772
5373737320,22.41,-0.03408628029144926,-0.07670722062515077,-0.002129301687433082,-0.28449,-0.34335000000000004,9.83943
5378787825,22.41,-0.02556907354171693,-0.049008845396000776,0.001064650843716541,0.039240000000000004,-0.38259000000000004,9.760950000000001
5383838330,22.41,-0.013840460968315033,-0.0170518667919846,0.001064650843716541,0.20601000000000003,-0.46107000000000004,9.85905
5388888835,22.41,0.00958185759344887,0.022375121010567305,0.0,0.0981,-0.33354000000000006,9.81
5393939340,22.41,0.022375121010567305,0.04153883619746504,0.001064650843716541,-0.0981,-0.20601000000000003,9.80019
5398989845,22.41,0.028763026072866547,0.04581489286485115,0.001064650843716541,-0.30411,-0.17658,9.760950000000001
5404040350,22.41,0.012775810124598492,0.03621558197888234,0.0,-0.5395500000000001,-0.24525000000000002,9.86886
5409090855,22.41,0.002129301687433082,0.011711159280881954,0.0,-0.75537,-0.05886,9.89829
5414141360,22.41,-0.013840460968315033,-0.04260348704118158,-0.001064650843716541,-0.57879,-0.07848000000000001,9.82962
5419191865,22.41,-0.03834488366631542,-0.06391395720803235,-0.004258603374866164,-0.07848000000000001,-0.46107000000000004,9.79038
5424242370,22.41,-0.04366813788489812,-0.024504422698000388,-0.002129301687433082,0.02943,-0.7848,9.89829
5429292875,22.41,0.003193952531149623,0.021310470166850764,-0.001064650843716541,-0.13734000000000002,-0.28449,9.888480000000001
5434343380,22.41,0.05007349623971732,0.03621558197888234,-0.001064650843716541,-0.21582,0.0981,9.74133
5439393885,22.41,0.020245819323134222,0.028763026072866547,0.0,-0.23544,-0.11772,9.68247
5444444390,22.41,-0.01811651763570114,0.011711159280881954,0.002129301687433082,-0.51012,-0.45126,9.83943
5449494895,22.41,-0.015987215948268057,-0.013840460968315033,0.0,-0.5591700000000001,-0.31392000000000003,9.937529999999999
5454545400,22.41,0.007452555906015787,-0.01918116847941768,-0.001064650843716541,-0.37278,-0.08829,9.82962
5459595905,22.41,-0.008517206749732328,-0.014905111812031574,0.001064650843716541,-0.23544,-0.32373,9.78057
5464646410,22.41,-0.020245819323134222,-0.020245819323134222,-0.001064650843716541,-0.21582,-0.40221,9.86886
5469696915,22.41,-0.011711159280881954,-0.014905111812031574,-0.006387905062299246,-0.04905,-0.38259000000000004,9.94734
5474747420,22.41,0.014905111812031574,0.02556907354171693,0.004258603374866164,-0.08829,-0.33354000000000006,9.83943
5479797925,22.41,0.01918116847941768,0.04794419455228423,0.003193952531149623,-0.46107000000000004,-0.07848000000000001,9.760950000000001
5484848430,22.41,0.015987215948268057,0.002129301687433082,0.0,-0.51993,0.23544,9.80019
5489898935,22.41,-0.01918116847941768,-0.06923721142661506,0.001064650843716541,-0.20601000000000003,-0.15696000000000002,9.78057
5494949440,22.41,-0.07883652231258387,-0.08735372906231618,-0.001064650843716541,0.34335000000000004,-0.79461,9.80019
5499999945,22.41,-0.039409534510031964,-0.02556907354171693,0.001064650843716541,0.41202000000000005,-0.8829,9.92772
5505050450,22.41,0.03515093113516579,0.06710790973918197,0.0,0.10791,-0.5886,9.888480000000001
5510100955,22.41,0.11505210429146619,0.15233233711406508,0.004258603374866164,-0.5395500000000001,0.31392000000000003,9.69228
5515151460,22.41,0.08203047484373349,0.1288925652597812,0.006387905062299246,-1.24587,0.15696000000000002,9.89829
5520201965,22.41,0.0,0.014905111812031574,0.0,-1.6284600000000002,0.22563,9.87867
5525252470,22.41,-0.06923721142661506,-0.12463396188491506,-0.003193952531149623,-1.05948,-0.06867000000000001,9.89829
5530302975,22.41,-0.12356931104119852,-0.20453513504121545,-0.004258603374866164,-0.08829,-0.8829,9.92772
5535353480,22.41,-0.11824605682261582,-0.18535396656179778,-0.007452555906015787,1.3635900000000003,-1.1281500000000002,9.72171
5540403985,22.41,0.03621558197888234,-0.013840460968315033,0.0,1.51074,-0.46107000000000004,9.751140000000001
5545454490,22.41,0.046879543708567686,0.17257815643719931,0.00958185759344887,0.72594,-0.50031,9.50589
5550504995,22.41,0.12037535851004891,0.23755676448894822,0.00958185759344887,-0.89271,0.24525000000000002,9.908100000000001
5555555500,22.41,0.09161233243718235,0.12356931104119852,0.005323254218582705,-1.90314,0.5886,9.84924
5560606005,22.41,-0.002129301687433082,-0.03089232776029963,-0.001064650843716541,-1.4813100000000001,0.37278,9.66285
5565656510,22.41,-0.08203047484373349,-0.150203035426632,-0.004258603374866164,-1.00062,-0.23544,9.81
5570707015,22.41,-0.1374272253020335,-0.2130523417909478,-0.004258603374866164,-0.23544,-1.46169,9.888480000000001
5575757520,22.41,-0.08841837990603273,-0.15339698795778162,-0.002129301687433082,1.6382700000000001,-0.6670800000000001,10.143540000000002
5580808025,22.41,0.05859070298944965,0.022375121010567305,0.002129301687433082,1.55979,-0.75537,10.06506
5585858530,22.41,0.04153883619746504,0.18428931571808121,0.005323254218582705,0.6670800000000001,-0.33354000000000006,9.53532
5590909035,22.41,0.12144000935376545,0.22476350107182977,0.005323254218582705,-0.94176,0.0981,9.97677
5595959540,22.41,0.07777187146886733,0.11505210429146619,0.002129301687433082,-1.78542,0.47088,9.751140000000001
5601010045,22.41,0.002129301687433082,-0.02556907354171693,0.0,-1.4813100000000001,0.35316,9.66285
5606060550,22.41,-0.07456046564519776,-0.1352804703220805,-0.002129301687433082,-1.01043,-0.22563,9.89829
5611111055,22.41,-0.12250466019748199,-0.1800307123432151,-0.002129301687433082,-0.21582,-0.9123300000000001,9.937529999999999
5616161560,22.41,-0.0852244273748831,-0.1480737337391989,-0.004258603374866164,0.69651,-0.80442,9.82962
5621212065,22.41,0.02982767691658309,-0.022375121010567305,-0.002129301687433082,1.03986,-0.38259000000000004,9.79038
5626262570,22.41,0.039409534510031964,0.11292280260403312,0.006387905062299246,0.90252,-0.43164,9.52551
5631313075,22.41,0.08415977653116657,0.18641861740551433,0.006387905062299246,-0.3924,-0.20601000000000003,9.92772
5636363580,22.41,0.07990117315630041,0.1352804703220805,0.003193952531149623,-1.42245,0.5395500000000001,9.89829
5641414085,22.41,0.023439771854283843,-0.006387905062299246,0.0,-1.5303600000000002,0.31392000000000003,9.87867
5646464590,22.41,-0.05646140130201656,-0.10225884087434776,-0.001064650843716541,-0.8338500000000001,-0.10791,9.7119
5651515095,22.41,-0.11079350091660004,-0.15126768627034853,-0.007452555906015787,-0.35316,-0.8829,9.95715
5656565600,22.41,-0.08415977653116657,-0.13955652698946658,-0.002129301687433082,0.3924,-0.7848,9.84924
5661616105,22.41,0.02556907354171693,-0.015987215948268057,-0.001064650843716541,0.9711900000000001,-0.36297,9.67266
5666666610,22.41,0.024504422698000388,0.08415977653116657,0.003193952531149623,0.6670800000000001,-0.57879,9.7119
5671717115,22.41,0.07777187146886733,0.16404349639494703,0.005323254218582705,-0.22563,-0.16677000000000003,9.96696
5676767620,22.41,0.08203047484373349,0.1278279144160647,0.004258603374866164,-1.1477700000000002,0.25506,9.937529999999999
5681818125,22.41,0.044732788728614664,0.05326744877086694,0.0,-1.52055,0.41202000000000005,9.80019
5686868630,22.41,-0.02769837522915001,-0.07243116395776468,0.0,-1.1772,-0.019620000000000002,9.74133
5691919135,22.41,-0.09267698328089889,-0.15446163880149816,-0.003193952531149623,-0.57879,-0.41202000000000005,9.770760000000001
5696969640,22.41,-0.10653489754173388,-0.16510814723866357,-0.002129301687433082,0.30411,-1.3243500000000001,9.85905
5702020145,22.41,-0.021310470166850764,-0.07456046564519776,-0.002129301687433082,0.86328,-0.28449,9.937529999999999
5707070650,22.41,0.03515093113516579,0.05646140130201656,0.0,1.04967,-0.79461,10.05525
5712121155,22.41,0.06710790973918197,0.16191419470751395,0.004258603374866164,0.22563,-0.35316,9.72171
5717171660,22.41,0.09267698328089889,0.18961256993666398,0.005323254218582705,-1.1183400000000001,0.0,10.143540000000002
5722222165,22.41,0.07777187146886733,0.09374163412461543,0.001064650843716541,-1.65789,0.56898,9.92772
5727272670,22.41,-0.004258603374866164,-0.024504422698000388,-0.001064650843716541,-1.50093,0.23544,9.65304
5732323175,22.41,-0.08841837990603273,-0.1331511686346474,-0.004258603374866164,-0.95157,-0.25506,9.770760000000001
5737373680,22.41,-0.11292280260403312,-0.18535396656179778,-0.002129301687433082,-0.2943,-0.9123300000000001,9.86886
5742424185,22.41,-0.09587093581204853,-0.18109536318693162,-0.006387905062299246,1.2360600000000002,-0.79461,9.81
5747474690,22.41,0.03408628029144926,-0.023439771854283843,-0.002129301687433082,1.40283,-0.28449,9.770760000000001
5752525195,22.41,0.020245819323134222,0.11931070766633237,0.006387905062299246,0.80442,-0.75537,9.45684
5757575700,22.41,0.09267698328089889,0.20347048419749894,0.006387905062299246,-0.37278,-0.019620000000000002,9.81
5762626205,22.41,0.10653489754173388,0.1629788455512305,0.006387905062299246,-1.44207,0.17658,10.163160000000001
5767676710,22.41,0.04366813788489812,0.05326744877086694,-0.001064650843716541,-1.7756100000000001,0.37278,9.84924
5772727215,22.41,-0.03515093113516579,-0.06391395720803235,-0.001064650843716541,-1.55979,0.07848000000000001,9.58437
5777777720,22.41,-0.10012953918691468,-0.1800307123432151,-0.006387905062299246,-0.8338500000000001,-0.26487,9.85905
5782828225,22.41,-0.1171814059788993,-0.22903955773921586,-0.004258603374866164,0.36297,-1.5794100000000002,9.908100000000001
5787878730,22.41,-0.054332099614583476,-0.12356931104119852,-0.001064650843716541,1.3537800000000002,-0.45126,9.99639
5792929235,22.41,0.05539675045830002,0.07990117315630041,0.001064650843716541,1.4813100000000001,-0.8142300000000001,10.15335
5797979740,22.41,0.05752605214573309,0.20985838925979816,0.004258603374866164,0.5395500000000001,-0.34335000000000004,9.69228
5803030245,22.41,0.13421581947836395,0.24394466955124744,0.01064650843716541,-1.20663,0.2943,10.074869999999999
5808080750,22.41,0.08415977653116657,0.12356931104119852,0.002129301687433082,-2.14839,0.36297,9.79038
5813131255,22.41,0.0,-0.02769837522915001,0.002129301687433082,-1.8639000000000001,0.5591700000000001,9.54513
5818181760,22.41,-0.07883652231258387,-0.16617279808238014,-0.003193952531149623,-1.26549,0.019620000000000002,9.83943
5823232265,22.41,-0.16191419470751395,-0.26738444140553125,-0.008517206749732328,-0.08829,-1.95219,9.92772
5828282770,22.41,-0.09480628496833199,-0.14700908289548237,-0.006387905062299246,1.70694,-0.5395500000000001,10.19259
5833333275,22.41,0.06710790973918197,0.06284930636431581,0.0,1.88352,-0.8829,10.33974
