#timestamp [ns], temperature [degC], w_RS_S_x [rad s^-1], w_RS_S_y [rad s^-1], w_RS_S_z [rad s^-1], a_RS_S_x [m s^-2], a_RS_S_y [m s^-2], a_RS_S_z [m s^-2]
0.0,21.97,0.0,0.0,0.0,0.05886,0.34335,9.88848
5000000.0,21.97,0.0,0.0,0.0,0.05886,0.34335,9.87876809990288
10000000.0,21.97,0.0,0.0,0.0,0.049246199805762,0.30489479922304796,9.888283800194237
15000000.0,21.97,0.0,0.0,0.0,0.04905,0.332657100874071,9.88848
20000000.0,21.97,0.0,0.0,0.0,0.05846760038847601,0.305287198834572,9.88848
25000000.0,21.97,0.0,0.0,0.0,0.068179500485595,0.332068501456785,9.88848
30000000.0,21.97,0.0,0.0,0.0,0.059448599417285995,0.296654397669144,9.897701400582713
35000000.0,21.97,0.0,0.0,0.0,0.05886,0.321669902039499,9.89829
40000000.0,21.97,0.0,0.0,0.0,0.07691040155390401,0.350805602330856,9.880239598446096
45000000.0,21.97,0.0,0.0,0.0,0.06955289912592899,0.32637869737778696,9.896524201748141
50000000.0,21.97,0.0,0.0,0.0,0.06867,0.34138800194238,9.88063199805762
55000000.0,21.97,0.0,0.0,0.0,0.08613180213661802,0.34335,9.861208197863382
60000000.0,21.97,0.0,0.0,0.0,0.062391596503715965,0.334717198834572,9.884948403496283
65000000.0,21.97,0.0,0.0,0.0,0.07592940252509402,0.33354,9.905549402525093
70000000.0,21.97,0.0,0.0,0.0,0.086916601359666,0.350413202719332,9.899663398640334
75000000.0,21.97,0.0,0.0,0.0,0.06327449562964496,0.31980599417285993,9.906628501456785
80000000.0,21.97,0.0,0.0,0.0,0.06710040155390401,0.322160401553904,9.883378795338288
85000000.0,21.97,0.0,0.0,0.0,0.06867,0.315587698348977,9.87867
90000000.0,21.97,0.0,0.0,0.0,0.07671420174814202,0.34609680699256806,9.870625798251858
95000000.0,21.97,0.0,0.0,0.0,0.06258779630947797,0.35316,9.876806101845261
100000000.0,21.97,0.0,0.0,0.0,0.08240400582714005,0.34531199805762,9.894366003884759
105000000.0,21.97,0.0,0.0,0.0,0.07279019592100196,0.3201002938815029,9.89829
110000000.0,21.97,0.0,0.0,0.0,0.05336639572676396,0.32922360427323605,9.890638197863382
115000000.0,21.97,0.0,0.0,0.0,0.06415740446747405,0.33354,9.903587404467473
120000000.0,21.97,0.0,0.0,0.0,0.07612560233085602,0.34845120466171203,9.87082198834572
125000000.0,21.97,0.0,0.0,0.0,0.07112249757202498,0.33108749271607496,9.881122507283925
130000000.0,21.97,0.0,0.0,0.0,0.05415119494981195,0.32373,9.88848
135000000.0,21.97,0.0,0.0,0.0,0.05621130262221303,0.32373,9.881318697377786
140000000.0,21.97,0.0,0.0,0.0,0.06592320271933202,0.32373,9.899859608157996
145000000.0,21.97,0.0,0.0,0.0,0.07563510281645103,0.32373,9.9081
150000000.0,21.97,0.0,0.0,0.0,0.06474599417285994,0.30999599417285995,9.90123299708643
155000000.0,21.97,0.0,0.0,0.0,0.05209109698931097,0.3244167090320671,9.89829
160000000.0,21.97,0.0,0.0,0.0,0.05572080310780803,0.34688160621561603,9.878277590676575
165000000.0,21.97,0.0,0.0,0.0,0.05886,0.3400145935901459,9.875432703204927
170000000.0,21.97,0.0,0.0,0.0,0.06533460330204603,0.3205907933959079,9.859246190093861
175000000.0,21.97,0.0,0.0,0.0,0.07504650339916503,0.33304951019749507,9.87474601359666
180000000.0,21.97,0.0,0.0,0.0,0.07848,0.349628403496284,9.894758403496283
185000000.0,21.97,0.0,0.0,0.0,0.059939089219790895,0.34079939281319394,9.892109696406596
190000000.0,21.97,0.0,0.0,0.0,0.0672966110715661,0.33962220369052204,9.906726611071566
195000000.0,21.97,0.0,0.0,0.0,0.07249589621235895,0.32539768863707685,9.911925896212358
200000000.0,21.97,0.0,0.0,0.0,0.06867,0.31392,9.90221399611524
205000000.0,21.97,0.0,0.0,0.0,0.07445790398187903,0.31970790398187904,9.875138384072484
210000000.0,21.97,0.0,0.0,0.0,0.07279019592100196,0.32373,9.870429608157997
215000000.0,21.97,0.0,0.0,0.0,0.057486591647765914,0.3349134083522341,9.87867
220000000.0,21.97,0.0,0.0,0.0,0.05454360427323605,0.3543372085464721,9.87867
225000000.0,21.97,0.0,0.0,0.0,0.06425550437035504,0.3467834868889349,9.87867
230000000.0,21.97,0.0,0.0,0.0,0.06867,0.328242595532526,9.87867
235000000.0,21.97,0.0,0.0,0.0,0.06867,0.33412860912918607,9.889068609129186
240000000.0,21.97,0.0,0.0,0.0,0.06867,0.34335,9.90339120466171
245000000.0,21.97,0.0,0.0,0.0,0.058663790482337906,0.34335,9.883084476205845
250000000.0,21.97,0.0,0.0,0.0,0.06376501456785015,0.34825500485595,9.8688600097119
255000000.0,21.97,0.0,0.0,0.0,0.08328690495306905,0.3435461900938619,9.87867
260000000.0,21.97,0.0,0.0,0.0,0.06474597474905974,0.32883119494981194,9.87867
265000000.0,21.97,0.0,0.0,0.0,0.04385070514730705,0.32834070514730707,9.87867
270000000.0,21.97,0.0,0.0,0.0,0.053562605244426055,0.33805260524442604,9.90123302622213
275000000.0,21.97,0.0,0.0,0.0,0.05886,0.32569197863381977,9.91889098931691
280000000.0,21.97,0.0,0.0,0.0,0.06749281087732811,0.31705921631599215,9.89946718912267
285000000.0,21.97,0.0,0.0,0.0,0.07848,0.3461949166073492,9.87582508339265
290000000.0,21.97,0.0,0.0,0.0,0.08260020563290205,0.3464891774683918,9.871410616898705
295000000.0,21.97,0.0,0.0,0.0,0.07622368280993683,0.32373,9.88848
300000000.0,21.97,0.0,0.0,0.0,0.05886,0.3158819883457199,9.89632801165428
305000000.0,21.97,0.0,0.0,0.0,0.051208188151481884,0.31558771777277717,9.911925905924258
310000000.0,21.97,0.0,0.0,0.0,0.046695612042756116,0.32981219397862194,9.906726581935866
315000000.0,21.97,0.0,0.0,0.0,0.05886,0.3164705877630059,9.89936911835549
320000000.0,21.97,0.0,0.0,0.0,0.05179678756876788,0.31117321243123214,9.907315181353152
325000000.0,21.97,0.0,0.0,0.0,0.05297402525094025,0.32373,9.898780518938205
330000000.0,21.97,0.0,0.0,0.0,0.07848,0.3337362192295622,9.907903780770438
335000000.0,21.97,0.0,0.0,0.0,0.07848,0.3499226934930269,9.894954613013946
340000000.0,21.97,0.0,0.0,0.0,0.07848,0.34021079339590793,9.898682380187724
345000000.0,21.97,0.0,0.0,0.0,0.07239778659757787,0.32745778659757785,9.884752213402422
350000000.0,21.97,0.0,0.0,0.0,0.055916993201669936,0.3198060135966601,9.89534699320167
355000000.0,21.97,0.0,0.0,0.0,0.051894906895449074,0.3392298137908981,9.897014720686347
360000000.0,21.97,0.0,0.0,0.0,0.06160680699256807,0.3476663860148638,9.906922772029727
365000000.0,21.97,0.0,0.0,0.0,0.06867,0.33883741417937413,9.87867
370000000.0,21.97,0.0,0.0,0.0,0.07122060718680606,0.35316,9.881220607186807
375000000.0,21.97,0.0,0.0,0.0,0.07357498543214985,0.34825498543214983,9.886027492716075
380000000.0,21.97,0.0,0.0,0.0,0.06121440738104408,0.33354,9.881024407381044
385000000.0,21.97,0.0,0.0,0.0,0.06415738504367385,0.3312836925218369,9.892992614956325
390000000.0,21.97,0.0,0.0,0.0,0.05336641515056415,0.32373,9.9081
395000000.0,21.97,0.0,0.0,0.0,0.07279021534480215,0.31960978465519785,9.906039892327598
400000000.0,21.97,0.0,0.0,0.0,0.07847996115239961,0.3119580310780803,9.90025200776952
405000000.0,21.97,0.0,0.0,0.0,0.04483172359991723,0.33962218426672186,9.902508276400082
410000000.0,21.97,0.0,0.0,0.0,0.06513838407248383,0.3272616159275162,9.87867
415000000.0,21.97,0.0,0.0,0.0,0.054053124182631244,0.34668541612175413,9.877002291939123
420000000.0,21.97,0.0,0.0,0.0,0.08004960815799608,0.3582611755260118,9.873568824473988
425000000.0,21.97,0.0,0.0,0.0,0.08534698348976982,0.3320684917448849,9.89534698348977
430000000.0,21.97,0.0,0.0,0.0,0.06729659164776591,0.32373,9.882790225056702
435000000.0,21.97,0.0,0.0,0.0,0.06141061689870617,0.32373,9.906824691550646
440000000.0,21.97,0.0,0.0,0.0,0.07848,0.32255279145352794,9.895935582907056
445000000.0,21.97,0.0,0.0,0.0,0.07632178271281782,0.3171573259307732,9.87867
450000000.0,21.97,0.0,0.0,0.0,0.057878991259289914,0.3423689912592899,9.87867
455000000.0,21.97,0.0,0.0,0.0,0.04993290883782909,0.33354,9.879552908837828
460000000.0,21.97,0.0,0.0,0.0,0.06121442680484427,0.33354,9.885340764260206
465000000.0,21.97,0.0,0.0,0.0,0.0876032909679329,0.33079316387173163,9.8513001270962
470000000.0,21.97,0.0,0.0,0.0,0.07671417261244172,0.2954772182583722,9.879258609129186
475000000.0,21.97,0.0,0.0,0.0,0.05052152767891528,0.31342949077369486,9.887989490773695
480000000.0,21.97,0.0,0.0,0.0,0.0776951813531518,0.30528722797027225,9.879454818646847
485000000.0,21.97,0.0,0.0,0.0,0.05944861884108619,0.33354,9.89829
490000000.0,21.97,0.0,0.0,0.0,0.0780875809646758,0.33354,9.897897580964676
495000000.0,21.97,0.0,0.0,0.0,0.05915432884434329,0.3338343288443433,9.87876810961478
500000000.0,21.97,0.0,0.0,0.0,0.0882899708642997,0.36296995144049954,9.8884800097119
505000000.0,21.97,0.0,0.0,0.0,0.05915427057294271,0.3144104509549045,9.898191909809018
510000000.0,21.97,0.0,0.0,0.0,0.06847380990613809,0.3716028594368286,9.888676190093861
515000000.0,21.97,0.0,0.0,0.0,0.0877014200065142,0.3347171599869716,9.88848
520000000.0,21.97,0.0,0.0,0.0,0.08829,0.32412238989962394,9.90731522020075
525000000.0,21.97,0.0,0.0,0.0,0.0696509796050098,0.32373,9.9081
530000000.0,21.97,0.0,0.0,0.0,0.06867,0.32373,9.9081
535000000.0,21.97,0.0,0.0,0.0,0.059546689608266895,0.3419766207834662,9.8807300688248
540000000.0,21.97,0.0,0.0,0.0,0.0678852104888521,0.34335,9.869644789511147
545000000.0,21.97,0.0,0.0,0.0,0.0775971105859711,0.3254957788280578,9.86886
550000000.0,21.97,0.0,0.0,0.0,0.06965098931690988,0.31490098931690985,9.88651802136618
555000000.0,21.97,0.0,0.0,0.0,0.06867,0.32265091078020913,9.88848
560000000.0,21.97,0.0,0.0,0.0,0.06867,0.32373,9.879847189122671
565000000.0,21.97,0.0,0.0,0.0,0.06867,0.3493341329233413,9.887204710974446
570000000.0,21.97,0.0,0.0,0.0,0.0771066110715661,0.32785016678530166,9.905353222143132
575000000.0,21.97,0.0,0.0,0.0,0.07014148883131488,0.31539148883131485,9.883084466493944
580000000.0,21.97,0.0,0.0,0.0,0.08515082253160822,0.33864123379741234,9.895150822531608
585000000.0,21.97,0.0,0.0,0.0,0.08014768863707689,0.3514923113629231,9.890147688637077
590000000.0,21.97,0.0,0.0,0.0,0.0865242114600421,0.32902736561987367,9.88848
595000000.0,21.97,0.0,0.0,0.0,0.08034388844283888,0.32373,9.89642611155716
600000000.0,21.97,0.0,0.0,0.0,0.07063198834571988,0.33157801165428014,9.90613801165428
605000000.0,21.97,0.0,0.0,0.0,0.06867,0.31804017649720173,9.9003500882486
610000000.0,21.97,0.0,0.0,0.0,0.0763218118485181,0.3062681881514819,9.89829
615000000.0,21.97,0.0,0.0,0.0,0.07092628805436288,0.3418785597281856,9.890736288054363
620000000.0,21.97,0.0,0.0,0.0,0.06867,0.3606156120427561,9.881024387957243
625000000.0,21.97,0.0,0.0,0.0,0.06131248786012488,0.34089746358037465,9.871312487860125
630000000.0,21.97,0.0,0.0,0.0,0.051600587763005884,0.33354,9.897897648947977
635000000.0,21.97,0.0,0.0,0.0,0.06337262466822624,0.3048947506635475,9.893777375331773
640000000.0,21.97,0.0,0.0,0.0,0.061606787568767876,0.30842642486246424,9.895543212431232
645000000.0,21.97,0.0,0.0,0.0,0.07279022505670224,0.3208851125283511,9.89829
650000000.0,21.97,0.0,0.0,0.0,0.07161298737452987,0.33746402525094027,9.89829
655000000.0,21.97,0.0,0.0,0.0,0.06867,0.32981217455482176,9.891521087277411
660000000.0,21.97,0.0,0.0,0.0,0.06867,0.3437424384591244,9.868467561540875
665000000.0,21.97,0.0,0.0,0.0,0.05552457416634574,0.34001457416634573,9.865622712916826
670000000.0,21.97,0.0,0.0,0.0,0.06847383904183839,0.32706538698605386,9.881809226027892
675000000.0,21.97,0.0,0.0,0.0,0.07210348688893486,0.33010651311106515,9.88848
680000000.0,21.97,0.0,0.0,0.0,0.06239158679181587,0.30842634716726347,9.901036826416368
685000000.0,21.97,0.0,0.0,0.0,0.07122062661060627,0.32520156652651566,9.901919686694697
690000000.0,21.97,0.0,0.0,0.0,0.07239778659757785,0.34335,9.904372213402421
695000000.0,21.97,0.0,0.0,0.0,0.07465411349954112,0.33736588650045884,9.890147659501377
700000000.0,21.97,0.0,0.0,0.0,0.07259398640333986,0.32765398640333987,9.89044202719332
705000000.0,21.97,0.0,0.0,0.0,0.08024582738755827,0.3063662589186626,9.880926258918663
710000000.0,21.97,0.0,0.0,0.0,0.07691037241820371,0.3113694413726944,9.874549813790898
715000000.0,21.97,0.0,0.0,0.0,0.06867,0.32373,9.884261713888018
720000000.0,21.97,0.0,0.0,0.0,0.06317638601486386,0.32373,9.904960841955408
725000000.0,21.97,0.0,0.0,0.0,0.05886,0.32373,9.907118971835489
730000000.0,21.97,0.0,0.0,0.0,0.048265171641251714,0.3131351716412517,9.903587414179373
735000000.0,21.97,0.0,0.0,0.0,0.049638628552986286,0.31970794282947945,9.887302742894027
740000000.0,21.97,0.0,0.0,0.0,0.06396121437361214,0.33354,9.879062428747224
745000000.0,21.97,0.0,0.0,0.0,0.07367311447073113,0.32853688552926885,9.893483114470731
750000000.0,21.97,0.0,0.0,0.0,0.07357498543214985,0.32863501456785016,9.8786699417286
755000000.0,21.97,0.0,0.0,0.0,0.07347691466496914,0.3287330853350309,9.86385691466497
760000000.0,21.97,0.0,0.0,0.0,0.07848,0.3143123704758237,9.882986444286264
765000000.0,21.97,0.0,0.0,0.0,0.0692585702815857,0.31794214457762143,9.893679285140792
770000000.0,21.97,0.0,0.0,0.0,0.06337261495632615,0.33354,9.897505229912651
775000000.0,21.97,0.0,0.0,0.0,0.06425548494655485,0.3247109698931097,9.89927096989311
780000000.0,21.97,0.0,0.0,0.0,0.06317641515056414,0.3225528303011283,9.879847169698872
785000000.0,21.97,0.0,0.0,0.0,0.06867,0.33354,9.877296630495366
790000000.0,21.97,0.0,0.0,0.0,0.08103064603440646,0.3417804306896043,9.896720430689603
795000000.0,21.97,0.0,0.0,0.0,0.09005576911615769,0.3491378845580788,9.900055769116157
800000000.0,21.97,0.0,0.0,0.0,0.07848,0.34727401553904014,9.88455598446096
805000000.0,21.97,0.0,0.0,0.0,0.08230591563615915,0.3416822530915225,9.886321831272317
810000000.0,21.97,0.0,0.0,0.0,0.07337873706688737,0.3162743685334437,9.89829
815000000.0,21.97,0.0,0.0,0.0,0.056309431660794315,0.31499914749119146,9.894660284169602
820000000.0,21.97,0.0,0.0,0.0,0.0757332318550323,0.34060323185503233,9.884948384072484
825000000.0,21.97,0.0,0.0,0.0,0.08142296795072967,0.3600270320492703,9.888970548073905
830000000.0,21.97,0.0,0.0,0.0,0.06533458387824584,0.3627737516347375,9.904764583878245
835000000.0,21.97,0.0,0.0,0.0,0.06209731621887316,0.3465873162188731,9.89829
840000000.0,21.97,0.0,0.0,0.0,0.06239156736801567,0.3406031347360313,9.888872351052022
845000000.0,21.97,0.0,0.0,0.0,0.05209111641311117,0.3200022328262223,9.877983349239333
850000000.0,21.97,0.0,0.0,0.0,0.05886,0.3217679339590793,9.91006206604092
855000000.0,21.97,0.0,0.0,0.0,0.06170491660734917,0.311369499644095,9.928995250177953
860000000.0,21.97,0.0,0.0,0.0,0.06592318329553183,0.35041318329553184,9.899859549886594
865000000.0,21.97,0.0,0.0,0.0,0.06415743360317433,0.3380525663968257,9.881318716801587
870000000.0,21.97,0.0,0.0,0.0,0.06827753240517531,0.32373,9.883378766202588
875000000.0,21.97,0.0,0.0,0.0,0.04905006798330068,0.3310875509874755,9.876217550987475
880000000.0,21.97,0.0,0.0,0.0,0.07612558290705582,0.3437423316282233,9.89829
885000000.0,21.97,0.0,0.0,0.0,0.07092631719006316,0.31617631719006317,9.896033682809936
890000000.0,21.97,0.0,0.0,0.0,0.07416356542563565,0.32373,9.890638217287181
895000000.0,21.97,0.0,0.0,0.0,0.05886,0.3257901173843012,9.896229882615698
900000000.0,21.97,0.0,0.0,0.0,0.056897982518579825,0.33550201748142017,9.88651798251858
905000000.0,21.97,0.0,0.0,0.0,0.05464175273561753,0.3396221648429216,9.88053391757854
910000000.0,21.97,0.0,0.0,0.0,0.08024581767565817,0.3219641823243418,9.88848
915000000.0,21.97,0.0,0.0,0.0,0.08328684668166846,0.31725543554555435,9.890147717772777
920000000.0,21.97,0.0,0.0,0.0,0.06199923573979236,0.3351096178698962,9.899859617869895
925000000.0,21.97,0.0,0.0,0.0,0.07848,0.3418784820329848,9.9081
930000000.0,21.97,0.0,0.0,0.0,0.07710658193586581,0.33216658193586585,9.909473418064133
935000000.0,21.97,0.0,0.0,0.0,0.06739468183874682,0.3250053181612532,9.91408404551624
940000000.0,21.97,0.0,0.0,0.0,0.06003721825837218,0.3347172182583722,9.88848
945000000.0,21.97,0.0,0.0,0.0,0.06974911835549118,0.34442911835549117,9.884163526578035
950000000.0,21.97,0.0,0.0,0.0,0.07848,0.35119796309477963,9.85022101845261
955000000.0,21.97,0.0,0.0,0.0,0.07671416290054163,0.33354,9.860815837099459
960000000.0,21.97,0.0,0.0,0.0,0.05886,0.33197036270630365,9.879454818646847
965000000.0,21.97,0.0,0.0,0.0,0.05886,0.31392,9.88848
970000000.0,21.97,0.0,0.0,0.0,0.06062585652325857,0.31450861884108616,9.89142309420543
975000000.0,21.97,0.0,0.0,0.0,0.0877994810617948,0.32323948106179484,9.93458688637077
980000000.0,21.97,0.0,0.0,0.0,0.0780875809646758,0.3158820951766209,9.87867
985000000.0,21.97,0.0,0.0,0.0,0.06867,0.36238136173511365,9.87867
990000000.0,21.97,0.0,0.0,0.0,0.06827756154087561,0.34335,9.878473780770438
995000000.0,21.97,0.0,0.0,0.0,0.04905,0.3430556420199564,9.868958119326681
1000000000.0,21.97,0.0,0.0,0.0,0.04904998057619981,0.31392,9.8786699805762
1005000000.0,21.97,0.0,0.0,0.0,0.0393380804790808,0.31392,9.86895808047908
1010000000.0,21.97,0.0,0.0,0.0,0.07769527847215278,0.3043061803819618,9.878473819618037
1015000000.0,21.97,0.0,0.0,0.0,0.05944856056968561,0.3421728788606288,9.916732878860628
1020000000.0,21.97,0.0,0.0,0.0,0.05886,0.3339323801877238,9.908492380187724
1025000000.0,21.97,0.0,0.0,0.0,0.05886,0.32422048009060483,9.889460960181209
1030000000.0,21.97,0.0,0.0,0.0,0.0865242600195426,0.32373,9.879258579993486
1035000000.0,21.97,0.0,0.0,0.0,0.0609200396891004,0.34197664020726637,9.869546679896366
1040000000.0,21.97,0.0,0.0,0.0,0.0769104404015044,0.34335,9.877885220200751
1045000000.0,21.97,0.0,0.0,0.0,0.05169863910638639,0.34335,9.88759712029787
1050000000.0,21.97,0.0,0.0,0.0,0.06670804078998041,0.3345209796050098,9.87965097960501
1055000000.0,21.97,0.0,0.0,0.0,0.0599390795078908,0.31607815901578157,9.904862761476327
1060000000.0,21.97,0.0,0.0,0.0,0.05886,0.31392,9.89946717941077
1065000000.0,21.97,0.0,0.0,0.0,0.0503252793136528,0.3480588827453888,9.872685837940958
1070000000.0,21.97,0.0,0.0,0.0,0.04905,0.3362867584330676,9.877296620783467
1075000000.0,21.97,0.0,0.0,0.0,0.06572704176117042,0.31686295823882954,9.887008520880585
1080000000.0,21.97,0.0,0.0,0.0,0.03570831608918316,0.33864126293311264,9.871999158044591
1085000000.0,21.97,0.0,0.0,0.0,0.06199928429929284,0.31078071570070714,9.885144642149646
1090000000.0,21.97,0.0,0.0,0.0,0.06867,0.32824266351582665,9.872391557656115
1095000000.0,21.97,0.0,0.0,0.0,0.06072387873093879,0.31764775746187757,9.87680612126906
1100000000.0,21.97,0.0,0.0,0.0,0.05101197863381979,0.33746406409854063,9.89436604273236
1105000000.0,21.97,0.0,0.0,0.0,0.05679992146329922,0.34335,9.8905400785367
1110000000.0,21.97,0.0,0.0,0.0,0.06651182156041821,0.3586536431208364,9.865524535318745
1115000000.0,21.97,0.0,0.0,0.0,0.08377744331507443,0.35541627834246275,9.874157443315074
1120000000.0,21.97,0.0,0.0,0.0,0.06592313473603134,0.3457043782453438,9.893581243509312
1125000000.0,21.97,0.0,0.0,0.0,0.08829008740710087,0.32863495629644957,9.890932478148224
1130000000.0,21.97,0.0,0.0,0.0,0.09084057805110578,0.33098942194889425,9.88848
1135000000.0,21.97,0.0,0.0,0.0,0.08112867795398677,0.3263786779539868,9.874157355907974
1140000000.0,21.97,0.0,0.0,0.0,0.07848,0.32373,9.875923222143133
1145000000.0,21.97,0.0,0.0,0.0,0.05758463327924633,0.3306951222402512,9.88563512224025
1150000000.0,21.97,0.0,0.0,0.0,0.04905,0.3404070223373702,9.867878932987889
1155000000.0,21.97,0.0,0.0,0.0,0.06258784486897845,0.34335,9.852281077565511
1160000000.0,21.97,0.0,0.0,0.0,0.07534082253160822,0.34335,9.88259411265804
1165000000.0,21.97,0.0,0.0,0.0,0.07190727737127277,0.3236318321138183,9.89829
1170000000.0,21.97,0.0,0.0,0.0,0.06867,0.32686924545169244,9.911239245451691
1175000000.0,21.97,0.0,0.0,0.0,0.08142304564593045,0.33354,9.911533477177034
1180000000.0,21.97,0.0,0.0,0.0,0.07573315415983153,0.33354,9.901821577079915
1185000000.0,21.97,0.0,0.0,0.0,0.07485032301720322,0.33972032301720323,9.885929353965594
1190000000.0,21.97,0.0,0.0,0.0,0.07848,0.3372677768856778,9.890834446228643
1195000000.0,21.97,0.0,0.0,0.0,0.07249587678855876,0.3395241232114412,9.892305876788559
1200000000.0,21.97,0.0,0.0,0.0,0.06278397669143977,0.33746397669143974,9.882593976691439
1205000000.0,21.97,0.0,0.0,0.0,0.06464792340567924,0.33932792340567924,9.884457923405678
1210000000.0,21.97,0.0,0.0,0.0,0.06867,0.33197035299440353,9.894169823502798
1215000000.0,21.97,0.0,0.0,0.0,0.08544517079975171,0.33491344719983446,9.89829
1220000000.0,21.97,0.0,0.0,0.0,0.07063188151481882,0.3323627526059275,9.89829
1225000000.0,21.97,0.0,0.0,0.0,0.05984104758831048,0.3129389524116895,9.882103428617533
1230000000.0,21.97,0.0,0.0,0.0,0.06337257610872576,0.3147048477825485,9.879454847782547
1235000000.0,21.97,0.0,0.0,0.0,0.05886,0.32373,9.883280676011607
1240000000.0,21.97,0.0,0.0,0.0,0.05886,0.31862877591448774,9.868467551828974
1245000000.0,21.97,0.0,0.0,0.0,0.07887249673052497,0.2989106274521063,9.879062496730525
1250000000.0,21.97,0.0,0.0,0.0,0.08338492716074927,0.304110097119001,9.888479951440498
1255000000.0,21.97,0.0,0.0,0.0,0.06867,0.3093092268693923,9.87867
1260000000.0,21.97,0.0,0.0,0.0,0.07808764894797648,0.3037176489479765,9.883378824473988
1265000000.0,21.97,0.0,0.0,0.0,0.0790685508577855,0.3231414491422145,9.893090724571106
1270000000.0,21.97,0.0,0.0,0.0,0.05513212599532126,0.3425652493364525,9.893777375331773
1275000000.0,21.97,0.0,0.0,0.0,0.052483574296035736,0.35757452476534524,9.88848
1280000000.0,21.97,0.0,0.0,0.0,0.060037150275071505,0.345704300550143,9.884163575137535
1285000000.0,21.97,0.0,0.0,0.0,0.06170497487874975,0.3195116750404168,9.882888324959582
1290000000.0,21.97,0.0,0.0,0.0,0.06611932482989324,0.3221604501134045,9.88848
1295000000.0,21.97,0.0,0.0,0.0,0.06111637546146376,0.3375621251538212,9.89250212515382
1300000000.0,21.97,0.0,0.0,0.0,0.06278389899623898,0.3355019494981195,9.90613805050188
1305000000.0,21.97,0.0,0.0,0.0,0.04689185069611851,0.3275559253480593,9.91025814930388
1310000000.0,21.97,0.0,0.0,0.0,0.07377130178071302,0.33354,9.890834349109642
1315000000.0,21.97,0.0,0.0,0.0,0.0908405489154055,0.32991027445770277,9.882299725542296
1320000000.0,21.97,0.0,0.0,0.0,0.07494837436058374,0.32726162563941624,9.88848
1325000000.0,21.97,0.0,0.0,0.0,0.07553705147307051,0.32323942279039425,9.891913525736534
1330000000.0,21.97,0.0,0.0,0.0,0.07828372249903723,0.30411,9.901625425833654
1335000000.0,21.97,0.0,0.0,0.0,0.06209732593077326,0.31705930372309304,9.911337325930772
1340000000.0,21.97,0.0,0.0,0.0,0.06553077397210774,0.34021077397210775,9.911631547944214
1345000000.0,21.97,0.0,0.0,0.0,0.06798337837503378,0.3365811261250113,9.892207747749977
1350000000.0,21.97,0.0,0.0,0.0,0.07357486888934868,0.34335,9.88455605244426
1355000000.0,21.97,0.0,0.0,0.0,0.053464631596246315,0.34335,9.89544507368075
1360000000.0,21.97,0.0,0.0,0.0,0.09103682641636826,0.34060317358363174,9.880239520750894
1365000000.0,21.97,0.0,0.0,0.0,0.09015382045953821,0.32824254697302546,9.86964490605395
1370000000.0,21.97,0.0,0.0,0.0,0.06867,0.31647062661060626,9.895739373389393
1375000000.0,21.97,0.0,0.0,0.0,0.06376494658454947,0.32373,9.89338505341545
1380000000.0,21.97,0.0,0.0,0.0,0.04905,0.3260844268048443,9.896327865975778
1385000000.0,21.97,0.0,0.0,0.0,0.05581898070588981,0.33128367309803675,9.863562653803926
1390000000.0,21.97,0.0,0.0,0.0,0.07848,0.3302046809972468,9.87867
1395000000.0,21.97,0.0,0.0,0.0,0.07435974580759745,0.3510998729037987,9.8766098729038
1400000000.0,21.97,0.0,0.0,0.0,0.06082202719332027,0.3413879728066797,9.878670135966601
1405000000.0,21.97,0.0,0.0,0.0,0.06680607270956072,0.33167607270956073,9.908590363547804
1410000000.0,21.97,0.0,0.0,0.0,0.06415748216267482,0.32373,9.875923309550233
1415000000.0,21.97,0.0,0.0,0.0,0.08495454503064545,0.32373,9.90142909006129
1420000000.0,21.97,0.0,0.0,0.0,0.07023962758179628,0.32686925516359255,9.873568882745388
1425000000.0,21.97,0.0,0.0,0.0,0.07553694464216944,0.3404069446421694,9.896818472321083
1430000000.0,21.97,0.0,0.0,0.0,0.05886,0.32647685555206857,9.885733144447931
1435000000.0,21.97,0.0,0.0,0.0,0.056309344253693445,0.34462532787315325,9.867584672126846
1440000000.0,21.97,0.0,0.0,0.0,0.042771683910816836,0.3519827720297277,9.85905
1445000000.0,21.97,0.0,0.0,0.0,0.06867,0.34011261579782615,9.862287384202174
1450000000.0,21.97,0.0,0.0,0.0,0.06867,0.31588205632902056,9.88848
1455000000.0,21.97,0.0,0.0,0.0,0.06955292826162927,0.3326570717383707,9.886714143476741
1460000000.0,21.97,0.0,0.0,0.0,0.07926482835874828,0.32373,9.869644828358748
1465000000.0,21.97,0.0,0.0,0.0,0.08691654308826542,0.3244167284558673,9.880730185367602
1470000000.0,21.97,0.0,0.0,0.0,0.06867,0.33354,9.905156857235069
1475000000.0,21.97,0.0,0.0,0.0,0.06867,0.3345210573002106,9.86003105730021
1480000000.0,21.97,0.0,0.0,0.0,0.06867,0.3519827137583271,9.879062428747224
1485000000.0,21.97,0.0,0.0,0.0,0.06808134231131342,0.3243186576886866,9.887891342311313
1490000000.0,21.97,0.0,0.0,0.0,0.05003114470731145,0.3429575421170754,9.869448686824386
1495000000.0,21.97,0.0,0.0,0.0,0.09770748384567485,0.3240243871157439,9.898486258077162
1500000000.0,21.97,0.0,0.0,0.0,0.05886008740710088,0.3531598834571988,9.917909941728599
1505000000.0,21.97,0.0,0.0,0.0,0.08799578769845787,0.31431228306872283,9.898486141534361
1510000000.0,21.97,0.0,0.0,0.0,0.04983468268024683,0.3235338293299383,9.907903829329937
1515000000.0,21.97,0.0,0.0,0.0,0.07759718828117187,0.3332457294270573,9.889068541145885
1520000000.0,21.97,0.0,0.0,0.0,0.05022711142747112,0.35237525904835254,9.879062370475824
1525000000.0,21.97,0.0,0.0,0.0,0.0397304703787047,0.35316,9.87867
1530000000.0,21.97,0.0,0.0,0.0,0.0484614297184143,0.3347171405631714,9.87867
1535000000.0,21.97,0.0,0.0,0.0,0.0672966596310666,0.33354,9.887793329815533
1540000000.0,21.97,0.0,0.0,0.0,0.059644770087347705,0.3245147700873477,9.906530459825303
1545000000.0,21.97,0.0,0.0,0.0,0.05886,0.34158426001954256,9.863464349951144
1550000000.0,21.97,0.0,0.0,0.0,0.05886,0.3345209698931097,9.87670806021378
1555000000.0,21.97,0.0,0.0,0.0,0.0763218604080186,0.3248090697959907,9.86993906979599
1560000000.0,21.97,0.0,0.0,0.0,0.05258150909661509,0.3323628303011283,9.886125660602255
1565000000.0,21.97,0.0,0.0,0.0,0.06611946079649461,0.3164705392035054,9.879945269601752
1570000000.0,21.97,0.0,0.0,0.0,0.0771066304953663,0.3054833695046337,9.903979891486099
1575000000.0,21.97,0.0,0.0,0.0,0.06180293881502939,0.3374641223699412,9.89142293881503
1580000000.0,21.97,0.0,0.0,0.0,0.08358129206881292,0.34335,9.896720430689603
1585000000.0,21.97,0.0,0.0,0.0,0.07200533842655338,0.31892300763983006,9.882005338426554
1590000000.0,21.97,0.0,0.0,0.0,0.0767142308838423,0.3300084617676846,9.894758461767683
1595000000.0,21.97,0.0,0.0,0.0,0.07848,0.3573783929428839,9.874451607057116
1600000000.0,21.97,0.0,0.0,0.0,0.07848,0.34727393784383936,9.89240409323424
1605000000.0,21.97,0.0,0.0,0.0,0.07848,0.3356000688248007,9.8827901376496
1610000000.0,21.97,0.0,0.0,0.0,0.08613183127231831,0.3258881687276817,9.87867
1615000000.0,21.97,0.0,0.0,0.0,0.06562880589168806,0.3161762686305627,9.87867
1620000000.0,21.97,0.0,0.0,0.0,0.08122689439966894,0.3362868943996689,9.87867
1625000000.0,21.97,0.0,0.0,0.0,0.06621740530897405,0.34335,9.900742594691025
1630000000.0,21.97,0.0,0.0,0.0,0.05886,0.34335,9.879062273356823
1635000000.0,21.97,0.0,0.0,0.0,0.06602133175791332,0.34335,9.876021331757913
1640000000.0,21.97,0.0,0.0,0.0,0.08279646371006463,0.33628676814496766,9.899859695565096
1645000000.0,21.97,0.0,0.0,0.0,0.06739460414354603,0.3405051319521513,9.880239472191395
1650000000.0,21.97,0.0,0.0,0.0,0.07259406409854063,0.3296159359014594,9.89632812819708
1655000000.0,21.97,0.0,0.0,0.0,0.05817320356083204,0.32373,9.89456213570722
1660000000.0,21.97,0.0,0.0,0.0,0.06239166448701664,0.31038833551298334,9.875138335512982
1665000000.0,21.97,0.0,0.0,0.0,0.06209726765937268,0.323828197021882,9.895150929362508
1670000000.0,21.97,0.0,0.0,0.0,0.07180926487549265,0.3400146324377463,9.901625367562254
1675000000.0,21.97,0.0,0.0,0.0,0.07848,0.33059693493026937,9.891913467465134
1680000000.0,21.97,0.0,0.0,0.0,0.07220156736801567,0.33628686526396867,9.901036865263968
1685000000.0,21.97,0.0,0.0,0.0,0.05630933454179335,0.34335,9.901919667270896
1690000000.0,21.97,0.0,0.0,0.0,0.07337893130488932,0.33726776717377766,9.892207767173778
1695000000.0,21.97,0.0,0.0,0.0,0.08230586707665867,0.34550826584668265,9.894464132923341
1700000000.0,21.97,0.0,0.0,0.0,0.08436603302046032,0.32961586791815867,9.880631900938619
1705000000.0,21.97,0.0,0.0,0.0,0.070926200647262,0.331283799352738,9.892011732470317
1710000000.0,21.97,0.0,0.0,0.0,0.075929499644095,0.33766016678530164,9.919479666429396
1715000000.0,21.97,0.0,0.0,0.0,0.07710653337636533,0.32235653337636533,9.905353066752731
1720000000.0,21.97,0.0,0.0,0.0,0.06317636659106367,0.31392,9.899467266817872
1725000000.0,21.97,0.0,0.0,0.0,0.06965106701211067,0.32471106701211067,9.902704466493944
1730000000.0,21.97,0.0,0.0,0.0,0.06258769919047699,0.32294513279365133,9.877100265587302
1735000000.0,21.97,0.0,0.0,0.0,0.05424933370029334,0.31392,9.87464800110088
1740000000.0,21.97,0.0,0.0,0.0,0.05886,0.31392,9.883378766202588
1745000000.0,21.97,0.0,0.0,0.0,0.06386313389453134,0.3239262677890627,9.893679401683594
1750000000.0,21.97,0.0,0.0,0.0,0.06867,0.3237299320166993,9.90319496600835
1755000000.0,21.97,0.0,0.0,0.0,0.07347693408876933,0.31872693408876934,9.89829
1760000000.0,21.97,0.0,0.0,0.0,0.07848,0.33785650255766503,9.884163497442335
1765000000.0,21.97,0.0,0.0,0.0,0.06925853143398532,0.35316,9.86886
1770000000.0,21.97,0.0,0.0,0.0,0.07239790314037903,0.34864736561987364,9.88239790314038
1775000000.0,21.97,0.0,0.0,0.0,0.08387546552275466,0.33893546552275466,9.889460931045509
1780000000.0,21.97,0.0,0.0,0.0,0.05689782712817827,0.33354,9.887302869148728
1785000000.0,21.97,0.0,0.0,0.0,0.04630333868593339,0.33354,9.88563499598555
1790000000.0,21.97,0.0,0.0,0.0,0.07279023476860234,0.33354,9.881220704305807
1795000000.0,21.97,0.0,0.0,0.0,0.07848,0.33756213486572134,9.90231213486572
1800000000.0,21.97,0.0,0.0,0.0,0.0706319300743193,0.33157789511147895,9.904175965037158
1805000000.0,21.97,0.0,0.0,0.0,0.06268593505995936,0.32539780517987804,9.89446406494004
1810000000.0,21.97,0.0,0.0,0.0,0.07239783515707834,0.33216649452876496,9.877296494528764
1815000000.0,21.97,0.0,0.0,0.0,0.07848,0.31754973525419733,9.862679735254197
1820000000.0,21.97,0.0,0.0,0.0,0.0714167292973673,0.3307932707026327,9.882986541405264
1825000000.0,21.97,0.0,0.0,0.0,0.07602767724217678,0.35365060634530604,9.897799393654694
1830000000.0,21.97,0.0,0.0,0.0,0.09790369336333693,0.3561028222722282,9.882005435545555
1835000000.0,21.97,0.0,0.0,0.0,0.07200532871465329,0.32373,9.894954671285346
1840000000.0,21.97,0.0,0.0,0.0,0.06827770721937707,0.3331477072193771,9.901821528520415
1845000000.0,21.97,0.0,0.0,0.0,0.08220772832617727,0.3592422716738227,9.88848
1850000000.0,21.97,0.0,0.0,0.0,0.06572696406596963,0.3580648203298482,9.885536964065968
1855000000.0,21.97,0.0,0.0,0.0,0.06170493603114936,0.32373,9.87582506396885
1860000000.0,21.97,0.0,0.0,0.0,0.06867,0.32373,9.874353672256536
1865000000.0,21.97,0.0,0.0,0.0,0.07396747245077472,0.3263787362253874,9.891128736225387
1870000000.0,21.97,0.0,0.0,0.0,0.0806380910324809,0.33354,9.89829
1875000000.0,21.97,0.0,0.0,0.0,0.05886,0.33599253641962534,9.895837463580374
1880000000.0,21.97,0.0,0.0,0.0,0.0659233095502331,0.3386411269665113,9.883771126966511
1885000000.0,21.97,0.0,0.0,0.0,0.08377732677227326,0.3304990098415901,9.86886
1890000000.0,21.97,0.0,0.0,0.0,0.06651176328901763,0.3445270531560705,9.871018236710983
1895000000.0,21.97,0.0,0.0,0.0,0.05886,0.3118598631918986,9.876609863191899
1900000000.0,21.97,0.0,0.0,0.0,0.06278407381044074,0.3099961107156611,9.87474611071566
1905000000.0,21.97,0.0,0.0,0.0,0.07661606299766062,0.32422031498830317,9.89642606299766
1910000000.0,21.97,0.0,0.0,0.0,0.06867,0.2897875112983751,9.890245837099458
1915000000.0,21.97,0.0,0.0,0.0,0.06867,0.3172554743931547,9.899957737196576
1920000000.0,21.97,0.0,0.0,0.0,0.06710036270630362,0.33354,9.904960725412607
1925000000.0,21.97,0.0,0.0,0.0,0.06327461217244612,0.33354,9.88848
1930000000.0,21.97,0.0,0.0,0.0,0.08416968753619687,0.3321665625120656,9.88848
1935000000.0,21.97,0.0,0.0,0.0,0.05886,0.32755601275516016,9.887204662414947
1940000000.0,21.97,0.0,0.0,0.0,0.057682762317827624,0.35080552463565523,9.882201713046516
1945000000.0,21.97,0.0,0.0,0.0,0.05012913777929138,0.33246086222070864,9.905941724441416
1950000000.0,21.97,0.0,0.0,0.0,0.05984103787641038,0.32373,9.886517924247178
1955000000.0,21.97,0.0,0.0,0.0,0.06867,0.3219641240529413,9.874157627841177
1960000000.0,21.97,0.0,0.0,0.0,0.06867,0.30646451421194515,9.923795809646759
1965000000.0,21.97,0.0,0.0,0.0,0.06867,0.3342267381677674,9.879356738167766
1970000000.0,21.97,0.0,0.0,0.0,0.06867,0.34393863826488635,9.887302723470226
1975000000.0,21.97,0.0,0.0,0.0,0.06719838491398385,0.3521789232759892,9.86886
1980000000.0,21.97,0.0,0.0,0.0,0.04041731537737315,0.33275512308175126,9.870429753836497
1985000000.0,21.97,0.0,0.0,0.0,0.06808132288751323,0.31421433855624337,9.907805661443756
1990000000.0,21.97,0.0,0.0,0.0,0.04905,0.32373,9.89829
1995000000.0,21.97,0.0,0.0,0.0,0.049246277500962776,0.3238281387504814,9.898093722499036
2000000000.0,21.97,0.0,0.0,0.0,0.06867007769520077,0.3335399611523996,9.8786701165428
2005000000.0,21.97,0.0,0.0,0.0,0.08809387788943877,0.3238280610552806,9.907805816834157
2010000000.0,21.97,0.0,0.0,0.0,0.05944848287448483,0.32373,9.9081
2015000000.0,21.97,0.0,0.0,0.0,0.10643869569478696,0.3617929565558296,9.879552782583128
2020000000.0,21.97,0.0,0.0,0.0,0.0890747215278472,0.3441347215278472,9.888087639236076
2025000000.0,21.97,0.0,0.0,0.0,0.060331382000413825,0.32471092133360924,9.88848
2030000000.0,21.97,0.0,0.0,0.0,0.07730287886062878,0.30528712113937123,9.879258560569685
2035000000.0,21.97,0.0,0.0,0.0,0.0693566604725666,0.3588500371646004,9.896916679054867
2040000000.0,21.97,0.0,0.0,0.0,0.06867,0.3268690415017904,9.889264760375447
2045000000.0,21.97,0.0,0.0,0.0,0.059742860278328605,0.35051141916501416,9.879552860278329
2050000000.0,21.97,0.0,0.0,0.0,0.06768903981879039,0.3355019203624192,9.861011920362419
2055000000.0,21.97,0.0,0.0,0.0,0.0512081201681812,0.3422709399159094,9.876511879831819
2060000000.0,21.97,0.0,0.0,0.0,0.0663156800260568,0.34335,9.852771479960914
2065000000.0,21.97,0.0,0.0,0.0,0.0772047401101474,0.32628051977970524,9.857774740110147
2070000000.0,21.97,0.0,0.0,0.0,0.0869166402072664,0.32373,9.8843599206218
2075000000.0,21.97,0.0,0.0,0.0,0.05493583878245839,0.31539145969561455,9.880141459695615
2080000000.0,21.97,0.0,0.0,0.0,0.04905,0.3304008808030088,9.903391321204513
2085000000.0,21.97,0.0,0.0,0.0,0.0653346809972468,0.3416823404986234,9.88367297850413
2090000000.0,21.97,0.0,0.0,0.0,0.0767142405957424,0.34335,9.894758481191484
2095000000.0,21.97,0.0,0.0,0.0,0.05464157792141578,0.34335,9.866505437228554
2100000000.0,21.97,0.0,0.0,0.0,0.08044216315992163,0.3355019592100196,9.882594122369941
2105000000.0,21.97,0.0,0.0,0.0,0.07279011822580117,0.3412899408870994,9.880730059112901
2110000000.0,21.97,0.0,0.0,0.0,0.0763218409842184,0.3280463180315632,9.901625522952655
2115000000.0,21.97,0.0,0.0,0.0,0.06337251783732518,0.32373,9.900546258918663
2120000000.0,21.97,0.0,0.0,0.0,0.06631564117845641,0.30881871764308716,9.913201282356912
2125000000.0,21.97,0.0,0.0,0.0,0.07602754127557541,0.3114675412755754,9.881122293622122
2130000000.0,21.97,0.0,0.0,0.0,0.06396111725461118,0.3356983241180832,9.86886
2135000000.0,21.97,0.0,0.0,0.0,0.06602134146981341,0.3361886585301866,9.883182682939626
2140000000.0,21.97,0.0,0.0,0.0,0.07573324156693241,0.3406032415669324,9.874353516866135
2145000000.0,21.97,0.0,0.0,0.0,0.08544514166405141,0.33638485833594856,9.861894858335948
2150000000.0,21.97,0.0,0.0,0.0,0.08142295823882957,0.33354,9.893385208805851
2155000000.0,21.97,0.0,0.0,0.0,0.07171105814171058,0.3403089418582894,9.88779317442513
2160000000.0,21.97,0.0,0.0,0.0,0.06199915804459158,0.3233374741337747,9.892011683910816
2165000000.0,21.97,0.0,0.0,0.0,0.05886,0.3270654841050548,9.89829
2170000000.0,21.97,0.0,0.0,0.0,0.05886,0.32059071570070713,9.885340715700707
2175000000.0,21.97,0.0,0.0,0.0,0.07161308449353085,0.33304962674029626,9.86591691550647
2180000000.0,21.97,0.0,0.0,0.0,0.06592311531223115,0.33079311531223116,9.865328442343884
2185000000.0,21.97,0.0,0.0,0.0,0.07740102732301027,0.3299103424410034,9.893581369764012
2190000000.0,21.97,0.0,0.0,0.0,0.07004327238563272,0.3274577574618776,9.902017757461877
2195000000.0,21.97,0.0,0.0,0.0,0.07082828527048285,0.32373,9.886321714729517
2200000000.0,21.97,0.0,0.0,0.0,0.07848,0.3355020854647209,9.89044208546472
2205000000.0,21.97,0.0,0.0,0.0,0.07848,0.33177411434104115,9.915653828488438
2210000000.0,21.97,0.0,0.0,0.0,0.07279015707340157,0.33510968585319684,9.910650471220205
2215000000.0,21.97,0.0,0.0,0.0,0.06307825697628257,0.33216651395256513,9.892698256976281
2220000000.0,21.97,0.0,0.0,0.0,0.06984728624167286,0.32373,9.877492713758327
2225000000.0,21.97,0.0,0.0,0.0,0.056897827128178265,0.32912554321795545,9.874255543217956
2230000000.0,21.97,0.0,0.0,0.0,0.07632210320552103,0.3388374433150744,9.894562329945222
2235000000.0,21.97,0.0,0.0,0.0,0.08711262635122627,0.34335,9.897701313175613
2240000000.0,21.97,0.0,0.0,0.0,0.06867,0.3331475129813751,9.88848
2245000000.0,21.97,0.0,0.0,0.0,0.07367314360643143,0.31872685639356857,9.893483143606431
2250000000.0,21.97,0.0,0.0,0.0,0.08338504370355043,0.33354017481420173,9.89338495629645
2255000000.0,21.97,0.0,0.0,0.0,0.08829,0.35316,9.88848
2260000000.0,21.97,0.0,0.0,0.0,0.07887231220442312,0.3437423122044231,9.88848
2265000000.0,21.97,0.0,0.0,0.0,0.06867,0.3381507439949074,9.88848
2270000000.0,21.97,0.0,0.0,0.0,0.05964471181594712,0.33883735590797354,9.883967355907973
2275000000.0,21.97,0.0,0.0,0.0,0.053464544189145445,0.3247109116217091,9.86984091162171
2280000000.0,21.97,0.0,0.0,0.0,0.05886,0.31823644428626446,9.871999332858794
2285000000.0,21.97,0.0,0.0,0.0,0.0672966887667669,0.32373,9.884261655616616
2290000000.0,21.97,0.0,0.0,0.0,0.08260024448050243,0.3319704889610049,9.882790244480502
2295000000.0,21.97,0.0,0.0,0.0,0.0802457108447571,0.34335,9.892502144577621
2300000000.0,21.97,0.0,0.0,0.0,0.06474595532525955,0.33942595532525954,9.890441910650518
2305000000.0,21.97,0.0,0.0,0.0,0.07033783431557834,0.33354,9.87867
2310000000.0,21.97,0.0,0.0,0.0,0.0733786205240862,0.3260843102620431,9.886125689737957
2315000000.0,21.97,0.0,0.0,0.0,0.0563094899321949,0.3356984697965847,9.89829
2320000000.0,21.97,0.0,0.0,0.0,0.0757332901264329,0.35512177468391776,9.89829
2325000000.0,21.97,0.0,0.0,0.0,0.0814229096793291,0.3305970903206709,9.905157090320671
2330000000.0,21.97,0.0,0.0,0.0,0.06867,0.34001455474254555,9.904568218970182
2335000000.0,21.97,0.0,0.0,0.0,0.06543265464542654,0.33677734535457343,9.88838203606372
2340000000.0,21.97,0.0,0.0,0.0,0.061999245451692456,0.3402107545483075,9.898682263644922
2345000000.0,21.97,0.0,0.0,0.0,0.07475229109762291,0.33658114554881147,9.881711145548811
2350000000.0,21.97,0.0,0.0,0.0,0.07946086306220862,0.34335,9.879650863062208
2355000000.0,21.97,0.0,0.0,0.0,0.056015054256950546,0.3376601085139011,9.870429782972197
2360000000.0,21.97,0.0,0.0,0.0,0.04630315415983154,0.32373,9.884555770799157
2365000000.0,21.97,0.0,0.0,0.0,0.04188874593728746,0.32373,9.854537491874575
2370000000.0,21.97,0.0,0.0,0.0,0.054151292068812924,0.32883129206881295,9.871410646034406
2375000000.0,21.97,0.0,0.0,0.0,0.07357509226305092,0.34089745386847453,9.876217453868474
2380000000.0,21.97,0.0,0.0,0.0,0.08593555377135553,0.33118555377135556,9.873568892457289
2385000000.0,21.97,0.0,0.0,0.0,0.08299269265152692,0.32598634632576345,9.890736346325763
2390000000.0,21.97,0.0,0.0,0.0,0.09378350715423507,0.3313817535771175,9.89829
2395000000.0,21.97,0.0,0.0,0.0,0.07848,0.32373,9.896229853479998
2400000000.0,21.97,0.0,0.0,0.0,0.07848,0.32765409323424094,9.88651795338288
2405000000.0,21.97,0.0,0.0,0.0,0.07661605328576053,0.3377581598572816,9.87867
2410000000.0,21.97,0.0,0.0,0.0,0.07220169362271693,0.31392,9.876904153188642
2415000000.0,21.97,0.0,0.0,0.0,0.08161901236609012,0.32059098763390986,9.87553098763391
2420000000.0,21.97,0.0,0.0,0.0,0.05061964700559647,0.3562992940111929,9.900251764972017
2425000000.0,21.97,0.0,0.0,0.0,0.06474618841086188,0.3624791702809917,9.863464641308147
2430000000.0,21.97,0.0,0.0,0.0,0.09260621120066212,0.30960378879933786,9.887106552800166
2435000000.0,21.97,0.0,0.0,0.0,0.060135347296953474,0.3382486108121861,9.87867
2440000000.0,21.97,0.0,0.0,0.0,0.07102449478814495,0.3052872473940725,9.87867
2445000000.0,21.97,0.0,0.0,0.0,0.08505255752642557,0.3128408525088085,9.884065737455957
2450000000.0,21.97,0.0,0.0,0.0,0.060822095176620954,0.3080341903532419,9.922814762058449
2455000000.0,21.97,0.0,0.0,0.0,0.07759705231457052,0.34246705231457053,9.880435895370859
2460000000.0,21.97,0.0,0.0,0.0,0.06788515221745152,0.33510969556509695,9.896720304434902
2465000000.0,21.97,0.0,0.0,0.0,0.06023349575933496,0.35109975636099755,9.880043495759335
2470000000.0,21.97,0.0,0.0,0.0,0.07789135202321351,0.324907295953573,9.897701352023214
2475000000.0,21.97,0.0,0.0,0.0,0.06817945192609451,0.34335,9.887989451926094
2480000000.0,21.97,0.0,0.0,0.0,0.05964489634204897,0.342565103657951,9.87867
2485000000.0,21.97,0.0,0.0,0.0,0.07818565173185651,0.3240243482681435,9.87867
2490000000.0,21.97,0.0,0.0,0.0,0.06808125490421255,0.3333437516347375,9.878866248365263
2495000000.0,21.97,0.0,0.0,0.0,0.03943629692476296,0.323926296924763,9.88848
2500000000.0,21.97,0.0,0.0,0.0,0.05886,0.34335,9.888479951440498
2505000000.0,21.97,0.0,0.0,0.0,0.05886,0.34335,9.87876805134338
2510000000.0,21.97,0.0,0.0,0.0,0.05886,0.32412230249252305,9.888283848753739
2515000000.0,21.97,0.0,0.0,0.0,0.05886,0.32373,9.88848
2520000000.0,21.97,0.0,0.0,0.0,0.06827764894797649,0.3331476489479765,9.88848
2525000000.0,21.97,0.0,0.0,0.0,0.07798954904509549,0.34285954904509547,9.90711909809019
2530000000.0,21.97,0.0,0.0,0.0,0.060037101715571015,0.306464203431142,9.880435652573356
2535000000.0,21.97,0.0,0.0,0.0,0.07710669847866698,0.34060339695733394,9.896916698478666
2540000000.0,21.97,0.0,0.0,0.0,0.060429501327095014,0.3343247506635475,9.907315249336452
2545000000.0,21.97,0.0,0.0,0.0,0.06778714943357149,0.33354,9.881318551699286
2550000000.0,21.97,0.0,0.0,0.0,0.059840950469309505,0.35119809906138094,9.88749904953069
2555000000.0,21.97,0.0,0.0,0.0,0.0675909496278095,0.335698100744381,9.88848
2560000000.0,21.97,0.0,0.0,0.0,0.07730284972492849,0.3421728497249285,9.897112849724929
2565000000.0,21.97,0.0,0.0,0.0,0.052875750533857506,0.3518847498220475,9.89829
2570000000.0,21.97,0.0,0.0,0.0,0.07435994975749949,0.3447233500808335,9.906726649919166
2575000000.0,21.97,0.0,0.0,0.0,0.07848,0.31833434995114346,9.891422899967429
2580000000.0,21.97,0.0,0.0,0.0,0.07848,0.3221604501134045,9.904960900226808
2585000000.0,21.97,0.0,0.0,0.0,0.07033764978947649,0.32373,9.891815299578953
2590000000.0,21.97,0.0,0.0,0.0,0.0606257496923575,0.3317742503076425,9.880435749692356
2595000000.0,21.97,0.0,0.0,0.0,0.08269845121428451,0.349432300809523,9.88661615040476
2600000000.0,21.97,0.0,0.0,0.0,0.07259389899623898,0.33746389899623896,9.880631949498119
2605000000.0,21.97,0.0,0.0,0.0,0.0764199505989995,0.34128995059899947,9.886419950598999
2610000000.0,21.97,0.0,0.0,0.0,0.0861318506961185,0.32039444791164445,9.88848
2615000000.0,21.97,0.0,0.0,0.0,0.08073624920676248,0.3365812523797125,9.903587501586474
2620000000.0,21.97,0.0,0.0,0.0,0.07102434910964349,0.328438698219287,9.88573304732893
2625000000.0,21.97,0.0,0.0,0.0,0.0760275509874755,0.33844510197495103,9.86395489802505
2630000000.0,21.97,0.0,0.0,0.0,0.05670164674621647,0.3506094510845945,9.888087804338378
2635000000.0,21.97,0.0,0.0,0.0,0.05621135118171351,0.35316,9.891128648818286
2640000000.0,21.97,0.0,0.0,0.0,0.07298650255766502,0.33903349744233496,9.881416748721167
2645000000.0,21.97,0.0,0.0,0.0,0.07151484862404849,0.3265748486240485,9.871704848624049
2650000000.0,21.97,0.0,0.0,0.0,0.06867,0.309995897053859,9.896328205892281
2655000000.0,21.97,0.0,0.0,0.0,0.06867,0.3108789515701895,9.90133104842981
2660000000.0,21.97,0.0,0.0,0.0,0.06867,0.31392,9.904960851667308
2665000000.0,21.97,0.0,0.0,0.0,0.08838825529328256,0.32706550352885505,9.875236241177863
2670000000.0,21.97,0.0,0.0,0.0,0.08515069627690697,0.32059069627690695,9.878473955584639
2675000000.0,21.97,0.0,0.0,0.0,0.06572689608266896,0.31392,9.88848
2680000000.0,21.97,0.0,0.0,0.0,0.07769535616735355,0.3327553561673535,9.88848
2685000000.0,21.97,0.0,0.0,0.0,0.07592929569419295,0.33098929569419294,9.894660352152902
2690000000.0,21.97,0.0,0.0,0.0,0.06258774774997748,0.31156549549995494,9.89829
2695000000.0,21.97,0.0,0.0,0.0,0.07082830469428304,0.32206245704142455,9.886321695305716
2700000000.0,21.97,0.0,0.0,0.0,0.07259394755573947,0.3394260524442605,9.89632815733278
2705000000.0,21.97,0.0,0.0,0.0,0.06867,0.33177409491724097,9.89073614237586
2710000000.0,21.97,0.0,0.0,0.0,0.07435985263849852,0.32941985263849854,9.8729801473615
2715000000.0,21.97,0.0,0.0,0.0,0.07288824726438246,0.3391317527356175,9.891227010942469
2720000000.0,21.97,0.0,0.0,0.0,0.06867,0.3488436528327365,9.886125388669054
2725000000.0,21.97,0.0,0.0,0.0,0.06327444707014447,0.3477644470701445,9.879651105859711
2730000000.0,21.97,0.0,0.0,0.0,0.06415745302697452,0.33275509394605096,9.899074906053949
2735000000.0,21.97,0.0,0.0,0.0,0.05827129375181293,0.32373,9.902900646875906
2740000000.0,21.97,0.0,0.0,0.0,0.05415125322121254,0.34413501288485016,9.89829
2745000000.0,21.97,0.0,0.0,0.0,0.0738694599549946,0.34796054004500543,9.893286846681669
2750000000.0,21.97,0.0,0.0,0.0,0.0735748397536484,0.3384450534154505,9.878669893169098
2755000000.0,21.97,0.0,0.0,0.0,0.0732808605377086,0.33854304648743044,9.873666953512569
2760000000.0,21.97,0.0,0.0,0.0,0.08358114639031146,0.33354,9.873961146390311
2765000000.0,21.97,0.0,0.0,0.0,0.07386924629319246,0.3197077388795774,9.859638492586384
2770000000.0,21.97,0.0,0.0,0.0,0.06867,0.3131353076078531,9.871803269019633
2775000000.0,21.97,0.0,0.0,0.0,0.06425544609895446,0.3281445539010456,9.885046338296863
2780000000.0,21.97,0.0,0.0,0.0,0.05886,0.33354,9.886125815992658
2785000000.0,21.97,0.0,0.0,0.0,0.05886,0.3419767081905671,9.899663291809432
2790000000.0,21.97,0.0,0.0,0.0,0.06298025419240254,0.34903974580759745,9.880239491615194
2795000000.0,21.97,0.0,0.0,0.0,0.07671430857904309,0.33932784571047847,9.880926462868564
2800000000.0,21.97,0.0,0.0,0.0,0.08436594561335944,0.3413881087732811,9.886517836840078
2805000000.0,21.97,0.0,0.0,0.0,0.0708280910324809,0.35316,9.880337863451278
2810000000.0,21.97,0.0,0.0,0.0,0.06258785458087855,0.33452072709560726,9.89456214541912
2815000000.0,21.97,0.0,0.0,0.0,0.07955926403399263,0.3113695093559951,9.881220490644004
2820000000.0,21.97,0.0,0.0,0.0,0.08750503567465036,0.32726165477511654,9.872391654775116
2825000000.0,21.97,0.0,0.0,0.0,0.06867,0.33697355487223557,9.87867
2830000000.0,21.97,0.0,0.0,0.0,0.0753409099387091,0.3366790900612909,9.888676364908063
2835000000.0,21.97,0.0,0.0,0.0,0.08505264493352645,0.3302047101329471,9.904862644933525
2840000000.0,21.97,0.0,0.0,0.0,0.07534074483640744,0.34335,9.892011489672814
2845000000.0,21.97,0.0,0.0,0.0,0.0747523105214231,0.3463911552607115,9.875628844739287
2850000000.0,21.97,0.0,0.0,0.0,0.07651777856867778,0.3472738892843389,9.86886
2855000000.0,21.97,0.0,0.0,0.0,0.05189495545494956,0.33069504454505044,9.880239821819798
2860000000.0,21.97,0.0,0.0,0.0,0.05886,0.32647685555206857,9.9081
2865000000.0,21.97,0.0,0.0,0.0,0.06680626694756267,0.33618875564918754,9.89750497740325
2870000000.0,21.97,0.0,0.0,0.0,0.07553672126846721,0.34079934425369346,9.876511967238919
2875000000.0,21.97,0.0,0.0,0.0,0.04659766753027667,0.33354,9.890932332469722
2880000000.0,21.97,0.0,0.0,0.0,0.06867,0.3288310881189109,9.871214455940544
2885000000.0,21.97,0.0,0.0,0.0,0.06867,0.3229454241506542,9.876413643962335
2890000000.0,21.97,0.0,0.0,0.0,0.07082825613478255,0.34884348773043483,9.871018256134782
2895000000.0,21.97,0.0,0.0,0.0,0.07435968753619687,0.33147984376809847,9.880730156231902
2900000000.0,21.97,0.0,0.0,0.0,0.06082205632902057,0.3276541126580411,9.89240411265804
2905000000.0,21.97,0.0,0.0,0.0,0.06867,0.3414860435738604,9.90250813072158
2910000000.0,21.97,0.0,0.0,0.0,0.06513828695348287,0.33530585652325856,9.876904143476741
2915000000.0,21.97,0.0,0.0,0.0,0.05238551324075513,0.3383467301388673,9.867192243379622
2920000000.0,21.97,0.0,0.0,0.0,0.07180931343499312,0.3170593134349931,9.860619656717496
2925000000.0,21.97,0.0,0.0,0.0,0.08534688637076886,0.3291253295561533,9.873274670443847
2930000000.0,21.97,0.0,0.0,0.0,0.06867,0.3096038276469383,9.89829
2935000000.0,21.97,0.0,0.0,0.0,0.06739464299114642,0.3395239289734393,9.897014642991145
2940000000.0,21.97,0.0,0.0,0.0,0.05886,0.3174517713179177,9.892011771317916
2945000000.0,21.97,0.0,0.0,0.0,0.062097471609274715,0.3390333711876337,9.913593371187632
2950000000.0,21.97,0.0,0.0,0.0,0.08632788539957885,0.3070531719006317,9.88063211460042
2955000000.0,21.97,0.0,0.0,0.0,0.06867,0.3344229573973296,9.89740704260267
2960000000.0,21.97,0.0,0.0,0.0,0.06945485749444857,0.34178028501110286,9.889264857494448
2965000000.0,21.97,0.0,0.0,0.0,0.07916675759156758,0.32373,9.897603242408431
2970000000.0,21.97,0.0,0.0,0.0,0.08829,0.32373,9.889068657688686
2975000000.0,21.97,0.0,0.0,0.0,0.08779944221419442,0.32373,9.898780557785805
2980000000.0,21.97,0.0,0.0,0.0,0.07848,0.32373,9.90731508423415
2985000000.0,21.97,0.0,0.0,0.0,0.07818564201995641,0.32431871596008716,9.889068715960086
2990000000.0,21.97,0.0,0.0,0.0,0.06886625807716258,0.34335,9.9081
2995000000.0,21.97,0.0,0.0,0.0,0.07848,0.34335,9.907707367302873
3000000000.0,21.97,0.0,0.0,0.0,0.07848,0.3433498834571988,9.8688600582714
3005000000.0,21.97,0.0,0.0,0.0,0.07848,0.32392608326296085,9.87857195836852
3010000000.0,21.97,0.0,0.0,0.0,0.07848,0.3141161415343614,9.87867
3015000000.0,21.97,0.0,0.0,0.0,0.05944848287448483,0.3329515171255152,9.87867
3020000000.0,21.97,0.0,0.0,0.0,0.05886,0.3241223413401234,9.888087658659876
3025000000.0,21.97,0.0,0.0,0.0,0.07749911751399116,0.3330495587569956,9.88848
3030000000.0,21.97,0.0,0.0,0.0,0.050815623437656235,0.3427614588541146,9.88848
3035000000.0,21.97,0.0,0.0,0.0,0.06729671790246718,0.34335,9.870233282097532
3040000000.0,21.97,0.0,0.0,0.0,0.06867,0.32529948190329483,9.86886
3045000000.0,21.97,0.0,0.0,0.0,0.08652431829094318,0.3326571591454716,9.895641477436413
3050000000.0,21.97,0.0,0.0,0.0,0.05297376302963763,0.33354,9.89829
3055000000.0,21.97,0.0,0.0,0.0,0.06651191867941919,0.3248090406602904,9.88955904066029
3060000000.0,21.97,0.0,0.0,0.0,0.06003714056317141,0.32373,9.905745718873657
3065000000.0,21.97,0.0,0.0,0.0,0.05886,0.33226475953394763,9.882495721398156
3070000000.0,21.97,0.0,0.0,0.0,0.0672966596310666,0.3251033403689334,9.903979978893199
3075000000.0,21.97,0.0,0.0,0.0,0.06867,0.3320685597281856,9.883084320815442
3080000000.0,21.97,0.0,0.0,0.0,0.07691045982530459,0.35002091965060916,9.86218908034939
3085000000.0,21.97,0.0,0.0,0.0,0.0703376400775764,0.3368752801551528,9.867192359922424
3090000000.0,21.97,0.0,0.0,0.0,0.0767142600195426,0.3415842600195426,9.884948520039085
3095000000.0,21.97,0.0,0.0,0.0,0.0625876797666768,0.32745767976667683,9.880533839883338
3100000000.0,21.97,0.0,0.0,0.0,0.0745561204275612,0.31588193978621937,9.894366120427561
3105000000.0,21.97,0.0,0.0,0.0,0.05523011906730119,0.31392,9.8905400396891
3110000000.0,21.97,0.0,0.0,0.0,0.0643537208160372,0.3062681395919814,9.919087441632074
3115000000.0,21.97,0.0,0.0,0.0,0.0762237605051376,0.31921752101027523,9.920166239494861
3120000000.0,21.97,0.0,0.0,0.0,0.048657357590973574,0.31627433939774335,9.873176036386461
3125000000.0,21.97,0.0,0.0,0.0,0.08338536419625364,0.3433502427975024,9.888480242797502
3130000000.0,21.97,0.0,0.0,0.0,0.0981,0.32412215681402157,9.89829
3135000000.0,21.97,0.0,0.0,0.0,0.06229319553193196,0.3354040826808408,9.876805917319158
3140000000.0,21.97,0.0,0.0,0.0,0.05611326099073261,0.33628673900926737,9.875923260990731
3145000000.0,21.97,0.0,0.0,0.0,0.05189483891214839,0.33354,9.892600322175703
3150000000.0,21.97,0.0,0.0,0.0,0.05591706118497061,0.3266729388150294,9.89829
3155000000.0,21.97,0.0,0.0,0.0,0.05886,0.3372679225641792,9.905058961282089
3160000000.0,21.97,0.0,0.0,0.0,0.03884741586237416,0.3366791386207914,9.888087415862374
3165000000.0,21.97,0.0,0.0,0.0,0.05572104590531046,0.3466855229526552,9.87867
3170000000.0,21.97,0.0,0.0,0.0,0.08161932314689323,0.34021067685310674,9.885144661573445
3175000000.0,21.97,0.0,0.0,0.0,0.10104312334113123,0.33354,9.894856561670565
3180000000.0,21.97,0.0,0.0,0.0,0.08279615292926153,0.35237538530305385,9.892011538232316
3185000000.0,21.97,0.0,0.0,0.0,0.06248963813519638,0.33824855254078556,9.894660361864803
3190000000.0,21.97,0.0,0.0,0.0,0.05886,0.32373,9.886125476076154
3195000000.0,21.97,0.0,0.0,0.0,0.06484416205904162,0.32971416205904164,9.884654162059041
3200000000.0,21.97,0.0,0.0,0.0,0.07455606215616062,0.3394260621561606,9.88848
3205000000.0,21.97,0.0,0.0,0.0,0.07848,0.34335,9.88269203774672
3210000000.0,21.97,0.0,0.0,0.0,0.07279013764960138,0.3262804129488041,9.87867
3215000000.0,21.97,0.0,0.0,0.0,0.06307823755248237,0.3306952873425529,9.873078237552482
3220000000.0,21.97,0.0,0.0,0.0,0.06435366254463662,0.34335,9.879847325089273
3225000000.0,21.97,0.0,0.0,0.0,0.06327443735824437,0.3217677494329775,9.88848
3230000000.0,21.97,0.0,0.0,0.0,0.06945492547774926,0.3252998509554985,9.893777462738875
3235000000.0,21.97,0.0,0.0,0.0,0.07328063716400636,0.3277519114920191,9.893090637164006
3240000000.0,21.97,0.0,0.0,0.0,0.06356873706688737,0.3190212629331126,9.898682525866224
3245000000.0,21.97,0.0,0.0,0.0,0.05886,0.32373,9.903096836969768
3250000000.0,21.97,0.0,0.0,0.0,0.05886,0.31882493687264934,9.883574810617947
3255000000.0,21.97,0.0,0.0,0.0,0.0732808896734089,0.31872696322446964,9.87366696322447
3260000000.0,21.97,0.0,0.0,0.0,0.07887227335682273,0.32373,9.87867
3265000000.0,21.97,0.0,0.0,0.0,0.06405923658129237,0.32373,9.892502290256122
3270000000.0,21.97,0.0,0.0,0.0,0.05886,0.3372679905474799,9.903587336484172
3275000000.0,21.97,0.0,0.0,0.0,0.07210369083883691,0.33550174554821743,9.89829
3280000000.0,21.97,0.0,0.0,0.0,0.08397353628993535,0.3355023185503232,9.893973536289934
3285000000.0,21.97,0.0,0.0,0.0,0.07004327238563272,0.34609654477126545,9.905353455228735
3290000000.0,21.97,0.0,0.0,0.0,0.06298026390430264,0.32785026390430266,9.907118680478487
3295000000.0,21.97,0.0,0.0,0.0,0.056603507995735075,0.32549567199715673,9.87867
3300000000.0,21.97,0.0,0.0,0.0,0.05101219229562192,0.3217681281970813,9.88651812819708
3305000000.0,21.97,0.0,0.0,0.0,0.07249596419565964,0.3297140358043404,9.902115964195659
3310000000.0,21.97,0.0,0.0,0.0,0.06729640712166407,0.3386414571711146,9.911827864292778
3315000000.0,21.97,0.0,0.0,0.0,0.05630952877979529,0.34482117805051177,9.907020706830306
3320000000.0,21.97,0.0,0.0,0.0,0.07926499346104994,0.3174516644870166,9.881416671025967
3325000000.0,21.97,0.0,0.0,0.0,0.09123287083172871,0.3305971291682713,9.872293564584135
3330000000.0,21.97,0.0,0.0,0.0,0.0718090706374907,0.3366790706374907,9.885340929362508
3335000000.0,21.97,0.0,0.0,0.0,0.05886,0.32049263522162635,9.891815270443253
3340000000.0,21.97,0.0,0.0,0.0,0.0651385297509853,0.3201985297509853,9.888087794626477
3345000000.0,21.97,0.0,0.0,0.0,0.0723976700547767,0.3274576700547767,9.905058835027388
3350000000.0,21.97,0.0,0.0,0.0,0.05591693493026935,0.32569226027892256,9.895346934930268
3355000000.0,21.97,0.0,0.0,0.0,0.057584895500548954,0.34462510449945105,9.88563503483315
3360000000.0,21.97,0.0,0.0,0.0,0.07298626947206269,0.3264768652639687,9.881416865263969
3365000000.0,21.97,0.0,0.0,0.0,0.06415753072217531,0.3388375307221753,9.885831234638912
3370000000.0,21.97,0.0,0.0,0.0,0.0835813309164133,0.34550800362538003,9.886321996374619
3375000000.0,21.97,0.0,0.0,0.0,0.08828973777869739,0.3212774344446743,9.903194868889347
3380000000.0,21.97,0.0,0.0,0.0,0.061214465652444656,0.31392,9.890834465652445
3385000000.0,21.97,0.0,0.0,0.0,0.07092636574956365,0.31617636574956365,9.896033634250436
3390000000.0,21.97,0.0,0.0,0.0,0.07416346830663467,0.3258882658466827,9.88848
3395000000.0,21.97,0.0,0.0,0.0,0.06504049783140498,0.33147983405619835,9.886419834056198
3400000000.0,21.97,0.0,0.0,0.0,0.08829,0.32569206604092066,9.88063206604092
3405000000.0,21.97,0.0,0.0,0.0,0.08456206772392066,0.33354,9.88661603386196
3410000000.0,21.97,0.0,0.0,0.0,0.06690413376484133,0.33354,9.873372401294525
3415000000.0,21.97,0.0,0.0,0.0,0.06553106532911065,0.33354,9.859246597993666
3420000000.0,21.97,0.0,0.0,0.0,0.09025166785301668,0.32726133428241333,9.906530333570602
3425000000.0,21.97,0.0,0.0,0.0,0.053464699579547,0.29724313305303135,9.895346866946968
3430000000.0,21.97,0.0,0.0,0.0,0.07573306675273066,0.31392,9.882790399870904
3435000000.0,21.97,0.0,0.0,0.0,0.06013536672075367,0.3202968336037683,9.904273899837738
3440000000.0,21.97,0.0,0.0,0.0,0.06984726681787266,0.359438199546382,9.879847266817873
3445000000.0,21.97,0.0,0.0,0.0,0.07740083308500832,0.33354,9.887400833085009
3450000000.0,21.97,0.0,0.0,0.0,0.07161320103633201,0.33255893298788936,9.87965106701211
3455000000.0,21.97,0.0,0.0,0.0,0.09721703289077034,0.3228470328907703,9.88759703289077
3460000000.0,21.97,0.0,0.0,0.0,0.08672026558730266,0.31392,9.87867
3465000000.0,21.97,0.0,0.0,0.0,0.06729646539306465,0.315980301910403,9.880730301910402
3470000000.0,21.97,0.0,0.0,0.0,0.0514046696023467,0.34158399779823995,9.9081
3475000000.0,21.97,0.0,0.0,0.0,0.08583716251147162,0.31441056749770563,9.9081
3480000000.0,21.97,0.0,0.0,0.0,0.040417402784474026,0.32451493518964936,9.907707532405174
3485000000.0,21.97,0.0,0.0,0.0,0.06896436769194367,0.3430556323080563,9.897701264616112
3490000000.0,21.97,0.0,0.0,0.0,0.07848,0.33354,9.878081196632811
3495000000.0,21.97,0.0,0.0,0.0,0.07867633577236335,0.33334366422763667,9.849632671544727
3500000000.0,21.97,0.0,0.0,0.0,0.09809979605009797,0.31392,9.888479864033398
3505000000.0,21.97,0.0,0.0,0.0,0.06896409575874095,0.31392,9.86905606383916
3510000000.0,21.97,0.0,0.0,0.0,0.05905613182246132,0.2946922636449226,9.86886
3515000000.0,21.97,0.0,0.0,0.0,0.030312695176026954,0.3323630730986307,9.878375768274656
3520000000.0,21.97,0.0,0.0,0.0,0.057683005115330054,0.33354,9.888087668371776
3525000000.0,21.97,0.0,0.0,0.0,0.05886,0.33354,9.897799568468894
3530000000.0,21.97,0.0,0.0,0.0,0.07730293713202936,0.3427614685660147,9.842961188603912
3535000000.0,21.97,0.0,0.0,0.0,0.06935663133686631,0.34335,9.857676737326267
3540000000.0,21.97,0.0,0.0,0.0,0.07769526876025268,0.3343247312397473,9.85905
3545000000.0,21.97,0.0,0.0,0.0,0.09633433771474338,0.34246716885737166,9.850122831142627
3550000000.0,21.97,0.0,0.0,0.0,0.08044186209101861,0.2992046552275466,9.84041093104551
3555000000.0,21.97,0.0,0.0,0.0,0.06101806189678062,0.2855690309483903,9.86562290715483
3560000000.0,21.97,0.0,0.0,0.0,0.05886,0.3017557382974574,9.860227130851271
3565000000.0,21.97,0.0,0.0,0.0,0.05032523075415231,0.30411,9.876119538491695
3570000000.0,21.97,0.0,0.0,0.0,0.04905,0.34629334671483347,9.887106669342966
3575000000.0,21.97,0.0,0.0,0.0,0.06572713888017138,0.34482143055991427,9.863464291679742
3580000000.0,21.97,0.0,0.0,0.0,0.09339140861161409,0.3186285913883859,9.875530939074409
3585000000.0,21.97,0.0,0.0,0.0,0.0899576303656763,0.2894928910970289,9.894954739268647
3590000000.0,21.97,0.0,0.0,0.0,0.0802457302685573,0.30862280919432805,9.914378539462884
3595000000.0,21.97,0.0,0.0,0.0,0.0705338301714383,0.3059738301714383,9.933802339657124
3600000000.0,21.97,0.0,0.0,0.0,0.0922142097770421,0.2805657902229579,9.93753
3605000000.0,21.97,-0.004205408829537,0.026087322968800026,0.0,0.09035002997720029,0.2359301498860015,9.999529760182398
3610000000.0,21.97,-0.034402102291860595,0.02969988837569156,0.0,0.1571568310792683,0.011377636642276368,9.862972597601626
3615000000.0,21.97,-0.033585810569936814,0.11243523726507168,-0.004918732620678905,0.07082721696147216,-0.011281148914811488,10.016208025642982
3620000000.0,21.97,0.03630627471587132,0.12851339568024372,-0.0031513359734350326,-0.23661980162379803,0.13420206565482065,9.98540195623012
3625000000.0,21.97,0.06231702679164652,0.14327860985830862,0.0010646814098425289,-0.38994813370148135,0.30165869699168696,9.979222711233827
3630000000.0,21.97,0.07416891336342415,0.11287148674369588,0.0005536031345894786,-0.8838855830456559,0.7571398189784981,10.204364115251842
3635000000.0,21.97,0.09409312981788531,0.015363472211101209,0.0031088111140986294,-0.9422494409172945,0.6948402524401026,10.073200252440103
3640000000.0,21.97,-0.008784285144215628,-0.0957467686227441,0.0019589345329834753,-1.1567977452947773,0.41319514962365156,9.946947105081572
3645000000.0,21.97,-0.019365152281453316,-0.31358450757962497,0.004844199757368622,-0.40592916243029153,0.6817985399875854,9.962545853998758
3650000000.0,21.97,0.030154430756330404,-0.27206419801395787,0.005642641777465925,0.4012337500903375,0.9407802052468021,9.5784798879815
3655000000.0,21.97,-0.0357757420776509,-0.25905909047071835,0.0053232542185827,0.49010646409616465,0.6929752762644528,9.68531781075358
3660000000.0,21.97,-0.09271420041625235,-0.21070871704556604,0.0060472245076217315,0.8550440076487401,0.6592330663666306,9.736620417997804
3665000000.0,21.97,-0.0487361688734191,-0.1843106550900667,0.002107962315447607,0.911641805047218,0.7654749406940494,9.603498432176584
3670000000.0,21.97,-0.08916402176849253,-0.10767268336253792,0.0056214183459585045,1.4199057443958574,0.29606031102830305,9.78802816627248
3675000000.0,21.97,-0.1540413555707707,0.031909217831222456,0.0015968987962554377,1.0918460045183602,-0.05003199935452002,9.748685715438357
3680000000.0,21.97,-0.12544398041487514,0.044319029059079904,-0.0007665330925319094,0.9751165017854649,-0.33668191622421917,9.76958401515294
3685000000.0,21.97,-0.10684791288408114,0.15955942678628549,-0.0013414755991068474,0.839144393778444,-0.6439304041477041,9.89760408734374
3690000000.0,21.97,-0.042760812170479806,0.1568650158653461,-0.005429758195714635,0.2548587111585871,-0.593503208154432,9.706403676394737
3695000000.0,21.97,0.05546898699171593,0.13404965804315674,-0.0035558870834604944,0.3133352756308528,-0.32078484687174846,9.732306809586369
3700000000.0,21.97,0.11206435032814378,0.17406195161675067,-0.004258642373026915,0.0961328254996282,-0.035313915826239134,9.74525285011103
3705000000.0,21.97,0.13450303561076343,0.14958191185787498,-0.003247146022474394,0.0161890187812902,0.19423943930359439,9.537770700870507
3710000000.0,21.97,0.144943715003658,0.1762579912869939,-0.002917166773920006,-0.1218437310526373,0.40554705743287056,9.778612323737923
3715000000.0,21.97,0.1371403266150084,0.15202853299215602,-0.005472320999207546,-0.43556544318835444,0.9532435449128356,10.014636455681165
3720000000.0,21.97,0.15514545503254973,0.12049564901953307,-0.005791692748025627,-0.7012211844657118,1.7673758140621583,10.478655814062158
3725000000.0,21.97,0.10839364232660348,0.06225930709464311,-0.004152122585829742,-1.0055271706096718,1.6583740605246406,10.439796501122165
3730000000.0,21.97,-0.0836481731889617,0.0013840067824693967,-0.00031935593875289693,-0.714162203938022,0.6350907783578078,10.189059559212396
3735000000.0,21.97,-0.16809448014494632,0.009665783121453712,0.0010007560462685834,-0.49354305879313065,0.11369811764368118,9.99609200005742
3740000000.0,21.97,-0.10077545687744247,0.00588506089361958,0.001660878968055312,-0.582321091484911,0.06121345561483456,9.985405996380559
3745000000.0,21.97,-0.08290584357835543,-0.04659511602241943,0.0042799121807255815,-0.7044583550060836,-0.12507931855329318,9.952437708377676
3750000000.0,21.97,-0.08255381262366542,-0.12197288048205406,0.003193920911019225,-0.6131214308767143,-0.21091449012524488,9.829621602463517
3755000000.0,21.97,-0.032616920167940336,-0.1493298792544769,0.0031513981596914863,-0.3583590811908908,-0.05159870365438704,9.980792756427327
3760000000.0,21.97,0.01180487550709137,-0.17943442823569458,0.0053232542185827,-0.1879571898948719,0.09731549213395492,9.893971555062315
3765000000.0,21.97,0.02394016568748328,-0.21062474738760864,0.0053232542185827,0.10487087452640875,0.3159832446161325,9.75114
3770000000.0,21.97,0.04655108143144826,-0.21423176451562387,0.0053232542185827,0.4663709881586099,0.6388288110099881,9.782728712594087
3775000000.0,21.97,0.04127390130224586,-0.20176039267797544,0.003885951706366902,0.8495480530956806,0.7200534134012342,9.634397920356479
3780000000.0,21.97,-0.0033644082219642215,-0.141762978529328,0.004003119045465546,1.0740000481734004,0.694155893687859,9.576132463456625
3785000000.0,21.97,-0.024995091734184974,-0.06343883316358138,0.003641058012633157,1.2095737351908373,0.6022339149847392,9.765069758885497
3790000000.0,21.97,-0.0537898511478601,0.018021430512691672,-0.0008943226874277426,1.1047993289680933,0.372974801292148,9.723279452767594
3795000000.0,21.97,-0.06705463719753117,0.05592633454444544,-0.002129301687433,0.9673656479797565,0.16833783088027832,9.880831295959513
3800000000.0,21.97,-0.062210483816353704,0.11675260796542468,-0.0029810383832722964,0.8966303832884038,-0.03335518096705181,10.041514449980744
3805000000.0,21.97,-0.04885277881700637,0.16376290372952912,-0.0042586033748661,0.6005680521848805,-0.16961571298315714,9.937039869537799
3810000000.0,21.97,-0.020622236361683147,0.1966530924767546,-0.005067754079116908,0.4357571658081717,-0.22798425199064254,9.963232125995322
3815000000.0,21.97,0.014816096894452267,0.23972858787370468,-0.005993976208070936,0.0629776805388768,-0.18315203308382033,9.873665195658653
3820000000.0,21.97,0.05478960953581854,0.23167355214616356,-0.0049399718622515215,-0.2884169679566697,-0.06749153861841539,9.692671583811915
3825000000.0,21.97,0.08910548169325405,0.19259197742963813,-0.003885967516432079,-0.6116550602167506,0.1662822489533225,9.661379317256392
3830000000.0,21.97,0.1161167551351827,0.11766496083132483,-0.002469973810075768,-0.6655086145642861,0.6757189002386891,9.73819094878631
3835000000.0,21.97,0.12208958380005915,0.102903552783904,-0.0010646508437165,-0.7885342061635421,1.3555492265525924,10.0716400745371
3840000000.0,21.97,0.09126573677555858,0.055135571291582766,-0.00038325811423118824,-1.306690881189109,1.3188483445615835,10.439795287134652
3845000000.0,21.97,-0.05052468289514292,-0.08396831769575273,0.0013947007105620344,-1.0424065670363658,0.4037748201912482,9.90937701774377
3850000000.0,21.97,-0.12814816997344483,-0.11451316303119861,0.0024487050563814427,-0.5827116069878162,0.10300836517338365,10.109206121724462
3855000000.0,21.97,-0.033284118206210245,-0.14467234656958455,0.003502709402200891,-0.30322552754625526,0.3693453768187538,10.124015778758759
3860000000.0,21.97,-0.024459711764535663,-0.14171599493786988,0.004854824121174467,-0.15696,0.2044387505308875,9.957543749565637
3865000000.0,21.97,-0.07182125475334451,-0.16300506292444344,0.005525513436528028,-0.07484797273737971,0.13381080233560802,10.079382449854025
3870000000.0,21.97,-0.02068816547391231,-0.18101012585548518,0.0031939525311496,0.1956128282320283,0.3655206751701068,10.024249197278293
3875000000.0,21.97,-0.009324871065952882,-0.1760383125219464,0.0037262942900752353,0.3997595322150953,0.33353879572438794,9.91300515053445
3880000000.0,21.97,-0.049430394123093524,-0.1698055481562994,0.004301156692319918,0.6666897855659979,0.25113713046517133,9.911238672449587
3885000000.0,21.97,-0.03262755303289596,-0.11929421873595256,0.0010646508437165,0.9054637546146376,0.33589349446243494,9.84099899630829
3890000000.0,21.97,-0.022439188664727928,-0.04570029705445361,0.0012988822294879405,0.9529424177384241,0.22798379553133796,9.774095173324252
3895000000.0,21.97,-0.03482762423520444,0.007381966625883515,0.001682131911684362,0.8493496486885964,0.17501070262280702,9.736718770410087
3900000000.0,21.97,-0.008730104033539991,0.048573031290286284,-0.0004258767799543948,0.802456787954868,0.19816169698871697,9.670697545483076
3905000000.0,21.97,-0.008158656968229771,0.10529653551607486,-0.0017247179032728482,0.6489303622509037,0.13694638640096388,9.62361
3910000000.0,21.97,-0.016218124317518533,0.1251484327409759,-0.00038329078836590863,0.4944224810588248,0.00804412405294124,9.632439379735294
3915000000.0,21.97,0.007019239082171761,0.1584038966468107,-0.002672298376290532,0.2868422707630227,0.0,9.691005536485957
3920000000.0,21.97,0.033620758796787754,0.16554858557246074,-0.0053232542185827,0.040023886304438865,0.009418056847780569,9.782139676141298
3925000000.0,21.97,0.0512980184626077,0.15467446968303206,-0.004844136517107901,-0.09564940596039406,0.09123467724514678,9.809510491099406
3930000000.0,21.97,0.07403079093195719,0.13963902349492358,-0.002278361090027482,-0.31235085801320855,0.30352300304623003,9.91516304732893
3935000000.0,21.97,0.09568987051348883,0.11066327467100173,-0.0033323654358469465,-0.37062225859592257,0.5406326923347269,9.888086988538769
3940000000.0,21.97,0.08786479468951702,0.0884183799060327,-0.0037475377476651876,-0.45597101936341017,0.9900283377206834,9.873964720369548
3945000000.0,21.97,0.08352721872585463,0.07834030774484559,0.0,-0.72466600265716,1.2813777556402777,10.194448459490685
3950000000.0,21.97,0.004905087342187855,-0.010437635411065049,0.00010647341100598197,-0.8299226241435262,0.7278983172474832,9.594181534480215
3955000000.0,21.97,-0.10948044666562942,-0.07495432809715226,0.0010646508437165,-0.42908832450418327,0.315588698674687,9.786653582780335
3960000000.0,21.97,-0.06229413291875982,-0.07030346736344142,0.0010646508437165,-0.30254024616350245,0.41594246163502463,9.933997092389772
3965000000.0,21.97,-0.04747181140293766,-0.09614911734749203,0.0013627865129749834,-0.27762222984632234,0.22033090566190908,9.801173310461033
3970000000.0,21.97,-0.09512425629094963,-0.11571346110676661,0.0051315919603302,-0.17697116620021167,0.03257089647470896,10.076047354224974
3975000000.0,21.97,-0.04868835947819537,-0.14291020228517734,0.0022357835304737533,-0.017165569759855698,0.23445884558078847,10.082716146969462
3980000000.0,21.97,-0.023483274294011636,-0.1449640620391912,0.004216008951242847,0.22170715960087162,0.2130726588529266,9.862189818453798
3985000000.0,21.97,-0.04943401398870734,-0.1207685791770293,0.0031300566796973344,0.36944630288456304,0.1483275096153751,9.933703093750031
3990000000.0,21.97,-0.028528710366747388,-0.09787130997730371,0.0010646508437165,0.57879,0.18619372249903723,9.809411167497112
3995000000.0,21.97,-0.017083831581780264,-0.039302985210713015,0.0010646508437165,0.5778082240191823,0.17599093441150934,9.781846308775064
4000000000.0,21.97,-0.020245642112174025,-0.028762823565802027,0.0010646424116817334,0.4806910877328109,0.11772046617120467,9.908100310780803
4005000000.0,21.97,0.0019057279098012025,-0.0034494405063684626,1.0638065862354947e-05,0.616657689092477,0.17599186675391865,9.94694791116928
4010000000.0,21.97,0.007346133087218314,0.03334097163259275,-0.0010433662799570235,0.5122773432161735,0.1285106105528061,10.062706534673266
4015000000.0,21.97,0.005387116341895896,0.04959400685484115,-0.0031300904078364012,0.48157266604032667,0.11801422201344222,10.093607333959675
4020000000.0,21.97,0.02373732863325375,0.08177452334850507,-0.0021718792469867234,0.4241839314979393,0.20247910275309103,9.990895541079555
4025000000.0,21.97,0.03259583698812595,0.1043350881990296,-0.002129301687433,0.25407759274567593,0.25260789090397895,9.949301687276817
4030000000.0,21.97,0.03202084915936407,0.10345123282876023,-0.002129301687433,0.14381373894293736,0.33805330450123305,9.855125217220852
4035000000.0,21.97,0.036907647556373366,0.11225092753379051,-0.002129301687433,0.009612702749527025,0.3798435135001351,9.830993243249933
4040000000.0,21.97,0.03336228365230153,0.10017341063183603,-0.002129301687433,-0.15342973402659735,0.427716392360764,9.856695835416458
4045000000.0,21.97,0.028177425474346655,0.07871923165497666,-0.0030981424821102635,-0.2381874285541743,0.45842153570781535,9.867977178569271
4050000000.0,21.97,0.020032820854909233,0.06519318096056377,-0.0012775639375894074,-0.29822447199834473,0.44341184266721845,9.895347235999171
4055000000.0,21.97,0.008742609121231476,0.03831463306771868,-0.0020121986425994296,-0.35649587258105875,0.48510489381754895,9.88082804247298
4060000000.0,21.97,-0.0009795558028567472,0.01452374347575609,0.000681402215524424,-0.3543371211393712,0.4818671211393712,9.792341211393714
4065000000.0,21.97,-0.007686830505965381,-0.008666446387069898,0.0019909056468051865,-0.395833894788739,0.5062943368732434,9.737896105211261
4070000000.0,21.97,-0.010348423360115516,-0.049281119738170044,0.001213693382241435,-0.3094065303964653,0.5438667162194672,9.672463246615933
4075000000.0,21.97,-0.021520885564162956,-0.06716125395312819,0.002874574458305472,-0.21925278763212785,0.5493600000000001,9.66285
4080000000.0,21.97,-0.03774881680464154,-0.08803249383067091,0.0031939525311496,-0.09064329051253288,0.4504742490107425,9.720533354743733
4085000000.0,21.97,-0.05727837914621195,-0.08984499481418182,0.0014266149081491161,0.037180931500909314,0.31764668915286687,9.79665903476979
4090000000.0,21.97,-0.063339071617692,-0.08861000843614612,0.0010646508437165,0.09103711777337117,0.22190148500991486,9.946752750536827
4095000000.0,21.97,-0.05873970231379631,-0.08583125245891475,0.0027894024751284954,0.18550797494507976,0.15038674321676743,9.992662359080924
4100000000.0,21.97,-0.049008758967644325,-0.0818175101036476,0.0014904938955318482,0.26094655746306555,0.09809960181209601,9.964997681449677
4105000000.0,21.97,-0.03424951316694208,-0.06244821371900906,0.0019057336636282142,0.37542973655109735,0.12703989867349896,9.9416500405306
4110000000.0,21.97,-0.01842216921988324,-0.038412403029199745,0.00046842904340381464,0.4328175193272752,0.13734,9.891618721009086
4115000000.0,21.97,-0.00588742374673901,-0.011693654843233089,0.0,0.4338962200710622,0.1297862200710622,9.90888511971575
4120000000.0,21.97,-0.0007665225524884755,0.009241325653384124,0.0,0.43164,0.1573527201042272,9.932821360052113
4125000000.0,21.97,0.002395490484969759,0.02902499081839663,-0.000798496828323228,0.39485209938412097,0.1373396795072968,9.981675480739055
4130000000.0,21.97,0.0071332041832802805,0.048280501818306995,-0.0010646508437165,0.32451415823764157,0.14204896044058962,10.01090896044059
4135000000.0,21.97,0.017856393786515354,0.059485079431099,-0.001841854676245485,0.25398033777810336,0.21876380317413802,10.030332760634828
4140000000.0,21.97,0.030509158182433424,0.06945022886691812,-0.0013627443528011365,0.19306031751280317,0.28762968248719684,9.993250317512803
4145000000.0,21.97,0.03710992363838831,0.08000266430604243,-0.0010646508437165,0.07210229232522293,0.38072698562816987,9.941944097441741
4150000000.0,21.97,0.03685435498864009,0.07339447183438289,-0.00031938650487887965,0.0019616775649167785,0.4669566448701664,9.872783355129833
4155000000.0,21.97,0.02813478572853647,0.07144106494943657,-0.0007346178409404988,-0.07073082635300827,0.5175759228235592,9.774781212235212
4160000000.0,21.97,0.013632984169676421,0.05867570843993989,-0.0017886221867598772,-0.1714796888330969,0.52974,9.727988238393982
4165000000.0,21.97,-0.0021826659274618698,0.04077790655488934,-0.0007026519971404886,-0.20601,0.49030331459923315,9.72171
4170000000.0,21.97,-0.01308550200117703,0.02742146931542496,-0.0007026783472491342,-0.24485808598348086,0.43850659501376593,9.74113404299174
4175000000.0,21.97,-0.02013940704438027,0.010971853781531475,0.00031941285498752526,-0.2776231621887316,0.39632367562253673,9.763893162188731
4180000000.0,21.97,-0.021693735659112347,-0.00459940619404774,0.001746036195171391,-0.2782115188085152,0.3888684811914848,9.789595443574454
4185000000.0,21.97,-0.024664164434639674,-0.023007630383515516,0.00011708512675969156,-0.2561388561341886,0.36767847484558475,9.794009618711398
4190000000.0,21.97,-0.029934186163736762,-0.04344490370401076,0.000255533867604796,-0.1965917489142175,0.32883087445710873,9.802544562771446
4195000000.0,21.97,-0.035853653750597445,-0.057632605661069314,0.0004152049859529735,-0.14283327406863275,0.2959674555514746,9.80401581851716
4200000000.0,21.97,-0.03706728494658253,-0.07329351611884849,0.0006387993598664049,-0.06866918420039184,0.26683175526011754,9.823734326319844
4205000000.0,21.97,-0.0362155819788823,-0.07718660924029991,0.002320956567655126,0.05738972515619725,0.22612009161460092,9.885733853416639
4210000000.0,21.97,-0.033745556522593534,-0.06591537654818708,0.00257644616707738,0.15754917241939173,0.19463023645160235,9.95773917241939
4215000000.0,21.97,-0.02588837994226547,-0.05358675517141547,0.0015224418212579597,0.19757356374263563,0.17520643625736437,9.997763563742636
4220000000.0,21.97,-0.014742349126149438,-0.04542179119668914,0.0016608642119944187,0.24995945574749456,0.1942384098421841,10.006200000000002
4225000000.0,21.97,-0.006068456371163907,-0.040846786430039056,0.0009581679466714055,0.29528116413111166,0.2535890744588908,9.990013253803333
4230000000.0,21.97,-0.0026190321586658702,-0.029635888177809037,0.0011498407449673513,0.34119237513872375,0.3003824464880245,9.939687624861277
4235000000.0,21.97,-0.005514944934952484,-0.007758646785386283,0.0010007539382598917,0.3935775290391753,0.3035212354804123,9.856106177402062
4240000000.0,21.97,-0.0085172067497323,0.014232972013910532,0.0005536273766894326,0.3712097411446974,0.28409743528617437,9.81
4245000000.0,21.97,-0.006888264113355316,0.028326599763414805,0.0005216699649241889,0.30352090527580905,0.27468,9.81
4250000000.0,21.97,-0.0047909198376874605,0.038344973256684796,-0.0005323343808951895,0.2501545872442459,0.27958508255115083,9.829620330204603
4255000000.0,21.97,-0.0042586033748661,0.045241753794269354,-0.000542962960718432,0.21601603470346034,0.26045508675865087,9.892502843834428
4260000000.0,21.97,-0.0042586033748661,0.05096787478937537,-0.0005110413851009464,0.16363005529150054,0.22131335176383352,9.946947765490778
4265000000.0,21.97,-0.003758208487662275,0.0553967504583,-0.0010646508437165,0.06700138873241389,0.20139921715749218,9.98020391421254
4270000000.0,21.97,-0.0017247073632294442,0.050491237903112975,-0.0010646508437165,-0.008240731758507317,0.20071268293962682,10.006200000000002
4275000000.0,21.97,0.0038328151312767888,0.0365880565746514,-0.0005855489523069182,-0.06916124733071248,0.24132666429396665,9.988541667853017
4280000000.0,21.97,0.012740984887959559,0.015383115344518975,0.0,-0.10908703373227034,0.31470538193705383,9.94106110119681
4285000000.0,21.97,0.016277776989377133,-0.0003087758431295159,0.0,-0.08122646707606468,0.3911254490788545,9.916536766461968
4290000000.0,21.97,0.011157486582005572,-0.007949743388880192,0.0,-0.038258583359485836,0.44969056665620566,9.923599716671898
4295000000.0,21.97,0.0013413333085201973,-0.011178385051878039,0.0,0.006278733700887339,0.44498126629911267,9.905843449724333
4300000000.0,21.97,-0.012569970194708924,-0.00638795038448605,0.000425869401923974,0.017657749432977494,0.4139818329553183,9.861011415343613
4305000000.0,21.97,-0.021076265131187943,-0.01165797211358314,0.0014798737477433525,0.0,0.40603598361945986,9.804506065522162
4310000000.0,21.97,-0.02318427382282676,-0.016530049836650972,0.002129301687433,0.014911534866315348,0.40829211628342116,9.765658465133685
4315000000.0,21.97,-0.028049791872093933,-0.01839330866295238,0.0009475119627351718,0.04286978381369784,0.380431297117813,9.72318108093151
4320000000.0,21.97,-0.03561941393279122,-0.014745882995375915,-0.001447934254051988,0.06317673564326735,0.3186282126242821,9.699343367821633
4325000000.0,21.97,-0.0398354313160689,-0.006174865487904865,-0.001011390950117901,0.06768849595238496,0.24034415992064156,9.725634336031742
4330000000.0,21.97,-0.0426034870411815,0.0014053208583505103,0.0003406700146340104,0.02275903178989032,0.1532316112646161,9.771152904630329
4335000000.0,21.97,-0.03909004787474013,-0.0021080634998648052,-0.0003619630104282535,0.006572615797826157,0.09819784739347848,9.83589907361739
4340000000.0,21.97,-0.026846517322810882,-0.00911348441227531,0.0010646508437165,0.0,0.07848,9.894758568598585
4345000000.0,21.97,-0.01004088870213635,-0.016230726166264673,0.0007345999228666198,0.027370659567706596,0.10280947517129474,9.905058815603587
4350000000.0,21.97,0.007032041744664034,-0.014065461574092074,0.0,0.10300542246765422,0.18639084493530844,9.90123308449353
4355000000.0,21.97,0.016295973873323665,0.0009582775631234576,0.0,0.11742510786545107,0.26928492295324924,9.88818510786545
4360000000.0,21.97,0.015854534010774097,0.006430426759622607,0.0,0.0631762306244623,0.33157884687768846,9.842176884687769
4365000000.0,21.97,0.011625950407552797,0.000489720985193712,0.000287464929261394,0.051698784784887854,0.41545392392443925,9.84924
4370000000.0,21.97,0.006579477730182314,-0.002171924569173642,0.0007878324123522275,0.07671479417404795,0.4563613697640137,9.839037260471972
4375000000.0,21.97,-0.0007985526905536064,-0.00239536295044394,0.0,0.14469809485388097,0.4586170751043708,9.822262924895629
4380000000.0,21.97,-0.01022497553741652,0.014568907942107186,0.0,0.19149102984751032,0.405348604466286,9.875531395533715
4385000000.0,21.97,-0.02482391038729647,0.03998442747840266,0.0,0.13145229653272295,0.32157060757290606,9.93900192586682
4390000000.0,21.97,-0.03325586188750849,0.03436293219012688,0.00023423243977578628,-0.034727996893379964,0.21366171472951714,10.002669423245795
4395000000.0,21.97,-0.03229759275641982,0.01398174760722188,0.0006174789599591705,-0.09241037073520371,0.19982944389719443,10.08418907316199
4400000000.0,21.97,-0.02535613409773534,-0.010646554813356555,-0.0006387719557534136,-0.08240288895862889,0.17265582907055826,10.043477914535279
4405000000.0,21.97,-0.0245044226980003,-0.013489061189440491,0.0008623578976320783,0.015892028876320286,0.1606879711236797,10.01885412994344
4410000000.0,21.97,-0.021626584230138447,-0.008794081043326855,0.0,-0.0017658856589588567,0.1836435426358354,9.940276457364165
4415000000.0,21.97,-0.00634520734625009,-0.01689907847752338,0.00036199990058035714,-0.004806642731766428,0.227494500292545,9.903096642731766
4420000000.0,21.97,0.004769663732045287,-0.028166905456970977,0.001958948235039943,0.022759371706393715,0.3033262302383623,9.867682199027621
4425000000.0,21.97,0.006973435042527879,-0.038613804443116434,0.0009049438892205644,0.05395585950315859,0.4110395157018952,9.796755726447158
4430000000.0,21.97,0.0018736360692850063,-0.05011350792072423,0.0002981209131976279,0.15519531861665317,0.45557605581026056,9.728577430237173
4435000000.0,21.97,-0.01471587462771237,-0.03520402344207334,0.0019908877287313077,0.2623192277108923,0.41417768313267683,9.766933841566338
4440000000.0,21.97,-0.02859274745478202,-0.020414003392680895,0.0009368833829119291,0.24995914496669144,0.3559062825499628,9.753102862416728
4445000000.0,21.97,-0.03561941498679552,-0.012200767487610654,0.0,0.28017325464483256,0.29547650928966507,9.843746745355167
4450000000.0,21.97,-0.03951600897504224,0.00202292102880949,0.0,0.24328782712817826,0.21680022207680222,9.87965108643591
4455000000.0,21.97,-0.04009087348529566,0.011510531091464833,-9.582796711320625e-05,0.22386402693394028,0.1320420808018208,9.891128959599088
4460000000.0,21.97,-0.03502304140985706,0.020756908138430726,-0.0009794693745004152,0.20208556684925566,0.0808346598904466,9.9163402267397
4465000000.0,21.97,-0.020265758683609456,0.026559189414114438,0.0,0.15146570618185706,0.1099703601818036,9.897603213272731
4470000000.0,21.97,-0.005812908801502608,0.025888515908826123,0.0,0.0802460604731606,0.1408721209463212,9.884359192229292
4475000000.0,21.97,0.003406920433248485,0.03142474751554682,0.0,0.10349471770644718,0.19767176076451762,9.819319413078494
4480000000.0,21.97,0.007750724249408902,0.041155476898816594,0.0,0.018442538944125387,0.22876989614899895,9.808037564906876
4485000000.0,21.97,0.0149051118120315,0.03214867248239897,0.0,-0.01010438711574387,0.3055819355787193,9.761244387115743
4490000000.0,21.97,0.014777296921031363,0.037982741475148345,0.0,-0.02079772327717723,0.35355257442572574,9.772526584915765
4495000000.0,21.97,0.00836802297462502,0.020235163339197965,0.0,-0.07789087614010876,0.37219087614010876,9.860228247719782
4500000000.0,21.97,-0.006387990592160049,0.0191812443677305,0.0,-0.019620524442605244,0.31391965037159647,9.976770262221303
4505000000.0,21.97,-0.01589130846430234,0.02761327913428592,0.0,-0.07789192502531925,0.27507204998312046,10.005905962512662
4510000000.0,21.97,-0.015987215948268,0.015160862839089064,0.0,-0.08809388760133888,0.2362244495946445,10.073497213209373
4515000000.0,21.97,-0.01701993678433234,0.021118366678188782,0.0,-0.11683736309537364,0.21640842460308427,10.093901575396917
4520000000.0,21.97,-0.018073941130151726,0.012095045806327087,0.0,-0.21189687795576878,0.2534907511823075,10.009730809839809
4525000000.0,21.97,-0.01304279765008411,-0.01256310888559907,0.0,-0.20650041210730413,0.29233835157078353,9.959602060536522
4530000000.0,21.97,-0.004769559385615053,-0.03687483809440652,0.0,-0.14145958407129583,0.3865148798981488,9.846492144122221
4535000000.0,21.97,-0.009209277597245094,-0.04428569273317016,0.0,-0.06435289530452894,0.3924,9.739072731043727
4540000000.0,21.97,-0.019392798245245108,-0.04670782260778142,0.0,-0.004708270895682709,0.3924,9.767621152736211
4545000000.0,21.97,-0.02896539596126814,-0.04881722740593073,0.0,0.0,0.35669124687531245,9.779687188281173
4550000000.0,21.97,-0.042284216476780705,-0.06721455706090496,0.0,0.035316353513163534,0.29135638135196384,9.807057265134873
4555000000.0,21.97,-0.04936896458997423,-0.08441352666056424,0.0,0.17893581560655816,0.2408350576229506,9.87984790780328
4560000000.0,21.97,-0.051010398594707455,-0.07596779325870766,0.0,0.2997946628703466,0.18364266856482667,9.914378665717585
4565000000.0,21.97,-0.0474331236550615,-0.06529790707426703,0.0,0.33952436600894365,0.1595104226607042,9.892305633991056
4570000000.0,21.97,-0.03770844012711317,-0.048348598101701216,0.0,0.4024068213673682,0.14852331123323312,9.837859867399398
4575000000.0,21.97,-0.025356027643296405,-0.03765539165641909,0.0,0.42869717772777177,0.19718153318331533,9.796265644544457
4580000000.0,21.97,-0.012693314569473212,-0.015631644696652944,0.0,0.505804400649044,0.20601,9.79038
4585000000.0,21.97,-0.0106465084371654,0.013046083344484049,0.0,0.5117876109418761,0.2141523890581239,9.733383276593132
4590000000.0,21.97,-0.016771983868902954,0.04519455389001767,0.0,0.4457656867580569,0.15950997591329977,9.761931445776213
4595000000.0,21.97,-0.017254140765990796,0.06407380012908884,0.0,0.3442319182240192,0.09947286448582865,9.818437135514172
4600000000.0,21.97,-0.00681713953724543,0.07904609773754742,0.0,0.21385674910726749,0.08829,9.892404714795846
4605000000.0,21.97,0.004152235364294737,0.08455372646548173,0.0,0.13989006332040063,0.11153996833979969,9.946849947233
4610000000.0,21.97,0.008879217190356094,0.09934186276720561,0.0,0.03570732547537325,0.1100681104562811,9.980105668631158
4615000000.0,21.97,0.012041230227814326,0.10004432820557688,0.0,-0.11860442389424423,0.13812515856335159,9.98658
4620000000.0,21.97,0.026544529250389696,0.08369114511892828,0.0,-0.2538839665934397,0.24407396659343966,9.964212930786129
4625000000.0,21.97,0.03648181293659285,0.049265920408025465,0.0,-0.3065627695052277,0.38504384752613846,9.913004460989544
4630000000.0,21.97,0.03282992397530202,0.030743169281296626,0.0,-0.2485845906102459,0.4871654093897541,9.89829
4635000000.0,21.97,0.014558284079385368,0.02458955568301653,0.0,-0.2471141700879417,0.51012,9.89829
4640000000.0,21.97,-0.006813961022992388,0.01499506304832392,0.0,-0.33275619139076196,0.4748035493678355,9.919479870379298
4645000000.0,21.97,-0.022615056702415773,-0.013246325111717722,0.0,-0.32117885865868856,0.43320923910579234,9.976476331564863
4650000000.0,21.97,-0.03408637831385334,-0.038345079711123685,0.0,-0.2766416387173164,0.4080958193586582,9.975788729037987
4655000000.0,21.97,-0.049780796969365694,-0.0616410662450507,0.0,-0.21748706707547066,0.34128908623989085,9.96019100958221
4660000000.0,21.97,-0.059740584840586475,-0.07431688660590084,0.0,-0.10280753279127533,0.26722376639563766,9.930466437940364
4665000000.0,21.97,-0.05750470012569546,-0.07742054652430137,0.0,-0.0062776751037767545,0.2518227906120279,9.85218209387972
4670000000.0,21.97,-0.04765575771006464,-0.07143623752313896,0.0,0.07141752567317525,0.22268654645426547,9.80038592787256
4675000000.0,21.97,-0.04921574591344351,-0.0660964618728293,0.0,0.09172340919373409,0.17412704596867046,9.771250227581202
4680000000.0,21.97,-0.05356557073806884,-0.0745291879971205,0.0,0.14479641813046418,0.11301056367630563,9.792342454516925
4685000000.0,21.97,-0.049636920261648405,-0.0799011731563004,0.0,0.26310547400705475,0.08210960899949608,9.81
4690000000.0,21.97,-0.04158797522781036,-0.06734857716922785,0.0,0.3686606198786062,0.07239770890237708,9.834329164390493
4695000000.0,21.97,-0.03509764910747592,-0.04795466275065928,0.0,0.43213095597370954,0.03276485283154853,9.873176764778968
4700000000.0,21.97,-0.027911226136766457,-0.025781775834720633,0.0,0.4571460912918609,0.021582182583721826,9.870821726124417
4705000000.0,21.97,-0.010046585025426429,-0.007810917435430597,0.0,0.46685799138897993,0.1104618794457188,9.8301100430551
4710000000.0,21.97,0.01174276401588157,0.006515802165638339,0.0,0.4253608681112087,0.24073858931928588,9.81
4715000000.0,21.97,0.0202458193231342,0.013382671044777843,0.0,0.4539097074153971,0.31107537474965374,9.787632833667129
4720000000.0,21.97,0.00890797129284809,0.038901014718016394,0.0,0.4893226166393262,0.2962615415983154,9.792734766721347
4725000000.0,21.97,-0.005270111319466452,0.07148279680009346,0.0,0.39975612333816124,0.2423064493352645,9.847769142442191
4730000000.0,21.97,-0.011881543299400993,0.09007937481456602,0.0,0.23288765438307654,0.1840350487525505,9.9210499349966
4735000000.0,21.97,-0.013276186039724048,0.0946784869414013,0.0,0.08995668831136688,0.1309630401415304,9.998745135773552
4740000000.0,21.97,-0.008346782679048016,0.0899088411274298,0.0,0.0035309555183095573,0.11811258413762585,10.025427415862374
4745000000.0,21.97,-0.00045772984528940014,0.0906116206590962,0.0,-0.10447788248897881,0.15754915299559152,9.985990847004409
4750000000.0,21.97,0.010123039995252025,0.08628893803602161,0.0,-0.23053601489356015,0.23544092263050925,9.922814354158643
4755000000.0,21.97,0.017573555728987014,0.07674121428691828,0.0,-0.29410398472033983,0.31813894652118946,9.87886601527966
4760000000.0,21.97,0.012486673060639303,0.06996108369324988,0.0,-0.38416117177391174,0.32961553771355534,9.892404462286445
4765000000.0,21.97,-0.00462900885643191,0.0439537753088539,0.0,-0.5215987180984872,0.2856668297823683,9.927131585108816
4770000000.0,21.97,-0.016064339225963887,-0.003278211314594121,0.0,-0.5607392293938923,0.2784080779545808,9.95106807795458
4775000000.0,21.97,-0.011551391194133872,-0.04671057910560596,0.0,-0.46008733052437334,0.3252021492405215,9.98903296374323
4780000000.0,21.97,-0.011676343547560874,-0.07682543680224607,0.0,-0.3198050715423507,0.38455246422882466,10.01601
4785000000.0,21.97,-0.023461206086660396,-0.09788014586852234,0.0,-0.18893892702808926,0.40358321411423215,10.003354821171348
4790000000.0,21.97,-0.03329846895918383,-0.10580356403017119,0.0,-0.03472619047996191,0.40064058608000586,9.970098827839989
4795000000.0,21.97,-0.036460481996642105,-0.10288697476423882,0.0,0.08348412450834125,0.41604219313712193,9.891029296080294
4800000000.0,21.97,-0.04686927426776617,-0.10140709996249102,0.0,0.19031502557665025,0.3943613473603135,9.794303627063035
4805000000.0,21.97,-0.0687970878599845,-0.09929909127085221,0.0,0.3009719199763192,0.2842921200355212,9.76693400666864
4810000000.0,21.97,-0.08390428060771819,-0.0846425488976773,0.0,0.4026031474278315,0.12811738542977386,9.775861573713916
4815000000.0,21.97,-0.08088472890564959,-0.05614602212166044,0.0,0.44763020647440205,0.016381858269618584,9.803819793525598
4820000000.0,21.97,-0.06812983230072331,-0.041283228549555955,0.0,0.43438661275456614,-0.05336677449086774,9.81
4825000000.0,21.97,-0.04964128297570216,-0.02956136163852481,0.0,0.46303312463803126,-0.06474562512065625,9.782531250241313
4830000000.0,21.97,-0.027591757419548637,-0.0025176923535806493,0.0,0.5162015432813155,-0.03590450618304506,9.72484901236609
4835000000.0,21.97,-0.010370552596046249,0.02877364200463756,0.0,0.42555648520296485,0.0029439391407393885,9.692475636515557
4840000000.0,21.97,0.008310014843284768,0.0283372167491902,0.0,0.36179364610073644,0.1000629401119294,9.656179294011194
4845000000.0,21.97,0.0191811684794176,0.04120384458804715,0.0,0.4096652235667522,0.16372880589168806,9.684138358758183
4850000000.0,21.97,0.01694009398535784,0.06977502859988709,0.0,0.34727286953482867,0.14224452897284529,9.766837130465172
4855000000.0,21.97,0.011093641322761905,0.0878008619479127,0.0,0.2051251196464512,0.12213497151274971,9.900449897445899
4860000000.0,21.97,0.014356544381909895,0.07942760406199839,0.0,0.045125528001655285,0.1899227327960273,10.031313788799338
4865000000.0,21.97,0.027496122335230647,0.0640843833867252,0.0,0.028351561477515615,0.29587035597430356,10.061332766980728
4870000000.0,21.97,0.02761312103363398,0.07611960948742301,0.0,0.05297305406093054,0.3608120837817208,10.086445137842652
4875000000.0,21.97,0.017047338875708695,0.09560488614308539,0.0,-0.04905113629231136,0.38013740530897405,10.016009242471792
4880000000.0,21.97,0.0004257060312503518,0.10285498362433451,0.0,-0.1867843905510439,0.3610075260592753,9.950086515635565
4885000000.0,21.97,-0.014408853615424865,0.08991518334803884,0.0,-0.3817087130494871,0.3147044204589442,9.92095081534421
4890000000.0,21.97,-0.02578210679208521,0.04902185044460615,0.0,-0.5209114749119148,0.28233170501761706,9.91339806487668
4895000000.0,21.97,-0.034757041279098254,-0.007158449228844849,0.0,-0.5303272688869727,0.26437902460249024,9.958719219681992
4900000000.0,21.97,-0.03664141132864111,-0.038348581079002984,0.0,-0.41201952411689524,0.2295541903532419,9.917909524116896
4905000000.0,21.97,-0.033681692291271645,-0.0578242784593653,0.0,-0.3448200708939007,0.24525,9.88612598109496
4910000000.0,21.97,-0.032723568612782715,-0.06970888236276272,0.0,-0.22033231388742314,0.24525,9.903782837033127
4915000000.0,21.97,-0.03784755824711168,-0.08068924271963039,0.0,-0.19453220453202205,0.24691779546797796,9.83943
4920000000.0,21.97,-0.046325956384043326,-0.1078010773684504,0.0,-0.1549960886980609,0.2581993911301939,9.831581522174515
4925000000.0,21.97,-0.05012680145550272,-0.1467960696711966,0.0007985400425014365,0.04954308287983083,0.2702652130133521,9.79038
4930000000.0,21.97,-0.05616327828081017,-0.13851065278392297,0.004727008176170033,0.2939089406306894,0.23700902544399025,9.789006504240666
4935000000.0,21.97,-0.055024174678113616,-0.1275165532730624,0.0010646508437165,0.4362525212726252,0.17746222900482228,9.789497770995178
4940000000.0,21.97,-0.05939981680354826,-0.09322820516048974,0.0009368823289075832,0.59841,0.10947892832498929,9.858658367628584
4945000000.0,21.97,-0.056940442061174004,-0.06334753247342988,0.00011712201691179515,0.6059643723548437,0.04689160789861608,9.925561607898617
4950000000.0,21.97,-0.05060391964161843,-0.038236349607698276,0.0009581753247018263,0.6660989038521892,0.034335480739054805,9.902213423113134
4955000000.0,21.97,-0.03573643687329452,-0.006408968285146083,9.582902111755206e-05,0.6599189887347899,0.0714160300405603,9.84394202253042
4960000000.0,21.97,-0.030977510283520034,0.019081848319446544,0.0008942857972756389,0.6843453109738532,-0.003139585368195854,9.785670621947707
4965000000.0,21.97,-0.030241428119525442,0.07009179455622334,-0.000990114818393191,0.640100089020801,-0.038553203560832035,9.734267185756671
4970000000.0,21.97,-0.006430323467196672,0.10992051865516206,-0.00025555810970475577,0.40083476581054767,-0.027663910391139104,9.773114786145147
4975000000.0,21.97,0.01011516072528914,0.11265658745638776,-0.00431184640439517,0.22072403366594034,0.001471789900217899,9.816377756234278
4980000000.0,21.97,0.02037360891803004,0.10832368942319348,-0.005195464623686859,0.12596001307790014,0.02943,9.940277477113675
4985000000.0,21.97,0.023631472056692745,0.125986163032245,-0.002097351653698177,0.08093007930890078,0.03149077779350778,10.00678879365529
4990000000.0,21.97,0.029891587524096108,0.13491831021283957,-0.0010646508437165,-0.15970815694668156,0.09947407847334079,10.026016296924762
4995000000.0,21.97,0.033106885751257344,0.11691480532484479,-0.0010753078816570798,-0.2951837731969377,0.16824295532822955,10.035433605956236
5000000000.0,21.97,0.041538878530426426,0.09054736521937445,-0.002129312227476458,-0.38259048559500486,0.31392174814201745,10.016009223047991
5005000000.0,21.97,0.04577217467347163,0.05890995608502433,-0.0031833165732959353,-0.4311499860805999,0.4887359498901595,9.93831402227104
5010000000.0,21.97,0.035364104585390785,0.03666286244236602,-6.384736725235669e-05,-0.5373928704456288,0.7596891247706914,9.93753
5015000000.0,21.97,0.014479563466742788,-0.011306554831325012,0.0,-0.6537395689242957,0.6224430388446305,10.03268797410358
5020000000.0,21.97,-0.0689811564661731,-0.057780638048740694,0.001022075392171472,-0.3841567722831677,0.3260813772682138,9.837858352342984
5025000000.0,21.97,-0.07952774701923088,-0.05662106715034296,0.0020760797379908505,-0.30754281676782813,0.3418787928137879,9.988053159278131
5030000000.0,21.97,-0.06687459573460283,-0.09050440904763662,0.004130866480187552,-0.27644550689485503,0.20502753447427535,9.88573202757942
5035000000.0,21.97,-0.09972411117983096,-0.1154663406819829,0.0032684674763859924,-0.15607582861515829,0.07759582861515828,9.842176408804665
5040000000.0,21.97,-0.062083718247155514,-0.13678725119384796,0.0031939525311496,0.006280064231200644,0.21307476633524763,9.803328808416188
5045000000.0,21.97,-0.049871116865276455,-0.1287875644483552,0.0022251096284636447,0.18923676186836763,0.14528521806235217,9.719845218062352
5050000000.0,21.97,-0.07104736270614267,-0.13166070003521976,0.002129301687433,0.25898458854114587,0.07553631336866312,9.729558196180381
5055000000.0,21.97,-0.06970561517391453,-0.13587671741849747,0.002129301687433,0.48314495468274954,0.05993900181269002,9.75771299456193
5060000000.0,21.97,-0.0701741148356095,-0.09697981891574786,0.004003108505422087,0.6482463725508638,-0.06200057598200575,9.75231710171557
5065000000.0,21.97,-0.07215437609252634,-0.06844072512022074,0.0024060895526712566,0.6414756048553562,-0.15529318543393186,9.785279193526193
5070000000.0,21.97,-0.04036978948898059,-0.0475670001941695,0.0002980808610324867,0.705143587829336,-0.08240301521333014,9.807253396957334
5075000000.0,21.97,-0.004367322540836677,-0.0012796853200411767,0.0,0.79951598575786,-0.026977007121070068,9.81
5080000000.0,21.97,0.00821919018296486,0.05471036748476369,0.0,0.7071035172522353,0.03806349071033492,9.818240498672905
5085000000.0,21.97,0.016665711358036774,0.09132224212132553,-0.000883670919508892,0.6134184110697841,0.12233158893021587,9.81981
5090000000.0,21.97,0.009371961543818893,0.1222676067582715,-0.002810699686940123,0.4616569192585692,0.08907420679714206,9.811765701132858
5095000000.0,21.97,-0.0003088454074163015,0.13732820891993783,-0.00233157460743487,0.2886084186432842,0.046695204142952036,9.794107602071477
5100000000.0,21.97,0.004684549719107379,0.15233249837672996,-0.002129301687433,0.12164231595652317,0.03139190093861901,9.806076198122762
5105000000.0,21.97,0.025746646681976182,0.15468520471729422,-0.0029703866153534845,-0.12870997643799975,0.1146799907434999,9.871999993268
5110000000.0,21.97,0.040857588920579405,0.1361783795962307,-0.0031939525311496,-0.23230139553371396,0.21385899255618995,9.942043294789332
5115000000.0,21.97,0.041208762088519535,0.1384134335483521,-0.00237416059902336,-0.3358955922328559,0.27320899676369,10.002472796116427
5120000000.0,21.97,0.027527858406083308,0.12118842273243566,-0.0013201562532039587,-0.5791852840458529,0.4559710873467109,10.053288497249286
5125000000.0,21.97,0.01703869021713093,0.0655189899458907,-0.0002661519073845803,-0.8313999886743999,0.502762400453024,10.28578798640928
5130000000.0,21.97,-0.035543275475287114,-0.026676651148722072,0.0,-0.7983365046267651,0.27526551103305513,9.931049520998396
5135000000.0,21.97,-0.06026230223570628,-0.072710338365302,0.0,-0.5073696093162962,0.239168398447284,9.902313795600639
5140000000.0,21.97,-0.022963082250525325,-0.08220085148422214,0.002299678327921737,-0.419083299838333,0.361009497574995,9.890833601293336
5145000000.0,21.97,-0.03620203183724252,-0.10654081898998494,0.0031939525311496,-0.28949120122641203,0.27683640116186403,9.889755599806355
5150000000.0,21.97,-0.06359478993605731,-0.12207888670995341,0.006175018318534918,-0.16676899967428999,0.239364200065142,9.980695200390851
5155000000.0,21.97,-0.06148642288294087,-0.14007302376283137,0.004514076110218869,-0.042573998184339976,0.24525,10.049855000648451
5160000000.0,21.97,-0.08070507099663049,-0.17091207519743187,0.004641899433253806,0.08005080272170803,0.15185739682467397,10.011692798185528
5165000000.0,21.97,-0.09232565939033724,-0.19000661051535284,0.003183273359117724,0.3806320129571201,0.114482800323928,9.92085199676072
5170000000.0,21.97,-0.07931453527927407,-0.15238998774786572,0.0028319821426908915,0.6849369113682692,0.06592239663162397,9.817258295368484
5175000000.0,21.97,-0.07104709604304313,-0.08947713986762415,0.003885986488510304,0.7749900000000001,-0.01814940466349406,9.767816798963668
5180000000.0,21.97,-0.06076243783784102,-0.05074344042583459,0.0028958284559388705,0.731040495693005,-0.06788550184585501,9.78606400246114
5185000000.0,21.97,-0.049360081804201594,-0.02408857544326804,0.00011707880273361662,0.7434024042744241,-0.10938200356202003,9.83109200356202
5190000000.0,21.97,-0.04647498732852044,0.0066332886261511355,-0.0010646508437165,0.740850796761908,-0.1822707072857071,9.861404601619046
5195000000.0,21.97,-0.03907552143133723,0.045169733798270814,-0.0010646508437165,0.707987397280074,-0.23377260271992603,9.880828401813284
5200000000.0,21.97,-0.012995359696359194,0.09055166588540182,-0.0004258493758414034,0.6376489899623898,-0.21581949498119496,9.841391191969912
5205000000.0,21.97,0.01615066774564712,0.1417750511642201,-0.0025126198799119586,0.5173779845876798,-0.16147199339471993,9.79263599669736
5210000000.0,21.97,0.045169101637565975,0.18567653909719017,-0.0036410949027852464,0.2789931616640316,-0.0463015808320158,9.774880098802
5215000000.0,21.97,0.06708677062802218,0.19162144236617187,-0.004407676479517121,-0.059746647919366486,0.13704782719747827,9.787535403885354
5220000000.0,21.97,0.06753366003861487,0.15684385576049326,-0.0053232542185827,-0.2927318194913182,0.2640859097456591,9.789202597215526
5225000000.0,21.97,0.052299465261855575,0.12532579768945878,-0.004152116261803667,-0.38013800744678006,0.3536516163829162,9.80754800744678
5230000000.0,21.97,0.03331953323603506,0.10624845389084726,-0.0026190300506571786,-0.4604825174512252,0.4816725237971253,9.856107507932375
5235000000.0,21.97,0.0250686986805956,0.08734289495164545,-0.0010007497222425084,-0.5985098286210984,0.7261396572421966,9.977458631988286
5240000000.0,21.97,0.019470073316845526,0.04892237835250039,-0.0005536294846981242,-0.7993212427371125,0.7553674554821745,10.044654792877148
5245000000.0,21.97,-0.03994155880630436,-0.012924162082931807,0.0011072811034875615,-0.7572307417872074,0.367477098597071,10.010810394366503
5250000000.0,21.97,-0.0942740148817018,-0.048476575309370606,0.0026616160422456687,-0.5836944901252449,0.15205591777455918,9.962054286175343
5255000000.0,21.97,-0.07449436474753894,-0.08976031100780456,0.0026509916784398084,-0.56397700207207,0.20100700207207003,9.91329899378379
5260000000.0,21.97,-0.07875125123571958,-0.14478585516585987,0.004216039517368924,-0.40416842407838427,0.07416073926270739,9.921834510845946
5265000000.0,21.97,-0.10265123205718678,-0.16786330502620256,0.0053232542185827,-0.17491117507061177,-0.03639438413584384,9.915064384135844
5270000000.0,21.97,-0.07627288722275463,-0.18704439910328072,0.005813004715898094,-0.004902440914324402,0.02256351181713512,9.874157297636573
5275000000.0,21.97,-0.05710028076621322,-0.19979742766693098,0.005908801062880926,0.25996807381638076,0.0313915901578159,9.895347614763276
5280000000.0,21.97,-0.05991082551451451,-0.18608739114886746,0.004854796717061504,0.5211095588262956,0.027076010230660103,9.906137487211675
5285000000.0,21.97,-0.051567004000200346,-0.1611361007423967,0.003342981367617996,0.6980808318574083,0.08279722123827221,9.861796389380864
5290000000.0,21.97,-0.04993577153074271,-0.14035808573497194,0.002129301687433,0.8558266605418666,0.08632697248096972,9.822948788992388
5295000000.0,21.97,-0.05771766697378999,-0.09968483502106978,0.0016927836796032127,1.0654662598294626,0.017363391452933915,9.78007898575489
5300000000.0,21.97,-0.051769833192594164,-0.019389523712924087,0.0006387793337838342,1.1516930734847306,-0.03139282356912824,9.762912308838423
5305000000.0,21.97,-0.04307188868047238,0.06047177649353144,-0.0008304500240710883,1.0183739360915394,-0.13587004564890046,9.78057
5310000000.0,21.97,-0.03521466466994878,0.11149262008123968,-0.002129301687433,0.8628867748769677,-0.24054161256151613,9.814121128263412
5315000000.0,21.97,-0.016778966077494926,0.16963576523127502,-0.003311097736156977,0.6835570834500709,-0.261240196762502,9.879749409712494
5320000000.0,21.97,0.006138851662660292,0.2060682771145922,-0.00570653973692688,0.3445237899576379,-0.23740148332691485,9.912416813338467
5325000000.0,21.97,0.024132008180478944,0.2084210993956345,-0.0063879050622992,0.08583594852395948,-0.17854117254611174,9.910061172546111
5330000000.0,21.97,0.044888010099796115,0.21424495297826412,-0.005301927494649357,-0.08986208469252084,-0.08416845412488455,9.849043489413434
5335000000.0,21.97,0.06598534204781296,0.2195145362415534,-0.0031939525311496,-0.37150874141298745,0.05179845801558458,9.823145192748052
5340000000.0,21.97,0.07917722183933952,0.18203221056090818,-0.0031939525311496,-0.6969046819080469,0.33276100849321005,9.828835822338558
5345000000.0,21.97,0.08617218070461348,0.11836786338776072,-0.0035240055600081715,-0.9136076878648769,0.8887922292127223,9.993549356628693
5350000000.0,21.97,0.07935764232914212,0.0520917474936333,-0.0023421641890973683,-1.139924494015945,1.1242199727948,10.150402739389428
5355000000.0,21.97,-0.02100972763382741,-0.054538429552821205,0.0024380617204973576,-1.148254779205248,0.5040296868728968,9.92860508430345
5360000000.0,21.97,-0.13733675936604514,-0.14206923856775663,0.0028958389959823647,-0.6498100273141003,0.04042021923550221,10.080363808223138
5365000000.0,21.97,-0.09131682196445287,-0.1561593384783216,0.003566636873783482,-0.31872554528705543,0.2214107621218076,10.05475793686968
5370000000.0,21.97,-0.06508219616905504,-0.17575107631162804,0.0068989148272697726,-0.20267366124773661,0.07788816651998165,10.021310424868405
5375000000.0,21.97,-0.12196754070597174,-0.20372833986388994,0.005855602301534386,-0.0662144723151447,-0.0858348899268489,10.192588329553184
5380000000.0,21.97,-0.08036074256746965,-0.22792789372280442,0.007197028362436979,0.2578117115021171,0.1028090090000901,10.03719792799928
5385000000.0,21.97,-0.0567399888537571,-0.19793631579564577,0.0066327861079807995,0.6262712367773123,0.07033550345955504,9.90211516781985
5390000000.0,21.97,-0.09365630298678218,-0.15188505877586875,0.006749852262662244,0.7104413516371136,-0.0796567812228678,9.83413186714002
5395000000.0,21.97,-0.07822581261778119,-0.129775041871415,0.0035878392252040097,0.8440549149936492,-0.06759184312261843,9.757907747294578
5400000000.0,21.97,-0.06625631427992498,-0.06668826748132682,0.0008517092917262651,1.0241636853344367,-0.16873367821633678,9.676584209777042
5405000000.0,21.97,-0.06854147328329288,0.0017532980604903301,0.0,0.9782519401723194,-0.28125196510051964,9.69041599501436
5410000000.0,21.97,-0.03220898808843365,0.059084120160539016,-0.0003832971123919835,0.8546455186758553,-0.22386409491724094,9.678938189834483
5415000000.0,21.97,-0.0031725910250728615,0.10701355189598666,-0.0023103037457318874,0.7176009741006097,-0.22582683107926832,9.659514389640245
5420000000.0,21.97,0.006220627851180084,0.149655607962686,-0.0031939525311496,0.6329382522440826,-0.2574132419530324,9.657357347492974
5425000000.0,21.97,0.02929546585419633,0.19628141564132393,-0.003513370656158869,0.34334578503535784,-0.1608835785035358,9.735934816122349
5430000000.0,21.97,0.038643008795530426,0.18771473873109407,-0.005621379347797711,0.001568967172589671,-0.12066247264382474,9.773311549241114
5435000000.0,21.97,0.043106359737093605,0.16616468420141714,-0.007037307705884535,-0.06435486682024867,-0.05552269976962699,9.851790811136707
5440000000.0,21.97,0.062638642792177,0.18582226385465833,-0.0042586033748661,-0.2103303096225031,0.11575958498209586,9.879455750989257
5445000000.0,21.97,0.07529982372381407,0.16626021371251284,-0.004024357233033807,-0.5426904691511046,0.28733902474109024,9.96254602881296
5450000000.0,21.97,0.06487224636520351,0.10397771427168676,-0.002129301687433,-0.6621765878956659,0.6808197164243972,10.029746540633067
5455000000.0,21.97,0.06918189043615756,0.07521287752302667,-0.0018418114620673063,-0.8175681548775816,1.1090146723743468,10.21603282725193
5460000000.0,21.97,0.01252760751381171,0.008272372529489695,0.0011498344209412764,-1.023768100219681,0.5732903549249037,9.954010375784204
5465000000.0,21.97,-0.13474144660757134,-0.09461616926275114,0.002129301687433,-0.7067094277700943,0.07877737838097379,9.922030836906407
5470000000.0,21.97,-0.09650821769939584,-0.12197367043239311,0.0022570828502940727,-0.44242940627719407,0.3333419937808199,9.967939406277194
5475000000.0,21.97,-0.060989766963841924,-0.14834105783764606,0.004365091541932928,-0.29920393654693933,0.15842756522367563,9.84090394594204
5480000000.0,21.97,-0.14526118524224235,-0.1756881897125338,0.006217514719754031,-0.19815987115149872,-0.17814736470907364,10.056427519327274
5485000000.0,21.97,-0.10207687550791308,-0.2245398434576555,0.0021612527751721715,0.006087953135379534,0.01814796730227967,10.082030341144105
5490000000.0,21.97,-0.06272275598479167,-0.21603197126414866,0.0031939525311496,0.5207152265466523,-0.03315982609659826,9.994819546906696
5495000000.0,21.97,-0.10840823029966991,-0.15335435559000188,0.0031939525311496,0.560544894272949,-0.2155253797986538,9.916829725928396
5500000000.0,21.97,-0.08309482405214075,-0.14913785087658368,0.003193940937101796,0.6965121366180214,-0.18638978633819786,9.809999252183694
5505000000.0,21.97,-0.05567343230106832,-0.10061909344935532,0.0021399365912823185,0.8907501385604014,-0.16696598614395985,9.74201595150386
5510000000.0,21.97,-0.056440119900270064,-0.04479674992833634,0.003172671129403159,0.9503934421508344,-0.2532951632262517,9.712488278924583
5515000000.0,21.97,-0.03165912075993596,0.01936182147221168,9.578369893068492e-05,0.9610858071222581,-0.20748096438870964,9.740447421366774
5520000000.0,21.97,-0.0124781963775575,0.07449195607114857,-0.0010220764461758179,0.8106966844899668,-0.20601,9.76958312165813
5525000000.0,21.97,-0.005642579591209533,0.11313527958200939,-0.004098940688552683,0.7205435341515354,-0.2712472512154725,9.882595287797953
5530000000.0,21.97,0.013691631338667878,0.17813427423765144,-0.0022570364741028564,0.5962504036230041,-0.23779397034553973,9.90692301482723
5535000000.0,21.97,0.02779312394764933,0.21188035435850228,-0.005099712544886546,0.0868125869096259,-0.18069955493559553,9.971963852575138
5540000000.0,21.97,0.049348382839768265,0.1572744318274628,-0.0043437637639952755,-0.08632961411779613,-0.0682763087057631,9.94969407717644
5545000000.0,21.97,0.0666396503904778,0.17269394289237477,-0.0023209154614855887,-0.0623911691801117,0.09290253098452533,9.902703961475138
5550000000.0,21.97,0.07200535041807093,0.17183286574825293,-0.0030874991462261784,-0.37670788087527884,0.21385929362509293,9.889460892197908
5555000000.0,21.97,0.0620081033879086,0.126947543186751,-0.002246401570253544,-0.5517161263873613,0.3653261263873613,9.91467302369763
5560000000.0,21.97,0.0447772697163443,0.09238061191124272,-0.002129301687433,-0.5948787239889872,0.7279063198531632,9.986973263970633
5565000000.0,21.97,0.03148839145996038,0.060615456396174945,-0.00027678575722955216,-0.9654067480182675,0.672572302878623,10.303643091364131
5570000000.0,21.97,-0.06179350990009076,-0.05713446072756867,0.0018312229344092047,-0.8515058361886585,0.21012446589994466,9.818037383994273
5575000000.0,21.97,-0.0975214149192236,-0.09735911124359477,0.002129301687433,-0.4738184519171845,0.31245077404140775,9.931646598904466
5580000000.0,21.97,-0.04661144135750174,-0.12356681277443879,0.003917938630253802,-0.3460959329215593,0.2939069496911695,9.826871357458314
5585000000.0,21.97,-0.10165076729625028,-0.1278279144160647,0.005142275348379421,-0.1706918303615183,-0.008636705349267082,9.889756493301164
5590000000.0,21.97,-0.1159251297670823,-0.14966786319951128,0.007069305169814933,-0.2016944686323447,-0.02040414852574149,9.892011382841913
5595000000.0,21.97,-0.07986856335040257,-0.2114069260515349,0.00400303999513964,0.05435109498951096,0.014028626028486257,9.864641373971514
5600000000.0,21.97,-0.09863591529588711,-0.20175276128910022,0.004897417490793426,0.4473405684778057,-0.12164595791905958,9.866898108773281
5605000000.0,21.97,-0.1054527934054973,-0.16991302126450925,0.0053232542185827,0.5917400709632007,-0.19571004435200046,9.8068599290368
5610000000.0,21.97,-0.07554335821846825,-0.13805204726836737,0.0036623752505273617,0.7918658152204581,-0.20601,9.79038
5615000000.0,21.97,-0.0605495658501376,-0.0818074093208202,0.0015543665588885055,0.926751899711019,-0.28154809064638087,9.805487618129277
5620000000.0,21.97,-0.04644024096941988,-0.01853259105212001,0.0010646508437165,0.8993800358677004,-0.2593757450294574,9.795088581676486
5625000000.0,21.97,-0.020232397147989193,0.012789137439352283,-0.0005323491369560308,0.7725358611168587,-0.22317717222337174,9.768307172223372
5630000000.0,21.97,-0.007260835677524244,0.03466144097692379,-0.0034282113210340054,0.7938260748479609,-0.18678196257601962,9.739171471932014
5635000000.0,21.97,-0.002991633234956487,0.09180807028833746,-0.0019269823912399595,0.8428756378124563,-0.1980642283593423,9.73152
5640000000.0,21.97,0.011681353817694454,0.17292260084139563,-0.0033643323336512744,0.6203807848423079,-0.1848200713493007,9.780963166851633
5645000000.0,21.97,0.024611006779462676,0.20312989112518212,-0.0042586033748661,0.25809682375326826,-0.2044408385894084,9.83501604823676
5650000000.0,21.97,0.03142471273340343,0.21007139089003607,-0.003513335874015442,0.016674914855049155,-0.14714890255528904,9.924778207189183
5655000000.0,21.97,0.052868439494740446,0.19581398591499127,-0.004663194537056742,-0.2558483149308831,-0.009415842534558433,9.98422603936636
5660000000.0,21.97,0.06757645156105072,0.16102501946629347,-0.006047228723639115,-0.42654000932580005,0.1793291087128911,9.963035450306455
5665000000.0,21.97,0.0596019421629417,0.1259488716155032,-0.003534593033661893,-0.5070796702507967,0.2846868602149686,9.94734
5670000000.0,21.97,0.036050861004761944,0.09887891020943129,-0.002129301687433,-0.5556388405317885,0.5436742749190429,9.94734
5675000000.0,21.97,0.028709829419528616,0.0773876715412774,-0.0007452316647029,-0.8431742398928423,0.6798332204601323,10.208781019432712
5680000000.0,21.97,-0.029486634665627426,-0.011509440559820838,0.0013627770269358569,-1.0284810619631106,0.34138193200481937,9.96656087004171
5685000000.0,21.97,-0.08834849872675452,-0.12195027295277416,0.001458559671862193,-0.697386605814666,0.21513451466734515,9.88710902933469
5690000000.0,21.97,-0.06039564059328377,-0.14592288714893292,0.0037050329144113657,-0.3384422369644224,0.30980079469280797,10.027783105214231
5695000000.0,21.97,-0.07372396390830561,-0.15171510373711838,0.005972703238359264,-0.22729736814437368,0.12193420711394204,10.041123157525831
5700000000.0,21.97,-0.12143344878146928,-0.17427486899575598,0.005749102540419757,-0.07455334282413345,-0.09025332858793328,10.055250553578306
5705000000.0,21.97,-0.10806780244685406,-0.183852820898347,0.004066942170617999,0.12380419463004196,-0.09682392431053924,10.08644602162556
5710000000.0,21.97,-0.09582849421905537,-0.18799437287459256,0.005046481109405256,0.30430830728808306,-0.17677830728808308,10.03190097999111
5715000000.0,21.97,-0.1011941900306312,-0.18885663169581615,0.0063879050622992,0.5167934641684346,-0.2494681889929819,9.9250700789228
5720000000.0,21.97,-0.0779319713078028,-0.1660096991172754,0.004599255471426276,0.7718539109158391,-0.21228773337517734,9.84021402227104
5725000000.0,21.97,-0.054970793574015256,-0.10577740365958664,0.00260838249875571,0.9790397792200979,-0.24034611201256112,9.761439499188695
5730000000.0,21.97,-0.05171307061793052,-0.02312985751367319,0.0015543781529362868,1.0178849322097494,-0.33746511298375115,9.764090090387
5735000000.0,21.97,-0.03977945267873589,0.034553705369795545,0.0005003738071169085,0.8296282467396825,-0.34619412023154117,9.768993531627036
5740000000.0,21.97,-0.01657407831094118,0.05173438785582476,-0.0016608916161074618,0.7326118034335181,-0.2884134425369344,9.731127377014774
5745000000.0,21.97,0.0033644904343031815,0.0950950226683166,-0.0037369365719549484,0.7349643072821431,-0.23485073046160732,9.69669394205134
5750000000.0,21.97,0.020769624355287793,0.154994413099617,-0.0026615907461413693,0.5787873195155732,-0.17167421819204218,9.67266
5755000000.0,21.97,0.03608796945671651,0.188801668652146,-0.00210803293373876,0.3505087289686873,-0.10849792929617928,9.68227402356794
5760000000.0,21.97,0.044144998461984414,0.21113615240420897,-0.004216041625377615,0.07062808416188082,-0.06906217623782177,9.74407803069198
5765000000.0,21.97,0.04631529091406796,0.2044201021300321,-0.0043224581201489285,-0.2508451713244517,-0.003530256261502565,9.837076495825665
5770000000.0,21.97,0.04834879836252692,0.16592617127720533,-0.002704200979829813,-0.4751979690545797,0.11752525697925256,9.887695424150653
5775000000.0,21.97,0.049594391186294634,0.11617111174622127,-0.0026084067408556643,-0.5581892243448923,0.22170689737956897,9.933606897379569
5780000000.0,21.97,0.039163536081513635,0.07597531034858704,-0.001788576864573063,-0.5603469754608698,0.3425672208521722,9.95950395092174
5785000000.0,21.97,0.024344664097291434,0.05048087569265032,0.0,-0.650601896800419,0.5005077731335777,9.992369360766894
5790000000.0,21.97,0.004750683290900861,-0.0012617906761604805,0.0008943311194625092,-0.7848,0.4757821884049219,9.982653750723937
5795000000.0,21.97,-0.04344893532246981,-0.07758850923565676,0.002565820749267174,-0.656089198050492,0.3254955748781557,9.937237613535675
5800000000.0,21.97,-0.07435784830767743,-0.12101425905433252,0.0027680799672125484,-0.4002459721552597,0.31784411265804113,9.992464760761548
5805000000.0,21.97,-0.0822506894404001,-0.14130298286843399,0.003790205951592638,-0.24838784693807847,0.1974715790797158,9.92389398724484
5810000000.0,21.97,-0.11893440874538512,-0.16688218582388323,0.005983325494156431,-0.09829383010213828,-0.04100704137507041,9.973828692784187
5815000000.0,21.97,-0.12678457448621624,-0.17269530480421966,0.004535388078091369,0.10565607193736072,-0.12242925179759252,10.032391683455417
5820000000.0,21.97,-0.10943077237386398,-0.16780201643592665,0.003960525675846687,0.3025425478838255,-0.21072083483730836,9.990896852186069
5825000000.0,21.97,-0.10967558069324575,-0.15068196867734626,0.0049506141441312615,0.4458652920054529,-0.33746445257454455,9.98854109485091
5830000000.0,21.97,-0.09455591098764149,-0.1387839457435382,0.0038966097983118174,0.5638812912966129,-0.3462924337962243,9.91084589407396
5835000000.0,21.97,-0.06396700524675739,-0.11557805491361398,0.0031939525311496,0.7710682667574826,-0.3236322400136224,9.826675866621258
5840000000.0,21.97,-0.05122324528630657,-0.06081077012289287,0.0021718507888694506,0.8836841193900412,-0.34335,9.767228626869986
5845000000.0,21.97,-0.037302564582872746,-0.00868310497759188,0.0,0.84366,-0.3463912135321121,9.771446359403663
5850000000.0,21.97,-0.01214908873876084,0.03462452015502153,-0.0003194075849657961,0.8142288637076887,-0.3413875454830754,9.765855568146156
5855000000.0,21.97,0.0029863308673891715,0.08427548858400256,-0.0007558897566478254,0.722799890189199,-0.2996949313682493,9.817260082358102
5860000000.0,21.97,0.0231844656516177,0.1221569846479302,-0.0008943437675146869,0.625876292647963,-0.24014777558877776,9.872784569117345
5865000000.0,21.97,0.03794039052652894,0.16856247692561704,-0.0031939525311496,0.4192750710176507,-0.1633359303970593,9.918695255682351
5870000000.0,21.97,0.04454577625373059,0.173467727102837,-0.00347077412452691,0.11654143178751432,-0.09947214580522146,9.960093570088537
5875000000.0,21.97,0.050872021526157885,0.1629833081537943,-0.004524778470346313,-0.0122644399520444,9.129186091319519e-07,9.986579543540696
5880000000.0,21.97,0.05121903099679928,0.16478050015615126,-0.005067725620999609,-0.19620285529862855,0.08475965633139657,9.95715
5885000000.0,21.97,0.042528849831441,0.14211791167634488,-0.003523957075808241,-0.3938720715453207,0.18482131447251315,9.959406414309065
