#timestamp [ns], temperature [degC], w_RS_S_x [rad s^-1], w_RS_S_y [rad s^-1], w_RS_S_z [rad s^-1], a_RS_S_x [m s^-2], a_RS_S_y [m s^-2], a_RS_S_z [m s^-2]
0.0,22.09,0.0,0.0,0.0,0.59841,-0.15696,9.81
5000000.0,22.09,0.0,0.0,0.0,0.5692742997086431,-0.15696,9.790576199805763
10000000.0,22.09,0.0,0.0,0.0,0.588207600388476,-0.176187600388476,9.809607600388476
15000000.0,22.09,0.0,0.0,0.0,0.5505371988345721,-0.167064299708643,9.81
20000000.0,22.09,0.0,0.0,0.0,0.577612801165428,-0.176187600388476,9.838252801165428
25000000.0,22.09,0.0,0.0,0.0,0.57879,-0.13930199805761997,9.811471498543215
30000000.0,22.09,0.0,0.0,0.0,0.569568599417286,-0.155782801165428,9.81
35000000.0,22.09,0.0,0.0,0.0,0.587226601359666,-0.15696,9.81
40000000.0,22.09,0.0,0.0,0.0,0.579574799223048,-0.13890959844609596,9.819025200776952
45000000.0,22.09,0.0,0.0,0.0,0.596644201748142,-0.155194201748142,9.837664201748142
50000000.0,22.09,0.0,0.0,0.0,0.58958099902881,-0.13930199805761997,9.82177199805762
55000000.0,22.09,0.0,0.0,0.0,0.606061802136618,-0.146070901068309,9.81107909893169
60000000.0,22.09,0.0,0.0,0.0,0.590954397669144,-0.155782801165428,9.801367198834573
65000000.0,22.09,0.0,0.0,0.0,0.580065298737453,-0.165494701262547,9.791655298737453
70000000.0,22.09,0.0,0.0,0.0,0.57879,-0.14989679728066796,9.798816601359666
75000000.0,22.09,0.0,0.0,0.0,0.570451498543215,-0.13047299708642998,9.808528501456786
80000000.0,22.09,0.0,0.0,0.0,0.6019416062156161,-0.16873200776952008,9.81
85000000.0,22.09,0.0,0.0,0.0,0.600077698348977,-0.16029539669795395,9.818142301651024
90000000.0,22.09,0.0,0.0,0.0,0.582321596503716,-0.17304840349628403,9.795677394755575
95000000.0,22.09,0.0,0.0,0.0,0.586736101845261,-0.15274169446421695,9.766541694464216
100000000.0,22.09,0.0,0.0,0.0,0.60429600388476,-0.14715,9.800190009711901
105000000.0,22.09,0.0,0.0,0.0,0.5849702938815029,-0.14715,9.840999608157997
110000000.0,22.09,0.0,0.0,0.0,0.586441802136618,-0.13184639572676396,9.856891802136618
115000000.0,22.09,0.0,0.0,0.0,0.573492595532526,-0.14263740446747405,9.791066679896366
120000000.0,22.09,0.0,0.0,0.0,0.5615243976691441,-0.16951680699256805,9.755848795338288
125000000.0,22.09,0.0,0.0,0.0,0.5591700000000001,-0.17658,9.787927512139875
130000000.0,22.09,0.0,0.0,0.0,0.5809482075752821,-0.16206119494981194,9.843746415150564
135000000.0,22.09,0.0,0.0,0.0,0.5886,-0.14979869737778698,9.837566092133361
140000000.0,22.09,0.0,0.0,0.0,0.5886,-0.15421320271933203,9.787240783684007
145000000.0,22.09,0.0,0.0,0.0,0.5886,-0.1360646915506469,9.735934485917744
150000000.0,22.09,0.0,0.0,0.0,0.59546700291357,-0.15499801165428012,9.75604501456785
155000000.0,22.09,0.0,0.0,0.0,0.605178903010689,-0.16677,9.83844903010689
160000000.0,22.09,0.0,0.0,0.0,0.6282324093234242,-0.16677,9.882201606215615
165000000.0,22.09,0.0,0.0,0.0,0.6113591871802919,-0.15362459359014594,9.868761890385219
170000000.0,22.09,0.0,0.0,0.0,0.5725115867918159,-0.14715,9.768405553771355
175000000.0,22.09,0.0,0.0,0.0,0.5846760135966601,-0.14715,9.779098530592485
180000000.0,22.09,0.0,0.0,0.0,0.585853193007432,-0.1283147895111479,9.84139201748142
185000000.0,22.09,0.0,0.0,0.0,0.5911506071868061,-0.1362609107802091,9.883771214373612
190000000.0,22.09,0.0,0.0,0.0,0.59841,-0.15323220369052204,9.849632370475824
195000000.0,22.09,0.0,0.0,0.0,0.59841,-0.16294410378764104,9.783905377274154
200000000.0,22.09,0.0,0.0,0.0,0.58075198834572,-0.15499799223047991,9.76095
205000000.0,22.09,0.0,0.0,0.0,0.5921316159275162,-0.15293790398187904,9.795677423891274
210000000.0,22.09,0.0,0.0,0.0,0.5968403918420039,-0.15127019592100197,9.84825902039499
215000000.0,22.09,0.0,0.0,0.0,0.594191704176117,-0.15274170417611704,9.863268295823882
220000000.0,22.09,0.0,0.0,0.0,0.5929163957267639,-0.15146639572676396,9.809607561540876
225000000.0,22.09,0.0,0.0,0.0,0.5886,-0.15254550437035505,9.743782478148225
230000000.0,22.09,0.0,0.0,0.0,0.5886,-0.15696,9.764089235739792
235000000.0,22.09,0.0,0.0,0.0,0.5989986091291861,-0.15176069543540696,9.820987218258372
240000000.0,22.09,0.0,0.0,0.0,0.5980175906765759,-0.1573524093234241,9.854733613985136
245000000.0,22.09,0.0,0.0,0.0,0.5886,-0.16677,9.848847580964676
250000000.0,22.09,0.0,0.0,0.0,0.58369499514405,-0.16186499514404995,9.7903799611524
255000000.0,22.09,0.0,0.0,0.0,0.57879,-0.15696,9.75114
260000000.0,22.09,0.0,0.0,0.0,0.583498805050188,-0.15696,9.779392830301129
265000000.0,22.09,0.0,0.0,0.0,0.5886,-0.15696,9.823832115441922
270000000.0,22.09,0.0,0.0,0.0,0.5886,-0.15696,9.852967815733278
275000000.0,22.09,0.0,0.0,0.0,0.5841854946584549,-0.15696,9.837958462609185
280000000.0,22.09,0.0,0.0,0.0,0.5831064054386641,-0.16127640543866406,9.787240783684007
285000000.0,22.09,0.0,0.0,0.0,0.5928183055357831,-0.1583333889284339,9.787633222143132
290000000.0,22.09,0.0,0.0,0.0,0.5901695887341959,-0.15127020563290206,9.814120205632902
295000000.0,22.09,0.0,0.0,0.0,0.5868342114600421,-0.15696,9.839920528650106
300000000.0,22.09,0.0,0.0,0.0,0.5827139766914398,-0.14911198834571987,9.845315965037159
305000000.0,22.09,0.0,0.0,0.0,0.5706477177727772,-0.14499181184851812,9.794696376302964
310000000.0,22.09,0.0,0.0,0.0,0.5886,-0.16068780602137805,9.767032193978622
315000000.0,22.09,0.0,0.0,0.0,0.5922297061184971,-0.1558808816445088,9.779098530592485
320000000.0,22.09,0.0,0.0,0.0,0.6019416062156161,-0.14793481864684818,9.82765803107808
325000000.0,22.09,0.0,0.0,0.0,0.5979194810617948,-0.16333649368726494,9.855616493687265
330000000.0,22.09,0.0,0.0,0.0,0.57879,-0.15696,9.812550529491606
335000000.0,22.09,0.0,0.0,0.0,0.5820273065069731,-0.15372269349302692,9.74133
340000000.0,22.09,0.0,0.0,0.0,0.5917392066040921,-0.14087158679181588,9.760165239624552
345000000.0,22.09,0.0,0.0,0.0,0.601451106701211,-0.1366533201036332,9.821477746908478
350000000.0,22.09,0.0,0.0,0.0,0.5993909796050098,-0.15696,9.871803006798329
355000000.0,22.09,0.0,0.0,0.0,0.57879,-0.15411509310455093,9.853065837940958
360000000.0,22.09,0.0,0.0,0.0,0.5842836139851362,-0.14440319300743193,9.771152351052024
365000000.0,22.09,0.0,0.0,0.0,0.5957612929103129,-0.14263741417937414,9.737602242538122
370000000.0,22.09,0.0,0.0,0.0,0.5911506071868061,-0.1544093928131939,9.800974857494449
375000000.0,22.09,0.0,0.0,0.0,0.5910524781482248,-0.14715,9.861502507283925
380000000.0,22.09,0.0,0.0,0.0,0.5736888147620882,-0.14715,9.854733555713736
385000000.0,22.09,0.0,0.0,0.0,0.5863436925218369,-0.15166261495632616,9.798718462609186
390000000.0,22.09,0.0,0.0,0.0,0.5809482075752821,-0.16461179242471793,9.76095
395000000.0,22.09,0.0,0.0,0.0,0.5844797846551979,-0.1548998923275989,9.773310646034407
400000000.0,22.09,0.0,0.0,0.0,0.5709420077695201,-0.14911200776952008,9.825696023308561
405000000.0,22.09,0.0,0.0,0.0,0.5806539078666391,-0.15696,9.841784368533444
410000000.0,22.09,0.0,0.0,0.0,0.586834192036242,-0.15166257610872574,9.80117096018121
415000000.0,22.09,0.0,0.0,0.0,0.5821254161217542,-0.13086541612175417,9.764285416121753
420000000.0,22.09,0.0,0.0,0.0,0.5968403918420039,-0.15185882447398824,9.786848432631984
425000000.0,22.09,0.0,0.0,0.0,0.5900715082551151,-0.17363698348976983,9.824224524765345
430000000.0,22.09,0.0,0.0,0.0,0.5970365916477659,-0.15421318329553182,9.843746366591065
435000000.0,22.09,0.0,0.0,0.0,0.5860493831012938,-0.13734,9.81
440000000.0,22.09,0.0,0.0,0.0,0.5725116256394163,-0.13969441709294417,9.808822791453528
445000000.0,22.09,0.0,0.0,0.0,0.5973308913564089,-0.1558808913564089,9.803427325930773
450000000.0,22.09,0.0,0.0,0.0,0.5895810087407101,-0.14813100874071009,9.82962
455000000.0,22.09,0.0,0.0,0.0,0.599292908837829,-0.1560770911621709,9.831385817675658
460000000.0,22.09,0.0,0.0,0.0,0.6066503821301038,-0.14636519106505191,9.84531595532526
465000000.0,22.09,0.0,0.0,0.0,0.5879132909679329,-0.13734,9.799503290967934
470000000.0,22.09,0.0,0.0,0.0,0.5782013908708139,-0.13851721825837218,9.790968609129187
475000000.0,22.09,0.0,0.0,0.0,0.5699610184526103,-0.1564694907736949,9.800680509226305
480000000.0,22.09,0.0,0.0,0.0,0.5886,-0.14793481864684818,9.810784818646848
485000000.0,22.09,0.0,0.0,0.0,0.5886,-0.1670643094205431,9.829031381158915
490000000.0,22.09,0.0,0.0,0.0,0.5887962095176621,-0.1759913714470137,9.809215161929352
495000000.0,22.09,0.0,0.0,0.0,0.5983118903852189,-0.1472481096147811,9.771152438459124
500000000.0,22.09,0.0,0.0,0.0,0.5886000194238002,-0.15695998057619978,9.809999980576201
505000000.0,22.09,0.0,0.0,0.0,0.6080238196180382,-0.1375361803819618,9.790576180381963
510000000.0,22.09,0.0,0.0,0.0,0.60822,-0.13734,9.876904289155242
515000000.0,22.09,0.0,0.0,0.0,0.5987042899967429,-0.1658871300097713,9.831091449983715
520000000.0,22.09,0.0,0.0,0.0,0.59841,-0.16677,9.81078477979925
525000000.0,22.09,0.0,0.0,0.0,0.5797709796050098,-0.1481309796050098,9.75408293881503
530000000.0,22.09,0.0,0.0,0.0,0.5603471794107718,-0.1563714102946141,9.797247051473072
535000000.0,22.09,0.0,0.0,0.0,0.5865399311751993,-0.15696,9.845806551958665
540000000.0,22.09,0.0,0.0,0.0,0.5976252104888521,-0.14793478951114788,9.84924
545000000.0,22.09,0.0,0.0,0.0,0.59841,-0.16500422117194222,9.822458668242087
550000000.0,22.09,0.0,0.0,0.0,0.5895809893169099,-0.14028296795072967,9.766835935901458
555000000.0,22.09,0.0,0.0,0.0,0.579869089219791,-0.15480182156041822,9.778411821560418
560000000.0,22.09,0.0,0.0,0.0,0.5874228108773282,-0.15696,9.840999676141298
565000000.0,22.09,0.0,0.0,0.0,0.5886,-0.1740294219488942,9.857774710974446
570000000.0,22.09,0.0,0.0,0.0,0.5801633889284339,-0.15127016678530167,9.81686694464217
575000000.0,22.09,0.0,0.0,0.0,0.5704514888313149,-0.1388114888313149,9.768307444156575
580000000.0,22.09,0.0,0.0,0.0,0.56898,-0.16206123379741233,9.74446917746839
585000000.0,22.09,0.0,0.0,0.0,0.5934069340887693,-0.1504853772741538,9.806468490903384
590000000.0,22.09,0.0,0.0,0.0,0.5742773656198736,-0.17128263438012634,9.86003105730021
595000000.0,22.09,0.0,0.0,0.0,0.5848722231143223,-0.16068777688567776,9.837075553771356
600000000.0,22.09,0.0,0.0,0.0,0.6042960233085602,-0.14911198834571987,9.774683918420038
605000000.0,22.09,0.0,0.0,0.0,0.5772203529944036,-0.14715,9.7454501764972
610000000.0,22.09,0.0,0.0,0.0,0.5842836236970362,-0.1548018118485181,9.802544494788146
615000000.0,22.09,0.0,0.0,0.0,0.5961537119456372,-0.15696,9.850024847782548
620000000.0,22.09,0.0,0.0,0.0,0.6058656120427561,-0.15696,9.866505612042756
625000000.0,22.09,0.0,0.0,0.0,0.5861474635803746,-0.1643175121398751,9.802642390741125
630000000.0,22.09,0.0,0.0,0.0,0.5860494122369941,-0.13773235105202353,9.76605117552601
635000000.0,22.09,0.0,0.0,0.0,0.5957613123341131,-0.1561752493364525,9.789595249336452
640000000.0,22.09,0.0,0.0,0.0,0.5913467875687679,-0.1385171502750715,9.835506062156162
645000000.0,22.09,0.0,0.0,0.0,0.5886,-0.14842533758505336,9.85620511252835
650000000.0,22.09,0.0,0.0,0.0,0.6023340252509403,-0.15696,9.83844896212359
655000000.0,22.09,0.0,0.0,0.0,0.6014510872774108,-0.14342217455482173,9.782237610941875
660000000.0,22.09,0.0,0.0,0.0,0.5917391871802918,-0.14401081281970812,9.780962438459124
665000000.0,22.09,0.0,0.0,0.0,0.6083181387504815,-0.16686813875048137,9.81667085166731
670000000.0,22.09,0.0,0.0,0.0,0.6115553869860539,-0.13773232191632323,9.82962
675000000.0,22.09,0.0,0.0,0.0,0.5890904606668046,-0.13047302622213025,9.81686697377787
680000000.0,22.09,0.0,0.0,0.0,0.57879,-0.16245365283273652,9.803721586791816
685000000.0,22.09,0.0,0.0,0.0,0.5973309399159094,-0.14567843347348433,9.78164906008409
690000000.0,22.09,0.0,0.0,0.0,0.6021377865975779,-0.14577664020726638,9.79508885360969
695000000.0,22.09,0.0,0.0,0.0,0.59841,-0.15696,9.821968226999083
700000000.0,22.09,0.0,0.0,0.0,0.5866379728066797,-0.14518797280667972,9.81784797280668
705000000.0,22.09,0.0,0.0,0.0,0.5903658273875583,-0.14312791369377914,9.792636258918664
710000000.0,22.09,0.0,0.0,0.0,0.5927201862091018,-0.15283981379089814,9.786259813790899
715000000.0,22.09,0.0,0.0,0.0,0.5830082861119829,-0.15696,9.795971713888019
720000000.0,22.09,0.0,0.0,0.0,0.5842836139851362,-0.15146638601486387,9.822164455940545
725000000.0,22.09,0.0,0.0,0.0,0.5886,-0.15254551408225514,9.855616542246766
730000000.0,22.09,0.0,0.0,0.0,0.5833025858206259,-0.15696,9.837075514923756
735000000.0,22.09,0.0,0.0,0.0,0.57879,-0.14136205717052058,9.789202742894027
740000000.0,22.09,0.0,0.0,0.0,0.5889924287472244,-0.14283364312083643,9.775861214373613
745000000.0,22.09,0.0,0.0,0.0,0.5934068855292689,-0.15195688552926884,9.800582457882925
750000000.0,22.09,0.0,0.0,0.0,0.5886,-0.14224498543214986,9.83452504370355
755000000.0,22.09,0.0,0.0,0.0,0.5982138293299383,-0.14695382932993828,9.834819256005092
760000000.0,22.09,0.0,0.0,0.0,0.5988023704758237,-0.15225118523791184,9.815101185237912
765000000.0,22.09,0.0,0.0,0.0,0.5886,-0.1655928594368286,9.786946425703965
770000000.0,22.09,0.0,0.0,0.0,0.5976252299126523,-0.18187738504367384,9.779000459825305
775000000.0,22.09,0.0,0.0,0.0,0.60822,-0.1677509698931097,9.813433545160336
780000000.0,22.09,0.0,0.0,0.0,0.5952707545483076,-0.15696,9.833936415150564
785000000.0,22.09,0.0,0.0,0.0,0.5914449457430495,-0.15274168475231684,9.83943
790000000.0,22.09,0.0,0.0,0.0,0.5917391386207914,-0.1389095693103957,9.802348061896781
795000000.0,22.09,0.0,0.0,0.0,0.5770242308838424,-0.13959634632576345,9.771250577209607
800000000.0,22.09,0.0,0.0,0.0,0.5886,-0.16480803107808029,9.815886062156162
805000000.0,22.09,0.0,0.0,0.0,0.5962518312723183,-0.16510225309152252,9.831778168727682
810000000.0,22.09,0.0,0.0,0.0,0.6007643685334437,-0.15833344719983447,9.816082184266723
815000000.0,22.09,0.0,0.0,0.0,0.5958594316607944,-0.16569085250880852,9.806370284169603
820000000.0,22.09,0.0,0.0,0.0,0.5976251522174515,-0.15421323185503233,9.793126768144969
825000000.0,22.09,0.0,0.0,0.0,0.5822235160246352,-0.15646945192609452,9.804604612172447
830000000.0,22.09,0.0,0.0,0.0,0.5852645838782459,-0.1440108322435083,9.835898335512983
835000000.0,22.09,0.0,0.0,0.0,0.5820273162188732,-0.15696,9.803525367562255
840000000.0,22.09,0.0,0.0,0.0,0.5886,-0.15068156736801566,9.777823134736032
845000000.0,22.09,0.0,0.0,0.0,0.5916411164131111,-0.14342223282622232,9.766345582065556
850000000.0,22.09,0.0,0.0,0.0,0.6013530165102302,-0.15696,9.809019049530692
855000000.0,22.09,0.0,0.0,0.0,0.60822,-0.1626498332146983,9.82962
860000000.0,22.09,0.0,0.0,0.0,0.60822,-0.1683395498865955,9.821379549886595
865000000.0,22.09,0.0,0.0,0.0,0.6029225663968256,-0.14979871680158716,9.794892566396827
870000000.0,22.09,0.0,0.0,0.0,0.5886,-0.15951061689870616,9.778019383101295
875000000.0,22.09,0.0,0.0,0.0,0.5910525169958252,-0.16186496600834965,9.783022584979125
880000000.0,22.09,0.0,0.0,0.0,0.59841,-0.14479558290705583,9.826873251278833
885000000.0,22.09,0.0,0.0,0.0,0.6006663171900631,-0.13959631719006316,9.846983682809936
890000000.0,22.09,0.0,0.0,0.0,0.6060617827128179,-0.14930821728718216,9.82863891356409
895000000.0,22.09,0.0,0.0,0.0,0.5942897652313976,-0.15489988261569881,9.79038
900000000.0,22.09,0.0,0.0,0.0,0.5827140349628404,-0.14911201748142017,9.796266052444262
905000000.0,22.09,0.0,0.0,0.0,0.59841,-0.1550960824214608,9.81794608242146
910000000.0,22.09,0.0,0.0,0.0,0.59841,-0.14185254697302546,9.815297453026975
915000000.0,22.09,0.0,0.0,0.0,0.59841,-0.12439087109110872,9.83943
920000000.0,22.09,0.0,0.0,0.0,0.5968403821301038,-0.15852961786989617,9.834721146390311
925000000.0,22.09,0.0,0.0,0.0,0.5930145539010455,-0.16235544609895447,9.808528482032985
930000000.0,22.09,0.0,0.0,0.0,0.6166565819358659,-0.13871341806413418,9.798816581935867
935000000.0,22.09,0.0,0.0,0.0,0.60822,-0.14970063632250635,9.792930636322508
940000000.0,22.09,0.0,0.0,0.0,0.6070427817416278,-0.1655927817416278,9.81
945000000.0,22.09,0.0,0.0,0.0,0.5973308816445089,-0.15480176328901762,9.81
950000000.0,22.09,0.0,0.0,0.0,0.5876189815473898,-0.1383210184526102,9.80705694464217
955000000.0,22.09,0.0,0.0,0.0,0.5779070814502708,-0.14715,9.78233583709946
960000000.0,22.09,0.0,0.0,0.0,0.5721192745873928,-0.1487196372936964,9.803329274587393
965000000.0,22.09,0.0,0.0,0.0,0.604786406280164,-0.16677,9.838743281256033
970000000.0,22.09,0.0,0.0,0.0,0.5609358565232586,-0.16441552463565526,9.828442762317827
975000000.0,22.09,0.0,0.0,0.0,0.5886,-0.12900155681461556,9.808528443185384
980000000.0,22.09,0.0,0.0,0.0,0.5889924190353242,-0.1565675809646758,9.779000323858703
985000000.0,22.09,0.0,0.0,0.0,0.5981156808675568,-0.14715,9.743978872191988
990000000.0,22.09,0.0,0.0,0.0,0.5884037807704379,-0.14754243845912438,9.83040487691825
995000000.0,22.09,0.0,0.0,0.0,0.5790843579800437,-0.16647564201995643,9.868467522693274
1000000000.0,22.09,0.0,0.0,0.0,0.6082199805761997,-0.13734003884760038,9.8296198446096
1005000000.0,22.09,0.0,0.0,0.0,0.5985080804790808,-0.15676383904183838,9.751924643832647
1010000000.0,22.09,0.0,0.0,0.0,0.5887961803819618,-0.1377323607639236,9.770367639236076
1015000000.0,22.09,0.0,0.0,0.0,0.5981157197151572,-0.16588715914547159,9.827854318290944
1020000000.0,22.09,0.0,0.0,0.0,0.6078276198122762,-0.1573523801877238,9.90496095849821
1025000000.0,22.09,0.0,0.0,0.0,0.60822,-0.15696,9.852182880543628
1030000000.0,22.09,0.0,0.0,0.0,0.5897771599869717,-0.1661814200065142,9.766247219941372
1035000000.0,22.09,0.0,0.0,0.0,0.6068466402072664,-0.1576466798963668,9.76095
1040000000.0,22.09,0.0,0.0,0.0,0.5811443393977435,-0.15696,9.779000440401505
1045000000.0,22.09,0.0,0.0,0.0,0.57879,-0.1748142405957424,9.85198696238297
1050000000.0,22.09,0.0,0.0,0.0,0.5964480407899804,-0.1589219592100196,9.88553706118497
1055000000.0,22.09,0.0,0.0,0.0,0.5809481590157816,-0.12203631803156317,9.783708954094688
1060000000.0,22.09,0.0,0.0,0.0,0.5701571794107718,-0.16088410294614103,9.744861538232316
1065000000.0,22.09,0.0,0.0,0.0,0.56898,-0.14970055862730558,9.784003603431737
1070000000.0,22.09,0.0,0.0,0.0,0.5858532415669324,-0.1555866207834662,9.840999724700797
1075000000.0,22.09,0.0,0.0,0.0,0.5969385208805852,-0.14862147911941478,9.840901479119415
1080000000.0,22.09,0.0,0.0,0.0,0.59841,-0.14715,9.798227895111479
1085000000.0,22.09,0.0,0.0,0.0,0.5821253578503536,-0.14715,9.79038
1090000000.0,22.09,0.0,0.0,0.0,0.5948784423438844,-0.14715,9.798424221171944
1095000000.0,22.09,0.0,0.0,0.0,0.5904638787309388,-0.1550961212690612,9.824028363807184
1100000000.0,22.09,0.0,0.0,0.0,0.5886,-0.14911197863381978,9.86101208546472
1105000000.0,22.09,0.0,0.0,0.0,0.5808500785367008,-0.13165015707340158,9.814610549756907
1110000000.0,22.09,0.0,0.0,0.0,0.57879,-0.11987817843958179,9.784886356879165
1115000000.0,22.09,0.0,0.0,0.0,0.5712362783424628,-0.13282744331507443,9.78057
1120000000.0,22.09,0.0,0.0,0.0,0.5913468652639686,-0.15970686526396866,9.84021497403725
1125000000.0,22.09,0.0,0.0,0.0,0.5763374344446743,-0.15205495629644955,9.85905
1130000000.0,22.09,0.0,0.0,0.0,0.5980176877955768,-0.16166884389778843,9.844531156102212
1135000000.0,22.09,0.0,0.0,0.0,0.5938973559079735,-0.15244735590797356,9.803623389769934
1140000000.0,22.09,0.0,0.0,0.0,0.5886,-0.13302355571373556,9.776253555713735
1145000000.0,22.09,0.0,0.0,0.0,0.5886,-0.14842536672075365,9.798620488961005
1150000000.0,22.09,0.0,0.0,0.0,0.5748659553252596,-0.15009297766262977,9.816867022337371
1155000000.0,22.09,0.0,0.0,0.0,0.6028246121724462,-0.1539189224344892,9.833347844868978
1160000000.0,22.09,0.0,0.0,0.0,0.6113591774683917,-0.15696,9.819417532405176
1165000000.0,22.09,0.0,0.0,0.0,0.60822,-0.15038727737127278,9.803427277371274
1170000000.0,22.09,0.0,0.0,0.0,0.5952707545483076,-0.16657386817753866,9.80019
1175000000.0,22.09,0.0,0.0,0.0,0.5949765228229652,-0.15107390870813908,9.806566522822965
1180000000.0,22.09,0.0,0.0,0.0,0.5921315770799158,-0.14361842292008423,9.81
1185000000.0,22.09,0.0,0.0,0.0,0.6009606460344065,-0.14715,9.834721292068814
1190000000.0,22.09,0.0,0.0,0.0,0.5899733306570333,-0.14106777688567776,9.806664438199745
1195000000.0,22.09,0.0,0.0,0.0,0.5907582464228824,-0.14930824642288246,9.78057
1200000000.0,22.09,0.0,0.0,0.0,0.5866379533828795,-0.15107397669143977,9.76879795338288
1205000000.0,22.09,0.0,0.0,0.0,0.5903658468113585,-0.15872584681135848,9.789889617028397
1210000000.0,22.09,0.0,0.0,0.0,0.5870303529944035,-0.16677,9.821379647005596
1215000000.0,22.09,0.0,0.0,0.0,0.5899734471998345,-0.15558655280016553,9.818436552800167
1220000000.0,22.09,0.0,0.0,0.0,0.5929163763029638,-0.14715,9.788025505211856
1225000000.0,22.09,0.0,0.0,0.0,0.5993910475883105,-0.15254552379415523,9.776155523794156
1230000000.0,22.09,0.0,0.0,0.0,0.60822,-0.15696,9.81765196723892
1235000000.0,22.09,0.0,0.0,0.0,0.6030206760116068,-0.16215932398839322,9.86483797196518
1240000000.0,22.09,0.0,0.0,0.0,0.5933087759144877,-0.16677,9.83275898323039
1245000000.0,22.09,0.0,0.0,0.0,0.5986062483652624,-0.15676375163473752,9.770367503269474
1250000000.0,22.09,0.0,0.0,0.0,0.5984099514404995,-0.15205502427975023,9.75114
1255000000.0,22.09,0.0,0.0,0.0,0.5934069243768693,-0.14253922686939227,9.789595395014954
1260000000.0,22.09,0.0,0.0,0.0,0.5889923510520235,-0.13223882447398824,9.85787294684393
1265000000.0,22.09,0.0,0.0,0.0,0.57879,-0.15117217371332173,9.85620492800225
1270000000.0,22.09,0.0,0.0,0.0,0.57879,-0.16225737533177376,9.788221627322416
1275000000.0,22.09,0.0,0.0,0.0,0.5920335742960358,-0.15696,9.742310950469308
1280000000.0,22.09,0.0,0.0,0.0,0.590954300550143,-0.15264357513753574,9.774684248624643
1285000000.0,22.09,0.0,0.0,0.0,0.56898,-0.14715,9.8549299497575
1290000000.0,22.09,0.0,0.0,0.0,0.5772204501134045,-0.15951067517010675,9.867878874716489
1295000000.0,22.09,0.0,0.0,0.0,0.5886,-0.18060212515382124,9.799208748461787
1300000000.0,22.09,0.0,0.0,0.0,0.5846759747490597,-0.17461792424717923,9.74917805050188
1305000000.0,22.09,0.0,0.0,0.0,0.5826159253480593,-0.15696,9.783905552088354
1310000000.0,22.09,0.0,0.0,0.0,0.5886,-0.14577652366446522,9.84217695267107
1315000000.0,22.09,0.0,0.0,0.0,0.5886,-0.14204890216918903,9.864151097830812
1320000000.0,22.09,0.0,0.0,0.0,0.5850683743605838,-0.16677,9.818240246163503
1325000000.0,22.09,0.0,0.0,0.0,0.57879,-0.1599029485269295,9.777136474263465
1330000000.0,22.09,0.0,0.0,0.0,0.5854608516673085,-0.15048542583365426,9.787437129168271
1335000000.0,22.09,0.0,0.0,0.0,0.59841,-0.15696,9.842471281515413
1340000000.0,22.09,0.0,0.0,0.0,0.5921315479442155,-0.15696,9.87592309588843
1345000000.0,22.09,0.0,0.0,0.0,0.5818311261250113,-0.15391887387498873,9.827952117124921
1350000000.0,22.09,0.0,0.0,0.0,0.5827139475557395,-0.14420697377786973,9.77762697377787
1355000000.0,22.09,0.0,0.0,0.0,0.5775147789577478,-0.14018492631924925,9.779294778957748
1360000000.0,22.09,0.0,0.0,0.0,0.5929163471672635,-0.15264365283273654,9.81667095849821
1365000000.0,22.09,0.0,0.0,0.0,0.5867361795404618,-0.16412127348651273,9.861698726513486
1370000000.0,22.09,0.0,0.0,0.0,0.6005681201681812,-0.15440937338939373,9.86120812016818
1375000000.0,22.09,0.0,0.0,0.0,0.5836950534154506,-0.14224494658454948,9.819809786338197
1380000000.0,22.09,0.0,0.0,0.0,0.59841,-0.1345932804145328,9.765658853609688
1385000000.0,22.09,0.0,0.0,0.0,0.59841,-0.15244734619607345,9.79410796141178
1390000000.0,22.09,0.0,0.0,0.0,0.59841,-0.14165645399816454,9.83943
1395000000.0,22.09,0.0,0.0,0.0,0.5922296187113962,-0.15283974580759746,9.83943
1400000000.0,22.09,0.0,0.0,0.0,0.5748660815799609,-0.1451881087732811,9.829619864033399
1405000000.0,22.09,0.0,0.0,0.0,0.59841,-0.17285214541912144,9.784788218128682
1410000000.0,22.09,0.0,0.0,0.0,0.5948783452248835,-0.15342834522488344,9.768013309550232
1415000000.0,22.09,0.0,0.0,0.0,0.5804577274846773,-0.14234318245403182,9.801857727484679
1420000000.0,22.09,0.0,0.0,0.0,0.5901696275817963,-0.16520037241820373,9.81
1425000000.0,22.09,0.0,0.0,0.0,0.59841,-0.15843152767891527,9.811471527678917
1430000000.0,22.09,0.0,0.0,0.0,0.59841,-0.16402314444793145,9.817063144447932
1435000000.0,22.09,0.0,0.0,0.0,0.5971346721268467,-0.1458746721268467,9.797639344253694
1440000000.0,22.09,0.0,0.0,0.0,0.5897772279702723,-0.14204891188108912,9.781747227970273
1445000000.0,22.09,0.0,0.0,0.0,0.5994891280673913,-0.17118435966304357,9.794696512269566
1450000000.0,22.09,0.0,0.0,0.0,0.6072389718354897,-0.13145411265804113,9.82863897183549
1455000000.0,22.09,0.0,0.0,0.0,0.5992929282616293,-0.16500414347674144,9.818044143476742
1460000000.0,22.09,0.0,0.0,0.0,0.6066503432825034,-0.1463651716412517,9.799405171641252
1465000000.0,22.09,0.0,0.0,0.0,0.5892867284558673,-0.13802672845586728,9.789006543088266
1470000000.0,22.09,0.0,0.0,0.0,0.5978213714470137,-0.14832725710597258,9.774291771317918
1475000000.0,22.09,0.0,0.0,0.0,0.5876189426997894,-0.16578894269978942,9.82962
1480000000.0,22.09,0.0,0.0,0.0,0.5697648574944486,-0.14675757125277572,9.829227571252776
1485000000.0,22.09,0.0,0.0,0.0,0.5886,-0.13822298653302986,9.81804402693394
1490000000.0,22.09,0.0,0.0,0.0,0.5884037710585377,-0.16598508423415084,9.761342457882924
1495000000.0,22.09,0.0,0.0,0.0,0.5789862580771626,-0.1277262580771626,9.780962516154325
1500000000.0,22.09,0.0,0.0,0.0,0.59841,-0.1471500291357003,9.819810174814203
1505000000.0,22.09,0.0,0.0,0.0,0.59841,-0.15686192923281927,9.878081575396916
1510000000.0,22.09,0.0,0.0,0.0,0.6080238293299383,-0.1473461706700617,9.830600853350308
1515000000.0,22.09,0.0,0.0,0.0,0.5701570822917709,-0.1376342705729427,9.734462705729428
1520000000.0,22.09,0.0,0.0,0.0,0.5783976295241763,-0.1467576295241763,9.750355259048352
1525000000.0,22.09,0.0,0.0,0.0,0.5974290592425906,-0.14715,9.825696236970362
1530000000.0,22.09,0.0,0.0,0.0,0.5891885702815857,-0.15637142971841428,9.884948578310485
1535000000.0,22.09,0.0,0.0,0.0,0.6068466596310665,-0.1660833298155333,9.842863350922334
1540000000.0,22.09,0.0,0.0,0.0,0.60822,-0.17579522991265228,9.794303850436739
1545000000.0,22.09,0.0,0.0,0.0,0.5903657399804574,-0.14979860997068611,9.754671479960914
1550000000.0,22.09,0.0,0.0,0.0,0.5974290301068903,-0.1559790301068903,9.77762709032067
1555000000.0,22.09,0.0,0.0,0.0,0.5809481395919814,-0.15696,9.832955581224056
1560000000.0,22.09,0.0,0.0,0.0,0.604688490903385,-0.1483271696988717,9.848062830301128
1565000000.0,22.09,0.0,0.0,0.0,0.5996852696017527,-0.14715,9.815101078407011
1570000000.0,22.09,0.0,0.0,0.0,0.5815367390092674,-0.14715,9.776253478018534
1575000000.0,22.09,0.0,0.0,0.0,0.57879,-0.14715,9.779098530592487
1580000000.0,22.09,0.0,0.0,0.0,0.5705495693103957,-0.1553904306896043,9.788810430689605
1585000000.0,22.09,0.0,0.0,0.0,0.6015493231468932,-0.16510233078672332,9.847376315507063
1590000000.0,22.09,0.0,0.0,0.0,0.5840873073484731,-0.13459307646463076,9.81882884558079
1595000000.0,22.09,0.0,0.0,0.0,0.6105745239238453,-0.15931452392384524,9.794107738038077
1600000000.0,22.09,0.0,0.0,0.0,0.6023339378438394,-0.14322590676575905,9.782531968921921
1605000000.0,22.09,0.0,0.0,0.0,0.5906600688248007,-0.1450899311751993,9.7960698623504
1610000000.0,22.09,0.0,0.0,0.0,0.5809481687276817,-0.14715,9.815493662544638
1615000000.0,22.09,0.0,0.0,0.0,0.57879,-0.16225746273887462,9.81981
1620000000.0,22.09,0.0,0.0,0.0,0.5937012629331127,-0.14440310560033104,9.797443105600331
1625000000.0,22.09,0.0,0.0,0.0,0.5910524684363246,-0.15205506312735062,9.783022468436325
1630000000.0,22.09,0.0,0.0,0.0,0.6031188633215886,-0.1642194316607943,9.79508886332159
1635000000.0,22.09,0.0,0.0,0.0,0.6010586682420866,-0.15960866824208667,9.828835327031653
1640000000.0,22.09,0.0,0.0,0.0,0.5842835362899353,-0.16402323185503231,9.83943
1645000000.0,22.09,0.0,0.0,0.0,0.5927202639043027,-0.15283973609569737,9.811569472191396
1650000000.0,22.09,0.0,0.0,0.0,0.5846759359014594,-0.16088406409854064,9.772721871802919
1655000000.0,22.09,0.0,0.0,0.0,0.5923278642927786,-0.16677,9.767718932146389
1660000000.0,22.09,0.0,0.0,0.0,0.5917391677564917,-0.15342833551298335,9.824126657948065
1665000000.0,22.09,0.0,0.0,0.0,0.5886,-0.1537227323406273,9.855812732340627
1670000000.0,22.09,0.0,0.0,0.0,0.5886,-0.1634346324377463,9.833151470249016
1675000000.0,22.09,0.0,0.0,0.0,0.5822234674651346,-0.14764040239540402,9.787927337325673
1680000000.0,22.09,0.0,0.0,0.0,0.5850684326319844,-0.13734,9.764481567368016
1685000000.0,22.09,0.0,0.0,0.0,0.5762393345417933,-0.15588099818731,9.791851663645517
1690000000.0,22.09,0.0,0.0,0.0,0.587226698478667,-0.16068776717377767,9.83432893130489
1695000000.0,22.09,0.0,0.0,0.0,0.59841,-0.1629441329233413,9.843255867076659
1700000000.0,22.09,0.0,0.0,0.0,0.5866379339590794,-0.16088396697953966,9.80411380187724
1705000000.0,22.09,0.0,0.0,0.0,0.5672141337648414,-0.16853586623515865,9.78057
1710000000.0,22.09,0.0,0.0,0.0,0.5705496664293968,-0.16520033357060332,9.797639499644095
1715000000.0,22.09,0.0,0.0,0.0,0.5899734666236347,-0.140184800064548,9.821183466623635
1720000000.0,22.09,0.0,0.0,0.0,0.5819290997731911,-0.1385172668178727,9.840607266817873
1725000000.0,22.09,0.0,0.0,0.0,0.5743755335060554,-0.15794106701211066,9.822262332469723
1730000000.0,22.09,0.0,0.0,0.0,0.5893848672063486,-0.15617513279365133,9.789595132793652
1735000000.0,22.09,0.0,0.0,0.0,0.59841,-0.16274800110088,9.796168001100881
1740000000.0,22.09,0.0,0.0,0.0,0.59841,-0.15617506481035065,9.825303701392237
1745000000.0,22.09,0.0,0.0,0.0,0.59841,-0.14234313389453135,9.834426866105469
1750000000.0,22.09,0.0,0.0,0.0,0.59841,-0.15696006798330067,9.809999864033399
1755000000.0,22.09,0.0,0.0,0.0,0.5936030659112307,-0.15715613182246133,9.785573065911231
1760000000.0,22.09,0.0,0.0,0.0,0.5886,-0.14715,9.794696502557665
1765000000.0,22.09,0.0,0.0,0.0,0.5886,-0.15176073428300735,9.82844293713203
1770000000.0,22.09,0.0,0.0,0.0,0.5976252687602527,-0.15244736561987365,9.840214731239747
1775000000.0,22.09,0.0,0.0,0.0,0.60822,-0.15156453447724533,9.82962
1780000000.0,22.09,0.0,0.0,0.0,0.595270696276907,-0.16127643457436433,9.812354261702543
1785000000.0,22.09,0.0,0.0,0.0,0.5830083346714834,-0.1583333306570333,9.781943330657034
1790000000.0,22.09,0.0,0.0,0.0,0.5886,-0.14715,9.78724093907441
1795000000.0,22.09,0.0,0.0,0.0,0.5966442697314427,-0.1551942697314427,9.822066404597164
1800000000.0,22.09,0.0,0.0,0.0,0.6003719300743193,-0.16284596503715965,9.83158193007432
1805000000.0,22.09,0.0,0.0,0.0,0.5847740649400407,-0.16461187011991868,9.808332194820123
1810000000.0,22.09,0.0,0.0,0.0,0.57879,-0.17658,9.782924329685843
1815000000.0,22.09,0.0,0.0,0.0,0.5824197352541973,-0.16932052949160528,9.778019470508395
1820000000.0,22.09,0.0,0.0,0.0,0.5921316353513164,-0.15342836464868365,9.797443270702633
1825000000.0,22.09,0.0,0.0,0.0,0.5915429291031293,-0.14371646455156464,9.81
1830000000.0,22.09,0.0,0.0,0.0,0.5854608710911088,-0.13734,9.813335435545556
1835000000.0,22.09,0.0,0.0,0.0,0.5951726643573266,-0.14705200692802006,9.816572664357327
1840000000.0,22.09,0.0,0.0,0.0,0.5948784714795847,-0.16677,9.813139235739794
1845000000.0,22.09,0.0,0.0,0.0,0.6021377283261773,-0.16372886416308863,9.813727728326178
1850000000.0,22.09,0.0,0.0,0.0,0.5827139281319393,-0.15696,9.803133035934032
1855000000.0,22.09,0.0,0.0,0.0,0.56898,-0.15980493603114934,9.81
1860000000.0,22.09,0.0,0.0,0.0,0.5772205083848051,-0.15852949161519492,9.81
1865000000.0,22.09,0.0,0.0,0.0,0.59841,-0.1426374724507747,9.807351263774613
1870000000.0,22.09,0.0,0.0,0.0,0.5907580910324809,-0.15696,9.802740636322508
1875000000.0,22.09,0.0,0.0,0.0,0.5763376092588761,-0.1643176092588761,9.81490507283925
1880000000.0,22.09,0.0,0.0,0.0,0.5937011269665112,-0.1793266904497669,9.831974436516745
1885000000.0,22.09,0.0,0.0,0.0,0.5833026732277268,-0.15921633661386336,9.83266099015841
1890000000.0,22.09,0.0,0.0,0.0,0.5940935265780353,-0.16677,9.799208816445088
1895000000.0,22.09,0.0,0.0,0.0,0.5829102736162027,-0.16677,9.767130410424304
1900000000.0,22.09,0.0,0.0,0.0,0.59841,-0.16677,9.802152221431323
1905000000.0,22.09,0.0,0.0,0.0,0.6002739370023393,-0.16490606299766064,9.847376062997661
1910000000.0,22.09,0.0,0.0,0.0,0.60822,-0.15696,9.832366651602166
1915000000.0,22.09,0.0,0.0,0.0,0.6032167884102678,-0.15362452560684525,9.793519051213691
1920000000.0,22.09,0.0,0.0,0.0,0.5819292745873927,-0.14204891188108912,9.764089274587393
1925000000.0,22.09,0.0,0.0,0.0,0.5954669252183693,-0.16235538782755388,9.784984612172448
1930000000.0,22.09,0.0,0.0,0.0,0.57879,-0.1414603124638031,9.812746874975868
1935000000.0,22.09,0.0,0.0,0.0,0.5775146624149466,-0.16421932482989324,9.830895337585053
1940000000.0,22.09,0.0,0.0,0.0,0.5725117130465172,-0.14950447536434475,9.831189336224794
1945000000.0,22.09,0.0,0.0,0.0,0.5994891377792914,-0.16461172444141725,9.772918275558583
1950000000.0,22.09,0.0,0.0,0.0,0.6072389621235896,-0.14911207575282076,9.793323113629231
1955000000.0,22.09,0.0,0.0,0.0,0.5975270620264707,-0.16500412405294124,9.822458813920589
1960000000.0,22.09,0.0,0.0,0.0,0.5901696761412968,-0.1479348380706484,9.846885485788055
1965000000.0,22.09,0.0,0.0,0.0,0.6068465236644652,-0.15833347633553474,9.817063047328931
1970000000.0,22.09,0.0,0.0,0.0,0.5874227234702273,-0.17540272347022723,9.779981361735114
1975000000.0,22.09,0.0,0.0,0.0,0.56898,-0.15745053836200537,9.774684306896042
1980000000.0,22.09,0.0,0.0,0.0,0.5693724384591244,-0.16559268462262686,9.847670246163503
1985000000.0,22.09,0.0,0.0,0.0,0.5790843385562434,-0.13734,9.81
1990000000.0,22.09,0.0,0.0,0.0,0.5886,-0.13792871596008716,9.809607522693275
1995000000.0,22.09,0.0,0.0,0.0,0.5886,-0.16677,9.79038
2000000000.0,22.09,0.0,0.0,0.0,0.5886000388476004,-0.16676988345719884,9.790380116542801
2005000000.0,22.09,0.0,0.0,0.0,0.5983119389447193,-0.1376341831658418,9.819515816834159
2010000000.0,22.09,0.0,0.0,0.0,0.5695684828744849,-0.17579535616735356,9.810196160958162
2015000000.0,22.09,0.0,0.0,0.0,0.5784957391389575,-0.16706426086104262,9.81
2020000000.0,22.09,0.0,0.0,0.0,0.5976252784721527,-0.13851708229177082,9.791164721527847
2025000000.0,22.09,0.0,0.0,0.0,0.5890904606668046,-0.13734,9.799699539333195
2030000000.0,22.09,0.0,0.0,0.0,0.5793785605696856,-0.13734,9.809411439430315
2035000000.0,22.09,0.0,0.0,0.0,0.5970366790548668,-0.15558667905486678,9.8373700185823
2040000000.0,22.09,0.0,0.0,0.0,0.6074352396245524,-0.15696,9.80332904150179
2045000000.0,22.09,0.0,0.0,0.0,0.5992928602783286,-0.15696,9.782335720556658
2050000000.0,22.09,0.0,0.0,0.0,0.5895809601812096,-0.15696,9.798228079637582
2055000000.0,22.09,0.0,0.0,0.0,0.5973309399159094,-0.1482290600840906,9.80019
2060000000.0,22.09,0.0,0.0,0.0,0.6070428400130283,-0.1816813600521136,9.817455680026058
2065000000.0,22.09,0.0,0.0,0.0,0.565546299449263,-0.15225103955941038,9.81981
2070000000.0,22.09,0.0,0.0,0.0,0.5844799206217992,-0.1555866402072664,9.802936719585468
2075000000.0,22.09,0.0,0.0,0.0,0.5969385403043854,-0.1486214596956146,9.80019
2080000000.0,22.09,0.0,0.0,0.0,0.59841,-0.1553904404015044,9.81667088080301
2085000000.0,22.09,0.0,0.0,0.0,0.5821253190027532,-0.14067531900275318,9.803525319002754
2090000000.0,22.09,0.0,0.0,0.0,0.57879,-0.16951696238296962,9.776057278212772
2095000000.0,22.09,0.0,0.0,0.0,0.5867361406928614,-0.1527415779214158,9.778706140692861
2100000000.0,22.09,0.0,0.0,0.0,0.5964480407899804,-0.1549980407899804,9.819810203949903
2105000000.0,22.09,0.0,0.0,0.0,0.59841,-0.14921005911290058,9.82962
2110000000.0,22.09,0.0,0.0,0.0,0.59841,-0.14715,9.814316318031564
2115000000.0,22.09,0.0,0.0,0.0,0.5908562589186626,-0.12448877675598777,9.802446258918664
2120000000.0,22.09,0.0,0.0,0.0,0.6035112823569128,-0.14754256471382565,9.807645641178457
2125000000.0,22.09,0.0,0.0,0.0,0.6008624587244246,-0.1643175412755754,9.817357541275577
2130000000.0,22.09,0.0,0.0,0.0,0.59841,-0.15951055862730557,9.805291117254612
2135000000.0,22.09,0.0,0.0,0.0,0.6127326829396269,-0.1497986585301866,9.814512682939627
2140000000.0,22.09,0.0,0.0,0.0,0.5968402752992028,-0.15421324156693242,9.784493792165337
2145000000.0,22.09,0.0,0.0,0.0,0.5816348583359486,-0.15696,9.805585708320256
2150000000.0,22.09,0.0,0.0,0.0,0.5856570417611704,-0.1638270417611704,9.82667704176117
2155000000.0,22.09,0.0,0.0,0.0,0.5886,-0.15323211628342118,9.802544232566843
2160000000.0,22.09,0.0,0.0,0.0,0.5685874741337748,-0.14715,9.777038316089183
2165000000.0,22.09,0.0,0.0,0.0,0.5854609682101097,-0.17344096821010968,9.783905484105055
2170000000.0,22.09,0.0,0.0,0.0,0.6048846421496464,-0.16696607355106072,9.822753210748232
2175000000.0,22.09,0.0,0.0,0.0,0.5954669155064691,-0.16333654224676541,9.83943
2180000000.0,22.09,0.0,0.0,0.0,0.5948784423438844,-0.15421311531223114,9.833151557656116
2185000000.0,22.09,0.0,0.0,0.0,0.5922296575589966,-0.14715,9.773996918030969
2190000000.0,22.09,0.0,0.0,0.0,0.5825177574618776,-0.16539672761436727,9.753494485076244
2195000000.0,22.09,0.0,0.0,0.0,0.57879,-0.15862757209427572,9.796854855811448
2200000000.0,22.09,0.0,0.0,0.0,0.5846760427323604,-0.15303604273236043,9.855126256394163
2205000000.0,22.09,0.0,0.0,0.0,0.5943879428294794,-0.14538411434104112,9.843942343023123
2210000000.0,22.09,0.0,0.0,0.0,0.5756506282936064,-0.14871968585319684,9.814120157073402
2215000000.0,22.09,0.0,0.0,0.0,0.5703534860474349,-0.16255174302371742,9.798816513952566
2220000000.0,22.09,0.0,0.0,0.0,0.5732963568791636,-0.16677,9.79038
2225000000.0,22.09,0.0,0.0,0.0,0.5635844567820446,-0.15597891356408913,9.82814880252569
2230000000.0,22.09,0.0,0.0,0.0,0.5750623299452233,-0.14715,9.848455113369852
2235000000.0,22.09,0.0,0.0,0.0,0.5989986868243868,-0.15754868682438689,9.80823393952684
2240000000.0,22.09,0.0,0.0,0.0,0.6031187564906876,-0.15656751298137514,9.795873730527939
2245000000.0,22.09,0.0,0.0,0.0,0.5834005691807057,-0.14715,9.81
2250000000.0,22.09,0.0,0.0,0.0,0.5738850437035504,-0.15696008740710088,9.81490504370355
2255000000.0,22.09,0.0,0.0,0.0,0.5884038876013389,-0.16677,9.81981
2260000000.0,22.09,0.0,0.0,0.0,0.5937011561022115,-0.15264346830663467,9.815101156102212
2265000000.0,22.09,0.0,0.0,0.0,0.5839892560050925,-0.14656148798981486,9.800778512010186
2270000000.0,22.09,0.0,0.0,0.0,0.5878152881840529,-0.1479347118159471,9.812943220460133
2275000000.0,22.09,0.0,0.0,0.0,0.6028245441891454,-0.14616908837829087,9.835015455810854
2280000000.0,22.09,0.0,0.0,0.0,0.5952706671412067,-0.16127644428626445,9.816670667141207
2285000000.0,22.09,0.0,0.0,0.0,0.57879,-0.1583333112332331,9.795971655616617
2290000000.0,22.09,0.0,0.0,0.0,0.5829102444805024,-0.14715,9.782139511038995
2295000000.0,22.09,0.0,0.0,0.0,0.5845778554223786,-0.14312785542237855,9.79891501204335
2300000000.0,22.09,0.0,0.0,0.0,0.5866380893494809,-0.14518808934948088,9.83550595532526
2305000000.0,22.09,0.0,0.0,0.0,0.59841,-0.1493081104562811,9.83344594477186
2310000000.0,22.09,0.0,0.0,0.0,0.5872264653930647,-0.14852353460693535,9.828246465393065
2315000000.0,22.09,0.0,0.0,0.0,0.5726097449660975,-0.1595105100678051,9.806370255033903
2320000000.0,22.09,0.0,0.0,0.0,0.5823216450632165,-0.14715,9.782531774683918
2325000000.0,22.09,0.0,0.0,0.0,0.5920335451603355,-0.15058354516033545,9.778608361282684
2330000000.0,22.09,0.0,0.0,0.0,0.59841,-0.15696,9.819613664227637
2335000000.0,22.09,0.0,0.0,0.0,0.5951726546454266,-0.16019734535457344,9.80019
2340000000.0,22.09,0.0,0.0,0.0,0.5917392454516924,-0.16677,9.80019
2345000000.0,22.09,0.0,0.0,0.0,0.5923277089023771,-0.16677,9.806272291097624
2350000000.0,22.09,0.0,0.0,0.0,0.5846760912918609,-0.16677,9.81686695435407
2355000000.0,22.09,0.0,0.0,0.0,0.5898751627708516,-0.16961494574304944,9.804310108513901
2360000000.0,22.09,0.0,0.0,0.0,0.5799673833606739,-0.17383315415983153,9.804114229200843
2365000000.0,22.09,0.0,0.0,0.0,0.602922508125425,-0.15882376218813762,9.826186270313563
2370000000.0,22.09,0.0,0.0,0.0,0.5911506460344065,-0.1424412920688129,9.79038
2375000000.0,22.09,0.0,0.0,0.0,0.5959574538684745,-0.15450745386847453,9.797737638394578
2380000000.0,22.09,0.0,0.0,0.0,0.5886,-0.14715,9.81981
2385000000.0,22.09,0.0,0.0,0.0,0.5931126926515269,-0.14940634632576347,9.815297307348473
2390000000.0,22.09,0.0,0.0,0.0,0.6060617535771176,-0.15911824642288244,9.804506492845766
2395000000.0,22.09,0.0,0.0,0.0,0.5963498534799986,-0.16264970695999706,9.813629560439995
2400000000.0,22.09,0.0,0.0,0.0,0.5886,-0.14715,9.794304093234242
2405000000.0,22.09,0.0,0.0,0.0,0.5923278934284789,-0.14901394671423945,9.81372789342848
2410000000.0,22.09,0.0,0.0,0.0,0.6029224595659246,-0.15342830637728305,9.831385846811358
2415000000.0,22.09,0.0,0.0,0.0,0.57879,-0.14067549381695493,9.834426759274567
2420000000.0,22.09,0.0,0.0,0.0,0.5803596470055965,-0.15696,9.805291058983212
2425000000.0,22.09,0.0,0.0,0.0,0.5886,-0.15548845289728452,9.782041547102716
2430000000.0,22.09,0.0,0.0,0.0,0.5899734471998345,-0.14852344719983449,9.79312689439967
2435000000.0,22.09,0.0,0.0,0.0,0.59841,-0.15696,9.816376736484768
2440000000.0,22.09,0.0,0.0,0.0,0.5995872473940724,-0.15696,9.850809268241493
2445000000.0,22.09,0.0,0.0,0.0,0.60822,-0.15696,9.788221705017618
2450000000.0,22.09,0.0,0.0,0.0,0.6052768572350685,-0.15892209517662095,9.774684190353241
2455000000.0,22.09,0.0,0.0,0.0,0.57879,-0.1756970523145705,9.81088294768543
2460000000.0,22.09,0.0,0.0,0.0,0.5795748477825485,-0.16677,9.818240304434903
2465000000.0,22.09,0.0,0.0,0.0,0.589973495759335,-0.1660832521203325,9.80019
2470000000.0,22.09,0.0,0.0,0.0,0.607042704046427,-0.1563713520232135,9.801367295953574
2475000000.0,22.09,0.0,0.0,0.0,0.5890905480739055,-0.14665945192609453,9.819319451926095
2480000000.0,22.09,0.0,0.0,0.0,0.5980175518289755,-0.13773244817102448,9.81
2485000000.0,22.09,0.0,0.0,0.0,0.5886,-0.14803304480443044,9.81
2490000000.0,22.09,0.0,0.0,0.0,0.5884037516347376,-0.17618750326947502,9.80921500653895
2495000000.0,22.09,0.0,0.0,0.0,0.5790844453871444,-0.1568618515376185,9.771054445387144
2500000000.0,22.09,0.0,0.0,0.0,0.608219902880999,-0.14714990288099902,9.800190097119001
2505000000.0,22.09,0.0,0.0,0.0,0.5887961026867611,-0.12772610268676104,9.81961389731324
2510000000.0,22.09,0.0,0.0,0.0,0.5886,-0.15637154626121547,9.82942384875374
2515000000.0,22.09,0.0,0.0,0.0,0.569568502298285,-0.16647574885085747,9.801072753447428
2520000000.0,22.09,0.0,0.0,0.0,0.6066505957919059,-0.1573523510520235,9.781354702104048
2525000000.0,22.09,0.0,0.0,0.0,0.5989004509549045,-0.16627954904509548,9.808528647135287
2530000000.0,22.09,0.0,0.0,0.0,0.5707456525733565,-0.1575485508577855,9.81
2535000000.0,22.09,0.0,0.0,0.0,0.5781033492393335,-0.15696,9.837370047718
2540000000.0,22.09,0.0,0.0,0.0,0.5878152493364525,-0.15696,9.803329002654191
2545000000.0,22.09,0.0,0.0,0.0,0.570745701132857,-0.15696,9.79126285056643
2550000000.0,22.09,0.0,0.0,0.0,0.6042961981227619,-0.18344714859207148,9.79038
2555000000.0,22.09,0.0,0.0,0.0,0.5820271511165716,-0.17765905037219049,9.842765697766858
2560000000.0,22.09,0.0,0.0,0.0,0.6046885491747854,-0.13341575137535752,9.840607150275071
2565000000.0,22.09,0.0,0.0,0.0,0.5655462508897625,-0.1360647498220475,9.779686751245666
2570000000.0,22.09,0.0,0.0,0.0,0.592916599676666,-0.13734,9.779196649919166
2575000000.0,22.09,0.0,0.0,0.0,0.581732899967429,-0.1456785500162855,9.805585650048856
2580000000.0,22.09,0.0,0.0,0.0,0.6035113503402135,-0.1553904501134045,9.842961800453619
2585000000.0,22.09,0.0,0.0,0.0,0.6000776497894765,-0.15696,9.816670599157906
2590000000.0,22.09,0.0,0.0,0.0,0.5903657496923576,-0.1650042503076425,9.801955749692358
2595000000.0,22.09,0.0,0.0,0.0,0.5886,-0.14293154878571548,9.760459247976192
2600000000.0,22.09,0.0,0.0,0.0,0.604296101003761,-0.153036101003761,9.774684151505642
2605000000.0,22.09,0.0,0.0,0.0,0.6004700494010005,-0.14146009880200097,9.819319752994998
2610000000.0,22.09,0.0,0.0,0.0,0.5907581493038815,-0.13734,9.82962
2615000000.0,22.09,0.0,0.0,0.0,0.6112612523797126,-0.1297862492067625,9.822066249206763
2620000000.0,22.09,0.0,0.0,0.0,0.5956630473289305,-0.1349856508903565,9.797443047328931
2625000000.0,22.09,0.0,0.0,0.0,0.5886,-0.152055101974951,9.79038
2630000000.0,22.09,0.0,0.0,0.0,0.5813405489154055,-0.171478902169189,9.804898902169189
2635000000.0,22.09,0.0,0.0,0.0,0.5859513511817135,-0.15509594645485947,9.824322702363427
2640000000.0,22.09,0.0,0.0,0.0,0.5815367487211676,-0.1542132512788325,9.808430246163503
2645000000.0,22.09,0.0,0.0,0.0,0.5857551513759516,-0.14302969724809697,9.80019
2650000000.0,22.09,0.0,0.0,0.0,0.5954670514730706,-0.15794115441921155,9.81392410294614
2655000000.0,22.09,0.0,0.0,0.0,0.59841,-0.1735389515701895,9.81981
2660000000.0,22.09,0.0,0.0,0.0,0.5917391483326915,-0.16323829666538295,9.813139148332692
2665000000.0,22.09,0.0,0.0,0.0,0.5951727517644275,-0.15696,9.796854496471145
2670000000.0,22.09,0.0,0.0,0.0,0.585460696276907,-0.15696,9.796854651861548
2675000000.0,22.09,0.0,0.0,0.0,0.591543103917331,-0.14420689608266896,9.806566551958666
2680000000.0,22.09,0.0,0.0,0.0,0.5921315479442155,-0.14989690411156903,9.816278452055785
2685000000.0,22.09,0.0,0.0,0.0,0.6009607043058071,-0.15077964784709647,9.795088591388387
2690000000.0,22.09,0.0,0.0,0.0,0.5717264864998649,-0.15931450450004506,9.792734504500046
2695000000.0,22.09,0.0,0.0,0.0,0.5732966093885661,-0.1488175429585754,9.788221695305717
2700000000.0,22.09,0.0,0.0,0.0,0.600372104888521,-0.13734,9.798228157332781
2705000000.0,22.09,0.0,0.0,0.0,0.5966440949172409,-0.14312795254137953,9.798424094917241
2710000000.0,22.09,0.0,0.0,0.0,0.6056695579154956,-0.13577029472300295,9.79038
2715000000.0,22.09,0.0,0.0,0.0,0.6124382472643825,-0.13871350547123507,9.79038
2720000000.0,22.09,0.0,0.0,0.0,0.5917390415017905,-0.13616269433452693,9.801367305665474
2725000000.0,22.09,0.0,0.0,0.0,0.5949766587895666,-0.13832110585971105,9.81
2730000000.0,22.09,0.0,0.0,0.0,0.5976250939460509,-0.15244745302697452,9.799405093946051
2735000000.0,22.09,0.0,0.0,0.0,0.5834006468759065,-0.15176064687590646,9.785180646875908
2740000000.0,22.09,0.0,0.0,0.0,0.57879,-0.15225125322121252,9.795873759663639
2745000000.0,22.09,0.0,0.0,0.0,0.588796306636663,-0.15195684668166845,9.835015766591658
2750000000.0,22.09,0.0,0.0,0.0,0.59841,-0.15205505341545053,9.86395505341545
2755000000.0,22.09,0.0,0.0,0.0,0.5887960929748609,-0.16657390702513905,9.840018278924584
2760000000.0,22.09,0.0,0.0,0.0,0.5882077072193771,-0.18128885360968852,9.800582292780623
2765000000.0,22.09,0.0,0.0,0.0,0.59841,-0.17716849258638492,9.781158492586385
2770000000.0,22.09,0.0,0.0,0.0,0.5938973461960735,-0.16677,9.788810615215706
2775000000.0,22.09,0.0,0.0,0.0,0.5841854460989545,-0.1579408921979089,9.832072769505228
2780000000.0,22.09,0.0,0.0,0.0,0.5831064539981645,-0.15578290799632907,9.846100638005506
2785000000.0,22.09,0.0,0.0,0.0,0.5801632918094329,-0.15833329180943292,9.804309875428299
2790000000.0,22.09,0.0,0.0,0.0,0.56898,-0.15127025419240253,9.77076
2795000000.0,22.09,0.0,0.0,0.0,0.5810464628685647,-0.15293784571047844,9.786848617158086
2800000000.0,22.09,0.0,0.0,0.0,0.59841,-0.14715,9.817848108773282
2805000000.0,22.09,0.0,0.0,0.0,0.5907580910324809,-0.13949809103248093,9.821968091032481
2810000000.0,22.09,0.0,0.0,0.0,0.5974292729043927,-0.1349857091617571,9.802544290838243
2815000000.0,22.09,0.0,0.0,0.0,0.6169507359660074,-0.1398904906440049,9.783120490644006
2820000000.0,22.09,0.0,0.0,0.0,0.5842833808995338,-0.12753,9.784886619100465
2825000000.0,22.09,0.0,0.0,0.0,0.5660371097444712,-0.13096355487223554,9.813433554872235
2830000000.0,22.09,0.0,0.0,0.0,0.5854609099387091,-0.13400454503064543,9.809803635091937
2835000000.0,22.09,0.0,0.0,0.0,0.5919352898670529,-0.13724206519942064,9.79038
2840000000.0,22.09,0.0,0.0,0.0,0.5819292551635926,-0.15382074483640745,9.793519255163593
2845000000.0,22.09,0.0,0.0,0.0,0.5946823105214231,-0.15627346578213466,9.812354621042847
2850000000.0,22.09,0.0,0.0,0.0,0.60822,-0.17658,9.83648694464217
2855000000.0,22.09,0.0,0.0,0.0,0.60822,-0.16804513363515133,9.812550267270302
2860000000.0,22.09,0.0,0.0,0.0,0.6054731444479314,-0.14989685555206855,9.77076
2865000000.0,22.09,0.0,0.0,0.0,0.5957612443508125,-0.15696,9.781355022596749
2870000000.0,22.09,0.0,0.0,0.0,0.5860493442536935,-0.1620613114926131,9.812550655746307
2875000000.0,22.09,0.0,0.0,0.0,0.5812425558434255,-0.17167488831314887,9.81490488831315
2880000000.0,22.09,0.0,0.0,0.0,0.5862455440594555,-0.14989663217836632,9.80019
2885000000.0,22.09,0.0,0.0,0.0,0.57879,-0.12978635603766356,9.797933643962336
2890000000.0,22.09,0.0,0.0,0.0,0.5852647684043477,-0.13518174386521742,9.794696512269566
2895000000.0,22.09,0.0,0.0,0.0,0.6040996875361969,-0.12753,9.787338281449083
2900000000.0,22.09,0.0,0.0,0.0,0.5846758873419589,-0.12753,9.70209
2905000000.0,22.09,0.0,0.0,0.0,0.5801637385568374,-0.12380208714772088,9.713273738556838
2910000000.0,22.09,-0.0015331462893941553,0.0007665731446970687,0.0,0.6225424304302244,-0.10967585652325858,9.775076852186068
2915000000.0,22.09,-0.007431226020069402,0.004982590527974698,0.0,0.59841,-0.11938775662037757,9.829423460277734
2920000000.0,22.09,-0.002640352558573091,0.008176506168972244,0.0,0.5952706865650068,-0.12596034328250344,9.796266567174966
2925000000.0,22.09,-0.004844142841133976,0.006068497477333389,0.0,0.5802615568146156,-0.12360622725846228,9.859539761409998
2930000000.0,22.09,-0.003023645454947701,0.0033642596073514266,0.0,0.5886,-0.15421308617653084,9.752513456911734
2935000000.0,22.09,-0.0092092607331756,-0.002129301687433,0.0,0.5911507140177071,-0.14371678504426785,9.780080355132803
2940000000.0,22.09,-0.013712696669523454,-0.001873773089849933,0.0,0.6093972571059726,-0.18521274289402742,9.910454514211944
2945000000.0,22.09,-0.013010045726387235,0.00011711780089441188,0.0,0.6169508427969085,-0.1798174716092747,9.939590729234007
2950000000.0,22.09,-0.015013328546225472,0.0012775934497110907,0.0,0.6072389426997894,-0.20895317190063173,10.013065682095156
2955000000.0,22.09,-0.015698170634523216,0.0029064781158490843,0.0,0.5992929573973296,-0.23720591479465916,9.793223809450739
2960000000.0,22.09,-0.011753670438161801,0.000681426457624402,0.0,0.6066502850111029,-0.25270542751665426,9.639307149888971
2965000000.0,22.09,0.0002235954279177841,0.00881533398695601,0.0,0.5886,-0.2228829696337297,9.832858394239784
2970000000.0,22.09,0.0031300672197407896,0.012903580747416014,0.0,0.5886,-0.18639,10.007965973066062
2975000000.0,22.09,0.0019163464333862693,0.014638917744473076,0.0,0.5866377688567777,-0.1868805577858056,10.025328286498082
2980000000.0,22.09,-0.0020441170562038777,0.009411488330990552,0.0,0.5481826263512263,-0.19580754211707543,9.821378384458583
2985000000.0,22.09,0.00012778327086976116,0.0051635251299954965,0.0,0.5202243579800436,-0.18580128403991283,9.624787431920174
2990000000.0,22.09,0.00427990269468642,-0.00017039455856254998,0.0,0.5309175484629755,-0.16618122576851227,9.668737742314878
2995000000.0,22.09,0.005344559862429093,-0.0085172067497323,0.0,0.5885018418257184,-0.13714368365143684,9.956659209128592
3000000000.0,22.09,0.0074525432579635505,-0.0085172067497323,0.0,0.5787899417285994,-0.11772005827140058,9.90809912592899
3005000000.0,22.09,0.005344534566324793,-0.0085172067497323,0.0,0.5690780416314805,-0.1274319583685196,9.762420624472206
3010000000.0,22.09,0.0053232542185827,-0.0012136575460936832,0.0,0.5593661415343615,-0.14675771693127718,9.69365299074053
3015000000.0,22.09,0.0011923835223776645,-0.003130086191819018,0.0,0.5591700000000001,-0.11860272431172725,9.65421696574897
3020000000.0,22.09,-0.0009794915085916775,-0.004216023707303689,0.0,0.5780053173197532,-0.08004936536049365,9.728381269279012
3025000000.0,22.09,-0.0010646508437165,-0.0032471786966091327,0.0,0.6067486762709867,-0.07848,9.824715587569957
3030000000.0,22.09,-6.38726633566543e-05,-0.011200177974028646,0.0,0.60822,-0.11536583541645835,9.820398541145886
3035000000.0,22.09,-0.003960526729850989,-0.012701290963344623,0.0,0.5990966410487664,-0.11772,9.701206333633964
3040000000.0,22.09,-0.005238088559431794,-0.016709807997034254,0.0,0.6074352590483526,-0.13577051809670518,9.683254740951648
3045000000.0,22.09,-0.007260931591919663,-0.014129468130558218,0.0,0.6350014774364148,-0.15519431829094318,9.771741591454717
3050000000.0,22.09,-0.005536171528472981,-0.009049500024458023,0.0,0.63765,-0.1481309407574094,9.851202473940726
3055000000.0,22.09,-0.006270799909456937,-0.006622115367983735,0.0,0.6551119186794192,-0.18207383735883836,9.797933284622033
3060000000.0,22.09,-0.010135501834207842,-0.0063879050622992,0.0,0.6400042811263429,-0.1777571405631714,9.67815282732123
3065000000.0,22.09,-0.0106465084371654,-0.0008303888918190575,0.0,0.63765,-0.1595104809321048,9.705523797669738
3070000000.0,22.09,-0.006068477451250861,0.007324849577463244,0.0,0.6292133403689335,-0.14852334036893342,9.804703255941734
3075000000.0,22.09,-0.006228213917868451,0.009422166449018051,0.0,0.6195014402718145,-0.1554885597281856,9.869841358369113
3080000000.0,22.09,-0.00728221826368783,0.013159110399003488,0.0,0.6180300000000001,-0.1487195401746954,9.779784482096344
3085000000.0,22.09,-0.0092198893129988,0.005003793933399581,0.0,0.5610334805430349,-0.1715770797672708,9.752807640077576
3090000000.0,22.09,-0.008708837387854412,0.004939992942338456,0.0,0.589581300097713,-0.136358699902287,9.799405560117256
3095000000.0,22.09,-0.009379580457429565,0.006185627926279965,0.0,0.59841,-0.1593146404666464,9.897407761283278
3100000000.0,22.09,-0.010433584803249024,0.00894308669169971,0.0,0.59841,-0.1746180602137806,9.855125518289755
3105000000.0,22.09,-0.013169750572874547,0.011264019017254923,0.0,0.5596601984455021,-0.1843299603108996,9.761930396891003
3110000000.0,22.09,-0.01301002675430902,0.01005029085287002,0.0,0.5570118604080186,-0.1787381395919814,9.794893022856131
3115000000.0,22.09,-0.013595597840707256,0.011221433025666435,0.0,0.5516162394948625,-0.19924128151541282,9.90819888656679
3120000000.0,22.09,-0.013840460968315,0.0117111592808819,0.0,0.5642713212045133,-0.22092132120451322,9.952441321204514
3125000000.0,22.09,-0.014638955688629536,0.014106643441825583,0.0,0.5542648786012488,-0.22563,9.876216832306868
3130000000.0,22.09,-0.011753718922361767,0.012541567144779182,0.0,0.5348410784070108,-0.2401489215929892,9.791164313628043
3135000000.0,22.09,-0.00909210498812474,0.00860235238280058,0.0,0.5512240826808409,-0.22376591731915918,9.792244082680842
3140000000.0,22.09,-0.006984096296485884,0.0020866693196533535,0.0,0.5450434780185348,-0.21582,9.920265436842454
3145000000.0,22.09,-0.0063879050622992,-0.0030236349149042716,0.0,0.5534803221757033,-0.24368064435140646,9.946064516736445
3150000000.0,22.09,-0.0019163316773254885,-0.0027680789132081725,0.0,0.5385688164450881,-0.24819293881502938,9.855125265780353
3155000000.0,22.09,0.002938462931727297,-0.0028639174203648763,0.0,0.5568158451283585,-0.21817415487164155,9.718275580768656
3160000000.0,22.09,0.007878449550039664,-0.003917921766184286,0.0,0.5556382772415829,-0.17932655448316553,9.699343445516835
3165000000.0,22.09,0.007441889382036041,-0.006398571586278859,0.0,0.5362144770473448,-0.16019723852367238,9.751336568857965
3170000000.0,22.09,0.0070905813015396425,-0.0074525559060157,0.0,0.5556386462937865,-0.1181120305593203,9.822557292587573
3175000000.0,22.09,0.008836615388702406,-0.006068496423329058,0.0,0.5562268766588688,-0.10447656167056563,9.817357191647172
3180000000.0,22.09,0.0095818575934488,-0.008730170435813825,0.0,0.5493600000000001,-0.09535307646463076,9.69345614994936
3185000000.0,22.09,0.006898910611252425,-0.013329455419361775,0.0,0.5493600000000001,-0.08210963813519638,9.63342
3190000000.0,22.09,0.004663163970930681,-0.019536564697196265,0.0,0.5615245239238453,-0.07239773803807738,9.682078095695381
3195000000.0,22.09,0.0010113846260918651,-0.023024564760322136,0.0,0.5929166482361665,-0.07465416205904161,9.777725782649458
3200000000.0,22.09,-0.0029810425992896996,-0.020245785594995114,0.0,0.6141060621561607,-0.07848,9.802151813531518
3205000000.0,22.09,-0.006771206390708585,-0.013081014050672541,0.0,0.6353938867598389,-0.07848,9.761440188733602
3210000000.0,22.09,-0.011604728030049766,-0.007729344825258331,0.0,0.6360802752992029,-0.10123944940159449,9.712880688248006
3215000000.0,22.09,-0.015670982730652927,-0.0063879050622992,0.0,0.6334317624475176,-0.12890352489503523,9.703463524895035
3220000000.0,22.09,-0.021225345613869302,-0.0040030600212221795,0.0,0.65413098763391,-0.15382098763390986,9.783317613080277
3225000000.0,22.09,-0.0245044226980003,-0.0009581721626887888,0.0,0.6616844373582444,-0.17756112528351126,9.893385626417556
3230000000.0,22.09,-0.023929504433525317,0.00229967305789999,0.0,0.65727,-0.19698492547774926,9.921637611783376
3235000000.0,22.09,-0.022875500087705936,0.007079962207755518,0.0,0.6468712743280127,-0.23200681417996816,9.876903822984039
3240000000.0,22.09,-0.0223751210105673,0.010135482862129593,0.0,0.6580550517324506,-0.2754650517324505,9.84924
3245000000.0,22.09,-0.02020320592743272,0.011189487207949019,0.0,0.6568773478790736,-0.2892968369697684,9.859246326060463
3250000000.0,22.09,-0.017051853089928057,0.015978544222545972,0.0,0.6327449368726494,-0.2992051893820519,9.859049873745299
3255000000.0,22.09,-0.012848549072512119,0.02285424819808118,0.0,0.6182260735510607,-0.29469214710212144,9.882888742571287
3260000000.0,22.09,-0.007537700485079733,0.028124269927178272,0.0,0.60822,-0.2699711366784113,9.922618863321588
3265000000.0,22.09,-0.003321683101802073,0.028390363864323843,0.0,0.5943877097438771,-0.2556484731625847,9.904666182906462
3270000000.0,22.09,-0.0005749045624184883,0.02409983469782282,0.0,0.5517140189050402,-0.22719934593669344,9.829030701325907
3275000000.0,22.09,0.0028745987004054306,0.019979622093562757,0.0,0.5111008727741088,-0.18835174554821746,9.717785236644652
3280000000.0,22.09,0.00779326491881055,0.015638827373415785,0.0,0.49167707257987076,-0.15382060886980609,9.678938782260389
3285000000.0,22.09,0.011413084743875474,0.01109362024267499,0.0,0.4891267276143673,-0.13734,9.741428546650285
3290000000.0,22.09,0.011604659519767288,0.0034281132986298873,0.0,0.49206947219139474,-0.11673868047848679,9.792930791712909
3295000000.0,22.09,0.0072076653742950475,-0.004311870646495101,0.0,0.48069,-0.07220134399431344,9.785867015991471
3300000000.0,22.09,0.003193917749006208,-0.008730157787761627,0.0,0.48069,-0.06474625639416257,9.69227903852189
3305000000.0,22.09,0.0,-0.012729419315551646,0.0,0.4845159641956596,-0.08446403580434035,9.630771749369618
3310000000.0,22.09,-0.0008091485962420786,-0.017605513140752236,0.0,0.5054114571711146,-0.07848,9.706210778635008
3315000000.0,22.09,-0.005280724089224491,-0.02182153052402991,0.0,0.540629293169693,-0.09662882194948821,9.779098821949487
3320000000.0,22.09,-0.014868886062798467,-0.0245044226980003,0.0,0.5591700000000001,-0.12399833551298337,9.7888100130779
3325000000.0,22.09,-0.02312039061942665,-0.025249692306859684,0.0,0.5729042583365426,-0.14175495208894953,9.740839306247592
3330000000.0,22.09,-0.0245044226980003,-0.02590974777236826,0.0,0.6084163940437639,-0.1930609293625093,9.741722788087529
3335000000.0,22.09,-0.02415308088936487,-0.023450397272093974,0.0,0.6472641886702419,-0.22219682389186823,9.803231553448617
3340000000.0,22.09,-0.0234397718542838,-0.01994768892389743,0.0,0.6867000000000001,-0.25506,9.84924
3345000000.0,22.09,-0.0234397718542838,-0.01638635853002609,0.0,0.6867000000000001,-0.25810116497261165,9.837075340109553
3350000000.0,22.09,-0.02152335796461934,-0.012988697922367037,0.0,0.6896430650697307,-0.2707561301394613,9.789398544511887
3355000000.0,22.09,-0.014885514501884616,-0.005429648579262758,0.0,0.69651,-0.2731101393326014,9.764089721334797
3360000000.0,22.09,-0.0077932016785498,0.005706613517231027,0.0,0.7047505957919059,-0.24525,9.84178492211175
3365000000.0,22.09,-0.002331564067391466,0.015197287138550656,0.0,0.7073986424723865,-0.23730370391673705,9.887694938555649
3370000000.0,22.09,-0.0005536326467111616,0.017094481241690378,0.0,0.6445166727089667,-0.2107186690835867,9.84374600725076
3375000000.0,22.09,-0.002129301687433,0.018910606756080226,0.0,0.6131251311106514,-0.18393717222337172,9.790379737778698
3380000000.0,22.09,-0.002129301687433,0.015420347374163415,0.0,0.6301944656524447,-0.1518589313048893,9.784494656524446
3385000000.0,22.09,-0.0028639321764256944,0.01803137411064149,0.0,0.6331372685008727,-0.1622572685008727,9.879357291746073
3390000000.0,22.09,-0.006494405877418217,0.021778930830384912,0.0,0.6029221390732215,-0.14930826584668266,9.93870693661327
3395000000.0,22.09,-0.012215260583007233,0.02321618802041383,0.0,0.5472998340561984,-0.16314049783140497,9.885438174618182
3400000000.0,22.09,-0.018968266979592547,0.021523371666675853,0.0,0.5434741320818414,-0.1903141320818413,9.776645207508952
3405000000.0,22.09,-0.021565957658264343,0.01710174720207526,0.0,0.547986203171762,-0.20973793227607931,9.704837593656476
3410000000.0,22.09,-0.017733228955343867,0.012967454464777026,0.0,0.5073734649406347,-0.22739586623515867,9.823146261057063
3415000000.0,22.09,-0.015260257401399708,0.012754473914626027,0.0,0.5412177663322777,-0.23210446733544468,9.926052233667722
3420000000.0,22.09,-0.012051861969650647,0.0062600964953251105,0.0,0.54465100071181,-0.22209866571758666,9.881807672123877
3425000000.0,22.09,-0.013201641582365994,-0.0015970484648724986,0.0,0.51993,-0.250645300420453,9.673149635155296
3430000000.0,22.09,-0.00838939080472778,-0.0106465084371654,0.0,0.5226769332472694,-0.22425653337636534,9.583978532730885
3435000000.0,22.09,-0.0006494152916374977,-0.00995444918370037,0.0,0.5382746332792464,-0.21071853311698535,9.72632196769432
3440000000.0,22.09,0.0027681284514124204,-0.00570655027697035,0.0,0.5309172668178727,-0.17422546636425465,9.88494819954638
3445000000.0,22.09,0.0073354370511169425,-0.008751444459529826,0.0,0.5417083338299834,-0.15156416542504164,9.842862496275124
3450000000.0,22.09,0.005962015634292635,-0.010965925508170318,0.0,0.5552457319515574,-0.10791,9.701108262866782
3455000000.0,22.09,0.0014585206737013797,-0.014321161179560612,0.0,0.5208129671092296,-0.10614406578154066,9.616351539529216
3460000000.0,22.09,-0.005919509747034467,-0.0191811684794176,0.0,0.5336643360317433,-0.09064460161904601,9.755457609714275
3465000000.0,22.09,-0.013149696291367977,-0.0191811684794176,0.0,0.580850301910403,-0.11978030191040302,9.92065706921387
3470000000.0,22.09,-0.018499835828180013,-0.0190533957485913,0.0,0.6093973348011733,-0.1495046696023467,9.945965319388854
3475000000.0,22.09,-0.024717382168064427,-0.016944514272239156,0.0,0.6268588650045888,-0.1883522699908227,9.762420352539003
3480000000.0,22.09,-0.028677839333628684,-0.014990996803230286,0.0,0.6101823379741234,-0.22602246759482467,9.607914675948246
3485000000.0,22.09,-0.02637814941165911,-0.01679576809900175,0.0,0.6581531030758311,-0.23514563230805632,9.709449192298592
3490000000.0,22.09,-0.0181165176357011,-0.008261602263836326,0.0,0.6863074644218747,-0.22602253557812535,9.947732535578126
3495000000.0,22.09,-0.018084381354214744,0.004279911126721186,0.0,0.6669818321138185,-0.24534816788618166,9.965487481707274
3500000000.0,22.09,-0.01490512668904366,0.006387934574420883,0.0,0.6572697960500979,-0.25505986403339864,9.819808776300588
3505000000.0,22.09,-0.017030414140450104,0.010603951957698594,0.0,0.628134095758741,-0.23563606383916064,9.644994574552447
3510000000.0,22.09,-0.013904666766159975,0.011689873663118078,0.0,0.6278400000000001,-0.23544,9.748982549952926
3515000000.0,22.09,-0.010742304784148235,0.01377659673699311,0.0,0.6563873048239731,-0.20689269517602696,9.941455365493153
3520000000.0,22.09,-0.00962443620700687,0.014862533198473435,0.0,0.6195993265128934,-0.20601,9.966175336743554
3525000000.0,22.09,-0.013627560522494243,0.016944544026263476,0.0,0.6087104315311043,-0.20601,9.883083883779939
3530000000.0,22.09,-0.013840460968315,0.018052646026348793,0.0,0.580555594301956,-0.22445293713202938,9.72190503437775
3535000000.0,22.09,-0.014830593704782069,0.015129887742095366,0.0,0.5605432626737327,-0.2621234746525347,9.757516843315669
3540000000.0,22.09,-0.012946139334891511,0.015900655202053467,0.0,0.5591700000000001,-0.2197436561987366,9.869253225123032
3545000000.0,22.09,-0.010838130643252746,0.015987215948268,0.0,0.5591700000000001,-0.2247471688573717,9.914378675429486
3550000000.0,22.09,-0.006813735466062398,0.014055121376769395,0.0,0.5238537241820372,-0.20797186209101862,9.78547396568264
3555000000.0,22.09,-0.004492811572541943,0.007207633754164646,0.0,0.5024680618967806,-0.16235515474195153,9.692181278535513
3560000000.0,22.09,-0.0033217031278846374,0.0007665035804102511,0.0,0.5089428691487287,-0.1655928691487287,9.7429000840411
3565000000.0,22.09,-0.005972713778402709,-0.0037050149963374496,0.0,0.5186547692458477,-0.18383953849169538,9.82795292321263
3570000000.0,22.09,-0.01279715582060999,-0.0024273888724915755,0.0,0.5368033386859334,-0.1610799919710999,9.856303338685933
3575000000.0,22.09,-0.012935500215024816,-0.005749144700593561,0.0,0.5228728611198287,-0.1903142777603428,9.75898716671897
3580000000.0,22.09,-0.015473413780210133,-0.010859476339264248,0.0,0.5281704695372047,-0.2126809390744094,9.708368121851182
3585000000.0,22.09,-0.016870883705763937,-0.014362162553369546,0.0,0.5541671089029712,-0.2076776303656763,9.750944217805941
3590000000.0,22.09,-0.016178845532385785,-0.01579244489555813,0.0,0.5752585394628854,-0.20601,9.82530415785154
3595000000.0,22.09,-0.015110703895390905,-0.013385954371987602,0.0,0.57879,-0.2298485094856851,9.799699150857192
3600000000.0,22.09,-0.01234992702061795,-0.01192408186079391,0.0,0.6023342097770421,-0.2118957902229579,9.751139650371597
3605000000.0,22.09,-0.010870077514974532,-0.010870077514974532,0.0,0.60822,-0.20601,9.7490799700228
3610000000.0,22.09,-0.009816073169155075,-0.009816073169155075,0.0,0.6311756103597561,-0.21366187011991872,9.835310571319106
3615000000.0,22.09,-0.011221435133675128,-0.007942280053222473,0.0,0.6300962297829623,-0.2082662297829623,9.904372621302226
3620000000.0,22.09,-0.012520301553097904,-0.0074525559060157,0.0,0.6129286593716866,-0.21346567031415672,9.858264637486746
3625000000.0,22.09,-0.014372801673236239,-0.0034600770344211393,0.0,0.6302927112338271,-0.2231775704112757,9.780569436709794
3630000000.0,22.09,-0.018069424479627214,-0.0005536031345894786,0.0,0.6449094705083948,-0.2401489410167894,9.789987882033579
3635000000.0,22.09,-0.021512776814991662,0.0007772027785246391,0.0,0.6402986293944863,-0.2595727412110274,9.886126447266165
3640000000.0,22.09,-0.0223751210105673,0.006430544808109339,0.0,0.6447132707026327,-0.2860598121078981,9.910846729297367
3645000000.0,22.09,-0.021619211227836832,0.010784936097923558,0.0,0.6265644876007449,-0.2943,9.803622438003723
3650000000.0,22.09,-0.014590883172452072,0.013201685850548518,0.0,0.6248970708968707,-0.28056585820625857,9.692279291031292
3655000000.0,22.09,-0.008038075346200997,0.013105844181378778,0.0,0.6143020580120205,-0.25437308701803085,9.737308680933886
3660000000.0,22.09,-0.004215994195182038,0.011327869546520337,0.0,0.60822,-0.22523738672667387,9.897506550731066
3665000000.0,22.09,-0.005333923904575396,0.011359832228307309,0.0,0.5950744576235446,-0.19610168643531686,9.950577228811772
3670000000.0,22.09,-0.00849593694203363,0.012413836574126688,0.0,0.5562266435732665,-0.20581401385604015,9.798422560437025
3675000000.0,22.09,-0.010965919184144197,0.011391748533903066,0.0,0.5140437144701372,-0.19669028585260287,9.638814572027945
3680000000.0,22.09,-0.0117111592808819,0.008602355544813638,0.0,0.5191454144387542,-0.17383305704083057,9.644407771836677
3685000000.0,22.09,-0.011040421481328477,0.005440342507355366,0.0,0.5482811147301112,-0.17913074315340743,9.833349660994298
3690000000.0,22.09,-0.011966691040478004,0.0029384207715534337,0.0,0.5530877283261774,-0.19247227167382272,9.92772
3695000000.0,22.09,-0.013425254928357642,0.0001809672761554583,0.0,0.5433758282290584,-0.1962,9.802052392810225
3700000000.0,22.09,-0.014479259274177059,-0.0010646508437165,0.0,0.5336639281319393,-0.18442785626387856,9.621646778242967
3705000000.0,22.09,-0.016171712998583842,-0.004833561691506243,0.0,0.5413159439303594,-0.17079202803482027,9.647547551442875
3710000000.0,22.09,-0.01580673313397891,-0.00868756652615139,0.0,0.5550498720622988,-0.18952948824919488,9.842767057432871
3715000000.0,22.09,-0.01976993081451481,-0.008368139969107354,0.0,0.581537088637671,-0.21160177215941772,9.948713544318837
3720000000.0,22.09,-0.025824621111378204,-0.008644980534562901,0.0,0.5764353109738531,-0.22131367225653673,9.847276554869266
3725000000.0,22.09,-0.025356111963644085,-0.00899629177707235,0.0,0.5753567170609672,-0.2526078617682786,9.680016414695164
3730000000.0,22.09,-0.02401469117276313,-0.00909212606821163,0.0,0.5886,-0.29057241735232414,9.677369669409297
3735000000.0,22.09,-0.022811604236253624,-0.007889039131702122,0.0,0.5989987450957874,-0.2989106274521063,9.861504313697344
3740000000.0,22.09,-0.02186409648953584,-0.004173399771558749,0.0,0.6133212726450128,-0.2891987273549873,9.99717509058005
3745000000.0,22.09,-0.020746181536203303,-0.0005003622130691045,0.0,0.6180300000000001,-0.28449,9.915946545157366
3750000000.0,22.09,-0.014913775088440053,0.003193984151279975,0.0,0.6180300000000001,-0.27467985432149855,9.736423761732738
3755000000.0,22.09,-0.00751638746320292,0.0032365069026077135,0.0,0.6180300000000001,-0.25525605412726055,9.681881837618219
3760000000.0,22.09,-0.004769643705962749,0.0025977718370063492,0.0,0.6180300000000001,-0.24054112696651128,9.810786333703263
3765000000.0,22.09,-0.00782522338458019,0.0047589972080656255,0.0,0.6180300000000001,-0.23544,9.954796185044861
3770000000.0,22.09,-0.012605497778374875,0.0058130015538850575,0.0,0.6090046535445466,-0.22641465354454654,9.933212574811826
3775000000.0,22.09,-0.015392066761525373,0.007346106737109717,0.0,0.5939954266751543,-0.2290637199745372,9.753100240203702
3780000000.0,22.09,-0.015042627689915548,0.0085172067497323,0.0,0.5799670531560706,-0.22798410631214105,9.63224294684393
3785000000.0,22.09,-0.01292484528509297,0.008059398908121265,0.0,0.56898,-0.20601,9.740252590938926
3790000000.0,22.09,-0.010816836593454116,0.005663910531160173,0.0,0.5607394527675946,-0.1936491791513918,9.910062736162027
3795000000.0,22.09,-0.010454887285082341,0.0023209228395160595,0.0,0.5574043474266436,-0.18462434742664346,9.902605220586853
3800000000.0,22.09,-0.013421614120887028,0.0019163875395557966,0.0,0.5572077785686779,-0.20012407381044076,9.735442597601626
3805000000.0,22.09,-0.015987215948268,0.001948286981082041,0.0,0.5395500000000001,-0.21748792172267922,9.642739869537799
3810000000.0,22.09,-0.01962839411739662,0.0008091507042507702,0.0,0.5507336220140363,-0.23916787400467873,9.721122362060823
3815000000.0,22.09,-0.026356931250173465,0.0013414439789764727,0.0,0.5726097741017978,-0.2525095482035955,9.858266385628765
3820000000.0,22.09,-0.02769837522915,-0.001149847068993462,0.0,0.57879,-0.2719333483978335,9.921833258010833
3825000000.0,22.09,-0.02508992422011175,-0.004684495964885717,0.0,0.57879,-0.2810564257039643,9.797245662671356
3830000000.0,22.09,-0.01842993826863754,-0.006728577184941902,0.0,0.5721190512136906,-0.27468,9.662457153641071
3835000000.0,22.09,-0.013148397498832547,-0.0053232542185827,0.0,0.5721194979610951,-0.27144262550972625,9.668933242863831
3840000000.0,22.09,-0.0095818575934488,-0.004641861489097356,0.0,0.59841,-0.2585914508252145,9.811178393398283
3845000000.0,22.09,-0.01222766718176803,-0.0015437031969218972,0.0,0.5953688253154883,-0.24220882531548826,9.914868825315487
3850000000.0,22.09,-0.018435921004649514,0.0018098983184845871,0.0,0.5944861495632615,-0.2295538504367385,9.8698400278388
3855000000.0,22.09,-0.019798682221520213,0.0007558939726652087,0.0,0.596840100485001,-0.227199899514999,9.752120251212503
3860000000.0,22.09,-0.021012359793696533,0.0,0.0,0.5744737499517375,-0.25506,9.701698124831081
3865000000.0,22.09,-0.018516323549046646,-0.0011498555010282195,0.0,0.5912487750729878,-0.25241122492701223,9.793520401167804
3870000000.0,22.09,-0.014117278345674927,-0.0037049686201462203,0.0,0.6009606751701068,-0.24780067517010676,9.92340405102064
3875000000.0,22.09,-0.015441817027997523,-0.0013307890490445846,0.0,0.6033148494655485,-0.25506,9.952244548396646
3880000000.0,22.09,-0.017562915555115965,0.0013201752252821836,0.0,0.5862455246356553,-0.2597689507286895,9.865719443441794
3885000000.0,22.09,-0.019670924246754748,0.002863935338438732,0.0,0.5765336245385363,-0.2791927509229275,9.736032750922927
3890000000.0,22.09,-0.021778932938393603,0.005089022832811238,0.0,0.5754548266757483,-0.2943,9.777039306702992
3895000000.0,22.09,-0.023886941630032462,0.004035018486991781,0.0,0.6004701756557017,-0.302540702622807,9.885341405245613
3900000000.0,22.09,-0.025143196761762486,0.0031939525311496,0.0,0.6101820757528208,-0.3296158484943585,9.925757166718972
3905000000.0,22.09,-0.022023728609723212,0.0031939525311496,0.0,0.6124380724501808,-0.31392,9.820790241500603
3910000000.0,22.09,-0.014834201855396738,0.002619016348600719,0.0,0.5868341240529412,-0.31038824810588245,9.736032372158823
3915000000.0,22.09,-0.009219859800877117,0.0005429966888575152,0.0,0.57879,-0.287628895823289,9.725242208353421
3920000000.0,22.09,-0.0074525559060157,0.003364304929538311,0.0,0.57879,-0.25035097157610975,9.79979805684778
3925000000.0,22.09,-0.0074525559060157,0.004418309275357704,0.0,0.5758468475231685,-0.22268684752316847,9.843353695046337
3930000000.0,22.09,-0.0080487935163936,0.004876076010799268,0.0,0.5591700000000001,-0.20601,9.796265236644652
3935000000.0,22.09,-0.011849572185579246,0.0018524758780383067,0.0,0.5566192471346926,-0.20601,9.704247741404078
3940000000.0,22.09,-0.0127758101245984,-0.00038329922040068715,0.0,0.5395500000000001,-0.20836455305954554,9.655394553059546
3945000000.0,22.09,-0.012424450397889078,-0.0033110724400527035,0.0,0.5427875298806754,-0.22347164674621647,9.685610119522702
3950000000.0,22.09,-0.010007751237472747,-0.004471550196878073,0.0,0.5699610767240109,-0.20601,9.793323230172033
3955000000.0,22.09,-0.01412951264064338,-0.00610042432297261,0.0,0.5779070231788702,-0.20689297682112978,9.814512139073221
3960000000.0,22.09,-0.017222227622408076,-0.003108772115937853,0.0,0.5674102461635026,-0.21503512308175124,9.756240738490506
3965000000.0,22.09,-0.019851973735249186,-0.002129301687433,0.0,0.5507335540307357,-0.2080703310461033,9.706210662092207
3970000000.0,22.09,-0.0288908009117015,-0.002065414268015504,0.0,0.5695686771124868,-0.2377947084499471,9.763893385562433
3975000000.0,22.09,-0.031211773289421856,-0.0011711326867572536,0.0,0.5797711544192116,-0.27664230883842306,9.812943463257636
3980000000.0,22.09,-0.037152449551729035,-0.0032791413783961093,0.0,0.5991949546134495,-0.3150974319201743,9.86650513615965
3985000000.0,22.09,-0.03395848858854467,-0.005355202144308831,0.0,0.6183243774038438,-0.34364437740384374,9.80911686778847
3990000000.0,22.09,-0.02969986834960894,-0.006260096495325138,0.0,0.6280362775009628,-0.3529637224990372,9.781355110003853
3995000000.0,22.09,-0.02338649720462436,2.1309859863776192e-05,0.0,0.6374536448038365,-0.3432518224019182,9.82030088799041
4000000000.0,22.09,-0.018116534499770635,0.002129352279641599,0.0,0.6180299223047993,-0.3335402330856023,9.86886
4005000000.0,22.09,-0.02022454319140949,0.008453378354558169,0.0,0.6083180222076802,-0.36267593337695936,9.86886
4010000000.0,22.09,-0.021289185603091225,0.009560573029689323,0.0,0.5986061221105612,-0.3341283663316837,9.820790610552807
4015000000.0,22.09,-0.0202777503847908,0.0116472971575687,0.0,0.6079257779865578,-0.33354,9.800778444026886
4020000000.0,22.09,-0.018201672754808544,0.009667012712556242,0.0,0.5988023219163232,-0.3429576780836768,9.809607678083678
4025000000.0,22.09,-0.014054229723650353,0.0095818575934488,0.0,0.5890904218192042,-0.3060716872768169,9.837958734542388
4030000000.0,22.09,-0.006834998949734957,0.003577175863237389,0.0,0.5886,-0.2580026086104261,9.820987043444172
4035000000.0,22.09,-0.0063879050622992,0.005174220112092525,0.0,0.5703532432499325,-0.2459366216249662,9.81981
4040000000.0,22.09,-0.012264828817745148,0.006302741511156994,0.0,0.5599547215278473,-0.23622472152784724,9.792734164583543
4045000000.0,22.09,-0.01666705593928564,0.008325586651653637,0.0,0.5680971785692718,-0.2443671785692718,9.772525642861456
4050000000.0,22.09,-0.02471742116622528,0.009475401046512351,0.0,0.5513218426672185,-0.26290815733278156,9.77076
4055000000.0,22.09,-0.0255690735417169,0.004844118599033974,0.0,0.5493600000000001,-0.2823319575270196,9.79695293629053
4060000000.0,22.09,-0.022758369638759386,-0.00323660703302054,0.0,0.5493600000000001,-0.2931228788606288,9.774291363418113
4065000000.0,22.09,-0.01867010179821238,-0.00796362258722102,0.0,0.5749643368732434,-0.26016088416900884,9.77076
4070000000.0,22.09,-0.013523466137526799,-0.013095248275690297,0.0,0.57879,-0.2803700371646004,9.7454499628354
4075000000.0,22.09,-0.016410492793240236,-0.007505728317253641,0.0,0.57879,-0.2928285791519858,9.74133
4080000000.0,22.09,-0.025995019885958155,-0.004599274443504471,0.0,0.5870304792491048,-0.2943,9.77429191699642
4085000000.0,22.09,-0.02769837522915,-0.001607596940365416,0.0,0.5967423793462238,-0.3024423793462238,9.837566655423567
4090000000.0,22.09,-0.02595233060194376,0.0006813937834896577,0.0,0.5823214411133144,-0.2880214411133144,9.81706288222663
4095000000.0,22.09,-0.01953244283177496,-0.00238485241910741,0.0,0.5708438204595383,-0.2924361795404618,9.778215281838152
4100000000.0,22.09,-0.011288720317528344,-0.00915605775581169,0.0,0.5925242389127424,-0.2786038407248384,9.739367681449677
4105000000.0,22.09,-0.012946188873095815,-0.0106465084371654,0.0,0.5829100405306005,-0.2901799594693996,9.7470199594694
4110000000.0,22.09,-0.01966712893261431,-0.007324763149106873,0.0,0.6170493991590941,-0.3019518798318188,9.842962557981826
4115000000.0,22.09,-0.028688578583908247,-0.00146916611759422,0.0,0.6429475598578757,-0.3192175598578756,9.89907511971575
4120000000.0,22.09,-0.03412890106518107,0.006473146609763024,0.0,0.6250929599218297,-0.3311856800260568,9.900644319973942
4125000000.0,22.09,-0.03275544065019594,0.0077187099214089975,0.0,0.6106724198768242,-0.34825516024635156,9.824714198768243
4130000000.0,22.09,-0.022502774638902455,0.0074525559060157,0.0,0.5937010395594104,-0.3386410395594104,9.778411559339116
4135000000.0,22.09,-0.012950796772750631,0.002012129078312659,0.0,0.6029227606348276,-0.3407013803174138,9.756437239365171
4140000000.0,22.09,-0.012179623106429126,-0.0007665573346318634,0.0,0.6011567195854672,-0.3362867195854672,9.814709523730794
4145000000.0,22.09,-0.018079577962671924,0.00044717082975298376,0.0,0.6123403610233037,-0.3474703610233036,9.846395180511651
4150000000.0,22.09,-0.023972141017322444,0.007026765554417672,0.0,0.6042958387824584,-0.3668941612175416,9.794303355129832
4155000000.0,22.09,-0.0263036913826574,0.011051093275329866,0.0,0.5916410192941102,-0.3524730578823306,9.784297961411779
4160000000.0,22.09,-0.02301386767021638,0.013159101966968723,0.0,0.5752582383939824,-0.30332471518194715,9.803721761606019
4165000000.0,22.09,-0.012025553330028572,0.008133862207144755,0.0,0.5558344381997444,-0.29763556180025563,9.783708876399489
4170000000.0,22.09,-0.0011284507807733614,0.0018098624823368976,0.0,0.5493600000000001,-0.2587872330192723,9.725437233019273
4175000000.0,22.09,-0.001330857559327128,-0.0020760955480561027,0.0,0.5557365810943659,-0.24819316218873164,9.70209
4180000000.0,22.09,-0.01138174700027178,-0.0011497964767848631,0.0,0.5466130376170304,-0.24250303761703038,9.746039368340393
4185000000.0,22.09,-0.027389776458750525,0.001341477707115539,0.0,0.5457303812886038,-0.2725222877316229,9.795481525154415
4190000000.0,22.09,-0.03672664971409192,0.000809116976111704,0.0,0.5554422813857228,-0.2882177186142772,9.803917718614278
4195000000.0,22.09,-0.03314931680420695,-0.001298891715527053,0.0,0.5531858185171582,-0.2904741814828418,9.79420581851716
4200000000.0,22.09,-0.022162084598185902,-0.002129301687433,0.0,0.5493600000000001,-0.2884139184200392,9.743291347360314
4205000000.0,22.09,-0.012644499170298269,-0.007154524583187502,0.0,0.5551479816770799,-0.29027798167707985,9.694536054968761
4210000000.0,22.09,-0.013297018833030645,-0.011881521165309723,0.0,0.5762396453225965,-0.3056797635483976,9.722299172419392
4215000000.0,22.09,-0.02387639420854381,-0.009134650927548045,0.0,0.5886,-0.3306953456139534,9.818241382455813
4220000000.0,22.09,-0.0369822373359183,-0.002810624852631576,0.0,0.5995873639368736,-0.35983104590531045,9.88534104590531
4225000000.0,22.09,-0.0426034870411815,0.0017567006111424463,0.0,0.6136155820655559,-0.3781755820655558,9.876707671737776
4230000000.0,22.09,-0.03627936294386085,0.0031939525311496,0.0,0.6180300000000001,-0.37729251783732515,9.832562589186626
4235000000.0,22.09,-0.021290421500941112,-0.0001916907163698302,0.0,0.6128306177402062,-0.37278,9.763205559661856
4240000000.0,22.09,-0.010007673241151134,-0.005408462037907382,0.0,0.6031187176430872,-0.35747615292926155,9.726811282356913
4245000000.0,22.09,-0.009624479421185047,-0.004737651512054044,0.0,0.6084163649080637,-0.3383468175459682,9.766542277178223
4250000000.0,22.09,-0.0197049017874395,0.0021293733597286158,0.0,0.6131249174488492,-0.3482552476534525,9.839430660409207
4255000000.0,22.09,-0.03291525405913087,0.010039720243285822,0.0,0.6130269826482698,-0.36297,9.921932843834428
4260000000.0,22.09,-0.03732280089611346,0.014351502353415946,0.0,0.6039033517638336,-0.3723877654907777,9.938706703527666
4265000000.0,22.09,-0.02921005355802847,0.009901162939993064,0.0,0.5793784343149844,-0.3641468686299687,9.829716691677366
4270000000.0,22.09,-0.014445964054436815,0.00034061626041238195,0.0,0.5734926829396269,-0.3298119511811195,9.673639755905597
4275000000.0,22.09,-0.00495059938807041,-0.003779501483456518,0.0,0.5743754169632542,-0.31833458303674583,9.638325830367458
4280000000.0,22.09,-0.007878506466274377,-0.0003832201700747508,0.0,0.5862459325354593,-0.31941351686613517,9.804508561480485
4285000000.0,22.09,-0.02025729057079253,0.007314232591687777,0.0,0.5955648503070485,-0.3181383832309838,9.989523832309839
4290000000.0,22.09,-0.0336818124477671,0.01457179024658151,0.0,0.5705494333437944,-0.32785028332810284,9.98775603340656
4295000000.0,22.09,-0.03741857405500071,0.01398909949487906,0.0,0.5471034497243346,-0.3375621834252218,9.815589781219897
4300000000.0,22.09,-0.0287629354284928,0.0057490329761329135,0.0,0.52974,-0.3472740835223408,9.655001415343614
4305000000.0,22.09,-0.01738563922939195,-0.004152229040268681,0.0,0.5412179508583795,-0.35316,9.659711803433517
4310000000.0,22.09,-0.0103910104057083,-0.0098373556249059,0.0,0.5666257674331577,-0.3568878837165788,9.802349790614997
4315000000.0,22.09,-0.01605084613878885,-0.006153627300336532,0.0,0.5896793514410935,-0.36659978381369784,9.925169567627396
4320000000.0,22.09,-0.026889322547303335,-0.0002128846357555246,0.0,0.6046883160891832,-0.3763116839108168,9.9163398965351
4325000000.0,22.09,-0.0326489925352943,0.005429774005779868,0.0,0.5881092479761925,-0.38602358400793585,9.827166239880961
4330000000.0,22.09,-0.029423045702227285,0.007047924691659984,0.0,0.5723154841050548,-0.3957354841050549,9.714842579474725
4335000000.0,22.09,-0.019579848128643964,-0.0013841374790083314,0.0,0.5658404631913047,-0.38278569478695695,9.68247
4340000000.0,22.09,-0.0075376730809667255,-0.009879996424720339,0.0,0.5489678528978786,-0.34021071570070716,9.70444499009505
4345000000.0,22.09,-0.005504308977098854,-0.012445759203748519,0.0,0.5781035531892356,-0.3304988156035882,9.76938710637847
4350000000.0,22.09,-0.013206979958868739,-0.008836519474306952,0.0,0.6013530844935309,-0.3266730844935309,9.836487760441777
4355000000.0,22.09,-0.021651231879862815,-0.0008942699872104517,0.0,0.5968400616374007,-0.3278500308187003,9.895445015409349
4360000000.0,22.09,-0.027400263801991457,0.0036198588232256336,0.0,0.5717268846877689,-0.31117311531223113,9.855517383746774
4365000000.0,22.09,-0.025771329597649193,0.005727766330447283,0.0,0.5761412152151122,-0.30675878478488783,9.731028228226682
4370000000.0,22.09,-0.022055679697462388,-0.0003194413131048883,0.0,0.5664293151179932,-0.31392,9.621059315117993
4375000000.0,22.09,-0.017850345702233948,-0.006121806909136231,0.0,0.5665277549373776,-0.31392,9.662851699582516
4380000000.0,22.09,-0.018840544840974853,-0.00941143036075154,0.0,0.5956634552287345,-0.3209834552287345,9.854735216448653
4385000000.0,22.09,-0.027442969950075308,-0.0011497859367413687,0.0,0.6202863851733639,-0.3478627703467277,9.994133614826636
4390000000.0,22.09,-0.03891985990102937,0.003300463886311975,0.0,0.6235234294590344,-0.37807799689338,9.936939438778895
4395000000.0,22.09,-0.04406203090297858,0.00700538402225837,0.0,0.6020394438971944,-0.43164,9.725926848750769
4400000000.0,22.09,-0.03940944175764949,0.0053232542185827,0.0,0.5768279145352792,-0.42967791453527915,9.609876683717767
4405000000.0,22.09,-0.02886939829945531,0.004514082434244975,0.0,0.5745719566855196,-0.41810202887632025,9.717395653484157
4410000000.0,22.09,-0.019479233530384964,0.0018312366364657364,0.0,0.6001758856589589,-0.40044411434104116,9.927524742248547
4415000000.0,22.09,-0.016168215898558196,0.0053232542185827,0.0,0.6015488569756886,-0.3924,9.992660999414909
4420000000.0,22.09,-0.01824434095873603,0.005663961123368814,0.0,0.5721193717063937,-0.3971090575595906,9.84884596878926
4425000000.0,22.09,-0.024983543561488138,0.007133141997023829,0.0,0.5827136561987366,-0.4188868280993683,9.687865242149053
4430000000.0,22.09,-0.02754931477255117,0.005770435588379156,0.0,0.5534804581423046,-0.40221,9.675211374426913
4435000000.0,22.09,-0.02608006855062662,0.008378792791030595,0.0,0.5813407722891077,-0.3958330692772307,9.772821564457415
4440000000.0,22.09,-0.020967584393179185,0.00732478844521113,0.0,0.5937008550333086,-0.3508054275166543,9.919087286241671
4445000000.0,22.09,-0.01076362940007285,0.005919421210669381,0.0,0.5580908136612082,-0.33354,9.913690577595707
4450000000.0,22.09,-0.01224527708896652,0.0019163527574123443,0.0,0.5473978271281783,-0.3345210864359109,9.786454789897249
4455000000.0,22.09,-0.018010146463116695,-0.0001916559342264125,0.0,0.5315059730660597,-0.34511597306605973,9.664615973066061
4460000000.0,22.09,-0.028209464044446523,-0.0019589387490008305,0.0,0.5509297732602978,-0.36453977326029774,9.691888639561787
4465000000.0,22.09,-0.03401174532013024,-7.453497131896317e-05,0.0,0.56898,-0.38190321327273213,9.810491800909018
4470000000.0,22.09,-0.03263829860720163,-0.0011285393171383416,0.0,0.56898,-0.3745460604731606,9.946751313175614
4475000000.0,22.09,-0.026367514507809792,-0.002235785638482445,0.0,0.5699611738430118,-0.4017194130784941,9.930661783098918
4480000000.0,22.09,-0.0212252792115955,-0.004386389807748899,0.0,0.5878150259627503,-0.3924,9.794302694720628
4485000000.0,22.09,-0.019340913378069993,-0.007420606926285224,0.0,0.569274387115744,-0.3932831613472316,9.654217548462976
4490000000.0,22.09,-0.02463223758900044,-0.006345300098632487,0.0,0.5791825744257257,-0.42202628721286284,9.696598318682984
4495000000.0,22.09,-0.030956263663917006,-0.004215979439121163,0.0,0.59841,-0.43164,9.909180060409799
4500000000.0,22.09,-0.03728019487844235,9.486039112374406e-09,0.0,0.5984100874071009,-0.4316400874071009,10.016009388150293
4505000000.0,22.09,-0.03306417749516474,0.0010540138318584909,0.0,0.6081219875042199,-0.4413519875042199,9.948026087470462
4510000000.0,22.09,-0.02258795610811861,-0.0031088184921290746,0.0,0.5889922247973223,-0.44145,9.726220585169205
4515000000.0,22.09,-0.013063703636217082,-0.004226673367213847,0.0,0.5886,-0.41290263690462636,9.607520547618504
4520000000.0,22.09,-0.007665438433762578,-0.0042586033748661,0.0,0.5886,-0.41202,9.651078438977885
4525000000.0,22.09,-0.011498267267095907,0.0007985358264840179,0.0,0.6258783515707835,-0.38406123632191236,9.85807093363931
4530000000.0,22.09,-0.017732253586633752,0.009070901582699846,0.0,0.6278400000000001,-0.3549255360305553,9.99796083185741
4535000000.0,22.09,-0.02207705701360433,0.010571992437924654,0.0,0.5639762833914629,-0.3805301642608016,9.942336283391464
4540000000.0,22.09,-0.0223751210105673,0.006728555050850656,0.0,0.5320941354478413,-0.36453942363189423,9.666771354478414
4545000000.0,22.09,-0.019468595464522565,0.0005748539702099074,0.0,0.5118856234376562,-0.3540428117188281,9.580739682031798
4550000000.0,22.09,-0.017264777777848805,-0.007665562806275446,0.0,0.5542654418914544,-0.37081817675658174,9.618705441891453
4555000000.0,22.09,-0.020842062203533792,-0.0018843647795211051,0.0,0.5766319769508198,-0.3640490115245901,9.850615700360656
4560000000.0,22.09,-0.028805689006772196,-0.00012774848872634608,0.0,0.57879,-0.3716028885725289,9.973631774297818
4565000000.0,22.09,-0.036311467916234484,0.005557535142558368,0.0,0.5958595773392957,-0.39838436600894367,9.901232113303521
4570000000.0,22.09,-0.038195842181794795,0.007303514421495111,0.0,0.5646632449329325,-0.41908337753353375,9.694436158364361
4575000000.0,22.09,-0.03472503222112008,-0.0006921098456735735,0.0,0.5758471777277718,-0.44684576659165764,9.587802700225026
4580000000.0,22.09,-0.029614698474440697,-0.002129301687433,0.0,0.5705495110389951,-0.4677409779220098,9.64048391168804
4585000000.0,22.09,-0.024344676745343605,-0.005663981149451351,0.0,0.5934071671743717,-0.43831044376750444,9.88102689362747
4590000000.0,22.09,-0.0234397718542838,-0.0011497648566544888,0.0,0.6064542891552429,-0.4477285783104858,9.975985734931458
4595000000.0,22.09,-0.02516452559370449,0.00258713060913099,0.0,0.5843814322429144,-0.43536762149527625,9.899171918224019
4600000000.0,22.09,-0.028124264657156527,0.0023422221593363385,0.0,0.5709419106505191,-0.4394880893494809,9.70601203431142
4605000000.0,22.09,-0.029604109946782562,0.002970385561349139,0.0,0.5612300105534002,-0.43370001055340013,9.6163500633204
4610000000.0,22.09,-0.025675490036488155,0.0007026404030927068,0.0,0.5668218895437189,-0.4545956686311567,9.703464564068346
4615000000.0,22.09,-0.022045050063634775,0.0024593726343655276,0.0,0.5840875792816758,-0.4233010517958105,9.920364741020947
4620000000.0,22.09,-0.018073892645951842,0.0007665193904754382,0.0,0.5886,-0.3896529307861293,9.991681379475914
4625000000.0,22.09,-0.020245858321294972,0.0,0.0,0.5591696406596964,-0.38994758983507594,9.841880613463406
4630000000.0,22.09,-0.023674024320142133,-0.0007878513844304523,0.0,0.5711384697965848,-0.4141784697965847,9.681487651017077
4635000000.0,22.09,-0.026058832471067037,-0.0033962655033165654,0.0,0.5573058299120583,-0.4289913900293139,9.64323
4640000000.0,22.09,-0.029699957939978382,0.0018738637342237173,0.0,0.5776131605057316,-0.4175134197471342,9.784495802528658
4645000000.0,22.09,-0.027112768306604022,0.0035026914841270124,0.0,0.5816348097764481,-0.41202,9.978733804471037
4650000000.0,22.09,-0.022588011970348897,0.0031939525311496,0.0,0.57879,-0.4257541806413418,10.008161638717317
4655000000.0,22.09,-0.022045089061795614,0.0009900958463149975,0.0,0.5720210095822101,-0.43164,9.833934229973043
4660000000.0,22.09,-0.023823065804662747,-0.003619861985238751,0.0,0.5623091094850912,-0.45832356205963565,9.64087397073164
4665000000.0,22.09,-0.02949770399205471,-0.004609928319432031,0.0,0.5657427906120279,-0.49717116244811166,9.643525115508252
4670000000.0,22.09,-0.033362337406523127,-0.0007452063685986342,0.0,0.5819293814182939,-0.4971706185817062,9.873375411983554
4675000000.0,22.09,-0.03201018158138006,0.004524815360498422,0.0,0.5886,-0.4777468183874682,10.04053590806266
4680000000.0,22.09,-0.02612262292208475,0.007069291467758437,0.0,0.5886,-0.4834369818067698,9.949300181932301
4685000000.0,22.09,-0.019415332408910982,0.002086636645518651,0.0,0.5700588269984883,-0.45341765399697653,9.699438660985386
4690000000.0,22.09,-0.013740578540222339,-0.0017247442533814938,0.0,0.5470054178047542,-0.43772229109762295,9.557686253414262
4695000000.0,22.09,-0.011061712369114027,-0.0014798547756651277,0.0,0.5575025735842258,-0.4294816176105162,9.637051250310613
4700000000.0,22.09,-0.0119241092649069,0.000851750397895752,0.0,0.574866091291861,-0.40417172612441726,9.855128373588384
4705000000.0,22.09,-0.015926877309646592,0.002129301687433,0.0,0.5730020086110201,-0.3981879913889799,9.997665939722859
4710000000.0,22.09,-0.020586547308007245,0.0027468091055095657,0.0,0.5746698914860989,-0.40221,9.889262604333627
4715000000.0,22.09,-0.02055453825002903,-0.0004472129899268304,0.0,0.5564228336671284,-0.40780179158321794,9.65617700200277
4720000000.0,22.09,-0.020373597323982185,-0.0049825957979964496,0.0,0.5395500000000001,-0.3900452332786523,9.532965233278652
4725000000.0,22.09,-0.02013933431808036,-0.0040456333647585175,0.0,0.5503411835549119,-0.3835711835549119,9.639798610881487
4730000000.0,22.09,-0.021480854185369797,-0.000979458834456957,0.0,0.5750624756237248,-0.3976974918745749,9.884362280613523
4735000000.0,22.09,-0.027953971283011157,0.0,0.0,0.5886,-0.41260878394338785,9.995801216056613
4740000000.0,22.09,-0.0358323776188727,-0.0011072568613875568,0.0,0.5886,-0.4473364603440646,9.8284399458668
4745000000.0,22.09,-0.03995251644282861,-0.002672283620229708,0.0,0.5785936156681362,-0.47588319216593195,9.617428501842886
4750000000.0,22.09,-0.03728017274435114,-0.004258623400948721,0.0,0.573885092263051,-0.4905001845261019,9.618706199419663
4755000000.0,22.09,-0.03199952454343945,-0.003236498470572947,0.0,0.5884039847203398,-0.4955030076398301,9.783416839563568
4760000000.0,22.09,-0.027783507160161786,-4.25659655059155e-05,0.0,0.6172455698291557,-0.4905,9.963822279316622
4765000000.0,22.09,-0.024568281659300514,0.0015650467849246707,0.0,0.6238176223367763,-0.49511079255440793,9.971667319129473
4770000000.0,22.09,-0.025398769627528087,0.002619051130744095,0.0,0.5991946146969461,-0.50031,9.757611913105718
4775000000.0,22.09,-0.02769837522915,0.0036730554765635275,0.0,0.5886,-0.50031,9.608404592748645
4780000000.0,22.09,-0.026761462334116345,0.0047270598223829495,0.0,0.584283507154235,-0.49599350715423507,9.695813364069533
4785000000.0,22.09,-0.024195643692857805,0.005781064168202384,0.0,0.5956635717715357,-0.4736264282284643,9.892994644743446
4790000000.0,22.09,-0.0201393037519544,0.005046414707131469,0.0,0.5974285347999854,-0.45538029304000294,9.999528827839988
4795000000.0,22.09,-0.018797934607286407,0.0023209186234986762,0.0,0.56898,-0.4409590343143903,9.860126399023464
4800000000.0,22.09,-0.02173634062277906,0.0010646508437165,0.0,0.5572077202972773,-0.4355645594054456,9.645190881189109
4805000000.0,22.09,-0.023205568926629696,0.0027255466758413713,0.0,0.54337599333136,-0.47088,9.639601886633118
4810000000.0,22.09,-0.024909000158134416,0.006132409138850854,0.0,0.5568157868569579,-0.47088,9.834527335711973
4815000000.0,22.09,-0.02714479739066476,0.0074525559060157,0.0,0.5617204129488041,-0.4599906194232062,10.019248141730381
4820000000.0,22.09,-0.029444392452243166,0.005152849119976626,0.0,0.552891693622717,-0.44498169362271695,9.990109353054795
4825000000.0,22.09,-0.029135664039309214,-0.0004259010220543835,0.0,0.5523028125603282,-0.46499437487934375,9.72955500096525
4830000000.0,22.09,-0.029827676916583,-0.0035559439996951906,0.0,0.5528919752678199,-0.5105129629017296,9.532180987633911
4835000000.0,22.09,-0.029124986975286062,-0.003907258404217631,0.0,0.5885021817422218,-0.5461226060859261,9.66815096873481
4840000000.0,22.09,-0.026676279810895893,-0.001831158640144178,0.0,0.605080705988807,-0.5332714119776142,9.974417292201473
4845000000.0,22.09,-0.026154682572271493,0.0010646508437165,0.0,0.5953688058916881,-0.51993,10.06103686480857
4850000000.0,22.09,-0.02823064953179742,-0.0002129710641119477,0.0,0.5738845289728454,-0.5169869057945691,9.868856231782763
4855000000.0,22.09,-0.023578145760820325,-0.002885193552089588,0.0,0.5395500000000001,-0.5158099886050999,9.54581509685665
4860000000.0,22.09,-0.01892068322769258,-0.00302363913092164,0.0,0.5477906831990069,-0.5187524224013242,9.501576148791061
4865000000.0,22.09,-0.011338480208269646,-0.004748322252051193,0.0,0.574277588993576,-0.47990482201284823,9.782339012890791
4870000000.0,22.09,-0.008283014362121607,-0.0023634940750437193,0.0,0.5962520837817209,-0.44870930540609305,10.028370694593907
4875000000.0,22.09,-0.012247909853592337,-0.00026617298747149673,0.0,0.6057670265448704,-0.4365448106179481,9.959599564578195
4880000000.0,22.09,-0.018073972750282125,-0.0008091243541421247,0.0,0.5595620208474202,-0.42418449478814496,9.66088515635565
4885000000.0,22.09,-0.021555350158527976,-0.0009795199667090376,0.0,0.5342527897705279,-0.42938360511473606,9.455271159082113
4890000000.0,22.09,-0.02260935450434743,-0.0035559028935256815,0.0,0.5558348849471489,-0.42398829498238294,9.595556914348169
4895000000.0,22.09,-0.024110532841932854,-0.0006174768519504789,0.0,0.5767298049204981,-0.4295798049204981,9.923994291749043
4900000000.0,22.09,-0.027485486377376998,0.0006387698477447219,0.0,0.5729041903532419,-0.4257541903532419,10.068982762703929
4905000000.0,22.09,-0.03149920976056592,-0.0012669448438052675,0.0,0.5792800236313003,-0.4489059810949598,9.896128179597882
4910000000.0,22.09,-0.034469575295832514,-0.002704244194007974,0.0,0.5466135814834359,-0.48951947685429475,9.571223360178834
4915000000.0,22.09,-0.03675858499176589,-0.004418249197110044,0.0,0.5804577954679779,-0.5280722045320221,9.50667709123147
4920000000.0,22.09,-0.038557761978044856,0.0005110635191922246,0.0,0.5933090866952909,-0.5246390866952909,9.764877822603879
4925000000.0,22.09,-0.033607156265948346,0.00383278456515074,0.0,0.6195015956622161,-0.5478884043377841,10.100376382648864
4930000000.0,22.09,-0.0308923277602996,0.00730349439541254,0.0,0.6209725212033252,-0.54229699151867,10.087031144182612
4935000000.0,22.09,-0.030477082722181473,0.005695829998768983,0.0,0.577514604143546,-0.5591700000000001,9.763203520162836
4940000000.0,22.09,-0.02769837522915,0.0011924193585254167,0.0,0.5666254080928541,-0.5591700000000001,9.518054591907147
4945000000.0,22.09,-0.02769837522915,0.0027149117719919976,0.0,0.5547559802534598,-0.5591700000000001,9.58388382228114
4950000000.0,22.09,-0.027272473153091285,0.007771982463059741,0.0,0.5993910961478109,-0.5542645192609452,9.999335211399652
4955000000.0,22.09,-0.02324811381204869,0.010933995500518065,0.0,0.6055710112652101,-0.51012,10.185623071346331
4960000000.0,22.09,-0.021054922597189402,0.013244183305771963,0.0,0.5756504146318042,-0.5093351036579511,9.982259457291894
4965000000.0,22.09,-0.0181165176357011,0.006164296986329266,0.0,0.5388632035608321,-0.4989364071216641,9.579070478338304
4970000000.0,22.09,-0.018052628108274914,0.0030022839488710318,0.0,0.530328696536287,-0.48127869653628697,9.393077413407175
4975000000.0,22.09,-0.016998623762455527,0.0001597290885872027,0.0,0.541512386533624,-0.49099059663340594,9.64912102493711
4980000000.0,22.09,-0.016285391669691625,0.0032365490627815443,0.0,0.57879,-0.49991750326947504,10.138047464035775
4985000000.0,22.09,-0.02369537212416239,0.004162753273661628,0.0,0.5776124126894242,-0.4905,10.228686539583666
4990000000.0,22.09,-0.0319995856756915,0.000915526092852587,0.0,0.5391574061504741,-0.4912851876990519,9.801559232235192
4995000000.0,22.09,-0.03404365213968688,-0.00641987617612094,0.0,0.520028197021882,-0.5300345910656459,9.388464591065647
5000000000.0,22.09,-0.02982763475640917,-0.009581847053405342,0.0,0.5297403884760039,-0.5591700000000001,9.417605147307052
5005000000.0,22.09,-0.025611617373131557,-0.008527842707585963,0.0,0.5685879888644799,-0.5591700000000001,9.93233585245436
5010000000.0,22.09,-0.024525705153751087,-0.003300364809903529,0.0,0.5978216919397169,-0.5591700000000001,10.21633302208393
5015000000.0,22.09,-0.02863531025827487,-9.578686094372261e-05,0.0,0.5888942025896421,-0.5401384051792841,10.098314633665346
5020000000.0,22.09,-0.0287630260728665,-0.002044150784342944,0.0,0.5320938149551382,-0.558385395014954,9.548263544566336
5025000000.0,22.09,-0.027751597178592147,-0.0031407305817074457,0.0,0.548379195209192,-0.5871287928137879,9.404355231140253
5030000000.0,22.09,-0.021693680850886347,-0.005195517323904152,0.0,0.56780299540343,-0.5609355068948552,9.63773894024459
5035000000.0,22.09,-0.015353423039929159,-0.002352846523142192,0.0,0.6237203867930039,-0.531799806603498,10.06359290094753
5040000000.0,22.09,-0.015900658415902786,0.0008091665143159575,0.0,0.6188147021040471,-0.5026641063121411,10.121565893687858
5045000000.0,22.09,-0.01500249037504625,9.580794103063563e-05,0.0,0.5823212080277121,-0.491382802006928,9.757904882284048
5050000000.0,22.09,-0.016837212759392546,-0.0009581964047887428,0.0,0.5699609019098091,-0.5081581961803819,9.45683705729427
5055000000.0,22.09,-0.020842066419551174,0.0008304489700667426,0.0,0.5602490018126901,-0.48392700543807005,9.48852698731117
5060000000.0,22.09,-0.0203735667578562,0.0010646508437165,0.0,0.5850686948532869,-0.497955796568858,9.867294626230445
5065000000.0,22.09,-0.02209833314532904,0.0010646508437165,0.0,0.605669596763096,-0.48324040323690404,10.080071169249411
5070000000.0,22.09,-0.026953173076568755,0.0019802612569167566,0.0,0.5744732060853321,-0.48912669847866697,9.969312824341328
5075000000.0,22.09,-0.028603339144453135,0.00031937385682672976,0.0,0.5523028028484281,-0.523854394303144,9.605457458392776
5080000000.0,22.09,-0.030551660907678614,0.0,0.0,0.5658409973458101,-0.5379804986729051,9.487446509289665
5085000000.0,22.09,-0.031775998679808494,0.000883670919508892,0.0,0.5608376012299761,-0.5476923987700241,9.663735171710552
5090000000.0,22.09,-0.0319569786040161,0.0019376752653282705,0.0,0.567214298867143,-0.5493600000000001,9.967551862615718
5095000000.0,22.09,-0.03281935652773083,0.0055788133822917575,0.0,0.5928185968927859,-0.565252397928524,10.05760479585705
5100000000.0,22.09,-0.03046643517027996,0.008091367913934335,0.0,0.590561900938619,-0.56898,9.853161325342715
5105000000.0,22.09,-0.029827676916583,0.0026296122542892224,0.0,0.5576000033660001,-0.584479998317,9.5909400227205
5110000000.0,22.09,-0.02816680005653643,0.00023421241369321567,0.0,0.557011899255619,-0.603903798511238,9.53532
5115000000.0,22.09,-0.02687858329702376,0.002459375796378565,0.0,0.574277598705476,-0.585558601941786,9.792149177993092
5120000000.0,22.09,-0.0242062880827462,0.0056213888338368,0.0,0.593701398899714,-0.57879,10.047796786796567
5125000000.0,22.09,-0.022641272917951878,0.00718640399863112,0.0,0.56162200226512,-0.571432400453024,10.016008805436288
5130000000.0,22.09,-0.021587268572132428,0.003513293713841562,0.0,0.5421005003559051,-0.576239499644095,9.71071901352439
5135000000.0,22.09,-0.0213104701668507,0.0013520957468953234,0.0,0.525227200517572,-0.571628600258786,9.527863203105431
5140000000.0,22.09,-0.0213104701668507,-0.001235027484205165,0.0,0.5411198995149991,-0.5548534003233341,9.630282696928328
5145000000.0,22.09,-0.019798644277363765,-0.0006174757979461329,0.0,0.570255599806356,-0.5493600000000001,9.975008397288985
5150000000.0,22.09,-0.021416967819956674,0.001490532893692624,0.0,0.585657100032571,-0.5493600000000001,10.115091300097713
5155000000.0,22.09,-0.02604822075531339,0.002129301687433,0.0,0.57506199974062,-0.5628980002593801,9.93438799636868
5160000000.0,22.09,-0.02914632213125414,-0.0007665921167752756,0.0,0.5489672993195731,-0.582321800453618,9.64244209296892
5165000000.0,22.09,-0.029114349963428054,-0.0035559555937429614,0.0,0.5395500000000001,-0.595172800323928,9.564848400971783
5170000000.0,22.09,-0.025952304251835066,-0.0042586033748661,0.0,0.5848729029473291,-0.59841,9.788225113894551
5175000000.0,22.09,-0.0245044226980003,-0.0007984335880625139,0.0,0.589090198445502,-0.592033399481834,10.051328412435984
5180000000.0,22.09,-0.021778872860145907,0.00038326338425291725,0.0,0.57879,-0.582321499384715,10.058387992616579
5185000000.0,22.09,-0.020916560284700663,0.0006707409615664612,0.0,0.572609599287596,-0.591150801424808,9.76879397150384
5190000000.0,22.09,-0.022630659094189442,-0.004216104865638342,0.0,0.5507330975714311,-0.6105746016190461,9.526293187047632
5195000000.0,22.09,-0.02019253202542259,-0.006803107940243482,0.0,0.5575026027199261,-0.600077397280074,9.58633401813284
5200000000.0,22.09,-0.015550839608989554,-0.002555096255048501,0.0,0.592524404015044,-0.570941696988717,9.874749636135396
5205000000.0,22.09,-0.01258415102835899,0.00125630993995595,0.0,0.59664399779824,-0.54180599669736,10.01601
5210000000.0,22.09,-0.012328667752962753,0.000894284743271293,0.0,0.571530296406003,-0.518360197604002,9.83962306286203
5215000000.0,22.09,-0.014606344604103517,-0.0018205859225512524,0.0,0.542394596114646,-0.504528198704882,9.583288570212286
5220000000.0,22.09,-0.016583431424554665,-0.00379016800743621,0.0,0.551714805568948,-0.5058037013922371,9.497257402784474
5225000000.0,22.09,-0.01997971168393215,-0.003087465418087067,0.0,0.56898,-0.51012,9.678549247659394
5230000000.0,22.09,-0.025824655893521613,0.0001703882345364693,0.0,0.5795750031729501,-0.52071500317295,9.962842542834826
5235000000.0,22.09,-0.03045585402065229,0.002129301687433,0.0,0.5886,-0.5401388033671881,10.011888376429685
5240000000.0,22.09,-0.0319569786040161,0.0010220427180367515,0.0,0.578397396438574,-0.5646639053421391,9.763693135894332
5245000000.0,22.09,-0.0319569786040161,-0.0010859659736020054,0.0,0.563976798122168,-0.583793201877832,9.539144779343847
5250000000.0,22.09,-0.03248931509292003,-0.002129301687433,0.0,0.5689802039499021,-0.5984102039499021,9.584372039499021
5255000000.0,22.09,-0.03406500942974622,0.0010008382586076058,0.0,0.59321100621621,-0.61783400414414,9.860329076666591
5260000000.0,22.09,-0.0351509311351657,0.005791733854195062,0.0,0.60822,-0.623131097830811,10.073693413015134
5265000000.0,22.09,-0.034650534139953185,0.008953746891653343,0.0,0.5943875932010759,-0.6272516045326161,9.96597593201076
5270000000.0,22.09,-0.03261702879950297,0.0072182549559574975,0.0,0.574277297636573,-0.646675404726854,9.701695143277751
5275000000.0,22.09,-0.029455015762044734,0.001756640532894735,0.0,0.564565397539454,-0.6616846024605461,9.578974602460546
5280000000.0,22.09,-0.024419172718501806,0.0,0.0,0.5764360102306602,-0.6670800000000001,9.69659906649929
5285000000.0,22.09,-0.0202458193231342,0.0032046770253682986,0.0,0.602628402654784,-0.654424792035648,9.936453261060032
5290000000.0,22.09,-0.02114014833458806,0.00834688491746956,0.0,0.595859091744291,-0.6211687889923879,10.060939697248097
5295000000.0,22.09,-0.0223751210105673,0.010454893609108415,0.0,0.5627011886039119,-0.59841,9.910450697435207
5300000000.0,22.09,-0.02152337799070193,0.009581801731218491,0.0,0.535625897053859,-0.602334102946141,9.635380249915602
5305000000.0,22.09,-0.019415369299063075,0.003896554990085857,0.0,0.52591399695674,-0.60439399695674,9.56975402738934
5310000000.0,22.09,-0.017711939121562676,-0.0008091570282768452,0.0,0.5422974188422742,-0.5946820968596209,9.73917499735175
5315000000.0,22.09,-0.0170518667919846,-0.00015964160622645778,0.0,0.571530393525004,-0.581340393525004,9.974907442087474
5320000000.0,22.09,-0.018201723347017175,0.0020440959761170254,0.0,0.555638296665383,-0.5760434066692341,9.998742746646126
5325000000.0,22.09,-0.02359957050715783,-0.0007452780408941159,0.0,0.5390591897047919,-0.5954672068634721,9.80214910391139
5330000000.0,22.09,-0.030189669439132972,-0.0032152792550828773,0.0,0.523265503528855,-0.60822,9.59692597176916
5335000000.0,22.09,-0.03018963571099394,-0.005674600243235515,0.0,0.5362148072519481,-0.6211696145038962,9.613115476145454
5340000000.0,22.09,-0.0287630260728665,-0.005706506008787781,0.0,0.5681958223385583,-0.644320696276907,9.829622593077325
5345000000.0,22.09,-0.02744281395743215,-0.0042586033748661,0.0,0.5960551847191519,-0.6315675923595759,10.002472407640424
5350000000.0,22.09,-0.02418501616703885,-0.00489741643678903,0.0,0.566036896082669,-0.6209731039173311,9.93360309031473
5355000000.0,22.09,-0.022822251788155116,-0.0063879050622992,0.0,0.56201500401445,-0.6335300080289001,9.69865493978325
5360000000.0,22.09,-0.021012356631683493,-0.006089791527131992,0.0,0.56898,-0.64746,9.602420712334707
5365000000.0,22.09,-0.019670885248594002,-0.0041733860695023035,0.0,0.5822240210434403,-0.642162391582624,9.665990867339008
5370000000.0,22.09,-0.018393338175074065,-0.0005110097649705718,0.0,0.612928591388386,-0.6201878870825789,9.813729155975492
5375000000.0,22.09,-0.01838264635499005,0.0013308248851923426,0.0,0.5910521867912218,-0.595957395597074,9.88847916477659
5380000000.0,22.09,-0.015471971884986304,0.001873774143854279,0.0,0.56427099099991,-0.586245495499955,9.79194792799928
5385000000.0,22.09,-0.013840460968315,0.0008197697980349005,0.0,0.5561292137914922,-0.576533595402836,9.668147190805673
5390000000.0,22.09,-0.014312769974503387,0.0,0.0,0.574473390611434,-0.56898,9.65951491408285
5395000000.0,22.09,-0.018223096447141648,0.00044717609977471277,0.0,0.5612302047914021,-0.571040204791402,9.711312867079629
5400000000.0,22.09,-0.02748549059339438,0.0025551847914134897,0.0,0.570942104888521,-0.57879,9.829620524442605
5405000000.0,22.09,-0.03149921292257896,0.004865488537145459,0.0,0.5750619900287199,-0.5843820149569202,9.861403980057439
5410000000.0,22.09,-0.0337029831790572,0.006685961681231715,0.0,0.5609359050827591,-0.611751810165518,9.810195044089651
5415000000.0,22.09,-0.031413972429119474,0.0028319484145518424,0.0,0.565644389640244,-0.6295078051798781,9.71337097410061
5420000000.0,22.09,-0.028592670512464752,0.0008942952833147512,0.0,0.5493600000000001,-0.6392197052769971,9.67893882110799
5425000000.0,22.09,-0.02769837522915,0.0,0.0,0.5523032107482322,-0.6518748161223482,9.72367284299293
5430000000.0,22.09,-0.027847437793757503,0.0004471876938225308,0.0,0.5731005164137052,-0.675516494528765,9.799994538298646
5435000000.0,22.09,-0.029039858206287284,0.003609200731280765,0.0,0.5958591888632919,-0.6683554055683542,9.862876216705063
5440000000.0,22.09,-0.029870171209793465,0.0063879050622992,0.0,0.577612694334527,-0.6710034716726349,9.877884249010743
5445000000.0,22.09,-0.022023751797818854,0.005802289707718473,0.0,0.5646631769496318,-0.6310776172877762,9.793714765424449
5450000000.0,22.09,-0.018861738760360534,0.001277603989754549,0.0,0.5317022117194221,-0.656288894140289,9.739367788280578
5455000000.0,22.09,-0.016274706173633705,0.002906462305783897,0.0,0.54847699404317,-0.6483430059568301,9.72700803574098
5460000000.0,22.09,-0.019436719211091948,0.0004259178861238977,0.0,0.5434745302697453,-0.6549152818381528,9.78998887264739
5465000000.0,22.09,-0.0223751210105673,0.005174180059927384,0.0,0.5872263876978638,-0.6292136123021362,9.89829
5470000000.0,22.09,-0.02231123042913676,0.0031939525311496,0.0,0.5666251750072517,-0.6462825875036259,9.892991643766315
5475000000.0,22.09,-0.02125722608331729,0.0030874643640827716,0.0,0.530230606345306,-0.6268587873093879,9.804112723856328
5480000000.0,22.09,-0.020160624151861616,0.000809065329898751,0.0,0.5399425064424251,-0.6090050128848501,9.688747442018174
5485000000.0,22.09,-0.0181165176357011,-0.0053232542185827,0.0,0.5493600000000001,-0.6278400000000001,9.60840609809316
5490000000.0,22.09,-0.018180431405227244,-0.005238035859214508,0.0,0.5503415331833154,-0.6274473867266739,9.755262439369924
5495000000.0,22.09,-0.021374418718520256,-0.001043334659826649,0.0,0.5981153797986538,-0.6086128269351283,9.957248206733782
5500000000.0,22.09,-0.027698363635102193,0.001064639249668696,0.0,0.5689795726763958,-0.6474596795072969,9.966958397536484
5505000000.0,22.09,-0.02664435928928272,1.0634903849317473e-05,0.0,0.5301319722879198,-0.6183239792159398,9.8212798960797
5510000000.0,22.09,-0.03080720215331384,-0.001043369441970061,0.0,0.5681956281005563,-0.6757134421508345,9.627531859497218
5515000000.0,22.09,-0.027794158928080685,-0.005195542620008452,0.0,0.5880116142445162,-0.6864058071222582,9.661673228489033
5520000000.0,22.09,-0.024632145890622355,-0.004301177772406786,0.0,0.5697645855612459,-0.6867000000000001,9.851204144387541
5525000000.0,22.09,-0.020458702904885422,-0.00021288358175121976,0.0,0.6062584292659843,-0.7239784292659843,9.989524502430944
5530000000.0,22.09,-0.02324816967427902,0.0010007834503815748,0.0,0.5989984925863849,-0.6982754777591548,9.913396433277464
5535000000.0,22.09,-0.0234397718542838,0.004035061701169952,0.0,0.5710397774677978,-0.69651,9.734755257296053
5540000000.0,22.09,-0.020501300490521714,0.00034064155651668086,0.0,0.5780053076078531,-0.687484692392147,9.658532846745029
5545000000.0,22.09,-0.017339287453063477,0.0,0.0,0.57879,-0.6867000000000001,9.670894415409945
5550000000.0,22.09,-0.016093669333191424,0.0009581974587930885,0.0,0.5876191078020911,-0.6513835687916357,9.84041304823973
5555000000.0,22.09,-0.015024131365062213,0.0029597527655085233,0.0,0.5973310078992101,-0.6212669763023698,9.88524302369763
5560000000.0,22.09,-0.01303130288603372,0.0050677614571473795,0.0,0.5725112760110128,-0.6180300000000001,9.828049644025697
5565000000.0,22.09,-0.01370206808970021,0.002544480323277354,0.0,0.5433755757196559,-0.6094951919065519,9.734461919065518
5570000000.0,22.09,-0.01568669392677679,0.002129301687433,0.0,0.5226765836188658,-0.5744731672377317,9.679526459047166
5575000000.0,22.09,-0.015067415487660347,0.0003193717488180383,0.0,0.5282686082876861,-0.6023344331507443,9.689337216575373
5580000000.0,22.09,-0.020285683599041586,0.0008943184714103593,0.0,0.5462210167696102,-0.6411820335392203,9.774685083848052
5585000000.0,22.09,-0.02837984595495685,-0.0007026931033099755,0.0,0.5737872254457723,-0.639317591518076,9.847376859373469
5590000000.0,22.09,-0.031573727867815315,0.002427451058748047,0.0,0.5627013828419138,-0.6698272343161724,9.83491707426287
5595000000.0,22.09,-0.029369841670859036,0.000606815597992535,0.0,0.5591700000000001,-0.6848362086761621,9.773996539266864
5600000000.0,22.09,-0.026207828633400803,0.0,0.0,0.5513218912267189,-0.6631556736801568,9.698165129813752
5605000000.0,22.09,-0.022204729614017735,0.0,0.0,0.5493600000000001,-0.7037700532224006,9.68247
5610000000.0,22.09,-0.022140909650878407,-0.00083043948402763,0.0,0.5799676358700764,-0.6931742730974428,9.76664099864271
5615000000.0,22.09,-0.02401470698282832,0.002214521100805611,0.0,0.5810461909353619,-0.7169152362585524,9.843256663452467
5620000000.0,22.09,-0.02612271567446715,0.0007665130664493633,0.0,0.5638785816764859,-0.718484290838243,9.851594290838243
5625000000.0,22.09,-0.022641224433751925,0.0015969999806725308,0.0,0.5738852185177522,-0.7087723907411239,9.819809562964496
5630000000.0,22.09,-0.01815905619709405,0.002917155179872218,0.0,0.57879,-0.6845414719320148,9.744664415796045
5635000000.0,22.09,-0.01548471170462926,0.0008623315475234598,0.0,0.5859514094531141,-0.6768900000000001,9.736032818906228
5640000000.0,22.09,-0.0141385513153866,-0.0015331209932898016,0.0,0.5744733808995338,-0.6839533095502331,9.762519928650699
5645000000.0,22.09,-0.019144250992315995,-0.0006174736899374415,0.0,0.56898,-0.6867000000000001,9.819516467531464
5650000000.0,22.09,-0.025036807671104132,0.0029810700034027006,0.0,0.5621128902555289,-0.6935671097444711,9.853164219488942
5655000000.0,22.09,-0.02516448237952626,0.004993224377819705,0.0,0.5659390098415902,-0.69651,9.86581900984159
5660000000.0,22.09,-0.021608524677774577,0.0038753052084698025,0.0,0.5556381801225818,-0.6764972701838727,9.768796350919363
5665000000.0,22.09,-0.01666748538558085,0.0010539685096716536,0.0,0.5625056200716563,-0.6670800000000001,9.682273139785032
5670000000.0,22.09,-0.0149051118120315,-0.004216089055573161,0.0,0.5560305797341059,-0.6541305797341058,9.695223550664736
5675000000.0,22.09,-0.01768459669374369,-0.004311800028203985,0.0,0.5621132204601322,-0.6538366102300661,9.769289492070595
5680000000.0,22.09,-0.023269499560225365,0.0008943785496580989,0.0,0.56898,-0.6761055309815553,9.86297510327185
5685000000.0,22.09,-0.027581299588429385,0.006547662609003761,0.0,0.5751604104243041,-0.6867000000000001,9.892109589575695
5690000000.0,22.09,-0.028102930555192814,0.0052167291613637486,0.0,0.5605430684357308,-0.7110292420856925,9.833739205307193
5695000000.0,22.09,-0.02315223209071387,0.0005961564520432835,0.0,0.5553442106185422,-0.7079873681443737,9.74034789381458
5700000000.0,22.09,-0.01512492697560862,-0.00361986093123439,0.0,0.5709422214313222,-0.6847377785686778,9.707976110715661
5705000000.0,22.09,-0.0129674713288466,-0.006579566266547342,0.0,0.57879,-0.7000420432511205,9.752416075689462
5710000000.0,22.09,-0.019408169810067006,-0.003747498749504389,0.0,0.5674101781802018,-0.7218199109098992,9.831779198189093
5715000000.0,22.09,-0.026474086995224303,0.0007559382408477331,0.0,0.5759454330210544,-0.7315318110070181,9.902410866042109
5720000000.0,22.09,-0.02935924260315746,0.004514167808596937,0.0,0.5831062888958629,-0.7412437111041371,9.900251444479315
5725000000.0,22.09,-0.024557546625038326,0.0063879050622992,0.0,0.5572075551949756,-0.7293731663962317,9.776153387176134
5730000000.0,22.09,-0.013912235467694753,0.0029383638553188134,0.0,0.5448475112983752,-0.7002374661048747,9.66049493220975
5735000000.0,22.09,-0.004567267493535,-0.0016928311097988275,0.0,0.5545594113954941,-0.6659023544180236,9.675015291163952
5740000000.0,22.09,-0.003279172998526484,-0.004301213608554592,0.0,0.5642713114926131,-0.6627639344778394,9.768014426418745
5745000000.0,22.09,-0.011304980045159885,-0.0026083340145558556,0.0,0.5739832115897322,-0.6718867884102679,9.834819634769197
5750000000.0,22.09,-0.021310567135250567,0.0021293501716329573,0.0,0.5689797766262978,-0.662174888313149,9.84433488831315
5755000000.0,22.09,-0.02661245563173916,0.0047802944198772545,0.0,0.5543629882160299,-0.6668840235679403,9.77213183502442
5760000000.0,22.09,-0.024632107946465955,0.0043011651243546846,0.0,0.5446510881189109,-0.6815989118810892,9.669127616832375
5765000000.0,22.09,-0.01579788837875653,0.0001915642358483326,0.0,0.5441608119782082,-0.6682567520871676,9.67952811978208
5770000000.0,22.09,-0.0095818575934488,-0.005642710287748395,0.0,0.5583854241506543,-0.6564854241506544,9.758596272451962
5775000000.0,22.09,-0.01246434209518828,-0.006600786536041733,0.0,0.5601507756551078,-0.6714946121724462,9.803623836517339
5780000000.0,22.09,-0.021608718614574196,-0.0023847691527640654,0.0,0.5623095368086954,-0.7027890736173908,9.81117697546087
5785000000.0,22.09,-0.03288333459152206,0.0022890602881419668,0.0,0.57879,-0.7441868247333683,9.795971587633316
5790000000.0,22.09,-0.03700338698712155,0.004876088658851403,0.0,0.5664290626085907,-0.7677309373914094,9.786259687536198
5795000000.0,22.09,-0.030785740516824207,0.0029490461893636596,0.0,0.5574044251218443,-0.7807777874390779,9.79665885024369
5800000000.0,22.09,-0.01938697041331439,-0.0006388394120315859,0.0,0.5611317746839178,-0.7514453240517533,9.796265324051753
5805000000.0,22.09,-0.009219802884642482,-0.004439630729269309,0.0,0.5608380382654804,-0.7123039872448399,9.757123987244839
5810000000.0,22.09,-0.006941572491153812,-0.0039604276534425135,0.0,0.5825179128522792,-0.7100479128522791,9.758595825704557
5815000000.0,22.09,-0.014709445425826771,0.0015757322809826244,0.0,0.5849701870506019,-0.7233896258987963,9.796168690645786
5820000000.0,22.09,-0.026889351005420673,0.006175036236608799,0.0,0.5752582869534829,-0.73575,9.860620278279102
5825000000.0,22.09,-0.03041314892657277,0.00809129729564315,0.0,0.5655463868563639,-0.7391836131436361,9.874254707994547
5830000000.0,22.09,-0.021219216302138206,0.004599267065474102,0.0,0.5591700000000001,-0.7255469205554692,9.789593841110939
5835000000.0,22.09,-0.008559645180712339,0.0014372171378637636,0.0,0.5526951733242518,-0.6769877599863776,9.692475519972755
5840000000.0,22.09,0.0,-0.0031514034297131814,0.0,0.5426893134349933,-0.6604093134349932,9.675015194044953
5845000000.0,22.09,-0.0036305949114922176,-0.004003037887130967,0.0,0.5615248541284485,-0.6822860676605608,9.752122135321121
5850000000.0,22.09,-0.017785139585149726,0.00021297949614671428,0.0,0.5856568863707688,-0.7220162272584623,9.852184249921542
5855000000.0,22.09,-0.03411830621349691,0.00473775796649303,0.0,0.5730999725472997,-0.7442850411790505,9.9106499176419
5860000000.0,22.09,-0.03821707615334563,0.007920977571389166,0.0,0.5619169138234692,-0.7651800000000001,9.833150120294901
5865000000.0,22.09,-0.030551441674774638,0.004375628423378125,0.0,0.5663311860794119,-0.7519359303970594,9.728085930397059
5870000000.0,22.09,-0.014513298862888102,-0.0032792235907350576,0.0,0.5617207140177072,-0.7212314280354143,9.697381428035415
5875000000.0,22.09,-0.003992428279385911,-0.009049507402488399,0.0,0.5665273858851739,-0.7332973858851739,9.72416307057413
5880000000.0,22.09,-0.005493709909397274,-0.005919384320517251,0.0,0.5662335426358355,-0.7282945142119451,9.786849656331396
5885000000.0,22.09,-0.016208173980852374,0.0001597596547132493,0.0,0.5795743427637434,-0.7402628286181283,9.877885657236256
5890000000.0,22.09,-0.029103788839882985,0.005898252587387932,0.0,0.5515183144061833,-0.7575283144061832,9.890833484750534
5895000000.0,22.09,-0.03296833477199065,0.011263981073098474,0.0,0.5591700000000001,-0.7610595709933958,9.81107806947028
5900000000.0,22.09,-0.024926568302570545,0.007665374139497513,0.0,0.5552457707991578,-0.7416357707991578,9.733481541598316
5905000000.0,22.09,-0.007356600404376692,-0.0018206649728771892,0.0,0.5470060587901606,-0.7222119706049197,9.70581802939508
5910000000.0,22.09,0.0023209512976333554,-0.009198558373048107,0.0,0.57879,-0.7045540852053408,9.737603233151932
