#timestamp [ns], temperature [degC], w_RS_S_x [rad s^-1], w_RS_S_y [rad s^-1], w_RS_S_z [rad s^-1], a_RS_S_x [m s^-2], a_RS_S_y [m s^-2], a_RS_S_z [m s^-2]
0.0,22.79,0.0,0.0,0.0,0.04905,0.17658,9.80019
5000000.0,22.79,0.0,0.0,0.0,0.04905,0.186291900097119,9.79047809990288
10000000.0,22.79,0.0,0.0,0.0,0.010594799223047999,0.157548599417286,9.780766199805763
15000000.0,22.79,0.0,0.0,0.0,0.028841400582714005,0.15696,9.790085700291359
20000000.0,22.79,0.0,0.0,0.0,0.020012399611523995,0.15696,9.809215200776952
25000000.0,22.79,0.0,0.0,0.0,0.028939500485595005,0.147640499514405,9.82863900097119
30000000.0,22.79,0.0,0.0,0.0,0.02943,0.14715,9.801955798251859
35000000.0,22.79,0.0,0.0,0.0,0.020306699320166995,0.14715,9.80019
40000000.0,22.79,0.0,0.0,0.0,0.03767040155390401,0.16520040155390403,9.80019
45000000.0,22.79,0.0,0.0,0.0,0.02138579825185798,0.175697100874071,9.791262899125929
50000000.0,22.79,0.0,0.0,0.0,0.01962,0.16775099902881,9.79920900097119
55000000.0,22.79,0.0,0.0,0.0,0.010889098931690988,0.14057729679507297,9.791459098931691
60000000.0,22.79,0.0,0.0,0.0,0.027075602330856024,0.15460560233085602,9.807645602330856
65000000.0,22.79,0.0,0.0,0.0,0.03796470126254701,0.148425298737453,9.81
70000000.0,22.79,0.0,0.0,0.0,0.02236679728066797,0.130276797280668,9.81
75000000.0,22.79,0.0,0.0,0.0,0.027958501456785016,0.14420700291357003,9.801661498543215
80000000.0,22.79,0.0,0.0,0.0,0.021189598446095984,0.14715,9.808430401553904
85000000.0,22.79,0.0,0.0,0.0,0.027762301651023016,0.17157690495306904,9.801857698348977
90000000.0,22.79,0.0,0.0,0.0,0.03747420174814202,0.19266840349628406,9.80019
95000000.0,22.79,0.0,0.0,0.0,0.05513220369052203,0.1644155926189559,9.80019
100000000.0,22.79,0.0,0.0,0.0,0.019619990288099902,0.15696,9.792341998057621
105000000.0,22.79,0.0,0.0,0.0,0.025309804078998042,0.15696,9.79038
110000000.0,22.79,0.0,0.0,0.0,0.021778197863381976,0.16461180213661802,9.782728197863383
115000000.0,22.79,0.0,0.0,0.0,0.01962,0.1365551910650519,9.788123702233738
120000000.0,22.79,0.0,0.0,0.0,0.03453120466171204,0.1573524093234241,9.797835602330856
125000000.0,22.79,0.0,0.0,0.0,0.024524995144049946,0.15941249757202497,9.80019
130000000.0,22.79,0.0,0.0,0.0,0.03413880505018805,0.164219402525094,9.771152389899624
135000000.0,22.79,0.0,0.0,0.0,0.024917394755573946,0.16677,9.796756513111065
140000000.0,22.79,0.0,0.0,0.0,0.026683202719332028,0.15264359456133594,9.802936797280669
145000000.0,22.79,0.0,0.0,0.0,0.022464897183548972,0.14715,9.80019
150000000.0,22.79,0.0,0.0,0.0,0.03335400582714006,0.14028299708642997,9.80705700291357
155000000.0,22.79,0.0,0.0,0.0,0.02570219397862194,0.14410890301068902,9.803231096989311
160000000.0,22.79,0.0,0.0,0.0,0.01962,0.14047919689219196,9.806860803107808
165000000.0,22.79,0.0,0.0,0.0,0.0393381096147811,0.15048540640985406,9.803427296795073
170000000.0,22.79,0.0,0.0,0.0,0.016676983489769835,0.16343460330204604,9.80019
175000000.0,22.79,0.0,0.0,0.0,0.0,0.16677,9.787436993201672
180000000.0,22.79,0.0,0.0,0.0,0.031392017481420176,0.16049159650371597,9.81196201748142
185000000.0,22.79,0.0,0.0,0.0,0.02432878562638786,0.15077969640659697,9.823439696406597
190000000.0,22.79,0.0,0.0,0.0,0.034138814762088146,0.14106779630947797,9.801563388928434
195000000.0,22.79,0.0,0.0,0.0,0.03708179242471793,0.13734,9.79038
200000000.0,22.79,0.0,0.0,0.0,0.017657992230479924,0.14911200776952008,9.79626600388476
205000000.0,22.79,0.0,0.0,0.0,0.02138580796375808,0.15117209601812095,9.80019
210000000.0,22.79,0.0,0.0,0.0,0.02943,0.15852960815799608,9.788810391842004
215000000.0,22.79,0.0,0.0,0.0,0.012654887471648876,0.16117829582388296,9.786161704176118
220000000.0,22.79,0.0,0.0,0.0,0.0,0.14047918718029187,9.801367208546473
225000000.0,22.79,0.0,0.0,0.0,0.005395504370355044,0.14911201748142017,9.820791008740711
230000000.0,22.79,0.0,0.0,0.0,0.00981,0.1561751910650519,9.819025191065052
235000000.0,22.79,0.0,0.0,0.0,0.015009304564593045,0.14195069543540695,9.815199304564594
240000000.0,22.79,0.0,0.0,0.0,0.024721204661712046,0.14244120466171203,9.804506386014864
245000000.0,22.79,0.0,0.0,0.0,0.034433104758831046,0.14715,9.800386209517663
250000000.0,22.79,0.0,0.0,0.0,0.024524985432149853,0.1569600097119001,9.81
255000000.0,22.79,0.0,0.0,0.0,0.0194238099061381,0.16196309504693093,9.81
260000000.0,22.79,0.0,0.0,0.0,0.02472119494981195,0.16166880505018805,9.81
265000000.0,22.79,0.0,0.0,0.0,0.015009294852692947,0.16215929485269295,9.81
270000000.0,22.79,0.0,0.0,0.0,0.005297394755573947,0.16147260524442605,9.81
275000000.0,22.79,0.0,0.0,0.0,0.008829010683090107,0.1579409893169099,9.81
280000000.0,22.79,0.0,0.0,0.0,0.015303594561335943,0.15578281087732812,9.814316405438664
285000000.0,22.79,0.0,0.0,0.0,0.022464916607349165,0.1583333889284339,9.802936777856868
290000000.0,22.79,0.0,0.0,0.0,0.030999588734195886,0.15127020563290206,9.788810411265805
295000000.0,22.79,0.0,0.0,0.0,0.015597894269978941,0.16902631719006317,9.804212105730022
300000000.0,22.79,0.0,0.0,0.0,0.013734005827140058,0.17854198834571988,9.80215198834572
305000000.0,22.79,0.0,0.0,0.0,0.01579409407574094,0.16294409407574093,9.79420590592426
310000000.0,22.79,0.0,0.0,0.0,0.013537806021378058,0.15323219397862192,9.807645612042757
315000000.0,22.79,0.0,0.0,0.0,0.015990293881502936,0.15803911835549117,9.812550587763006
320000000.0,22.79,0.0,0.0,0.0,0.013341606215616062,0.1659851813531518,9.80019
325000000.0,22.79,0.0,0.0,0.0,0.02305350631273506,0.16088402525094025,9.803623506312736
330000000.0,22.79,0.0,0.0,0.0,0.02609459359014594,0.17638378077043781,9.806664593590147
335000000.0,22.79,0.0,0.0,0.0,0.01962,0.15696,9.796952693493028
340000000.0,22.79,0.0,0.0,0.0,0.02589841320818413,0.15068158679181587,9.793519206604092
345000000.0,22.79,0.0,0.0,0.0,0.03924,0.14342221340242212,9.803231106701212
350000000.0,22.79,0.0,0.0,0.0,0.030410979605009797,0.15401699320166992,9.81
355000000.0,22.79,0.0,0.0,0.0,0.015499813790898136,0.14430509310455092,9.81
360000000.0,22.79,0.0,0.0,0.0,0.03217680699256807,0.14008680699256806,9.81274680699257
365000000.0,22.79,0.0,0.0,0.0,0.03659129291031293,0.14715,9.814512585820626
370000000.0,22.79,0.0,0.0,0.0,0.03198060718680607,0.15480182156041822,9.795088785626389
375000000.0,22.79,0.0,0.0,0.0,0.044145014567850145,0.17412749271607492,9.787927521851776
380000000.0,22.79,0.0,0.0,0.0,0.05650559261895593,0.16206118523791185,9.807645592618956
385000000.0,22.79,0.0,0.0,0.0,0.044537385043673855,0.14263738504367385,9.797933692521838
390000000.0,22.79,0.0,0.0,0.0,0.027271792424717924,0.13400462272584623,9.799012830301129
395000000.0,22.79,0.0,0.0,0.0,0.01962,0.15902010767240107,9.823439676982797
400000000.0,22.79,0.0,0.0,0.0,0.01962,0.16284598446095985,9.79626598446096
405000000.0,22.79,0.0,0.0,0.0,0.021483907866639076,0.14901390786663907,9.778706092133362
410000000.0,22.79,0.0,0.0,0.0,0.03119580796375808,0.15872580796375807,9.774291615927515
415000000.0,22.79,0.0,0.0,0.0,0.035904583878245834,0.17010541612175417,9.792047708060878
420000000.0,22.79,0.0,0.0,0.0,0.02118960815799608,0.18325078368400782,9.798620391842004
425000000.0,22.79,0.0,0.0,0.0,0.030901508255115083,0.16235547523465474,9.79332301651023
430000000.0,22.79,0.0,0.0,0.0,0.03924,0.13734,9.811373408352235
435000000.0,22.79,0.0,0.0,0.0,0.034138766202587656,0.13734,9.815984074651942
440000000.0,22.79,0.0,0.0,0.0,0.0,0.13969441709294417,9.792734417092944
445000000.0,22.79,0.0,0.0,0.0,0.0032373259307732593,0.15696,9.80892089135641
450000000.0,22.79,0.0,0.0,0.0,0.026486973777869738,0.15892201748142015,9.801171008740711
455000000.0,22.79,0.0,0.0,0.0,0.0017658176756581768,0.1756970911621709,9.808234182324343
460000000.0,22.79,0.0,0.0,0.0,0.021189617869896177,0.16677,9.791949617869896
465000000.0,22.79,0.0,0.0,0.0,0.03786658193586582,0.16402316387173163,9.809313290967934
470000000.0,22.79,0.0,0.0,0.0,0.02020860912918609,0.1281186091291861,9.799012781741629
475000000.0,22.79,0.0,0.0,0.0,0.027958472321084723,0.13537796309477962,9.78155101845261
480000000.0,22.79,0.0,0.0,0.0,0.0007848186468481865,0.10045445594054457,9.799797590676576
485000000.0,22.79,0.0,0.0,0.0,0.01962,0.15725430942054308,9.790674309420544
490000000.0,22.79,0.0,0.0,0.0,0.020404838070648378,0.1671624190353242,9.800386209517663
495000000.0,22.79,0.0,0.0,0.0,0.05866378077043781,0.1860956711556567,9.810196219229562
500000000.0,22.79,0.0,0.0,0.0,0.0392399902880999,0.1569599902880999,9.8296199611524
505000000.0,22.79,0.0,0.0,0.0,0.029528090190980905,0.1472480901909809,9.790772360763924
510000000.0,22.79,0.0,0.0,0.0,0.010202380187723802,0.1375361900938619,9.79038
515000000.0,22.79,0.0,0.0,0.0,0.0383571300097713,0.1278242899967429,9.799895710003257
520000000.0,22.79,0.0,0.0,0.0,0.0298223898996239,0.16520044040150442,9.809607610100377
525000000.0,22.79,0.0,0.0,0.0,0.02943,0.1574504898025049,9.819319510197495
530000000.0,22.79,0.0,0.0,0.0,0.02943,0.1661814102946141,9.810588589705386
535000000.0,22.79,0.0,0.0,0.0,0.02943,0.16677,9.81
540000000.0,22.79,0.0,0.0,0.0,0.04748042097770421,0.16677,9.791949579022296
545000000.0,22.79,0.0,0.0,0.0,0.031195778828057793,0.15784288941402888,9.79038
550000000.0,22.79,0.0,0.0,0.0,0.00294296795072968,0.13930197863381977,9.79038
555000000.0,22.79,0.0,0.0,0.0,0.0,0.14607091078020912,9.79911091078021
560000000.0,22.79,0.0,0.0,0.0,0.017265621754656218,0.14715,9.791557189122672
565000000.0,22.79,0.0,0.0,0.0,0.01962,0.16421942194889422,9.807449421948895
570000000.0,22.79,0.0,0.0,0.0,0.011183388928433888,0.16677,9.81
575000000.0,22.79,0.0,0.0,0.0,0.026487022337370224,0.1584314888313149,9.801661488831316
580000000.0,22.79,0.0,0.0,0.0,0.02943,0.15696,9.783709177468392
585000000.0,22.79,0.0,0.0,0.0,0.04571462272584623,0.1651023113629231,9.788712311362923
590000000.0,22.79,0.0,0.0,0.0,0.024917365619873656,0.1587257885399579,9.806468422920085
595000000.0,22.79,0.0,0.0,0.0,0.027566111557161117,0.1490138884428389,9.81
600000000.0,22.79,0.0,0.0,0.0,0.021581988345719883,0.13930198834571988,9.81784801165428
605000000.0,22.79,0.0,0.0,0.0,0.027369911751399117,0.14508991175139913,9.812060088248602
610000000.0,22.79,0.0,0.0,0.0,0.02177818815148188,0.16245362369703625,9.802348188151482
615000000.0,22.79,0.0,0.0,0.0,0.02717371194563712,0.14410886416308863,9.80019
620000000.0,22.79,0.0,0.0,0.0,0.036885612042756116,0.16716244817102446,9.792734387957244
625000000.0,22.79,0.0,0.0,0.0,0.031882487860124875,0.16922248786012486,9.79038
630000000.0,22.79,0.0,0.0,0.0,0.03668941223699412,0.16677,9.833936473421964
635000000.0,22.79,0.0,0.0,0.0,0.032078687665886875,0.15960868766588687,9.820594750663547
640000000.0,22.79,0.0,0.0,0.0,0.02943,0.16402321243123213,9.81
645000000.0,22.79,0.0,0.0,0.0,0.022464887471648876,0.13194443735824438,9.81
650000000.0,22.79,0.0,0.0,0.0,0.01962,0.13145402525094024,9.80313298737453
655000000.0,22.79,0.0,0.0,0.0,0.026388912722589128,0.17118456361294565,9.80019
660000000.0,22.79,0.0,0.0,0.0,0.022759187180291872,0.17304837436058373,9.780177561540876
665000000.0,22.79,0.0,0.0,0.0,0.045910851667308517,0.16019728708317285,9.790478138750482
670000000.0,22.79,0.0,0.0,0.0,0.04591077397210774,0.15048538698605388,9.80019
675000000.0,22.79,0.0,0.0,0.0,0.03924,0.14715,9.80019
680000000.0,22.79,0.0,0.0,0.0,0.02668317358363173,0.14087158679181586,9.806468413208185
685000000.0,22.79,0.0,0.0,0.0,0.01962,0.14352031330530313,9.816180313305303
690000000.0,22.79,0.0,0.0,0.0,0.01962,0.1653966402072664,9.813727786597578
695000000.0,22.79,0.0,0.0,0.0,0.013635886500458863,0.1945323404986234,9.81
700000000.0,22.79,0.0,0.0,0.0,0.021582027193320273,0.19423797280667973,9.786455945613358
705000000.0,22.79,0.0,0.0,0.0,0.02943,0.19796582738755827,9.77654791369378
710000000.0,22.79,0.0,0.0,0.0,0.018050372418203724,0.16618130346371301,9.786259813790899
715000000.0,22.79,0.0,0.0,0.0,0.00981,0.13174828611198286,9.784788286111983
720000000.0,22.79,0.0,0.0,0.0,0.01530361398513614,0.12753,9.797050841955409
725000000.0,22.79,0.0,0.0,0.0,0.01962,0.13832102816451028,9.81
730000000.0,22.79,0.0,0.0,0.0,0.01962,0.17893448507624485,9.81
735000000.0,22.79,0.0,0.0,0.0,0.030018628552986284,0.1956113714470137,9.81
740000000.0,22.79,0.0,0.0,0.0,0.03924,0.1761875712527757,9.784493928131939
745000000.0,22.79,0.0,0.0,0.0,0.04424311447073115,0.16176688552926885,9.770956228941463
750000000.0,22.79,0.0,0.0,0.0,0.039239970864299714,0.16677002913570027,9.79528504370355
755000000.0,22.79,0.0,0.0,0.0,0.01981617067006171,0.17177308533503086,9.81480691466497
760000000.0,22.79,0.0,0.0,0.0,0.00981,0.1479347409516474,9.81981
765000000.0,22.79,0.0,0.0,0.0,0.014420714859207148,0.12753,9.81981
770000000.0,22.79,0.0,0.0,0.0,0.02413261495632615,0.14106784486897844,9.815297385043674
775000000.0,22.79,0.0,0.0,0.0,0.02501548494655485,0.15696,9.80117096989311
780000000.0,22.79,0.0,0.0,0.0,0.01962,0.16990924545169245,9.781747169698871
785000000.0,22.79,0.0,0.0,0.0,0.028056630495366303,0.18217168475231685,9.77076
790000000.0,22.79,0.0,0.0,0.0,0.03511978465519784,0.16421935396559353,9.779000430689605
795000000.0,22.79,0.0,0.0,0.0,0.025407884558078846,0.14715,9.802446346325764
800000000.0,22.79,0.0,0.0,0.0,0.023544015539040154,0.13537795338287953,9.81196196892192
805000000.0,22.79,0.0,0.0,0.0,0.02943,0.12154591563615916,9.79636408436384
810000000.0,22.79,0.0,0.0,0.0,0.01824655280016553,0.13498563146655632,9.797835631466556
815000000.0,22.79,0.0,0.0,0.0,0.007259431660794317,0.15440943166079432,9.795481136678411
820000000.0,22.79,0.0,0.0,0.0,0.03021484778254848,0.16323838407248384,9.774291615927517
825000000.0,22.79,0.0,0.0,0.0,0.04905,0.17069406409854063,9.790870548073906
830000000.0,22.79,0.0,0.0,0.0,0.04571458387824584,0.18619375163473753,9.81
835000000.0,22.79,0.0,0.0,0.0,0.03600268378112684,0.16353268378112684,9.813237316218874
840000000.0,22.79,0.0,0.0,0.0,0.03256921631599216,0.1475423510520235,9.813531567368017
845000000.0,22.79,0.0,0.0,0.0,0.03619888358688884,0.12753,9.80019
850000000.0,22.79,0.0,0.0,0.0,0.02943,0.12753,9.80019
855000000.0,22.79,0.0,0.0,0.0,0.02943,0.14175458303674582,9.808724749822048
860000000.0,22.79,0.0,0.0,0.0,0.03217681670446817,0.17658,9.821379549886595
865000000.0,22.79,0.0,0.0,0.0,0.03394256639682566,0.17393128319841283,9.80019
870000000.0,22.79,0.0,0.0,0.0,0.027271850696118507,0.16421938310129383,9.797639383101295
875000000.0,22.79,0.0,0.0,0.0,0.041692449012524495,0.15450748300417483,9.79528503399165
880000000.0,22.79,0.0,0.0,0.0,0.01962,0.14479558290705583,9.805291165814113
885000000.0,22.79,0.0,0.0,0.0,0.017363682809936828,0.13508368280993682,9.792636317190064
890000000.0,22.79,0.0,0.0,0.0,0.014126434574364344,0.13184643457436435,9.802348217287182
895000000.0,22.79,0.0,0.0,0.0,0.02943,0.14921011738430118,9.807939882615699
900000000.0,22.79,0.0,0.0,0.0,0.031392017481420176,0.15892201748142015,9.798227982518581
905000000.0,22.79,0.0,0.0,0.0,0.04110391757853917,0.16117824726438248,9.79038
910000000.0,22.79,0.0,0.0,0.0,0.04905,0.14263745302697453,9.788614182324343
915000000.0,22.79,0.0,0.0,0.0,0.040711411136114116,0.16176684668166846,9.783905435545556
920000000.0,22.79,0.0,0.0,0.0,0.0015696178698961787,0.13734,9.803329235739794
925000000.0,22.79,0.0,0.0,0.0,0.01275303593403036,0.14028303593403035,9.818338482032985
930000000.0,22.79,0.0,0.0,0.0,0.030803418064134183,0.1555865819358658,9.808626581935867
935000000.0,22.79,0.0,0.0,0.0,0.03924,0.14842531816125318,9.80019
940000000.0,22.79,0.0,0.0,0.0,0.03688556348325563,0.1557827817416278,9.797835563483256
945000000.0,22.79,0.0,0.0,0.0,0.01962,0.14715,9.77949088164451
950000000.0,22.79,0.0,0.0,0.0,0.022563055357830552,0.14911203690522037,9.771741018452609
955000000.0,22.79,0.0,0.0,0.0,0.04728416290054163,0.16677,9.78321875564919
960000000.0,22.79,0.0,0.0,0.0,0.02786036270630363,0.16598518135315182,9.811569637293697
965000000.0,22.79,0.0,0.0,0.0,0.011183437487934374,0.15764671874396718,9.828246562512065
970000000.0,22.79,0.0,0.0,0.0,0.028252762317827626,0.16618138115891382,9.81
975000000.0,22.720497316604973,0.0,0.0,0.0,0.00931948106179481,0.15794103787641037,9.80901896212359
980000000.0,21.4,0.0,0.0,0.0,0.0011772571059725711,0.1757951619293516,9.789595161929352
985000000.0,21.4,0.0,0.0,0.0,0.030018638264886384,0.15754863826488638,9.771348638264886
990000000.0,21.4,0.0,0.0,0.0,0.04826512308175123,0.17658,9.79038
995000000.0,21.4,0.0,0.0,0.0,0.009908119326681192,0.1764818806733188,9.79038
1000000000.0,21.4,0.0,0.0,0.0,0.019620019423800192,0.1667699417285994,9.7903800194238
1005000000.0,21.4,0.0,0.0,0.0,0.029331919520919195,0.1376342414372424,9.80009191952092
1010000000.0,21.4,0.0,0.0,0.0,0.02943,0.12772618038196182,9.819417639236077
1015000000.0,21.4,0.0,0.0,0.0,0.0199142802848428,0.17510859857578598,9.810294280284843
1020000000.0,21.4,0.0,0.0,0.0,0.0384552396245524,0.17658,9.791164760375448
1025000000.0,21.4,0.0,0.0,0.0,0.03924,0.1672604800906048,9.799699519909396
1030000000.0,21.4,0.0,0.0,0.0,0.0300185799934858,0.16677,9.781747159986972
1035000000.0,21.4,0.0,0.0,0.0,0.020306679896366798,0.17589332010363318,9.78057
1040000000.0,21.4,0.0,0.0,0.0,0.01962,0.1675547797992478,9.789595220200752
1045000000.0,21.4,0.0,0.0,0.0,0.01962,0.13998863910638637,9.79038
1050000000.0,21.4,0.0,0.0,0.0,0.01962,0.13734,9.79038
1055000000.0,21.4,0.0,0.0,0.0,0.010889079507890793,0.1460709204921092,9.807841840984219
1060000000.0,21.4,0.0,0.0,0.0,0.052974102946141036,0.14715,9.81
1065000000.0,21.4,0.0,0.0,0.0,0.0076516758819167585,0.16421944137269442,9.81
1070000000.0,21.4,0.0,0.0,0.0,0.016873241566932415,0.20051648313386483,9.793126758433068
1075000000.0,21.4,0.0,0.0,0.0,0.03629704176117042,0.17265591647765915,9.79038
1080000000.0,21.4,0.0,0.0,0.0,0.03924,0.14204873706688737,9.79038
1085000000.0,21.4,0.0,0.0,0.0,0.022955357850353575,0.11291303677553037,9.79038
1090000000.0,21.4,0.0,0.0,0.0,0.027664221171942213,0.13204266351582664,9.814512663515828
1095000000.0,21.4,0.0,0.0,0.0,0.005591636192816364,0.1293938787309388,9.81981
1100000000.0,21.4,0.0,0.0,0.0,0.015696042732360426,0.15107406409854063,9.80411395726764
1105000000.0,21.4,0.0,0.0,0.0,0.04286976438989765,0.1647099214632992,9.792440078536702
1110000000.0,21.4,0.0,0.0,0.0,0.04139817843958178,0.16677,9.79038
1115000000.0,21.4,0.0,0.0,0.0,0.024132556684925564,0.18943116497261167,9.79038
1120000000.0,21.4,0.0,0.0,0.0,0.01216437824534378,0.16637751298137513,9.81274686526397
1125000000.0,21.4,0.0,0.0,0.0,0.00981,0.13488743444467435,9.80509495629645
1130000000.0,21.4,0.0,0.0,0.0,0.017069421948894218,0.14930826584668266,9.80019
1135000000.0,21.4,0.0,0.0,0.0,0.01962,0.14979867795398677,9.80019
1140000000.0,21.4,0.0,0.0,0.0,0.02668322214313222,0.1542132221431322,9.807253222143133
1145000000.0,21.4,0.0,0.0,0.0,0.02943,0.13606463327924634,9.789104633279248
1150000000.0,21.4,0.0,0.0,0.0,0.03629702233737022,0.14813106701211065,9.787437022337372
1155000000.0,21.4,0.0,0.0,0.0,0.02570215513102155,0.16372892243448922,9.803917844868979
1160000000.0,21.4,0.0,0.0,0.0,0.03296164506321645,0.16009917746839178,9.81667082253161
1165000000.0,21.4,0.0,0.0,0.0,0.026094554742545545,0.16353272262872723,9.813237277371273
1170000000.0,21.4,0.0,0.0,0.0,0.013145377274153772,0.14087150909661508,9.81
1175000000.0,21.4,0.0,0.0,0.0,0.022563045645930455,0.13390652282296522,9.803623477177036
1180000000.0,21.4,0.0,0.0,0.0,0.02315157707991577,0.13734,9.793911577079916
1185000000.0,21.4,0.0,0.0,0.0,0.025800323017203232,0.14970064603440644,9.79038
1190000000.0,21.4,0.0,0.0,0.0,0.023347776885677768,0.16912444622864445,9.784297776885678
1195000000.0,21.4,0.0,0.0,0.0,0.031588246422882466,0.17059587678855875,9.792538246422883
1200000000.0,21.4,0.0,0.0,0.0,0.03335397669143977,0.17265602330856022,9.806076023308561
1205000000.0,21.4,0.0,0.0,0.0,0.023642076594320764,0.1650041531886415,9.804212076594322
1210000000.0,21.4,0.0,0.0,0.0,0.025309823502798236,0.15696,9.8058798235028
1215000000.0,21.4,0.0,0.0,0.0,0.023838276400082764,0.15136827640008277,9.804408276400084
1220000000.0,21.4,0.0,0.0,0.0,0.025113623697036236,0.14165637630296377,9.805683623697037
1225000000.0,21.4,0.0,0.0,0.0,0.02943,0.16431761897077618,9.815395523794155
1230000000.0,21.4,0.0,0.0,0.0,0.02943,0.17049772832617727,9.803917728326178
1235000000.0,21.4,0.0,0.0,0.0,0.02423067601160676,0.16215932398839322,9.79038
1240000000.0,21.4,0.0,0.0,0.0,0.02472122408551224,0.17187122408551223,9.79038
1245000000.0,21.4,0.0,0.0,0.0,0.02943,0.15656750326947502,9.805389372547895
1250000000.0,21.4,0.0,0.0,0.0,0.014714927160749272,0.13243497572024976,9.8099999514405
1255000000.0,21.4,0.0,0.0,0.0,0.004806924376869244,0.13233692437686925,9.80019
1260000000.0,21.4,0.0,0.0,0.0,0.00981,0.14204882447398823,9.80489882447399
1265000000.0,21.4,0.0,0.0,0.0,0.014420724571107244,0.15176072457110723,9.805389275428894
1270000000.0,21.4,0.0,0.0,0.0,0.028645249336452492,0.16147262466822623,9.795677375331774
1275000000.0,21.4,0.0,0.0,0.0,0.0304109504693095,0.1579409504693095,9.785965475234656
1280000000.0,21.4,0.0,0.0,0.0,0.023936424862464247,0.16009927458739273,9.784886424862465
1285000000.0,21.4,0.0,0.0,0.0,0.033648324959583246,0.16392502512125023,9.798816649919168
1290000000.0,21.4,0.0,0.0,0.0,0.030999549886595496,0.14302977494329774,9.822360675170106
1295000000.0,21.4,0.0,0.0,0.0,0.027664250307642503,0.14136212515382124,9.84345212515382
1300000000.0,21.4,0.0,0.0,0.0,0.02746792424717924,0.15107402525094024,9.8296198737453
1305000000.0,21.4,0.0,0.0,0.0,0.025113701392237016,0.16078592534805924,9.80019
1310000000.0,21.4,0.0,0.0,0.0,0.034138698219286986,0.16304217455482173,9.792734349109644
1315000000.0,21.4,0.0,0.0,0.0,0.01706945108459451,0.15333027445770273,9.791459176626892
1320000000.0,21.4,0.0,0.0,0.0,0.025898374360583745,0.15068162563941626,9.802936748721168
1325000000.0,21.4,0.0,0.0,0.0,0.016186474263464742,0.15696,9.797247051473072
1330000000.0,21.4,0.0,0.0,0.0,0.01981627750096277,0.16029542583365425,9.81
1335000000.0,21.4,0.0,0.0,0.0,0.03276534813845348,0.16353267406922672,9.813237325930773
1340000000.0,21.4,0.0,0.0,0.0,0.01648077397210774,0.15696,9.816670773972108
1345000000.0,21.4,0.0,0.0,0.0,0.018933378375033783,0.15087774774997748,9.800876621624967
1350000000.0,21.4,0.0,0.0,0.0,0.03041092133360921,0.14616907866639078,9.77762697377787
1355000000.0,21.4,0.0,0.0,0.0,0.012654926319249263,0.16677,9.77076
1360000000.0,21.4,0.0,0.0,0.0,0.01962,0.16951682641636825,9.781747305665473
1365000000.0,21.4,0.0,0.0,0.0,0.027566179540461797,0.17658,9.81
1370000000.0,21.4,0.0,0.0,0.0,0.046499373389393736,0.1689281201681812,9.81
1375000000.0,21.4,0.0,0.0,0.0,0.03924,0.14224494658454948,9.807547473292276
1380000000.0,21.4,0.0,0.0,0.0,0.03453114639031146,0.12517557319515574,9.793126719585468
1385000000.0,21.4,0.0,0.0,0.0,0.017363673098036728,0.12448898070588982,9.773016326901963
1390000000.0,21.4,0.0,0.0,0.0,0.00981,0.15146645399816455,9.787044680997248
1395000000.0,21.4,0.0,0.0,0.0,0.013930254192402541,0.17089025419240256,9.814120254192403
1400000000.0,21.4,0.0,0.0,0.0,0.03335405438664055,0.18050391842003918,9.82373391842004
1405000000.0,21.4,0.0,0.0,0.0,0.045322145419121454,0.15882392729043926,9.798326072709562
1410000000.0,21.4,0.0,0.0,0.0,0.025898345224883455,0.16323834522488345,9.792145827387559
1415000000.0,21.4,0.0,0.0,0.0,0.008142272515322724,0.14214681754596817,9.798522272515322
1420000000.0,21.4,0.0,0.0,0.0,0.0015696275817962757,0.1239985103271851,9.791949627581797
1425000000.0,21.4,0.0,0.0,0.0,0.011281527678915276,0.15990305535783053,9.79724694464217
1430000000.0,21.4,0.0,0.0,0.0,0.01962,0.17383314444793144,9.784690283328104
1435000000.0,21.4,0.0,0.0,0.0,0.020895327873153277,0.15951065574630655,9.807449344253694
1440000000.0,21.4,0.0,0.0,0.0,0.03060722797027228,0.17304831608918314,9.791557227970273
1445000000.0,21.4,0.0,0.0,0.0,0.04139825613478256,0.14715,9.798031743865218
1450000000.0,21.4,0.0,0.0,0.0,0.05787897183548972,0.1461689718354897,9.781551028164511
1455000000.0,21.4,0.0,0.0,0.0,0.04728414347674144,0.13734,9.79126292826163
1460000000.0,21.4,0.0,0.0,0.0,0.02707551492375515,0.13734,9.800974828358749
1465000000.0,21.4,0.0,0.0,0.0,0.002746913823469138,0.14077364227933642,9.812746913823469
1470000000.0,21.4,0.0,0.0,0.0,0.038651371447013715,0.18462411434104115,9.845708228682083
1475000000.0,21.4,0.0,0.0,0.0,0.030411057300210573,0.15745052865010528,9.791361057300211
1480000000.0,21.4,0.0,0.0,0.0,0.048657571252775714,0.16637757125277572,9.808822713758328
1485000000.0,21.4,0.0,0.0,0.0,0.03953432884434328,0.1566656711556567,9.781747315377373
1490000000.0,21.4,0.0,0.0,0.0,0.048657542117075424,0.1473462289414623,9.819613771058538
1495000000.0,21.4,0.0,0.0,0.0,0.02933187096141871,0.1567637419228374,9.809803741922838
1500000000.0,21.4,0.0,0.0,0.0,0.01962,0.13734011654280115,9.790380058271401
1505000000.0,21.4,0.0,0.0,0.0,0.01962,0.17618771693127716,9.809803858465639
1510000000.0,21.4,0.0,0.0,0.0,0.01962,0.1669661706700617,9.800386170670063
1515000000.0,21.4,0.0,0.0,0.0,0.029135729427057295,0.1382228117188281,9.790674270572943
1520000000.0,21.4,0.0,0.0,0.0,0.0011771114274711156,0.1467576295241763,9.79038
1525000000.0,21.4,0.0,0.0,0.0,0.02795858886388589,0.14715,9.79038
1530000000.0,21.4,0.0,0.0,0.0,0.04787285943682859,0.1655928594368286,9.781158570281587
1535000000.0,21.4,0.0,0.0,0.0,0.0399266701844667,0.15764667018446668,9.8079399894466
1540000000.0,21.4,0.0,0.0,0.0,0.057290459825304604,0.15696,9.819025229912652
1545000000.0,21.4,0.0,0.0,0.0,0.014224349951143501,0.1391057399804574,9.810882869990229
1550000000.0,21.4,0.0,0.0,0.0,0.0186390301068903,0.13734,9.78351290967933
1555000000.0,21.4,0.0,0.0,0.0,0.010889069795990696,0.1635327906120279,9.806762790612028
1560000000.0,21.4,0.0,0.0,0.0,0.027075660602256607,0.1754028303011283,9.81
1565000000.0,21.4,0.0,0.0,0.0,0.020895269601752697,0.1680452696017527,9.818534730398248
1570000000.0,21.4,0.0,0.0,0.0,0.04492989148609892,0.1752066304953663,9.828246630495366
1575000000.0,21.4,0.0,0.0,0.0,0.007357347037573472,0.1682414694075147,9.81294293881503
1580000000.0,21.4,0.0,0.0,0.0,0.02472129206881292,0.15028913862079138,9.793519138620793
1585000000.0,21.4,0.0,0.0,0.0,0.02128766921327669,0.14715,9.798522330786724
1590000000.0,21.4,0.0,0.0,0.0,0.02766423088384231,0.14715,9.824322692651528
1595000000.0,21.4,0.0,0.0,0.0,0.037376130980961306,0.1550961309809613,9.813727738038077
1600000000.0,21.4,0.0,0.0,0.0,0.031391968921919686,0.18050409323424094,9.78645590676576
1605000000.0,21.4,0.0,0.0,0.0,0.02943,0.17864006882480069,9.7883199311752
1610000000.0,21.4,0.0,0.0,0.0,0.02943,0.16127633745536335,9.805683662544638
1615000000.0,21.4,0.0,0.0,0.0,0.014322537261125375,0.1494062686305627,9.81
1620000000.0,21.4,0.0,0.0,0.0,0.017265631466556314,0.14715,9.787633105600332
1625000000.0,21.4,0.0,0.0,0.0,0.004904936872649366,0.1545075315636753,9.802642594691026
1630000000.0,21.4,0.0,0.0,0.0,0.0,0.15696,9.82451886332159
1635000000.0,21.4,0.0,0.0,0.0,0.021483995273739953,0.17128266351582663,9.815297336484173
1640000000.0,21.4,0.0,0.0,0.0,0.03649323185503232,0.16245353628993536,9.81
1645000000.0,21.4,0.0,0.0,0.0,0.03924,0.17089026390430262,9.796069736095697
1650000000.0,21.4,0.0,0.0,0.0,0.03924,0.16971296795072968,9.783512967950731
1655000000.0,21.4,0.0,0.0,0.0,0.01216427141444271,0.16000106785361068,9.78733893214639
1660000000.0,21.4,0.0,0.0,0.0,0.020012496730524968,0.15028916775649168,9.803721664487018
1665000000.0,21.4,0.0,0.0,0.0,0.02943,0.1537227323406273,9.803427267659373
1670000000.0,21.4,0.0,0.0,0.0,0.022955367562253675,0.1634346324377463,9.813139264875494
1675000000.0,21.4,0.0,0.0,0.0,0.025996532534865325,0.17952306506973065,9.79430386986054
1680000000.0,21.4,0.0,0.0,0.0,0.035708432631984324,0.17383313473603135,9.786848432631984
1685000000.0,21.4,0.0,0.0,0.0,0.020699001812690018,0.17295033272910332,9.784199667270897
1690000000.0,21.4,0.0,0.0,0.0,0.028056698478666982,0.17658,9.792734465652446
1695000000.0,21.4,0.0,0.0,0.0,0.03924,0.15862760122997602,9.812158265846683
1700000000.0,21.4,0.0,0.0,0.0,0.02158190093861901,0.15303603302046032,9.81392396697954
1705000000.0,21.4,0.0,0.0,0.0,0.02717379935273799,0.15117206688242066,9.804212066882421
1710000000.0,21.4,0.0,0.0,0.0,0.03355016678530167,0.14146016678530166,9.811569666429397
1715000000.0,21.4,0.0,0.0,0.0,0.023838266688182667,0.14293173331181733,9.791851333440913
1720000000.0,21.4,0.0,0.0,0.0,0.030607266817872666,0.15264363340893633,9.781747266817872
1725000000.0,21.4,0.0,0.0,0.0,0.017657865975778658,0.15696,9.795775533506056
1730000000.0,21.4,0.0,0.0,0.0,0.021189734412697343,0.16225743360317432,9.805487433603174
1735000000.0,21.4,0.0,0.0,0.0,0.03404066629970666,0.16677,9.804800666299707
1740000000.0,21.4,0.0,0.0,0.0,0.019227532405175326,0.15656753240517532,9.805291233797412
1745000000.0,21.4,0.0,0.0,0.0,0.019816267789062675,0.14214686610546864,9.815003133894532
1750000000.0,21.4,0.0,0.0,0.0,0.02452496600834966,0.14224503399165034,9.814904966008351
1755000000.0,21.4,0.0,0.0,0.0,0.02442693408876934,0.14715,9.81
1760000000.0,21.4,0.0,0.0,0.0,0.015303497442334975,0.15185883418588833,9.800582331628224
1765000000.0,21.4,0.0,0.0,0.0,0.009221468566014687,0.15696,9.804212202849023
1770000000.0,21.4,0.0,0.0,0.0,0.03315790314037903,0.15244736561987365,9.80627209685962
1775000000.0,21.4,0.0,0.0,0.0,0.03580639656826397,0.14715,9.794794534477246
1780000000.0,21.4,0.0,0.0,0.0,0.023936434574364347,0.14283356542563566,9.80019
1785000000.0,21.4,0.0,0.0,0.0,0.025211665328516653,0.13734,9.795971665328517
1790000000.0,21.4,0.0,0.0,0.0,0.011379530462795303,0.14146023476860234,9.794500234768604
1795000000.0,21.4,0.0,0.0,0.0,0.008044269731442698,0.14715,9.808234269731443
1800000000.0,21.4,0.0,0.0,0.0,0.01962,0.15892210488852104,9.823734034962841
1805000000.0,21.4,0.0,0.0,0.0,0.02344593505995935,0.17658,9.821968129880082
1810000000.0,21.4,0.0,0.0,0.0,0.0368856703141567,0.1616686593716866,9.798816494528765
1815000000.0,21.4,0.0,0.0,0.0,0.052679735254197356,0.14096973525419734,9.773310529491605
1820000000.0,21.4,0.0,0.0,0.0,0.04120182324341823,0.1400867292973673,9.771544906053949
1825000000.0,21.4,0.0,0.0,0.0,0.006376464551564645,0.13783060634530606,9.797247070896871
1830000000.0,21.4,0.0,0.0,0.0,0.013341742182217422,0.15696,9.806664564454445
1835000000.0,21.4,0.0,0.0,0.0,0.032765328714653284,0.15372266435732665,9.803427335642674
1840000000.0,21.4,0.0,0.0,0.0,0.022759235739792355,0.15028923573979236,9.813139235739794
1845000000.0,21.4,0.0,0.0,0.0,0.02638886416308864,0.15087772832617727,9.810686592489267
1850000000.0,21.4,0.0,0.0,0.0,0.028449107802091075,0.14322607186806072,9.79038
1855000000.0,21.4,0.0,0.0,0.0,0.04051519190655192,0.15411506396885064,9.796069872062299
1860000000.0,21.4,0.0,0.0,0.0,0.027860508384805083,0.1553905083848051,9.807253163871732
1865000000.0,21.4,0.0,0.0,0.0,0.038455055098450555,0.17393126377461263,9.80019
1870000000.0,21.4,0.0,0.0,0.0,0.02256318161253182,0.16932063632250635,9.805291272645013
1875000000.0,21.4,0.0,0.0,0.0,0.04904985432149855,0.16922239074112388,9.812452390741125
1880000000.0,21.4,0.0,0.0,0.0,0.021974436516744363,0.15185887303348874,9.79038
1885000000.0,21.4,0.0,0.0,0.0,0.02943,0.16451366338613663,9.792636336613864
1890000000.0,21.4,0.0,0.0,0.0,0.02943,0.16343471013294708,9.80019
1895000000.0,21.4,0.0,0.0,0.0,0.027369863191898634,0.18226972638379726,9.802250136808102
1900000000.0,21.4,0.0,0.0,0.0,0.02158203690522037,0.17069407381044074,9.811962036905221
1905000000.0,21.4,0.0,0.0,0.0,0.03315787400467874,0.18452606299766064,9.817946062997661
1910000000.0,21.4,0.0,0.0,0.0,0.040220814502708147,0.17128248870162488,9.81176583709946
1915000000.0,21.4,0.0,0.0,0.0,0.0,0.15048547439315474,9.816474525606846
1920000000.0,21.4,0.0,0.0,0.0,0.003139274587392746,0.16206108811891087,9.797050725412609
1925000000.0,21.4,0.0,0.0,0.0,0.021091537390815374,0.14028307478163074,9.78057
1930000000.0,21.4,0.0,0.0,0.0,0.030803437487934376,0.15833343748793435,9.78057
1935000000.0,21.4,0.0,0.0,0.0,0.03796466241494662,0.16677,9.784396012755161
1940000000.0,21.4,0.0,0.0,0.0,0.027075524635655247,0.16559276231782763,9.808822762317828
1945000000.0,21.4,0.0,0.0,0.0,0.010889137779291376,0.15696,9.801269137779292
1950000000.0,21.4,0.0,0.0,0.0,0.020601037876410377,0.15696,9.80901896212359
1955000000.0,21.4,0.0,0.0,0.0,0.02943,0.15607706202647062,9.798424124052941
1960000000.0,21.4,0.0,0.0,0.0,0.03021483807064838,0.14950451421194513,9.78057
1965000000.0,21.4,0.0,0.0,0.0,0.038553261832232615,0.17726673816776736,9.781943476335536
1970000000.0,21.4,0.0,0.0,0.0,0.02943,0.1858013617351136,9.799012723470227
1975000000.0,21.4,0.0,0.0,0.0,0.03041107672401077,0.1760894616379946,9.781060538362006
1980000000.0,21.4,0.0,0.0,0.0,0.04787268462262685,0.16598512308175123,9.789987561540876
1985000000.0,21.4,0.0,0.0,0.0,0.019325661443756612,0.14597264577502647,9.780864338556244
1990000000.0,21.4,0.0,0.0,0.0,0.010006238653362386,0.10849871596008717,9.790772477306726
1995000000.0,21.4,0.0,0.0,0.0,0.01962,0.13773255500192555,9.81
2000000000.0,21.4,0.0,0.0,0.0,0.01961996115239961,0.1765799611523996,9.8099999611524
2005000000.0,21.4,0.0,0.0,0.0,0.00990806105528061,0.16686806105528063,9.800288061055282
2010000000.0,21.4,0.0,0.0,0.0,0.038651517125515164,0.17638383904183838,9.790576160958162
2015000000.0,21.4,0.0,0.0,0.0,0.03924,0.1575485217220852,9.79038
2020000000.0,21.4,0.0,0.0,0.0,0.010987082291770825,0.15696,9.799797639236077
2025000000.0,21.4,0.0,0.0,0.0,0.00981,0.1383209213336092,9.790870460666806
2030000000.0,21.4,0.0,0.0,0.0,0.019031439430314392,0.1281185605696856,9.799601439430315
2035000000.0,21.4,0.0,0.0,0.0,0.028743339527433395,0.15490001858230018,9.809313339527433
2040000000.0,21.4,0.0,0.0,0.0,0.020404760375447605,0.1750104792491048,9.81
2045000000.0,21.4,0.0,0.0,0.0,0.03747427944334279,0.1676528602783286,9.81
2050000000.0,21.4,0.0,0.0,0.0,0.048069039818790404,0.1579409601812096,9.80117096018121
2055000000.0,21.4,0.0,0.0,0.0,0.0315881201681812,0.16569093991590939,9.791459060084092
2060000000.0,21.4,0.0,0.0,0.0,0.0380628400130284,0.1495043199739432,9.79901284001303
2065000000.0,21.4,0.0,0.0,0.0,0.022170519779705196,0.1642194802202948,9.774585779669557
2070000000.0,21.4,0.0,0.0,0.0,0.028056640207266403,0.18364328041453282,9.7960699206218
2075000000.0,21.4,0.0,0.0,0.0,0.0377685403043854,0.1697129193912292,9.80019
2080000000.0,21.4,0.0,0.0,0.0,0.030999559598495596,0.16677,9.80019
2085000000.0,21.4,0.0,0.0,0.0,0.013145319002753193,0.15862765950137658,9.783905319002754
2090000000.0,21.4,0.0,0.0,0.0,0.03394272178722721,0.14087151880851517,9.796658481191486
2095000000.0,21.4,0.0,0.0,0.0,0.023347718614277185,0.1532322813857228,9.776351577921416
2100000000.0,21.4,0.0,0.0,0.0,0.01177195921001959,0.1648080407899804,9.786456081579962
2105000000.0,21.4,0.0,0.0,0.0,0.04080976354839763,0.15902005911290057,9.782630059112902
2110000000.0,21.4,0.0,0.0,0.0,0.04139815901578159,0.1646118409842184,9.803525522952656
2115000000.0,21.4,0.0,0.0,0.0,0.024132517837325174,0.15166251783732518,9.78733877675599
2120000000.0,21.4,0.0,0.0,0.0,0.01962,0.13969435882154357,9.788025641178457
2125000000.0,21.4,0.0,0.0,0.0,0.004904917448849173,0.15941262382672625,9.79038
2130000000.0,21.4,0.0,0.0,0.0,0.021778324118083243,0.15951055862730557,9.79038
2135000000.0,21.4,0.0,0.0,0.0,0.015107317060373172,0.1712826829396268,9.804702682939627
2140000000.0,21.4,0.0,0.0,0.0,0.016873241566932415,0.16951675843306757,9.817063241566933
2145000000.0,21.4,0.0,0.0,0.0,0.01962,0.16677,9.812844858335948
2150000000.0,21.4,0.0,0.0,0.0,0.026487041761170418,0.15303591647765916,9.79626591647766
2155000000.0,21.4,0.0,0.0,0.0,0.009123174425131747,0.15391894185828942,9.79038
2160000000.0,21.4,0.0,0.0,0.0,0.026683367821633677,0.1502891580445916,9.783709158044593
2165000000.0,21.4,0.0,0.0,0.0,0.03266725794747258,0.16029548410505484,9.80686096821011
2170000000.0,21.4,0.0,0.0,0.0,0.02943,0.16029535785035356,9.813335357850354
2175000000.0,21.4,0.0,0.0,0.0,0.04855962674029627,0.15696,9.816376542246767
2180000000.0,21.4,0.0,0.0,0.0,0.04630311531223115,0.15696,9.800974672968348
2185000000.0,21.4,0.0,0.0,0.0,0.03924,0.16314034244100342,9.79038
2190000000.0,21.4,0.0,0.0,0.0,0.04532224253812243,0.1424410298475103,9.79038
2195000000.0,21.4,0.0,0.0,0.0,0.04306585736475857,0.14548242790572427,9.79038
2200000000.0,21.4,0.0,0.0,0.0,0.03924,0.16284604273236042,9.813924170929441
2205000000.0,21.4,0.0,0.0,0.0,0.016088228682082283,0.16677,9.818044114341042
2210000000.0,21.4,0.0,0.0,0.0,0.02275937170639372,0.1724598429265984,9.804310157073402
2215000000.0,21.4,0.0,0.0,0.0,0.03364825697628257,0.1598047709288477,9.789006513952566
2220000000.0,21.4,0.0,0.0,0.0,0.023936356879163567,0.15813728624167286,9.786063643120837
2225000000.0,21.4,0.0,0.0,0.0,0.025015543217955433,0.16137445678204457,9.784984456782045
2230000000.0,21.4,0.0,0.0,0.0,0.018835113369851136,0.1728523299452233,9.796462329945223
2235000000.0,21.4,0.0,0.0,0.0,0.015009343412193434,0.1707919697634197,9.799601313175614
2240000000.0,21.4,0.0,0.0,0.0,0.029822487018624867,0.15185875649068756,9.800582487018625
2245000000.0,21.4,0.0,0.0,0.0,0.03423685639356856,0.13714371278713713,9.81
2250000000.0,21.4,0.0,0.0,0.0,0.02943,0.15696026222130263,9.80509495629645
2255000000.0,21.4,0.0,0.0,0.0,0.024623056199330563,0.18158305619933054,9.790576112398663
2260000000.0,21.4,0.0,0.0,0.0,0.024328843897788437,0.18128884389778843,9.789987687795577
2265000000.0,21.4,0.0,0.0,0.0,0.03404074399490744,0.17255776801527767,9.795579256005093
2270000000.0,21.4,0.0,0.0,0.0,0.03924,0.16147264409202644,9.794892644092027
2275000000.0,21.4,0.0,0.0,0.0,0.03924,0.17118454418914544,9.813433632567437
2280000000.0,21.4,0.0,0.0,0.0,0.030607111427471113,0.1593142228549422,9.812354222854943
2285000000.0,21.4,0.0,0.0,0.0,0.028056688766766886,0.13312165561661654,9.794598344383385
2290000000.0,21.4,0.0,0.0,0.0,0.030999511038995106,0.13577048896100488,9.796069755519499
2295000000.0,21.4,0.0,0.0,0.0,0.015597855422378553,0.14312785542237855,9.794402144577623
2300000000.0,21.4,0.0,0.0,0.0,0.01765808934948089,0.14518808934948088,9.80411404467474
2305000000.0,21.4,0.0,0.0,0.0,0.03325594477185945,0.1646118895437189,9.80617405522814
2310000000.0,21.4,0.0,0.0,0.0,0.03551215513102155,0.16912431026204308,9.796462155131023
2315000000.0,21.4,0.0,0.0,0.0,0.022170510067805103,0.14970051006780508,9.79038
2320000000.0,21.4,0.0,0.0,0.0,0.0168732901264329,0.13734,9.786848354936785
2325000000.0,21.4,0.0,0.0,0.0,0.02599645483966455,0.14077354516033544,9.787437090320672
2330000000.0,21.4,0.0,0.0,0.0,0.026290890514908904,0.14381455474254554,9.803525445257455
2335000000.0,21.4,0.0,0.0,0.0,0.026290618581706185,0.1438146907091469,9.813237345354574
2340000000.0,21.4,0.0,0.0,0.0,0.012556981806769818,0.1632384909033849,9.813531509096615
2345000000.0,21.4,0.0,0.0,0.0,0.033157708902377084,0.16745656335356562,9.80019
2350000000.0,21.4,0.0,0.0,0.0,0.01962,0.15009304564593046,9.80019
2355000000.0,21.4,0.0,0.0,0.0,0.025309891486098912,0.15411505425695055,9.80303494574305
2360000000.0,21.4,0.0,0.0,0.0,0.03924,0.14165630831966308,9.815493691680338
2365000000.0,21.4,0.0,0.0,0.0,0.033942508125425076,0.13017874593728745,9.826971254062713
2370000000.0,21.4,0.0,0.0,0.0,0.02217064603440646,0.1424412920688129,9.817259353965595
2375000000.0,21.4,0.0,0.0,0.0,0.02943,0.15205490773694907,9.807547453868475
2380000000.0,21.4,0.0,0.0,0.0,0.02943,0.14440333868593339,9.802544446228644
2385000000.0,21.4,0.0,0.0,0.0,0.027173653674236537,0.17128269265152693,9.807743653674237
2390000000.0,21.4,0.0,0.0,0.0,0.021778246422882463,0.18207350715423506,9.798031753577119
2395000000.0,21.4,0.0,0.0,0.0,0.02530970695999707,0.16264970695999706,9.792440146520002
2400000000.0,21.4,0.0,0.0,0.0,0.013734093234240932,0.14911204661712046,9.80215204661712
2405000000.0,21.4,0.0,0.0,0.0,0.03129394671423947,0.15882394671423947,9.806272106571521
2410000000.0,21.4,0.0,0.0,0.0,0.03570830637728306,0.16500415318864153,9.79038
2415000000.0,21.4,0.0,0.0,0.0,0.024623240725432406,0.15529225309152253,9.788712253091523
2420000000.0,21.4,0.0,0.0,0.0,0.047480352994403535,0.14871964700559648,9.782139647005597
2425000000.0,21.4,0.0,0.0,0.0,0.037768452897284525,0.15696,9.79038
2430000000.0,21.4,0.0,0.0,0.0,0.02805655280016553,0.15833344719983447,9.79312689439967
2435000000.0,21.4,0.0,0.0,0.0,0.018344652703046527,0.16549465270304653,9.812550694593908
2440000000.0,21.4,0.0,0.0,0.0,0.01334174218221742,0.15931449478814494,9.826088257817784
2445000000.0,21.4,0.0,0.0,0.0,0.036002557526425574,0.1722634100352341,9.80019
2450000000.0,21.4,0.0,0.0,0.0,0.008828952411689524,0.13635895241168952,9.80019
2455000000.0,21.4,0.0,0.0,0.0,0.0026488430562884306,0.13017884305628843,9.80107294768543
2460000000.0,21.4,0.0,0.0,0.0,0.027860304434903047,0.15539030443490304,9.808430304434903
2465000000.0,21.4,0.0,0.0,0.0,0.011870243639002435,0.13802674787966748,9.791753495759336
2470000000.0,21.4,0.0,0.0,0.0,0.03806270404642704,0.15009323988393242,9.809411352023215
2475000000.0,21.4,0.0,0.0,0.0,0.02060109614781096,0.19472835577828357,9.799699451926095
2480000000.0,21.4,0.0,0.0,0.0,0.038062655486926555,0.16677,9.79116489634205
2485000000.0,21.4,0.0,0.0,0.0,0.009515651731856516,0.16588695519556956,9.809705651731857
2490000000.0,21.4,0.0,0.0,0.0,0.00039249673052496733,0.13734,9.800386248365264
2495000000.0,21.4,0.0,0.0,0.0,0.01962,0.13763444538714445,9.809803703075238
2500000000.0,21.4,0.0,0.0,0.0,0.019620048559500485,0.16677,9.790379902881
2505000000.0,21.4,0.0,0.0,0.0,0.029331948656619488,0.16677,9.77095610268676
2510000000.0,21.4,0.0,0.0,0.0,0.02943,0.16677,9.78037384875374
2515000000.0,21.4,0.0,0.0,0.0,0.02943,0.16677,9.790085748850858
2520000000.0,21.4,0.0,0.0,0.0,0.03884764894797649,0.12909940420809404,9.81863294684393
2525000000.0,21.4,0.0,0.0,0.0,0.020600901909809018,0.146169098090191,9.791851352864715
2530000000.0,21.4,0.0,0.0,0.0,0.010398550857785507,0.128707101715571,9.799601449142216
2535000000.0,21.4,0.0,0.0,0.0,0.018933349239333493,0.13665334923933348,9.809313349239334
2540000000.0,21.4,0.0,0.0,0.0,0.028645249336452495,0.1644157480093575,9.828050498672905
2545000000.0,21.4,0.0,0.0,0.0,0.03835714943357149,0.16677,9.77605710339857
2550000000.0,21.4,0.0,0.0,0.0,0.03924,0.17559904953069047,9.77076
2555000000.0,21.4,0.0,0.0,0.0,0.0479709496278095,0.15038715111657153,9.77949094962781
2560000000.0,21.4,0.0,0.0,0.0,0.04905,0.14715,9.806468549174786
2565000000.0,21.4,0.0,0.0,0.0,0.03198050035590501,0.14715,9.827069499644095
2570000000.0,21.4,0.0,0.0,0.0,0.012556700161667003,0.14715,9.812746700161668
2575000000.0,21.4,0.0,0.0,0.0,0.0181485500162855,0.163827100032571,9.801661449983715
2580000000.0,21.4,0.0,0.0,0.0,0.027860450113404503,0.16677,9.808430450113406
2585000000.0,21.4,0.0,0.0,0.0,0.0375723502105235,0.17491235021052348,9.785572949368431
2590000000.0,21.4,0.0,0.0,0.0,0.03924,0.17658,9.788614250307644
2595000000.0,21.4,0.0,0.0,0.0,0.023347699190476988,0.17658,9.798326150404762
2600000000.0,21.4,0.0,0.0,0.0,0.01962,0.16873194949811948,9.78449389899624
2605000000.0,21.4,0.0,0.0,0.0,0.03511990119799901,0.18226990119799902,9.803819851797
2610000000.0,21.4,0.0,0.0,0.0,0.02393629860776298,0.1787381493038815,9.81765185069612
2615000000.0,21.4,0.0,0.0,0.0,0.01962,0.15391874762028748,9.797148747620287
2620000000.0,21.4,0.0,0.0,0.0,0.01216434910964349,0.14715,9.797835650890358
2625000000.0,21.4,0.0,0.0,0.0,0.031882652962426525,0.1545075509874755,9.792832449012526
2630000000.0,21.4,0.0,0.0,0.0,0.03924,0.1497005489154055,9.797639451084596
2635000000.0,21.4,0.0,0.0,0.0,0.017755946454859464,0.18295675590856758,9.80019
2640000000.0,21.4,0.0,0.0,0.0,0.00981,0.16794699488466994,9.807253251278834
2645000000.0,21.4,0.0,0.0,0.0,0.023740302751903027,0.15696,9.81
2650000000.0,21.4,0.0,0.0,0.0,0.015695897053858973,0.15009294852692948,9.81
2655000000.0,21.4,0.0,0.0,0.0,0.030116854710568543,0.14038104842981047,9.803231048429812
2660000000.0,21.4,0.0,0.0,0.0,0.01255659333076593,0.13734,9.80019
2665000000.0,21.4,0.0,0.0,0.0,0.0,0.15048550352885504,9.80019
2670000000.0,21.4,0.0,0.0,0.0,0.025898607446186075,0.16343465186154651,9.793715348138454
2675000000.0,21.4,0.0,0.0,0.0,0.03286344804133448,0.16677,9.796756551958666
2680000000.0,21.4,0.0,0.0,0.0,0.02943,0.15421309588843096,9.80019
2685000000.0,21.4,0.0,0.0,0.0,0.02943,0.15951070430580705,9.80019
2690000000.0,21.4,0.0,0.0,0.0,0.017265495499954958,0.17285225225002251,9.806272252250023
2695000000.0,21.4,0.0,0.0,0.0,0.003825847652858476,0.1526433906114339,9.821968304694284
2700000000.0,21.4,0.0,0.0,0.0,0.011772104888521049,0.14911210488852103,9.817847895111479
2705000000.0,21.4,0.0,0.0,0.0,0.025407952541379526,0.16274795254137953,9.804212047458622
2710000000.0,21.4,0.0,0.0,0.0,0.02943,0.16108014736150147,9.80019
2715000000.0,21.4,0.0,0.0,0.0,0.02943,0.1793270109424701,9.789006494528765
2720000000.0,21.4,0.0,0.0,0.0,0.034923652832736525,0.19070634716726348,9.786063652832738
2725000000.0,21.4,0.0,0.0,0.0,0.03384444707014447,0.17559889414028895,9.801171105859712
2730000000.0,21.4,0.0,0.0,0.0,0.02413254697302547,0.15617509394605095,9.81
2735000000.0,21.4,0.0,0.0,0.0,0.01962,0.15234935312409353,9.81
2740000000.0,21.4,0.0,0.0,0.0,0.024721253221212533,0.16206125322121254,9.81
2745000000.0,21.4,0.0,0.0,0.0,0.014420540045005401,0.16176684668166846,9.81
2750000000.0,21.4,0.0,0.0,0.0,0.004905053415450535,0.16186505341545052,9.785474732922747
2755000000.0,21.4,0.0,0.0,0.0,0.01942390702513907,0.16196304648743046,9.770563907025139
2760000000.0,21.4,0.0,0.0,0.0,0.038847707219377074,0.15696,9.78527885360969
2765000000.0,21.4,0.0,0.0,0.0,0.044439246293192465,0.15696,9.794990753706807
2770000000.0,21.4,0.0,0.0,0.0,0.03021469239214692,0.15244734619607345,9.809215307607854
2775000000.0,21.4,0.0,0.0,0.0,0.024034553901045537,0.14273544609895447,9.815395446098956
2780000000.0,21.4,0.0,0.0,0.0,0.02943,0.14597290799632906,9.81
2785000000.0,21.4,0.0,0.0,0.0,0.02521164590471646,0.16539670819056707,9.801563291809433
2790000000.0,21.4,0.0,0.0,0.0,0.02374025419240254,0.1683394916151949,9.786259745807598
2795000000.0,21.4,0.0,0.0,0.0,0.03747430857904309,0.16500430857904308,9.78057
2800000000.0,21.4,0.0,0.0,0.0,0.04120189122671891,0.1687318912267189,9.78057
2805000000.0,21.4,0.0,0.0,0.0,0.025604045516240456,0.14548213654872136,9.792047863451279
2810000000.0,21.4,0.0,0.0,0.0,0.03080356374263564,0.1349857091617571,9.81
2815000000.0,21.4,0.0,0.0,0.0,0.03816073596600736,0.14715,9.813629754677997
2820000000.0,21.4,0.0,0.0,0.0,0.023151654775116548,0.14361834522488345,9.812746690449767
2825000000.0,21.4,0.0,0.0,0.0,0.03286355487223555,0.14077355487223553,9.80019
2830000000.0,21.4,0.0,0.0,0.0,0.02923363509193635,0.15048545496935456,9.80019
2835000000.0,21.4,0.0,0.0,0.0,0.0162847101329471,0.16343471013294708,9.796952644933526
2840000000.0,21.4,0.0,0.0,0.0,0.02943,0.17344074483640745,9.79038
2845000000.0,21.4,0.0,0.0,0.0,0.03247115526071155,0.16981115526071155,9.796462310521424
2850000000.0,21.4,0.0,0.0,0.0,0.042183055357830554,0.16775083392650833,9.81
2855000000.0,21.4,0.0,0.0,0.0,0.04620504454505045,0.14430504454505044,9.80715504454505
2860000000.0,21.4,0.0,0.0,0.0,0.03649314444793144,0.13734,9.80019
2865000000.0,21.4,0.0,0.0,0.0,0.026781244350812444,0.1426375112983751,9.802838755649189
2870000000.0,21.4,0.0,0.0,0.0,0.01706934425369344,0.15696,9.807449344253694
2875000000.0,21.4,0.0,0.0,0.0,0.012262555843425558,0.1618651116868511,9.797737444156574
2880000000.0,21.4,0.0,0.0,0.0,0.02197445594054456,0.17422554405945542,9.792734455940545
2885000000.0,21.4,0.0,0.0,0.0,0.02717364396233644,0.1622572879246729,9.804702712075327
2890000000.0,21.4,0.0,0.0,0.0,0.015303487730434877,0.14499174386521743,9.81117697546087
2895000000.0,21.4,0.0,0.0,0.0,0.006180468695704687,0.13940015623190155,9.786750468695706
2900000000.0,21.4,0.0,0.0,0.0,0.02943,0.15107411265804113,9.80803794367098
2905000000.0,21.4,0.0,0.0,0.0,0.025702087147720872,0.16677,9.80205395642614
2910000000.0,21.4,0.0,0.0,0.0,0.01687342609303426,0.16323828695348286,9.81
2915000000.0,21.4,0.0,0.0,0.0,0.047382243379622435,0.14715,9.808332243379622
2920000000.0,21.4,0.0,0.0,0.0,0.042379313434993134,0.15028931343499313,9.798620343282504
2925000000.0,21.4,0.0,0.0,0.0,0.055916886370768866,0.16382688637076886,9.79038
2930000000.0,21.4,0.0,0.0,0.0,0.03511962926479629,0.14852345691173457,9.791753456911735
2935000000.0,21.4,0.0,0.0,0.0,0.01108535700885357,0.15696,9.802740714017707
2940000000.0,21.4,0.0,0.0,0.0,0.02079725710597257,0.15460548578805486,9.81981
2945000000.0,21.4,0.0,0.0,0.0,0.027271685593816857,0.1405774716092747,9.818730842796908
2950000000.0,21.4,0.0,0.0,0.0,0.010791057300210571,0.16578894269978942,9.80803788539958
2955000000.0,21.4,0.0,0.0,0.0,0.01962,0.15784295739732956,9.79038
2960000000.0,21.4,0.0,0.0,0.0,0.018835142505551423,0.16520028501110284,9.791164857494449
2965000000.0,21.4,0.0,0.0,0.0,0.00981,0.14852351518313517,9.800876757591569
2970000000.0,21.4,0.0,0.0,0.0,0.010398657688686577,0.16677,9.810588657688687
2975000000.0,21.4,0.0,0.0,0.0,0.01912944221419442,0.16677,9.81981
2980000000.0,21.4,0.0,0.0,0.0,0.00981,0.16716245788292458,9.819417542117076
2985000000.0,21.4,0.0,0.0,0.0,0.010398715960087158,0.17599128403991282,9.81
2990000000.0,21.4,0.0,0.0,0.0,0.02943,0.15696,9.80921496769135
2995000000.0,21.4,0.0,0.0,0.0,0.029528158174281584,0.15715631634856314,9.771054474522844
3000000000.0,21.4,0.0,0.0,0.0,0.03924,0.17658,9.8001900582714
3005000000.0,21.4,0.0,0.0,0.0,0.03924,0.17658,9.80990195836852
3010000000.0,21.4,0.0,0.0,0.0,0.0007845661374456595,0.15735228306872281,9.81
3015000000.0,21.4,0.0,0.0,0.0,0.02854727568827276,0.1379284828744848,9.819515758562758
3020000000.0,21.4,0.0,0.0,0.0,0.02001234134012341,0.15617531731975315,9.800974682680247
3025000000.0,21.4,0.0,0.0,0.0,0.03825911751399118,0.13832088248600882,9.80019
3030000000.0,21.4,0.0,0.0,0.0,0.02079708229177082,0.12811854114588542,9.790968541145887
3035000000.0,21.4,0.0,0.0,0.0,0.02874335895123359,0.17314679475616793,9.799503358951235
3040000000.0,21.4,0.0,0.0,0.0,0.02040474095164741,0.17658,9.809215259048353
3045000000.0,21.4,0.0,0.0,0.0,0.01962,0.17658,9.792145681709057
3050000000.0,21.4,0.0,0.0,0.0,0.037278118485181186,0.15009282227222823,9.79920905924259
3055000000.0,21.4,0.0,0.0,0.0,0.030509040660290407,0.12095712198087122,9.80019
3060000000.0,21.4,0.0,0.0,0.0,0.0035314216895142164,0.1263528594368286,9.791557140563173
3065000000.0,21.4,0.0,0.0,0.0,0.025604278601842785,0.1445995190678952,9.815984278601844
3070000000.0,21.4,0.0,0.0,0.0,0.04630331926213319,0.15558665963106658,9.811373340368934
3075000000.0,21.4,0.0,0.0,0.0,0.024034320815443207,0.1652985597281856,9.801661440271815
3080000000.0,21.4,0.0,0.0,0.0,0.0278604598253046,0.1914913794759138,9.808430459825304
3085000000.0,21.4,0.0,0.0,0.0,0.037572359922423595,0.17177292023272922,9.78557292023273
3090000000.0,21.4,0.0,0.0,0.0,0.03924,0.1506814799609148,9.772525739980457
3095000000.0,21.4,0.0,0.0,0.0,0.0312938398833384,0.1392038398833384,9.786652320233324
3100000000.0,21.4,0.0,0.0,0.0,0.0372780602137806,0.13734,9.806076120427562
3105000000.0,21.4,0.0,0.0,0.0,0.01599011906730119,0.1450899603108996,9.81
3110000000.0,21.4,0.0,0.0,0.0,0.032765581224055804,0.14715,9.81
3115000000.0,21.4,0.0,0.0,0.0,0.03168623949486239,0.1622575210102752,9.81
3120000000.0,21.4,0.0,0.0,0.0,0.036885660602256606,0.1593143393977434,9.787633018193231
3125000000.0,21.4,0.0,0.0,0.0,0.024524878601248783,0.16431756069937561,9.787927560699377
3130000000.0,21.4,0.0,0.0,0.0,0.026879460796494607,0.15951053920350539,9.79038
3135000000.0,21.4,0.0,0.0,0.0,0.03659136089361361,0.15696,9.79038
3140000000.0,21.4,0.0,0.0,0.0,0.010986956037069558,0.15696,9.818633043962931
3145000000.0,21.4,0.0,0.0,0.0,0.0,0.15696,9.82962
3150000000.0,21.4,0.0,0.0,0.0,0.0,0.15696,9.815885877630059
3155000000.0,21.4,0.0,0.0,0.0,0.02707584512835845,0.15696,9.81
3160000000.0,21.4,0.0,0.0,0.0,0.025898277241582772,0.1636308613792086,9.796658277241583
3165000000.0,21.4,0.0,0.0,0.0,0.01962,0.16019723852367238,9.810098284428983
3170000000.0,21.4,0.0,0.0,0.0,0.03256932314689323,0.1634346615734466,9.813335338426555
3175000000.0,21.4,0.0,0.0,0.0,0.032863438329434384,0.15401687665886876,9.816376561670566
3180000000.0,21.4,0.0,0.0,0.0,0.035708461767684614,0.15970692353536925,9.813531538232317
3185000000.0,21.4,0.0,0.0,0.0,0.03924,0.14822891440558914,9.816180361864804
3190000000.0,21.4,0.0,0.0,0.0,0.03924,0.14950452392384522,9.801563214114232
3195000000.0,21.4,0.0,0.0,0.0,0.03924,0.13900751382287513,9.796364162059042
3200000000.0,21.4,0.0,0.0,0.0,0.027467875687678753,0.1510742486246425,9.806076062156162
3205000000.0,21.4,0.0,0.0,0.0,0.013832037746720375,0.16677,9.792636113240162
3210000000.0,21.4,0.0,0.0,0.0,0.026879587051195867,0.16677,9.803329449401595
3215000000.0,21.4,0.0,0.0,0.0,0.03364823755248238,0.14999471265744713,9.825401762447518
3220000000.0,21.4,0.0,0.0,0.0,0.02943,0.15382098763390986,9.807645349821454
3225000000.0,21.4,0.0,0.0,0.0,0.024034437358244374,0.1505833120747331,9.801171125283512
3230000000.0,21.4,0.0,0.0,0.0,0.024917462738874626,0.13204253726112536,9.799405074522252
3235000000.0,21.4,0.0,0.0,0.0,0.034629362835993625,0.14312808850798087,9.79038
3240000000.0,21.4,0.0,0.0,0.0,0.03924,0.16206126293311263,9.795481262933114
3245000000.0,21.4,0.0,0.0,0.0,0.029233673939536735,0.16677,9.805193163030232
3250000000.0,21.4,0.0,0.0,0.0,0.01962,0.17167506312735062,9.81
3255000000.0,21.4,0.0,0.0,0.0,0.01962,0.1621591103265911,9.800386073551062
3260000000.0,21.4,0.0,0.0,0.0,0.024328863321588633,0.14244113667841135,9.799797726643177
3265000000.0,21.4,0.0,0.0,0.0,0.024819236581292366,0.13734,9.805389236581293
3270000000.0,21.4,0.0,0.0,0.0,0.015107336484173364,0.1508779905474799,9.804702663515828
3275000000.0,21.4,0.0,0.0,0.0,0.01863912722589127,0.17559912722589127,9.805585436387055
3280000000.0,21.4,0.0,0.0,0.0,0.025113536289935363,0.17775707257987072,9.804506463710066
3285000000.0,21.4,0.0,0.0,0.0,0.03649345522873455,0.16677,9.801563272385634
3290000000.0,21.4,0.0,0.0,0.0,0.054739736095697364,0.16677,9.794500263904304
3295000000.0,21.4,0.0,0.0,0.0,0.03698350799573508,0.15470350799573507,9.808234328002843
3300000000.0,21.4,0.0,0.0,0.0,0.02354406409854064,0.13341593590145936,9.81588593590146
3305000000.0,21.4,0.0,0.0,0.0,0.02943,0.13900789258697893,9.81
3310000000.0,21.4,0.0,0.0,0.0,0.033157864292778644,0.15323213570722136,9.817455728585557
3315000000.0,21.4,0.0,0.0,0.0,0.03924,0.14715,9.822360471220206
3320000000.0,21.4,0.0,0.0,0.0,0.04277166448701664,0.15068166448701664,9.81
3325000000.0,21.4,0.0,0.0,0.0,0.04218287083172871,0.15696,9.80313287083173
3330000000.0,21.4,0.0,0.0,0.0,0.02275907063749071,0.16029546468125463,9.787044535318746
3335000000.0,21.4,0.0,0.0,0.0,0.016284729556747295,0.15705790566487907,9.783807364778374
3340000000.0,21.4,0.0,0.0,0.0,0.02943,0.14047926487549264,9.799797794626478
3345000000.0,21.4,0.0,0.0,0.0,0.02943,0.14715,9.81676883502739
3350000000.0,21.4,0.0,0.0,0.0,0.02648693493026935,0.1530361301394613,9.81
3355000000.0,21.4,0.0,0.0,0.0,0.022464965166849652,0.1610800696663007,9.807155034833151
3360000000.0,21.4,0.0,0.0,0.0,0.02943,0.14989686526396864,9.80019
3365000000.0,21.4,0.0,0.0,0.0,0.026781234638912348,0.1622575307221753,9.80019
3370000000.0,21.4,0.0,0.0,0.0,0.01962,0.17658,9.802740665458208
3375000000.0,21.4,0.0,0.0,0.0,0.02452513111065131,0.1716748688893487,9.807547434444675
3380000000.0,21.4,0.0,0.0,0.0,0.02982213739022137,0.15696,9.802544465652446
3385000000.0,21.4,0.0,0.0,0.0,0.0022563657495636574,0.15696,9.81
3390000000.0,21.4,0.0,0.0,0.0,0.007651734153317341,0.14832693661326934,9.807841734153318
3395000000.0,21.4,0.0,0.0,0.0,0.004120331887603319,0.12596066377520665,9.802250165943802
3400000000.0,21.4,0.0,0.0,0.0,0.015695867918158676,0.15892206604092066,9.806075867918159
3405000000.0,21.4,0.0,0.0,0.0,0.007455864552158646,0.17236189841411897,9.79038
3410000000.0,21.4,0.0,0.0,0.0,0.04630346494063465,0.19443413376484134,9.793911732470319
3415000000.0,21.4,0.0,0.0,0.0,0.07180893467088934,0.18472223366772234,9.808332233667723
3420000000.0,21.4,0.0,0.0,0.0,0.03924,0.17187100071181,9.801759666429398
3425000000.0,21.4,0.0,0.0,0.0,0.034825300420453,0.14420686694696866,9.81
3430000000.0,21.4,0.0,0.0,0.0,0.012556933247269333,0.12753,9.81
3435000000.0,21.4,0.0,0.0,0.0,0.028154633279246333,0.12625463327924633,9.807449266558493
3440000000.0,21.4,0.0,0.0,0.0,0.01726546636425466,0.12360633408936335,9.79038
3445000000.0,21.4,0.0,0.0,0.0,0.0010791669149916691,0.1710866676599667,9.792538333829985
3450000000.0,21.4,0.0,0.0,0.0,0.012753201036332009,0.20601,9.81
3455000000.0,21.4,0.0,0.0,0.0,0.04100593421845934,0.20601,9.81
3460000000.0,21.4,0.0,0.0,0.0,0.05729026558730266,0.19894619514286194,9.808430265587303
3465000000.0,21.4,0.0,0.0,0.0,0.03924,0.11634646539306466,9.789006465393065
3470000000.0,21.4,0.0,0.0,0.0,0.03865133259941332,0.09692266519882665,9.77252600220176
3475000000.0,21.4,0.0,0.0,0.0,0.028939432502294325,0.07995170249311702,9.800680567497706
3480000000.0,21.4,0.0002555602177134494,0.00021296684809454252,0.0,0.018835064810350646,0.11065727316377273,9.8115698703793
3485000000.0,21.4,0.006419851934020985,0.005259360475139126,0.0,0.0008831030758310308,0.17687436769194367,9.84835689692417
3490000000.0,21.4,0.007388654784541707,0.0030448499143769492,0.0,0.029037464421874645,0.18658626778906268,9.819221196632812
3495000000.0,21.4,0.004247949498938557,-0.0042159878711559295,0.0,0.010006335772363357,0.19610183211381835,9.790183664227637
3500000000.0,21.4,0.003193893506906234,-7.378030420735649e-09,0.0,0.02943013596660136,0.18638979605009795,9.77076
3505000000.0,21.4,-0.00523814125964909,-0.0010540117238497992,0.0,0.04885393616083936,0.15725409575874094,9.77076
3510000000.0,21.4,-0.0042798889926299235,-0.0010646508437165,0.0,0.020208395467383955,0.13773226364492264,9.799601604532617
3515000000.0,21.4,-0.005291322102921753,-0.0010646508437165,0.0,0.010104231725342316,0.12782423172534232,9.809705768274657
3520000000.0,21.4,-0.00021289306779033543,-0.0020867230738749343,0.0,0.03806300511533005,0.12753,9.81
3525000000.0,21.4,0.001011425732261313,-0.00010645022291037387,0.0,0.001961726124417258,0.13684956846889568,9.81
3530000000.0,21.4,0.004066988546809168,0.0,0.0,0.027664405698044056,0.13734,9.800778531433986
3535000000.0,21.4,0.000298072428997727,0.00198026547293414,0.0,0.02943,0.15558673732626738,9.80019
3540000000.0,21.4,0.001958972477139897,0.0011498154488630515,0.0,0.002354193719241938,0.16598526876025269,9.773114193719241
3545000000.0,21.4,0.0001916222060873462,9.58111030436731e-05,0.0,0.026781506572115067,0.15784283114262831,9.82432301314423
3550000000.0,21.4,-0.0009581932427757053,-0.0028745797283272058,0.0,0.002942793136527934,0.19227627581796278,9.81196186209102
3555000000.0,21.4,-0.00011710409883791619,-0.00603659276578544,0.0,0.02619290715482907,0.17000709284517093,9.818730969051611
3560000000.0,21.4,0.0009369002469814623,-0.0026403040743731743,0.0,0.03806286914872869,0.14087139255381392,9.811177130851272
3565000000.0,21.4,-0.0007878566544521814,0.0015757133089043629,0.0,0.03924,0.12880523075415232,9.792930461508305
3570000000.0,21.4,-0.004727079848465549,0.004876123440994829,0.0,0.030803330657033307,0.11065666131406662,9.79038
3575000000.0,21.4,0.00010651030115805486,0.007133175725162895,0.0,0.004414291679742919,0.14960284720042846,9.807057138880172
3580000000.0,21.4,0.004641907865288572,0.022670559137129603,0.0,-0.024721408611614086,0.03335295694192955,9.867683286760432
3585000000.0,21.4,2.1247673607407112e-05,0.06534860898571215,0.0,-0.19227739268647392,0.06680658744026588,9.821673412559734
3590000000.0,21.4,0.008538583011869891,0.11193737387168262,0.0,-0.4830466314061664,0.1026128091943281,9.81
3595000000.0,21.4,0.01928439334535724,0.11175161089303245,0.0,-0.6507963775998639,0.15558701897137017,9.833838509485686
3600000000.0,21.4,0.01533440956179604,0.07222488094863844,0.0,-0.7161303496284035,0.1432257902229579,9.768797370668873
3605000000.0,21.4,0.011317215670592816,0.003946006299456566,0.0,-0.7491899100683991,0.24583958031919578,9.782139880091199
3610000000.0,21.4,0.008985637901144828,-0.07071290438836628,0.0,-0.7247625195203252,0.5884066749166669,9.6679500780813
3615000000.0,21.4,0.010156784289958629,-0.14148666621011605,0.0,-0.3686565700162657,0.7373201617363017,9.829818025642979
3620000000.0,21.4,-0.0039180524627232,-0.2232359092643867,0.0,0.24211558136265582,0.8448380437698805,10.030137735968978
3625000000.0,21.4,-0.07163764320490926,-0.23436272025942043,0.003992478871594561,1.049676196192262,0.5272841906700418,9.949791303008313
3630000000.0,21.4,-0.08952558617521168,-0.2185503554419917,-0.001767389269213368,1.3090468230503682,0.10712223864742237,9.487050710513106
3635000000.0,21.4,-0.11407881262650292,-0.12468770898770279,0.0042906271889051485,1.5033842651378426,-0.29361619482606194,9.482347412110274
3640000000.0,21.4,-0.11283752311241282,-0.012606769546930088,-0.00021300690025969054,1.428334585947346,-0.4799059777289598,9.514130187892103
3645000000.0,21.4,-0.07915893377537768,0.10585162028703574,-0.003949862313879996,1.2201662424054625,-0.5449458539987586,9.888974393986343
3650000000.0,21.4,-0.041011477339117364,0.20730565003492707,0.00021297633413361675,0.7592898879814989,-0.4698980783406808,10.155313134349932
3655000000.0,21.4,0.004723397865710424,0.26849726111178973,-0.0015437822472478334,0.1824617403606174,-0.35041234807212346,10.134710290060104
3660000000.0,21.4,0.052112380406246855,0.27394259030377155,-0.0024699822421105004,-0.3602270389198704,-0.2538821601800216,9.830794285264544
3665000000.0,21.4,0.08067275560352037,0.21883267242396176,-0.0007026541051491802,-0.7860780763408808,-0.1270384321765843,9.748099398317594
3670000000.0,21.4,0.1007161169338569,0.10950382092259522,-0.0014053545864895767,-1.0482980969922808,0.02511474056554741,9.654215916863759
3675000000.0,21.4,0.10829157918079807,-0.0031938549407144745,-0.0014372708920853332,-1.1310931427649313,0.19963485626684857,9.683451999354519
3680000000.0,21.4,0.11820357939347492,-0.08343490679628779,-0.0010646508437165,-1.0123905704083058,0.7169199465300995,9.718963057040831
3685000000.0,21.4,0.12021562204343125,-0.12773267807368585,0.00027682475539034745,-0.6451021643182218,1.168961890454519,9.891130775724408
3690000000.0,21.4,0.05616501096028217,-0.13492506670899262,0.0004045595420601978,-0.23367140472091402,1.2607809133047092,10.197104965236148
3695000000.0,21.4,-0.022830444909510382,-0.11324197184578666,0.0,0.09721932489919326,0.611547792280178,9.65587693342547
3700000000.0,21.4,-0.06754446836937594,-0.08265856705725594,0.0006387983058620591,0.10987070637490706,0.08240249077072491,9.195893568791638
3705000000.0,21.4,-0.10189678400569645,-0.0420247333412859,0.0010646508437165,0.13763552340805524,-0.011575943930359439,9.40386887860719
3710000000.0,21.4,-0.09494109177858706,-0.0174249554921546,0.000447145533648684,0.21169987206229873,-0.13341744124597443,9.985800532610105
3715000000.0,21.4,-0.06304824469102759,-0.015064127097773975,0.001213717624341389,0.14871873408698735,-0.16549405056524052,10.24036405056524
3720000000.0,21.4,-0.04695488691115351,-0.0016683464333366298,-0.00025554756966129173,0.15853039482190395,-0.1714793780522938,10.174931638717316
3725000000.0,21.4,-0.016136945075591137,0.0025550677969311646,-0.002129301687433,0.17363656587806567,-0.23298786176827863,10.007669546451295
3730000000.0,21.4,0.012146523153953061,0.008313858745297725,-0.0009794630504743403,0.13125758264767584,-0.1914903305907033,9.793125495886054
3735000000.0,21.4,0.027208777562464717,0.02037360891803004,0.0,0.12811874509578744,-0.09054564706895647,9.644308156877381
3740000000.0,21.4,0.044529052660514386,0.0223751210105673,-0.0005536263226850868,0.08632727354987273,0.012165271740152708,9.599673817935038
3745000000.0,21.4,0.05165981810236234,0.019117242061839356,2.130880585943045e-05,0.03924,0.10869538193705382,9.663831727421316
3750000000.0,21.4,0.06338181360192371,0.006396489288381817,-0.0015970157907377683,0.04414507283925073,0.5101253901045539,9.726615218517752
3755000000.0,21.4,0.06414800625105192,-0.013636241354122672,-0.0037369165458723775,0.17403129634561296,0.8154063247635632,9.996099565627595
3760000000.0,21.4,0.040951532932678836,-0.028081705015676646,-0.0011497912067631498,0.2852745078660451,0.6706102853972029,9.969309871923699
3765000000.0,21.4,-0.005280160939886223,-0.020439717262834195,-0.001437318322280942,0.2833130925224309,0.42202371355933715,9.606932268693923
3770000000.0,21.4,-0.04121940120838622,-0.006962808570713343,-0.002299614033656624,0.2634959409504594,0.12792049607910494,9.532376633861366
3775000000.0,21.4,-0.04074038785334167,0.003681066635299707,0.0,0.16725969342669694,-0.0009808533503085325,9.572108599872687
3780000000.0,21.4,-0.03757823147129235,0.022545576701381867,0.0018738173580325015,0.10359352657803528,-0.020405313953753147,9.804116569768766
3785000000.0,21.4,-0.026623022025305965,0.035928214018020696,0.0024273720084220856,0.060134638328246386,-0.0462048794427488,10.038573735190838
3790000000.0,21.4,-0.012530240935030395,0.04484662427358234,-0.001788645374855527,-0.02315218892962189,-0.021189452767594527,9.995603433211134
3795000000.0,21.4,0.005866314147700911,0.05099979847300157,-0.0025125439915990597,-0.12095825827318259,-0.005787826286678262,9.810783915440139
3800000000.0,21.4,0.01704147505212142,0.054119145414541034,-0.0004258683479196282,-0.23544073810440738,0.027468516673085166,9.721709630947796
3805000000.0,21.4,0.026346324804441466,0.04513721956119329,-0.00023420714367148666,-0.3210818173529182,0.08014792172267922,9.745843634705837
3810000000.0,21.4,0.029678601703923408,0.027208499305317387,0.0006600754915911148,-0.39279299203742996,0.13165086604210868,9.840803622014036
3815000000.0,21.4,0.02769837522915,0.008890038722089696,-0.0007878577084565272,-0.43419045179640453,0.24446638562876385,9.844530903592808
3820000000.0,21.4,0.0292315046544746,-0.0154652712510635,-0.0013627369747707158,-0.3759182354140823,0.3786667419891674,9.8410000451935
3825000000.0,21.4,0.026367440727505582,-0.045484330492712076,0.0011179075753020963,-0.22906208837532088,0.47578574296035747,9.864935702815856
3830000000.0,21.4,0.007655526404106954,-0.06433989828225183,0.002107984449538869,-0.03786503774375037,0.4961888328889884,9.779391460923215
3835000000.0,21.4,-0.014144452271028625,-0.07277188456460727,0.0,0.1337111193930112,0.34403513570425137,9.67903687245137
3840000000.0,21.4,-0.03511415694081889,-0.07051467101777424,0.0,0.23740274587392746,0.14950305742693057,9.693064352475643
3845000000.0,21.4,-0.0534164512572267,-0.0560248052978651,0.0,0.3223570481070705,0.0020594278393942754,9.68953409621414
3850000000.0,21.4,-0.046448382323610884,-0.041870294421461694,0.0006388067378968256,0.37768537390815377,-0.070632299126523,9.844336869540768
3855000000.0,21.4,-0.03337277731956851,-0.02398823118848432,0.0015117879453304174,0.40917502512125026,-0.0981,9.987560251212502
3860000000.0,21.4,-0.01151067329565769,-0.010731566587872984,-0.0002981103731541697,0.41045062492760626,-0.08436562512065626,9.904175625120656
3865000000.0,21.4,0.004891598401915194,0.004316670651401071,-0.0007771869684594518,0.42634244985402453,-0.0437524498540245,9.842372249270122
3870000000.0,21.4,0.022268778296100158,0.02401945788149896,-0.0011072695094397325,0.38906392346903923,-0.006473923469039234,9.750354598639145
3875000000.0,21.4,0.035150963809300474,0.055135204428955274,-0.0042586033748661,0.2992042473277425,0.0907434784739348,9.69228
3880000000.0,21.4,0.0383448836663154,0.0834785144982201,-0.003492030230169025,0.17854049271310493,0.20051685218606852,9.732306081193862
3885000000.0,21.4,0.03589610482962969,0.09676530803768049,-0.0010646508437165,-0.02472301107513011,0.254275501845855,9.847768122692681
3890000000.0,21.4,0.025356061371435507,0.1023865661749785,-0.0010646508437165,-0.2513337867302379,0.28449,9.81
3895000000.0,21.4,0.018393376119230555,0.09391877059605784,-0.001288235731590819,-0.45322351311403514,0.28449,9.791458419098685
3900000000.0,21.4,0.021519835551210637,0.06518768569292234,-0.002129301687433,-0.6180303787641038,0.3080349090338491,9.719747924247178
3905000000.0,21.4,0.011210666371273919,0.018790899456574528,-0.0017247179032728482,-0.6423581932004819,0.39475409660024097,9.724947830949578
3910000000.0,21.4,-0.0028778226405179064,-0.026658480580326608,-0.00019164539418295432,-0.5575994886352948,0.35767237215882375,9.775272372158824
3915000000.0,21.4,-0.018702199392555595,-0.06434294979762056,-0.0008836519474306672,-0.43271780724897807,0.3201977916465779,9.756143328132532
3920000000.0,21.4,-0.03246803579918225,-0.08475611321795289,0.00034070479677742247,-0.25976712489147125,0.24250259086962592,9.794697085271672
3925000000.0,21.4,-0.0351509311351657,-0.09938430014418129,0.0019695957869414102,-0.04904847523168475,0.15892108513901085,9.864445271284753
3930000000.0,21.4,-0.03559810934294914,-0.09970359600468645,0.0009155914411220318,0.14381605037516051,0.054739570993395714,9.850417810684277
3935000000.0,21.4,-0.037375993333433936,-0.08860763186369144,0.0001384129046973466,0.3283421522204215,0.024328494269384944,9.9013301063755
3940000000.0,21.4,-0.02974243009909753,-0.07255872272570878,0.0010646508437165,0.5010954887679548,-0.008632723470227234,9.795089106119091
3945000000.0,21.4,-0.019785991352603685,-0.046204699248901505,0.0009475309348133964,0.5863442363882424,-0.003237529880675299,9.819907410357974
3950000000.0,21.4,-0.005961928151931912,-0.011709164016097728,0.0,0.6425546163799462,-0.026486769827967698,9.738386769827967
3955000000.0,21.4,0.00783586355845116,0.02021572585757889,-0.00019165382621772086,0.5878142781464428,0.0,9.723378698674686
3960000000.0,21.4,0.012905081494095662,0.05407676706180864,-0.002044121272221261,0.4657773385532734,0.003139507672995077,9.841784630754747
3965000000.0,21.4,0.02708092788932113,0.07711701670270367,-0.0012137186783457417,0.2798776826772768,0.04473421612294216,9.872980662092207
3970000000.0,21.4,0.033149404286567694,0.097191136333435,-0.003066177692314602,0.07769381197523811,0.12242941689989417,9.925365291550053
3975000000.0,21.4,0.03557685850732872,0.10034233528630518,-0.0010114099221961257,-0.09761096698250966,0.20208692651526927,9.880630764646307
3980000000.0,21.4,0.04328478807228881,0.08309421767134542,-8.518884724650544e-05,-0.27938972768069725,0.31862972768069725,9.729557613466376
3985000000.0,21.4,0.033830696885640145,0.05682267404327078,-0.0020654058359807375,-0.3938718870192189,0.4325231322115313,9.682175622596157
3990000000.0,21.4,0.025163997209230803,0.03365990253113409,0.0,-0.44184255500192554,0.4600886124951861,9.673641387504814
3995000000.0,21.4,0.0051421204097405965,0.01256271152596063,1.0654929931888096e-05,-0.4609718224019182,0.410252803234528,9.722004532794244
4000000000.0,21.4,-0.01277592831131521,-0.008517383960692475,0.0010646592757512666,-0.45126,0.23543914535279145,9.751140466171204
4005000000.0,21.4,-0.027549267912554687,-0.030668753982667805,0.002118663621570645,-0.45126,0.12860824428448245,9.80941186675392
4010000000.0,21.4,-0.037088671748763506,-0.05490685656455727,0.0010859354074759765,-0.3551212211056122,0.03139122110561221,9.81
4015000000.0,21.4,-0.0331493536943591,-0.07606807593199155,0.002097370625776402,-0.19139177422851775,0.02943,9.867094667919346
4020000000.0,21.4,-0.01973467675361598,-0.09101624660343019,8.515511910743914e-05,-0.007454116410141154,0.1330244589204446,9.821771609581617
4025000000.0,21.4,-0.006016039490975638,-0.09768089315477654,0.0,0.24230903270069032,0.2957728290735283,9.810490421819205
4030000000.0,21.4,-0.007324814795319775,-0.08699165432742723,0.0,0.5132613917816139,0.2487811303325113,9.929879217612893
4035000000.0,21.4,-0.021330660674099267,-0.058549100383915746,-0.004950668952357264,0.6757140540005406,0.11752270274952703,9.727692297374222
4040000000.0,21.4,-0.031190506643736224,-0.024122263478332816,-0.003364279633434019,0.6686494430556945,-0.036494455554444555,9.702874721527847
4045000000.0,21.4,-0.026143933835952884,0.012630722918808169,-0.00028743014711799094,0.5778082143072822,-0.07583153570781535,9.737798714277087
4050000000.0,21.4,-0.0054312852061091516,0.03706749047742994,0.0038327771871202944,0.48068921333609216,-0.07848,9.803133550664736
4055000000.0,21.4,0.00912416885432893,0.06216621525369656,-0.001426683418431566,0.35737727607437275,-0.017363148655431482,9.940964681452646
4060000000.0,21.4,0.026589189591645794,0.07529988140031417,-0.002129301687433,0.19659105936931057,0.016088636581886362,9.922618484557484
4065000000.0,21.4,0.04265684811919732,0.08689602345912668,-0.0002767920812556269,0.031488757718287574,0.08789823166198231,9.84109698938027
4070000000.0,21.4,0.04290157211823138,0.09116520482160748,-0.000915608305191565,-0.14205022298760223,0.24152354393273545,9.762126567561065
4075000000.0,21.4,0.04441341065577047,0.0843726379788265,-0.002874574458305472,-0.3001872664317726,0.3649329498238295,9.742801420848014
4080000000.0,21.4,0.02684648254066749,0.07145436575857292,-0.0031939525311496,-0.4308562302383623,0.38259,9.840215750989257
4085000000.0,21.4,0.013704928553822198,0.042712660707648925,-0.0014266149081491161,-0.5245414141160142,0.341878103268881,9.802053344576434
4090000000.0,21.4,0.0021079138312477055,0.013694318514108197,-0.00019162853011342115,-0.5878156766600567,0.33354,9.750158602783285
4095000000.0,21.4,-0.009486133972765853,-0.01391870176707756,-0.0008623758157059573,-0.5666252818381529,0.293809102297691,9.74927617954046
4100000000.0,21.4,-0.012562888598690735,-0.0455987401071943,0.0006388077919011715,-0.45714496471144966,0.26094576108725764,9.743291920362418
4105000000.0,21.4,-0.0237236750264005,-0.0707066199652088,0.00022356802380478578,-0.30764032424480325,0.20856012159180123,9.7258300405306
4110000000.0,21.4,-0.03078590599550652,-0.09058658399537445,0.0,-0.14459804285908043,0.1808962403363624,9.752317519327274
4115000000.0,21.4,-0.03523613790048614,-0.10547699185930401,0.0016395796482349422,0.05071937850769381,0.17658,9.783611339786814
4120000000.0,21.4,-0.035406438652661874,-0.10298693130093212,-0.0011072716174483983,0.3068590407295904,0.1542129599218296,9.864936800260567
4125000000.0,21.4,-0.031158446993549412,-0.08442575663584273,-0.0005323080307865439,0.5420043428330434,0.1030045192609452,9.917910320492703
4130000000.0,21.4,-0.025100574934026215,-0.05912734847274305,0.0,0.6782642824232428,-0.006083242863832425,9.862384678017348
4135000000.0,21.4,-0.01955375269163873,-0.026542330407257977,0.0,0.6919972393651724,-0.08936966222189663,9.774977577143275
4140000000.0,21.4,-0.011971492444963447,0.010569330282128482,-0.0015331146692637268,0.616067195854672,-0.10791,9.715823597927336
4145000000.0,21.4,0.00478044830451179,0.04702383059676297,-0.002129301687433,0.5468089169300892,-0.06611891693008917,9.722985541534955
4150000000.0,21.4,0.01662084059604421,0.08436778579206608,-0.002129301687433,0.37866422660704224,-0.007847516347375169,9.81392496730525
4155000000.0,21.4,0.033873525298228194,0.10763686418252219,-0.0013946838464925012,0.137926501646865,0.03688592282355923,9.83570203858822
4160000000.0,21.4,0.04192212803983525,0.11581868797620674,-0.0010646508437165,-0.10791202007522019,0.13577145043911448,9.876316165621061
4165000000.0,21.4,0.046895129961979636,0.11004815752743641,-0.0003513259985702443,-0.3375639607029396,0.25545337080153374,9.878571657299617
4170000000.0,21.4,0.04760348870150237,0.09246981127958259,0.0,-0.515614895955949,0.3460974479779745,9.842961276011012
4175000000.0,21.4,0.035103657485167354,0.0644521271099063,-0.0013840636987040252,-0.6454989731323898,0.4110394865661949,9.78498393233944
4180000000.0,21.4,0.016486919495014782,0.028715235615163464,-0.0007665309845232178,-0.6929784811914849,0.4379184811914848,9.723279112851092
4185000000.0,21.4,0.0015329913507553146,-0.009923221488517611,0.0,-0.6717884748455848,0.42290885613418855,9.689729237422792
4190000000.0,21.4,-0.013766251407878747,-0.05091893811058562,0.001980277066982006,-0.5721180605998806,0.4059377186142772,9.68247
4195000000.0,21.4,-0.02998750718958746,-0.0970037125031172,0.0018950608156224858,-0.3463887369975873,0.3543365481372655,9.718375088897051
4200000000.0,21.4,-0.04132597685781372,-0.13209721125249702,0.004258647643048645,-0.06474363418113632,0.2707552657803527,9.788418652639686
4205000000.0,21.4,-0.05416537924605537,-0.14337863238258547,0.002618987890483382,0.23426541366655415,0.18334816490628164,9.866113853416639
4210000000.0,21.4,-0.06133751104095486,-0.1326898927558846,0.0,0.5564259803227598,0.050422009838620094,9.886910236451602
4215000000.0,21.4,-0.058750356189723886,-0.10641821737726676,0.0006068598661750403,0.7692031643271316,-0.06435425497054255,9.861894654386047
4220000000.0,21.4,-0.04810464015648143,-0.06582783372910364,-0.0013202026293952305,0.8789768196843682,-0.15303681968436822,9.783315816378758
4225000000.0,21.4,-0.028656365049086967,-0.016615979493443827,-0.002608385660768748,0.9059532538033325,-0.20159558206555583,9.715333253803333
4230000000.0,21.4,-0.006033764889404427,0.03572769390724595,-0.0009794609424656486,0.834437696210577,-0.1848200713493007,9.744469857301398
4235000000.0,21.4,0.01668187900715746,0.08613082981605193,-0.001692821623759715,0.6756129725443297,-0.11477617740206178,9.837763204857731
4240000000.0,21.4,0.038226371244883865,0.12805023327193205,-0.0031939525311496,0.40024511750805114,-0.03806230585852306,9.893581282356912
4245000000.0,21.4,0.052288041582622846,0.1530031834760661,-0.002650971652357238,0.07033497901694977,0.055231371902413715,9.89829
4250000000.0,21.4,0.06125241073007341,0.15552621797291913,-0.002129301687433,-0.24525264163682642,0.16186574296035744,9.863954422141944
4255000000.0,21.4,0.0660432588954654,0.14134706423300783,-0.002129301687433,-0.5319985315032854,0.2781147397240474,9.80558508675865
4260000000.0,21.4,0.06502117612526345,0.11363808212615681,-0.0016182603023320535,-0.7659665376531655,0.46146430314394304,9.766443351763833
4265000000.0,21.4,0.05239667160747168,0.0717799169620829,-0.0005642559565126751,-0.8684792171574922,0.6018439142125391,9.8110801769526
4270000000.0,21.4,0.028635069945284017,0.02131141607527549,0.0,-0.8723053658792537,0.5827131706037317,9.79292902414709
4275000000.0,21.4,-0.0003179566183931122,-0.030944256843820853,0.0009582037828191635,-0.8343395865957959,0.5076670848162709,9.648134169632542
4280000000.0,21.4,-0.031020293373921183,-0.08356193809553242,0.0011923909004080795,-0.6800273710549738,0.4418416517952165,9.615762415669325
4285000000.0,21.4,-0.052523045017938225,-0.1313916965449957,0.00045780889561533865,-0.4284001198395012,0.3333426347662264,9.714942514926726
4290000000.0,21.4,-0.06732093034149814,-0.16162356769609998,0.0010646508437165,-0.11909065017260648,0.18913546675035467,9.847082549952926
4295000000.0,21.4,-0.06825762400362784,-0.17238653739312493,0.0015011667435375956,0.22955733700887337,0.0981,9.914378733700888
4300000000.0,21.4,-0.062423482284578634,-0.1608597437575908,0.0012775628835850518,0.6101851738489518,0.03531466364254664,9.961074501134044
4305000000.0,21.4,-0.05875026449134578,-0.1225719612259579,0.0004152229040268525,0.8988917215308173,-0.11624975429189754,9.889262458655125
4310000000.0,21.4,-0.04657475455912173,-0.06636625208226432,0.000660074437586769,1.00062,-0.21346576743315768,9.695614813983948
4315000000.0,21.4,-0.03117306183508732,0.0025789756911135976,-0.0015757196329304745,0.9715817294904173,-0.24740870288218703,9.667559135254791
4320000000.0,21.4,-0.001356223867227684,0.06796641461161591,-0.0031087531438596,0.8409112700512127,-0.24564147698101477,9.762913678216337
4325000000.0,21.4,0.025249878865628975,0.1196252136818423,-0.0006920139312781336,0.5900688957539889,-0.14911132793651327,9.898780752023807
4330000000.0,21.4,0.04844390874274701,0.15246025951350844,0.0,0.2789935404281354,-0.06808064305450644,9.92458096821011
4335000000.0,21.4,0.06707605245782954,0.16651928264157848,-0.0010540317499324026,-0.06416059968260598,0.029038610426086103,9.905156157978261
4340000000.0,21.4,0.07486418968005527,0.16597164451499347,-0.0031939525311496,-0.4080985289787853,0.15499926448939266,9.826872862802828
4345000000.0,21.4,0.076776308035484,0.14650294743408465,-0.0028639016102996887,-0.6964143474959434,0.3037189503425895,9.775860524828706
4350000000.0,21.4,0.07104701699271723,0.10077477885890919,-0.0018098972644802413,-0.9221408449353085,0.5179710417671104,9.712880746519408
4355000000.0,21.4,0.05327274908226187,0.0380641796565696,-0.0007558929186608629,-0.9623601540935015,0.7794049229532494,9.760559630175596
4360000000.0,21.4,0.021773781310726416,-0.028377538722165106,0.00029811142715851553,-0.8432660756201608,0.7647860756201609,9.842566574679166
4365000000.0,21.4,-0.012455625911217422,-0.09051024976952213,0.0010646508437165,-0.6578567347324674,0.6164597217208972,9.626258784784888
4370000000.0,21.4,-0.053437940297829244,-0.1400170014102362,0.001618287706445071,-0.41103602912976034,0.49285219306782196,9.653825479056055
4375000000.0,21.4,-0.0724357487729964,-0.1810999480021633,0.0026616086642152733,-0.06130918581409185,0.2746789802504898,9.736425849791258
4380000000.0,21.4,-0.09314548505060255,-0.19771708836908217,0.0010646508437165,0.34335425381224255,0.12752787309387875,9.826481395533714
4385000000.0,21.4,-0.096775842811117,-0.17760948758187664,0.0013095297813894079,0.7747960145074602,-0.09044939242709393,9.892208311040182
4390000000.0,21.4,-0.08752002972976941,-0.12312752684752427,0.0016608368078814273,0.9949311379753114,-0.23073256432772565,9.900839150401792
4395000000.0,21.4,-0.06163162405943063,-0.05990302052593991,0.0,1.0770398146323983,-0.35316,9.768699814632397
4400000000.0,21.4,-0.028972289201526134,0.0002204775793903501,-0.0004258788879630864,1.0516312308175124,-0.34531165814111653,9.780570854647207
4405000000.0,21.4,-0.005489947787754298,0.06374012840957212,-0.0017247157952641565,0.9362643465158434,-0.3046000721908007,9.864641956685519
4410000000.0,21.4,0.030171730043264528,0.1230863478480649,-0.0001916464481873001,0.6819881162774811,-0.24191348643353486,9.895543542635835
4415000000.0,21.4,0.05512014598981788,0.17445516972647465,-0.0010646508437165,0.3256885697568857,-0.12066214243922141,9.914377713951378
4420000000.0,21.4,0.076948206658248,0.1992118808226327,-0.00140535774850263,-0.06592680583426806,-0.01412502634885026,9.844530942440409
4425000000.0,21.4,0.08996215161323702,0.19553600272243102,-0.003513366440141486,-0.4649970942113709,0.14126537520505375,9.810980484298105
4430000000.0,21.4,0.09252792282429997,0.1685910921759955,-0.005174193761983872,-0.8036376093281762,0.29940274885382745,9.75545605581026
4435000000.0,21.4,0.08995136493276192,0.12202042146902355,-0.0038433614987610095,-1.0564400198792,0.5124785349385853,9.720434613855446
4440000000.0,21.4,0.07346609986171605,0.05360334893203081,-0.0005535810004982045,-1.1567944238249441,0.91389899630829,9.754282304700222
4445000000.0,21.4,0.030804973314255125,-0.01541197925352925,0.0031939525311496,-1.063991391256914,0.8308070868853709,10.00678393770524
4450000000.0,21.4,-0.0019204065617990469,-0.09395854305263587,0.0029810036011289343,-0.9103652340508523,0.6376491356408914,9.53630108643591
4455000000.0,21.4,-0.058867643685317946,-0.1489929824890071,0.0013521347450561277,-0.595169498277895,0.5308172828063729,9.55572583839636
4460000000.0,21.4,-0.0747324600441271,-0.20227817867144277,0.004003058967217837,-0.23190476153374762,0.33236158717791586,9.67697795934268
4465000000.0,21.4,-0.1011941900306312,-0.21245606202039607,0.0009155809010785737,0.1808025496361255,0.19021390527283905,9.844237507090876
4470000000.0,21.4,-0.10113030155720935,-0.2017858359800295,-0.0010007623702946583,0.6478553520291536,-0.030216362838963628,9.913986868243867
4475000000.0,21.4,-0.09901145770089544,-0.15568370393291334,5.324197552472008e-05,0.9697199776655998,-0.207483499194635,9.995897674648377
4480000000.0,21.4,-0.0767062862416588,-0.09535792131353342,0.0009368644108337043,1.1289349740372498,-0.4194750778882508,9.797050103851001
4485000000.0,21.4,-0.0503069498566753,-0.029687553535619998,-0.00216125066716348,1.1471812257685123,-0.3620868386527684,9.725242645388926
4490000000.0,21.4,-0.022608276620755586,0.04481917034592666,-0.003151347567482887,1.1230465324655656,-0.33314742557427424,9.840607723277177
4495000000.0,21.4,0.018393747906304443,0.1017273386039654,-0.001075306827652734,0.8699480060805801,-0.3122508157303081,9.89829
4500000000.0,21.4,0.04581515847394625,0.15446185713590652,-0.002129311173472112,0.5591667659372677,-0.14714912592899126,9.8982899125929
4505000000.0,21.4,0.07532728015689004,0.1787212358495207,-0.0031833155192915897,0.19982646234386464,-0.050030124957801264,9.88857801249578
4510000000.0,21.4,0.09442283288274356,0.18105279616742131,0.0009795168046959745,-0.19796939165489394,0.104772201621422,9.81156889918929
4515000000.0,21.4,0.09893716831258909,0.1676699923180959,-0.004098953336604836,-0.5200309940491099,0.26967839087378387,9.743389486110795
4520000000.0,21.4,0.09599866532869662,0.13964213977108397,-0.0042586033748661,-0.8028529460717295,0.5007045070938451,9.74133
4525000000.0,21.4,0.09081379661069829,0.09193303392479452,-0.001224319854055991,-0.9353846426050465,0.8642643399224434,9.74133
4530000000.0,21.4,0.0424773646565369,0.04041193247044741,0.0009369118410292663,-0.94176,0.8644570240203703,10.008753151704632
4535000000.0,21.4,0.00473858323461699,-0.02909126519480345,-0.0019057536897107848,-0.9143898357391983,0.5895783573919836,9.624390924174909
4540000000.0,21.4,-0.04098424274803818,-0.08701076537871677,0.002768140045460292,-0.7589001008711009,0.5148282708956827,9.558078847263788
4545000000.0,21.4,-0.06800087575022899,-0.1458992412698636,0.0012562688337864718,-0.4955987281271873,0.32264904609539047,9.626357506249374
4550000000.0,21.4,-0.07702493784632726,-0.1800292549143862,0.002981041545285384,-0.17069099513810992,0.16284458594734585,9.801172679187527
4555000000.0,21.4,-0.08345716458619114,-0.19175260455035043,0.0031939525311496,0.18570657359016576,0.12095703457377036,9.84600296542623
4560000000.0,21.4,-0.0785383624012254,-0.17500537772299996,0.001320147821169204,0.6572744286264443,-0.09810221431322215,10.030530660023105
4565000000.0,21.4,-0.06756787251859613,-0.1271612503951441,0.00013839498662346762,0.9380345054108451,-0.22141267536612674,9.876019437937394
4570000000.0,21.4,-0.055971555944309956,-0.060830730183322336,0.0,1.0302468213673681,-0.2860601326006013,9.71425297973173
4575000000.0,21.4,-0.022643564012382017,0.005919019548619835,-0.004524814306494116,1.0148442334083423,-0.3109771777277718,9.73397294431943
4580000000.0,21.4,0.003532070490244666,0.07504141778076073,-0.0035346214917792804,0.8703416876629169,-0.22327462142894622,9.815494400649044
4585000000.0,21.4,0.03044245880037256,0.12695237842304813,-0.0005429429346358785,0.6156731063725311,-0.1897252218837522,9.89475911246499
4590000000.0,21.4,0.05349873371340769,0.16237281843488238,-0.0026190701028223555,0.271341301256013,-0.05768137351611374,9.883967132534272
4595000000.0,21.4,0.06873695145196743,0.17780569862914683,-0.0031939525311496,-0.09594519158975193,0.05003189252361892,9.823046675233467
4600000000.0,21.4,0.08074950999697401,0.16809252434484948,-0.0014904917875231568,-0.46499739528027406,0.17069516154325165,9.802151910650519
4605000000.0,21.4,0.0847772934352822,0.13649750726528825,-0.002746818591548699,-0.7487997150581972,0.30469985225239854,9.761440052767
4610000000.0,21.4,0.07773687726323666,0.08734346900388126,-0.0015330777791116449,-0.9038945640683456,0.7008306980985071,9.75879188954372
4615000000.0,21.4,0.05349076277962432,0.031342969875611144,-0.00024485996559468304,-0.8941810517958105,0.7666510517958105,9.934687161739271
4620000000.0,21.4,0.025019380780529125,-0.023985519459926385,0.0024274331406741617,-0.8456215513102155,0.680813102620431,9.777820687337206
4625000000.0,21.4,-0.024230050386098864,-0.07084332413879516,0.0015969567664943772,-0.6793406134634062,0.5321909728037097,9.564748203298482
4630000000.0,21.4,-0.05175127279809965,-0.12222381104615414,0.00027679945928604766,-0.48265020135610204,0.3888671409492714,9.595554389254144
4635000000.0,21.4,-0.0720182400963974,-0.1589095450026918,0.0015544097730666616,-0.20963690909126909,0.2600619296189193,9.702385290322452
4640000000.0,21.4,-0.07930498824613978,-0.17875327804816019,0.002129301687433,0.1691281853101819,0.1832502592414026,9.844532642022926
4645000000.0,21.4,-0.07610922170439594,-0.17868919352992996,0.0028852135781721588,0.6048887502833875,0.027466195528961956,9.992957853353278
4650000000.0,21.4,-0.0730699348595137,-0.14700170916747277,0.0017034217454655976,0.9005601676961017,-0.11870217416872172,9.939490735510606
4655000000.0,21.4,-0.06875806948304024,-0.09305307549604297,-0.00040458694617318924,1.0659558658490587,-0.25849485626684854,9.79675514373315
4660000000.0,21.4,-0.041757007442559,-0.03399427461062043,-0.0010646508437165,1.0818464379403645,-0.31078089051490887,9.737798218970182
4665000000.0,21.4,-0.015549465066371271,0.0293444816697058,-0.0017779767428671015,1.0298532563278326,-0.28762883755188834,9.82353906856839
4670000000.0,21.4,0.011169335819812616,0.09121391162377723,-0.002831981088686546,0.8550374229804742,-0.22935716503597164,9.881809381418293
4675000000.0,21.4,0.038622637552454715,0.14577910882647377,-0.001809886724436818,0.570939094199491,-0.135867501131075,9.875726818387468
4680000000.0,21.4,0.06361608187784722,0.18723297471844585,-0.0017460372491757369,0.15970243663752437,-0.022758109159381104,9.850024527289845
4685000000.0,21.4,0.07914955876957558,0.2022887513890357,-0.0014585617798708846,-0.2632060310206603,0.10614547400705474,9.827069217998993
4690000000.0,21.4,0.08507540591644505,0.19025779480076138,-0.0030449310727115432,-0.6431470617096706,0.23602978426909785,9.789398544511885
4695000000.0,21.4,0.083691290571528,0.15811983162455123,-0.003609156463098228,-0.9643257358422574,0.3742528679211287,9.77076
4700000000.0,21.4,0.07307679691161025,0.10376270999863428,-0.001277551289537288,-1.1732774606697747,0.6435392865069929,9.758987817416278
4705000000.0,21.4,0.05327822598258166,0.031885742787250926,0.0,-1.2302720086110202,0.7674360258330603,9.878475810557559
4710000000.0,21.4,0.02081024034363893,-0.045108410736869234,-0.0006175074180765077,-1.1124521702780217,0.7269205425695053,9.779193580958736
4715000000.0,21.4,-0.02428375695291622,-0.11723772835987903,-0.00045778992353711387,-0.8567044609202445,0.6224431262517313,9.576128501001385
4720000000.0,21.4,-0.05833539573277916,-0.17922420971257114,0.0017886432668468494,-0.5061923327865233,0.493245699835957,9.574953225123032
4725000000.0,21.4,-0.08223579024231271,-0.2174272288518593,0.0020228166823792588,-0.0907383700144837,0.36051612333816124,9.683942693106927
4730000000.0,21.4,-0.09661624125705562,-0.22451595339515318,0.0016395722702045215,0.4045695449761955,0.17245768688477686,9.815494886244048
4735000000.0,21.4,-0.10697398775213642,-0.1927822767738777,0.0032578515446148523,0.8496475029526751,-0.05091601534896015,9.946262095632022
4740000000.0,21.4,-0.1034594373886544,-0.13900170050140678,0.0020440896520909344,1.0967593810321938,-0.3048974699955747,9.883768990348491
4745000000.0,21.4,-0.08015818446153784,-0.07924012008431784,-0.0016289457983900213,1.1874027686637276,-0.40642765483847654,9.755750423502203
4750000000.0,21.4,-0.04846744270728925,-0.007992876529675522,-0.0031939525311496,1.216440184526102,-0.3973054613152546,9.810001291682713
4755000000.0,21.4,-0.008429878221827496,0.06638428003177667,-0.002672263594147137,1.1204961680762617,-0.3881810534788105,9.883476992360169
4760000000.0,21.4,0.025091772373535205,0.13042549648045254,-0.0011072168092224155,0.8409098715375987,-0.29194439805524397,9.897897784914576
4765000000.0,21.4,0.05230031427099546,0.16980101505639558,-0.002501979706040947,0.472838297823683,-0.1564681116838811,9.894267622336775
4770000000.0,21.4,0.07952997841554596,0.1855031081767312,-0.004343755331960556,0.08436229393892294,-0.019814995530149954,9.847081151439312
4775000000.0,21.4,0.09640336189132175,0.1887608089987247,-0.002714849585735627,-0.2864553389512534,0.11968348397833484,9.796756221754062
4780000000.0,21.4,0.10366421021689816,0.17235724436611585,-0.004003127477500312,-0.6317672496017726,0.266440899840709,9.784886492845766
4785000000.0,21.4,0.10133250385892001,0.13201394110785009,-0.005472285163059787,-0.9084078588576787,0.5795800048015001,9.79038
4790000000.0,21.4,0.08557884587404026,0.07586153612593768,-0.002469949567975806,-1.02024,0.8679882417599825,9.885146739920067
4795000000.0,21.4,0.05302564503774236,0.016259823926009675,0.0004365169538254414,-1.02024,0.7735171029431711,9.883277626474976
4800000000.0,21.4,-0.0019135591275332153,-0.042192186657524576,0.0006387803877881801,-0.9339099488466995,0.6513831608918317,9.582405389441254
4805000000.0,21.4,-0.05013750713315206,-0.10690434432859262,0.0016608958321248323,-0.7049441733846418,0.5104121533787216,9.497945859958559
4810000000.0,21.4,-0.06749803952977886,-0.16290065064485376,0.003854025914732023,-0.4263395168601952,0.313133705144337,9.668344721141747
4815000000.0,21.4,-0.08675764639057705,-0.18889934522193044,0.0024060906066756525,-0.07680846545048467,0.1758922712184227,9.792147109358371
4820000000.0,21.4,-0.08982358693191389,-0.19225283290486767,0.0006813663793766662,0.3178477449086775,0.044339514791095144,9.91398693622717
4825000000.0,21.4,-0.08133846196645961,-0.1718263648395143,0.0007452759328854243,0.682288592754586,-0.11330671835786718,9.97677
4830000000.0,21.4,-0.07514670265499732,-0.12282908017786873,0.0024912931559786244,0.9460779010712791,-0.24623240725432408,9.910060123660902
4835000000.0,21.4,-0.05123854664752753,-0.06166217890242925,0.0017885726485556907,1.04967,-0.33363781825777816,9.757908242601482
4840000000.0,21.4,-0.022667423767939652,0.006856337388667463,-0.0007239523709651524,1.0182770598880706,-0.28566635389926354,9.73387505807835
4845000000.0,21.4,0.005754933776266157,0.07058455198970734,-0.000330051974854226,0.8968285060503851,-0.22258880589168806,9.786652388216625
4850000000.0,21.4,0.03994724944488242,0.12004948324339944,-0.0010646508437165,0.6660955143990552,-0.17461668112396683,9.817848565232586
4855000000.0,21.4,0.05484325483215374,0.16246242271367864,-0.0016821688018364947,0.3096002051082021,-0.05287505127705051,9.8647399886051
4860000000.0,21.4,0.06928486895881915,0.17415374748159956,-0.002299615087660988,-0.04552198718741988,0.04826652159536522,9.870429316800992
4865000000.0,21.4,0.08309512568745,0.16035100606313588,-0.0002874659832657398,-0.3933838349036383,0.18953071194860713,9.841293616509637
4870000000.0,21.4,0.08364876465818727,0.13282306712075326,-0.0010646508437165,-0.6668859756598597,0.3882829215989292,9.812157916218279
4875000000.0,21.4,0.08336121646258254,0.09374982605373623,-0.0005323048687735065,-0.841207784073078,0.6719867044384671,9.812453352219235
4880000000.0,21.4,0.06575374854118024,0.0381404630828682,0.0008091243541421247,-0.8491530312711304,0.7926475260592752,9.871606515635564
4885000000.0,21.4,0.017405386726518812,-0.019619453465057543,0.0007346399750317839,-0.7683176818357769,0.7102421022947211,9.777035363671553
4890000000.0,21.4,-0.02361424451116919,-0.07493061120238025,0.0029597190373694456,-0.6215604602114047,0.5246372802818728,9.543953179929533
4895000000.0,21.4,-0.052469218605643096,-0.12226383765600957,0.002576475679199042,-0.4658739525354395,0.3816080492049805,9.588981365556513
4900000000.0,21.4,-0.0745640081192465,-0.15957575322720843,0.004045662876880211,-0.1569566688182667,0.2746785723506857,9.688358189062283
4905000000.0,21.4,-0.07984799231302768,-0.1832778457176373,0.0025870705308832787,0.20346378259203785,0.1252720803464208,9.88936394801114
4910000000.0,21.4,-0.08435142403335817,-0.1707189353805954,0.0,0.6166591750131918,-0.03806432593374326,9.97677
4915000000.0,21.4,-0.0812394380508248,-0.1239171501860477,0.0003620020085890488,0.8555313410837135,-0.19178693201966932,9.943414090640442
4920000000.0,21.4,-0.057182291151042966,-0.06775510130627363,0.0012775291554459698,0.962949695565097,-0.30764121773961217,9.77586091330471
4925000000.0,21.4,-0.029505435096652592,0.001443231321218567,-0.0030342445226493034,0.9564740433778405,-0.26879361735113616,9.758497978311079
4930000000.0,21.4,-0.004958507133429321,0.07226628906445229,-0.0018311786662266803,0.840126101775961,-0.2326930084813301,9.804310487278006
4935000000.0,21.4,0.026487171232385705,0.12855452059718503,-0.00027683002541207646,0.5879095615982957,-0.2005152497225525,9.83599697928227
4940000000.0,21.4,0.04866830291589251,0.16396058551027318,-0.002129301687433,0.2115000497178005,-0.08632704046427041,9.871606224278562
4945000000.0,21.4,0.06377764984116394,0.1776777193134687,-0.002363545721256601,-0.14460266572352667,0.012950352608303526,9.81873080394931
4950000000.0,21.4,0.08022059971334443,0.16416362116656752,-0.003939176817822069,-0.4689206921387069,0.13439863451278636,9.807056711556568
4955000000.0,21.4,0.08280763862409735,0.1322229022901828,-0.0013521379070691652,-0.7329069286536694,0.30214992489859926,9.77968700375507
4960000000.0,21.4,0.0793886815821709,0.08645612760927118,-0.0039178732819843696,-0.9048746890261469,0.5081613719717137,9.768405310973852
4965000000.0,21.4,0.06999139970923106,0.03612872749375171,0.0,-0.9271424249258242,0.824726796439168,9.758499910979198
4970000000.0,21.4,0.022352602518736508,-0.011479690872469802,0.0001916685822785683,-0.8526834623468347,0.8167778004476781,9.958322566258225
4975000000.0,21.4,0.0024996279804427876,-0.0767451755289888,0.0033004385902077366,-0.6778692605986927,0.5493600000000001,9.51717178990022
4980000000.0,21.4,-0.05186228812117689,-0.12003580945495478,0.005110271560422971,-0.49756010462320105,0.5387625882758259,9.5482699738442
4985000000.0,21.4,-0.06978088577115184,-0.1636183699969718,6.390006746964564e-05,-0.18589611103246112,0.2818404285512043,9.629792333380523
4990000000.0,21.4,-0.0873963361339915,-0.18424670864640577,0.002129301687433,0.15598336161433363,0.19286295227902953,9.831190375398103
4995000000.0,21.4,-0.0894830307497492,-0.18186144226277184,0.0021079876115518404,0.5915459106564591,0.02785884764988848,9.9091801672407
5000000000.0,21.4,-0.08948286193626627,-0.1523318837194087,-2.108008691638757e-08,0.8829023308560233,-0.1275316510230165,10.016008057619981
5005000000.0,21.4,-0.07260151364338803,-0.10699241808940615,-0.0021080297717256734,1.1159879331868792,-0.2926339526740396,9.8217700556776
5010000000.0,21.4,-0.047390322646586464,-0.04702869062808034,-4.256491150156968e-05,1.1856372811926728,-0.31352779462647795,9.771740513433805
5015000000.0,21.4,-0.017946400919595647,0.018264653920555013,-0.0030981656702058773,1.1394310129482101,-0.323435797410358,9.77076
5020000000.0,21.4,0.01466598103392799,0.08875838126722121,-0.0011498017468065595,0.9684414448654145,-0.2578061174476612,9.8931900675972
5025000000.0,21.4,0.040261509410853366,0.15030836990818788,-0.0010646508437165,0.6631528766529288,-0.1805032191632322,9.89829
5030000000.0,21.4,0.06357245518655792,0.1964634435395902,-0.003066215636471052,0.250935598826256,-0.08436502298285023,9.925954493105145
5035000000.0,21.4,0.07588633467107106,0.21406391929983495,-0.005174224328109908,-0.17579950314869508,0.040124171384841714,9.872979613206995
5040000000.0,21.4,0.08650211463098093,0.21224317527663175,-0.004343764817999622,-0.621173703213837,0.22955595791905958,9.823733510520235
5045000000.0,21.4,0.09026025777037387,0.18484420700149012,-0.0032897604721802355,-1.0054307217298073,0.3255947819376478,9.77517401003464
5050000000.0,21.4,0.0828821103551555,0.12751140268212083,-0.0003193633167832819,-1.2517583541645836,0.5366092560743926,9.753101803819618
5055000000.0,21.4,0.06495904291465261,0.051274715428689666,0.0018950998137832425,-1.3888029764350298,0.8036379492446796,9.78606399274924
5060000000.0,21.4,0.03097923138622293,-0.03707937994018974,0.0002554948694440005,-1.2819694240179942,0.7993184068622841,9.850810287991003
5065000000.0,21.4,-0.008579222775794423,-0.11744383196364264,0.0018525138221947564,-0.9838416534089165,0.7263316129476162,9.560332056645821
5070000000.0,21.4,-0.052326118336274804,-0.18554139046123058,0.0012136912742327433,-0.6464755532466555,0.5980162212986623,9.591630286308003
5075000000.0,21.4,-0.07489488893892804,-0.23568887129193203,0.00377954258962599,-0.18148007121070076,0.4370338242116383,9.662360190030503
5080000000.0,21.4,-0.10372173751491161,-0.24824592321196715,0.0033642859574600863,0.3370769283368693,0.3213745145980451,9.78802698142067
5085000000.0,21.4,-0.1148498956657294,-0.22804533529309937,0.0005429397726228412,0.9103739262014392,-0.021585950800959486,9.899566386470264
5090000000.0,21.4,-0.11349768187034731,-0.18003331727175886,0.0043651221080590165,1.2276260694128607,-0.25722027621000276,9.845511310195713
5095000000.0,21.4,-0.10169775225273049,-0.10486572051841517,0.0010113646000092938,1.3706543875711439,-0.42143918342819187,9.742211811393117
5100000000.0,21.4,-0.06412993707441884,-0.030685636747818955,-0.0025551942774526618,1.3851719009386187,-0.49834859436828594,9.72955809906138
5105000000.0,21.4,-0.029309329415259534,0.050499858189967245,-0.0006706977473883036,1.2747100117810002,-0.4403700075735001,9.878769984011498
5110000000.0,21.4,0.01086964367987429,0.12302233819870079,-0.0016608768600465686,1.0698763171207633,-0.398874302233143,9.948517597022477
5115000000.0,21.4,0.049771768091679255,0.1827740796925666,-0.002129301687433,0.6576576310685764,-0.24887781229797812,9.972257598705475
5120000000.0,21.4,0.07802345809019698,0.22030136738433467,-0.004556737990120276,0.23622062310600628,-0.10163020770200205,9.872390207702002
5125000000.0,21.4,0.1025383422132986,0.22716331781267007,-0.0053232542185827,-0.25261277598972776,0.03433639365766393,9.824714800906047
5130000000.0,21.4,0.10945205166760176,0.21665072105961006,-0.0061111066570174975,-0.6874889850519899,0.21385999288189989,9.798031501067715
5135000000.0,21.4,0.1097288500728835,0.18350577496952253,-0.004833493181223773,-1.0309361914600619,0.365129596376996,9.783218600258786
5140000000.0,21.4,0.10665004575408109,0.12424721190612238,-0.003492043932225545,-1.2666692966049928,0.776564891431649,9.766443400323334
5145000000.0,21.4,0.08351892599244931,0.045710886739788584,0.0013415251373111422,-1.35917599967726,0.950000799741808,9.893288798773588
5150000000.0,21.4,0.03430386003276016,-0.03387589934798395,0.003939218977995911,-1.277260599544006,0.8789747996091479,9.81686509938115
5155000000.0,21.4,-0.0219070764022895,-0.10970815442109315,0.0013201235790692694,-0.97883799507178,0.68797299701713,9.51049699520147
5160000000.0,21.4,-0.06114060645882518,-0.17588933908118182,0.0021719203531562746,-0.6698238934225389,0.497953795917438,9.538068904762989
5165000000.0,21.4,-0.0927780155931753,-0.21813699831572328,0.0039072794843045475,-0.26329558445145584,0.2837027922257279,9.689436404211063
5170000000.0,21.4,-0.10684841334607907,-0.23185027956024723,0.0021505620090925565,0.21582502105235019,0.12831359494743594,9.828640506315704
5175000000.0,21.4,-0.1086641992291669,-0.21321783153164764,0.0010646508437165,0.7077966264264662,-0.0647484124359841,9.961565806736159
5180000000.0,21.4,-0.09775082959152843,-0.16354440759191524,0.0017460383031800827,1.03358401476684,-0.26644151169041513,9.912022490770726
5185000000.0,21.4,-0.08154022226021673,-0.09201801026057473,0.00011707880273361662,1.186324407836444,-0.35826160284961606,9.772524390026344
5190000000.0,21.4,-0.04591004440307698,-0.024542185030060823,-0.00040455638004716033,1.250579203238092,-0.40927380485713805,9.733874601619046
5195000000.0,21.4,-0.010802081431108206,0.04182020827317844,0.0,1.169742785493728,-0.33589278549372786,9.789203607253135
5200000000.0,21.4,0.02236852353084026,0.10694744234166928,0.0,0.9554913739022137,-0.25702169698871696,9.855126606022566
5205000000.0,21.4,0.05739148948435345,0.16288670656477006,-0.000628154969977975,0.6103739537630395,-0.18158198789031987,9.901822004403519
5210000000.0,21.4,0.07878673786872485,0.19850213366564762,-0.002917176259959118,0.18540444609004447,-0.04061167963401678,9.86670088921801
5215000000.0,21.4,0.08962153429882032,0.20393884262261155,-0.0042586033748661,-0.2124884492144845,0.10771521813165218,9.807252794819528
5220000000.0,21.4,0.09612649602976195,0.18595758621126862,-0.0042586033748661,-0.5815406529050066,0.2491755208835552,9.779392597215526
5225000000.0,21.4,0.09624353056431302,0.1442386722654797,-0.003087465418087067,-0.8966368417019684,0.5189528565955286,9.732990789574508
5230000000.0,21.4,0.09078182760488517,0.07501340179232852,-0.0015543792069406326,-1.025537501586475,0.8403275460077755,9.755065015864751
5235000000.0,21.4,0.05122156532433062,0.0005837931020181222,0.0006281771040692371,-0.9676571797968717,0.955591794949218,9.914576837039068
5240000000.0,21.4,-0.00021401527140097604,-0.07239915866655608,0.0010220427180367515,-0.7796961537014615,0.7683157394557574,9.76094491096435
5245000000.0,21.4,-0.04255965340218652,-0.1320000538921648,0.0010859659736020054,-0.5421963568098636,0.5231655680768557,9.560532413144823
5250000000.0,21.4,-0.08202208039026941,-0.16511711754135436,0.0010646287096252377,-0.26977163482661637,0.2893918387765184,9.613800407899804
5255000000.0,21.4,-0.0980002374994816,-0.1799668997581061,0.0005216899910067596,0.050721068378310696,0.0700419709910197,9.739174045585541
5260000000.0,21.4,-0.09953336797881056,-0.16890706930511215,0.0005536073506068619,0.38534047809080485,-0.09417804338378044,9.915164630368647
5265000000.0,21.4,-0.08917645891610064,-0.13237211092942536,0.001000793990425033,0.6704176498587765,-0.2376972203967722,9.98658
5270000000.0,21.4,-0.06436085505065976,-0.08122211398614912,-0.0003194507991440207,0.8434651307245513,-0.29351540472685406,9.936940274002303
5275000000.0,21.4,-0.03819448493521505,-0.016885314943200516,-0.002235744532313008,0.8946715901578159,-0.29969539753945396,9.869840795078908
5280000000.0,21.4,-0.010187546339844408,0.048155642856576586,-0.0001277358406741963,0.8040259590773596,-0.2770339897693399,9.837467487211676
5285000000.0,21.4,0.01769165641485204,0.1011170132578951,0.00014902883646843938,0.5853595177016953,-0.21709437610694376,9.814218402654785
5290000000.0,21.4,0.0434840654773823,0.14035585114208624,-0.0010646508437165,0.2760500091872001,-0.11732636697716367,9.815689697248098
5295000000.0,21.4,0.06519891749152784,0.16027469937962655,-0.0006281328358867127,-0.03639828831968289,-0.008827971509779715,9.801955594301957
5300000000.0,21.4,0.08075297203839608,0.15424845166649528,0.0,-0.34531539722265403,0.10398744124597442,9.778607691161577
5305000000.0,21.4,0.08688532742302532,0.12334913758525885,0.0,-0.6122440578219406,0.2476060486921605,9.73034197565392
5310000000.0,21.4,0.0862464026366417,0.07735346840910523,-0.0012137355424153057,-0.7594911282634114,0.5409288664400886,9.68619790314038
5315000000.0,21.4,0.06992926964335444,0.022389351105961446,-0.00201215648242566,-0.7634127546750277,0.8741694097124941,9.80117409712494
5320000000.0,21.4,0.037710587203080646,-0.037623013213114606,0.0003832855183441795,-0.6309778566499786,0.8609246699884467,9.877097196626872
5325000000.0,21.4,-0.010765932053993284,-0.09444020379013697,0.000692011823269442,-0.44978550047965504,0.7220135176383352,9.637833155387431
5330000000.0,21.4,-0.06297726670791563,-0.134115681946662,0.0007239850450998729,-0.17147590119205902,0.475585901192059,9.56828201411542
5335000000.0,21.4,-0.08371183482682527,-0.16329350026774703,0.00142660963812737,0.10693210877922109,0.25545115648831157,9.636266247137662
5340000000.0,21.4,-0.09876674107989179,-0.16814347735123156,0.0,0.4328214526468145,0.07298297713792977,9.781356770738768
5345000000.0,21.4,-0.09488077672547272,-0.14154666326493565,0.0009901590865757464,0.7488968534829685,-0.1806032420223324,9.911141203820211
5350000000.0,21.4,-0.08596420995806937,-0.08670911593542953,0.0022357329382652192,0.8730910391733104,-0.2756617274213173,9.897308272578682
5355000000.0,21.4,-0.06196027973770801,-0.030643509420908547,-0.0003087600330643287,0.94176,-0.33511001605780016,9.88622505218785
5360000000.0,21.4,-0.032888656570481775,0.03229565452882167,-0.0007665373085492927,0.8840750136570502,-0.360223095888431,9.952047862995878
5365000000.0,21.4,-0.0020177847446810424,0.10190694068531166,-0.00028746703727008564,0.6642322863654229,-0.3213743494957435,9.90172402104344
5370000000.0,21.4,0.028512342232177107,0.15476459603955467,-0.0007878303043435358,0.3688518277677183,-0.21503436555354366,9.919675069859352
5375000000.0,21.4,0.054066152184041906,0.17763528193649297,-0.0007985221244275526,-0.007361154102411546,-0.11771832955318329,9.856596977985369
5380000000.0,21.4,0.07332984109999893,0.17670466530056736,-0.002427369900413413,-0.3472776575015766,0.021190540500405405,9.80568297299973
5385000000.0,21.4,0.08751348344700764,0.15759794704015195,0.0,-0.6736557333177573,0.12439247355462474,9.754180786208508
5390000000.0,21.4,0.09067539424604434,0.11670468895374905,-0.00046846909556895586,-0.9250845704142457,0.27546626571996263,9.729361695305716
5395000000.0,21.4,0.08623578881287927,0.059849613002617916,-0.0019057136375456435,-1.043980409582804,0.5082624922755249,9.709348771251587
5400000000.0,21.4,0.07691638675085298,-0.004053326507921206,-0.0006387677397360303,-1.010427377786974,0.9633410560033105,9.743296300429364
5405000000.0,21.4,0.04573313081035673,-0.0660718453767088,0.0002554706273440278,-0.773221890315919,0.8591579102584791,9.979315770660559
5410000000.0,21.4,-0.012080142599567476,-0.12244429926926044,-0.0020440611939736134,-0.5419010373517104,0.6914073288413733,9.585545518675854
5415000000.0,21.4,-0.06910189962732691,-0.15742472349936767,0.0031939525311496,-0.2227812083445121,0.5254202342439024,9.46517902589939
5420000000.0,21.4,-0.08309541132262768,-0.18731291268882905,0.002682885849944338,0.13341968469489685,0.2585911788920118,9.538853810816939
5425000000.0,21.4,-0.10609424783686838,-0.18418269053044942,0.0,0.4939386633316866,0.18001023340240233,9.739860502108204
5430000000.0,21.4,-0.10793765564899323,-0.16584424084119703,0.0001490625646075056,0.9299901094247011,-0.10457660395346603,9.892795978115059
5435000000.0,21.4,-0.09513617778852994,-0.12257394864618512,0.001203066910426884,1.1076478389784783,-0.27762405568354054,9.85267297215823
5440000000.0,21.4,-0.07823569290635524,-0.0593950521509849,0.0014904538433666754,1.168567305665473,-0.37121113965831143,9.814709222661893
5445000000.0,21.4,-0.03885362872152196,-0.002912545656014033,-0.002842583318401166,1.1631703250863032,-0.4197687366114874,9.857873646100737
5450000000.0,21.4,-0.005427640614590145,0.06626039239552652,0.0,1.029066776946068,-0.31784336484173364,9.92772
5455000000.0,21.4,0.025059934098818598,0.1309724088300123,-0.00038332030048760055,0.8074567557699676,-0.25692294638852947,9.926836994043171
5460000000.0,21.4,0.05416341665540589,0.1865054851780111,-0.004003052643191763,0.4053443215183432,-0.16323659708286595,9.910060939460509
5465000000.0,21.4,0.07797435097372088,0.21206222802655886,-0.0011391879230441548,-0.03796905219379052,-0.0029419384893193843,9.815689163093593
5470000000.0,21.4,0.0948062849683319,0.21170959219432572,-0.002384864013155145,-0.4361569561756696,0.09888671246736712,9.763893531240935
5475000000.0,21.4,0.0948062849683319,0.18838685233461527,-0.0062281728116989595,-0.8284575840138759,0.27075727614367273,9.81147181903592
5480000000.0,21.4,0.09442290669760528,0.14249291977026485,-0.0031939525311496,-1.1065701288485013,0.3990752705818527,9.83864498711515
5485000000.0,21.4,0.0847126861827328,0.08298627986817043,-0.0031300503556712595,-1.294625593460456,0.79461,9.824814911172249
5490000000.0,21.4,0.06708532798981169,0.009239706996447878,-0.001022041664032406,-1.2823617070867173,0.7940210800900108,9.983242787176728
5495000000.0,21.4,0.013424620659644119,-0.060401769714948456,0.0010753089356614256,-1.1443327643176278,0.7628230383892305,9.815685317181153
5500000000.0,21.4,-0.027698734834698282,-0.1342164111549346,0.002129301687433,-0.8044167950729679,0.52974,9.407791495632615
5505000000.0,21.4,-0.06039014831486779,-0.1880051903112601,0.002129301687433,-0.513059792159398,0.52974,9.543758096992281
5510000000.0,21.4,-0.08160449793336613,-0.21673599844322156,0.003172671129403159,-0.07749418386874185,0.3663035805726358,9.63165516322625
5515000000.0,21.4,-0.09545587311668219,-0.22868782743494576,9.578369893068492e-05,0.4166361632351616,0.24878031453290314,9.861799370934193
5520000000.0,21.4,-0.10917468496391132,-0.20755919701794615,0.0010220764461758179,0.9401961898463619,-0.04669892380068927,9.925366243316263
5525000000.0,21.4,-0.10465511951266554,-0.1530254878322271,5.322089543780364e-05,1.1850505755959058,-0.2638913609629136,9.825204319518544
5530000000.0,21.4,-0.08737482390529337,-0.08211694822853861,0.0,1.298256581549766,-0.40378110379061105,9.755259448104693
5535000000.0,21.4,-0.044670862707612134,-0.015344548202386107,-0.0019802739049689065,1.295606592489266,-0.45763703755367036,9.769386815021468
5540000000.0,21.4,-0.015076536703038976,0.056970447370497085,-0.00017032077825833653,1.2136922315293224,-0.34374100109791,9.879063691294236
5545000000.0,21.4,0.021149611047374693,0.12294939705474031,-0.0019376879133804201,0.9834498073756981,-0.3156855845900558,9.861698376885084
5550000000.0,21.4,0.059015239369615065,0.17395926213318247,-0.002129301687433,0.617044795718448,-0.15499605956236057,9.894366431208363
5555000000.0,21.4,0.0818158592045456,0.1950899614570403,-0.003076852648329056,0.2033566603339666,-0.03256790520947905,9.79351790520948
5560000000.0,21.4,0.09633953455015203,0.19895638806119736,-0.0022570480681506663,-0.21425504384215044,0.09260780395227804,9.823734539981645
5565000000.0,21.4,0.10077901139478686,0.1862290847544031,-0.003055559652534811,-0.5891927075510272,0.27007135377551356,9.855224424280344
5570000000.0,21.4,0.10027857856342651,0.15955279607950348,-0.0031939525311496,-0.8991879539075796,0.4377240392396404,9.892796832762269
5575000000.0,21.4,0.09107988949383945,0.11115333516654619,-0.002288987561842034,-1.1252093823290938,0.8279687646581877,9.85659695856157
5580000000.0,21.4,0.049209377619186076,0.05769858871758645,-0.0003406647446122814,-1.1905420335392203,0.8020644077671442,10.038771692850517
5585000000.0,21.4,0.016781534513298082,-0.01200798005380082,-0.0008836719735132377,-1.1642503660723038,0.5730973794699739,9.618895125012251
5590000000.0,21.4,-0.0319544263929684,-0.06905734574050973,0.0006814001075157324,-1.0047381369981814,0.5458286171580863,9.44506691420957
5595000000.0,21.4,-0.05448865822354085,-0.13146991467402547,0.002789408799154571,-0.7486961570674615,0.40632824382908245,9.570441756170917
5600000000.0,21.4,-0.06859857438341783,-0.1787501248645689,0.002342220051327647,-0.44537051925500515,0.27860269472062693,9.760952175465622
5605000000.0,21.4,-0.08736093506540463,-0.20768312011021134,0.0012882157055082483,-0.05708962744319629,0.1310598580735986,9.8931901064448
5610000000.0,21.4,-0.08413837708093332,-0.2205262971471967,0.00023421135968886995,0.4043735394084354,0.07514427309744273,9.956169544837595
5615000000.0,21.4,-0.08776902574664719,-0.18900924772376365,-0.0008197929861305085,0.8802566441672665,-0.029529517840295186,10.027390472517105
5620000000.0,21.4,-0.06843195735915192,-0.1344364752536037,0.0013627886209836612,1.1772027290439273,-0.2303413107204131,9.777034470176744
5625000000.0,21.4,-0.05379965561723625,-0.061247088733834935,0.0005323017067604692,1.2581328277766284,-0.32127804629438045,9.603988688893487
5630000000.0,21.4,-0.029853187156552538,0.0041824976260542435,-0.0015757069848782877,1.258230490644005,-0.3190209812880098,9.58907901871199
5635000000.0,21.4,0.0025082439130495113,0.07156696315945202,-0.0005748876983489553,1.1052904014846041,-0.27095154328131543,9.780376645780967
5640000000.0,21.4,0.0347205407457486,0.13120052104668462,-0.0015331209932898016,0.8448340230432403,-0.19149021404790215,9.877493238200932
5645000000.0,21.4,0.05577515389762939,0.1704548088894308,-0.002129301687433,0.4726411948112119,-0.07622227458442275,9.89544520964735
5650000000.0,21.4,0.07340176969135828,0.1912097248559754,-0.005855639191686428,0.07847561022115612,0.05689953642259539,9.89829
5655000000.0,21.4,0.0847134903362123,0.19674713896917825,-0.0037794508912478812,-0.3303074231883742,0.1860971279406713,9.87798297047523
5660000000.0,21.4,0.0873537290623161,0.17679942455911016,-0.002129301687433,-0.7012227577935276,0.2990100093258001,9.808821810551619
5665000000.0,21.4,0.0802204489907229,0.1315651140571371,-0.00284262969459236,-0.9785502508957025,0.530724301074843,9.74770594982086
5670000000.0,21.4,0.06826352314500003,0.06617055271090722,-0.0017885895126251905,-1.0659547101329472,0.7379100722601007,9.744469420265894
5675000000.0,21.4,0.03136562200136993,0.0027621858885169825,-0.00037261583235145,-1.0374069488496696,0.8009866102300661,9.776646440920265
5680000000.0,21.4,-0.00933791879309491,-0.06515466567198891,-0.0006813885134679284,-0.888391283129113,0.6788497934562979,9.652252772801928
5685000000.0,21.4,-0.04183763523286849,-0.12986661886621387,0.000947575202995921,-0.6844413810896138,0.4846117915139179,9.642544514667346
5690000000.0,21.4,-0.07506142209209402,-0.17280611939994467,0.0008091106520856292,-0.36492757914307583,0.2660445474858455,9.731128484171384
5695000000.0,21.4,-0.09361397206424539,-0.19835359366257174,0.0012988980395531276,0.011580003504600034,0.11673789381457893,9.826776316803963
5700000000.0,21.4,-0.09182516648072928,-0.19962713681548452,0.0014904991655535576,0.4277210929204109,-0.015697771450577727,9.910062775009628
5705000000.0,21.4,-0.08402128773815627,-0.16100510122046258,0.0023209628916812004,0.7992243568217435,-0.16530016219170163,9.96068204325112
5710000000.0,21.4,-0.06860551037132741,-0.1003462844159651,0.0031939525311496,1.0116087527385875,-0.2939089309187893,9.840212138162421
5715000000.0,21.4,-0.04326010349785481,-0.037670998989918054,-0.00044722563797897985,1.063698188992982,-0.32657456697894566,9.724554566978945
5720000000.0,21.4,-0.017765790052417848,0.02931954717529054,-0.0025977360008585877,1.004542888958629,-0.26447660006276597,9.761343399937234
5725000000.0,21.4,0.012466424704103137,0.0952878356055758,-0.0027148717198268897,0.8372809423711094,-0.22563,9.82716805600628
5730000000.0,21.4,0.0408458452732733,0.15233433771798596,-0.002619028996652833,0.5238495480649955,-0.13557230792762306,9.896917601685375
5735000000.0,21.4,0.05847374855922876,0.1886958280238802,-0.0038221327972318806,0.1249747213892472,-0.0224641202315412,9.906333531627036
5740000000.0,21.4,0.07329214204275672,0.19089834683162482,-0.002555101525070246,-0.26251983671929835,0.08122836089658363,9.84806213104432
5745000000.0,21.4,0.082594776122433,0.16692624227248548,-0.0010859680816106968,-0.6065559824611598,0.2071885390767854,9.769777884102679
5750000000.0,21.4,0.08522445161698301,0.12410101789209646,-0.001596964144524773,-0.8583771220501712,0.3433517869896179,9.677563994818339
5755000000.0,21.4,0.08263724090352172,0.05621802820825734,-0.0005429597987053947,-0.9707980471358805,0.7198647306061473,9.60938494108015
5760000000.0,21.4,0.055311717586417855,-0.02348254652992898,0.0010220890942279676,-0.873087202972772,0.9970876168323761,9.824524505935544
5765000000.0,21.4,0.01380673609493439,-0.09595583885132966,0.0011285055889992755,-0.630289700544797,0.8691637604358377,9.88641508493705
5770000000.0,21.4,-0.03807554655779771,-0.1472768445957994,0.0009795031026394814,-0.34236507736355076,0.6433367739661678,9.63126101547271
5775000000.0,21.4,-0.08735397253732004,-0.1804552173105952,0.002129301687433,0.01962448689784488,0.354627798309278,9.611838448689785
5780000000.0,21.4,-0.10375715354690451,-0.1935826985078753,0.0016608431319075022,0.3994674662434747,0.09888277914782778,9.724066757660868
5785000000.0,21.4,-0.113849158591539,-0.1603083198892982,0.0006068387860881238,0.7305539586338395,-0.1223339586338396,9.885832536033526
5790000000.0,21.4,-0.10454691361225392,-0.10332567357617514,0.0008943311194625092,0.9174318747828187,-0.32569312463803124,9.92261812521718
5795000000.0,21.4,-0.07236660581145048,-0.04273355565265444,0.0008197445019306009,0.9716810628046106,-0.39063442512184426,9.912613275365533
5800000000.0,21.4,-0.043039464586684575,0.02982504251047511,-0.00021290571584247698,0.933910084813301,-0.39436177468391775,9.951264112658041
5805000000.0,21.4,-0.0124560597981539,0.10115535482581924,0.00064942477767661,0.7343736683658367,-0.3596339234690392,9.949497974489681
5810000000.0,21.4,0.01934108369480507,0.16258151081154937,-0.0008091591362855368,0.42221766020427665,-0.29017878432948785,9.926346261443163
5815000000.0,21.4,0.05111683616956571,0.2028209434793442,-0.0025232347576786837,0.003428417277084178,-0.18099280575902807,9.911729812949398
5820000000.0,21.4,0.0765259396876692,0.21011370916452074,-0.002044092814103988,-0.41594852186068526,-0.042377730395277306,9.87906115648831
5825000000.0,21.4,0.09171887119645773,0.18280349983941124,-0.0003726400744514038,-0.7803892337399924,0.0941778102981781,9.768796642276367
