Time,Device name,Chip Time(),Acceleration X(g),Acceleration Y(g),Acceleration Z(g),Angular velocity X(°/s),Angular velocity Y(°/s),Angular velocity Z(°/s),Angle X(°),Angle Y(°),Angle Z(°),Magnetic field X(ʯt),Magnetic field Y(ʯt),Magnetic field Z(ʯt),Temperature(℃),Quaternions 0(),Quaternions 1(),Quaternions 2(),Quaternions 3()
 15:44:50.839,c2:22:89:2b:7b:c3, 2015-01-01 00:59:52.220, 0.024, -0.033, 1.001, 0, 0, 0, -1.736, -1.483, 126.101, 57.722, -41.944, -12.936, 22.28, 0.45325, 0.00467, -0.01941, 0.89108,
 15:44:50.839,c2:22:89:2b:7b:c3, 2015-01-01 00:59:52.220, 0.027, -0.028, 1.003, 0, 0, 0, -1.736, -1.483, 126.101, 57.722, -41.944, -12.936, 22.28, 0.45325, 0.00467, -0.01941, 0.89108,
 15:44:50.839,c2:22:89:2b:7b:c3, 2015-01-01 00:59:52.220, 0.028, -0.029, 1, 0, 0, 0, -1.736, -1.483, 126.101, 57.722, -41.944, -12.936, 22.28, 0.45325, 0.00467, -0.01941, 0.89108,
 15:44:50.839,c2:22:89:2b:7b:c3, 2015-01-01 00:59:52.220, 0.027, -0.032, 1.004, 0, 0, 0, -1.736, -1.483, 126.101, 57.722, -41.944, -12.936, 22.28, 0.45325, 0.00467, -0.01941, 0.89108,
 15:44:50.898,c2:22:89:2b:7b:c3, 2015-01-01 00:59:52.220, 0.026, -0.031, 1.001, 0, 0, 0, -1.736, -1.483, 126.101, 57.722, -41.944, -12.936, 22.28, 0.45325, 0.00467, -0.01941, 0.89108,
 15:44:50.898,c2:22:89:2b:7b:c3, 2015-01-01 00:59:52.220, 0.025, -0.028, 1, 0, 0, 0, -1.736, -1.483, 126.101, 57.722, -41.944, -12.936, 22.28, 0.45325, 0.00467, -0.01941, 0.89108,
 15:44:50.898,c2:22:89:2b:7b:c3, 2015-01-01 00:59:52.220, 0.028, -0.03, 1, 0, 0, 0, -1.736, -1.483, 126.101, 57.722, -41.944, -12.936, 22.28, 0.45325, 0.00467, -0.01941, 0.89108,
 15:44:50.898,c2:22:89:2b:7b:c3, 2015-01-01 00:59:52.220, 0.025, -0.031, 1.003, 0, 0, 0, -1.736, -1.483, 126.101, 57.722, -41.944, -12.936, 22.28, 0.45325, 0.00467, -0.01941, 0.89108,
 15:44:50.927,c2:22:89:2b:7b:c3, 2015-01-01 00:59:52.580, 0.026, -0.029, 1.002, 0, 0, 0, -1.736, -1.483, 126.101, 57.722, -41.944, -12.936, 22.28, 0.45325, 0.00467, -0.01941, 0.89108,
 15:44:50.927,c2:22:89:2b:7b:c3, 2015-01-01 00:59:52.580, 0.027, -0.034, 1, 0, 0, 0, -1.736, -1.483, 126.101, 57.722, -41.944, -12.936, 22.28, 0.45325, 0.00467, -0.01941, 0.89108,
 15:44:50.927,c2:22:89:2b:7b:c3, 2015-01-01 00:59:52.580, 0.026, -0.031, 1.001, 0, 0, 0, -1.736, -1.483, 126.101, 57.722, -41.944, -12.936, 22.28, 0.45325, 0.00467, -0.01941, 0.89108,
 15:44:50.927,c2:22:89:2b:7b:c3, 2015-01-01 00:59:52.580, 0.026, -0.03, 1.002, 0, 0, 0, -1.736, -1.483, 126.101, 57.722, -41.944, -12.936, 22.28, 0.45325, 0.00467, -0.01941, 0.89108,
 15:44:50.958,c2:22:89:2b:7b:c3, 2015-01-01 00:59:52.580, 0.028, -0.028, 1.001, 0, 0, 0, -1.736, -1.483, 126.101, 57.722, -41.944, -12.936, 22.28, 0.45325, 0.00467, -0.01941, 0.89108,
 15:44:50.958,c2:22:89:2b:7b:c3, 2015-01-01 00:59:52.580, 0.025, -0.029, 1.003, 0, 0, 0, -1.736, -1.483, 126.101, 57.722, -41.944, -12.936, 22.28, 0.45325, 0.00467, -0.01941, 0.89108,
 15:44:50.958,c2:22:89:2b:7b:c3, 2015-01-01 00:59:52.580, 0.022, -0.031, 1, 0, 0, 0, -1.736, -1.483, 126.101, 57.722, -41.944, -12.936, 22.28, 0.45325, 0.00467, -0.01941, 0.89108,
 15:44:50.958,c2:22:89:2b:7b:c3, 2015-01-01 00:59:52.580, 0.026, -0.029, 1, 0, 0, 0, -1.736, -1.483, 126.101, 57.722, -41.944, -12.936, 22.28, 0.45325, 0.00467, -0.01941, 0.89108,
 15:44:51.018,c2:22:89:2b:7b:c3, 2015-01-01 00:59:52.580, 0.028, -0.032, 1, 0, 0, 0, -1.736, -1.483, 126.101, 57.722, -41.944, -12.936, 22.28, 0.45325, 0.00467, -0.01941, 0.89108,
 15:44:51.018,c2:22:89:2b:7b:c3, 2015-01-01 00:59:52.580, 0.025, -0.032, 1.001, 0, 0, 0, -1.736, -1.483, 126.101, 57.722, -41.944, -12.936, 22.28, 0.45325, 0.00467, -0.01941, 0.89108,
 15:44:51.018,c2:22:89:2b:7b:c3, 2015-01-01 00:59:52.580, 0.023, -0.027, 1.001, 0, 0, 0, -1.736, -1.483, 126.101, 57.722, -41.944, -12.936, 22.28, 0.45325, 0.00467, -0.01941, 0.89108,
 15:44:51.018,c2:22:89:2b:7b:c3, 2015-01-01 00:59:52.580, 0.027, -0.031, 1.001, 0, 0, 0, -1.736, -1.483, 126.101, 57.722, -41.944, -12.936, 22.28, 0.45325, 0.00467, -0.01941, 0.89108,
 15:44:51.047,c2:22:89:2b:7b:c3, 2015-01-01 00:59:52.580, 0.024, -0.033, 1.001, 0, 0, 0, -1.736, -1.483, 126.101, 57.722, -41.944, -12.936, 22.28, 0.45325, 0.00467, -0.01941, 0.89108,
 15:44:51.047,c2:22:89:2b:7b:c3, 2015-01-01 00:59:52.580, 0.023, -0.03, 1.001, 0, 0, 0, -1.736, -1.483, 126.101, 57.722, -41.944, -12.936, 22.28, 0.45325, 0.00467, -0.01941, 0.89108,
 15:44:51.047,c2:22:89:2b:7b:c3, 2015-01-01 00:59:52.580, 0.029, -0.029, 1.003, 0, 0, 0, -1.736, -1.483, 126.101, 57.722, -41.944, -12.936, 22.28, 0.45325, 0.00467, -0.01941, 0.89108,
 15:44:51.047,c2:22:89:2b:7b:c3, 2015-01-01 00:59:52.580, 0.023, -0.032, 1, 0, 0, 0, -1.736, -1.483, 126.101, 57.722, -41.944, -12.936, 22.28, 0.45325, 0.00467, -0.01941, 0.89108,
 15:44:51.079,c2:22:89:2b:7b:c3, 2015-01-01 00:59:52.580, 0.024, -0.031, 1.004, 0, 0, 0, -1.736, -1.483, 126.101, 57.722, -41.944, -12.936, 22.28, 0.45325, 0.00467, -0.01941, 0.89108,
 15:44:51.079,c2:22:89:2b:7b:c3, 2015-01-01 00:59:52.580, 0.027, -0.03, 1.002, 0, 0, 0, -1.736, -1.483, 126.101, 57.722, -41.944, -12.936, 22.28, 0.45325, 0.00467, -0.01941, 0.89108,
 15:44:51.079,c2:22:89:2b:7b:c3, 2015-01-01 00:59:52.580, 0.025, -0.031, 1.003, 0, 0, 0, -1.736, -1.483, 126.101, 57.722, -41.944, -12.936, 22.28, 0.45325, 0.00467, -0.01941, 0.89108,
 15:44:51.079,c2:22:89:2b:7b:c3, 2015-01-01 00:59:52.580, 0.024, -0.028, 1.003, 0, 0, 0, -1.736, -1.483, 126.101, 57.722, -41.944, -12.936, 22.28, 0.45325, 0.00467, -0.01941, 0.89108,
 15:44:51.137,c2:22:89:2b:7b:c3, 2015-01-01 00:59:52.580, 0.024, -0.029, 1.001, 0, 0, 0, -1.736, -1.483, 126.101, 57.722, -41.944, -12.936, 22.28, 0.45325, 0.00467, -0.01941, 0.89108,
 15:44:51.137,c2:22:89:2b:7b:c3, 2015-01-01 00:59:52.580, 0.028, -0.031, 1, 0, 0, 0, -1.736, -1.483, 126.101, 57.722, -41.944, -12.936, 22.28, 0.45325, 0.00467, -0.01941, 0.89108,
 15:44:51.137,c2:22:89:2b:7b:c3, 2015-01-01 00:59:52.580, 0.024, -0.029, 1.001, 0, 0, 0, -1.736, -1.483, 126.101, 57.722, -41.944, -12.936, 22.28, 0.45325, 0.00467, -0.01941, 0.89108,
 15:44:51.137,c2:22:89:2b:7b:c3, 2015-01-01 00:59:52.580, 0.026, -0.028, 1.003, 0, 0, 0, -1.736, -1.483, 126.101, 57.722, -41.944, -12.936, 22.28, 0.45325, 0.00467, -0.01941, 0.89108,
 15:44:51.168,c2:22:89:2b:7b:c3, 2015-01-01 00:59:52.580, 0.027, -0.028, 1, 0, 0, 0, -1.736, -1.483, 126.101, 57.722, -41.846, -13.034, 22.28, 0.45325, 0.00467, -0.01941, 0.89108,
 15:44:51.169,c2:22:89:2b:7b:c3, 2015-01-01 00:59:52.580, 0.028, -0.031, 1.002, 0, 0, 0, -1.736, -1.483, 126.101, 57.722, -41.846, -13.034, 22.28, 0.45325, 0.00467, -0.01941, 0.89108,
 15:44:51.169,c2:22:89:2b:7b:c3, 2015-01-01 00:59:52.580, 0.026, -0.031, 1.003, 0, 0, 0, -1.736, -1.483, 126.101, 57.722, -41.846, -13.034, 22.28, 0.45325, 0.00467, -0.01941, 0.89108,
 15:44:51.169,c2:22:89:2b:7b:c3, 2015-01-01 00:59:52.580, 0.025, -0.03, 1.003, 0, 0, 0, -1.736, -1.483, 126.101, 57.722, -41.846, -13.034, 22.28, 0.45325, 0.00467, -0.01941, 0.89108,
 15:44:51.197,c2:22:89:2b:7b:c3, 2015-01-01 00:59:52.580, 0.023, -0.034, 1.004, 0, 0, 0, -1.736, -1.483, 126.101, 57.722, -41.846, -13.034, 22.28, 0.45325, 0.00467, -0.01941, 0.89108,
 15:44:51.197,c2:22:89:2b:7b:c3, 2015-01-01 00:59:52.580, 0.024, -0.031, 1.001, 0, 0, 0, -1.736, -1.483, 126.101, 57.722, -41.846, -13.034, 22.28, 0.45325, 0.00467, -0.01941, 0.89108,
 15:44:51.197,c2:22:89:2b:7b:c3, 2015-01-01 00:59:52.580, 0.026, -0.031, 1.005, 0, 0, 0, -1.736, -1.483, 126.101, 57.722, -41.846, -13.034, 22.28, 0.45325, 0.00467, -0.01941, 0.89108,
 15:44:51.197,c2:22:89:2b:7b:c3, 2015-01-01 00:59:52.580, 0.027, -0.031, 1, 0, 0, 0, -1.736, -1.483, 126.101, 57.722, -41.846, -13.034, 22.28, 0.45325, 0.00467, -0.01941, 0.89108,
 15:44:51.258,c2:22:89:2b:7b:c3, 2015-01-01 00:59:52.580, 0.026, -0.03, 1.001, 0, 0, 0, -1.736, -1.483, 126.101, 57.722, -41.846, -13.034, 22.28, 0.45325, 0.00467, -0.01938, 0.89111,
 15:44:51.258,c2:22:89:2b:7b:c3, 2015-01-01 00:59:52.580, 0.026, -0.031, 1.005, 0, 0, 0, -1.736, -1.483, 126.101, 57.722, -41.846, -13.034, 22.28, 0.45325, 0.00467, -0.01938, 0.89111,
 15:44:51.258,c2:22:89:2b:7b:c3, 2015-01-01 00:59:52.580, 0.024, -0.03, 1.002, 0, 0, 0, -1.736, -1.483, 126.101, 57.722, -41.846, -13.034, 22.28, 0.45325, 0.00467, -0.01938, 0.89111,
 15:44:51.258,c2:22:89:2b:7b:c3, 2015-01-01 00:59:52.580, 0.026, -0.032, 1.003, 0, 0, 0, -1.736, -1.483, 126.101, 57.722, -41.846, -13.034, 22.28, 0.45325, 0.00467, -0.01938, 0.89111,
 15:44:51.288,c2:22:89:2b:7b:c3, 2015-01-01 00:59:52.580, 0.024, -0.029, 1.004, 0, 0, 0, -1.736, -1.483, 126.101, 57.722, -41.846, -13.034, 22.28, 0.45325, 0.00467, -0.01938, 0.89111,
 15:44:51.288,c2:22:89:2b:7b:c3, 2015-01-01 00:59:52.580, 0.028, -0.031, 1.003, 0, 0, 0, -1.736, -1.483, 126.101, 57.722, -41.846, -13.034, 22.28, 0.45325, 0.00467, -0.01938, 0.89111,
 15:44:51.288,c2:22:89:2b:7b:c3, 2015-01-01 00:59:52.580, 0.023, -0.032, 1.002, 0, 0, 0, -1.736, -1.483, 126.101, 57.722, -41.846, -13.034, 22.28, 0.45325, 0.00467, -0.01938, 0.89111,
 15:44:51.288,c2:22:89:2b:7b:c3, 2015-01-01 00:59:52.580, 0.025, -0.03, 1.001, 0, 0, 0, -1.736, -1.483, 126.101, 57.722, -41.846, -13.034, 22.28, 0.45325, 0.00467, -0.01938, 0.89111,
 15:44:51.318,c2:22:89:2b:7b:c3, 2015-01-01 00:59:52.580, 0.027, -0.03, 1.003, 0, 0, 0, -1.736, -1.483, 126.101, 57.722, -41.846, -13.034, 22.28, 0.45325, 0.00467, -0.01938, 0.89111,
 15:44:51.318,c2:22:89:2b:7b:c3, 2015-01-01 00:59:52.580, 0.029, -0.029, 1.002, 0, 0, 0, -1.736, -1.483, 126.101, 57.722, -41.846, -13.034, 22.28, 0.45325, 0.00467, -0.01938, 0.89111,
 15:44:51.318,c2:22:89:2b:7b:c3, 2015-01-01 00:59:52.580, 0.026, -0.032, 1.004, 0, 0, 0, -1.736, -1.483, 126.101, 57.722, -41.846, -13.034, 22.28, 0.45325, 0.00467, -0.01938, 0.89111,
 15:44:51.318,c2:22:89:2b:7b:c3, 2015-01-01 00:59:52.580, 0.024, -0.031, 1.002, 0, 0, 0, -1.736, -1.483, 126.101, 57.722, -41.846, -13.034, 22.28, 0.45325, 0.00467, -0.01938, 0.89111,
 15:44:51.378,c2:22:89:2b:7b:c3, 2015-01-01 00:59:52.580, 0.026, -0.031, 1.004, 0, 0, 0, -1.736, -1.483, 126.101, 57.722, -41.846, -13.034, 22.41, 0.45325, 0.00467, -0.01938, 0.89111,
 15:44:51.378,c2:22:89:2b:7b:c3, 2015-01-01 00:59:52.580, 0.025, -0.031, 1.001, 0, 0, 0, -1.736, -1.483, 126.101, 57.722, -41.846, -13.034, 22.41, 0.45325, 0.00467, -0.01938, 0.89111,
 15:44:51.378,c2:22:89:2b:7b:c3, 2015-01-01 00:59:52.580, 0.026, -0.03, 1.003, 0, 0, 0, -1.736, -1.483, 126.101, 57.722, -41.846, -13.034, 22.41, 0.45325, 0.00467, -0.01938, 0.89111,
 15:44:51.378,c2:22:89:2b:7b:c3, 2015-01-01 00:59:52.580, 0.025, -0.027, 1.001, 0, 0, 0, -1.736, -1.483, 126.101, 57.722, -41.846, -13.034, 22.41, 0.45325, 0.00467, -0.01938, 0.89111,
 15:44:51.408,c2:22:89:2b:7b:c3, 2015-01-01 00:59:53.085, 0.028, -0.031, 1.003, 0, 0, 0, -1.736, -1.483, 126.101, 57.722, -41.846, -13.034, 22.41, 0.45325, 0.00467, -0.01938, 0.89111,
 15:44:51.408,c2:22:89:2b:7b:c3, 2015-01-01 00:59:53.085, 0.026, -0.03, 1.005, 0, 0, 0, -1.736, -1.483, 126.101, 57.722, -41.846, -13.034, 22.41, 0.45325, 0.00467, -0.01938, 0.89111,
 15:44:51.408,c2:22:89:2b:7b:c3, 2015-01-01 00:59:53.085, 0.025, -0.027, 1.003, 0, 0, 0, -1.736, -1.483, 126.101, 57.722, -41.846, -13.034, 22.41, 0.45325, 0.00467, -0.01938, 0.89111,
 15:44:51.408,c2:22:89:2b:7b:c3, 2015-01-01 00:59:53.085, 0.026, -0.031, 1.001, 0, 0, 0, -1.736, -1.483, 126.101, 57.722, -41.846, -13.034, 22.41, 0.45325, 0.00467, -0.01938, 0.89111,
 15:44:51.469,c2:22:89:2b:7b:c3, 2015-01-01 00:59:53.085, 0.026, -0.033, 1.002, 0, 0, 0, -1.736, -1.483, 126.101, 57.722, -41.846, -13.034, 22.41, 0.45325, 0.00467, -0.01938, 0.89111,
 15:44:51.469,c2:22:89:2b:7b:c3, 2015-01-01 00:59:53.085, 0.024, -0.029, 1.004, 0, 0, 0, -1.736, -1.483, 126.101, 57.722, -41.846, -13.034, 22.41, 0.45325, 0.00467, -0.01938, 0.89111,
 15:44:51.469,c2:22:89:2b:7b:c3, 2015-01-01 00:59:53.085, 0.026, -0.031, 1.001, 0, 0, 0, -1.736, -1.483, 126.101, 57.722, -41.846, -13.034, 22.41, 0.45325, 0.00467, -0.01938, 0.89111,
 15:44:51.469,c2:22:89:2b:7b:c3, 2015-01-01 00:59:53.085, 0.026, -0.029, 1, 0, 0, 0, -1.736, -1.483, 126.101, 57.722, -41.846, -13.034, 22.41, 0.45325, 0.00467, -0.01938, 0.89111,
 15:44:51.498,c2:22:89:2b:7b:c3, 2015-01-01 00:59:53.085, 0.023, -0.031, 1.001, 0, 0, 0, -1.736, -1.483, 126.101, 57.722, -41.846, -13.034, 22.41, 0.45325, 0.00467, -0.01938, 0.89111,
 15:44:51.498,c2:22:89:2b:7b:c3, 2015-01-01 00:59:53.085, 0.025, -0.029, 1.001, 0, 0, 0, -1.736, -1.483, 126.101, 57.722, -41.846, -13.034, 22.41, 0.45325, 0.00467, -0.01938, 0.89111,
 15:44:51.498,c2:22:89:2b:7b:c3, 2015-01-01 00:59:53.085, 0.027, -0.029, 1.001, 0, 0, 0, -1.736, -1.483, 126.101, 57.722, -41.846, -13.034, 22.41, 0.45325, 0.00467, -0.01938, 0.89111,
 15:44:51.498,c2:22:89:2b:7b:c3, 2015-01-01 00:59:53.085, 0.028, -0.03, 1.002, 0, 0, 0, -1.736, -1.483, 126.101, 57.722, -41.846, -13.034, 22.41, 0.45325, 0.00467, -0.01938, 0.89111,
 15:44:51.528,c2:22:89:2b:7b:c3, 2015-01-01 00:59:53.085, 0.026, -0.031, 1.003, 0, 0, 0, -1.736, -1.483, 126.101, 57.722, -41.846, -13.034, 22.41, 0.45325, 0.00467, -0.01938, 0.89111,
 15:44:51.528,c2:22:89:2b:7b:c3, 2015-01-01 00:59:53.085, 0.025, -0.031, 1.004, 0, 0, 0, -1.736, -1.483, 126.101, 57.722, -41.846, -13.034, 22.41, 0.45325, 0.00467, -0.01938, 0.89111,
 15:44:51.528,c2:22:89:2b:7b:c3, 2015-01-01 00:59:53.085, 0.025, -0.03, 1, 0, 0, 0, -1.736, -1.483, 126.101, 57.722, -41.846, -13.034, 22.41, 0.45325, 0.00467, -0.01938, 0.89111,
 15:44:51.528,c2:22:89:2b:7b:c3, 2015-01-01 00:59:53.085, 0.027, -0.032, 0.998, 0, 0, 0, -1.736, -1.483, 126.101, 57.722, -41.846, -13.034, 22.41, 0.45325, 0.00467, -0.01938, 0.89111,
 15:44:51.587,c2:22:89:2b:7b:c3, 2015-01-01 00:59:53.085, 0.026, -0.032, 1.003, 0, 0, 0, -1.736, -1.483, 126.101, 57.722, -41.846, -13.034, 22.41, 0.45325, 0.00467, -0.01938, 0.89111,
 15:44:51.587,c2:22:89:2b:7b:c3, 2015-01-01 00:59:53.085, 0.026, -0.029, 1.006, 0, 0, 0, -1.736, -1.483, 126.101, 57.722, -41.846, -13.034, 22.41, 0.45325, 0.00467, -0.01938, 0.89111,
 15:44:51.587,c2:22:89:2b:7b:c3, 2015-01-01 00:59:53.085, 0.024, -0.029, 1.003, 0, 0, 0, -1.736, -1.483, 126.101, 57.722, -41.846, -13.034, 22.41, 0.45325, 0.00467, -0.01938, 0.89111,
 15:44:51.587,c2:22:89:2b:7b:c3, 2015-01-01 00:59:53.085, 0.025, -0.032, 1.003, 0, 0, 0, -1.736, -1.483, 126.101, 57.722, -41.846, -13.034, 22.41, 0.45325, 0.00467, -0.01938, 0.89111,
 15:44:51.618,c2:22:89:2b:7b:c3, 2015-01-01 00:59:53.085, 0.027, -0.032, 1.001, 0, 0, 0, -1.736, -1.483, 126.101, 57.722, -41.846, -13.034, 22.41, 0.45325, 0.00467, -0.01938, 0.89111,
 15:44:51.618,c2:22:89:2b:7b:c3, 2015-01-01 00:59:53.085, 0.025, -0.03, 1.002, 0, 0, 0, -1.736, -1.483, 126.101, 57.722, -41.846, -13.034, 22.41, 0.45325, 0.00467, -0.01938, 0.89111,
 15:44:51.618,c2:22:89:2b:7b:c3, 2015-01-01 00:59:53.085, 0.025, -0.031, 1.002, 0, 0, 0, -1.736, -1.483, 126.101, 57.722, -41.846, -13.034, 22.41, 0.45325, 0.00467, -0.01938, 0.89111,
 15:44:51.618,c2:22:89:2b:7b:c3, 2015-01-01 00:59:53.085, 0.024, -0.03, 1.001, 0, 0, 0, -1.736, -1.483, 126.101, 57.722, -41.846, -13.034, 22.41, 0.45325, 0.00467, -0.01938, 0.89111,
 15:44:51.647,c2:22:89:2b:7b:c3, 2015-01-01 00:59:53.085, 0.025, -0.033, 1.002, 0, 0, 0, -1.736, -1.483, 126.101, 57.624, -41.944, -13.034, 22.41, 0.45325, 0.00467, -0.01938, 0.89111,
 15:44:51.647,c2:22:89:2b:7b:c3, 2015-01-01 00:59:53.085, 0.025, -0.032, 1.002, 0, 0, 0, -1.736, -1.483, 126.101, 57.624, -41.944, -13.034, 22.41, 0.45325, 0.00467, -0.01938, 0.89111,
 15:44:51.647,c2:22:89:2b:7b:c3, 2015-01-01 00:59:53.085, 0.026, -0.027, 1.002, 0, 0, 0, -1.736, -1.483, 126.101, 57.624, -41.944, -13.034, 22.41, 0.45325, 0.00467, -0.01938, 0.89111,
 15:44:51.647,c2:22:89:2b:7b:c3, 2015-01-01 00:59:53.085, 0.026, -0.031, 1, 0, 0, 0, -1.736, -1.483, 126.101, 57.624, -41.944, -13.034, 22.41, 0.45325, 0.00467, -0.01938, 0.89111,
 15:44:51.708,c2:22:89:2b:7b:c3, 2015-01-01 00:59:53.085, 0.023, -0.03, 1.001, 0, 0, 0, -1.736, -1.483, 126.101, 57.624, -41.944, -13.034, 22.41, 0.45325, 0.00467, -0.01938, 0.89111,
 15:44:51.708,c2:22:89:2b:7b:c3, 2015-01-01 00:59:53.085, 0.027, -0.032, 1.004, 0, 0, 0, -1.736, -1.483, 126.101, 57.624, -41.944, -13.034, 22.41, 0.45325, 0.00467, -0.01938, 0.89111,
 15:44:51.708,c2:22:89:2b:7b:c3, 2015-01-01 00:59:53.085, 0.027, -0.031, 1.002, 0, 0, 0, -1.736, -1.483, 126.101, 57.624, -41.944, -13.034, 22.41, 0.45325, 0.00467, -0.01938, 0.89111,
 15:44:51.708,c2:22:89:2b:7b:c3, 2015-01-01 00:59:53.085, 0.022, -0.031, 1.005, 0, 0, 0, -1.736, -1.483, 126.101, 57.624, -41.944, -13.034, 22.41, 0.45325, 0.00467, -0.01938, 0.89111,
 15:44:51.739,c2:22:89:2b:7b:c3, 2015-01-01 00:59:53.085, 0.026, -0.029, 1.004, 0, 0, 0, -1.736, -1.483, 126.101, 57.624, -41.944, -13.034, 22.41, 0.45325, 0.00464, -0.01938, 0.89111,
 15:44:51.739,c2:22:89:2b:7b:c3, 2015-01-01 00:59:53.085, 0.028, -0.032, 1.002, 0, 0, 0, -1.736, -1.483, 126.101, 57.624, -41.944, -13.034, 22.41, 0.45325, 0.00464, -0.01938, 0.89111,
 15:44:51.739,c2:22:89:2b:7b:c3, 2015-01-01 00:59:53.085, 0.026, -0.032, 1.003, 0, 0, 0, -1.736, -1.483, 126.101, 57.624, -41.944, -13.034, 22.41, 0.45325, 0.00464, -0.01938, 0.89111,
 15:44:51.739,c2:22:89:2b:7b:c3, 2015-01-01 00:59:53.085, 0.026, -0.027, 1.002, 0, 0, 0, -1.736, -1.483, 126.101, 57.624, -41.944, -13.034, 22.41, 0.45325, 0.00464, -0.01938, 0.89111,
 15:44:51.769,c2:22:89:2b:7b:c3, 2015-01-01 00:59:53.085, 0.028, -0.032, 1.002, 0, 0, 0, -1.736, -1.483, 126.101, 57.624, -41.944, -13.034, 22.41, 0.45325, 0.00464, -0.01938, 0.89111,
 15:44:51.769,c2:22:89:2b:7b:c3, 2015-01-01 00:59:53.085, 0.026, -0.03, 1.002, 0, 0, 0, -1.736, -1.483, 126.101, 57.624, -41.944, -13.034, 22.41, 0.45325, 0.00464, -0.01938, 0.89111,
 15:44:51.769,c2:22:89:2b:7b:c3, 2015-01-01 00:59:53.085, 0.024, -0.028, 1.002, 0, 0, 0, -1.736, -1.483, 126.101, 57.624, -41.944, -13.034, 22.41, 0.45325, 0.00464, -0.01938, 0.89111,
 15:44:51.769,c2:22:89:2b:7b:c3, 2015-01-01 00:59:53.085, 0.027, -0.03, 1.002, 0, 0, 0, -1.736, -1.483, 126.101, 57.624, -41.944, -13.034, 22.41, 0.45325, 0.00464, -0.01938, 0.89111,
 15:44:51.798,c2:22:89:2b:7b:c3, 2015-01-01 00:59:53.470, 0.026, -0.033, 1.003, 0, 0, 0, -1.736, -1.483, 126.101, 57.624, -41.944, -13.034, 22.41, 0.45325, 0.00464, -0.01938, 0.89111,
 15:44:51.798,c2:22:89:2b:7b:c3, 2015-01-01 00:59:53.470, 0.024, -0.03, 1.002, 0, 0, 0, -1.736, -1.483, 126.101, 57.624, -41.944, -13.034, 22.41, 0.45325, 0.00464, -0.01938, 0.89111,
 15:44:51.798,c2:22:89:2b:7b:c3, 2015-01-01 00:59:53.470, 0.024, -0.028, 1.002, 0, 0, 0, -1.736, -1.483, 126.101, 57.624, -41.944, -13.034, 22.41, 0.45325, 0.00464, -0.01938, 0.89111,
 15:44:51.798,c2:22:89:2b:7b:c3, 2015-01-01 00:59:53.470, 0.028, -0.029, 1.003, 0, 0, 0, -1.736, -1.483, 126.101, 57.624, -41.944, -13.034, 22.41, 0.45325, 0.00464, -0.01938, 0.89111,
 15:44:51.857,c2:22:89:2b:7b:c3, 2015-01-01 00:59:53.470, 0.027, -0.031, 1.002, 0, 0, 0, -1.736, -1.483, 126.101, 57.624, -41.944, -13.034, 22.41, 0.45325, 0.00464, -0.01938, 0.89111,
 15:44:51.857,c2:22:89:2b:7b:c3, 2015-01-01 00:59:53.470, 0.025, -0.032, 1.003, 0, 0, 0, -1.736, -1.483, 126.101, 57.624, -41.944, -13.034, 22.41, 0.45325, 0.00464, -0.01938, 0.89111,
 15:44:51.857,c2:22:89:2b:7b:c3, 2015-01-01 00:59:53.470, 0.025, -0.03, 1.001, 0, 0, 0, -1.736, -1.483, 126.101, 57.624, -41.944, -13.034, 22.41, 0.45325, 0.00464, -0.01938, 0.89111,
 15:44:51.857,c2:22:89:2b:7b:c3, 2015-01-01 00:59:53.470, 0.028, -0.031, 1.002, 0, 0, 0, -1.736, -1.483, 126.101, 57.624, -41.944, -13.034, 22.41, 0.45325, 0.00464, -0.01938, 0.89111,
 15:44:51.889,c2:22:89:2b:7b:c3, 2015-01-01 00:59:53.470, 0.025, -0.03, 1.002, 0, 0, 0, -1.736, -1.483, 126.101, 57.624, -41.944, -13.034, 22.41, 0.45325, 0.00464, -0.01938, 0.89111,
 15:44:51.889,c2:22:89:2b:7b:c3, 2015-01-01 00:59:53.470, 0.027, -0.032, 1.002, 0, 0, 0, -1.736, -1.483, 126.101, 57.624, -41.944, -13.034, 22.41, 0.45325, 0.00464, -0.01938, 0.89111,
 15:44:51.889,c2:22:89:2b:7b:c3, 2015-01-01 00:59:53.470, 0.026, -0.031, 1.001, 0, 0, 0, -1.736, -1.483, 126.101, 57.624, -41.944, -13.034, 22.41, 0.45325, 0.00464, -0.01938, 0.89111,
 15:44:51.889,c2:22:89:2b:7b:c3, 2015-01-01 00:59:53.470, 0.025, -0.029, 1.001, 0, 0, 0, -1.736, -1.483, 126.101, 57.624, -41.944, -13.034, 22.41, 0.45325, 0.00464, -0.01938, 0.89111,
 15:44:51.917,c2:22:89:2b:7b:c3, 2015-01-01 00:59:53.470, 0.025, -0.031, 1, 0, 0, 0, -1.736, -1.483, 126.101, 57.624, -41.944, -13.034, 22.41, 0.45325, 0.00464, -0.01938, 0.89111,
 15:44:51.917,c2:22:89:2b:7b:c3, 2015-01-01 00:59:53.470, 0.026, -0.033, 1.001, 0, 0, 0, -1.736, -1.483, 126.101, 57.624, -41.944, -13.034, 22.41, 0.45325, 0.00464, -0.01938, 0.89111,
 15:44:51.917,c2:22:89:2b:7b:c3, 2015-01-01 00:59:53.470, 0.021, -0.028, 1.002, 0, 0, 0, -1.736, -1.483, 126.101, 57.624, -41.944, -13.034, 22.41, 0.45325, 0.00464, -0.01938, 0.89111,
 15:44:51.917,c2:22:89:2b:7b:c3, 2015-01-01 00:59:53.470, 0.026, -0.031, 1.002, 0, 0, 0, -1.736, -1.483, 126.101, 57.624, -41.944, -13.034, 22.41, 0.45325, 0.00464, -0.01938, 0.89111,
 15:44:51.980,c2:22:89:2b:7b:c3, 2015-01-01 00:59:53.470, 0.025, -0.032, 0.999, 0, 0, 0, -1.736, -1.483, 126.101, 57.624, -41.944, -13.034, 22.41, 0.45325, 0.00464, -0.01938, 0.89111,
 15:44:51.980,c2:22:89:2b:7b:c3, 2015-01-01 00:59:53.470, 0.026, -0.03, 1.002, 0, 0, 0, -1.736, -1.483, 126.101, 57.624, -41.944, -13.034, 22.41, 0.45325, 0.00464, -0.01938, 0.89111,
 15:44:51.980,c2:22:89:2b:7b:c3, 2015-01-01 00:59:53.470, 0.026, -0.03, 1.002, 0, 0, 0, -1.736, -1.483, 126.101, 57.624, -41.944, -13.034, 22.41, 0.45325, 0.00464, -0.01938, 0.89111,
 15:44:51.980,c2:22:89:2b:7b:c3, 2015-01-01 00:59:53.470, 0.027, -0.031, 1.002, 0, 0, 0, -1.736, -1.483, 126.101, 57.624, -41.944, -13.034, 22.41, 0.45325, 0.00464, -0.01938, 0.89111,
 15:44:52.007,c2:22:89:2b:7b:c3, 2015-01-01 00:59:53.470, 0.024, -0.031, 1.004, 0, 0, 0, -1.736, -1.483, 126.101, 57.624, -41.846, -13.034, 22.41, 0.45325, 0.00464, -0.01938, 0.89111,
 15:44:52.007,c2:22:89:2b:7b:c3, 2015-01-01 00:59:53.470, 0.024, -0.031, 1.004, 0, 0, 0, -1.736, -1.483, 126.101, 57.624, -41.846, -13.034, 22.41, 0.45325, 0.00464, -0.01938, 0.89111,
 15:44:52.007,c2:22:89:2b:7b:c3, 2015-01-01 00:59:53.470, 0.025, -0.028, 1.002, 0, 0, 0, -1.736, -1.483, 126.101, 57.624, -41.846, -13.034, 22.41, 0.45325, 0.00464, -0.01938, 0.89111,
 15:44:52.007,c2:22:89:2b:7b:c3, 2015-01-01 00:59:53.470, 0.024, -0.03, 1.001, 0, 0, 0, -1.736, -1.483, 126.101, 57.624, -41.846, -13.034, 22.41, 0.45325, 0.00464, -0.01938, 0.89111,
 15:44:52.067,c2:22:89:2b:7b:c3, 2015-01-01 00:59:53.470, 0.028, -0.031, 1.002, 0, 0, 0, -1.736, -1.478, 126.101, 57.624, -41.846, -13.034, 22.41, 0.45325, 0.00464, -0.01938, 0.89111,
 15:44:52.067,c2:22:89:2b:7b:c3, 2015-01-01 00:59:53.470, 0.023, -0.028, 1.002, 0, 0, 0, -1.736, -1.478, 126.101, 57.624, -41.846, -13.034, 22.41, 0.45325, 0.00464, -0.01938, 0.89111,
 15:44:52.067,c2:22:89:2b:7b:c3, 2015-01-01 00:59:53.470, 0.026, -0.03, 1.002, 0, 0, 0, -1.736, -1.478, 126.101, 57.624, -41.846, -13.034, 22.41, 0.45325, 0.00464, -0.01938, 0.89111,
 15:44:52.067,c2:22:89:2b:7b:c3, 2015-01-01 00:59:53.470, 0.024, -0.033, 1.001, 0, 0, 0, -1.736, -1.478, 126.101, 57.624, -41.846, -13.034, 22.41, 0.45325, 0.00464, -0.01938, 0.89111,
 15:44:52.099,c2:22:89:2b:7b:c3, 2015-01-01 00:59:53.470, 0.024, -0.029, 1.003, 0, 0, 0, -1.736, -1.478, 126.101, 57.624, -41.846, -13.034, 22.41, 0.45325, 0.00464, -0.01938, 0.89111,
 15:44:52.099,c2:22:89:2b:7b:c3, 2015-01-01 00:59:53.470, 0.025, -0.032, 1, 0, 0, 0, -1.736, -1.478, 126.101, 57.624, -41.846, -13.034, 22.41, 0.45325, 0.00464, -0.01938, 0.89111,
 15:44:52.099,c2:22:89:2b:7b:c3, 2015-01-01 00:59:53.470, 0.024, -0.03, 1.003, 0, 0, 0, -1.736, -1.478, 126.101, 57.624, -41.846, -13.034, 22.41, 0.45325, 0.00464, -0.01938, 0.89111,
 15:44:52.099,c2:22:89:2b:7b:c3, 2015-01-01 00:59:53.470, 0.027, -0.029, 1.001, 0, 0, 0, -1.736, -1.478, 126.101, 57.624, -41.846, -13.034, 22.41, 0.45325, 0.00464, -0.01938, 0.89111,
 15:44:52.127,c2:22:89:2b:7b:c3, 2015-01-01 00:59:53.470, 0.028, -0.03, 1.002, 0, 0, 0, -1.736, -1.478, 126.101, 57.624, -41.846, -13.034, 22.41, 0.45325, 0.00464, -0.01938, 0.89111,
 15:44:52.127,c2:22:89:2b:7b:c3, 2015-01-01 00:59:53.470, 0.026, -0.031, 1.002, 0, 0, 0, -1.736, -1.478, 126.101, 57.624, -41.846, -13.034, 22.41, 0.45325, 0.00464, -0.01938, 0.89111,
 15:44:52.127,c2:22:89:2b:7b:c3, 2015-01-01 00:59:53.470, 0.023, -0.03, 1.003, 0, 0, 0, -1.736, -1.478, 126.101, 57.624, -41.846, -13.034, 22.41, 0.45325, 0.00464, -0.01938, 0.89111,
 15:44:52.127,c2:22:89:2b:7b:c3, 2015-01-01 00:59:53.470, 0.025, -0.031, 1.001, 0, 0, 0, -1.736, -1.478, 126.101, 57.624, -41.846, -13.034, 22.41, 0.45325, 0.00464, -0.01938, 0.89111,
 15:44:52.157,c2:22:89:2b:7b:c3, 2015-01-01 00:59:53.830, 0.027, -0.032, 1.002, 0, 0, 0, -1.736, -1.478, 126.101, 57.624, -41.846, -13.034, 22.41, 0.45325, 0.00464, -0.01938, 0.89111,
 15:44:52.157,c2:22:89:2b:7b:c3, 2015-01-01 00:59:53.830, 0.024, -0.031, 1.002, 0, 0, 0, -1.736, -1.478, 126.101, 57.624, -41.846, -13.034, 22.41, 0.45325, 0.00464, -0.01938, 0.89111,
 15:44:52.157,c2:22:89:2b:7b:c3, 2015-01-01 00:59:53.830, 0.027, -0.029, 1.003, 0, 0, 0, -1.736, -1.478, 126.101, 57.624, -41.846, -13.034, 22.41, 0.45325, 0.00464, -0.01938, 0.89111,
 15:44:52.157,c2:22:89:2b:7b:c3, 2015-01-01 00:59:53.830, 0.027, -0.029, 1.002, 0, 0, 0, -1.736, -1.478, 126.101, 57.624, -41.846, -13.034, 22.41, 0.45325, 0.00464, -0.01938, 0.89111,
 15:44:52.279,c2:22:89:2b:7b:c3, 2015-01-01 00:59:53.830, 0.026, -0.03, 1.003, 0, 0, 0, -1.736, -1.478, 126.101, 57.624, -41.846, -13.034, 22.41, 0.45325, 0.00464, -0.01938, 0.89111,
 15:44:52.279,c2:22:89:2b:7b:c3, 2015-01-01 00:59:53.830, 0.024, -0.029, 1.002, 0, 0, 0, -1.736, -1.478, 126.101, 57.624, -41.846, -13.034, 22.41, 0.45325, 0.00464, -0.01938, 0.89111,
 15:44:52.279,c2:22:89:2b:7b:c3, 2015-01-01 00:59:53.830, 0.028, -0.029, 1.003, 0, 0, 0, -1.736, -1.478, 126.101, 57.624, -41.846, -13.034, 22.41, 0.45325, 0.00464, -0.01938, 0.89111,
 15:44:52.279,c2:22:89:2b:7b:c3, 2015-01-01 00:59:53.830, 0.026, -0.03, 1.002, 0, 0, 0, -1.736, -1.478, 126.101, 57.624, -41.846, -13.034, 22.41, 0.45325, 0.00464, -0.01938, 0.89111,
 15:44:52.279,c2:22:89:2b:7b:c3, 2015-01-01 00:59:53.830, 0.023, -0.031, 1.002, 0, 0, 0, -1.736, -1.478, 126.101, 57.624, -41.846, -13.034, 22.41, 0.45325, 0.00464, -0.01938, 0.89111,
 15:44:52.279,c2:22:89:2b:7b:c3, 2015-01-01 00:59:53.830, 0.025, -0.03, 1.001, 0, 0, 0, -1.736, -1.478, 126.101, 57.624, -41.846, -13.034, 22.41, 0.45325, 0.00464, -0.01938, 0.89111,
 15:44:52.279,c2:22:89:2b:7b:c3, 2015-01-01 00:59:53.830, 0.028, -0.029, 0.999, 0, 0, 0, -1.736, -1.478, 126.101, 57.624, -41.846, -13.034, 22.41, 0.45325, 0.00464, -0.01938, 0.89111,
 15:44:52.279,c2:22:89:2b:7b:c3, 2015-01-01 00:59:53.830, 0.025, -0.03, 1.002, 0, 0, 0, -1.736, -1.478, 126.101, 57.624, -41.846, -13.034, 22.41, 0.45325, 0.00464, -0.01938, 0.89111,
 15:44:52.279,c2:22:89:2b:7b:c3, 2015-01-01 00:59:53.830, 0.024, -0.032, 1.002, 0, 0, 0, -1.736, -1.478, 126.101, 57.624, -41.846, -13.034, 22.41, 0.45325, 0.00464, -0.01938, 0.89111,
 15:44:52.279,c2:22:89:2b:7b:c3, 2015-01-01 00:59:53.830, 0.027, -0.03, 1, 0, 0, 0, -1.736, -1.478, 126.101, 57.624, -41.846, -13.034, 22.41, 0.45325, 0.00464, -0.01938, 0.89111,
 15:44:52.279,c2:22:89:2b:7b:c3, 2015-01-01 00:59:53.830, 0.025, -0.027, 1.003, 0, 0, 0, -1.736, -1.478, 126.101, 57.624, -41.846, -13.034, 22.41, 0.45325, 0.00464, -0.01938, 0.89111,
 15:44:52.279,c2:22:89:2b:7b:c3, 2015-01-01 00:59:53.830, 0.024, -0.031, 1.003, 0, 0, 0, -1.736, -1.478, 126.101, 57.624, -41.846, -13.034, 22.41, 0.45325, 0.00464, -0.01938, 0.89111,
 15:44:52.340,c2:22:89:2b:7b:c3, 2015-01-01 00:59:53.830, 0.024, -0.029, 1.001, 0, 0, 0, -1.736, -1.478, 126.101, 57.624, -41.846, -13.034, 22.41, 0.45325, 0.00464, -0.01938, 0.89111,
 15:44:52.340,c2:22:89:2b:7b:c3, 2015-01-01 00:59:53.830, 0.026, -0.029, 1.003, 0, 0, 0, -1.736, -1.478, 126.101, 57.624, -41.846, -13.034, 22.41, 0.45325, 0.00464, -0.01938, 0.89111,
 15:44:52.340,c2:22:89:2b:7b:c3, 2015-01-01 00:59:53.830, 0.024, -0.031, 1.002, 0, 0, 0, -1.736, -1.478, 126.101, 57.624, -41.846, -13.034, 22.41, 0.45325, 0.00464, -0.01938, 0.89111,
 15:44:52.340,c2:22:89:2b:7b:c3, 2015-01-01 00:59:53.830, 0.028, -0.028, 1.002, 0, 0, 0, -1.736, -1.478, 126.101, 57.624, -41.846, -13.034, 22.41, 0.45325, 0.00464, -0.01938, 0.89111,
 15:44:52.369,c2:22:89:2b:7b:c3, 2015-01-01 00:59:53.830, 0.026, -0.029, 1, 0, 0, 0, -1.736, -1.478, 126.101, 57.722, -41.944, -12.936, 22.41, 0.45325, 0.00464, -0.01938, 0.89111,
 15:44:52.369,c2:22:89:2b:7b:c3, 2015-01-01 00:59:53.830, 0.024, -0.029, 1.001, 0, 0, 0, -1.736, -1.478, 126.101, 57.722, -41.944, -12.936, 22.41, 0.45325, 0.00464, -0.01938, 0.89111,
 15:44:52.369,c2:22:89:2b:7b:c3, 2015-01-01 00:59:53.830, 0.027, -0.032, 1.001, 0, 0, 0, -1.736, -1.478, 126.101, 57.722, -41.944, -12.936, 22.41, 0.45325, 0.00464, -0.01938, 0.89111,
 15:44:52.369,c2:22:89:2b:7b:c3, 2015-01-01 00:59:53.830, 0.024, -0.031, 1.002, 0, 0, 0, -1.736, -1.478, 126.101, 57.722, -41.944, -12.936, 22.41, 0.45325, 0.00464, -0.01938, 0.89111,
 15:44:52.427,c2:22:89:2b:7b:c3, 2015-01-01 00:59:53.830, 0.025, -0.031, 1, 0, 0, 0, -1.736, -1.478, 126.101, 57.722, -41.944, -12.936, 22.41, 0.45325, 0.00464, -0.01938, 0.89111,
 15:44:52.427,c2:22:89:2b:7b:c3, 2015-01-01 00:59:53.830, 0.024, -0.03, 1.002, 0, 0, 0, -1.736, -1.478, 126.101, 57.722, -41.944, -12.936, 22.41, 0.45325, 0.00464, -0.01938, 0.89111,
 15:44:52.427,c2:22:89:2b:7b:c3, 2015-01-01 00:59:53.830, 0.028, -0.028, 1.001, 0, 0, 0, -1.736, -1.478, 126.101, 57.722, -41.944, -12.936, 22.41, 0.45325, 0.00464, -0.01938, 0.89111,
 15:44:52.427,c2:22:89:2b:7b:c3, 2015-01-01 00:59:53.830, 0.025, -0.03, 1.003, 0, 0, 0, -1.736, -1.478, 126.101, 57.722, -41.944, -12.936, 22.41, 0.45325, 0.00464, -0.01938, 0.89111,
 15:44:52.457,c2:22:89:2b:7b:c3, 2015-01-01 00:59:53.830, 0.024, -0.029, 1.002, 0, 0, 0, -1.736, -1.478, 126.101, 57.722, -41.944, -12.936, 22.41, 0.45325, 0.00464, -0.01938, 0.89111,
 15:44:52.457,c2:22:89:2b:7b:c3, 2015-01-01 00:59:53.830, 0.026, -0.028, 1.001, 0, 0, 0, -1.736, -1.478, 126.101, 57.722, -41.944, -12.936, 22.41, 0.45325, 0.00464, -0.01938, 0.89111,
 15:44:52.457,c2:22:89:2b:7b:c3, 2015-01-01 00:59:53.830, 0.024, -0.033, 1.003, 0, 0, 0, -1.736, -1.478, 126.101, 57.722, -41.944, -12.936, 22.41, 0.45325, 0.00464, -0.01938, 0.89111,
 15:44:52.457,c2:22:89:2b:7b:c3, 2015-01-01 00:59:53.830, 0.021, -0.028, 1.002, 0, 0, 0, -1.736, -1.478, 126.101, 57.722, -41.944, -12.936, 22.41, 0.45325, 0.00464, -0.01938, 0.89111,
 15:44:52.489,c2:22:89:2b:7b:c3, 2015-01-01 00:59:53.830, 0.025, -0.031, 0.999, 0, 0, 0, -1.736, -1.478, 126.101, 57.722, -41.944, -12.936, 22.41, 0.45325, 0.00464, -0.01938, 0.89111,
 15:44:52.490,c2:22:89:2b:7b:c3, 2015-01-01 00:59:53.830, 0.025, -0.03, 1, 0, 0, 0, -1.736, -1.478, 126.101, 57.722, -41.944, -12.936, 22.41, 0.45325, 0.00464, -0.01938, 0.89111,
 15:44:52.490,c2:22:89:2b:7b:c3, 2015-01-01 00:59:53.830, 0.025, -0.032, 1.004, 0, 0, 0, -1.736, -1.478, 126.101, 57.722, -41.944, -12.936, 22.41, 0.45325, 0.00464, -0.01938, 0.89111,
 15:44:52.490,c2:22:89:2b:7b:c3, 2015-01-01 00:59:53.830, 0.024, -0.029, 1.003, 0, 0, 0, -1.736, -1.478, 126.101, 57.722, -41.944, -12.936, 22.41, 0.45325, 0.00464, -0.01938, 0.89111,
 15:44:52.549,c2:22:89:2b:7b:c3, 2015-01-01 00:59:54.185, 0.026, -0.027, 1, 0, 0, 0, -1.736, -1.478, 126.101, 57.722, -41.944, -12.936, 22.41, 0.45325, 0.00464, -0.01938, 0.89111,
 15:44:52.549,c2:22:89:2b:7b:c3, 2015-01-01 00:59:54.185, 0.027, -0.031, 1.002, 0, 0, 0, -1.736, -1.478, 126.101, 57.722, -41.944, -12.936, 22.41, 0.45325, 0.00464, -0.01938, 0.89111,
 15:44:52.549,c2:22:89:2b:7b:c3, 2015-01-01 00:59:54.185, 0.025, -0.031, 1.001, 0, 0, 0, -1.736, -1.478, 126.101, 57.722, -41.944, -12.936, 22.41, 0.45325, 0.00464, -0.01938, 0.89111,
 15:44:52.549,c2:22:89:2b:7b:c3, 2015-01-01 00:59:54.185, 0.026, -0.03, 1.004, 0, 0, 0, -1.736, -1.478, 126.101, 57.722, -41.944, -12.936, 22.41, 0.45325, 0.00464, -0.01938, 0.89111,
 15:44:52.577,c2:22:89:2b:7b:c3, 2015-01-01 00:59:54.185, 0.026, -0.031, 1.002, 0, 0, 0, -1.736, -1.478, 126.101, 57.722, -41.944, -12.936, 22.41, 0.45325, 0.00464, -0.01938, 0.89111,
 15:44:52.577,c2:22:89:2b:7b:c3, 2015-01-01 00:59:54.185, 0.027, -0.031, 1, 0, 0, 0, -1.736, -1.478, 126.101, 57.722, -41.944, -12.936, 22.41, 0.45325, 0.00464, -0.01938, 0.89111,
 15:44:52.577,c2:22:89:2b:7b:c3, 2015-01-01 00:59:54.185, 0.024, -0.032, 1.004, 0, 0, 0, -1.736, -1.478, 126.101, 57.722, -41.944, -12.936, 22.41, 0.45325, 0.00464, -0.01938, 0.89111,
 15:44:52.577,c2:22:89:2b:7b:c3, 2015-01-01 00:59:54.185, 0.026, -0.03, 1.003, 0, 0, 0, -1.736, -1.478, 126.101, 57.722, -41.944, -12.936, 22.41, 0.45325, 0.00464, -0.01938, 0.89111,
 15:44:52.607,c2:22:89:2b:7b:c3, 2015-01-01 00:59:54.185, 0.026, -0.03, 1, 0, 0, 0, -1.736, -1.478, 126.101, 57.722, -41.944, -12.936, 22.41, 0.45325, 0.00464, -0.01938, 0.89111,
 15:44:52.607,c2:22:89:2b:7b:c3, 2015-01-01 00:59:54.185, 0.025, -0.029, 1.002, 0, 0, 0, -1.736, -1.478, 126.101, 57.722, -41.944, -12.936, 22.41, 0.45325, 0.00464, -0.01938, 0.89111,
 15:44:52.607,c2:22:89:2b:7b:c3, 2015-01-01 00:59:54.185, 0.026, -0.031, 1.003, 0, 0, 0, -1.736, -1.478, 126.101, 57.722, -41.944, -12.936, 22.41, 0.45325, 0.00464, -0.01938, 0.89111,
 15:44:52.607,c2:22:89:2b:7b:c3, 2015-01-01 00:59:54.185, 0.025, -0.031, 1, 0, 0, 0, -1.736, -1.478, 126.101, 57.722, -41.944, -12.936, 22.41, 0.45325, 0.00464, -0.01938, 0.89111,
 15:44:52.668,c2:22:89:2b:7b:c3, 2015-01-01 00:59:54.185, 0.026, -0.031, 1.002, 0, 0, 0, -1.736, -1.478, 126.101, 57.722, -41.944, -12.936, 22.41, 0.45325, 0.00464, -0.01938, 0.89111,
 15:44:52.668,c2:22:89:2b:7b:c3, 2015-01-01 00:59:54.185, 0.026, -0.029, 1.003, 0, 0, 0, -1.736, -1.478, 126.101, 57.722, -41.944, -12.936, 22.41, 0.45325, 0.00464, -0.01938, 0.89111,
 15:44:52.668,c2:22:89:2b:7b:c3, 2015-01-01 00:59:54.185, 0.029, -0.032, 1.003, 0, 0, 0, -1.736, -1.478, 126.101, 57.722, -41.944, -12.936, 22.41, 0.45325, 0.00464, -0.01938, 0.89111,
 15:44:52.668,c2:22:89:2b:7b:c3, 2015-01-01 00:59:54.185, 0.026, -0.032, 1.003, 0, 0, 0, -1.736, -1.478, 126.101, 57.722, -41.944, -12.936, 22.41, 0.45325, 0.00464, -0.01938, 0.89111,
 15:44:52.697,c2:22:89:2b:7b:c3, 2015-01-01 00:59:54.185, 0.028, -0.03, 1.001, 0, 0, 0, -1.736, -1.478, 126.101, 57.722, -41.944, -12.936, 22.41, 0.45325, 0.00464, -0.01938, 0.89111,
 15:44:52.697,c2:22:89:2b:7b:c3, 2015-01-01 00:59:54.185, 0.026, -0.032, 1.002, 0, 0, 0, -1.736, -1.478, 126.101, 57.722, -41.944, -12.936, 22.41, 0.45325, 0.00464, -0.01938, 0.89111,
 15:44:52.697,c2:22:89:2b:7b:c3, 2015-01-01 00:59:54.185, 0.026, -0.032, 1.003, 0, 0, 0, -1.736, -1.478, 126.101, 57.722, -41.944, -12.936, 22.41, 0.45325, 0.00464, -0.01938, 0.89111,
 15:44:52.697,c2:22:89:2b:7b:c3, 2015-01-01 00:59:54.185, 0.026, -0.028, 1.002, 0, 0, 0, -1.736, -1.478, 126.101, 57.722, -41.944, -12.936, 22.41, 0.45325, 0.00464, -0.01938, 0.89111,
 15:44:52.728,c2:22:89:2b:7b:c3, 2015-01-01 00:59:54.185, 0.025, -0.03, 1.001, 0, 0, 0, -1.736, -1.478, 126.101, 57.722, -41.846, -13.034, 22.41, 0.45325, 0.00464, -0.01938, 0.89111,
 15:44:52.728,c2:22:89:2b:7b:c3, 2015-01-01 00:59:54.185, 0.025, -0.032, 1.002, 0, 0, 0, -1.741, -1.478, 126.101, 57.722, -41.846, -13.034, 22.41, 0.45325, 0.00464, -0.01938, 0.89111,
 15:44:52.728,c2:22:89:2b:7b:c3, 2015-01-01 00:59:54.185, 0.024, -0.029, 1.002, 0, 0, 0, -1.741, -1.478, 126.101, 57.722, -41.846, -13.034, 22.41, 0.45325, 0.00464, -0.01938, 0.89111,
 15:44:52.728,c2:22:89:2b:7b:c3, 2015-01-01 00:59:54.185, 0.024, -0.029, 1.002, 0, 0, 0, -1.741, -1.478, 126.101, 57.722, -41.846, -13.034, 22.41, 0.45325, 0.00464, -0.01938, 0.89111,
 15:44:52.818,c2:22:89:2b:7b:c3, 2015-01-01 00:59:54.185, 0.027, -0.03, 1.003, 0, 0, 0, -1.741, -1.478, 126.101, 57.722, -41.846, -13.034, 22.41, 0.45325, 0.00464, -0.01938, 0.89111,
 15:44:52.818,c2:22:89:2b:7b:c3, 2015-01-01 00:59:54.185, 0.024, -0.03, 1.003, 0, 0, 0, -1.741, -1.478, 126.101, 57.722, -41.846, -13.034, 22.41, 0.45325, 0.00464, -0.01938, 0.89111,
 15:44:52.818,c2:22:89:2b:7b:c3, 2015-01-01 00:59:54.185, 0.026, -0.03, 1.003, 0, 0, 0, -1.741, -1.478, 126.101, 57.722, -41.846, -13.034, 22.41, 0.45325, 0.00464, -0.01938, 0.89111,
 15:44:52.818,c2:22:89:2b:7b:c3, 2015-01-01 00:59:54.185, 0.025, -0.028, 1.001, 0, 0, 0, -1.741, -1.478, 126.101, 57.722, -41.846, -13.034, 22.41, 0.45325, 0.00464, -0.01938, 0.89111,
 15:44:52.820,c2:22:89:2b:7b:c3, 2015-01-01 00:59:54.185, 0.026, -0.03, 1.001, 0, 0, 0, -1.741, -1.478, 126.101, 57.722, -41.846, -13.034, 22.41, 0.45325, 0.00464, -0.01938, 0.89111,
 15:44:52.820,c2:22:89:2b:7b:c3, 2015-01-01 00:59:54.185, 0.026, -0.029, 1.006, 0, 0, 0, -1.741, -1.478, 126.101, 57.722, -41.846, -13.034, 22.41, 0.45325, 0.00464, -0.01941, 0.89108,
 15:44:52.820,c2:22:89:2b:7b:c3, 2015-01-01 00:59:54.185, 0.024, -0.03, 1.002, 0, 0, 0, -1.741, -1.478, 126.101, 57.722, -41.846, -13.034, 22.41, 0.45325, 0.00464, -0.01941, 0.89108,
 15:44:52.820,c2:22:89:2b:7b:c3, 2015-01-01 00:59:54.185, 0.026, -0.03, 1.002, 0, 0, 0, -1.741, -1.478, 126.101, 57.722, -41.846, -13.034, 22.41, 0.45325, 0.00464, -0.01941, 0.89108,
 15:44:52.849,c2:22:89:2b:7b:c3, 2015-01-01 00:59:54.185, 0.026, -0.028, 1.003, 0, 0, 0, -1.741, -1.478, 126.101, 57.722, -41.846, -13.034, 22.41, 0.45325, 0.00464, -0.01941, 0.89108,
 15:44:52.849,c2:22:89:2b:7b:c3, 2015-01-01 00:59:54.185, 0.11, -0.034, 1.001, -0.488, 0.244, 0, -1.741, -1.478, 126.101, 57.722, -41.846, -13.034, 22.41, 0.45325, 0.00464, -0.01941, 0.89108,
 15:44:52.849,c2:22:89:2b:7b:c3, 2015-01-01 00:59:54.185, 0.025, -0.073, 1.015, -8.606, 0.854, 0.488, -1.796, -1.472, 126.101, 57.722, -41.846, -13.034, 22.41, 0.45325, 0.00464, -0.01941, 0.89108,
 15:44:52.849,c2:22:89:2b:7b:c3, 2015-01-01 00:59:54.185, -0.069, -0.205, 1.027, -8.972, 7.08, 0.183, -1.906, -1.417, 126.101, 57.722, -41.846, -13.034, 22.41, 0.45325, 0.00464, -0.01941, 0.89108,
 15:44:52.907,c2:22:89:2b:7b:c3, 2015-01-01 00:59:54.185, -0.063, -0.205, 0.961, 0, 2.258, -0.488, -1.945, -1.39, 126.101, 57.722, -41.846, -13.034, 22.41, 0.45325, 0.00464, -0.01941, 0.89108,
 15:44:52.907,c2:22:89:2b:7b:c3, 2015-01-01 00:59:54.185, -0.009, -0.113, 0.951, 11.719, -3.723, -0.732, -1.873, -1.412, 126.107, 57.722, -41.846, -13.034, 22.41, 0.45325, 0.00464, -0.01941, 0.89108,
 15:44:52.907,c2:22:89:2b:7b:c3, 2015-01-01 00:59:54.185, 0.293, 0.03, 1.081, 16.602, -12.329, -0.366, -1.725, -1.516, 126.107, 57.722, -41.846, -13.034, 22.41, 0.45325, 0.00464, -0.01941, 0.89108,
 15:44:52.907,c2:22:89:2b:7b:c3, 2015-01-01 00:59:54.185, 0.053, 0.073, 1.092, 6.836, -4.211, 0.427, -1.615, -1.599, 126.107, 57.722, -41.846, -13.034, 22.41, 0.45325, 0.00464, -0.01941, 0.89108,
 15:44:52.937,c2:22:89:2b:7b:c3, 2015-01-01 00:59:54.575, 0.065, 0.081, 1.071, -6.714, 5.493, 0.671, -1.648, -1.566, 126.107, 57.722, -41.846, -13.034, 22.41, 0.45325, 0.00464, -0.01941, 0.89108,
 15:44:52.937,c2:22:89:2b:7b:c3, 2015-01-01 00:59:54.575, -0.062, 0.063, 0.935, -10.437, 5.554, 0.427, -1.736, -1.527, 126.107, 57.722, -41.846, -13.034, 22.41, 0.45325, 0.00464, -0.01941, 0.89108,
 15:44:52.937,c2:22:89:2b:7b:c3, 2015-01-01 00:59:54.575, 0.015, -0.113, 1.01, -12.146, 7.324, 0.122, -1.862, -1.456, 126.107, 57.722, -41.846, -13.034, 22.41, 0.45325, 0.00464, -0.01941, 0.89108,
 15:44:52.937,c2:22:89:2b:7b:c3, 2015-01-01 00:59:54.575, -0.012, -0.219, 0.977, -4.761, 0.061, 0.061, -1.934, -1.439, 126.107, 57.722, -41.846, -13.034, 22.41, 0.45325, 0.00464, -0.01941, 0.89108,
 15:44:52.969,c2:22:89:2b:7b:c3, 2015-01-01 00:59:54.575, -0.047, -0.202, 0.994, 2.136, 0.61, 0.061, -1.939, -1.434, 126.107, 57.722, -41.846, -13.034, 22.41, 0.45325, 0.00464, -0.01941, 0.89108,
 15:44:52.969,c2:22:89:2b:7b:c3, 2015-01-01 00:59:54.575, 0.003, -0.081, 1.044, 11.536, -5.005, -0.183, -1.857, -1.467, 126.107, 57.722, -41.846, -13.034, 22.41, 0.45325, 0.00464, -0.01941, 0.89108,
 15:44:52.969,c2:22:89:2b:7b:c3, 2015-01-01 00:59:54.575, 0.221, 0.074, 1.027, 14.099, -8.85, -0.61, -1.725, -1.544, 126.107, 57.722, -41.846, -13.034, 22.41, 0.45325, 0.00464, -0.01941, 0.89108,
 15:44:52.969,c2:22:89:2b:7b:c3, 2015-01-01 00:59:54.575, 0.053, 0.104, 1.039, 2.258, -3.357, -0.305, -1.67, -1.599, 126.107, 57.722, -41.846, -13.034, 22.41, 0.45325, 0.00464, -0.01941, 0.89108,
 15:44:53.028,c2:22:89:2b:7b:c3, 2015-01-01 00:59:54.575, 0.068, 0.036, 1.044, -8.484, 4.761, 0, -1.736, -1.566, 126.107, 57.722, -41.846, -13.034, 22.41, 0.45325, 0.00464, -0.01941, 0.89108,
 15:44:53.028,c2:22:89:2b:7b:c3, 2015-01-01 00:59:54.575, -0.092, -0.091, 0.931, -13.245, 9.338, 0.305, -1.868, -1.489, 126.107, 57.722, -41.846, -13.034, 22.41, 0.45325, 0.00464, -0.01941, 0.89108,
 15:44:53.028,c2:22:89:2b:7b:c3, 2015-01-01 00:59:54.575, -0.056, -0.166, 1.019, -5.615, 4.028, 0.427, -1.95, -1.428, 126.107, 57.722, -41.846, -13.034, 22.41, 0.45325, 0.00464, -0.01941, 0.89108,
 15:44:53.028,c2:22:89:2b:7b:c3, 2015-01-01 00:59:54.575, 0.005, -0.097, 1.021, 5.432, -4.456, 0, -1.923, -1.456, 126.107, 57.722, -41.846, -13.034, 22.41, 0.45325, 0.00464, -0.01941, 0.89108,
 15:44:53.058,c2:22:89:2b:7b:c3, 2015-01-01 00:59:54.575, 0.079, -0.022, 1.009, 9.827, -7.446, -0.305, -1.829, -1.516, 126.107, 57.722, -41.846, -13.034, 22.41, 0.45325, 0.00464, -0.01941, 0.89108,
 15:44:53.058,c2:22:89:2b:7b:c3, 2015-01-01 00:59:54.575, 0.101, 0.038, 0.948, 7.751, -5.737, -0.183, -1.747, -1.582, 126.107, 57.722, -41.846, -13.034, 22.41, 0.45325, 0.00464, -0.01941, 0.89108,
 15:44:53.058,c2:22:89:2b:7b:c3, 2015-01-01 00:59:54.575, 0.057, 0.09, 0.97, 0, 1.404, -0.061, -1.73, -1.588, 126.107, 57.722, -41.846, -13.034, 22.41, 0.45325, 0.00464, -0.01941, 0.89108,
 15:44:53.058,c2:22:89:2b:7b:c3, 2015-01-01 00:59:54.575, 0.014, 0.045, 0.999, -7.629, 4.028, 0.122, -1.78, -1.549, 126.107, 57.722, -41.846, -13.034, 22.41, 0.45325, 0.00464, -0.01941, 0.89108,
 15:44:53.089,c2:22:89:2b:7b:c3, 2015-01-01 00:59:54.575, 0.007, -0.066, 1.035, -10.803, 5.554, 0.244, -1.879, -1.5, 126.107, 57.722, -41.846, -13.034, 22.41, 0.45325, 0.00464, -0.01941, 0.89108,
 15:44:53.089,c2:22:89:2b:7b:c3, 2015-01-01 00:59:54.575, -0.026, -0.176, 1.002, -7.019, 2.869, 0.183, -1.967, -1.461, 126.107, 57.722, -41.846, -13.034, 22.41, 0.45325, 0.00464, -0.01941, 0.89108,
 15:44:53.089,c2:22:89:2b:7b:c3, 2015-01-01 00:59:54.575, -0.045, -0.17, 1, 2.319, -0.122, 0, -1.972, -1.45, 126.107, 57.722, -41.846, -13.034, 22.41, 0.45325, 0.00464, -0.01941, 0.89108,
 15:44:53.089,c2:22:89:2b:7b:c3, 2015-01-01 00:59:54.575, -0.009, -0.058, 0.999, 10.559, -4.761, -0.183, -1.89, -1.489, 126.107, 57.722, -41.846, -13.034, 22.41, 0.45325, 0.00464, -0.01941, 0.89108,
 15:44:53.148,c2:22:89:2b:7b:c3, 2015-01-01 00:59:54.575, 0.196, 0.047, 1.007, 13.245, -8.911, -0.61, -1.763, -1.56, 126.107, 57.722, -41.846, -13.034, 22.41, 0.45325, 0.00464, -0.01941, 0.89108,
 15:44:53.148,c2:22:89:2b:7b:c3, 2015-01-01 00:59:54.575, 0.056, 0.139, 1.001, 7.141, -2.991, -0.183, -1.67, -1.62, 126.107, 57.722, -41.846, -13.034, 22.41, 0.45325, 0.00464, -0.01941, 0.89108,
 15:44:53.148,c2:22:89:2b:7b:c3, 2015-01-01 00:59:54.575, 0.115, 0.111, 1.045, -6.897, 4.333, 0.122, -1.697, -1.588, 126.101, 57.722, -41.846, -13.034, 22.41, 0.45325, 0.00464, -0.01941, 0.89108,
 15:44:53.148,c2:22:89:2b:7b:c3, 2015-01-01 00:59:54.575, -0.058, -0.01, 0.977, -15.869, 7.019, 0.427, -1.829, -1.538, 126.107, 57.722, -41.846, -13.034, 22.41, 0.45325, 0.00464, -0.01941, 0.89108,
 15:44:53.178,c2:22:89:2b:7b:c3, 2015-01-01 00:59:54.575, -0.059, -0.206, 1.041, -12.756, 7.568, 0.366, -1.967, -1.456, 126.107, 57.820, -41.944, -13.328, 22.41, 0.45325, 0.00464, -0.01941, 0.89108,
 15:44:53.178,c2:22:89:2b:7b:c3, 2015-01-01 00:59:54.575, -0.054, -0.215, 0.961, 0.488, 0.916, -0.061, -2, -1.434, 126.107, 57.820, -41.944, -13.328, 22.41, 0.45325, 0.00464, -0.01941, 0.89108,
 15:44:53.178,c2:22:89:2b:7b:c3, 2015-01-01 00:59:54.575, 0.022, -0.122, 0.979, 9.766, -4.822, -0.366, -1.928, -1.461, 126.107, 57.820, -41.944, -13.328, 22.41, 0.45325, 0.00464, -0.01941, 0.89108,
 15:44:53.178,c2:22:89:2b:7b:c3, 2015-01-01 00:59:54.575, 0.162, -0.029, 1.022, 12.939, -9.705, -0.183, -1.813, -1.549, 126.107, 57.820, -41.944, -13.328, 22.41, 0.45325, 0.00464, -0.01941, 0.89108,
 15:44:53.209,c2:22:89:2b:7b:c3, 2015-01-01 00:59:54.575, 0.063, 0.162, 1.033, 10.498, -6.042, -0.183, -1.703, -1.62, 126.107, 57.820, -41.944, -13.328, 22.41, 0.45325, 0.00464, -0.01941, 0.89108,
 15:44:53.209,c2:22:89:2b:7b:c3, 2015-01-01 00:59:54.575, 0.018, 0.175, 1.023, 2.258, 2.747, -0.061, -1.659, -1.604, 126.107, 57.820, -41.944, -13.328, 22.41, 0.45325, 0.00464, -0.01941, 0.89108,
 15:44:53.209,c2:22:89:2b:7b:c3, 2015-01-01 00:59:54.575, 0.069, 0.124, 0.95, -7.263, 1.404, 0.122, -1.697, -1.588, 126.101, 57.820, -41.944, -13.328, 22.41, 0.45325, 0.00464, -0.01941, 0.89108,
 15:44:53.209,c2:22:89:2b:7b:c3, 2015-01-01 00:59:54.575, 0.057, -0.039, 1, -13.428, 4.211, 0.366, -1.813, -1.555, 126.101, 57.820, -41.944, -13.328, 22.41, 0.45325, 0.00464, -0.01941, 0.89108,
 15:44:53.268,c2:22:89:2b:7b:c3, 2015-01-01 00:59:54.575, -0.053, -0.204, 1.028, -13.062, 7.446, 0.549, -1.939, -1.489, 126.107, 57.820, -41.944, -13.328, 22.41, 0.45322, 0.00558, -0.0195, 0.89111,
 15:44:53.268,c2:22:89:2b:7b:c3, 2015-01-01 00:59:54.575, -0.083, -0.273, 1.021, -4.578, 4.272, 0.122, -2.016, -1.434, 126.107, 57.820, -41.944, -13.328, 22.41, 0.45322, 0.00558, -0.0195, 0.89111,
 15:44:53.268,c2:22:89:2b:7b:c3, 2015-01-01 00:59:54.575, -0.077, -0.16, 0.958, 8.728, -3.235, -0.183, -1.967, -1.45, 126.107, 57.820, -41.944, -13.328, 22.41, 0.45322, 0.00558, -0.0195, 0.89111,
 15:44:53.268,c2:22:89:2b:7b:c3, 2015-01-01 00:59:54.575, 0.253, -0.028, 1.018, 18.188, -10.986, -0.549, -1.813, -1.533, 126.101, 57.820, -41.944, -13.328, 22.41, 0.45322, 0.00558, -0.0195, 0.89111,
 15:44:53.358,c2:22:89:2b:7b:c3, 2015-01-01 00:59:54.960, 0.13, 0.314, 1.081, 14.221, -11.475, -0.427, -1.648, -1.653, 126.101, 57.820, -41.944, -13.328, 22.41, 0.45322, 0.00558, -0.0195, 0.89111,
 15:44:53.358,c2:22:89:2b:7b:c3, 2015-01-01 00:59:54.960, 0.047, 0.259, 1.041, -1.526, 6.714, -0.183, -1.609, -1.626, 126.096, 57.820, -41.944, -13.328, 22.41, 0.45322, 0.00558, -0.0195, 0.89111,
 15:44:53.358,c2:22:89:2b:7b:c3, 2015-01-01 00:59:54.960, 0.013, 0.109, 0.908, -15.625, 2.686, 0.488, -1.73, -1.588, 126.101, 57.820, -41.944, -13.328, 22.41, 0.45322, 0.00558, -0.0195, 0.89111,
 15:44:53.358,c2:22:89:2b:7b:c3, 2015-01-01 00:59:54.960, -0.07, -0.143, 1.008, -18.372, 10.559, 0.671, -1.901, -1.5, 126.101, 57.820, -41.944, -13.328, 22.41, 0.45322, 0.00558, -0.0195, 0.89111,
 15:44:53.358,c2:22:89:2b:7b:c3, 2015-01-01 00:59:54.960, -0.027, -0.26, 1.01, -5.615, 2.38, 0, -1.989, -1.456, 126.096, 57.820, -41.944, -13.328, 22.41, 0.45322, 0.00558, -0.0195, 0.89111,
 15:44:53.358,c2:22:89:2b:7b:c3, 2015-01-01 00:59:54.960, -0.046, -0.177, 0.99, 4.089, -0.793, -0.244, -1.967, -1.456, 126.096, 57.820, -41.944, -13.328, 22.41, 0.45322, 0.00558, -0.0195, 0.89111,
 15:44:53.358,c2:22:89:2b:7b:c3, 2015-01-01 00:59:54.960, 0.066, -0.118, 1.017, 9.827, -6.47, -0.488, -1.884, -1.505, 126.096, 57.820, -41.944, -13.328, 22.41, 0.45322, 0.00558, -0.0195, 0.89111,
 15:44:53.358,c2:22:89:2b:7b:c3, 2015-01-01 00:59:54.960, 0.111, -0.037, 1.002, 12.451, -7.69, -0.183, -1.774, -1.577, 126.101, 57.820, -41.944, -13.328, 22.41, 0.45322, 0.00558, -0.0195, 0.89111,
 15:44:53.388,c2:22:89:2b:7b:c3, 2015-01-01 00:59:54.960, 0.058, 0.168, 1.035, 10.742, -5.127, -0.305, -1.664, -1.637, 126.096, 57.820, -41.944, -13.328, 22.41, 0.45322, 0.00558, -0.0195, 0.89111,
 15:44:53.388,c2:22:89:2b:7b:c3, 2015-01-01 00:59:54.960, 0.04, 0.215, 1.016, 1.892, 2.136, -0.305, -1.615, -1.626, 126.096, 57.820, -41.944, -13.328, 22.41, 0.45322, 0.00558, -0.0195, 0.89111,
 15:44:53.388,c2:22:89:2b:7b:c3, 2015-01-01 00:59:54.960, 0.094, 0.105, 0.961, -9.583, 0.793, 0.305, -1.675, -1.615, 126.096, 57.820, -41.944, -13.328, 22.41, 0.45322, 0.00558, -0.0195, 0.89111,
 15:44:53.388,c2:22:89:2b:7b:c3, 2015-01-01 00:59:54.960, -0.008, -0.069, 0.997, -14.771, 5.737, 0.488, -1.802, -1.577, 126.096, 57.820, -41.944, -13.328, 22.41, 0.45322, 0.00558, -0.0195, 0.89111,
 15:44:53.419,c2:22:89:2b:7b:c3, 2015-01-01 00:59:54.960, -0.056, -0.184, 1.027, -9.216, 7.08, 0.244, -1.906, -1.505, 126.096, 57.820, -41.944, -13.328, 22.41, 0.45322, 0.00558, -0.0195, 0.89111,
 15:44:53.419,c2:22:89:2b:7b:c3, 2015-01-01 00:59:54.960, -0.049, -0.186, 0.998, -0.671, 2.197, -0.061, -1.934, -1.461, 126.09, 57.820, -41.944, -13.328, 22.41, 0.45322, 0.00558, -0.0195, 0.89111,
 15:44:53.419,c2:22:89:2b:7b:c3, 2015-01-01 00:59:54.960, 0.015, -0.132, 0.977, 5.859, -4.333, -0.122, -1.895, -1.494, 126.096, 57.820, -41.944, -13.328, 22.41, 0.45322, 0.00558, -0.0195, 0.89111,
 15:44:53.419,c2:22:89:2b:7b:c3, 2015-01-01 00:59:54.960, 0.084, -0.063, 1.013, 11.353, -8.057, -0.366, -1.796, -1.566, 126.096, 57.820, -41.944, -13.328, 22.41, 0.45322, 0.00558, -0.0195, 0.89111,
 15:44:53.477,c2:22:89:2b:7b:c3, 2015-01-01 00:59:54.960, 0.093, 0.043, 1.005, 10.742, -5.737, -0.305, -1.686, -1.626, 126.096, 57.820, -41.944, -13.328, 22.41, 0.45322, 0.00558, -0.0195, 0.89111,
 15:44:53.477,c2:22:89:2b:7b:c3, 2015-01-01 00:59:54.960, 0.017, 0.14, 0.977, 2.197, 0.854, -0.183, -1.642, -1.637, 126.09, 57.820, -41.944, -13.328, 22.41, 0.45322, 0.00558, -0.0195, 0.89111,
 15:44:53.477,c2:22:89:2b:7b:c3, 2015-01-01 00:59:54.960, 0.047, 0.081, 0.976, -5.432, 2.014, 0.122, -1.675, -1.615, 126.09, 57.820, -41.944, -13.328, 22.41, 0.45322, 0.00558, -0.0195, 0.89111,
 15:44:53.477,c2:22:89:2b:7b:c3, 2015-01-01 00:59:54.960, 0.02, -0.004, 0.998, -8.606, 3.479, 0.183, -1.752, -1.593, 126.09, 57.820, -41.944, -13.328, 22.41, 0.45322, 0.00558, -0.0195, 0.89111,
 15:44:53.508,c2:22:89:2b:7b:c3, 2015-01-01 00:59:54.960, 0.003, -0.07, 1.018, -5.981, 3.479, 0.244, -1.813, -1.555, 126.09, 57.820, -41.944, -13.328, 22.41, 0.45322, 0.00558, -0.0195, 0.89111,
 15:44:53.508,c2:22:89:2b:7b:c3, 2015-01-01 00:59:54.960, 0.013, -0.103, 1.009, -5.066, 2.747, 0, -1.862, -1.527, 126.09, 57.820, -41.944, -13.328, 22.41, 0.45322, 0.00558, -0.0195, 0.89111,
 15:44:53.508,c2:22:89:2b:7b:c3, 2015-01-01 00:59:54.960, 0.003, -0.154, 0.993, -2.441, 0.549, 0.244, -1.89, -1.516, 126.09, 57.820, -41.944, -13.328, 22.41, 0.45322, 0.00558, -0.0195, 0.89111,
 15:44:53.508,c2:22:89:2b:7b:c3, 2015-01-01 00:59:54.960, -0.03, -0.149, 0.994, 2.563, -1.221, 0, -1.884, -1.527, 126.096, 57.820, -41.944, -13.328, 22.41, 0.45322, 0.00558, -0.0195, 0.89111,
 15:44:53.538,c2:22:89:2b:7b:c3, 2015-01-01 00:59:54.960, -0.017, -0.059, 1, 10.01, -3.174, -0.122, -1.807, -1.549, 126.096, 57.820, -42.042, -13.524, 22.41, 0.45322, 0.00558, -0.0195, 0.89111,
 15:44:53.538,c2:22:89:2b:7b:c3, 2015-01-01 00:59:54.960, 0.195, 0.077, 0.998, 13.428, -7.874, -0.61, -1.681, -1.609, 126.096, 57.820, -42.042, -13.524, 22.41, 0.45322, 0.00558, -0.0195, 0.89111,
 15:44:53.538,c2:22:89:2b:7b:c3, 2015-01-01 00:59:54.960, 0.051, 0.174, 1.011, 6.104, -3.54, -0.183, -1.588, -1.675, 126.09, 57.820, -42.042, -13.524, 22.41, 0.45322, 0.00558, -0.0195, 0.89111,
 15:44:53.538,c2:22:89:2b:7b:c3, 2015-01-01 00:59:54.960, 0.114, 0.105, 1.049, -8.301, 4.333, 0.244, -1.626, -1.642, 126.09, 57.820, -42.042, -13.524, 22.41, 0.45322, 0.00558, -0.0195, 0.89111,
 15:44:53.568,c2:22:89:2b:7b:c3, 2015-01-01 00:59:54.960, -0.054, -0.016, 0.957, -15.93, 7.263, 0.61, -1.763, -1.593, 126.096, 57.820, -42.042, -13.524, 22.41, 0.45322, 0.00558, -0.0195, 0.89111,
 15:44:53.568,c2:22:89:2b:7b:c3, 2015-01-01 00:59:54.960, -0.064, -0.211, 1.051, -13.123, 7.935, 0.488, -1.901, -1.511, 126.096, 57.820, -42.042, -13.524, 22.41, 0.45322, 0.00558, -0.0195, 0.89111,
 15:44:53.568,c2:22:89:2b:7b:c3, 2015-01-01 00:59:54.960, -0.041, -0.219, 0.975, 0.366, 0.366, 0.061, -1.934, -1.489, 126.096, 57.820, -42.042, -13.524, 22.41, 0.45322, 0.00558, -0.0195, 0.89111,
 15:44:53.568,c2:22:89:2b:7b:c3, 2015-01-01 00:59:54.960, -0.031, -0.137, 0.984, 9.521, -4.211, -0.366, -1.868, -1.516, 126.096, 57.820, -42.042, -13.524, 22.41, 0.45322, 0.00558, -0.0195, 0.89111,
 15:44:53.629,c2:22:89:2b:7b:c3, 2015-01-01 00:59:54.960, 0.2, -0.028, 1.018, 15.625, -9.888, -0.671, -1.73, -1.599, 126.096, 57.820, -42.042, -13.524, 22.41, 0.45328, 0.00394, -0.02094, 0.89105,
 15:44:53.629,c2:22:89:2b:7b:c3, 2015-01-01 00:59:54.960, 0.085, 0.249, 1.048, 11.475, -8.118, -0.427, -1.593, -1.686, 126.096, 57.820, -42.042, -13.524, 22.41, 0.45328, 0.00394, -0.02094, 0.89105,
 15:44:53.629,c2:22:89:2b:7b:c3, 2015-01-01 00:59:54.960, 0.06, 0.186, 1.045, -2.38, 4.944, 0.061, -1.582, -1.664, 126.09, 57.820, -42.042, -13.524, 22.41, 0.45328, 0.00394, -0.02094, 0.89105,
 15:44:53.629,c2:22:89:2b:7b:c3, 2015-01-01 00:59:54.960, 0.01, 0.092, 0.945, -11.475, 2.625, 0.488, -1.67, -1.631, 126.09, 57.820, -42.042, -13.524, 22.41, 0.45328, 0.00394, -0.02094, 0.89105,
 15:44:53.657,c2:22:89:2b:7b:c3, 2015-01-01 00:59:55.320, -0.028, -0.078, 1.004, -13.184, 7.141, 0.366, -1.791, -1.566, 126.09, 57.820, -42.042, -13.524, 22.41, 0.45328, 0.00394, -0.02094, 0.89105,
 15:44:53.657,c2:22:89:2b:7b:c3, 2015-01-01 00:59:55.320, -0.016, -0.169, 1.009, -5.31, 2.258, 0.061, -1.862, -1.533, 126.09, 57.820, -42.042, -13.524, 22.41, 0.45328, 0.00394, -0.02094, 0.89105,
 15:44:53.657,c2:22:89:2b:7b:c3, 2015-01-01 00:59:55.320, 0.003, -0.128, 0.99, 1.648, -0.244, -0.122, -1.857, -1.527, 126.09, 57.820, -42.042, -13.524, 22.41, 0.45328, 0.00394, -0.02094, 0.89105,
 15:44:53.657,c2:22:89:2b:7b:c3, 2015-01-01 00:59:55.320, 0.023, -0.119, 1.004, 3.296, -2.258, 0, -1.829, -1.544, 126.09, 57.820, -42.042, -13.524, 22.41, 0.45328, 0.00394, -0.02094, 0.89105,
 15:44:53.689,c2:22:89:2b:7b:c3, 2015-01-01 00:59:55.320, 0.028, -0.086, 0.995, 6.47, -3.845, -0.244, -1.78, -1.577, 126.09, 57.820, -42.042, -13.524, 22.41, 0.45328, 0.00394, -0.02094, 0.89105,
 15:44:53.689,c2:22:89:2b:7b:c3, 2015-01-01 00:59:55.320, 0.023, 0.011, 1, 8.667, -3.601, -0.061, -1.697, -1.615, 126.09, 57.820, -42.042, -13.524, 22.41, 0.45328, 0.00394, -0.02094, 0.89105,
 15:44:53.689,c2:22:89:2b:7b:c3, 2015-01-01 00:59:55.320, 0.093, 0.097, 1.012, 7.263, -3.967, -0.061, -1.62, -1.648, 126.09, 57.820, -42.042, -13.524, 22.41, 0.45328, 0.00394, -0.02094, 0.89105,
 15:44:53.689,c2:22:89:2b:7b:c3, 2015-01-01 00:59:55.320, 0.048, 0.136, 0.991, -0.061, -0.305, 0.061, -1.599, -1.664, 126.09, 57.820, -42.042, -13.524, 22.41, 0.45328, 0.00394, -0.02094, 0.89105,
 15:44:53.748,c2:22:89:2b:7b:c3, 2015-01-01 00:59:55.320, 0.068, 0.047, 0.982, -8.301, 2.502, 0.427, -1.653, -1.648, 126.09, 57.820, -42.042, -13.524, 22.41, 0.45328, 0.00394, -0.02094, 0.89105,
 15:44:53.748,c2:22:89:2b:7b:c3, 2015-01-01 00:59:55.320, -0.015, -0.075, 0.994, -11.902, 5.92, 0.305, -1.763, -1.599, 126.09, 57.820, -42.042, -13.524, 22.41, 0.45328, 0.00394, -0.02094, 0.89105,
 15:44:53.749,c2:22:89:2b:7b:c3, 2015-01-01 00:59:55.320, -0.05, -0.169, 1.013, -8.484, 5.859, 0.366, -1.857, -1.538, 126.09, 57.820, -42.042, -13.524, 22.41, 0.45328, 0.00394, -0.02094, 0.89105,
 15:44:53.749,c2:22:89:2b:7b:c3, 2015-01-01 00:59:55.320, -0.04, -0.175, 0.986, -1.038, 1.526, 0.183, -1.89, -1.511, 126.096, 57.820, -42.042, -13.524, 22.41, 0.45328, 0.00394, -0.02094, 0.89105,
 15:44:53.777,c2:22:89:2b:7b:c3, 2015-01-01 00:59:55.320, -0.015, -0.143, 0.994, 7.08, -3.662, 0, -1.846, -1.533, 126.096, 57.820, -42.042, -13.524, 22.41, 0.45328, 0.00394, -0.02094, 0.89105,
 15:44:53.777,c2:22:89:2b:7b:c3, 2015-01-01 00:59:55.320, 0.125, -0.032, 1.014, 13.611, -8.118, -0.061, -1.73, -1.599, 126.096, 57.820, -42.042, -13.524, 22.41, 0.45328, 0.00394, -0.02094, 0.89105,
 15:44:53.777,c2:22:89:2b:7b:c3, 2015-01-01 00:59:55.320, 0.12, 0.174, 1.014, 13.916, -8.911, -0.305, -1.588, -1.681, 126.096, 57.820, -42.042, -13.524, 22.41, 0.45328, 0.00394, -0.02094, 0.89105,
 15:44:53.777,c2:22:89:2b:7b:c3, 2015-01-01 00:59:55.320, 0.066, 0.18, 1.007, 0.671, 2.869, 0, -1.544, -1.675, 126.096, 57.820, -42.042, -13.524, 22.41, 0.45328, 0.00394, -0.02094, 0.89105,
 15:44:53.838,c2:22:89:2b:7b:c3, 2015-01-01 00:59:55.320, 0.036, 0.087, 0.952, -12.512, 2.747, 0.61, -1.642, -1.648, 126.096, 57.820, -42.042, -13.524, 22.41, 0.45328, 0.00394, -0.02094, 0.89105,
 15:44:53.838,c2:22:89:2b:7b:c3, 2015-01-01 00:59:55.320, -0.064, -0.114, 1.007, -15.015, 8.667, 0.549, -1.785, -1.571, 126.101, 57.820, -42.042, -13.524, 22.41, 0.45328, 0.00394, -0.02094, 0.89105,
 15:44:53.838,c2:22:89:2b:7b:c3, 2015-01-01 00:59:55.320, -0.042, -0.208, 0.998, -5.31, 4.272, 0.183, -1.862, -1.516, 126.101, 57.820, -42.042, -13.524, 22.41, 0.45328, 0.00394, -0.02094, 0.89105,
 15:44:53.838,c2:22:89:2b:7b:c3, 2015-01-01 00:59:55.320, -0.032, -0.128, 0.98, 5.798, -2.075, -0.305, -1.829, -1.522, 126.101, 57.820, -42.042, -13.524, 22.41, 0.45328, 0.00394, -0.02094, 0.89105,
 15:44:53.868,c2:22:89:2b:7b:c3, 2015-01-01 00:59:55.320, 0.088, -0.039, 1.021, 10.437, -7.874, -0.122, -1.73, -1.588, 126.101, 57.820, -41.944, -13.622, 22.41, 0.45328, 0.00394, -0.02094, 0.89105,
 15:44:53.868,c2:22:89:2b:7b:c3, 2015-01-01 00:59:55.320, 0.166, 0.013, 1.013, 9.705, -7.507, -0.122, -1.637, -1.659, 126.101, 57.820, -41.944, -13.622, 22.41, 0.45328, 0.00394, -0.02094, 0.89105,
 15:44:53.868,c2:22:89:2b:7b:c3, 2015-01-01 00:59:55.320, 0.031, 0.078, 0.996, 2.686, 0.61, 0, -1.588, -1.686, 126.101, 57.820, -41.944, -13.622, 22.41, 0.45328, 0.00394, -0.02094, 0.89105,
 15:44:53.868,c2:22:89:2b:7b:c3, 2015-01-01 00:59:55.320, 0.009, 0.083, 1.021, -5.371, 3.967, 0.061, -1.615, -1.648, 126.096, 57.820, -41.944, -13.622, 22.41, 0.45328, 0.00394, -0.02094, 0.89105,
 15:44:53.897,c2:22:89:2b:7b:c3, 2015-01-01 00:59:55.320, 0, -0.003, 1.005, -8.606, 4.578, 0.061, -1.692, -1.604, 126.096, 57.820, -41.944, -13.622, 22.41, 0.45328, 0.00394, -0.02094, 0.89105,
 15:44:53.897,c2:22:89:2b:7b:c3, 2015-01-01 00:59:55.320, -0.012, -0.103, 0.989, -4.944, 1.465, 0.061, -1.752, -1.582, 126.096, 57.820, -41.944, -13.622, 22.41, 0.45328, 0.00394, -0.02094, 0.89105,
 15:44:53.897,c2:22:89:2b:7b:c3, 2015-01-01 00:59:55.320, -0.006, -0.092, 1.005, 2.502, -0.732, 0, -1.741, -1.582, 126.096, 57.820, -41.944, -13.622, 22.41, 0.45328, 0.00394, -0.02094, 0.89105,
 15:44:53.897,c2:22:89:2b:7b:c3, 2015-01-01 00:59:55.320, 0.06, -0.013, 1.007, 5.798, -3.418, -0.183, -1.686, -1.609, 126.096, 57.820, -41.944, -13.622, 22.41, 0.45328, 0.00394, -0.02094, 0.89105,
 15:44:53.959,c2:22:89:2b:7b:c3, 2015-01-01 00:59:55.320, 0.102, 0.009, 1.007, 2.991, -3.662, -0.061, -1.648, -1.642, 126.096, 57.820, -41.944, -13.622, 22.41, 0.45328, 0.00558, -0.01965, 0.89108,
 15:44:53.959,c2:22:89:2b:7b:c3, 2015-01-01 00:59:55.320, 0.047, -0.021, 1.01, -2.014, 0.183, 0, -1.653, -1.653, 126.096, 57.820, -41.944, -13.622, 22.41, 0.45328, 0.00558, -0.01965, 0.89108,
 15:44:53.959,c2:22:89:2b:7b:c3, 2015-01-01 00:59:55.320, -0.033, -0.043, 0.998, -4.333, 4.639, 0.122, -1.692, -1.62, 126.096, 57.820, -41.944, -13.622, 22.41, 0.45328, 0.00558, -0.01965, 0.89108,
 15:44:53.959,c2:22:89:2b:7b:c3, 2015-01-01 00:59:55.320, -0.034, -0.061, 0.989, -2.869, 3.113, 0.122, -1.73, -1.582, 126.096, 57.820, -41.944, -13.622, 22.41, 0.45328, 0.00558, -0.01965, 0.89108,
 15:44:53.988,c2:22:89:2b:7b:c3, 2015-01-01 00:59:55.645, 0.011, -0.066, 0.989, 1.16, -1.831, 0, -1.73, -1.588, 126.096, 57.820, -41.944, -13.622, 22.41, 0.45328, 0.00558, -0.01965, 0.89108,
 15:44:53.988,c2:22:89:2b:7b:c3, 2015-01-01 00:59:55.645, 0.055, -0.038, 1.015, 6.47, -4.944, -0.122, -1.681, -1.631, 126.096, 57.820, -41.944, -13.622, 22.41, 0.45328, 0.00558, -0.01965, 0.89108,
 15:44:53.988,c2:22:89:2b:7b:c3, 2015-01-01 00:59:55.645, 0.089, 0.039, 1.006, 7.202, -3.967, -0.183, -1.609, -1.675, 126.096, 57.820, -41.944, -13.622, 22.41, 0.45328, 0.00558, -0.01965, 0.89108,
 15:44:53.988,c2:22:89:2b:7b:c3, 2015-01-01 00:59:55.645, 0.063, 0.087, 1.008, 1.77, -1.282, -0.122, -1.571, -1.692, 126.096, 57.820, -41.944, -13.622, 22.41, 0.45328, 0.00558, -0.01965, 0.89108,
 15:44:54.049,c2:22:89:2b:7b:c3, 2015-01-01 00:59:55.645, 0.083, 0.037, 1.011, -5.615, 2.319, 0.244, -1.604, -1.681, 126.096, 57.820, -41.944, -13.622, 22.41, 0.45328, 0.00558, -0.01965, 0.89108,
 15:44:54.049,c2:22:89:2b:7b:c3, 2015-01-01 00:59:55.645, -0.017, -0.065, 1.002, -11.169, 5.981, 0.549, -1.697, -1.631, 126.096, 57.820, -41.944, -13.622, 22.41, 0.45328, 0.00558, -0.01965, 0.89108,
 15:44:54.049,c2:22:89:2b:7b:c3, 2015-01-01 00:59:55.645, -0.065, -0.176, 1.01, -9.46, 6.714, 0.366, -1.802, -1.566, 126.096, 57.820, -41.944, -13.622, 22.41, 0.45328, 0.00558, -0.01965, 0.89108,
 15:44:54.049,c2:22:89:2b:7b:c3, 2015-01-01 00:59:55.645, -0.058, -0.179, 0.976, 0.183, 1.343, 0.183, -1.829, -1.533, 126.096, 57.820, -41.944, -13.622, 22.41, 0.45328, 0.00558, -0.01965, 0.89108,
 15:44:54.078,c2:22:89:2b:7b:c3, 2015-01-01 00:59:55.645, 0, -0.093, 0.987, 10.071, -5.127, -0.183, -1.763, -1.571, 126.096, 57.820, -41.944, -13.622, 22.41, 0.45328, 0.00558, -0.01965, 0.89108,
 15:44:54.078,c2:22:89:2b:7b:c3, 2015-01-01 00:59:55.645, 0.226, 0.013, 1.012, 14.526, -9.766, -0.366, -1.631, -1.653, 126.096, 57.820, -41.944, -13.622, 22.41, 0.45328, 0.00558, -0.01965, 0.89108,
 15:44:54.078,c2:22:89:2b:7b:c3, 2015-01-01 00:59:55.645, 0.025, 0.126, 1.021, 7.996, -4.15, -0.183, -1.522, -1.719, 126.096, 57.820, -41.944, -13.622, 22.41, 0.45328, 0.00558, -0.01965, 0.89108,
 15:44:54.078,c2:22:89:2b:7b:c3, 2015-01-01 00:59:55.645, 0.1, 0.152, 1.049, -3.723, 4.089, 0.122, -1.527, -1.692, 126.096, 57.820, -41.944, -13.622, 22.41, 0.45328, 0.00558, -0.01965, 0.89108,
 15:44:54.108,c2:22:89:2b:7b:c3, 2015-01-01 00:59:55.645, 0.028, 0.055, 0.976, -12.878, 3.174, 0.183, -1.626, -1.664, 126.096, 57.820, -41.944, -13.622, 22.41, 0.45328, 0.00558, -0.01965, 0.89108,
 15:44:54.108,c2:22:89:2b:7b:c3, 2015-01-01 00:59:55.645, -0.027, -0.146, 1.049, -14.648, 7.141, 0.549, -1.769, -1.599, 126.101, 57.820, -41.944, -13.622, 22.41, 0.45328, 0.00558, -0.01965, 0.89108,
 15:44:54.108,c2:22:89:2b:7b:c3, 2015-01-01 00:59:55.645, -0.058, -0.241, 1.016, -6.47, 4.517, 0.366, -1.851, -1.549, 126.101, 57.820, -41.944, -13.622, 22.41, 0.45328, 0.00558, -0.01965, 0.89108,
 15:44:54.108,c2:22:89:2b:7b:c3, 2015-01-01 00:59:55.645, -0.065, -0.187, 0.967, 3.052, 0.61, -0.122, -1.851, -1.533, 126.101, 57.820, -41.944, -13.622, 22.41, 0.45328, 0.00558, -0.01965, 0.89108,
 15:44:54.138,c2:22:89:2b:7b:c3, 2015-01-01 00:59:55.645, 0.037, -0.102, 1.002, 10.925, -6.714, -0.183, -1.769, -1.577, 126.101, 57.820, -41.944, -13.622, 22.41, 0.45328, 0.00558, -0.01965, 0.89108,
 15:44:54.138,c2:22:89:2b:7b:c3, 2015-01-01 00:59:55.645, 0.203, 0.005, 1.009, 14.221, -9.583, -0.122, -1.637, -1.664, 126.101, 57.820, -41.944, -13.622, 22.41, 0.45328, 0.00558, -0.01965, 0.89108,
 15:44:54.138,c2:22:89:2b:7b:c3, 2015-01-01 00:59:55.645, 0.018, 0.115, 1.016, 7.935, -3.174, -0.122, -1.538, -1.719, 126.101, 57.820, -41.944, -13.622, 22.41, 0.45328, 0.00558, -0.01965, 0.89108,
 15:44:54.138,c2:22:89:2b:7b:c3, 2015-01-01 00:59:55.645, 0.087, 0.154, 1.036, -3.357, 3.235, 0.183, -1.538, -1.692, 126.101, 57.820, -41.944, -13.622, 22.41, 0.45328, 0.00558, -0.01965, 0.89108,
 15:44:54.198,c2:22:89:2b:7b:c3, 2015-01-01 00:59:55.645, 0.019, 0.042, 0.973, -11.78, 3.418, 0.366, -1.631, -1.67, 126.101, 57.820, -41.944, -13.622, 22.41, 0.45328, 0.00558, -0.01965, 0.89108,
 15:44:54.198,c2:22:89:2b:7b:c3, 2015-01-01 00:59:55.645, -0.007, -0.114, 1.051, -11.047, 5.432, 0.244, -1.747, -1.615, 126.101, 57.820, -41.944, -13.622, 22.41, 0.45328, 0.00558, -0.01965, 0.89108,
 15:44:54.198,c2:22:89:2b:7b:c3, 2015-01-01 00:59:55.645, -0.043, -0.159, 1.012, -4.089, 4.211, 0.122, -1.807, -1.571, 126.101, 57.820, -41.944, -13.622, 22.41, 0.45328, 0.00558, -0.01965, 0.89108,
 15:44:54.198,c2:22:89:2b:7b:c3, 2015-01-01 00:59:55.645, -0.016, -0.13, 0.982, 1.526, -0.854, -0.122, -1.802, -1.566, 126.101, 57.820, -41.944, -13.622, 22.41, 0.45328, 0.00558, -0.01965, 0.89108,
 15:44:54.229,c2:22:89:2b:7b:c3, 2015-01-01 00:59:55.645, 0.04, -0.101, 1.004, 6.165, -5.005, -0.244, -1.758, -1.604, 126.101, 57.918, -42.042, -13.720, 22.41, 0.45328, 0.00558, -0.01965, 0.89108,
 15:44:54.229,c2:22:89:2b:7b:c3, 2015-01-01 00:59:55.645, 0.064, -0.041, 1.018, 9.216, -5.615, -0.122, -1.675, -1.659, 126.107, 57.918, -42.042, -13.720, 22.41, 0.45328, 0.00558, -0.01965, 0.89108,
 15:44:54.229,c2:22:89:2b:7b:c3, 2015-01-01 00:59:55.645, 0.068, 0.064, 0.996, 7.874, -3.357, -0.366, -1.593, -1.697, 126.107, 57.918, -42.042, -13.720, 22.41, 0.45328, 0.00558, -0.01965, 0.89108,
 15:44:54.229,c2:22:89:2b:7b:c3, 2015-01-01 00:59:55.645, 0.057, 0.107, 0.981, 0.183, 0, 0, -1.577, -1.703, 126.101, 57.918, -42.042, -13.720, 22.41, 0.45328, 0.00558, -0.01965, 0.89108,
 15:44:54.259,c2:22:89:2b:7b:c3, 2015-01-01 00:59:55.645, 0.057, 0.05, 0.996, -5.798, 1.648, 0.122, -1.615, -1.692, 126.101, 57.918, -42.042, -13.720, 22.41, 0.45328, 0.00558, -0.01965, 0.89108,
 15:44:54.259,c2:22:89:2b:7b:c3, 2015-01-01 00:59:55.645, -0.003, -0.037, 1.005, -8.484, 5.127, 0.244, -1.692, -1.648, 126.107, 57.918, -42.042, -13.720, 22.41, 0.45328, 0.00558, -0.01965, 0.89108,
 15:44:54.259,c2:22:89:2b:7b:c3, 2015-01-01 00:59:55.645, -0.029, -0.1, 0.999, -6.531, 4.395, 0.305, -1.763, -1.604, 126.107, 57.918, -42.042, -13.720, 22.41, 0.45328, 0.00558, -0.01965, 0.89108,
 15:44:54.259,c2:22:89:2b:7b:c3, 2015-01-01 00:59:55.645, -0.005, -0.133, 0.996, -2.38, 1.16, 0.061, -1.796, -1.582, 126.107, 57.918, -42.042, -13.720, 22.41, 0.45328, 0.00558, -0.01965, 0.89108,
 15:44:54.319,c2:22:89:2b:7b:c3, 2015-01-01 00:59:55.645, 0.014, -0.118, 1.003, 4.15, -2.93, 0, -1.774, -1.599, 126.107, 57.918, -42.042, -13.720, 22.41, 0.45322, 0.00528, -0.02017, 0.89111,
 15:44:54.319,c2:22:89:2b:7b:c3, 2015-01-01 00:59:55.645, 0.038, -0.042, 1.011, 8.545, -4.7, -0.183, -1.703, -1.642, 126.107, 57.918, -42.042, -13.720, 22.41, 0.45322, 0.00528, -0.02017, 0.89111,
 15:44:54.319,c2:22:89:2b:7b:c3, 2015-01-01 00:59:55.645, 0.113, 0.042, 1, 8.545, -4.517, -0.183, -1.615, -1.686, 126.107, 57.918, -42.042, -13.720, 22.41, 0.45322, 0.00528, -0.02017, 0.89111,
 15:44:54.319,c2:22:89:2b:7b:c3, 2015-01-01 00:59:55.645, 0.05, 0.097, 1.014, 2.319, -2.075, -0.122, -1.571, -1.719, 126.107, 57.918, -42.042, -13.720, 22.41, 0.45322, 0.00528, -0.02017, 0.89111,
 15:44:54.347,c2:22:89:2b:7b:c3, 2015-01-01 00:59:56.005, 0.065, 0.062, 1.029, -4.761, 2.563, 0.122, -1.599, -1.703, 126.107, 57.918, -42.042, -13.720, 22.41, 0.45322, 0.00528, -0.02017, 0.89111,
 15:44:54.347,c2:22:89:2b:7b:c3, 2015-01-01 00:59:56.005, 0, -0.002, 0.98, -8.301, 4.7, 0.183, -1.67, -1.664, 126.107, 57.918, -42.042, -13.720, 22.41, 0.45322, 0.00528, -0.02017, 0.89111,
 15:44:54.347,c2:22:89:2b:7b:c3, 2015-01-01 00:59:56.005, -0.016, -0.089, 1.008, -8.362, 4.7, 0.061, -1.747, -1.615, 126.107, 57.918, -42.042, -13.720, 22.41, 0.45322, 0.00528, -0.02017, 0.89111,
 15:44:54.347,c2:22:89:2b:7b:c3, 2015-01-01 00:59:56.005, -0.01, -0.141, 1.007, -3.967, 2.136, 0.122, -1.796, -1.588, 126.107, 57.918, -42.042, -13.720, 22.41, 0.45322, 0.00528, -0.02017, 0.89111,
 15:44:54.377,c2:22:89:2b:7b:c3, 2015-01-01 00:59:56.005, -0.003, -0.128, 0.989, 1.709, -0.977, 0, -1.796, -1.593, 126.107, 57.918, -42.042, -13.720, 22.41, 0.45322, 0.00528, -0.02017, 0.89111,
 15:44:54.377,c2:22:89:2b:7b:c3, 2015-01-01 00:59:56.005, -0.003, -0.091, 0.991, 6.775, -2.869, -0.122, -1.747, -1.615, 126.107, 57.918, -42.042, -13.720, 22.41, 0.45322, 0.00528, -0.02017, 0.89111,
 15:44:54.377,c2:22:89:2b:7b:c3, 2015-01-01 00:59:56.005, 0.065, 0.013, 0.991, 9.949, -5.31, -0.305, -1.659, -1.659, 126.107, 57.918, -42.042, -13.720, 22.41, 0.45322, 0.00528, -0.02017, 0.89111,
 15:44:54.377,c2:22:89:2b:7b:c3, 2015-01-01 00:59:56.005, 0.099, 0.081, 0.993, 6.226, -4.639, -0.183, -1.588, -1.708, 126.107, 57.918, -42.042, -13.720, 22.41, 0.45322, 0.00528, -0.02017, 0.89111,
 15:44:54.468,c2:22:89:2b:7b:c3, 2015-01-01 00:59:56.005, 0.062, 0.069, 1.002, -1.404, 1.16, 0, -1.582, -1.714, 126.101, 57.918, -42.042, -13.720, 22.41, 0.45322, 0.00528, -0.02017, 0.89111,
 15:44:54.468,c2:22:89:2b:7b:c3, 2015-01-01 00:59:56.005, 0.011, 0.051, 0.991, -7.446, 3.296, 0.305, -1.637, -1.681, 126.101, 57.918, -42.042, -13.720, 22.41, 0.45322, 0.00528, -0.02017, 0.89111,
 15:44:54.468,c2:22:89:2b:7b:c3, 2015-01-01 00:59:56.005, 0.002, -0.048, 1.027, -9.46, 5.676, 0.244, -1.725, -1.631, 126.101, 57.918, -42.042, -13.720, 22.41, 0.45322, 0.00528, -0.02017, 0.89111,
 15:44:54.468,c2:22:89:2b:7b:c3, 2015-01-01 00:59:56.005, -0.01, -0.141, 1.011, -6.348, 2.075, 0.061, -1.796, -1.599, 126.101, 57.918, -42.042, -13.720, 22.41, 0.45322, 0.00528, -0.02017, 0.89111,
 15:44:54.468,c2:22:89:2b:7b:c3, 2015-01-01 00:59:56.005, -0.021, -0.15, 0.995, 0.732, 0.977, 0.061, -1.807, -1.582, 126.107, 57.918, -42.042, -13.720, 22.41, 0.45322, 0.00528, -0.02017, 0.89111,
 15:44:54.468,c2:22:89:2b:7b:c3, 2015-01-01 00:59:56.005, -0.008, -0.086, 0.996, 6.592, -2.441, -0.061, -1.763, -1.599, 126.107, 57.918, -42.042, -13.720, 22.41, 0.45322, 0.00528, -0.02017, 0.89111,
 15:44:54.468,c2:22:89:2b:7b:c3, 2015-01-01 00:59:56.005, 0.076, -0.005, 0.997, 9.583, -6.042, -0.244, -1.675, -1.648, 126.101, 57.918, -42.042, -13.720, 22.41, 0.45322, 0.00528, -0.02017, 0.89111,
 15:44:54.468,c2:22:89:2b:7b:c3, 2015-01-01 00:59:56.005, 0.104, 0.061, 1, 6.775, -5.798, -0.183, -1.604, -1.703, 126.101, 57.918, -42.042, -13.720, 22.41, 0.45322, 0.00528, -0.02017, 0.89111,
 15:44:54.498,c2:22:89:2b:7b:c3, 2015-01-01 00:59:56.005, 0.043, 0.066, 0.988, -1.221, 1.77, -0.061, -1.599, -1.708, 126.101, 57.918, -42.042, -13.720, 22.41, 0.45322, 0.00528, -0.02017, 0.89111,
 15:44:54.498,c2:22:89:2b:7b:c3, 2015-01-01 00:59:56.005, 0.008, 0.054, 0.985, -6.348, 2.991, 0.122, -1.642, -1.675, 126.101, 57.918, -42.042, -13.720, 22.41, 0.45322, 0.00528, -0.02017, 0.89111,
 15:44:54.498,c2:22:89:2b:7b:c3, 2015-01-01 00:59:56.005, 0.004, -0.029, 1.022, -8.606, 4.578, 0.244, -1.719, -1.631, 126.101, 57.918, -42.042, -13.720, 22.41, 0.45322, 0.00528, -0.02017, 0.89111,
 15:44:54.498,c2:22:89:2b:7b:c3, 2015-01-01 00:59:56.005, -0.003, -0.111, 1.013, -4.822, 1.892, 0.305, -1.78, -1.609, 126.101, 57.918, -42.042, -13.720, 22.41, 0.45322, 0.00528, -0.02017, 0.89111,
 15:44:54.557,c2:22:89:2b:7b:c3, 2015-01-01 00:59:56.005, -0.017, -0.127, 1.016, 0.244, 0.366, 0.061, -1.791, -1.599, 126.101, 57.918, -42.042, -13.720, 22.41, 0.45322, 0.00528, -0.02017, 0.89111,
 15:44:54.557,c2:22:89:2b:7b:c3, 2015-01-01 00:59:56.005, 0.029, -0.073, 1.005, 4.7, -1.831, -0.122, -1.752, -1.609, 126.101, 57.918, -42.042, -13.720, 22.41, 0.45322, 0.00528, -0.02017, 0.89111,
 15:44:54.557,c2:22:89:2b:7b:c3, 2015-01-01 00:59:56.005, 0.072, -0.031, 0.998, 5.127, -3.906, 0, -1.703, -1.642, 126.107, 57.918, -42.042, -13.720, 22.41, 0.45322, 0.00528, -0.02017, 0.89111,
 15:44:54.557,c2:22:89:2b:7b:c3, 2015-01-01 00:59:56.005, 0.069, -0.004, 1.014, 2.747, -2.686, 0, -1.67, -1.675, 126.107, 57.918, -42.042, -13.720, 22.41, 0.45322, 0.00528, -0.02017, 0.89111,
 15:44:54.589,c2:22:89:2b:7b:c3, 2015-01-01 00:59:56.005, 0.013, 0.007, 1.003, -0.244, 0.916, 0.061, -1.664, -1.675, 126.107, 57.918, -42.042, -13.916, 22.41, 0.45322, 0.00528, -0.02017, 0.89111,
 15:44:54.589,c2:22:89:2b:7b:c3, 2015-01-01 00:59:56.005, 0.002, 0.002, 0.984, -1.892, 2.319, 0.061, -1.681, -1.648, 126.107, 57.918, -42.042, -13.916, 22.41, 0.45322, 0.00528, -0.02017, 0.89111,
 15:44:54.589,c2:22:89:2b:7b:c3, 2015-01-01 00:59:56.005, 0.025, -0.014, 0.987, -2.014, 0.427, 0.061, -1.703, -1.642, 126.107, 57.918, -42.042, -13.916, 22.41, 0.45322, 0.00528, -0.02017, 0.89111,
 15:44:54.589,c2:22:89:2b:7b:c3, 2015-01-01 00:59:56.005, 0.047, -0.042, 1.012, -0.916, -0.61, 0.122, -1.714, -1.642, 126.107, 57.918, -42.042, -13.916, 22.41, 0.45322, 0.00528, -0.02017, 0.89111,
 15:44:54.619,c2:22:89:2b:7b:c3, 2015-01-01 00:59:56.005, 0.027, -0.042, 1.014, 0.183, -0.183, 0.183, -1.714, -1.648, 126.107, 57.918, -42.042, -13.916, 22.41, 0.45322, 0.00528, -0.02017, 0.89111,
 15:44:54.619,c2:22:89:2b:7b:c3, 2015-01-01 00:59:56.005, 0.011, -0.033, 1, -0.488, 1.099, 0.061, -1.714, -1.637, 126.107, 57.918, -42.042, -13.916, 22.41, 0.45322, 0.00528, -0.02017, 0.89111,
 15:44:54.619,c2:22:89:2b:7b:c3, 2015-01-01 00:59:56.005, 0.032, -0.041, 1.005, -0.427, 0, 0.183, -1.719, -1.637, 126.107, 57.918, -42.042, -13.916, 22.41, 0.45322, 0.00528, -0.02017, 0.89111,
 15:44:54.619,c2:22:89:2b:7b:c3, 2015-01-01 00:59:56.005, 0.018, -0.05, 1.01, 0.671, -0.427, 0, -1.719, -1.637, 126.107, 57.918, -42.042, -13.916, 22.41, 0.45322, 0.00528, -0.02017, 0.89111,
 15:44:54.678,c2:22:89:2b:7b:c3, 2015-01-01 00:59:56.005, 0.031, -0.017, 1.009, 2.747, -0.671, 0, -1.692, -1.648, 126.107, 57.918, -42.042, -13.916, 22.41, 0.45319, 0.00592, -0.01987, 0.89111,
 15:44:54.678,c2:22:89:2b:7b:c3, 2015-01-01 00:59:56.005, 0.058, 0.015, 0.99, 0.366, -0.854, -0.183, -1.681, -1.653, 126.107, 57.918, -42.042, -13.916, 22.41, 0.45319, 0.00592, -0.01987, 0.89111,
 15:44:54.678,c2:22:89:2b:7b:c3, 2015-01-01 00:59:56.005, 0.044, -0.035, 1, -2.991, -0.061, 0, -1.703, -1.653, 126.107, 57.918, -42.042, -13.916, 22.41, 0.45319, 0.00592, -0.01987, 0.89111,
 15:44:54.678,c2:22:89:2b:7b:c3, 2015-01-01 00:59:56.005, -0.023, -0.061, 1.007, -2.197, 2.319, 0.244, -1.73, -1.637, 126.107, 57.918, -42.042, -13.916, 22.41, 0.45319, 0.00592, -0.01987, 0.89111,
 15:44:54.707,c2:22:89:2b:7b:c3, 2015-01-01 00:59:56.360, -0.012, -0.034, 0.987, 0.793, 1.343, -0.061, -1.73, -1.62, 126.107, 57.918, -42.042, -13.916, 22.41, 0.45319, 0.00592, -0.01987, 0.89111,
 15:44:54.707,c2:22:89:2b:7b:c3, 2015-01-01 00:59:56.360, 0.06, -0.018, 0.985, 1.404, -2.319, 0, -1.714, -1.631, 126.107, 57.918, -42.042, -13.916, 22.41, 0.45319, 0.00592, -0.01987, 0.89111,
 15:44:54.707,c2:22:89:2b:7b:c3, 2015-01-01 00:59:56.360, 0.075, -0.043, 1.017, 0.61, -2.869, -0.122, -1.703, -1.659, 126.107, 57.918, -42.042, -13.916, 22.41, 0.45319, 0.00592, -0.01987, 0.89111,
 15:44:54.707,c2:22:89:2b:7b:c3, 2015-01-01 00:59:56.360, 0.009, -0.049, 1.022, 0.244, 1.038, -0.061, -1.703, -1.659, 126.107, 57.918, -42.042, -13.916, 22.41, 0.45319, 0.00592, -0.01987, 0.89111,
 15:44:54.738,c2:22:89:2b:7b:c3, 2015-01-01 00:59:56.360, -0.012, -0.01, 1, 0.427, 2.136, 0, -1.703, -1.637, 126.107, 57.918, -42.042, -13.916, 22.41, 0.45319, 0.00592, -0.01987, 0.89111,
 15:44:54.738,c2:22:89:2b:7b:c3, 2015-01-01 00:59:56.360, 0.04, -0.003, 0.999, -0.244, -0.732, -0.122, -1.697, -1.637, 126.107, 57.918, -42.042, -13.916, 22.41, 0.45319, 0.00592, -0.01987, 0.89111,
 15:44:54.738,c2:22:89:2b:7b:c3, 2015-01-01 00:59:56.360, 0.043, -0.035, 1.012, -0.244, -1.831, 0, -1.703, -1.653, 126.107, 57.918, -42.042, -13.916, 22.41, 0.45319, 0.00592, -0.01987, 0.89111,
 15:44:54.738,c2:22:89:2b:7b:c3, 2015-01-01 00:59:56.360, 0.005, -0.033, 1.005, 1.709, 0.366, 0, -1.692, -1.659, 126.107, 57.918, -42.042, -13.916, 22.41, 0.45319, 0.00592, -0.01987, 0.89111,
 15:44:54.799,c2:22:89:2b:7b:c3, 2015-01-01 00:59:56.360, 0.022, 0.04, 0.989, 3.296, -0.427, 0, -1.659, -1.659, 126.107, 57.918, -42.042, -13.916, 22.41, 0.45319, 0.00592, -0.01987, 0.89111,
 15:44:54.799,c2:22:89:2b:7b:c3, 2015-01-01 00:59:56.360, 0.085, 0.039, 0.991, -0.977, -1.77, 0, -1.653, -1.67, 126.107, 57.918, -42.042, -13.916, 22.41, 0.45319, 0.00592, -0.01987, 0.89111,
 15:44:54.799,c2:22:89:2b:7b:c3, 2015-01-01 00:59:56.360, 0.076, -0.029, 1.003, -4.456, 0.244, 0, -1.686, -1.675, 126.107, 57.918, -42.042, -13.916, 22.41, 0.45319, 0.00592, -0.01987, 0.89111,
 15:44:54.799,c2:22:89:2b:7b:c3, 2015-01-01 00:59:56.360, -0.043, -0.102, 0.998, -5.92, 5.188, 0.183, -1.741, -1.637, 126.107, 57.918, -42.042, -13.916, 22.41, 0.45319, 0.00592, -0.01987, 0.89111,
 15:44:54.827,c2:22:89:2b:7b:c3, 2015-01-01 00:59:56.360, -0.042, -0.093, 1.007, -3.052, 3.723, 0, -1.78, -1.593, 126.107, 57.918, -42.042, -13.916, 22.41, 0.45319, 0.00592, -0.01987, 0.89111,
 15:44:54.827,c2:22:89:2b:7b:c3, 2015-01-01 00:59:56.360, 0.042, -0.088, 1.002, 0.488, -1.099, -0.061, -1.78, -1.588, 126.107, 57.918, -42.042, -13.916, 22.41, 0.45319, 0.00592, -0.01987, 0.89111,
 15:44:54.827,c2:22:89:2b:7b:c3, 2015-01-01 00:59:56.360, 0.05, -0.095, 1.024, 3.845, -4.272, 0.183, -1.752, -1.626, 126.107, 57.918, -42.042, -13.916, 22.41, 0.45319, 0.00592, -0.01987, 0.89111,
 15:44:54.827,c2:22:89:2b:7b:c3, 2015-01-01 00:59:56.360, 0.003, -0.039, 1.018, 7.568, -3.357, 0, -1.686, -1.659, 126.107, 57.918, -42.042, -13.916, 22.41, 0.45319, 0.00592, -0.01987, 0.89111,
 15:44:54.857,c2:22:89:2b:7b:c3, 2015-01-01 00:59:56.360, 0.071, 0.077, 0.977, 7.69, -2.38, -0.244, -1.609, -1.681, 126.107, 57.918, -42.042, -13.916, 22.41, 0.45319, 0.00592, -0.01987, 0.89111,
 15:44:54.857,c2:22:89:2b:7b:c3, 2015-01-01 00:59:56.360, 0.08, 0.127, 0.985, 1.404, -2.258, 0, -1.577, -1.708, 126.107, 57.918, -42.042, -13.916, 22.41, 0.45319, 0.00592, -0.01987, 0.89111,
 15:44:54.857,c2:22:89:2b:7b:c3, 2015-01-01 00:59:56.360, 0.093, 0.042, 1.024, -5.92, 1.831, 0.122, -1.615, -1.697, 126.107, 57.918, -42.042, -13.916, 22.41, 0.45319, 0.00592, -0.01987, 0.89111,
 15:44:54.857,c2:22:89:2b:7b:c3, 2015-01-01 00:59:56.360, -0.045, -0.037, 0.992, -9.399, 5.981, 0.305, -1.692, -1.653, 126.107, 57.918, -42.042, -13.916, 22.41, 0.45319, 0.00592, -0.01987, 0.89111,
 15:44:54.918,c2:22:89:2b:7b:c3, 2015-01-01 00:59:56.360, -0.043, -0.112, 1.021, -7.874, 6.165, 0.061, -1.774, -1.588, 126.107, 57.918, -42.042, -13.916, 22.41, 0.45319, 0.00592, -0.01987, 0.89111,
 15:44:54.918,c2:22:89:2b:7b:c3, 2015-01-01 00:59:56.360, 0.002, -0.16, 1.003, -2.38, -0.244, 0, -1.813, -1.577, 126.107, 57.918, -42.042, -13.916, 22.41, 0.45319, 0.00592, -0.01987, 0.89111,
 15:44:54.918,c2:22:89:2b:7b:c3, 2015-01-01 00:59:56.360, 0.001, -0.135, 1.007, 4.578, -2.686, 0, -1.785, -1.599, 126.107, 57.918, -42.042, -13.916, 22.41, 0.45319, 0.00592, -0.01987, 0.89111,
 15:44:54.918,c2:22:89:2b:7b:c3, 2015-01-01 00:59:56.360, 0.028, -0.052, 1.009, 10.193, -4.456, -0.305, -1.697, -1.637, 126.107, 57.918, -42.042, -13.916, 22.41, 0.45319, 0.00592, -0.01987, 0.89111,
 15:44:54.948,c2:22:89:2b:7b:c3, 2015-01-01 00:59:56.360, 0.128, 0.07, 0.977, 9.705, -5.249, -0.122, -1.599, -1.686, 126.107, 57.820, -42.042, -13.818, 22.41, 0.45319, 0.00592, -0.01987, 0.89111,
 15:44:54.948,c2:22:89:2b:7b:c3, 2015-01-01 00:59:56.360, 0.062, 0.098, 1.001, 2.197, -1.953, -0.122, -1.555, -1.719, 126.107, 57.820, -42.042, -13.818, 22.41, 0.45319, 0.00592, -0.01987, 0.89111,
 15:44:54.948,c2:22:89:2b:7b:c3, 2015-01-01 00:59:56.360, 0.061, 0.044, 1.041, -5.92, 3.052, 0.122, -1.593, -1.697, 126.107, 57.820, -42.042, -13.818, 22.41, 0.45319, 0.00592, -0.01987, 0.89111,
 15:44:54.948,c2:22:89:2b:7b:c3, 2015-01-01 00:59:56.360, -0.045, -0.008, 0.972, -9.521, 6.409, 0.305, -1.67, -1.648, 126.107, 57.820, -42.042, -13.818, 22.41, 0.45319, 0.00592, -0.01987, 0.89111,
 15:44:54.978,c2:22:89:2b:7b:c3, 2015-01-01 00:59:56.360, -0.015, -0.109, 1.005, -7.385, 4.7, 0.122, -1.752, -1.593, 126.107, 57.820, -42.042, -13.818, 22.41, 0.45319, 0.00592, -0.01987, 0.89111,
 15:44:54.978,c2:22:89:2b:7b:c3, 2015-01-01 00:59:56.360, 0.021, -0.133, 1.004, -1.221, -0.427, 0, -1.774, -1.588, 126.107, 57.820, -42.042, -13.818, 22.41, 0.45319, 0.00592, -0.01987, 0.89111,
 15:44:54.978,c2:22:89:2b:7b:c3, 2015-01-01 00:59:56.360, 0.012, -0.106, 1.012, 4.028, -2.319, -0.183, -1.747, -1.604, 126.107, 57.820, -42.042, -13.818, 22.41, 0.45319, 0.00592, -0.01987, 0.89111,
 15:44:54.978,c2:22:89:2b:7b:c3, 2015-01-01 00:59:56.360, 0.042, -0.048, 1.008, 6.653, -3.235, -0.244, -1.686, -1.631, 126.101, 57.820, -42.042, -13.818, 22.41, 0.45319, 0.00592, -0.01987, 0.89111,
 15:44:55.069,c2:22:89:2b:7b:c3, 2015-01-01 00:59:56.360, 0.056, 0.011, 0.983, 4.7, -3.235, -0.122, -1.637, -1.664, 126.101, 57.820, -42.042, -13.818, 22.41, 0.45322, 0.00558, -0.01996, 0.89108,
 15:44:55.069,c2:22:89:2b:7b:c3, 2015-01-01 00:59:56.360, 0.072, 0.025, 1.002, 1.892, -1.526, 0, -1.609, -1.686, 126.101, 57.820, -42.042, -13.818, 22.41, 0.45322, 0.00558, -0.01996, 0.89108,
 15:44:55.069,c2:22:89:2b:7b:c3, 2015-01-01 00:59:56.360, 0.02, 0.025, 1.008, -1.892, 1.221, 0.122, -1.62, -1.681, 126.101, 57.820, -42.042, -13.818, 22.41, 0.45322, 0.00558, -0.01996, 0.89108,
 15:44:55.069,c2:22:89:2b:7b:c3, 2015-01-01 00:59:56.360, 0, -0.004, 0.996, -3.479, 3.296, 0.183, -1.648, -1.653, 126.101, 57.820, -42.042, -13.818, 22.41, 0.45322, 0.00558, -0.01996, 0.89108,
 15:44:55.069,c2:22:89:2b:7b:c3, 2015-01-01 00:59:56.360, 0.021, -0.017, 0.988, -2.991, 1.099, 0, -1.675, -1.637, 126.101, 57.820, -42.042, -13.818, 22.41, 0.45322, 0.00558, -0.01996, 0.89108,
 15:44:55.069,c2:22:89:2b:7b:c3, 2015-01-01 00:59:56.360, 0.03, -0.064, 1.009, -2.136, 0.183, 0, -1.697, -1.631, 126.101, 57.820, -42.042, -13.818, 22.41, 0.45322, 0.00558, -0.01996, 0.89108,
 15:44:55.069,c2:22:89:2b:7b:c3, 2015-01-01 00:59:56.360, 0.024, -0.065, 1.018, 0.793, -0.488, 0, -1.697, -1.631, 126.101, 57.820, -42.042, -13.818, 22.41, 0.45322, 0.00558, -0.01996, 0.89108,
 15:44:55.069,c2:22:89:2b:7b:c3, 2015-01-01 00:59:56.360, 0.008, -0.041, 0.994, 1.282, 0.122, 0, -1.686, -1.631, 126.101, 57.820, -42.042, -13.818, 22.41, 0.45322, 0.00558, -0.01996, 0.89108,
 15:44:55.098,c2:22:89:2b:7b:c3, 2015-01-01 00:59:56.720, 0.042, -0.026, 0.999, 1.099, -0.977, 0, -1.675, -1.637, 126.101, 57.820, -42.042, -13.818, 22.41, 0.45322, 0.00558, -0.01996, 0.89108,
 15:44:55.098,c2:22:89:2b:7b:c3, 2015-01-01 00:59:56.720, 0.051, -0.024, 1.014, 0.854, -1.221, 0, -1.664, -1.648, 126.101, 57.820, -42.042, -13.818, 22.41, 0.45322, 0.00558, -0.01996, 0.89108,
 15:44:55.098,c2:22:89:2b:7b:c3, 2015-01-01 00:59:56.720, 0.02, -0.029, 1.015, -0.183, 0.366, 0.061, -1.664, -1.648, 126.101, 57.820, -42.042, -13.818, 22.41, 0.45322, 0.00558, -0.01996, 0.89108,
 15:44:55.098,c2:22:89:2b:7b:c3, 2015-01-01 00:59:56.720, 0.006, -0.015, 0.995, -0.061, 1.343, 0.061, -1.664, -1.637, 126.101, 57.820, -42.042, -13.818, 22.41, 0.45322, 0.00558, -0.01996, 0.89108,
 15:44:55.158,c2:22:89:2b:7b:c3, 2015-01-01 00:59:56.720, 0.026, -0.015, 0.985, -0.671, 0, 0.122, -1.67, -1.637, 126.101, 57.820, -42.042, -13.818, 22.41, 0.45322, 0.00558, -0.01996, 0.89108,
 15:44:55.158,c2:22:89:2b:7b:c3, 2015-01-01 00:59:56.720, 0.048, -0.029, 1.008, 0.305, -0.854, 0, -1.67, -1.642, 126.101, 57.820, -42.042, -13.818, 22.41, 0.45322, 0.00558, -0.01996, 0.89108,
 15:44:55.158,c2:22:89:2b:7b:c3, 2015-01-01 00:59:56.720, 0.028, -0.029, 1.005, 0.244, 0.366, 0, -1.664, -1.642, 126.101, 57.820, -42.042, -13.818, 22.41, 0.45322, 0.00558, -0.01996, 0.89108,
 15:44:55.158,c2:22:89:2b:7b:c3, 2015-01-01 00:59:56.720, 0.018, -0.024, 0.998, -1.038, 0.671, 0.061, -1.67, -1.637, 126.101, 57.820, -42.042, -13.818, 22.41, 0.45322, 0.00558, -0.01996, 0.89108,
 15:44:55.188,c2:22:89:2b:7b:c3, 2015-01-01 00:59:56.720, 0.017, -0.051, 0.998, -1.77, 0.671, 0, -1.686, -1.626, 126.101, 57.820, -42.042, -13.818, 22.41, 0.45322, 0.00558, -0.01996, 0.89108,
 15:44:55.188,c2:22:89:2b:7b:c3, 2015-01-01 00:59:56.720, 0.02, -0.049, 1.005, 0.671, -0.366, 0.061, -1.686, -1.626, 126.101, 57.820, -42.042, -13.818, 22.41, 0.45322, 0.00558, -0.01996, 0.89108,
 15:44:55.188,c2:22:89:2b:7b:c3, 2015-01-01 00:59:56.720, 0.016, -0.035, 1.004, 2.136, -0.244, -0.061, -1.67, -1.631, 126.101, 57.820, -42.042, -13.818, 22.41, 0.45322, 0.00558, -0.01996, 0.89108,
 15:44:55.188,c2:22:89:2b:7b:c3, 2015-01-01 00:59:56.720, 0.038, -0.006, 1.003, 2.319, -1.465, 0.061, -1.648, -1.642, 126.101, 57.820, -42.042, -13.818, 22.41, 0.45322, 0.00558, -0.01996, 0.89108,
 15:44:55.248,c2:22:89:2b:7b:c3, 2015-01-01 00:59:56.720, 0.048, 0.005, 1.006, 1.587, -1.343, -0.061, -1.631, -1.653, 126.101, 57.820, -42.042, -13.818, 22.41, 0.45322, 0.00558, -0.01996, 0.89108,
 15:44:55.248,c2:22:89:2b:7b:c3, 2015-01-01 00:59:56.720, 0.059, 0, 1.005, 0.061, 0, -0.122, -1.626, -1.659, 126.101, 57.820, -42.042, -13.818, 22.41, 0.45322, 0.00558, -0.01996, 0.89108,
 15:44:55.248,c2:22:89:2b:7b:c3, 2015-01-01 00:59:56.720, 0.032, -0.003, 1.006, -2.686, 1.709, 0.122, -1.642, -1.648, 126.101, 57.820, -42.042, -13.818, 22.41, 0.45322, 0.00558, -0.01996, 0.89108,
 15:44:55.248,c2:22:89:2b:7b:c3, 2015-01-01 00:59:56.720, 0.009, -0.056, 1.009, -5.798, 2.808, 0.366, -1.686, -1.62, 126.107, 57.820, -42.042, -13.818, 22.41, 0.45322, 0.00558, -0.01996, 0.89108,
 15:44:55.308,c2:22:89:2b:7b:c3, 2015-01-01 00:59:56.720, -0.023, -0.104, 0.995, -4.15, 2.747, 0.305, -1.736, -1.593, 126.107, 57.820, -42.042, -13.818, 22.41, 0.45322, 0.00558, -0.01996, 0.89108,
 15:44:55.308,c2:22:89:2b:7b:c3, 2015-01-01 00:59:56.720, -0.013, -0.107, 0.984, 1.282, 0.305, 0, -1.741, -1.582, 126.107, 57.820, -42.042, -13.818, 22.41, 0.45322, 0.00558, -0.01996, 0.89108,
 15:44:55.308,c2:22:89:2b:7b:c3, 2015-01-01 00:59:56.720, 0.015, -0.051, 0.99, 5.92, -3.052, 0, -1.692, -1.604, 126.107, 57.820, -42.042, -13.818, 22.41, 0.45322, 0.00558, -0.01996, 0.89108,
 15:44:55.308,c2:22:89:2b:7b:c3, 2015-01-01 00:59:56.720, 0.079, 0.016, 1.003, 7.507, -5.188, -0.427, -1.62, -1.648, 126.107, 57.820, -42.042, -13.818, 22.41, 0.45322, 0.00558, -0.01996, 0.89108,
 15:44:55.308,c2:22:89:2b:7b:c3, 2015-01-01 00:59:56.720, 0.084, 0.076, 1.003, 5.92, -4.028, 0, -1.56, -1.692, 126.107, 57.820, -42.042, -13.818, 22.41, 0.45322, 0.00558, -0.01996, 0.89108,
 15:44:55.308,c2:22:89:2b:7b:c3, 2015-01-01 00:59:56.720, 0.071, 0.079, 1.006, -0.488, 1.77, 0, -1.544, -1.686, 126.107, 57.820, -42.042, -13.818, 22.41, 0.45322, 0.00558, -0.01996, 0.89108,
 15:44:55.308,c2:22:89:2b:7b:c3, 2015-01-01 00:59:56.720, 0.04, 0.046, 1, -8.545, 3.357, 0.305, -1.604, -1.659, 126.107, 57.820, -42.042, -13.818, 22.41, 0.45322, 0.00558, -0.01996, 0.89108,
 15:44:55.308,c2:22:89:2b:7b:c3, 2015-01-01 00:59:56.720, -0.012, -0.09, 1.031, -12.512, 6.531, 0.61, -1.719, -1.599, 126.107, 57.820, -42.042, -13.818, 22.41, 0.45322, 0.00558, -0.01996, 0.89108,
 15:44:55.367,c2:22:89:2b:7b:c3, 2015-01-01 00:59:56.720, -0.056, -0.201, 0.999, -6.958, 4.883, 0.244, -1.807, -1.544, 126.107, 57.918, -42.042, -13.720, 22.41, 0.45322, 0.00558, -0.01996, 0.89108,
 15:44:55.367,c2:22:89:2b:7b:c3, 2015-01-01 00:59:56.720, -0.045, -0.164, 0.967, 3.174, 0.366, 0, -1.802, -1.533, 126.107, 57.918, -42.042, -13.720, 22.41, 0.45322, 0.00558, -0.01996, 0.89108,
 15:44:55.367,c2:22:89:2b:7b:c3, 2015-01-01 00:59:56.720, 0.019, -0.07, 1.006, 11.23, -5.737, -0.122, -1.719, -1.571, 126.107, 57.918, -42.042, -13.720, 22.41, 0.45322, 0.00558, -0.01996, 0.89108,
 15:44:55.367,c2:22:89:2b:7b:c3, 2015-01-01 00:59:56.720, 0.205, 0.031, 1.021, 13.855, -9.644, -0.305, -1.588, -1.653, 126.107, 57.918, -42.042, -13.720, 22.41, 0.45322, 0.00558, -0.01996, 0.89108,
 15:44:55.399,c2:22:89:2b:7b:c3, 2015-01-01 00:59:56.720, 0.028, 0.15, 1, 7.69, -2.075, 0, -1.483, -1.708, 126.107, 57.918, -42.042, -13.720, 22.41, 0.45322, 0.00558, -0.01996, 0.89108,
 15:44:55.399,c2:22:89:2b:7b:c3, 2015-01-01 00:59:56.720, 0.095, 0.124, 1.037, -6.104, 4.7, 0.305, -1.505, -1.67, 126.107, 57.918, -42.042, -13.720, 22.41, 0.45322, 0.00558, -0.01996, 0.89108,
 15:44:55.399,c2:22:89:2b:7b:c3, 2015-01-01 00:59:56.720, -0.011, 0.028, 0.97, -13.428, 5.676, 0.488, -1.615, -1.631, 126.112, 57.918, -42.042, -13.720, 22.41, 0.45322, 0.00558, -0.01996, 0.89108,
 15:44:55.399,c2:22:89:2b:7b:c3, 2015-01-01 00:59:56.720, -0.028, -0.174, 1.052, -13.367, 7.019, 0.366, -1.752, -1.56, 126.112, 57.918, -42.042, -13.720, 22.41, 0.45322, 0.00558, -0.01996, 0.89108,
 15:44:55.428,c2:22:89:2b:7b:c3, 2015-01-01 00:59:56.720, -0.065, -0.245, 1.01, -3.479, 2.38, 0.122, -1.813, -1.527, 126.112, 57.918, -42.042, -13.720, 22.41, 0.45316, 0.00485, -0.02008, 0.89114,
 15:44:55.428,c2:22:89:2b:7b:c3, 2015-01-01 00:59:56.720, -0.041, -0.155, 0.976, 6.897, -1.77, -0.244, -1.774, -1.527, 126.112, 57.918, -42.042, -13.720, 22.41, 0.45316, 0.00485, -0.02008, 0.89114,
 15:44:55.428,c2:22:89:2b:7b:c3, 2015-01-01 00:59:56.720, 0.059, -0.05, 1.005, 13.367, -7.568, -0.488, -1.664, -1.588, 126.112, 57.918, -42.042, -13.720, 22.41, 0.45316, 0.00485, -0.02008, 0.89114,
 15:44:55.428,c2:22:89:2b:7b:c3, 2015-01-01 00:59:56.720, 0.172, 0.066, 1.009, 14.099, -9.399, -0.305, -1.527, -1.675, 126.112, 57.918, -42.042, -13.720, 22.41, 0.45316, 0.00485, -0.02008, 0.89114,
 15:44:55.518,c2:22:89:2b:7b:c3, 2015-01-01 00:59:56.720, -0.001, 0.149, 0.972, 0.549, 1.282, -0.305, -1.494, -1.697, 126.112, 57.918, -42.042, -13.720, 22.41, 0.45316, 0.00485, -0.02008, 0.89114,
 15:44:55.518,c2:22:89:2b:7b:c3, 2015-01-01 00:59:56.720, 0.07, 0.07, 0.966, -8.85, 4.15, 0.427, -1.56, -1.653, 126.112, 57.918, -42.042, -13.720, 22.41, 0.45316, 0.00485, -0.02008, 0.89114,
 15:44:55.518,c2:22:89:2b:7b:c3, 2015-01-01 00:59:56.720, -0.042, -0.057, 0.979, -14.771, 6.958, 0.488, -1.692, -1.599, 126.112, 57.918, -42.042, -13.720, 22.41, 0.45316, 0.00485, -0.02008, 0.89114,
 15:44:55.518,c2:22:89:2b:7b:c3, 2015-01-01 00:59:56.720, -0.044, -0.185, 1.021, -8.362, 4.761, 0.366, -1.796, -1.538, 126.112, 57.918, -42.042, -13.720, 22.41, 0.45316, 0.00485, -0.02008, 0.89114,
 15:44:55.518,c2:22:89:2b:7b:c3, 2015-01-01 00:59:56.720, -0.045, -0.152, 0.975, 3.296, 0.854, -0.122, -1.796, -1.522, 126.112, 57.918, -42.042, -13.720, 22.41, 0.45316, 0.00485, -0.02008, 0.89114,
 15:44:55.518,c2:22:89:2b:7b:c3, 2015-01-01 00:59:56.720, 0.034, -0.061, 0.986, 9.827, -5.432, -0.366, -1.719, -1.56, 126.112, 57.918, -42.042, -13.720, 22.41, 0.45316, 0.00485, -0.02008, 0.89114,
 15:44:55.518,c2:22:89:2b:7b:c3, 2015-01-01 00:59:56.720, 0.185, -0.001, 1.008, 10.986, -8.545, -0.366, -1.615, -1.631, 126.112, 57.918, -42.042, -13.720, 22.41, 0.45316, 0.00485, -0.02008, 0.89114,
 15:44:55.518,c2:22:89:2b:7b:c3, 2015-01-01 00:59:56.720, 0.041, 0.084, 1.038, 3.845, -2.991, -0.305, -1.549, -1.681, 126.112, 57.918, -42.042, -13.720, 22.41, 0.45316, 0.00485, -0.02008, 0.89114,
 15:44:55.547,c2:22:89:2b:7b:c3, 2015-01-01 00:59:57.135, 0.067, 0.068, 1.044, -5.127, 4.517, 0.061, -1.582, -1.648, 126.112, 57.918, -42.042, -13.720, 22.41, 0.45316, 0.00485, -0.02008, 0.89114,
 15:44:55.547,c2:22:89:2b:7b:c3, 2015-01-01 00:59:57.135, -0.048, -0.02, 0.95, -12.39, 5.92, 0.305, -1.686, -1.599, 126.112, 57.918, -42.042, -13.720, 22.41, 0.45316, 0.00485, -0.02008, 0.89114,
 15:44:55.547,c2:22:89:2b:7b:c3, 2015-01-01 00:59:57.135, -0.062, -0.157, 1.009, -8.118, 5.005, 0.183, -1.785, -1.544, 126.112, 57.918, -42.042, -13.720, 22.41, 0.45316, 0.00485, -0.02008, 0.89114,
 15:44:55.547,c2:22:89:2b:7b:c3, 2015-01-01 00:59:57.135, -0.031, -0.127, 1.004, 3.174, -0.671, 0, -1.785, -1.533, 126.112, 57.918, -42.042, -13.720, 22.41, 0.45316, 0.00485, -0.02008, 0.89114,
 15:44:55.607,c2:22:89:2b:7b:c3, 2015-01-01 00:59:57.135, 0.069, -0.027, 1.004, 9.827, -5.127, -0.427, -1.703, -1.571, 126.112, 57.918, -42.042, -13.720, 22.41, 0.45316, 0.00485, -0.02008, 0.89114,
 15:44:55.607,c2:22:89:2b:7b:c3, 2015-01-01 00:59:57.135, 0.169, 0.015, 1.019, 7.874, -7.874, -0.122, -1.62, -1.642, 126.112, 57.918, -42.042, -13.720, 22.41, 0.45316, 0.00485, -0.02008, 0.89114,
 15:44:55.607,c2:22:89:2b:7b:c3, 2015-01-01 00:59:57.135, 0.08, 0.022, 1.006, -0.183, 0.488, 0.122, -1.599, -1.664, 126.112, 57.918, -42.042, -13.720, 22.41, 0.45316, 0.00485, -0.02008, 0.89114,
 15:44:55.607,c2:22:89:2b:7b:c3, 2015-01-01 00:59:57.135, -0.005, -0.007, 1.031, -8.118, 5.798, 0.244, -1.653, -1.62, 126.112, 57.918, -42.042, -13.720, 22.41, 0.45316, 0.00485, -0.02008, 0.89114,
 15:44:55.638,c2:22:89:2b:7b:c3, 2015-01-01 00:59:57.135, -0.069, -0.083, 1.009, -9.644, 7.202, 0.305, -1.752, -1.549, 126.112, 57.918, -42.042, -13.720, 22.41, 0.45316, 0.00485, -0.02008, 0.89114,
 15:44:55.638,c2:22:89:2b:7b:c3, 2015-01-01 00:59:57.135, -0.039, -0.164, 0.98, -2.075, 1.16, 0.366, -1.807, -1.522, 126.118, 57.918, -42.042, -13.720, 22.41, 0.45316, 0.00485, -0.02008, 0.89114,
 15:44:55.638,c2:22:89:2b:7b:c3, 2015-01-01 00:59:57.135, -0.011, -0.088, 0.99, 8.24, -3.662, -0.244, -1.752, -1.544, 126.118, 57.918, -42.042, -13.720, 22.41, 0.45316, 0.00485, -0.02008, 0.89114,
 15:44:55.638,c2:22:89:2b:7b:c3, 2015-01-01 00:59:57.135, 0.226, 0.012, 1.022, 13.062, -8.118, -0.305, -1.637, -1.609, 126.118, 57.918, -42.042, -13.720, 22.41, 0.45316, 0.00485, -0.02008, 0.89114,
 15:44:55.668,c2:22:89:2b:7b:c3, 2015-01-01 00:59:57.135, 0.068, 0.149, 1.045, 5.31, -5.249, -0.366, -1.544, -1.681, 126.112, 57.918, -42.042, -13.720, 22.41, 0.45316, 0.00485, -0.02008, 0.89114,
 15:44:55.668,c2:22:89:2b:7b:c3, 2015-01-01 00:59:57.135, 0.116, 0.098, 1.062, -7.996, 5.676, 0.061, -1.588, -1.642, 126.112, 57.918, -42.042, -13.720, 22.41, 0.45316, 0.00485, -0.02008, 0.89114,
 15:44:55.668,c2:22:89:2b:7b:c3, 2015-01-01 00:59:57.135, -0.061, -0.05, 0.951, -16.113, 7.874, 0.61, -1.725, -1.582, 126.112, 57.918, -42.042, -13.720, 22.41, 0.45316, 0.00485, -0.02008, 0.89114,
 15:44:55.668,c2:22:89:2b:7b:c3, 2015-01-01 00:59:57.135, -0.083, -0.234, 1.036, -13.123, 8.057, 0.488, -1.868, -1.494, 126.118, 57.918, -42.042, -13.720, 22.41, 0.45316, 0.00485, -0.02008, 0.89114,
 15:44:55.728,c2:22:89:2b:7b:c3, 2015-01-01 00:59:57.135, -0.072, -0.203, 0.966, 3.052, -0.549, -0.061, -1.879, -1.483, 126.118, 57.918, -42.042, -13.720, 22.41, 0.45316, 0.00485, -0.02008, 0.89114,
 15:44:55.728,c2:22:89:2b:7b:c3, 2015-01-01 00:59:57.135, 0.035, -0.08, 1, 13.306, -6.287, -0.366, -1.774, -1.527, 126.112, 57.918, -42.042, -13.720, 22.41, 0.45316, 0.00485, -0.02008, 0.89114,
 15:44:55.728,c2:22:89:2b:7b:c3, 2015-01-01 00:59:57.135, 0.238, 0.006, 1.013, 12.939, -10.681, -0.549, -1.648, -1.62, 126.112, 57.918, -42.042, -13.720, 22.41, 0.45316, 0.00485, -0.02008, 0.89114,
 15:44:55.728,c2:22:89:2b:7b:c3, 2015-01-01 00:59:57.135, -0.002, 0.094, 1, 5.92, -1.709, -0.183, -1.56, -1.675, 126.112, 57.918, -42.042, -13.720, 22.41, 0.45316, 0.00485, -0.02008, 0.89114,
 15:44:55.758,c2:22:89:2b:7b:c3, 2015-01-01 00:59:57.135, 0.039, 0.095, 1.048, -3.723, 4.517, 0.061, -1.571, -1.631, 126.112, 57.918, -42.042, -13.328, 22.41, 0.45316, 0.00485, -0.02008, 0.89114,
 15:44:55.758,c2:22:89:2b:7b:c3, 2015-01-01 00:59:57.135, -0.006, 0.051, 0.952, -9.705, 4.272, 0.305, -1.648, -1.599, 126.112, 57.918, -42.042, -13.328, 22.41, 0.45316, 0.00485, -0.02008, 0.89114,
 15:44:55.758,c2:22:89:2b:7b:c3, 2015-01-01 00:59:57.135, 0.025, -0.091, 1.023, -7.69, 2.563, 0.305, -1.736, -1.566, 126.112, 57.918, -42.042, -13.328, 22.41, 0.45316, 0.00485, -0.02008, 0.89114,
 15:44:55.758,c2:22:89:2b:7b:c3, 2015-01-01 00:59:57.135, -0.007, -0.117, 1.022, -2.869, 1.77, 0, -1.774, -1.549, 126.112, 57.918, -42.042, -13.328, 22.41, 0.45316, 0.00485, -0.02008, 0.89114,
 15:44:55.789,c2:22:89:2b:7b:c3, 2015-01-01 00:59:57.135, 0.011, -0.118, 1.015, -0.366, 0.61, -0.061, -1.78, -1.538, 126.112, 57.918, -42.042, -13.328, 22.41, 0.45316, 0.00485, -0.02008, 0.89114,
 15:44:55.789,c2:22:89:2b:7b:c3, 2015-01-01 00:59:57.135, 0.005, -0.116, 0.995, 1.404, -0.977, -0.061, -1.774, -1.538, 126.112, 57.918, -42.042, -13.328, 22.41, 0.45316, 0.00485, -0.02008, 0.89114,
 15:44:55.789,c2:22:89:2b:7b:c3, 2015-01-01 00:59:57.135, 0, -0.077, 0.999, 5.005, -2.258, -0.244, -1.741, -1.56, 126.112, 57.918, -42.042, -13.328, 22.41, 0.45316, 0.00485, -0.02008, 0.89114,
 15:44:55.789,c2:22:89:2b:7b:c3, 2015-01-01 00:59:57.135, 0.033, 0.008, 0.992, 8.545, -3.479, -0.244, -1.67, -1.588, 126.112, 57.918, -42.042, -13.328, 22.41, 0.45316, 0.00485, -0.02008, 0.89114,
 15:44:55.849,c2:22:89:2b:7b:c3, 2015-01-01 00:59:57.135, 0.11, 0.077, 1, 6.47, -4.578, -0.122, -1.599, -1.631, 126.112, 57.918, -42.042, -13.328, 22.41, 0.45312, 0.00546, -0.0195, 0.89114,
 15:44:55.849,c2:22:89:2b:7b:c3, 2015-01-01 00:59:57.135, 0.054, 0.109, 0.992, 0.061, -0.122, 0, -1.582, -1.648, 126.112, 57.918, -42.042, -13.328, 22.41, 0.45312, 0.00546, -0.0195, 0.89114,
 15:44:55.849,c2:22:89:2b:7b:c3, 2015-01-01 00:59:57.135, 0.047, 0.042, 1.002, -6.531, 3.113, 0.183, -1.626, -1.62, 126.112, 57.918, -42.042, -13.328, 22.41, 0.45312, 0.00546, -0.0195, 0.89114,
 15:44:55.849,c2:22:89:2b:7b:c3, 2015-01-01 00:59:57.135, -0.025, -0.05, 0.99, -9.949, 6.47, 0.244, -1.714, -1.566, 126.112, 57.918, -42.042, -13.328, 22.41, 0.45312, 0.00546, -0.0195, 0.89114,
 15:44:55.878,c2:22:89:2b:7b:c3, 2015-01-01 00:59:57.525, -0.019, -0.144, 1.003, -6.653, 3.723, 0.366, -1.796, -1.522, 126.112, 57.918, -42.042, -13.328, 22.41, 0.45312, 0.00546, -0.0195, 0.89114,
 15:44:55.878,c2:22:89:2b:7b:c3, 2015-01-01 00:59:57.525, -0.017, -0.147, 0.998, 1.16, 0.427, 0, -1.802, -1.505, 126.112, 57.918, -42.042, -13.328, 22.41, 0.45312, 0.00546, -0.0195, 0.89114,
 15:44:55.878,c2:22:89:2b:7b:c3, 2015-01-01 00:59:57.525, 0.028, -0.089, 1.006, 6.104, -3.723, -0.244, -1.758, -1.533, 126.112, 57.918, -42.042, -13.328, 22.41, 0.45312, 0.00546, -0.0195, 0.89114,
 15:44:55.878,c2:22:89:2b:7b:c3, 2015-01-01 00:59:57.525, 0.069, -0.043, 1.013, 7.202, -4.883, -0.061, -1.692, -1.582, 126.112, 57.918, -42.042, -13.328, 22.41, 0.45312, 0.00546, -0.0195, 0.89114,
 15:44:55.938,c2:22:89:2b:7b:c3, 2015-01-01 00:59:57.525, 0.055, 0.02, 1.007, 6.348, -3.296, 0, -1.626, -1.615, 126.118, 57.918, -42.042, -13.328, 22.41, 0.45312, 0.00546, -0.0195, 0.89114,
 15:44:55.938,c2:22:89:2b:7b:c3, 2015-01-01 00:59:57.525, 0.032, 0.094, 1.01, 4.7, -0.854, 0, -1.577, -1.626, 126.112, 57.918, -42.042, -13.328, 22.41, 0.45312, 0.00546, -0.0195, 0.89114,
 15:44:55.938,c2:22:89:2b:7b:c3, 2015-01-01 00:59:57.525, 0.074, 0.118, 1.003, -0.61, 0.305, -0.061, -1.566, -1.626, 126.112, 57.918, -42.042, -13.328, 22.41, 0.45312, 0.00546, -0.0195, 0.89114,
 15:44:55.938,c2:22:89:2b:7b:c3, 2015-01-01 00:59:57.525, 0.094, 0.049, 0.998, -7.996, 1.465, 0.183, -1.62, -1.615, 126.112, 57.918, -42.042, -13.328, 22.41, 0.45312, 0.00546, -0.0195, 0.89114,
 15:44:55.967,c2:22:89:2b:7b:c3, 2015-01-01 00:59:57.525, -0.009, -0.1, 1.021, -12.512, 5.92, 0.488, -1.73, -1.571, 126.112, 57.918, -42.042, -13.328, 22.41, 0.45312, 0.00546, -0.0195, 0.89114,
 15:44:55.967,c2:22:89:2b:7b:c3, 2015-01-01 00:59:57.525, -0.099, -0.19, 1.003, -8.972, 7.263, 0.244, -1.829, -1.5, 126.112, 57.918, -42.042, -13.328, 22.41, 0.45312, 0.00546, -0.0195, 0.89114,
 15:44:55.967,c2:22:89:2b:7b:c3, 2015-01-01 00:59:57.525, -0.065, -0.182, 0.96, 1.709, 1.587, 0, -1.846, -1.461, 126.112, 57.918, -42.042, -13.328, 22.41, 0.45312, 0.00546, -0.0195, 0.89114,
 15:44:55.967,c2:22:89:2b:7b:c3, 2015-01-01 00:59:57.525, 0.021, -0.089, 0.994, 10.681, -6.775, -0.366, -1.763, -1.511, 126.112, 57.918, -42.042, -13.328, 22.41, 0.45312, 0.00546, -0.0195, 0.89114,
 15:44:55.997,c2:22:89:2b:7b:c3, 2015-01-01 00:59:57.525, 0.233, 0.002, 1.028, 14.16, -10.315, -0.488, -1.637, -1.604, 126.112, 57.918, -42.042, -13.328, 22.41, 0.45312, 0.00546, -0.0195, 0.89114,
 15:44:55.997,c2:22:89:2b:7b:c3, 2015-01-01 00:59:57.525, 0, 0.114, 1.004, 6.897, -1.099, -0.122, -1.538, -1.653, 126.112, 57.918, -42.042, -13.328, 22.41, 0.45312, 0.00546, -0.0195, 0.89114,
 15:44:55.997,c2:22:89:2b:7b:c3, 2015-01-01 00:59:57.525, 0.048, 0.092, 1.044, -4.333, 4.333, 0.305, -1.555, -1.609, 126.112, 57.918, -42.042, -13.328, 22.41, 0.45312, 0.00546, -0.0195, 0.89114,
 15:44:55.997,c2:22:89:2b:7b:c3, 2015-01-01 00:59:57.525, -0.001, 0.062, 0.955, -8.789, 3.906, 0.244, -1.626, -1.582, 126.112, 57.918, -42.042, -13.328, 22.41, 0.45312, 0.00546, -0.0195, 0.89114,
 15:44:56.029,c2:22:89:2b:7b:c3, 2015-01-01 00:59:57.525, 0.037, -0.087, 1.029, -8.789, 3.479, 0.244, -1.714, -1.538, 126.112, 57.918, -42.042, -13.328, 22.41, 0.45312, 0.00546, -0.0195, 0.89114,
 15:44:56.029,c2:22:89:2b:7b:c3, 2015-01-01 00:59:57.525, 0.001, -0.136, 1.018, -5.066, 2.014, 0.244, -1.774, -1.522, 126.112, 57.918, -42.042, -13.328, 22.41, 0.45312, 0.00546, -0.0195, 0.89114,
 15:44:56.029,c2:22:89:2b:7b:c3, 2015-01-01 00:59:57.525, -0.038, -0.152, 0.986, -1.709, 2.625, 0.122, -1.802, -1.494, 126.112, 57.918, -42.042, -13.328, 22.41, 0.45312, 0.00546, -0.0195, 0.89114,
 15:44:56.029,c2:22:89:2b:7b:c3, 2015-01-01 00:59:57.525, -0.015, -0.131, 0.986, 4.395, -1.526, -0.122, -1.78, -1.5, 126.112, 57.918, -42.042, -13.328, 22.41, 0.45312, 0.00546, -0.0195, 0.89114,
 15:44:56.087,c2:22:89:2b:7b:c3, 2015-01-01 00:59:57.525, 0.036, -0.038, 0.996, 9.277, -5.127, -0.244, -1.703, -1.538, 126.107, 57.918, -42.042, -13.328, 22.41, 0.45312, 0.00546, -0.0195, 0.89114,
 15:44:56.087,c2:22:89:2b:7b:c3, 2015-01-01 00:59:57.525, 0.146, 0.037, 1.005, 10.071, -6.47, -0.366, -1.609, -1.599, 126.112, 57.918, -42.042, -13.328, 22.41, 0.45312, 0.00546, -0.0195, 0.89114,
 15:44:56.087,c2:22:89:2b:7b:c3, 2015-01-01 00:59:57.525, 0.024, 0.101, 0.998, 3.723, -1.221, -0.061, -1.549, -1.637, 126.107, 57.918, -42.042, -13.328, 22.41, 0.45312, 0.00546, -0.0195, 0.89114,
 15:44:56.087,c2:22:89:2b:7b:c3, 2015-01-01 00:59:57.525, 0.059, 0.074, 1.023, -4.333, 2.869, 0.183, -1.571, -1.609, 126.107, 57.918, -42.042, -13.328, 22.41, 0.45312, 0.00546, -0.0195, 0.89114,
 15:44:56.148,c2:22:89:2b:7b:c3, 2015-01-01 00:59:57.525, -0.002, 0.011, 0.978, -8.972, 4.211, 0.488, -1.648, -1.577, 126.112, 57.820, -41.944, -13.132, 22.41, 0.45312, 0.00546, -0.0195, 0.89114,
 15:44:56.148,c2:22:89:2b:7b:c3, 2015-01-01 00:59:57.525, -0.004, -0.092, 1.014, -7.874, 4.333, 0.305, -1.73, -1.533, 126.112, 57.820, -41.944, -13.132, 22.41, 0.45312, 0.00546, -0.0195, 0.89114,
 15:44:56.148,c2:22:89:2b:7b:c3, 2015-01-01 00:59:57.525, -0.002, -0.126, 1.009, -3.357, 1.77, 0.122, -1.769, -1.511, 126.112, 57.820, -41.944, -13.132, 22.41, 0.45312, 0.00546, -0.0195, 0.89114,
 15:44:56.148,c2:22:89:2b:7b:c3, 2015-01-01 00:59:57.525, 0.009, -0.13, 0.99, -0.366, 0.366, 0.183, -1.785, -1.505, 126.112, 57.820, -41.944, -13.132, 22.41, 0.45312, 0.00546, -0.0195, 0.89114,
 15:44:56.148,c2:22:89:2b:7b:c3, 2015-01-01 00:59:57.525, 0.008, -0.123, 1.002, 3.784, -2.319, -0.061, -1.763, -1.522, 126.112, 57.820, -41.944, -13.132, 22.41, 0.45312, 0.00546, -0.0195, 0.89114,
 15:44:56.148,c2:22:89:2b:7b:c3, 2015-01-01 00:59:57.525, 0, -0.044, 1.002, 7.812, -2.991, -0.122, -1.697, -1.544, 126.112, 57.820, -41.944, -13.132, 22.41, 0.45312, 0.00546, -0.0195, 0.89114,
 15:44:56.148,c2:22:89:2b:7b:c3, 2015-01-01 00:59:57.525, 0.117, 0.044, 0.999, 9.521, -4.761, -0.244, -1.609, -1.588, 126.112, 57.820, -41.944, -13.132, 22.41, 0.45312, 0.00546, -0.0195, 0.89114,
 15:44:56.148,c2:22:89:2b:7b:c3, 2015-01-01 00:59:57.525, 0.076, 0.158, 1.029, 4.944, -4.456, -0.244, -1.544, -1.631, 126.112, 57.820, -41.944, -13.132, 22.41, 0.45312, 0.00546, -0.0195, 0.89114,
 15:44:56.207,c2:22:89:2b:7b:c3, 2015-01-01 00:59:57.525, 0.111, 0.128, 1.031, -4.7, 2.991, 0.122, -1.56, -1.62, 126.112, 57.820, -41.944, -13.132, 22.41, 0.45312, 0.00546, -0.0195, 0.89114,
 15:44:56.207,c2:22:89:2b:7b:c3, 2015-01-01 00:59:57.525, -0.002, -0.007, 0.984, -13.611, 4.944, 0.366, -1.664, -1.582, 126.112, 57.820, -41.944, -13.132, 22.41, 0.45312, 0.00546, -0.0195, 0.89114,
 15:44:56.207,c2:22:89:2b:7b:c3, 2015-01-01 00:59:57.525, -0.078, -0.168, 1.02, -13.672, 8.423, 0.488, -1.807, -1.505, 126.112, 57.820, -41.944, -13.132, 22.41, 0.45312, 0.00546, -0.0195, 0.89114,
 15:44:56.207,c2:22:89:2b:7b:c3, 2015-01-01 00:59:57.525, -0.045, -0.231, 0.993, -3.601, 2.808, 0.061, -1.868, -1.461, 126.112, 57.820, -41.944, -13.132, 22.41, 0.45312, 0.00546, -0.0195, 0.89114,
 15:44:56.238,c2:22:89:2b:7b:c3, 2015-01-01 00:59:57.525, 0, -0.149, 0.975, 6.592, -2.869, -0.122, -1.829, -1.472, 126.112, 57.820, -41.944, -13.132, 22.41, 0.45319, 0.00571, -0.01923, 0.89114,
 15:44:56.238,c2:22:89:2b:7b:c3, 2015-01-01 00:59:57.525, 0.065, -0.076, 1.026, 10.132, -7.751, -0.183, -1.741, -1.533, 126.112, 57.820, -41.944, -13.132, 22.41, 0.45319, 0.00571, -0.01923, 0.89114,
 15:44:56.238,c2:22:89:2b:7b:c3, 2015-01-01 00:59:57.525, 0.129, 0.015, 1.006, 11.841, -6.531, -0.366, -1.637, -1.599, 126.112, 57.820, -41.944, -13.132, 22.41, 0.45319, 0.00571, -0.01923, 0.89114,
 15:44:56.238,c2:22:89:2b:7b:c3, 2015-01-01 00:59:57.525, 0.011, 0.16, 0.986, 7.324, -0.183, 0, -1.544, -1.626, 126.112, 57.820, -41.944, -13.132, 22.41, 0.45319, 0.00571, -0.01923, 0.89114,
 15:44:56.268,c2:22:89:2b:7b:c3, 2015-01-01 00:59:57.525, 0.063, 0.161, 1.029, -1.953, 1.892, -0.122, -1.538, -1.609, 126.112, 57.820, -41.944, -13.132, 22.41, 0.45319, 0.00571, -0.01923, 0.89114,
 15:44:56.268,c2:22:89:2b:7b:c3, 2015-01-01 00:59:57.525, 0.092, 0.077, 1, -10.315, 1.587, 0.427, -1.609, -1.599, 126.112, 57.820, -41.944, -13.132, 22.41, 0.45319, 0.00571, -0.01923, 0.89114,
 15:44:56.268,c2:22:89:2b:7b:c3, 2015-01-01 00:59:57.525, -0.008, -0.135, 1.012, -14.893, 7.141, 0.366, -1.747, -1.544, 126.112, 57.820, -41.944, -13.132, 22.41, 0.45319, 0.00571, -0.01923, 0.89114,
 15:44:56.268,c2:22:89:2b:7b:c3, 2015-01-01 00:59:57.525, -0.094, -0.222, 0.999, -8.911, 6.958, 0.427, -1.857, -1.472, 126.112, 57.820, -41.944, -13.132, 22.41, 0.45319, 0.00571, -0.01923, 0.89114,
 15:44:56.387,c2:22:89:2b:7b:c3, 2015-01-01 00:59:57.940, -0.067, -0.185, 0.97, 1.892, 1.648, -0.061, -1.868, -1.439, 126.112, 57.820, -41.944, -13.132, 22.41, 0.45319, 0.00571, -0.01923, 0.89114,
 15:44:56.387,c2:22:89:2b:7b:c3, 2015-01-01 00:59:57.940, 0.036, -0.101, 0.992, 9.583, -5.615, -0.183, -1.796, -1.478, 126.118, 57.820, -41.944, -13.132, 22.41, 0.45319, 0.00571, -0.01923, 0.89114,
 15:44:56.387,c2:22:89:2b:7b:c3, 2015-01-01 00:59:57.940, 0.172, -0.034, 1.013, 12.085, -10.01, -0.305, -1.681, -1.566, 126.118, 57.820, -41.944, -13.132, 22.41, 0.45319, 0.00571, -0.01923, 0.89114,
 15:44:56.387,c2:22:89:2b:7b:c3, 2015-01-01 00:59:57.940, 0.048, 0.133, 1.021, 9.888, -5.676, -0.122, -1.582, -1.631, 126.118, 57.820, -41.944, -13.132, 22.41, 0.45319, 0.00571, -0.01923, 0.89114,
 15:44:56.389,c2:22:89:2b:7b:c3, 2015-01-01 00:59:57.940, 0.002, 0.154, 1.024, 2.38, 3.662, -0.061, -1.538, -1.609, 126.118, 57.820, -41.944, -13.132, 22.41, 0.45319, 0.00571, -0.01923, 0.89114,
 15:44:56.389,c2:22:89:2b:7b:c3, 2015-01-01 00:59:57.940, 0.054, 0.133, 0.953, -4.822, 0.854, 0.061, -1.566, -1.593, 126.112, 57.820, -41.944, -13.132, 22.41, 0.45319, 0.00571, -0.01923, 0.89114,
 15:44:56.389,c2:22:89:2b:7b:c3, 2015-01-01 00:59:57.940, 0.076, -0.011, 1.009, -10.376, 2.136, 0.183, -1.648, -1.577, 126.112, 57.820, -41.944, -13.132, 22.41, 0.45319, 0.00571, -0.01923, 0.89114,
 15:44:56.389,c2:22:89:2b:7b:c3, 2015-01-01 00:59:57.940, -0.013, -0.13, 1.019, -10.376, 5.005, 0.305, -1.747, -1.538, 126.112, 57.820, -41.944, -13.132, 22.41, 0.45319, 0.00571, -0.01923, 0.89114,
 15:44:56.389,c2:22:89:2b:7b:c3, 2015-01-01 00:59:57.940, -0.083, -0.179, 1.008, -5.798, 6.287, 0.244, -1.818, -1.472, 126.112, 57.820, -41.944, -13.132, 22.41, 0.45319, 0.00571, -0.01923, 0.89114,
 15:44:56.389,c2:22:89:2b:7b:c3, 2015-01-01 00:59:57.940, -0.042, -0.154, 0.96, 2.014, -0.427, 0, -1.818, -1.461, 126.118, 57.820, -41.944, -13.132, 22.41, 0.45319, 0.00571, -0.01923, 0.89114,
 15:44:56.389,c2:22:89:2b:7b:c3, 2015-01-01 00:59:57.940, 0.045, -0.095, 0.996, 8.667, -5.981, -0.366, -1.752, -1.505, 126.118, 57.820, -41.944, -13.132, 22.41, 0.45319, 0.00571, -0.01923, 0.89114,
 15:44:56.389,c2:22:89:2b:7b:c3, 2015-01-01 00:59:57.940, 0.137, -0.028, 1.025, 10.62, -8.118, -0.366, -1.653, -1.577, 126.118, 57.820, -41.944, -13.132, 22.41, 0.45319, 0.00571, -0.01923, 0.89114,
 15:44:56.448,c2:22:89:2b:7b:c3, 2015-01-01 00:59:57.940, 0.048, 0.11, 1.025, 7.751, -4.028, -0.183, -1.571, -1.626, 126.118, 57.820, -41.944, -13.132, 22.41, 0.45319, 0.00571, -0.01923, 0.89114,
 15:44:56.448,c2:22:89:2b:7b:c3, 2015-01-01 00:59:57.940, 0.018, 0.11, 1.008, 0.549, 2.502, -0.061, -1.549, -1.609, 126.118, 57.820, -41.944, -13.132, 22.41, 0.45319, 0.00571, -0.01923, 0.89114,
 15:44:56.449,c2:22:89:2b:7b:c3, 2015-01-01 00:59:57.940, 0.033, 0.098, 0.965, -3.967, 0.61, 0, -1.577, -1.599, 126.112, 57.820, -41.944, -13.132, 22.41, 0.45319, 0.00571, -0.01923, 0.89114,
 15:44:56.449,c2:22:89:2b:7b:c3, 2015-01-01 00:59:57.940, 0.071, 0.01, 1.014, -7.446, 2.136, 0.122, -1.631, -1.582, 126.112, 57.820, -41.944, -13.132, 22.41, 0.45319, 0.00571, -0.01923, 0.89114,
 15:44:56.478,c2:22:89:2b:7b:c3, 2015-01-01 00:59:57.940, 0.024, -0.089, 1.015, -8.728, 3.54, 0.183, -1.708, -1.555, 126.112, 57.820, -41.944, -13.132, 22.41, 0.45319, 0.00571, -0.01923, 0.89114,
 15:44:56.478,c2:22:89:2b:7b:c3, 2015-01-01 00:59:57.940, -0.061, -0.171, 1.007, -7.812, 5.615, 0.244, -1.791, -1.505, 126.112, 57.820, -41.944, -13.132, 22.41, 0.45319, 0.00571, -0.01923, 0.89114,
 15:44:56.478,c2:22:89:2b:7b:c3, 2015-01-01 00:59:57.940, -0.054, -0.183, 0.984, 0.366, 1.16, 0, -1.813, -1.472, 126.112, 57.820, -41.944, -13.132, 22.41, 0.45319, 0.00571, -0.01923, 0.89114,
 15:44:56.478,c2:22:89:2b:7b:c3, 2015-01-01 00:59:57.940, 0.012, -0.097, 0.989, 8.545, -4.944, -0.183, -1.752, -1.505, 126.112, 57.820, -41.944, -13.132, 22.41, 0.45319, 0.00571, -0.01923, 0.89114,
 15:44:56.509,c2:22:89:2b:7b:c3, 2015-01-01 00:59:57.940, 0.159, -0.01, 1.018, 11.963, -8.24, -0.488, -1.648, -1.577, 126.112, 57.820, -41.944, -12.838, 22.41, 0.45319, 0.00571, -0.01923, 0.89114,
 15:44:56.509,c2:22:89:2b:7b:c3, 2015-01-01 00:59:57.940, 0.057, 0.155, 1.035, 9.277, -6.653, -0.305, -1.549, -1.653, 126.112, 57.820, -41.944, -12.838, 22.41, 0.45319, 0.00571, -0.01923, 0.89114,
 15:44:56.509,c2:22:89:2b:7b:c3, 2015-01-01 00:59:57.940, 0.031, 0.148, 1.022, 1.038, 3.967, -0.122, -1.511, -1.631, 126.107, 57.820, -41.944, -12.838, 22.41, 0.45319, 0.00571, -0.01923, 0.89114,
 15:44:56.509,c2:22:89:2b:7b:c3, 2015-01-01 00:59:57.940, 0.042, 0.119, 0.948, -7.019, 1.343, 0.183, -1.56, -1.609, 126.107, 57.820, -41.944, -12.838, 22.41, 0.45319, 0.00571, -0.01923, 0.89114,
 15:44:56.567,c2:22:89:2b:7b:c3, 2015-01-01 00:59:57.940, 0.051, -0.03, 1.015, -12.024, 4.395, 0.366, -1.659, -1.571, 126.107, 57.820, -41.944, -12.838, 22.41, 0.45319, 0.00571, -0.01923, 0.89114,
 15:44:56.567,c2:22:89:2b:7b:c3, 2015-01-01 00:59:57.940, -0.037, -0.169, 1.017, -10.803, 4.883, 0.183, -1.763, -1.527, 126.107, 57.820, -41.944, -12.838, 22.41, 0.45319, 0.00571, -0.01923, 0.89114,
 15:44:56.567,c2:22:89:2b:7b:c3, 2015-01-01 00:59:57.940, -0.078, -0.228, 1, -4.822, 5.005, 0.244, -1.829, -1.478, 126.107, 57.820, -41.944, -12.838, 22.41, 0.45319, 0.00571, -0.01923, 0.89114,
 15:44:56.567,c2:22:89:2b:7b:c3, 2015-01-01 00:59:57.940, -0.043, -0.17, 0.958, 5.31, -1.831, -0.061, -1.807, -1.478, 126.107, 57.820, -41.944, -12.838, 22.41, 0.45319, 0.00571, -0.01923, 0.89114,
 15:44:56.598,c2:22:89:2b:7b:c3, 2015-01-01 00:59:57.940, 0.055, -0.067, 1.008, 13.123, -7.935, -0.183, -1.703, -1.538, 126.112, 57.820, -41.944, -12.838, 22.41, 0.45319, 0.00491, -0.01978, 0.89111,
 15:44:56.598,c2:22:89:2b:7b:c3, 2015-01-01 00:59:57.940, 0.172, 0.042, 1.025, 14.832, -10.071, -0.183, -1.56, -1.631, 126.112, 57.820, -41.944, -12.838, 22.41, 0.45319, 0.00491, -0.01978, 0.89111,
 15:44:56.598,c2:22:89:2b:7b:c3, 2015-01-01 00:59:57.940, -0.026, 0.173, 0.97, 1.465, 1.282, -0.061, -1.516, -1.653, 126.107, 57.820, -41.944, -12.838, 22.41, 0.45319, 0.00491, -0.01978, 0.89111,
 15:44:56.598,c2:22:89:2b:7b:c3, 2015-01-01 00:59:57.940, 0.072, 0.098, 0.978, -6.348, 3.418, 0.244, -1.56, -1.615, 126.107, 57.820, -41.944, -12.838, 22.41, 0.45319, 0.00491, -0.01978, 0.89111,
 15:44:56.658,c2:22:89:2b:7b:c3, 2015-01-01 00:59:57.940, -0.011, 0.017, 0.978, -13, 5.066, 0.366, -1.67, -1.577, 126.107, 57.820, -41.944, -12.838, 22.41, 0.45319, 0.00491, -0.01978, 0.89111,
 15:44:56.658,c2:22:89:2b:7b:c3, 2015-01-01 00:59:57.940, 0, -0.152, 1.045, -10.254, 5.249, 0.305, -1.78, -1.522, 126.112, 57.820, -41.944, -12.838, 22.41, 0.45319, 0.00491, -0.01978, 0.89111,
 15:44:56.658,c2:22:89:2b:7b:c3, 2015-01-01 00:59:57.940, -0.048, -0.191, 1.009, -4.395, 2.625, 0.244, -1.835, -1.494, 126.112, 57.820, -41.944, -12.838, 22.41, 0.45319, 0.00491, -0.01978, 0.89111,
 15:44:56.658,c2:22:89:2b:7b:c3, 2015-01-01 00:59:57.940, -0.035, -0.18, 0.974, 1.953, 0, 0, -1.84, -1.483, 126.112, 57.820, -41.944, -12.838, 22.41, 0.45319, 0.00491, -0.01978, 0.89111,
 15:44:56.688,c2:22:89:2b:7b:c3, 2015-01-01 00:59:58.300, 0.015, -0.118, 0.993, 9.338, -5.493, -0.244, -1.769, -1.522, 126.112, 57.820, -41.944, -12.838, 22.41, 0.45319, 0.00491, -0.01978, 0.89111,
 15:44:56.688,c2:22:89:2b:7b:c3, 2015-01-01 00:59:58.300, 0.151, 0.004, 1.011, 13.123, -7.568, -0.427, -1.653, -1.588, 126.112, 57.820, -41.944, -12.838, 22.41, 0.45319, 0.00491, -0.01978, 0.89111,
 15:44:56.688,c2:22:89:2b:7b:c3, 2015-01-01 00:59:58.300, 0.073, 0.2, 1.046, 9.766, -5.859, -0.305, -1.544, -1.653, 126.107, 57.820, -41.944, -12.838, 22.41, 0.45319, 0.00491, -0.01978, 0.89111,
 15:44:56.688,c2:22:89:2b:7b:c3, 2015-01-01 00:59:58.300, 0.07, 0.213, 1.031, -1.16, 2.991, -0.061, -1.522, -1.642, 126.107, 57.820, -41.944, -12.838, 22.41, 0.45319, 0.00491, -0.01978, 0.89111,
 15:44:56.717,c2:22:89:2b:7b:c3, 2015-01-01 00:59:58.300, 0.066, 0.083, 0.953, -12.512, 2.686, 0.488, -1.615, -1.615, 126.107, 57.820, -41.944, -12.838, 22.41, 0.45319, 0.00491, -0.01978, 0.89111,
 15:44:56.717,c2:22:89:2b:7b:c3, 2015-01-01 00:59:58.300, -0.061, -0.136, 1.004, -16.968, 8.606, 0.61, -1.769, -1.544, 126.107, 57.820, -41.944, -12.838, 22.41, 0.45319, 0.00491, -0.01978, 0.89111,
 15:44:56.717,c2:22:89:2b:7b:c3, 2015-01-01 00:59:58.300, -0.077, -0.253, 0.99, -7.202, 5.92, 0.366, -1.868, -1.478, 126.107, 57.820, -41.944, -12.838, 22.41, 0.45319, 0.00491, -0.01978, 0.89111,
 15:44:56.717,c2:22:89:2b:7b:c3, 2015-01-01 00:59:58.300, -0.062, -0.174, 0.962, 5.127, -1.099, -0.061, -1.846, -1.467, 126.107, 57.820, -41.944, -12.838, 22.41, 0.45319, 0.00491, -0.01978, 0.89111,
 15:44:56.778,c2:22:89:2b:7b:c3, 2015-01-01 00:59:58.300, 0.075, -0.087, 1.015, 11.902, -8.179, -0.427, -1.747, -1.527, 126.107, 57.820, -41.944, -12.838, 22.41, 0.45319, 0.00491, -0.01978, 0.89111,
 15:44:56.778,c2:22:89:2b:7b:c3, 2015-01-01 00:59:58.300, 0.188, -0.017, 1.027, 11.963, -9.583, -0.244, -1.631, -1.626, 126.107, 57.820, -41.944, -12.838, 22.41, 0.45319, 0.00491, -0.01978, 0.89111,
 15:44:56.778,c2:22:89:2b:7b:c3, 2015-01-01 00:59:58.300, -0.01, 0.085, 1.009, 7.568, -0.488, 0, -1.544, -1.659, 126.107, 57.820, -41.944, -12.838, 22.41, 0.45319, 0.00491, -0.01978, 0.89111,
 15:44:56.778,c2:22:89:2b:7b:c3, 2015-01-01 00:59:58.300, 0.045, 0.141, 1.028, -0.549, 2.991, 0.061, -1.527, -1.631, 126.107, 57.820, -41.944, -12.838, 22.41, 0.45319, 0.00491, -0.01978, 0.89111,
 15:44:56.808,c2:22:89:2b:7b:c3, 2015-01-01 00:59:58.300, 0.063, 0.099, 0.981, -7.019, 1.221, 0.366, -1.571, -1.62, 126.107, 57.820, -41.944, -12.838, 22.41, 0.45319, 0.00491, -0.01978, 0.89111,
 15:44:56.810,c2:22:89:2b:7b:c3, 2015-01-01 00:59:58.300, 0.073, -0.05, 1.035, -10.315, 2.93, 0.244, -1.664, -1.599, 126.107, 57.820, -41.944, -12.838, 22.41, 0.45319, 0.00491, -0.01978, 0.89111,
 15:44:56.810,c2:22:89:2b:7b:c3, 2015-01-01 00:59:58.300, -0.066, -0.146, 1.003, -10.01, 6.226, 0.366, -1.763, -1.549, 126.107, 57.820, -41.944, -12.838, 22.41, 0.45319, 0.00491, -0.01978, 0.89111,
 15:44:56.810,c2:22:89:2b:7b:c3, 2015-01-01 00:59:58.300, -0.062, -0.207, 0.985, -5.371, 5.249, 0.183, -1.829, -1.489, 126.112, 57.820, -41.944, -12.838, 22.41, 0.45319, 0.00491, -0.01978, 0.89111,
 15:44:56.837,c2:22:89:2b:7b:c3, 2015-01-01 00:59:58.300, -0.036, -0.158, 0.96, 5.005, -2.502, 0, -1.813, -1.494, 126.112, 57.820, -41.944, -12.838, 22.41, 0.45319, 0.00491, -0.01978, 0.89111,
 15:44:56.837,c2:22:89:2b:7b:c3, 2015-01-01 00:59:58.300, 0.078, -0.061, 1.019, 12.39, -7.996, -0.366, -1.708, -1.555, 126.112, 57.820, -41.944, -12.838, 22.41, 0.45319, 0.00491, -0.01978, 0.89111,
 15:44:56.837,c2:22:89:2b:7b:c3, 2015-01-01 00:59:58.300, 0.157, 0.034, 1.027, 12.146, -9.033, -0.305, -1.593, -1.642, 126.112, 57.820, -41.944, -12.838, 22.41, 0.45319, 0.00491, -0.01978, 0.89111,
 15:44:56.837,c2:22:89:2b:7b:c3, 2015-01-01 00:59:58.300, -0.006, 0.161, 0.975, 2.441, 0.793, -0.183, -1.544, -1.67, 126.107, 57.820, -41.944, -12.838, 22.41, 0.45319, 0.00491, -0.01978, 0.89111,
 15:44:56.897,c2:22:89:2b:7b:c3, 2015-01-01 00:59:58.300, 0.041, 0.081, 0.994, -5.127, 3.784, 0.244, -1.571, -1.631, 126.107, 57.820, -41.944, -12.838, 22.41, 0.45319, 0.00491, -0.01978, 0.89111,
 15:44:56.897,c2:22:89:2b:7b:c3, 2015-01-01 00:59:58.300, 0.014, 0.026, 0.983, -10.559, 4.089, 0.244, -1.664, -1.599, 126.112, 57.820, -41.944, -12.838, 22.41, 0.45319, 0.00491, -0.01978, 0.89111,
 15:44:56.897,c2:22:89:2b:7b:c3, 2015-01-01 00:59:58.300, 0.014, -0.11, 1.026, -9.216, 3.601, 0.244, -1.758, -1.56, 126.112, 57.820, -41.944, -12.838, 22.41, 0.45319, 0.00491, -0.01978, 0.89111,
 15:44:56.897,c2:22:89:2b:7b:c3, 2015-01-01 00:59:58.300, -0.035, -0.159, 0.994, -4.822, 3.296, 0.122, -1.818, -1.527, 126.112, 57.820, -41.944, -12.838, 22.41, 0.45319, 0.00491, -0.01978, 0.89111,
 15:44:56.929,c2:22:89:2b:7b:c3, 2015-01-01 00:59:58.300, -0.02, -0.16, 0.984, 0.366, 1.16, 0, -1.829, -1.505, 126.112, 57.624, -41.846, -12.642, 22.41, 0.45319, 0.00491, -0.01978, 0.89111,
 15:44:56.929,c2:22:89:2b:7b:c3, 2015-01-01 00:59:58.300, -0.004, -0.122, 0.986, 5.859, -3.357, -0.244, -1.791, -1.533, 126.112, 57.624, -41.846, -12.642, 22.41, 0.45319, 0.00491, -0.01978, 0.89111,
 15:44:56.929,c2:22:89:2b:7b:c3, 2015-01-01 00:59:58.300, 0.046, -0.036, 1.008, 10.62, -6.165, -0.305, -1.703, -1.582, 126.112, 57.624, -41.846, -12.642, 22.41, 0.45319, 0.00491, -0.01978, 0.89111,
 15:44:56.929,c2:22:89:2b:7b:c3, 2015-01-01 00:59:58.300, 0.121, 0.075, 1.003, 11.23, -6.348, -0.244, -1.593, -1.648, 126.112, 57.624, -41.846, -12.642, 22.41, 0.45319, 0.00491, -0.01978, 0.89111,
 15:44:56.959,c2:22:89:2b:7b:c3, 2015-01-01 00:59:58.300, 0.038, 0.184, 0.989, 2.38, -0.488, -0.122, -1.549, -1.67, 126.107, 57.624, -41.846, -12.642, 22.41, 0.45319, 0.00491, -0.01978, 0.89111,
 15:44:56.959,c2:22:89:2b:7b:c3, 2015-01-01 00:59:58.300, 0.086, 0.083, 1.004, -8.301, 3.174, 0.244, -1.599, -1.642, 126.107, 57.624, -41.846, -12.642, 22.41, 0.45319, 0.00491, -0.01978, 0.89111,
 15:44:56.959,c2:22:89:2b:7b:c3, 2015-01-01 00:59:58.300, -0.027, -0.049, 0.978, -15.686, 6.958, 0.488, -1.73, -1.593, 126.112, 57.624, -41.846, -12.642, 22.41, 0.45319, 0.00491, -0.01978, 0.89111,
 15:44:56.959,c2:22:89:2b:7b:c3, 2015-01-01 00:59:58.300, -0.056, -0.202, 1.03, -10.742, 6.653, 0.488, -1.851, -1.522, 126.112, 57.624, -41.846, -12.642, 22.41, 0.45319, 0.00491, -0.01978, 0.89111,
 15:44:57.018,c2:22:89:2b:7b:c3, 2015-01-01 00:59:58.300, -0.051, -0.203, 0.992, 1.038, 1.16, -0.061, -1.873, -1.494, 126.112, 57.624, -41.846, -12.642, 22.41, 0.45319, 0.00497, -0.02014, 0.89111,
 15:44:57.018,c2:22:89:2b:7b:c3, 2015-01-01 00:59:58.300, 0.021, -0.11, 0.997, 9.216, -5.188, -0.244, -1.802, -1.527, 126.112, 57.624, -41.846, -12.642, 22.41, 0.45319, 0.00497, -0.02014, 0.89111,
 15:44:57.018,c2:22:89:2b:7b:c3, 2015-01-01 00:59:58.300, 0.106, -0.027, 1.012, 11.23, -8.301, -0.427, -1.697, -1.604, 126.112, 57.624, -41.846, -12.642, 22.41, 0.45319, 0.00497, -0.02014, 0.89111,
 15:44:57.018,c2:22:89:2b:7b:c3, 2015-01-01 00:59:58.300, 0.083, 0.05, 0.997, 8.118, -5.859, -0.244, -1.609, -1.664, 126.112, 57.624, -41.846, -12.642, 22.41, 0.45319, 0.00497, -0.02014, 0.89111,
 15:44:57.050,c2:22:89:2b:7b:c3, 2015-01-01 00:59:58.300, -0.01, 0.086, 0.988, 1.953, 1.953, -0.183, -1.582, -1.664, 126.107, 57.624, -41.846, -12.642, 22.41, 0.45319, 0.00497, -0.02014, 0.89111,
 15:44:57.050,c2:22:89:2b:7b:c3, 2015-01-01 00:59:58.300, 0.048, 0.116, 0.975, -2.014, 1.16, 0, -1.593, -1.648, 126.107, 57.624, -41.846, -12.642, 22.41, 0.45319, 0.00497, -0.02014, 0.89111,
 15:44:57.050,c2:22:89:2b:7b:c3, 2015-01-01 00:59:58.300, 0.07, 0.041, 1.001, -8.423, 2.136, 0.122, -1.653, -1.626, 126.107, 57.624, -41.846, -12.642, 22.41, 0.45319, 0.00497, -0.02014, 0.89111,
 15:44:57.050,c2:22:89:2b:7b:c3, 2015-01-01 00:59:58.300, 0.025, -0.094, 1.024, -10.864, 3.479, 0.305, -1.752, -1.599, 126.107, 57.624, -41.846, -12.642, 22.41, 0.45319, 0.00497, -0.02014, 0.89111,
 15:44:57.078,c2:22:89:2b:7b:c3, 2015-01-01 00:59:58.715, -0.071, -0.182, 1.006, -8.667, 6.47, 0.183, -1.846, -1.544, 126.107, 57.624, -41.846, -12.642, 22.41, 0.45319, 0.00497, -0.02014, 0.89111,
