Time,Device name,Chip Time(),Acceleration X(g),Acceleration Y(g),Acceleration Z(g),Angular velocity X(°/s),Angular velocity Y(°/s),Angular velocity Z(°/s),Angle X(°),Angle Y(°),Angle Z(°),Magnetic field X(ʯt),Magnetic field Y(ʯt),Magnetic field Z(ʯt),Temperature(℃),Quaternions 0(),Quaternions 1(),Quaternions 2(),Quaternions 3()
 15:56:51.311,c2:22:89:2b:7b:c3, 2015-01-01 01:11:47.565, 0.027, -0.028, 1.001, 0, 0, 0, -1.741, -1.478, 125.98, 58.114, -41.944, -13.426, 22.35, 0.45419, 0.00458, -0.01938, 0.89062,
 15:56:51.311,c2:22:89:2b:7b:c3, 2015-01-01 01:11:47.565, 0.027, -0.032, 1.002, 0, 0, 0, -1.741, -1.478, 125.98, 58.114, -41.944, -13.426, 22.35, 0.45419, 0.00458, -0.01938, 0.89062,
 15:56:51.311,c2:22:89:2b:7b:c3, 2015-01-01 01:11:47.565, 0.027, -0.032, 1.005, 0, 0, 0, -1.741, -1.478, 125.98, 58.114, -41.944, -13.426, 22.35, 0.45419, 0.00458, -0.01938, 0.89062,
 15:56:51.311,c2:22:89:2b:7b:c3, 2015-01-01 01:11:47.565, 0.026, -0.029, 1.003, 0, 0, 0, -1.741, -1.478, 125.98, 58.114, -41.944, -13.426, 22.35, 0.45419, 0.00458, -0.01938, 0.89062,
 15:56:51.370,c2:22:89:2b:7b:c3, 2015-01-01 01:11:47.980, 0.024, -0.032, 1.002, 0, 0, 0, -1.741, -1.478, 125.98, 58.114, -41.944, -13.426, 22.35, 0.45419, 0.00458, -0.01938, 0.89062,
 15:56:51.370,c2:22:89:2b:7b:c3, 2015-01-01 01:11:47.980, 0.027, -0.032, 1.001, 0, 0, 0, -1.741, -1.478, 125.98, 58.114, -41.944, -13.426, 22.35, 0.45419, 0.00458, -0.01938, 0.89062,
 15:56:51.370,c2:22:89:2b:7b:c3, 2015-01-01 01:11:47.980, 0.026, -0.03, 1.002, 0, 0, 0, -1.741, -1.478, 125.98, 58.114, -41.944, -13.426, 22.35, 0.45419, 0.00458, -0.01938, 0.89062,
 15:56:51.370,c2:22:89:2b:7b:c3, 2015-01-01 01:11:47.980, 0.027, -0.029, 1.003, 0, 0, 0, -1.741, -1.478, 125.98, 58.114, -41.944, -13.426, 22.35, 0.45419, 0.00458, -0.01938, 0.89062,
 15:56:51.401,c2:22:89:2b:7b:c3, 2015-01-01 01:11:47.980, 0.024, -0.032, 1.002, 0, 0, 0, -1.741, -1.478, 125.98, 58.114, -41.944, -13.426, 22.35, 0.45419, 0.00458, -0.01938, 0.89062,
 15:56:51.401,c2:22:89:2b:7b:c3, 2015-01-01 01:11:47.980, 0.025, -0.029, 1.002, 0, 0, 0, -1.741, -1.478, 125.98, 58.114, -41.944, -13.426, 22.35, 0.45419, 0.00458, -0.01938, 0.89062,
 15:56:51.401,c2:22:89:2b:7b:c3, 2015-01-01 01:11:47.980, 0.026, -0.031, 1.003, 0, 0, 0, -1.741, -1.478, 125.98, 58.114, -41.944, -13.426, 22.35, 0.45419, 0.00458, -0.01938, 0.89062,
 15:56:51.401,c2:22:89:2b:7b:c3, 2015-01-01 01:11:47.980, 0.026, -0.03, 1.004, 0, 0, 0, -1.741, -1.478, 125.98, 58.114, -41.944, -13.426, 22.35, 0.45419, 0.00458, -0.01938, 0.89062,
 15:56:51.464,c2:22:89:2b:7b:c3, 2015-01-01 01:11:47.980, 0.026, -0.03, 1.002, 0, 0, 0, -1.741, -1.478, 125.98, 58.114, -41.944, -13.426, 22.35, 0.45419, 0.00458, -0.01938, 0.89062,
 15:56:51.465,c2:22:89:2b:7b:c3, 2015-01-01 01:11:47.980, 0.026, -0.032, 1.003, 0, 0, 0, -1.741, -1.478, 125.98, 58.114, -41.944, -13.426, 22.35, 0.45419, 0.00458, -0.01938, 0.89062,
 15:56:51.465,c2:22:89:2b:7b:c3, 2015-01-01 01:11:47.980, 0.027, -0.03, 1.003, 0, 0, 0, -1.741, -1.478, 125.98, 58.114, -41.944, -13.426, 22.35, 0.45419, 0.00458, -0.01938, 0.89062,
 15:56:51.465,c2:22:89:2b:7b:c3, 2015-01-01 01:11:47.980, 0.026, -0.028, 1.004, 0, 0, 0, -1.741, -1.478, 125.98, 58.114, -41.944, -13.426, 22.35, 0.45419, 0.00458, -0.01938, 0.89062,
 15:56:51.495,c2:22:89:2b:7b:c3, 2015-01-01 01:11:47.980, 0.026, -0.029, 1, 0, 0, 0, -1.741, -1.478, 125.98, 58.114, -41.944, -13.426, 22.35, 0.45419, 0.00458, -0.01938, 0.89062,
 15:56:51.496,c2:22:89:2b:7b:c3, 2015-01-01 01:11:47.980, 0.027, -0.031, 1.002, 0, 0, 0, -1.741, -1.478, 125.98, 58.114, -41.944, -13.426, 22.35, 0.45419, 0.00458, -0.01938, 0.89062,
 15:56:51.496,c2:22:89:2b:7b:c3, 2015-01-01 01:11:47.980, 0.024, -0.033, 1.005, 0, 0, 0, -1.741, -1.478, 125.98, 58.114, -41.944, -13.426, 22.35, 0.45419, 0.00458, -0.01938, 0.89062,
 15:56:51.496,c2:22:89:2b:7b:c3, 2015-01-01 01:11:47.980, 0.025, -0.029, 1.003, 0, 0, 0, -1.741, -1.478, 125.98, 58.114, -41.944, -13.426, 22.35, 0.45419, 0.00458, -0.01938, 0.89062,
 15:56:51.528,c2:22:89:2b:7b:c3, 2015-01-01 01:11:47.980, 0.024, -0.027, 1.001, 0, 0, 0, -1.741, -1.478, 125.98, 58.114, -41.944, -13.426, 22.35, 0.45419, 0.00458, -0.01938, 0.89062,
 15:56:51.528,c2:22:89:2b:7b:c3, 2015-01-01 01:11:47.980, 0.026, -0.031, 1.005, 0, 0, 0, -1.741, -1.478, 125.98, 58.114, -41.944, -13.426, 22.35, 0.45419, 0.00458, -0.01938, 0.89062,
 15:56:51.528,c2:22:89:2b:7b:c3, 2015-01-01 01:11:47.980, 0.025, -0.03, 1.002, 0, 0, 0, -1.741, -1.478, 125.98, 58.114, -41.944, -13.426, 22.35, 0.45419, 0.00458, -0.01938, 0.89062,
 15:56:51.528,c2:22:89:2b:7b:c3, 2015-01-01 01:11:47.980, 0.025, -0.03, 1.001, 0, 0, 0, -1.741, -1.478, 125.98, 58.114, -41.944, -13.426, 22.35, 0.45419, 0.00458, -0.01938, 0.89062,
 15:56:51.559,c2:22:89:2b:7b:c3, 2015-01-01 01:11:47.980, 0.026, -0.03, 1.001, 0, 0, 0, -1.741, -1.478, 125.98, 58.114, -41.944, -13.426, 22.35, 0.45419, 0.00458, -0.01938, 0.89062,
 15:56:51.559,c2:22:89:2b:7b:c3, 2015-01-01 01:11:47.980, 0.026, -0.031, 1.001, 0, 0, 0, -1.741, -1.478, 125.98, 58.114, -41.944, -13.426, 22.35, 0.45419, 0.00458, -0.01938, 0.89062,
 15:56:51.559,c2:22:89:2b:7b:c3, 2015-01-01 01:11:47.980, 0.028, -0.03, 1.003, 0, 0, 0, -1.741, -1.478, 125.98, 58.114, -41.944, -13.426, 22.35, 0.45419, 0.00458, -0.01938, 0.89062,
 15:56:51.559,c2:22:89:2b:7b:c3, 2015-01-01 01:11:47.980, 0.025, -0.031, 1.001, 0, 0, 0, -1.741, -1.478, 125.98, 58.114, -41.944, -13.426, 22.35, 0.45419, 0.00458, -0.01938, 0.89062,
 15:56:51.605,c2:22:89:2b:7b:c3, 2015-01-01 01:11:47.980, 0.025, -0.03, 1.003, 0, 0, 0, -1.741, -1.478, 125.98, 58.114, -41.944, -13.524, 22.35, 0.45419, 0.00458, -0.01938, 0.89062,
 15:56:51.605,c2:22:89:2b:7b:c3, 2015-01-01 01:11:47.980, 0.026, -0.032, 1.002, 0, 0, 0, -1.741, -1.478, 125.98, 58.114, -41.944, -13.524, 22.35, 0.45419, 0.00458, -0.01938, 0.89062,
 15:56:51.605,c2:22:89:2b:7b:c3, 2015-01-01 01:11:47.980, 0.027, -0.032, 1.002, 0, 0, 0, -1.741, -1.478, 125.98, 58.114, -41.944, -13.524, 22.35, 0.45419, 0.00458, -0.01938, 0.89062,
 15:56:51.605,c2:22:89:2b:7b:c3, 2015-01-01 01:11:47.980, 0.028, -0.028, 1, 0, 0, 0, -1.741, -1.478, 125.98, 58.114, -41.944, -13.524, 22.35, 0.45419, 0.00458, -0.01938, 0.89062,
 15:56:51.636,c2:22:89:2b:7b:c3, 2015-01-01 01:11:47.980, 0.026, -0.029, 1.001, 0, 0, 0, -1.741, -1.478, 125.98, 58.114, -41.944, -13.524, 22.35, 0.45419, 0.00458, -0.01938, 0.89062,
 15:56:51.636,c2:22:89:2b:7b:c3, 2015-01-01 01:11:47.980, 0.025, -0.032, 1.001, 0, 0, 0, -1.741, -1.478, 125.98, 58.114, -41.944, -13.524, 22.35, 0.45419, 0.00458, -0.01938, 0.89062,
 15:56:51.636,c2:22:89:2b:7b:c3, 2015-01-01 01:11:47.980, 0.025, -0.03, 1.004, 0, 0, 0, -1.741, -1.478, 125.98, 58.114, -41.944, -13.524, 22.35, 0.45419, 0.00458, -0.01938, 0.89062,
 15:56:51.636,c2:22:89:2b:7b:c3, 2015-01-01 01:11:47.980, 0.024, -0.031, 1.005, 0, 0, 0, -1.741, -1.478, 125.98, 58.114, -41.944, -13.524, 22.35, 0.45419, 0.00458, -0.01938, 0.89062,
 15:56:51.668,c2:22:89:2b:7b:c3, 2015-01-01 01:11:47.980, 0.026, -0.03, 1.002, 0, 0, 0, -1.741, -1.478, 125.98, 58.114, -41.944, -13.524, 22.35, 0.45419, 0.00458, -0.01941, 0.89062,
 15:56:51.668,c2:22:89:2b:7b:c3, 2015-01-01 01:11:47.980, 0.025, -0.028, 1.001, 0, 0, 0, -1.741, -1.478, 125.98, 58.114, -41.944, -13.524, 22.35, 0.45419, 0.00458, -0.01941, 0.89062,
 15:56:51.668,c2:22:89:2b:7b:c3, 2015-01-01 01:11:47.980, 0.025, -0.03, 1.001, 0, 0, 0, -1.741, -1.478, 125.98, 58.114, -41.944, -13.524, 22.35, 0.45419, 0.00458, -0.01941, 0.89062,
 15:56:51.668,c2:22:89:2b:7b:c3, 2015-01-01 01:11:47.980, 0.023, -0.032, 1.002, 0, 0, 0, -1.741, -1.478, 125.98, 58.114, -41.944, -13.524, 22.35, 0.45419, 0.00458, -0.01941, 0.89062,
 15:56:51.761,c2:22:89:2b:7b:c3, 2015-01-01 01:11:47.980, 0.027, -0.03, 1.002, 0, 0, 0, -1.741, -1.478, 125.98, 58.114, -41.944, -13.524, 22.35, 0.45419, 0.00458, -0.01941, 0.89062,
 15:56:51.761,c2:22:89:2b:7b:c3, 2015-01-01 01:11:47.980, 0.027, -0.032, 1.003, 0, 0, 0, -1.741, -1.478, 125.98, 58.114, -41.944, -13.524, 22.35, 0.45419, 0.00458, -0.01941, 0.89062,
 15:56:51.761,c2:22:89:2b:7b:c3, 2015-01-01 01:11:47.980, 0.027, -0.03, 1.004, 0, 0, 0, -1.741, -1.478, 125.98, 58.114, -41.944, -13.524, 22.35, 0.45419, 0.00458, -0.01941, 0.89062,
 15:56:51.761,c2:22:89:2b:7b:c3, 2015-01-01 01:11:47.980, 0.022, -0.029, 1.002, 0, 0, 0, -1.741, -1.478, 125.98, 58.114, -41.944, -13.524, 22.35, 0.45419, 0.00458, -0.01941, 0.89062,
 15:56:51.792,c2:22:89:2b:7b:c3, 2015-01-01 01:11:48.370, 0.026, -0.03, 0.999, 0, 0, 0, -1.741, -1.478, 125.98, 58.114, -41.944, -13.524, 22.35, 0.45419, 0.00458, -0.01941, 0.89062,
 15:56:51.792,c2:22:89:2b:7b:c3, 2015-01-01 01:11:48.370, 0.024, -0.031, 1.002, 0, 0, 0, -1.741, -1.478, 125.98, 58.114, -41.944, -13.524, 22.35, 0.45419, 0.00458, -0.01941, 0.89062,
 15:56:51.795,c2:22:89:2b:7b:c3, 2015-01-01 01:11:48.370, 0.024, -0.029, 1.002, 0, 0, 0, -1.741, -1.478, 125.98, 58.114, -41.944, -13.524, 22.35, 0.45419, 0.00458, -0.01941, 0.89062,
 15:56:51.795,c2:22:89:2b:7b:c3, 2015-01-01 01:11:48.370, 0.026, -0.029, 0.999, 0, 0, 0, -1.741, -1.478, 125.98, 58.114, -41.944, -13.524, 22.35, 0.45419, 0.00458, -0.01941, 0.89062,
 15:56:51.824,c2:22:89:2b:7b:c3, 2015-01-01 01:11:48.370, 0.026, -0.029, 1.004, 0, 0, 0, -1.741, -1.478, 125.98, 58.114, -41.944, -13.524, 22.35, 0.45419, 0.00458, -0.01941, 0.89062,
 15:56:51.824,c2:22:89:2b:7b:c3, 2015-01-01 01:11:48.370, 0.025, -0.029, 1.002, 0, 0, 0, -1.741, -1.478, 125.98, 58.114, -41.944, -13.524, 22.35, 0.45419, 0.00458, -0.01941, 0.89062,
 15:56:51.824,c2:22:89:2b:7b:c3, 2015-01-01 01:11:48.370, 0.025, -0.03, 1.002, 0, 0, 0, -1.741, -1.478, 125.98, 58.114, -41.944, -13.524, 22.35, 0.45419, 0.00458, -0.01941, 0.89062,
 15:56:51.824,c2:22:89:2b:7b:c3, 2015-01-01 01:11:48.370, 0.024, -0.03, 1.002, 0, 0, 0, -1.741, -1.478, 125.98, 58.114, -41.944, -13.524, 22.35, 0.45419, 0.00458, -0.01941, 0.89062,
 15:56:51.854,c2:22:89:2b:7b:c3, 2015-01-01 01:11:48.370, 0.025, -0.033, 1.001, 0, 0, 0, -1.741, -1.478, 125.98, 58.114, -41.944, -13.524, 22.35, 0.45419, 0.00458, -0.01941, 0.89062,
 15:56:51.854,c2:22:89:2b:7b:c3, 2015-01-01 01:11:48.370, 0.027, -0.03, 1.006, 0, 0, 0, -1.741, -1.478, 125.98, 58.114, -41.944, -13.524, 22.35, 0.45419, 0.00458, -0.01941, 0.89062,
 15:56:51.854,c2:22:89:2b:7b:c3, 2015-01-01 01:11:48.370, 0.026, -0.031, 1.002, 0, 0, 0, -1.741, -1.478, 125.98, 58.114, -41.944, -13.524, 22.35, 0.45419, 0.00458, -0.01941, 0.89062,
 15:56:51.854,c2:22:89:2b:7b:c3, 2015-01-01 01:11:48.370, 0.027, -0.031, 1.002, 0, 0, 0, -1.741, -1.478, 125.98, 58.114, -41.944, -13.524, 22.35, 0.45419, 0.00458, -0.01941, 0.89062,
 15:56:51.886,c2:22:89:2b:7b:c3, 2015-01-01 01:11:48.370, 0.025, -0.028, 1.003, 0, 0, 0, -1.741, -1.478, 125.98, 58.114, -41.944, -13.524, 22.35, 0.45419, 0.00458, -0.01941, 0.89062,
 15:56:51.886,c2:22:89:2b:7b:c3, 2015-01-01 01:11:48.370, 0.024, -0.028, 1.003, 0, 0, 0, -1.741, -1.478, 125.98, 58.114, -41.944, -13.524, 22.35, 0.45419, 0.00458, -0.01941, 0.89062,
 15:56:51.886,c2:22:89:2b:7b:c3, 2015-01-01 01:11:48.370, 0.026, -0.03, 1.004, 0, 0, 0, -1.741, -1.478, 125.98, 58.114, -41.944, -13.524, 22.35, 0.45419, 0.00458, -0.01941, 0.89062,
 15:56:51.886,c2:22:89:2b:7b:c3, 2015-01-01 01:11:48.370, 0.026, -0.032, 1.002, 0, 0, 0, -1.741, -1.478, 125.98, 58.114, -41.944, -13.524, 22.35, 0.45419, 0.00458, -0.01941, 0.89062,
 15:56:51.978,c2:22:89:2b:7b:c3, 2015-01-01 01:11:48.370, 0.025, -0.03, 1.002, 0, 0, 0, -1.741, -1.478, 125.98, 58.114, -41.944, -13.524, 22.35, 0.45419, 0.00458, -0.01941, 0.89062,
 15:56:51.978,c2:22:89:2b:7b:c3, 2015-01-01 01:11:48.370, 0.026, -0.03, 1.003, 0, 0, 0, -1.741, -1.478, 125.98, 58.114, -41.944, -13.524, 22.35, 0.45419, 0.00458, -0.01941, 0.89062,
 15:56:51.978,c2:22:89:2b:7b:c3, 2015-01-01 01:11:48.370, 0.026, -0.028, 1.001, 0, 0, 0, -1.741, -1.478, 125.98, 58.114, -41.944, -13.524, 22.35, 0.45419, 0.00458, -0.01941, 0.89062,
 15:56:51.980,c2:22:89:2b:7b:c3, 2015-01-01 01:11:48.370, 0.027, -0.029, 1.002, 0, 0, 0, -1.741, -1.478, 125.98, 58.114, -41.944, -13.524, 22.35, 0.45419, 0.00458, -0.01941, 0.89062,
 15:56:51.980,c2:22:89:2b:7b:c3, 2015-01-01 01:11:48.370, 0.026, -0.032, 1, 0, 0, 0, -1.741, -1.478, 125.98, 58.114, -41.944, -13.524, 22.35, 0.45419, 0.00458, -0.01941, 0.89062,
 15:56:51.980,c2:22:89:2b:7b:c3, 2015-01-01 01:11:48.370, 0.029, -0.03, 1, 0, 0, 0, -1.741, -1.478, 125.98, 58.114, -41.944, -13.524, 22.35, 0.45419, 0.00458, -0.01941, 0.89062,
 15:56:51.980,c2:22:89:2b:7b:c3, 2015-01-01 01:11:48.370, 0.025, -0.03, 1.001, 0, 0, 0, -1.741, -1.478, 125.98, 58.114, -41.944, -13.524, 22.35, 0.45419, 0.00458, -0.01941, 0.89062,
 15:56:51.980,c2:22:89:2b:7b:c3, 2015-01-01 01:11:48.370, 0.028, -0.03, 1.002, 0, 0, 0, -1.741, -1.478, 125.98, 58.114, -41.944, -13.524, 22.35, 0.45419, 0.00458, -0.01941, 0.89062,
 15:56:51.995,c2:22:89:2b:7b:c3, 2015-01-01 01:11:48.370, 0.025, -0.028, 1.003, 0, 0, 0, -1.741, -1.478, 125.98, 58.114, -41.944, -13.524, 22.35, 0.45419, 0.00458, -0.01941, 0.89062,
 15:56:51.995,c2:22:89:2b:7b:c3, 2015-01-01 01:11:48.370, 0.023, -0.031, 1.004, 0, 0, 0, -1.741, -1.478, 125.98, 58.114, -41.944, -13.524, 22.35, 0.45419, 0.00458, -0.01941, 0.89062,
 15:56:51.995,c2:22:89:2b:7b:c3, 2015-01-01 01:11:48.370, 0.025, -0.033, 1.001, 0, 0, 0, -1.741, -1.478, 125.98, 58.114, -41.944, -13.524, 22.35, 0.45419, 0.00458, -0.01941, 0.89062,
 15:56:51.995,c2:22:89:2b:7b:c3, 2015-01-01 01:11:48.370, 0.025, -0.031, 1.004, 0, 0, 0, -1.741, -1.478, 125.98, 58.114, -41.944, -13.524, 22.35, 0.45419, 0.00458, -0.01941, 0.89062,
 15:56:52.056,c2:22:89:2b:7b:c3, 2015-01-01 01:11:48.370, 0.027, -0.031, 1.003, 0, 0, 0, -1.741, -1.478, 125.98, 58.114, -42.042, -13.230, 22.35, 0.45419, 0.00458, -0.01941, 0.89062,
 15:56:52.056,c2:22:89:2b:7b:c3, 2015-01-01 01:11:48.370, 0.025, -0.031, 1.003, 0, 0, 0, -1.741, -1.478, 125.98, 58.114, -42.042, -13.230, 22.35, 0.45419, 0.00458, -0.01941, 0.89062,
 15:56:52.056,c2:22:89:2b:7b:c3, 2015-01-01 01:11:48.370, 0.025, -0.031, 1.001, 0, 0, 0, -1.741, -1.478, 125.98, 58.114, -42.042, -13.230, 22.35, 0.45419, 0.00458, -0.01941, 0.89062,
 15:56:52.056,c2:22:89:2b:7b:c3, 2015-01-01 01:11:48.370, 0.026, -0.029, 1.001, 0, 0, 0, -1.741, -1.478, 125.98, 58.114, -42.042, -13.230, 22.35, 0.45419, 0.00458, -0.01941, 0.89062,
 15:56:52.087,c2:22:89:2b:7b:c3, 2015-01-01 01:11:48.370, 0.025, -0.031, 1.004, 0, 0, 0, -1.741, -1.478, 125.98, 58.114, -42.042, -13.230, 22.35, 0.45419, 0.00458, -0.01938, 0.89062,
 15:56:52.087,c2:22:89:2b:7b:c3, 2015-01-01 01:11:48.370, 0.025, -0.032, 1.002, 0, 0, 0, -1.741, -1.478, 125.98, 58.114, -42.042, -13.230, 22.35, 0.45419, 0.00458, -0.01938, 0.89062,
 15:56:52.087,c2:22:89:2b:7b:c3, 2015-01-01 01:11:48.370, 0.027, -0.03, 1, 0, 0, 0, -1.741, -1.478, 125.98, 58.114, -42.042, -13.230, 22.35, 0.45419, 0.00458, -0.01938, 0.89062,
 15:56:52.087,c2:22:89:2b:7b:c3, 2015-01-01 01:11:48.370, 0.027, -0.032, 1.001, 0, 0, 0, -1.741, -1.478, 125.98, 58.114, -42.042, -13.230, 22.35, 0.45419, 0.00458, -0.01938, 0.89062,
 15:56:52.118,c2:22:89:2b:7b:c3, 2015-01-01 01:11:48.370, 0.025, -0.031, 1.001, 0, 0, 0, -1.741, -1.478, 125.98, 58.114, -42.042, -13.230, 22.35, 0.45419, 0.00458, -0.01938, 0.89062,
 15:56:52.118,c2:22:89:2b:7b:c3, 2015-01-01 01:11:48.370, 0.025, -0.031, 1.001, 0, 0, 0, -1.741, -1.478, 125.98, 58.114, -42.042, -13.230, 22.35, 0.45419, 0.00458, -0.01938, 0.89062,
 15:56:52.118,c2:22:89:2b:7b:c3, 2015-01-01 01:11:48.370, 0.025, -0.028, 1.001, 0, 0, 0, -1.741, -1.478, 125.98, 58.114, -42.042, -13.230, 22.35, 0.45419, 0.00458, -0.01938, 0.89062,
 15:56:52.118,c2:22:89:2b:7b:c3, 2015-01-01 01:11:48.370, 0.03, -0.031, 1.003, 0, 0, 0, -1.741, -1.478, 125.98, 58.114, -42.042, -13.230, 22.35, 0.45419, 0.00458, -0.01938, 0.89062,
 15:56:52.180,c2:22:89:2b:7b:c3, 2015-01-01 01:11:48.785, 0.025, -0.031, 1.003, 0, 0, 0, -1.741, -1.478, 125.98, 58.114, -42.042, -13.230, 22.35, 0.45419, 0.00458, -0.01938, 0.89062,
 15:56:52.180,c2:22:89:2b:7b:c3, 2015-01-01 01:11:48.785, 0.024, -0.028, 1.001, 0, 0, 0, -1.741, -1.478, 125.98, 58.114, -42.042, -13.230, 22.35, 0.45419, 0.00458, -0.01938, 0.89062,
 15:56:52.180,c2:22:89:2b:7b:c3, 2015-01-01 01:11:48.785, 0.026, -0.03, 1, 0, 0, 0, -1.741, -1.478, 125.98, 58.114, -42.042, -13.230, 22.35, 0.45419, 0.00458, -0.01938, 0.89062,
 15:56:52.180,c2:22:89:2b:7b:c3, 2015-01-01 01:11:48.785, 0.025, -0.033, 1.001, 0, 0, 0, -1.741, -1.478, 125.98, 58.114, -42.042, -13.230, 22.35, 0.45419, 0.00458, -0.01938, 0.89062,
 15:56:52.211,c2:22:89:2b:7b:c3, 2015-01-01 01:11:48.785, 0.025, -0.03, 1.003, 0, 0, 0, -1.741, -1.478, 125.98, 58.114, -42.042, -13.230, 22.35, 0.45419, 0.00458, -0.01938, 0.89062,
 15:56:52.211,c2:22:89:2b:7b:c3, 2015-01-01 01:11:48.785, 0.027, -0.028, 1.003, 0, 0, 0, -1.741, -1.478, 125.98, 58.114, -42.042, -13.230, 22.35, 0.45419, 0.00458, -0.01938, 0.89062,
 15:56:52.211,c2:22:89:2b:7b:c3, 2015-01-01 01:11:48.785, 0.027, -0.031, 1.003, 0, 0, 0, -1.741, -1.478, 125.98, 58.114, -42.042, -13.230, 22.35, 0.45419, 0.00458, -0.01938, 0.89062,
 15:56:52.211,c2:22:89:2b:7b:c3, 2015-01-01 01:11:48.785, 0.025, -0.03, 1.003, 0, 0, 0, -1.741, -1.478, 125.98, 58.114, -42.042, -13.230, 22.35, 0.45419, 0.00458, -0.01938, 0.89062,
 15:56:52.241,c2:22:89:2b:7b:c3, 2015-01-01 01:11:48.785, 0.025, -0.029, 1.002, 0, 0, 0, -1.741, -1.478, 125.98, 58.114, -42.042, -13.230, 22.35, 0.45419, 0.00458, -0.01938, 0.89062,
 15:56:52.241,c2:22:89:2b:7b:c3, 2015-01-01 01:11:48.785, 0.025, -0.029, 1.001, 0, 0, 0, -1.741, -1.478, 125.98, 58.114, -42.042, -13.230, 22.35, 0.45419, 0.00458, -0.01938, 0.89062,
 15:56:52.241,c2:22:89:2b:7b:c3, 2015-01-01 01:11:48.785, 0.024, -0.03, 1.001, 0, 0, 0, -1.741, -1.478, 125.98, 58.114, -42.042, -13.230, 22.35, 0.45419, 0.00458, -0.01938, 0.89062,
 15:56:52.241,c2:22:89:2b:7b:c3, 2015-01-01 01:11:48.785, 0.028, -0.03, 1.002, 0, 0, 0, -1.741, -1.478, 125.98, 58.114, -42.042, -13.230, 22.35, 0.45419, 0.00458, -0.01938, 0.89062,
 15:56:52.334,c2:22:89:2b:7b:c3, 2015-01-01 01:11:48.785, 0.026, -0.029, 1.005, 0, 0, 0, -1.741, -1.478, 125.98, 58.114, -42.042, -13.230, 22.35, 0.45419, 0.00458, -0.01938, 0.89062,
 15:56:52.334,c2:22:89:2b:7b:c3, 2015-01-01 01:11:48.785, 0.025, -0.029, 1.002, 0, 0, 0, -1.741, -1.478, 125.98, 58.114, -42.042, -13.230, 22.35, 0.45419, 0.00458, -0.01938, 0.89062,
 15:56:52.334,c2:22:89:2b:7b:c3, 2015-01-01 01:11:48.785, 0.026, -0.03, 1.002, 0, 0, 0, -1.741, -1.478, 125.98, 58.114, -42.042, -13.230, 22.35, 0.45419, 0.00458, -0.01938, 0.89062,
 15:56:52.334,c2:22:89:2b:7b:c3, 2015-01-01 01:11:48.785, 0.026, -0.03, 1.004, 0, 0, 0, -1.741, -1.478, 125.98, 58.114, -42.042, -13.230, 22.35, 0.45419, 0.00458, -0.01938, 0.89062,
 15:56:52.334,c2:22:89:2b:7b:c3, 2015-01-01 01:11:48.785, 0.025, -0.029, 1, 0, 0, 0, -1.741, -1.478, 125.98, 58.114, -42.042, -13.230, 22.35, 0.45419, 0.00458, -0.01938, 0.89062,
 15:56:52.334,c2:22:89:2b:7b:c3, 2015-01-01 01:11:48.785, 0.025, -0.031, 1.001, 0, 0, 0, -1.741, -1.478, 125.98, 58.114, -42.042, -13.230, 22.35, 0.45419, 0.00458, -0.01938, 0.89062,
 15:56:52.334,c2:22:89:2b:7b:c3, 2015-01-01 01:11:48.785, 0.027, -0.03, 1.003, 0, 0, 0, -1.741, -1.478, 125.98, 58.114, -42.042, -13.230, 22.35, 0.45419, 0.00458, -0.01938, 0.89062,
 15:56:52.334,c2:22:89:2b:7b:c3, 2015-01-01 01:11:48.785, 0.024, -0.032, 1.004, 0, 0, 0, -1.741, -1.478, 125.98, 58.114, -42.042, -13.230, 22.35, 0.45419, 0.00458, -0.01938, 0.89062,
 15:56:52.368,c2:22:89:2b:7b:c3, 2015-01-01 01:11:48.785, 0.023, -0.029, 1.002, 0, 0, 0, -1.741, -1.478, 125.98, 58.114, -42.042, -13.230, 22.35, 0.45419, 0.00458, -0.01938, 0.89062,
 15:56:52.368,c2:22:89:2b:7b:c3, 2015-01-01 01:11:48.785, 0.024, -0.029, 0.999, 0, 0, 0, -1.741, -1.478, 125.98, 58.114, -42.042, -13.230, 22.35, 0.45419, 0.00458, -0.01938, 0.89062,
 15:56:52.368,c2:22:89:2b:7b:c3, 2015-01-01 01:11:48.785, 0.026, -0.031, 1, 0, 0, 0, -1.741, -1.478, 125.98, 58.114, -42.042, -13.230, 22.35, 0.45419, 0.00458, -0.01938, 0.89062,
 15:56:52.368,c2:22:89:2b:7b:c3, 2015-01-01 01:11:48.785, 0.022, -0.031, 1.001, 0, 0, 0, -1.741, -1.478, 125.98, 58.114, -42.042, -13.230, 22.35, 0.45419, 0.00458, -0.01938, 0.89062,
 15:56:52.427,c2:22:89:2b:7b:c3, 2015-01-01 01:11:48.785, 0.025, -0.03, 1.001, 0, 0, 0, -1.741, -1.478, 125.98, 58.212, -41.944, -13.426, 22.35, 0.45419, 0.00458, -0.01938, 0.89062,
 15:56:52.427,c2:22:89:2b:7b:c3, 2015-01-01 01:11:48.785, 0.027, -0.03, 1.001, 0, 0, 0, -1.741, -1.478, 125.98, 58.212, -41.944, -13.426, 22.35, 0.45419, 0.00458, -0.01938, 0.89062,
 15:56:52.427,c2:22:89:2b:7b:c3, 2015-01-01 01:11:48.785, 0.025, -0.029, 1.001, 0, 0, 0, -1.741, -1.478, 125.98, 58.212, -41.944, -13.426, 22.35, 0.45419, 0.00458, -0.01938, 0.89062,
 15:56:52.427,c2:22:89:2b:7b:c3, 2015-01-01 01:11:48.785, 0.026, -0.029, 1.002, 0, 0, 0, -1.741, -1.478, 125.98, 58.212, -41.944, -13.426, 22.35, 0.45419, 0.00458, -0.01938, 0.89062,
 15:56:52.460,c2:22:89:2b:7b:c3, 2015-01-01 01:11:48.785, 0.027, -0.029, 1.003, 0, 0, 0, -1.741, -1.478, 125.98, 58.212, -41.944, -13.426, 22.35, 0.45419, 0.00458, -0.01938, 0.89062,
 15:56:52.460,c2:22:89:2b:7b:c3, 2015-01-01 01:11:48.785, 0.025, -0.032, 1.001, 0, 0, 0, -1.741, -1.478, 125.98, 58.212, -41.944, -13.426, 22.35, 0.45419, 0.00458, -0.01938, 0.89062,
 15:56:52.460,c2:22:89:2b:7b:c3, 2015-01-01 01:11:48.785, 0.024, -0.03, 1.004, 0, 0, 0, -1.741, -1.478, 125.98, 58.212, -41.944, -13.426, 22.35, 0.45419, 0.00458, -0.01938, 0.89062,
 15:56:52.460,c2:22:89:2b:7b:c3, 2015-01-01 01:11:48.785, 0.026, -0.029, 1.003, 0, 0, 0, -1.741, -1.478, 125.98, 58.212, -41.944, -13.426, 22.35, 0.45419, 0.00458, -0.01938, 0.89062,
 15:56:52.519,c2:22:89:2b:7b:c3, 2015-01-01 01:11:48.785, 0.027, -0.029, 1.003, 0, 0, 0, -1.736, -1.478, 125.98, 58.212, -41.944, -13.426, 22.35, 0.45419, 0.00458, -0.01938, 0.89062,
 15:56:52.519,c2:22:89:2b:7b:c3, 2015-01-01 01:11:48.785, 0.026, -0.032, 1.001, 0, 0, 0, -1.736, -1.478, 125.98, 58.212, -41.944, -13.426, 22.35, 0.45419, 0.00458, -0.01938, 0.89062,
 15:56:52.519,c2:22:89:2b:7b:c3, 2015-01-01 01:11:48.785, 0.027, -0.03, 1.004, 0, 0, 0, -1.736, -1.478, 125.98, 58.212, -41.944, -13.426, 22.35, 0.45419, 0.00458, -0.01938, 0.89062,
 15:56:52.519,c2:22:89:2b:7b:c3, 2015-01-01 01:11:48.785, 0.026, -0.032, 1.004, 0, 0, 0, -1.736, -1.478, 125.98, 58.212, -41.944, -13.426, 22.35, 0.45419, 0.00458, -0.01938, 0.89062,
 15:56:52.536,c2:22:89:2b:7b:c3, 2015-01-01 01:11:48.785, 0.024, -0.029, 1.003, 0, 0, 0, -1.736, -1.478, 125.98, 58.212, -41.944, -13.426, 22.35, 0.45419, 0.00458, -0.01938, 0.89062,
 15:56:52.536,c2:22:89:2b:7b:c3, 2015-01-01 01:11:48.785, 0.027, -0.03, 1.004, 0, 0, 0, -1.736, -1.478, 125.98, 58.212, -41.944, -13.426, 22.35, 0.45419, 0.00458, -0.01938, 0.89062,
 15:56:52.536,c2:22:89:2b:7b:c3, 2015-01-01 01:11:48.785, 0.028, -0.03, 1.001, 0, 0, 0, -1.736, -1.478, 125.98, 58.212, -41.944, -13.426, 22.35, 0.45419, 0.00458, -0.01938, 0.89062,
 15:56:52.536,c2:22:89:2b:7b:c3, 2015-01-01 01:11:48.785, 0.026, -0.03, 1.001, 0, 0, 0, -1.736, -1.478, 125.98, 58.212, -41.944, -13.426, 22.35, 0.45419, 0.00458, -0.01938, 0.89062,
 15:56:52.566,c2:22:89:2b:7b:c3, 2015-01-01 01:11:49.205, 0.027, -0.03, 1.003, 0, 0, 0, -1.736, -1.478, 125.98, 58.212, -41.944, -13.426, 22.35, 0.45419, 0.00458, -0.01938, 0.89062,
 15:56:52.566,c2:22:89:2b:7b:c3, 2015-01-01 01:11:49.205, 0.022, -0.028, 1.001, 0, 0, 0, -1.736, -1.478, 125.98, 58.212, -41.944, -13.426, 22.35, 0.45419, 0.00458, -0.01938, 0.89062,
 15:56:52.566,c2:22:89:2b:7b:c3, 2015-01-01 01:11:49.205, 0.025, -0.029, 1.001, 0, 0, 0, -1.736, -1.478, 125.98, 58.212, -41.944, -13.426, 22.35, 0.45419, 0.00458, -0.01938, 0.89062,
 15:56:52.566,c2:22:89:2b:7b:c3, 2015-01-01 01:11:49.205, 0.029, -0.032, 1.002, 0, 0, 0, -1.736, -1.478, 125.98, 58.212, -41.944, -13.426, 22.35, 0.45419, 0.00458, -0.01938, 0.89062,
 15:56:52.596,c2:22:89:2b:7b:c3, 2015-01-01 01:11:49.205, 0.025, -0.029, 1.003, 0, 0, 0, -1.736, -1.478, 125.98, 58.212, -41.944, -13.426, 22.35, 0.45419, 0.00458, -0.01938, 0.89062,
 15:56:52.596,c2:22:89:2b:7b:c3, 2015-01-01 01:11:49.205, 0.027, -0.029, 1.002, 0, 0, 0, -1.736, -1.478, 125.98, 58.212, -41.944, -13.426, 22.35, 0.45419, 0.00458, -0.01938, 0.89062,
 15:56:52.597,c2:22:89:2b:7b:c3, 2015-01-01 01:11:49.205, 0.028, -0.03, 1.001, 0, 0, 0, -1.736, -1.478, 125.98, 58.212, -41.944, -13.426, 22.35, 0.45419, 0.00458, -0.01938, 0.89062,
 15:56:52.597,c2:22:89:2b:7b:c3, 2015-01-01 01:11:49.205, 0.024, -0.033, 1.003, 0, 0, 0, -1.736, -1.478, 125.98, 58.212, -41.944, -13.426, 22.35, 0.45419, 0.00458, -0.01938, 0.89062,
 15:56:52.689,c2:22:89:2b:7b:c3, 2015-01-01 01:11:49.205, 0.023, -0.029, 1.003, 0, 0, 0, -1.736, -1.478, 125.98, 58.212, -41.944, -13.426, 22.35, 0.45419, 0.00458, -0.01938, 0.89062,
 15:56:52.689,c2:22:89:2b:7b:c3, 2015-01-01 01:11:49.205, 0.026, -0.03, 1.002, 0, 0, 0, -1.736, -1.478, 125.98, 58.212, -41.944, -13.426, 22.35, 0.45419, 0.00458, -0.01938, 0.89062,
 15:56:52.689,c2:22:89:2b:7b:c3, 2015-01-01 01:11:49.205, 0.026, -0.031, 1.003, 0, 0, 0, -1.736, -1.478, 125.98, 58.212, -41.944, -13.426, 22.35, 0.45419, 0.00458, -0.01938, 0.89062,
 15:56:52.689,c2:22:89:2b:7b:c3, 2015-01-01 01:11:49.205, 0.026, -0.03, 1.002, 0, 0, 0, -1.736, -1.478, 125.98, 58.212, -41.944, -13.426, 22.35, 0.45419, 0.00458, -0.01938, 0.89062,
 15:56:52.689,c2:22:89:2b:7b:c3, 2015-01-01 01:11:49.205, 0.026, -0.03, 1.002, 0, 0, 0, -1.736, -1.478, 125.98, 58.212, -41.944, -13.426, 22.35, 0.45419, 0.00458, -0.01938, 0.89062,
 15:56:52.690,c2:22:89:2b:7b:c3, 2015-01-01 01:11:49.205, 0.028, -0.03, 1.004, 0, 0, 0, -1.736, -1.478, 125.98, 58.212, -41.944, -13.426, 22.35, 0.45419, 0.00458, -0.01938, 0.89062,
 15:56:52.690,c2:22:89:2b:7b:c3, 2015-01-01 01:11:49.205, 0.025, -0.03, 1.002, 0, 0, 0, -1.736, -1.478, 125.98, 58.212, -41.944, -13.426, 22.35, 0.45419, 0.00458, -0.01938, 0.89062,
 15:56:52.690,c2:22:89:2b:7b:c3, 2015-01-01 01:11:49.205, 0.027, -0.028, 1.003, 0, 0, 0, -1.736, -1.478, 125.98, 58.212, -41.944, -13.426, 22.35, 0.45419, 0.00458, -0.01938, 0.89062,
 15:56:52.721,c2:22:89:2b:7b:c3, 2015-01-01 01:11:49.205, 0.028, -0.029, 1.002, 0, 0, 0, -1.736, -1.478, 125.98, 58.212, -41.944, -13.426, 22.35, 0.45419, 0.00458, -0.01938, 0.89062,
 15:56:52.721,c2:22:89:2b:7b:c3, 2015-01-01 01:11:49.205, 0.025, -0.031, 1, 0, 0, 0, -1.736, -1.478, 125.98, 58.212, -41.944, -13.426, 22.35, 0.45419, 0.00458, -0.01938, 0.89062,
 15:56:52.721,c2:22:89:2b:7b:c3, 2015-01-01 01:11:49.205, 0.072, -0.033, 0.99, 0, 0, 0, -1.736, -1.478, 125.98, 58.212, -41.944, -13.426, 22.35, 0.45419, 0.00458, -0.01938, 0.89062,
 15:56:52.721,c2:22:89:2b:7b:c3, 2015-01-01 01:11:49.205, 0.047, -0.025, 0.991, -8.118, -0.061, 0, -1.78, -1.478, 125.98, 58.212, -41.944, -13.426, 22.35, 0.45419, 0.00458, -0.01938, 0.89062,
 15:56:52.783,c2:22:89:2b:7b:c3, 2015-01-01 01:11:49.205, -0.032, -0.255, 0.999, -13.306, 6.042, -0.061, -1.917, -1.434, 125.98, 58.212, -41.944, -13.426, 22.35, 0.45419, 0.00458, -0.01938, 0.89062,
 15:56:52.783,c2:22:89:2b:7b:c3, 2015-01-01 01:11:49.205, -0.062, -0.294, 0.954, -3.601, 3.052, -0.122, -1.994, -1.39, 125.986, 58.212, -41.944, -13.426, 22.35, 0.45419, 0.00458, -0.01938, 0.89062,
 15:56:52.783,c2:22:89:2b:7b:c3, 2015-01-01 01:11:49.205, -0.082, -0.188, 0.967, 9.949, -2.197, 0.061, -1.95, -1.401, 125.986, 58.212, -41.944, -13.426, 22.35, 0.45419, 0.00458, -0.01938, 0.89062,
 15:56:52.783,c2:22:89:2b:7b:c3, 2015-01-01 01:11:49.205, 0.288, 0.002, 1.091, 19.714, -14.526, 0, -1.785, -1.5, 125.986, 58.212, -41.944, -13.426, 22.35, 0.45419, 0.00458, -0.01938, 0.89062,
 15:56:52.814,c2:22:89:2b:7b:c3, 2015-01-01 01:11:49.205, 0.099, 0.377, 1.097, 14.343, -13.672, -0.488, -1.62, -1.642, 125.986, 58.114, -41.846, -13.426, 22.35, 0.45419, 0.00458, -0.01938, 0.89062,
 15:56:52.814,c2:22:89:2b:7b:c3, 2015-01-01 01:11:49.205, 0.106, 0.249, 1.046, -7.324, 5.005, 0.488, -1.642, -1.631, 125.986, 58.114, -41.846, -13.426, 22.35, 0.45419, 0.00458, -0.01938, 0.89062,
 15:56:52.814,c2:22:89:2b:7b:c3, 2015-01-01 01:11:49.205, 0.002, 0.055, 0.923, -17.212, 2.747, 0.488, -1.78, -1.593, 125.986, 58.114, -41.846, -13.426, 22.35, 0.45419, 0.00458, -0.01938, 0.89062,
 15:56:52.814,c2:22:89:2b:7b:c3, 2015-01-01 01:11:49.205, -0.097, -0.24, 1.013, -20.203, 10.559, 0.488, -1.989, -1.511, 125.991, 58.114, -41.846, -13.426, 22.35, 0.45419, 0.00458, -0.01938, 0.89062,
 15:56:52.844,c2:22:89:2b:7b:c3, 2015-01-01 01:11:49.205, -0.042, -0.298, 0.985, -1.526, -0.549, -0.122, -2.06, -1.483, 125.991, 58.114, -41.846, -13.426, 22.35, 0.45419, 0.00458, -0.01938, 0.89062,
 15:56:52.844,c2:22:89:2b:7b:c3, 2015-01-01 01:11:49.205, -0.073, -0.145, 1.038, 10.254, -4.15, -0.122, -1.989, -1.511, 125.991, 58.114, -41.846, -13.426, 22.35, 0.45419, 0.00458, -0.01938, 0.89062,
 15:56:52.844,c2:22:89:2b:7b:c3, 2015-01-01 01:11:49.205, 0.308, -0.028, 1.056, 17.456, -13.916, -0.244, -1.835, -1.615, 125.997, 58.114, -41.846, -13.426, 22.35, 0.45419, 0.00458, -0.01938, 0.89062,
 15:56:52.844,c2:22:89:2b:7b:c3, 2015-01-01 01:11:49.205, 0.084, 0.308, 1.071, 13.367, -12.451, -0.549, -1.686, -1.752, 125.997, 58.114, -41.846, -13.426, 22.35, 0.45419, 0.00458, -0.01938, 0.89062,
 15:56:52.937,c2:22:89:2b:7b:c3, 2015-01-01 01:11:49.205, 0.092, 0.216, 1.065, -4.456, 7.08, -0.244, -1.686, -1.719, 125.991, 58.114, -41.846, -13.426, 22.35, 0.45407, 0.00528, -0.02069, 0.89066,
 15:56:52.937,c2:22:89:2b:7b:c3, 2015-01-01 01:11:49.205, -0.01, 0.021, 0.893, -16.602, 1.953, 0.366, -1.818, -1.686, 125.991, 58.114, -41.846, -13.426, 22.35, 0.45407, 0.00528, -0.02069, 0.89066,
 15:56:52.937,c2:22:89:2b:7b:c3, 2015-01-01 01:11:49.205, -0.045, -0.176, 1.024, -16.663, 6.165, 0.732, -1.983, -1.631, 125.997, 58.114, -41.846, -13.426, 22.35, 0.45407, 0.00528, -0.02069, 0.89066,
 15:56:52.937,c2:22:89:2b:7b:c3, 2015-01-01 01:11:49.205, -0.044, -0.242, 1.033, -4.15, -0.366, 0.366, -2.049, -1.615, 125.997, 58.114, -41.846, -13.426, 22.35, 0.45407, 0.00528, -0.02069, 0.89066,
 15:56:52.937,c2:22:89:2b:7b:c3, 2015-01-01 01:11:49.205, -0.052, -0.141, 0.948, 7.324, -3.723, -0.183, -2, -1.642, 125.997, 58.114, -41.846, -13.426, 22.35, 0.45407, 0.00528, -0.02069, 0.89066,
 15:56:52.938,c2:22:89:2b:7b:c3, 2015-01-01 01:11:49.205, 0.056, -0.049, 0.922, 11.292, -10.193, -0.305, -1.895, -1.725, 125.997, 58.114, -41.846, -13.426, 22.35, 0.45407, 0.00528, -0.02069, 0.89066,
 15:56:52.938,c2:22:89:2b:7b:c3, 2015-01-01 01:11:49.205, 0.187, 0.062, 0.948, 11.23, -10.681, -0.244, -1.78, -1.824, 126.002, 58.114, -41.846, -13.426, 22.35, 0.45407, 0.00528, -0.02069, 0.89066,
 15:56:52.938,c2:22:89:2b:7b:c3, 2015-01-01 01:11:49.205, 0.028, 0.153, 0.992, 3.845, -2.502, -0.305, -1.714, -1.89, 126.002, 58.114, -41.846, -13.426, 22.35, 0.45407, 0.00528, -0.02069, 0.89066,
 15:56:52.967,c2:22:89:2b:7b:c3, 2015-01-01 01:11:49.205, 0.041, 0.056, 1.021, -8.911, 2.502, 0.183, -1.769, -1.862, 125.997, 58.114, -41.846, -13.426, 22.35, 0.45407, 0.00528, -0.02069, 0.89066,
 15:56:52.968,c2:22:89:2b:7b:c3, 2015-01-01 01:11:49.205, -0.04, -0.066, 0.956, -11.719, 3.967, 0.366, -1.884, -1.829, 126.002, 58.114, -41.846, -13.426, 22.35, 0.45407, 0.00528, -0.02069, 0.89066,
 15:56:52.968,c2:22:89:2b:7b:c3, 2015-01-01 01:11:49.205, 0.002, -0.145, 1.019, -5.676, -1.404, 0.244, -1.956, -1.824, 126.002, 58.114, -41.846, -13.426, 22.35, 0.45407, 0.00528, -0.02069, 0.89066,
 15:56:52.968,c2:22:89:2b:7b:c3, 2015-01-01 01:11:49.205, 0.006, -0.127, 1.012, 2.747, -3.052, -0.122, -1.956, -1.851, 126.002, 58.114, -41.846, -13.426, 22.35, 0.45407, 0.00528, -0.02069, 0.89066,
 15:56:53.028,c2:22:89:2b:7b:c3, 2015-01-01 01:11:49.620, 0.027, -0.046, 1.015, 7.141, -5.859, -0.122, -1.89, -1.901, 126.002, 58.114, -41.846, -13.426, 22.35, 0.45407, 0.00528, -0.02069, 0.89066,
 15:56:53.028,c2:22:89:2b:7b:c3, 2015-01-01 01:11:49.620, 0.068, -0.011, 0.986, 7.874, -7.935, 0, -1.818, -1.972, 126.008, 58.114, -41.846, -13.426, 22.35, 0.45407, 0.00528, -0.02069, 0.89066,
 15:56:53.028,c2:22:89:2b:7b:c3, 2015-01-01 01:11:49.620, 0.106, 0.04, 0.988, 5.31, -6.165, 0, -1.758, -2.038, 126.008, 58.114, -41.846, -13.426, 22.35, 0.45407, 0.00528, -0.02069, 0.89066,
 15:56:53.028,c2:22:89:2b:7b:c3, 2015-01-01 01:11:49.620, 0.08, 0.073, 0.994, -1.587, -1.648, 0, -1.752, -2.071, 126.008, 58.114, -41.846, -13.426, 22.35, 0.45407, 0.00528, -0.02069, 0.89066,
 15:56:53.062,c2:22:89:2b:7b:c3, 2015-01-01 01:11:49.620, -0.027, -0.006, 0.986, -9.766, 1.404, 0.427, -1.824, -2.065, 126.013, 58.114, -41.846, -13.426, 22.35, 0.45407, 0.00528, -0.02069, 0.89066,
 15:56:53.062,c2:22:89:2b:7b:c3, 2015-01-01 01:11:49.620, -0.039, -0.091, 0.96, -7.385, 2.747, 0.122, -1.912, -2.032, 126.013, 58.114, -41.846, -13.426, 22.35, 0.45407, 0.00528, -0.02069, 0.89066,
 15:56:53.062,c2:22:89:2b:7b:c3, 2015-01-01 01:11:49.620, 0.001, -0.094, 0.955, -0.916, -2.991, 0.183, -1.928, -2.049, 126.019, 58.114, -41.846, -13.426, 22.35, 0.45407, 0.00528, -0.02069, 0.89066,
 15:56:53.062,c2:22:89:2b:7b:c3, 2015-01-01 01:11:49.620, 0.062, -0.094, 1.013, 3.418, -7.202, 0.061, -1.906, -2.109, 126.019, 58.114, -41.846, -13.426, 22.35, 0.45407, 0.00528, -0.02069, 0.89066,
 15:56:53.075,c2:22:89:2b:7b:c3, 2015-01-01 01:11:49.620, 0.075, -0.075, 1.01, 5.188, -6.714, -0.244, -1.862, -2.175, 126.024, 58.114, -41.846, -13.426, 22.35, 0.45407, 0.00528, -0.02069, 0.89066,
 15:56:53.075,c2:22:89:2b:7b:c3, 2015-01-01 01:11:49.620, 0.011, -0.005, 0.982, 4.211, -4.15, 0.244, -1.813, -2.219, 126.024, 58.114, -41.846, -13.426, 22.35, 0.45407, 0.00528, -0.02069, 0.89066,
 15:56:53.075,c2:22:89:2b:7b:c3, 2015-01-01 01:11:49.620, 0.084, 0.044, 1.016, 3.174, -5.31, -0.244, -1.78, -2.263, 126.024, 58.114, -41.846, -13.426, 22.35, 0.45407, 0.00528, -0.02069, 0.89066,
 15:56:53.075,c2:22:89:2b:7b:c3, 2015-01-01 01:11:49.620, 0.107, 0.044, 1.02, -0.183, -4.944, 0, -1.769, -2.313, 126.03, 58.114, -41.846, -13.426, 22.35, 0.45407, 0.00528, -0.02069, 0.89066,
 15:56:53.137,c2:22:89:2b:7b:c3, 2015-01-01 01:11:49.620, 0.023, -0.026, 1.004, -6.287, -0.183, 0.305, -1.818, -2.324, 126.03, 58.114, -41.846, -13.426, 22.35, 0.45407, 0.00528, -0.02069, 0.89066,
 15:56:53.137,c2:22:89:2b:7b:c3, 2015-01-01 01:11:49.620, -0.037, -0.065, 0.993, -5.981, 1.221, 0.427, -1.879, -2.313, 126.035, 58.114, -41.846, -13.426, 22.35, 0.45407, 0.00528, -0.02069, 0.89066,
 15:56:53.137,c2:22:89:2b:7b:c3, 2015-01-01 01:11:49.620, 0.007, -0.081, 0.996, -0.305, -2.502, 0.061, -1.895, -2.324, 126.035, 58.114, -41.846, -13.426, 22.35, 0.45407, 0.00528, -0.02069, 0.89066,
 15:56:53.138,c2:22:89:2b:7b:c3, 2015-01-01 01:11:49.620, 0.083, -0.044, 1.004, 4.456, -6.775, -0.244, -1.862, -2.379, 126.041, 58.114, -41.846, -13.426, 22.35, 0.45407, 0.00528, -0.02069, 0.89066,
 15:56:53.168,c2:22:89:2b:7b:c3, 2015-01-01 01:11:49.620, 0.076, -0.026, 1.003, 2.502, -6.958, -0.061, -1.829, -2.45, 126.041, 58.114, -41.846, -13.426, 22.35, 0.45407, 0.00528, -0.02069, 0.89066,
 15:56:53.168,c2:22:89:2b:7b:c3, 2015-01-01 01:11:49.620, 0.025, -0.031, 0.986, 0.305, -3.601, 0.244, -1.818, -2.494, 126.046, 58.114, -41.846, -13.426, 22.35, 0.45407, 0.00528, -0.02069, 0.89066,
 15:56:53.168,c2:22:89:2b:7b:c3, 2015-01-01 01:11:49.620, 0.021, -0.007, 0.966, 1.587, -2.441, 0.061, -1.813, -2.516, 126.046, 58.114, -41.846, -13.426, 22.35, 0.45407, 0.00528, -0.02069, 0.89066,
 15:56:53.168,c2:22:89:2b:7b:c3, 2015-01-01 01:11:49.620, 0.077, 0.038, 0.996, 1.038, -4.761, -0.061, -1.796, -2.56, 126.052, 58.114, -41.846, -13.426, 22.35, 0.45407, 0.00528, -0.02069, 0.89066,
 15:56:53.230,c2:22:89:2b:7b:c3, 2015-01-01 01:11:49.620, 0.085, -0.016, 1.003, -3.54, -3.601, 0.305, -1.818, -2.598, 126.052, 58.114, -41.846, -13.426, 22.35, 0.45407, 0.00528, -0.02069, 0.89066,
 15:56:53.230,c2:22:89:2b:7b:c3, 2015-01-01 01:11:49.620, 0.021, -0.081, 0.987, -5.066, -2.258, 0.366, -1.868, -2.62, 126.057, 58.114, -41.846, -13.426, 22.35, 0.45407, 0.00528, -0.02069, 0.89066,
 15:56:53.230,c2:22:89:2b:7b:c3, 2015-01-01 01:11:49.620, -0.042, -0.087, 0.995, -0.366, -0.671, 0.122, -1.884, -2.626, 126.063, 58.114, -41.846, -13.426, 22.35, 0.45407, 0.00528, -0.02069, 0.89066,
 15:56:53.230,c2:22:89:2b:7b:c3, 2015-01-01 01:11:49.620, 0.062, -0.01, 1.02, 5.371, -5.249, -0.244, -1.84, -2.664, 126.063, 58.114, -41.846, -13.426, 22.35, 0.45407, 0.00528, -0.02069, 0.89066,
 15:56:53.260,c2:22:89:2b:7b:c3, 2015-01-01 01:11:49.620, 0.126, 0.013, 0.995, 3.113, -8.911, -0.122, -1.802, -2.741, 126.068, 57.624, -42.140, -13.328, 22.35, 0.45407, 0.00528, -0.02069, 0.89066,
 15:56:53.260,c2:22:89:2b:7b:c3, 2015-01-01 01:11:49.620, 0.076, -0.041, 0.998, -0.977, -5.432, 0.427, -1.802, -2.807, 126.074, 57.624, -42.140, -13.328, 22.35, 0.45407, 0.00528, -0.02069, 0.89066,
 15:56:53.260,c2:22:89:2b:7b:c3, 2015-01-01 01:11:49.620, 0.016, -0.021, 1.008, 0, -0.977, 0, -1.807, -2.823, 126.074, 57.624, -42.140, -13.328, 22.35, 0.45407, 0.00528, -0.02069, 0.89066,
 15:56:53.260,c2:22:89:2b:7b:c3, 2015-01-01 01:11:49.620, 0.035, 0.016, 1.001, -0.916, -1.465, 0.061, -1.807, -2.834, 126.074, 57.624, -42.140, -13.328, 22.35, 0.45407, 0.00528, -0.02069, 0.89066,
 15:56:53.292,c2:22:89:2b:7b:c3, 2015-01-01 01:11:49.620, 0.061, -0.03, 1.002, -2.319, -4.639, 0.244, -1.829, -2.873, 126.079, 57.624, -42.140, -13.328, 22.35, 0.45407, 0.00528, -0.02069, 0.89066,
 15:56:53.292,c2:22:89:2b:7b:c3, 2015-01-01 01:11:49.620, 0.064, -0.056, 1.003, 0, -4.517, 0.061, -1.835, -2.922, 126.085, 57.624, -42.140, -13.328, 22.35, 0.45407, 0.00528, -0.02069, 0.89066,
 15:56:53.292,c2:22:89:2b:7b:c3, 2015-01-01 01:11:49.620, 0.042, -0.038, 0.997, 0.244, -3.296, 0.061, -1.829, -2.955, 126.085, 57.624, -42.140, -13.328, 22.35, 0.45407, 0.00528, -0.02069, 0.89066,
 15:56:53.292,c2:22:89:2b:7b:c3, 2015-01-01 01:11:49.620, 0.044, -0.038, 0.998, 0, -3.723, 0, -1.829, -2.988, 126.09, 57.624, -42.140, -13.328, 22.35, 0.45407, 0.00528, -0.02069, 0.89066,
 15:56:53.351,c2:22:89:2b:7b:c3, 2015-01-01 01:11:49.620, 0.045, -0.024, 0.987, 1.526, -4.7, 0.061, -1.818, -3.032, 126.09, 57.624, -42.140, -13.328, 22.35, 0.45343, 0.01584, -0.02597, 0.89072,
 15:56:53.353,c2:22:89:2b:7b:c3, 2015-01-01 01:11:49.620, 0.064, -0.011, 0.981, 1.038, -4.578, 0.061, -1.802, -3.076, 126.096, 57.624, -42.140, -13.328, 22.35, 0.45343, 0.01584, -0.02597, 0.89072,
 15:56:53.353,c2:22:89:2b:7b:c3, 2015-01-01 01:11:49.620, 0.108, -0.009, 1.006, 0.488, -5.92, 0, -1.791, -3.126, 126.101, 57.624, -42.140, -13.328, 22.35, 0.45343, 0.01584, -0.02597, 0.89072,
 15:56:53.353,c2:22:89:2b:7b:c3, 2015-01-01 01:11:49.620, 0.058, -0.03, 1.021, -1.038, -3.479, 0.183, -1.796, -3.17, 126.101, 57.624, -42.140, -13.328, 22.35, 0.45343, 0.01584, -0.02597, 0.89072,
 15:56:53.382,c2:22:89:2b:7b:c3, 2015-01-01 01:11:50.005, 0.021, -0.032, 1.005, -1.77, -1.221, 0.244, -1.813, -3.186, 126.107, 57.624, -42.140, -13.328, 22.35, 0.45343, 0.01584, -0.02597, 0.89072,
 15:56:53.382,c2:22:89:2b:7b:c3, 2015-01-01 01:11:50.005, 0.021, -0.029, 0.972, -1.892, -2.441, 0.183, -1.829, -3.203, 126.112, 57.624, -42.140, -13.328, 22.35, 0.45343, 0.01584, -0.02597, 0.89072,
 15:56:53.382,c2:22:89:2b:7b:c3, 2015-01-01 01:11:50.005, 0.074, -0.058, 0.999, 0.793, -5.981, 0.122, -1.829, -3.252, 126.112, 57.624, -42.140, -13.328, 22.35, 0.45343, 0.01584, -0.02597, 0.89072,
 15:56:53.382,c2:22:89:2b:7b:c3, 2015-01-01 01:11:50.005, 0.091, -0.024, 1.014, 4.272, -6.714, -0.122, -1.796, -3.318, 126.118, 57.624, -42.140, -13.328, 22.35, 0.45343, 0.01584, -0.02597, 0.89072,
 15:56:53.412,c2:22:89:2b:7b:c3, 2015-01-01 01:11:50.005, 0.094, 0.015, 1.009, 1.648, -5.005, 0, -1.769, -3.367, 126.123, 57.624, -42.140, -13.328, 22.35, 0.45343, 0.01584, -0.02597, 0.89072,
 15:56:53.412,c2:22:89:2b:7b:c3, 2015-01-01 01:11:50.005, 0.066, -0.021, 0.999, -2.808, -2.869, 0.366, -1.785, -3.4, 126.129, 57.624, -42.140, -13.328, 22.35, 0.45343, 0.01584, -0.02597, 0.89072,
 15:56:53.412,c2:22:89:2b:7b:c3, 2015-01-01 01:11:50.005, 0.035, -0.048, 1.003, -2.502, -2.136, 0.122, -1.813, -3.422, 126.134, 57.624, -42.140, -13.328, 22.35, 0.45343, 0.01584, -0.02597, 0.89072,
 15:56:53.412,c2:22:89:2b:7b:c3, 2015-01-01 01:11:50.005, 0.018, -0.035, 1.01, -0.305, -2.258, 0.183, -1.818, -3.444, 126.14, 57.624, -42.140, -13.328, 22.35, 0.45343, 0.01584, -0.02597, 0.89072,
 15:56:53.475,c2:22:89:2b:7b:c3, 2015-01-01 01:11:50.005, 0.074, -0.022, 0.995, 1.709, -4.883, 0, -1.807, -3.483, 126.14, 57.624, -42.140, -13.328, 22.35, 0.45343, 0.01584, -0.02597, 0.89072,
 15:56:53.475,c2:22:89:2b:7b:c3, 2015-01-01 01:11:50.005, 0.113, -0.02, 0.986, 1.648, -7.263, 0.061, -1.785, -3.549, 126.145, 57.624, -42.140, -13.328, 22.35, 0.45343, 0.01584, -0.02597, 0.89072,
 15:56:53.475,c2:22:89:2b:7b:c3, 2015-01-01 01:11:50.005, 0.078, -0.032, 1.002, 0.061, -4.333, 0.183, -1.78, -3.604, 126.151, 57.624, -42.140, -13.328, 22.35, 0.45343, 0.01584, -0.02597, 0.89072,
 15:56:53.475,c2:22:89:2b:7b:c3, 2015-01-01 01:11:50.005, 0.059, -0.021, 1.015, -0.549, -1.892, -0.061, -1.785, -3.625, 126.151, 57.624, -42.140, -13.328, 22.35, 0.45343, 0.01584, -0.02597, 0.89072,
 15:56:53.506,c2:22:89:2b:7b:c3, 2015-01-01 01:11:50.005, 0.035, -0.03, 0.988, -2.747, -2.075, 0.183, -1.802, -3.642, 126.156, 57.624, -42.140, -13.328, 22.35, 0.45343, 0.01584, -0.02597, 0.89072,
 15:56:53.506,c2:22:89:2b:7b:c3, 2015-01-01 01:11:50.005, 0.037, -0.073, 0.982, -1.282, -3.357, 0.366, -1.824, -3.669, 126.161, 57.624, -42.140, -13.328, 22.35, 0.45343, 0.01584, -0.02597, 0.89072,
 15:56:53.506,c2:22:89:2b:7b:c3, 2015-01-01 01:11:50.005, 0.071, -0.036, 0.996, 3.479, -5.92, -0.122, -1.802, -3.724, 126.167, 57.624, -42.140, -13.328, 22.35, 0.45343, 0.01584, -0.02597, 0.89072,
 15:56:53.506,c2:22:89:2b:7b:c3, 2015-01-01 01:11:50.005, 0.131, 0, 1.008, 3.967, -6.897, -0.183, -1.758, -3.785, 126.172, 57.624, -42.140, -13.328, 22.35, 0.45343, 0.01584, -0.02597, 0.89072,
 15:56:53.538,c2:22:89:2b:7b:c3, 2015-01-01 01:11:50.005, 0.098, 0.011, 1.01, 0.305, -5.005, 0.122, -1.741, -3.845, 126.178, 57.624, -42.140, -13.328, 22.35, 0.45343, 0.01584, -0.02597, 0.89072,
 15:56:53.538,c2:22:89:2b:7b:c3, 2015-01-01 01:11:50.005, 0.069, -0.01, 1.017, -3.418, -1.77, 0.183, -1.763, -3.867, 126.183, 57.624, -42.140, -13.328, 22.35, 0.45343, 0.01584, -0.02597, 0.89072,
 15:56:53.538,c2:22:89:2b:7b:c3, 2015-01-01 01:11:50.005, 0.039, -0.052, 1.004, -4.639, -0.427, 0.183, -1.807, -3.873, 126.189, 57.624, -42.140, -13.328, 22.35, 0.45343, 0.01584, -0.02597, 0.89072,
 15:56:53.538,c2:22:89:2b:7b:c3, 2015-01-01 01:11:50.005, 0.035, -0.082, 1.002, -1.77, -2.502, 0.183, -1.835, -3.889, 126.194, 57.624, -42.140, -13.328, 22.35, 0.45343, 0.01584, -0.02597, 0.89072,
 15:56:53.598,c2:22:89:2b:7b:c3, 2015-01-01 01:11:50.005, 0.055, -0.062, 1.008, 2.38, -5.615, 0.061, -1.818, -3.933, 126.194, 57.624, -42.140, -13.328, 22.35, 0.45343, 0.01584, -0.02597, 0.89072,
 15:56:53.598,c2:22:89:2b:7b:c3, 2015-01-01 01:11:50.005, 0.134, -0.016, 0.998, 5.31, -7.446, -0.061, -1.769, -3.999, 126.2, 57.624, -42.140, -13.328, 22.35, 0.45343, 0.01584, -0.02597, 0.89072,
 15:56:53.598,c2:22:89:2b:7b:c3, 2015-01-01 01:11:50.005, 0.126, 0.074, 1.016, 4.578, -7.69, -0.244, -1.714, -4.076, 126.205, 57.624, -42.140, -13.328, 22.35, 0.45343, 0.01584, -0.02597, 0.89072,
 15:56:53.598,c2:22:89:2b:7b:c3, 2015-01-01 01:11:50.005, 0.1, 0.042, 1.019, -1.77, -1.282, 0.183, -1.714, -4.103, 126.211, 57.624, -42.140, -13.328, 22.35, 0.45343, 0.01584, -0.02597, 0.89072,
 15:56:53.614,c2:22:89:2b:7b:c3, 2015-01-01 01:11:50.005, 0.055, -0.001, 0.99, -6.775, -0.977, 0.244, -1.763, -4.109, 126.216, 57.624, -42.140, -13.328, 22.35, 0.45343, 0.01584, -0.02597, 0.89072,
 15:56:53.614,c2:22:89:2b:7b:c3, 2015-01-01 01:11:50.005, 0.032, -0.093, 1.005, -7.751, 0.244, 0.244, -1.835, -4.109, 126.222, 56.840, -42.532, -12.740, 22.35, 0.45343, 0.01584, -0.02597, 0.89072,
 15:56:53.614,c2:22:89:2b:7b:c3, 2015-01-01 01:11:50.005, 0.028, -0.14, 0.99, -1.526, -2.625, 0.122, -1.873, -4.125, 126.227, 56.840, -42.532, -12.740, 22.35, 0.45343, 0.01584, -0.02597, 0.89072,
 15:56:53.615,c2:22:89:2b:7b:c3, 2015-01-01 01:11:50.005, 0.044, -0.082, 0.996, 5.371, -5.859, 0.122, -1.835, -4.175, 126.233, 56.840, -42.532, -12.740, 22.35, 0.45343, 0.01584, -0.02597, 0.89072,
 15:56:53.659,c2:22:89:2b:7b:c3, 2015-01-01 01:11:50.005, 0.2, -0.002, 1.008, 8.118, -9.033, -0.122, -1.758, -4.257, 126.233, 56.840, -42.532, -12.740, 22.35, 0.45343, 0.01584, -0.02597, 0.89072,
 15:56:53.659,c2:22:89:2b:7b:c3, 2015-01-01 01:11:50.005, 0.109, 0.063, 1.027, 4.639, -7.446, -0.061, -1.697, -4.34, 126.238, 56.840, -42.532, -12.740, 22.35, 0.45343, 0.01584, -0.02597, 0.89072,
 15:56:53.659,c2:22:89:2b:7b:c3, 2015-01-01 01:11:50.005, 0.098, 0.091, 1.043, -1.343, -0.671, 0.122, -1.692, -4.356, 126.244, 56.840, -42.532, -12.740, 22.35, 0.45343, 0.01584, -0.02597, 0.89072,
 15:56:53.659,c2:22:89:2b:7b:c3, 2015-01-01 01:11:50.005, 0.083, 0.034, 0.993, -7.019, -1.099, 0.244, -1.741, -4.367, 126.249, 56.840, -42.532, -12.740, 22.35, 0.45343, 0.01584, -0.02597, 0.89072,
 15:56:53.705,c2:22:89:2b:7b:c3, 2015-01-01 01:11:50.005, 0.054, -0.103, 1.013, -9.277, 0.732, 0.671, -1.829, -4.362, 126.255, 56.840, -42.532, -12.740, 22.35, 0.45343, 0.01584, -0.02597, 0.89072,
 15:56:53.705,c2:22:89:2b:7b:c3, 2015-01-01 01:11:50.005, 0.016, -0.158, 0.995, -2.93, -1.404, 0.305, -1.879, -4.367, 126.26, 56.840, -42.532, -12.740, 22.35, 0.45343, 0.01584, -0.02597, 0.89072,
 15:56:53.705,c2:22:89:2b:7b:c3, 2015-01-01 01:11:50.005, 0.023, -0.108, 0.996, 3.479, -3.235, -0.122, -1.862, -4.395, 126.266, 56.840, -42.532, -12.740, 22.35, 0.45343, 0.01584, -0.02597, 0.89072,
 15:56:53.705,c2:22:89:2b:7b:c3, 2015-01-01 01:11:50.005, 0.144, -0.035, 1.002, 7.935, -8.85, -0.122, -1.791, -4.466, 126.271, 56.840, -42.532, -12.740, 22.35, 0.45343, 0.01584, -0.02597, 0.89072,
 15:56:53.736,c2:22:89:2b:7b:c3, 2015-01-01 01:11:50.005, 0.152, 0.018, 0.994, 7.568, -9.644, -0.122, -1.719, -4.565, 126.277, 56.840, -42.532, -12.740, 22.35, 0.45206, 0.02667, -0.03186, 0.89096,
 15:56:53.736,c2:22:89:2b:7b:c3, 2015-01-01 01:11:50.005, 0.055, 0.05, 0.997, 2.747, -1.404, -0.061, -1.681, -4.598, 126.282, 56.840, -42.532, -12.740, 22.35, 0.45206, 0.02667, -0.03186, 0.89096,
 15:56:53.736,c2:22:89:2b:7b:c3, 2015-01-01 01:11:50.005, 0.1, 0.065, 0.961, -3.052, -1.404, 0.183, -1.697, -4.609, 126.288, 56.840, -42.532, -12.740, 22.35, 0.45206, 0.02667, -0.03186, 0.89096,
 15:56:53.736,c2:22:89:2b:7b:c3, 2015-01-01 01:11:50.005, 0.084, -0.017, 0.998, -7.263, -1.343, 0.366, -1.752, -4.625, 126.293, 56.840, -42.532, -12.740, 22.35, 0.45206, 0.02667, -0.03186, 0.89096,
 15:56:53.797,c2:22:89:2b:7b:c3, 2015-01-01 01:11:50.005, 0.061, -0.097, 1.034, -4.028, -1.404, 0.183, -1.802, -4.636, 126.299, 56.840, -42.532, -12.740, 22.35, 0.45206, 0.02667, -0.03186, 0.89096,
 15:56:53.797,c2:22:89:2b:7b:c3, 2015-01-01 01:11:50.005, 0.036, -0.076, 1.005, 0.61, -1.343, 0.061, -1.802, -4.647, 126.304, 56.840, -42.532, -12.740, 22.35, 0.45206, 0.02667, -0.03186, 0.89096,
 15:56:53.797,c2:22:89:2b:7b:c3, 2015-01-01 01:11:50.005, 0.105, -0.049, 0.997, 3.052, -5.554, -0.061, -1.78, -4.691, 126.31, 56.840, -42.532, -12.740, 22.35, 0.45206, 0.02667, -0.03186, 0.89096,
 15:56:53.797,c2:22:89:2b:7b:c3, 2015-01-01 01:11:50.005, 0.146, -0.038, 1.01, 3.601, -6.775, -0.061, -1.747, -4.757, 126.315, 56.840, -42.532, -12.740, 22.35, 0.45206, 0.02667, -0.03186, 0.89096,
 15:56:53.828,c2:22:89:2b:7b:c3, 2015-01-01 01:11:50.425, 0.083, -0.007, 1.022, 3.052, -3.479, 0, -1.714, -4.807, 126.321, 56.840, -42.532, -12.740, 22.35, 0.45206, 0.02667, -0.03186, 0.89096,
 15:56:53.828,c2:22:89:2b:7b:c3, 2015-01-01 01:11:50.425, 0.098, 0.023, 1.01, -0.732, -1.831, 0, -1.708, -4.823, 126.321, 56.840, -42.532, -12.740, 22.35, 0.45206, 0.02667, -0.03186, 0.89096,
 15:56:53.828,c2:22:89:2b:7b:c3, 2015-01-01 01:11:50.425, 0.094, -0.014, 0.988, -3.601, -2.014, 0, -1.736, -4.845, 126.326, 56.840, -42.532, -12.740, 22.35, 0.45206, 0.02667, -0.03186, 0.89096,
 15:56:53.828,c2:22:89:2b:7b:c3, 2015-01-01 01:11:50.425, 0.076, -0.06, 1.009, -2.136, -1.953, 0.122, -1.758, -4.867, 126.337, 56.840, -42.532, -12.740, 22.35, 0.45206, 0.02667, -0.03186, 0.89096,
 15:56:53.859,c2:22:89:2b:7b:c3, 2015-01-01 01:11:50.425, 0.06, -0.042, 1.002, -0.122, -1.404, 0.122, -1.763, -4.878, 126.337, 56.840, -42.532, -12.740, 22.35, 0.45206, 0.02667, -0.03186, 0.89096,
 15:56:53.859,c2:22:89:2b:7b:c3, 2015-01-01 01:11:50.425, 0.09, -0.036, 0.999, 0.183, -3.418, 0.061, -1.763, -4.905, 126.343, 56.840, -42.532, -12.740, 22.35, 0.45206, 0.02667, -0.03186, 0.89096,
 15:56:53.859,c2:22:89:2b:7b:c3, 2015-01-01 01:11:50.425, 0.125, -0.054, 1.001, 2.258, -5.127, -0.061, -1.747, -4.955, 126.348, 56.840, -42.532, -12.740, 22.35, 0.45206, 0.02667, -0.03186, 0.89096,
 15:56:53.859,c2:22:89:2b:7b:c3, 2015-01-01 01:11:50.425, 0.095, -0.008, 1.014, 3.357, -4.028, -0.061, -1.714, -4.999, 126.354, 56.840, -42.532, -12.740, 22.35, 0.45206, 0.02667, -0.03186, 0.89096,
 15:56:53.890,c2:22:89:2b:7b:c3, 2015-01-01 01:11:50.425, 0.1, 0.021, 1.017, 0.305, -1.831, 0.122, -1.703, -5.021, 126.359, 56.840, -42.532, -12.740, 22.35, 0.45206, 0.02667, -0.03186, 0.89096,
 15:56:53.890,c2:22:89:2b:7b:c3, 2015-01-01 01:11:50.425, 0.099, -0.004, 1.003, -2.075, -2.93, 0.183, -1.714, -5.048, 126.365, 56.840, -42.532, -12.740, 22.35, 0.45206, 0.02667, -0.03186, 0.89096,
 15:56:53.890,c2:22:89:2b:7b:c3, 2015-01-01 01:11:50.425, 0.089, -0.045, 1.002, -1.221, -1.282, 0.061, -1.73, -5.065, 126.37, 56.840, -42.532, -12.740, 22.35, 0.45206, 0.02667, -0.03186, 0.89096,
 15:56:53.890,c2:22:89:2b:7b:c3, 2015-01-01 01:11:50.425, 0.089, -0.027, 1.008, -0.183, -1.526, -0.122, -1.73, -5.081, 126.376, 56.840, -42.532, -12.740, 22.35, 0.45206, 0.02667, -0.03186, 0.89096,
 15:56:53.951,c2:22:89:2b:7b:c3, 2015-01-01 01:11:50.425, 0.088, -0.027, 1.014, -1.343, -2.625, 0.061, -1.736, -5.103, 126.381, 56.840, -42.532, -12.740, 22.35, 0.45206, 0.02667, -0.03186, 0.89096,
 15:56:53.951,c2:22:89:2b:7b:c3, 2015-01-01 01:11:50.425, 0.095, -0.059, 1, -0.488, -2.747, 0, -1.747, -5.131, 126.387, 56.840, -42.532, -12.740, 22.35, 0.45206, 0.02667, -0.03186, 0.89096,
 15:56:53.951,c2:22:89:2b:7b:c3, 2015-01-01 01:11:50.425, 0.086, -0.042, 0.984, 1.77, -2.014, 0.061, -1.73, -5.153, 126.392, 56.840, -42.532, -12.740, 22.35, 0.45206, 0.02667, -0.03186, 0.89096,
 15:56:53.951,c2:22:89:2b:7b:c3, 2015-01-01 01:11:50.425, 0.118, -0.017, 1.009, 1.343, -3.296, 0.061, -1.719, -5.186, 126.398, 56.840, -42.532, -12.740, 22.35, 0.45206, 0.02667, -0.03186, 0.89096,
 15:56:53.982,c2:22:89:2b:7b:c3, 2015-01-01 01:11:50.425, 0.11, -0.01, 1.026, 0.732, -3.418, 0, -1.708, -5.219, 126.403, 56.840, -42.532, -12.740, 22.35, 0.45206, 0.02667, -0.03186, 0.89096,
 15:56:53.982,c2:22:89:2b:7b:c3, 2015-01-01 01:11:50.425, 0.104, -0.006, 1.007, -0.305, -1.648, 0, -1.703, -5.24, 126.403, 56.840, -42.532, -12.740, 22.35, 0.45206, 0.02667, -0.03186, 0.89096,
 15:56:53.982,c2:22:89:2b:7b:c3, 2015-01-01 01:11:50.425, 0.092, -0.026, 0.997, -1.709, -1.343, 0.061, -1.719, -5.251, 126.409, 56.840, -42.532, -12.740, 22.35, 0.45206, 0.02667, -0.03186, 0.89096,
 15:56:53.982,c2:22:89:2b:7b:c3, 2015-01-01 01:11:50.425, 0.096, -0.043, 1.017, -1.282, -1.709, 0.183, -1.73, -5.268, 126.414, 56.840, -42.532, -12.740, 22.35, 0.45206, 0.02667, -0.03186, 0.89096,
 15:56:54.012,c2:22:89:2b:7b:c3, 2015-01-01 01:11:50.425, 0.083, -0.039, 1.008, 0, -1.953, 0, -1.73, -5.29, 126.42, 56.840, -42.532, -12.740, 22.35, 0.45206, 0.02667, -0.03186, 0.89096,
 15:56:54.012,c2:22:89:2b:7b:c3, 2015-01-01 01:11:50.425, 0.101, -0.039, 0.993, 0.244, -2.014, 0, -1.725, -5.306, 126.425, 56.840, -42.532, -12.740, 22.35, 0.45206, 0.02667, -0.03186, 0.89096,
 15:56:54.012,c2:22:89:2b:7b:c3, 2015-01-01 01:11:50.425, 0.121, -0.027, 1.002, 0.916, -3.235, 0, -1.719, -5.339, 126.431, 56.840, -42.532, -12.740, 22.35, 0.45206, 0.02667, -0.03186, 0.89096,
 15:56:54.012,c2:22:89:2b:7b:c3, 2015-01-01 01:11:50.425, 0.09, -0.037, 1.007, 0.244, -2.014, 0.122, -1.714, -5.361, 126.436, 56.840, -42.532, -12.740, 22.35, 0.45206, 0.02667, -0.03186, 0.89096,
 15:56:54.065,c2:22:89:2b:7b:c3, 2015-01-01 01:11:50.425, 0.103, -0.012, 1.009, 0.671, -1.282, 0, -1.708, -5.372, 126.442, 56.350, -42.924, -12.152, 22.35, 0.45206, 0.02667, -0.03186, 0.89096,
 15:56:54.065,c2:22:89:2b:7b:c3, 2015-01-01 01:11:50.425, 0.105, -0.021, 0.995, -0.61, -1.831, 0.122, -1.714, -5.394, 126.447, 56.350, -42.924, -12.152, 22.35, 0.45206, 0.02667, -0.03186, 0.89096,
 15:56:54.065,c2:22:89:2b:7b:c3, 2015-01-01 01:11:50.425, 0.104, -0.031, 1.018, -0.305, -2.014, 0.183, -1.714, -5.411, 126.453, 56.350, -42.924, -12.152, 22.35, 0.45206, 0.02667, -0.03186, 0.89096,
 15:56:54.065,c2:22:89:2b:7b:c3, 2015-01-01 01:11:50.425, 0.087, -0.026, 1.009, 0.732, -0.916, -0.061, -1.708, -5.427, 126.458, 56.350, -42.924, -12.152, 22.35, 0.45206, 0.02667, -0.03186, 0.89096,
 15:56:54.095,c2:22:89:2b:7b:c3, 2015-01-01 01:11:50.425, 0.101, -0.005, 1.002, 0.061, -1.953, 0, -1.703, -5.438, 126.464, 56.350, -42.924, -12.152, 22.35, 0.45041, 0.03568, -0.03464, 0.89139,
 15:56:54.095,c2:22:89:2b:7b:c3, 2015-01-01 01:11:50.425, 0.111, -0.028, 0.997, -0.122, -2.136, 0.183, -1.703, -5.46, 126.469, 56.350, -42.924, -12.152, 22.35, 0.45041, 0.03568, -0.03464, 0.89139,
 15:56:54.096,c2:22:89:2b:7b:c3, 2015-01-01 01:11:50.425, 0.108, -0.004, 1.004, 1.648, -2.136, 0.122, -1.692, -5.488, 126.475, 56.350, -42.924, -12.152, 22.35, 0.45041, 0.03568, -0.03464, 0.89139,
 15:56:54.096,c2:22:89:2b:7b:c3, 2015-01-01 01:11:50.425, 0.103, 0.021, 1.005, 1.099, -0.854, 0, -1.675, -5.499, 126.48, 56.350, -42.924, -12.152, 22.35, 0.45041, 0.03568, -0.03464, 0.89139,
 15:56:54.125,c2:22:89:2b:7b:c3, 2015-01-01 01:11:50.425, 0.134, 0.001, 1.009, -2.502, -1.16, 0.366, -1.686, -5.51, 126.486, 56.350, -42.924, -12.152, 22.35, 0.45041, 0.03568, -0.03464, 0.89139,
 15:56:54.125,c2:22:89:2b:7b:c3, 2015-01-01 01:11:50.425, 0.099, -0.056, 1.011, -3.662, -0.916, 0.122, -1.719, -5.521, 126.491, 56.350, -42.924, -12.152, 22.35, 0.45041, 0.03568, -0.03464, 0.89139,
 15:56:54.125,c2:22:89:2b:7b:c3, 2015-01-01 01:11:50.425, 0.06, -0.086, 1.01, -2.197, 1.709, 0.122, -1.747, -5.51, 126.497, 56.350, -42.924, -12.152, 22.35, 0.45041, 0.03568, -0.03464, 0.89139,
 15:56:54.125,c2:22:89:2b:7b:c3, 2015-01-01 01:11:50.425, 0.092, -0.06, 1.005, 1.099, -0.793, -0.122, -1.741, -5.51, 126.502, 56.350, -42.924, -12.152, 22.35, 0.45041, 0.03568, -0.03464, 0.89139,
 15:56:54.185,c2:22:89:2b:7b:c3, 2015-01-01 01:11:50.780, 0.098, -0.056, 1.003, 0.793, -3.235, 0.122, -1.73, -5.537, 126.508, 56.350, -42.924, -12.152, 22.35, 0.45041, 0.03568, -0.03464, 0.89139,
 15:56:54.185,c2:22:89:2b:7b:c3, 2015-01-01 01:11:50.780, 0.133, -0.05, 1.01, 4.089, -3.113, -0.122, -1.703, -5.57, 126.513, 56.350, -42.924, -12.152, 22.35, 0.45041, 0.03568, -0.03464, 0.89139,
 15:56:54.185,c2:22:89:2b:7b:c3, 2015-01-01 01:11:50.780, 0.109, 0.041, 0.993, 3.784, -1.77, -0.061, -1.659, -5.592, 126.519, 56.350, -42.924, -12.152, 22.35, 0.45041, 0.03568, -0.03464, 0.89139,
 15:56:54.185,c2:22:89:2b:7b:c3, 2015-01-01 01:11:50.780, 0.112, 0.029, 1.011, -1.038, -0.366, 0.122, -1.653, -5.598, 126.524, 56.350, -42.924, -12.152, 22.35, 0.45041, 0.03568, -0.03464, 0.89139,
 15:56:54.244,c2:22:89:2b:7b:c3, 2015-01-01 01:11:50.780, 0.106, -0.007, 0.998, -2.93, -0.122, 0.061, -1.675, -5.603, 126.53, 56.350, -42.924, -12.152, 22.35, 0.45041, 0.03568, -0.03464, 0.89139,
 15:56:54.244,c2:22:89:2b:7b:c3, 2015-01-01 01:11:50.780, 0.091, -0.042, 1.005, -3.113, 0.854, 0.122, -1.708, -5.603, 126.53, 56.350, -42.924, -12.152, 22.35, 0.45041, 0.03568, -0.03464, 0.89139,
 15:56:54.244,c2:22:89:2b:7b:c3, 2015-01-01 01:11:50.780, 0.093, -0.071, 1.02, -1.343, -0.061, 0, -1.725, -5.603, 126.535, 56.350, -42.924, -12.152, 22.35, 0.45041, 0.03568, -0.03464, 0.89139,
 15:56:54.244,c2:22:89:2b:7b:c3, 2015-01-01 01:11:50.780, 0.098, -0.051, 1.018, 2.319, -1.465, 0, -1.708, -5.614, 126.541, 56.350, -42.924, -12.152, 22.35, 0.45041, 0.03568, -0.03464, 0.89139,
 15:56:54.246,c2:22:89:2b:7b:c3, 2015-01-01 01:11:50.780, 0.103, -0.023, 1.007, 2.625, -1.465, -0.122, -1.681, -5.63, 126.546, 56.350, -42.924, -12.152, 22.35, 0.45041, 0.03568, -0.03464, 0.89139,
 15:56:54.246,c2:22:89:2b:7b:c3, 2015-01-01 01:11:50.780, 0.143, 0.017, 1.001, 2.136, -1.587, 0, -1.653, -5.647, 126.552, 56.350, -42.924, -12.152, 22.35, 0.45041, 0.03568, -0.03464, 0.89139,
 15:56:54.246,c2:22:89:2b:7b:c3, 2015-01-01 01:11:50.780, 0.102, 0.002, 1, -1.526, -0.427, 0, -1.659, -5.658, 126.557, 56.350, -42.924, -12.152, 22.35, 0.45041, 0.03568, -0.03464, 0.89139,
 15:56:54.246,c2:22:89:2b:7b:c3, 2015-01-01 01:11:50.780, 0.095, -0.03, 1.009, -2.075, 1.038, 0, -1.681, -5.652, 126.562, 56.350, -42.924, -12.152, 22.35, 0.45041, 0.03568, -0.03464, 0.89139,
 15:56:54.305,c2:22:89:2b:7b:c3, 2015-01-01 01:11:50.780, 0.093, -0.029, 1, -1.16, 1.099, 0.061, -1.692, -5.641, 126.562, 56.350, -42.924, -12.152, 22.35, 0.45041, 0.03568, -0.03464, 0.89139,
 15:56:54.305,c2:22:89:2b:7b:c3, 2015-01-01 01:11:50.780, 0.098, -0.049, 1, -2.075, 0.122, 0, -1.708, -5.641, 126.568, 56.350, -42.924, -12.152, 22.35, 0.45041, 0.03568, -0.03464, 0.89139,
 15:56:54.305,c2:22:89:2b:7b:c3, 2015-01-01 01:11:50.780, 0.099, -0.082, 1, 0.366, -0.549, 0.122, -1.714, -5.647, 126.573, 56.350, -42.924, -12.152, 22.35, 0.45041, 0.03568, -0.03464, 0.89139,
 15:56:54.305,c2:22:89:2b:7b:c3, 2015-01-01 01:11:50.780, 0.085, -0.033, 0.995, 2.502, -0.732, 0, -1.692, -5.652, 126.579, 56.350, -42.924, -12.152, 22.35, 0.45041, 0.03568, -0.03464, 0.89139,
 15:56:54.334,c2:22:89:2b:7b:c3, 2015-01-01 01:11:50.780, 0.142, -0.018, 1.002, 2.014, -1.221, 0, -1.67, -5.663, 126.584, 56.350, -42.924, -12.152, 22.35, 0.45041, 0.03568, -0.03464, 0.89139,
 15:56:54.334,c2:22:89:2b:7b:c3, 2015-01-01 01:11:50.780, 0.119, -0.007, 0.997, 0.427, -1.587, 0.061, -1.659, -5.685, 126.59, 56.350, -42.924, -12.152, 22.35, 0.45041, 0.03568, -0.03464, 0.89139,
 15:56:54.334,c2:22:89:2b:7b:c3, 2015-01-01 01:11:50.780, 0.093, -0.009, 1.016, 0.427, 0.61, -0.122, -1.659, -5.685, 126.59, 56.350, -42.924, -12.152, 22.35, 0.45041, 0.03568, -0.03464, 0.89139,
 15:56:54.334,c2:22:89:2b:7b:c3, 2015-01-01 01:11:50.780, 0.095, 0.003, 1.009, -0.183, 1.099, 0.122, -1.653, -5.674, 126.595, 56.350, -42.924, -12.152, 22.35, 0.45041, 0.03568, -0.03464, 0.89139,
 15:56:54.366,c2:22:89:2b:7b:c3, 2015-01-01 01:11:50.780, 0.134, -0.006, 1.021, -0.854, -0.244, 0, -1.659, -5.674, 126.601, 56.056, -43.120, -11.858, 22.35, 0.45041, 0.03568, -0.03464, 0.89139,
 15:56:54.366,c2:22:89:2b:7b:c3, 2015-01-01 01:11:50.780, 0.103, -0.04, 1.017, -1.221, -0.366, 0, -1.67, -5.68, 126.606, 56.056, -43.120, -11.858, 22.35, 0.45041, 0.03568, -0.03464, 0.89139,
 15:56:54.366,c2:22:89:2b:7b:c3, 2015-01-01 01:11:50.780, 0.088, -0.032, 1.011, -0.183, 1.587, -0.122, -1.67, -5.669, 126.606, 56.056, -43.120, -11.858, 22.35, 0.45041, 0.03568, -0.03464, 0.89139,
 15:56:54.366,c2:22:89:2b:7b:c3, 2015-01-01 01:11:50.780, 0.109, -0.03, 0.997, -0.916, 1.099, 0, -1.675, -5.658, 126.612, 56.056, -43.120, -11.858, 22.35, 0.45041, 0.03568, -0.03464, 0.89139,
 15:56:54.426,c2:22:89:2b:7b:c3, 2015-01-01 01:11:50.780, 0.102, -0.062, 0.993, -2.136, 0, 0.244, -1.692, -5.658, 126.617, 56.056, -43.120, -11.858, 22.35, 0.45041, 0.03568, -0.03464, 0.89139,
 15:56:54.426,c2:22:89:2b:7b:c3, 2015-01-01 01:11:50.780, 0.077, -0.072, 1.002, 0.244, 0.61, -0.061, -1.697, -5.658, 126.617, 56.056, -43.120, -11.858, 22.35, 0.45041, 0.03568, -0.03464, 0.89139,
 15:56:54.426,c2:22:89:2b:7b:c3, 2015-01-01 01:11:50.780, 0.083, -0.04, 0.991, 2.563, 0.305, -0.061, -1.681, -5.652, 126.623, 56.056, -43.120, -11.858, 22.35, 0.45041, 0.03568, -0.03464, 0.89139,
 15:56:54.426,c2:22:89:2b:7b:c3, 2015-01-01 01:11:50.780, 0.165, -0.005, 1.004, 4.089, -2.38, 0, -1.642, -5.669, 126.628, 56.056, -43.120, -11.858, 22.35, 0.45041, 0.03568, -0.03464, 0.89139,
 15:56:54.455,c2:22:89:2b:7b:c3, 2015-01-01 01:11:50.780, 0.111, 0.037, 1.02, 1.953, -0.244, -0.183, -1.615, -5.68, 126.628, 56.056, -43.120, -11.858, 22.35, 0.44916, 0.03741, -0.0354, 0.89191,
 15:56:54.455,c2:22:89:2b:7b:c3, 2015-01-01 01:11:50.780, 0.104, 0.033, 1.023, -1.648, 2.258, 0, -1.62, -5.663, 126.634, 56.056, -43.120, -11.858, 22.35, 0.44916, 0.03741, -0.0354, 0.89191,
 15:56:54.455,c2:22:89:2b:7b:c3, 2015-01-01 01:11:50.780, 0.119, -0.01, 1.015, -4.395, 1.892, 0, -1.653, -5.647, 126.639, 56.056, -43.120, -11.858, 22.35, 0.44916, 0.03741, -0.0354, 0.89191,
 15:56:54.455,c2:22:89:2b:7b:c3, 2015-01-01 01:11:50.780, 0.105, -0.09, 1.029, -4.456, 2.625, 0.305, -1.697, -5.625, 126.645, 56.056, -43.120, -11.858, 22.35, 0.44916, 0.03741, -0.0354, 0.89191,
 15:56:54.484,c2:22:89:2b:7b:c3, 2015-01-01 01:11:50.780, 0.049, -0.108, 1.016, -1.038, 3.174, 0, -1.719, -5.598, 126.645, 56.056, -43.120, -11.858, 22.35, 0.44916, 0.03741, -0.0354, 0.89191,
 15:56:54.484,c2:22:89:2b:7b:c3, 2015-01-01 01:11:50.780, 0.063, -0.069, 0.999, 1.77, 1.77, 0, -1.708, -5.576, 126.65, 56.056, -43.120, -11.858, 22.35, 0.44916, 0.03741, -0.0354, 0.89191,
 15:56:54.484,c2:22:89:2b:7b:c3, 2015-01-01 01:11:50.780, 0.174, -0.041, 0.995, 4.028, -2.563, -0.244, -1.675, -5.592, 126.65, 56.056, -43.120, -11.858, 22.35, 0.44916, 0.03741, -0.0354, 0.89191,
 15:56:54.484,c2:22:89:2b:7b:c3, 2015-01-01 01:11:50.780, 0.136, 0.045, 1.031, 5.676, -3.113, -0.122, -1.62, -5.625, 126.656, 56.056, -43.120, -11.858, 22.35, 0.44916, 0.03741, -0.0354, 0.89191,
 15:56:54.574,c2:22:89:2b:7b:c3, 2015-01-01 01:11:51.140, 0.083, 0.105, 1.016, 2.258, 3.357, 0, -1.582, -5.609, 126.656, 56.056, -43.120, -11.858, 22.35, 0.44916, 0.03741, -0.0354, 0.89191,
 15:56:54.574,c2:22:89:2b:7b:c3, 2015-01-01 01:11:51.140, 0.122, 0.05, 0.956, -6.104, 2.625, 0.305, -1.62, -5.581, 126.661, 56.056, -43.120, -11.858, 22.35, 0.44916, 0.03741, -0.0354, 0.89191,
 15:56:54.574,c2:22:89:2b:7b:c3, 2015-01-01 01:11:51.140, 0.113, -0.082, 0.973, -9.338, 3.54, 0.122, -1.703, -5.554, 126.661, 56.056, -43.120, -11.858, 22.35, 0.44916, 0.03741, -0.0354, 0.89191,
 15:56:54.574,c2:22:89:2b:7b:c3, 2015-01-01 01:11:51.140, 0.033, -0.164, 1.021, -4.333, 4.333, 0.061, -1.758, -5.515, 126.667, 56.056, -43.120, -11.858, 22.35, 0.44916, 0.03741, -0.0354, 0.89191,
 15:56:54.576,c2:22:89:2b:7b:c3, 2015-01-01 01:11:51.140, 0.011, -0.105, 1.018, 2.808, 3.662, -0.122, -1.747, -5.477, 126.672, 56.056, -43.120, -11.858, 22.35, 0.44916, 0.03741, -0.0354, 0.89191,
 15:56:54.576,c2:22:89:2b:7b:c3, 2015-01-01 01:11:51.140, 0.207, -0.033, 1.013, 7.996, -3.601, -0.244, -1.681, -5.493, 126.672, 56.056, -43.120, -11.858, 22.35, 0.44916, 0.03741, -0.0354, 0.89191,
 15:56:54.576,c2:22:89:2b:7b:c3, 2015-01-01 01:11:51.140, 0.185, 0.111, 1.064, 8.423, -6.897, -0.183, -1.593, -5.559, 126.678, 56.056, -43.120, -11.858, 22.35, 0.44916, 0.03741, -0.0354, 0.89191,
 15:56:54.576,c2:22:89:2b:7b:c3, 2015-01-01 01:11:51.140, 0.065, 0.108, 1.057, 1.16, 5.432, -0.183, -1.56, -5.537, 126.678, 56.056, -43.120, -11.858, 22.35, 0.44916, 0.03741, -0.0354, 0.89191,
 15:56:54.637,c2:22:89:2b:7b:c3, 2015-01-01 01:11:51.140, 0.125, 0.034, 0.971, -6.714, 4.272, 0.122, -1.604, -5.488, 126.678, 56.056, -43.120, -11.858, 22.35, 0.44916, 0.03741, -0.0354, 0.89191,
 15:56:54.637,c2:22:89:2b:7b:c3, 2015-01-01 01:11:51.140, 0.06, -0.086, 0.977, -11.963, 5.676, 0.488, -1.708, -5.444, 126.683, 56.056, -43.120, -11.858, 22.35, 0.44916, 0.03741, -0.0354, 0.89191,
 15:56:54.637,c2:22:89:2b:7b:c3, 2015-01-01 01:11:51.140, 0.024, -0.194, 1.034, -3.174, 4.517, 0.122, -1.769, -5.394, 126.683, 56.056, -43.120, -11.858, 22.35, 0.44916, 0.03741, -0.0354, 0.89191,
 15:56:54.637,c2:22:89:2b:7b:c3, 2015-01-01 01:11:51.140, 0.024, -0.075, 1.009, 7.996, 1.404, -0.305, -1.714, -5.372, 126.683, 56.056, -43.120, -11.858, 22.35, 0.44916, 0.03741, -0.0354, 0.89191,
 15:56:54.664,c2:22:89:2b:7b:c3, 2015-01-01 01:11:51.140, 0.251, 0.021, 0.985, 9.583, -4.517, -0.183, -1.62, -5.4, 126.689, 56.056, -43.120, -11.858, 22.35, 0.44916, 0.03741, -0.0354, 0.89191,
 15:56:54.664,c2:22:89:2b:7b:c3, 2015-01-01 01:11:51.140, 0.123, 0.06, 1, 4.7, -2.441, -0.122, -1.549, -5.444, 126.689, 56.056, -43.120, -11.858, 22.35, 0.44916, 0.03741, -0.0354, 0.89191,
 15:56:54.664,c2:22:89:2b:7b:c3, 2015-01-01 01:11:51.140, 0.13, 0.059, 1.039, -4.7, 6.348, 0, -1.571, -5.4, 126.689, 56.056, -43.120, -11.858, 22.35, 0.44916, 0.03741, -0.0354, 0.89191,
 15:56:54.664,c2:22:89:2b:7b:c3, 2015-01-01 01:11:51.140, 0.033, -0.017, 0.959, -9.644, 6.348, 0.244, -1.648, -5.345, 126.694, 56.056, -43.120, -11.858, 22.35, 0.44916, 0.03741, -0.0354, 0.89191,
 15:56:54.694,c2:22:89:2b:7b:c3, 2015-01-01 01:11:51.140, 0.044, -0.128, 1.034, -7.08, 6.165, 0.183, -1.73, -5.284, 126.694, 56.056, -43.120, -11.858, 22.35, 0.44916, 0.03741, -0.0354, 0.89191,
 15:56:54.694,c2:22:89:2b:7b:c3, 2015-01-01 01:11:51.140, 0.034, -0.144, 0.995, 2.808, 0.916, -0.061, -1.73, -5.262, 126.694, 56.056, -43.120, -11.858, 22.35, 0.44916, 0.03741, -0.0354, 0.89191,
 15:56:54.694,c2:22:89:2b:7b:c3, 2015-01-01 01:11:51.140, 0.193, -0.042, 1.007, 9.46, -2.38, -0.366, -1.648, -5.279, 126.7, 56.056, -43.120, -11.858, 22.35, 0.44916, 0.03741, -0.0354, 0.89191,
 15:56:54.694,c2:22:89:2b:7b:c3, 2015-01-01 01:11:51.140, 0.175, 0.1, 1.054, 6.836, -4.028, -0.122, -1.571, -5.317, 126.7, 56.056, -43.120, -11.858, 22.35, 0.44916, 0.03741, -0.0354, 0.89191,
 15:56:54.756,c2:22:89:2b:7b:c3, 2015-01-01 01:11:51.140, 0.091, 0.051, 1.049, -1.709, 5.737, 0.183, -1.566, -5.29, 126.7, 56.252, -42.924, -11.760, 22.35, 0.44916, 0.03741, -0.0354, 0.89191,
 15:56:54.756,c2:22:89:2b:7b:c3, 2015-01-01 01:11:51.140, 0.056, -0.009, 0.982, -4.7, 4.578, 0.122, -1.609, -5.235, 126.705, 56.252, -42.924, -11.760, 22.35, 0.44916, 0.03741, -0.0354, 0.89191,
 15:56:54.756,c2:22:89:2b:7b:c3, 2015-01-01 01:11:51.140, 0.056, -0.064, 1.012, -4.578, 5.676, 0.122, -1.653, -5.18, 126.705, 56.252, -42.924, -11.760, 22.35, 0.44916, 0.03741, -0.0354, 0.89191,
 15:56:54.756,c2:22:89:2b:7b:c3, 2015-01-01 01:11:51.140, 0.105, -0.078, 1.023, 1.526, 1.038, -0.061, -1.653, -5.164, 126.705, 56.252, -42.924, -11.760, 22.35, 0.44916, 0.03741, -0.0354, 0.89191,
 15:56:54.814,c2:22:89:2b:7b:c3, 2015-01-01 01:11:51.140, 0.11, -0.037, 1.008, 3.174, 1.099, -0.183, -1.62, -5.158, 126.705, 56.252, -42.924, -11.760, 22.35, 0.44849, 0.03384, -0.03271, 0.89249,
 15:56:54.814,c2:22:89:2b:7b:c3, 2015-01-01 01:11:51.140, 0.097, -0.027, 0.997, 0.793, 2.014, 0, -1.609, -5.142, 126.711, 56.252, -42.924, -11.760, 22.35, 0.44849, 0.03384, -0.03271, 0.89249,
 15:56:54.814,c2:22:89:2b:7b:c3, 2015-01-01 01:11:51.140, 0.081, -0.022, 0.981, 0.61, 2.747, 0, -1.604, -5.12, 126.711, 56.252, -42.924, -11.760, 22.35, 0.44849, 0.03384, -0.03271, 0.89249,
 15:56:54.814,c2:22:89:2b:7b:c3, 2015-01-01 01:11:51.140, 0.084, -0.004, 0.983, 1.038, 3.174, 0, -1.593, -5.092, 126.711, 56.252, -42.924, -11.760, 22.35, 0.44849, 0.03384, -0.03271, 0.89249,
 15:56:54.814,c2:22:89:2b:7b:c3, 2015-01-01 01:11:51.140, 0.113, -0.002, 1, 0, 2.686, 0, -1.588, -5.065, 126.711, 56.252, -42.924, -11.760, 22.35, 0.44849, 0.03384, -0.03271, 0.89249,
 15:56:54.814,c2:22:89:2b:7b:c3, 2015-01-01 01:11:51.140, 0.119, -0.023, 1.008, -2.014, 2.808, 0.061, -1.599, -5.043, 126.716, 56.252, -42.924, -11.760, 22.35, 0.44849, 0.03384, -0.03271, 0.89249,
 15:56:54.814,c2:22:89:2b:7b:c3, 2015-01-01 01:11:51.140, 0.062, -0.066, 1.007, -2.625, 4.7, 0.061, -1.626, -5.004, 126.716, 56.252, -42.924, -11.760, 22.35, 0.44849, 0.03384, -0.03271, 0.89249,
 15:56:54.814,c2:22:89:2b:7b:c3, 2015-01-01 01:11:51.140, 0.057, -0.05, 1.017, 0.244, 4.761, -0.061, -1.631, -4.955, 126.716, 56.252, -42.924, -11.760, 22.35, 0.44849, 0.03384, -0.03271, 0.89249,
 15:56:54.874,c2:22:89:2b:7b:c3, 2015-01-01 01:11:51.140, 0.095, -0.017, 1.022, 2.014, 1.648, -0.122, -1.615, -4.933, 126.716, 56.252, -42.924, -11.760, 22.35, 0.44849, 0.03384, -0.03271, 0.89249,
 15:56:54.874,c2:22:89:2b:7b:c3, 2015-01-01 01:11:51.140, 0.141, -0.026, 1.019, 2.075, 0.488, -0.183, -1.593, -4.927, 126.716, 56.252, -42.924, -11.760, 22.35, 0.44849, 0.03384, -0.03271, 0.89249,
 15:56:54.874,c2:22:89:2b:7b:c3, 2015-01-01 01:11:51.140, 0.084, -0.02, 0.998, 0.244, 3.479, -0.061, -1.588, -4.905, 126.716, 56.252, -42.924, -11.760, 22.35, 0.44849, 0.03384, -0.03271, 0.89249,
 15:56:54.874,c2:22:89:2b:7b:c3, 2015-01-01 01:11:51.140, 0.056, -0.009, 1.003, -1.465, 5.188, 0.122, -1.599, -4.856, 126.716, 56.252, -42.924, -11.760, 22.35, 0.44849, 0.03384, -0.03271, 0.89249,
 15:56:54.904,c2:22:89:2b:7b:c3, 2015-01-01 01:11:51.495, 0.071, -0.022, 1.006, -0.916, 4.639, 0, -1.615, -4.812, 126.716, 56.252, -42.924, -11.760, 22.35, 0.44849, 0.03384, -0.03271, 0.89249,
 15:56:54.904,c2:22:89:2b:7b:c3, 2015-01-01 01:11:51.495, 0.102, -0.03, 0.994, 0.244, 2.075, -0.061, -1.615, -4.79, 126.722, 56.252, -42.924, -11.760, 22.35, 0.44849, 0.03384, -0.03271, 0.89249,
 15:56:54.904,c2:22:89:2b:7b:c3, 2015-01-01 01:11:51.495, 0.106, -0.037, 1.005, 0.549, 2.93, -0.122, -1.604, -4.763, 126.722, 56.252, -42.924, -11.760, 22.35, 0.44849, 0.03384, -0.03271, 0.89249,
 15:56:54.904,c2:22:89:2b:7b:c3, 2015-01-01 01:11:51.495, 0.084, -0.035, 1.015, -0.488, 3.662, 0, -1.609, -4.73, 126.716, 56.252, -42.924, -11.760, 22.35, 0.44849, 0.03384, -0.03271, 0.89249,
 15:56:54.935,c2:22:89:2b:7b:c3, 2015-01-01 01:11:51.495, 0.044, -0.036, 1.004, -0.671, 4.456, -0.061, -1.615, -4.691, 126.716, 56.252, -42.924, -11.760, 22.35, 0.44849, 0.03384, -0.03271, 0.89249,
 15:56:54.935,c2:22:89:2b:7b:c3, 2015-01-01 01:11:51.495, 0.075, -0.024, 0.993, 1.587, 3.845, -0.122, -1.604, -4.653, 126.716, 56.252, -42.924, -11.760, 22.35, 0.44849, 0.03384, -0.03271, 0.89249,
 15:56:54.935,c2:22:89:2b:7b:c3, 2015-01-01 01:11:51.495, 0.124, -0.001, 0.987, 1.404, 2.014, -0.061, -1.588, -4.631, 126.716, 56.252, -42.924, -11.760, 22.35, 0.44849, 0.03384, -0.03271, 0.89249,
 15:56:54.935,c2:22:89:2b:7b:c3, 2015-01-01 01:11:51.495, 0.104, -0.029, 1.013, -1.465, 2.563, 0.183, -1.593, -4.609, 126.716, 56.252, -42.924, -11.760, 22.35, 0.44849, 0.03384, -0.03271, 0.89249,
 15:56:54.995,c2:22:89:2b:7b:c3, 2015-01-01 01:11:51.495, 0.054, -0.044, 1.021, -1.404, 5.249, 0, -1.609, -4.565, 126.716, 56.252, -42.924, -11.760, 22.35, 0.44849, 0.03384, -0.03271, 0.89249,
 15:56:54.995,c2:22:89:2b:7b:c3, 2015-01-01 01:11:51.495, 0.049, -0.032, 0.995, 0.305, 5.92, -0.122, -1.609, -4.51, 126.716, 56.252, -42.924, -11.760, 22.35, 0.44849, 0.03384, -0.03271, 0.89249,
 15:56:54.995,c2:22:89:2b:7b:c3, 2015-01-01 01:11:51.495, 0.109, -0.015, 1, 1.221, 2.319, 0, -1.599, -4.482, 126.716, 56.252, -42.924, -11.760, 22.35, 0.44849, 0.03384, -0.03271, 0.89249,
 15:56:54.995,c2:22:89:2b:7b:c3, 2015-01-01 01:11:51.495, 0.118, -0.024, 1.031, 0, 1.892, -0.122, -1.593, -4.466, 126.716, 56.252, -42.924, -11.760, 22.35, 0.44849, 0.03384, -0.03271, 0.89249,
 15:56:55.024,c2:22:89:2b:7b:c3, 2015-01-01 01:11:51.495, 0.057, -0.05, 1.017, -1.404, 5.066, 0, -1.604, -4.427, 126.716, 56.252, -42.924, -11.760, 22.35, 0.44849, 0.03384, -0.03271, 0.89249,
 15:56:55.024,c2:22:89:2b:7b:c3, 2015-01-01 01:11:51.495, 0.033, -0.034, 0.979, 0.244, 5.737, 0, -1.609, -4.373, 126.716, 56.252, -42.924, -11.760, 22.35, 0.44849, 0.03384, -0.03271, 0.89249,
 15:56:55.024,c2:22:89:2b:7b:c3, 2015-01-01 01:11:51.495, 0.094, 0.001, 0.995, 1.221, 3.235, 0, -1.599, -4.334, 126.716, 56.252, -42.924, -11.760, 22.35, 0.44849, 0.03384, -0.03271, 0.89249,
 15:56:55.024,c2:22:89:2b:7b:c3, 2015-01-01 01:11:51.495, 0.135, -0.024, 1.022, -0.122, 1.709, -0.061, -1.593, -4.318, 126.711, 56.252, -42.924, -11.760, 22.35, 0.44849, 0.03384, -0.03271, 0.89249,
 15:56:55.054,c2:22:89:2b:7b:c3, 2015-01-01 01:11:51.495, 0.071, -0.057, 1.011, -1.343, 4.578, 0, -1.604, -4.29, 126.711, 56.252, -42.924, -11.760, 22.35, 0.44849, 0.03384, -0.03271, 0.89249,
 15:56:55.054,c2:22:89:2b:7b:c3, 2015-01-01 01:11:51.495, 0.012, -0.038, 0.996, -0.793, 6.958, -0.122, -1.615, -4.224, 126.711, 56.252, -42.924, -11.760, 22.35, 0.44849, 0.03384, -0.03271, 0.89249,
 15:56:55.054,c2:22:89:2b:7b:c3, 2015-01-01 01:11:51.495, 0.081, -0.014, 0.997, 0.854, 4.639, 0, -1.609, -4.175, 126.711, 56.252, -42.924, -11.760, 22.35, 0.44849, 0.03384, -0.03271, 0.89249,
 15:56:55.054,c2:22:89:2b:7b:c3, 2015-01-01 01:11:51.495, 0.117, -0.025, 1, 0.183, 1.404, 0, -1.604, -4.158, 126.711, 56.252, -42.924, -11.760, 22.35, 0.44849, 0.03384, -0.03271, 0.89249,
 15:56:55.114,c2:22:89:2b:7b:c3, 2015-01-01 01:11:51.495, 0.081, -0.048, 1.019, -0.793, 3.967, 0, -1.609, -4.125, 126.711, 56.252, -42.924, -11.760, 22.35, 0.44849, 0.03384, -0.03271, 0.89249,
 15:56:55.114,c2:22:89:2b:7b:c3, 2015-01-01 01:11:51.495, 0.042, -0.045, 1.002, 0, 5.737, 0, -1.609, -4.076, 126.711, 56.252, -42.924, -11.760, 22.35, 0.44849, 0.03384, -0.03271, 0.89249,
 15:56:55.114,c2:22:89:2b:7b:c3, 2015-01-01 01:11:51.495, 0.061, -0.021, 0.991, 1.77, 4.333, 0, -1.599, -4.026, 126.711, 56.252, -42.924, -11.760, 22.35, 0.44849, 0.03384, -0.03271, 0.89249,
 15:56:55.114,c2:22:89:2b:7b:c3, 2015-01-01 01:11:51.495, 0.106, 0, 1.016, 1.465, 2.808, -0.122, -1.582, -3.999, 126.705, 56.252, -42.924, -11.760, 22.35, 0.44849, 0.03384, -0.03271, 0.89249,
 15:56:55.144,c2:22:89:2b:7b:c3, 2015-01-01 01:11:51.495, 0.103, -0.015, 1.023, -1.587, 3.479, -0.244, -1.588, -3.972, 126.705, 56.546, -42.630, -12.152, 22.35, 0.44849, 0.03384, -0.03271, 0.89249,
 15:56:55.144,c2:22:89:2b:7b:c3, 2015-01-01 01:11:51.495, 0.031, -0.068, 0.989, -2.808, 6.165, 0.122, -1.62, -3.922, 126.7, 56.546, -42.630, -12.152, 22.35, 0.44849, 0.03384, -0.03271, 0.89249,
 15:56:55.144,c2:22:89:2b:7b:c3, 2015-01-01 01:11:51.495, 0.026, -0.039, 0.998, 0.916, 6.592, 0, -1.62, -3.856, 126.7, 56.546, -42.630, -12.152, 22.35, 0.44849, 0.03384, -0.03271, 0.89249,
 15:56:55.144,c2:22:89:2b:7b:c3, 2015-01-01 01:11:51.495, 0.104, 0.003, 1.017, 2.014, 3.174, -0.305, -1.599, -3.818, 126.7, 56.546, -42.630, -12.152, 22.35, 0.44849, 0.03384, -0.03271, 0.89249,
 15:56:55.175,c2:22:89:2b:7b:c3, 2015-01-01 01:11:51.495, 0.107, -0.04, 1.017, -1.404, 2.563, 0.061, -1.604, -3.796, 126.694, 56.546, -42.630, -12.152, 22.35, 0.44849, 0.03384, -0.03271, 0.89249,
 15:56:55.175,c2:22:89:2b:7b:c3, 2015-01-01 01:11:51.495, 0.026, -0.065, 1.003, -0.732, 5.31, 0, -1.615, -3.752, 126.694, 56.546, -42.630, -12.152, 22.35, 0.44849, 0.03384, -0.03271, 0.89249,
 15:56:55.175,c2:22:89:2b:7b:c3, 2015-01-01 01:11:51.495, 0.026, -0.014, 0.99, 1.892, 7.019, -0.122, -1.604, -3.686, 126.694, 56.546, -42.630, -12.152, 22.35, 0.44849, 0.03384, -0.03271, 0.89249,
 15:56:55.175,c2:22:89:2b:7b:c3, 2015-01-01 01:11:51.495, 0.109, 0.018, 0.995, 0.977, 3.052, -0.366, -1.588, -3.647, 126.689, 56.546, -42.630, -12.152, 22.35, 0.44849, 0.03384, -0.03271, 0.89249,
 15:56:55.236,c2:22:89:2b:7b:c3, 2015-01-01 01:11:51.495, 0.106, -0.032, 1.016, -2.136, 2.38, 0, -1.599, -3.631, 126.689, 56.546, -42.630, -12.152, 22.35, 0.44867, 0.02231, -0.02676, 0.89294,
 15:56:55.236,c2:22:89:2b:7b:c3, 2015-01-01 01:11:51.495, 0.018, -0.077, 1.013, -1.526, 6.47, 0, -1.62, -3.576, 126.689, 56.546, -42.630, -12.152, 22.35, 0.44867, 0.02231, -0.02676, 0.89294,
 15:56:55.236,c2:22:89:2b:7b:c3, 2015-01-01 01:11:51.495, 0.015, -0.026, 0.983, 1.709, 7.263, -0.061, -1.615, -3.51, 126.683, 56.546, -42.630, -12.152, 22.35, 0.44867, 0.02231, -0.02676, 0.89294,
 15:56:55.236,c2:22:89:2b:7b:c3, 2015-01-01 01:11:51.495, 0.095, 0.016, 0.999, 1.16, 3.296, -0.122, -1.599, -3.466, 126.678, 56.546, -42.630, -12.152, 22.35, 0.44867, 0.02231, -0.02676, 0.89294,
 15:56:55.264,c2:22:89:2b:7b:c3, 2015-01-01 01:11:51.885, 0.115, -0.037, 1.019, -1.465, 2.258, 0, -1.604, -3.45, 126.678, 56.546, -42.630, -12.152, 22.35, 0.44867, 0.02231, -0.02676, 0.89294,
 15:56:55.264,c2:22:89:2b:7b:c3, 2015-01-01 01:11:51.885, 0.025, -0.077, 0.997, -1.221, 5.798, 0, -1.62, -3.4, 126.672, 56.546, -42.630, -12.152, 22.35, 0.44867, 0.02231, -0.02676, 0.89294,
 15:56:55.264,c2:22:89:2b:7b:c3, 2015-01-01 01:11:51.885, 0.008, -0.025, 0.988, 1.587, 7.263, -0.122, -1.609, -3.334, 126.672, 56.546, -42.630, -12.152, 22.35, 0.44867, 0.02231, -0.02676, 0.89294,
 15:56:55.264,c2:22:89:2b:7b:c3, 2015-01-01 01:11:51.885, 0.103, 0.017, 1.019, 2.258, 3.235, -0.244, -1.588, -3.29, 126.667, 56.546, -42.630, -12.152, 22.35, 0.44867, 0.02231, -0.02676, 0.89294,
 15:56:55.295,c2:22:89:2b:7b:c3, 2015-01-01 01:11:51.885, 0.099, -0.028, 1.015, -1.587, 2.869, 0, -1.593, -3.268, 126.667, 56.546, -42.630, -12.152, 22.35, 0.44867, 0.02231, -0.02676, 0.89294,
 15:56:55.295,c2:22:89:2b:7b:c3, 2015-01-01 01:11:51.885, 0.016, -0.068, 1, -2.014, 6.592, 0.183, -1.62, -3.214, 126.661, 56.546, -42.630, -12.152, 22.35, 0.44867, 0.02231, -0.02676, 0.89294,
 15:56:55.295,c2:22:89:2b:7b:c3, 2015-01-01 01:11:51.885, 0.022, -0.031, 0.995, 1.282, 6.897, -0.061, -1.615, -3.148, 126.661, 56.546, -42.630, -12.152, 22.35, 0.44867, 0.02231, -0.02676, 0.89294,
 15:56:55.295,c2:22:89:2b:7b:c3, 2015-01-01 01:11:51.885, 0.077, -0.002, 1.002, 1.221, 3.662, -0.122, -1.599, -3.104, 126.656, 56.546, -42.630, -12.152, 22.35, 0.44867, 0.02231, -0.02676, 0.89294,
 15:56:55.354,c2:22:89:2b:7b:c3, 2015-01-01 01:11:51.885, 0.086, -0.024, 1.022, -0.732, 3.479, -0.122, -1.599, -3.076, 126.65, 56.546, -42.630, -12.152, 22.35, 0.44867, 0.02231, -0.02676, 0.89294,
 15:56:55.354,c2:22:89:2b:7b:c3, 2015-01-01 01:11:51.885, 0.033, -0.052, 0.995, -2.197, 6.104, 0.061, -1.62, -3.027, 126.65, 56.546, -42.630, -12.152, 22.35, 0.44867, 0.02231, -0.02676, 0.89294,
 15:56:55.354,c2:22:89:2b:7b:c3, 2015-01-01 01:11:51.885, 0.012, -0.064, 0.976, -0.061, 6.775, 0, -1.631, -2.961, 126.645, 56.546, -42.630, -12.152, 22.35, 0.44867, 0.02231, -0.02676, 0.89294,
 15:56:55.354,c2:22:89:2b:7b:c3, 2015-01-01 01:11:51.885, 0.073, -0.007, 1.011, 2.747, 3.906, -0.488, -1.609, -2.917, 126.639, 56.546, -42.630, -12.152, 22.35, 0.44867, 0.02231, -0.02676, 0.89294,
 15:56:55.384,c2:22:89:2b:7b:c3, 2015-01-01 01:11:51.885, 0.095, -0.008, 1.034, 0.183, 3.357, 0.061, -1.599, -2.884, 126.639, 56.546, -42.630, -12.152, 22.35, 0.44867, 0.02231, -0.02676, 0.89294,
 15:56:55.384,c2:22:89:2b:7b:c3, 2015-01-01 01:11:51.885, 0.034, -0.06, 0.997, -2.075, 4.944, 0.061, -1.615, -2.845, 126.634, 56.546, -42.630, -12.152, 22.35, 0.44867, 0.02231, -0.02676, 0.89294,
 15:56:55.384,c2:22:89:2b:7b:c3, 2015-01-01 01:11:51.885, -0.002, -0.037, 0.979, 1.038, 7.141, 0, -1.615, -2.78, 126.634, 56.546, -42.630, -12.152, 22.35, 0.44867, 0.02231, -0.02676, 0.89294,
 15:56:55.384,c2:22:89:2b:7b:c3, 2015-01-01 01:11:51.885, 0.079, 0.026, 1.022, 2.075, 4.456, -0.244, -1.593, -2.73, 126.628, 56.546, -42.630, -12.152, 22.35, 0.44867, 0.02231, -0.02676, 0.89294,
 15:56:55.415,c2:22:89:2b:7b:c3, 2015-01-01 01:11:51.885, 0.099, -0.022, 1.021, -1.892, 3.54, -0.061, -1.604, -2.697, 126.623, 56.546, -42.630, -12.152, 22.35, 0.44867, 0.02231, -0.02676, 0.89294,
 15:56:55.415,c2:22:89:2b:7b:c3, 2015-01-01 01:11:51.885, 0.009, -0.082, 0.991, -3.54, 6.592, 0.183, -1.637, -2.642, 126.623, 56.546, -42.630, -12.152, 22.35, 0.44867, 0.02231, -0.02676, 0.89294,
 15:56:55.415,c2:22:89:2b:7b:c3, 2015-01-01 01:11:51.885, -0.026, -0.058, 0.987, 0.61, 8.118, 0, -1.642, -2.565, 126.617, 56.546, -42.630, -12.152, 22.35, 0.44867, 0.02231, -0.02676, 0.89294,
 15:56:55.415,c2:22:89:2b:7b:c3, 2015-01-01 01:11:51.885, 0.064, -0.007, 1.004, 2.625, 4.395, -0.244, -1.62, -2.516, 126.612, 56.546, -42.630, -12.152, 22.35, 0.44867, 0.02231, -0.02676, 0.89294,
 15:56:55.474,c2:22:89:2b:7b:c3, 2015-01-01 01:11:51.885, 0.107, -0.022, 1.02, 0.305, 1.953, 0, -1.609, -2.494, 126.612, 56.546, -42.630, -12.152, 22.35, 0.44867, 0.02231, -0.02676, 0.89294,
 15:56:55.474,c2:22:89:2b:7b:c3, 2015-01-01 01:11:51.885, 0.038, -0.06, 1.005, -1.16, 4.883, 0, -1.62, -2.455, 126.606, 56.546, -42.630, -12.152, 22.35, 0.44867, 0.02231, -0.02676, 0.89294,
 15:56:55.474,c2:22:89:2b:7b:c3, 2015-01-01 01:11:51.885, -0.021, -0.046, 0.977, 0.854, 8.057, 0.061, -1.62, -2.384, 126.601, 56.546, -42.630, -12.152, 22.35, 0.44867, 0.02231, -0.02676, 0.89294,
 15:56:55.474,c2:22:89:2b:7b:c3, 2015-01-01 01:11:51.885, 0.058, 0.03, 1.002, 2.563, 4.883, -0.122, -1.599, -2.329, 126.595, 56.546, -42.630, -12.152, 22.35, 0.44867, 0.02231, -0.02676, 0.89294,
 15:56:55.506,c2:22:89:2b:7b:c3, 2015-01-01 01:11:51.885, 0.098, 0.002, 1.026, -1.709, 2.93, -0.122, -1.599, -2.302, 126.59, 57.428, -42.140, -12.642, 22.35, 0.44867, 0.02231, -0.02676, 0.89294,
 15:56:55.506,c2:22:89:2b:7b:c3, 2015-01-01 01:11:51.885, 0.033, -0.084, 1.001, -3.601, 5.798, 0.122, -1.637, -2.252, 126.59, 57.428, -42.140, -12.642, 22.35, 0.44867, 0.02231, -0.02676, 0.89294,
 15:56:55.506,c2:22:89:2b:7b:c3, 2015-01-01 01:11:51.885, -0.042, -0.075, 0.973, 0, 8.301, 0, -1.648, -2.181, 126.584, 57.428, -42.140, -12.642, 22.35, 0.44867, 0.02231, -0.02676, 0.89294,
 15:56:55.506,c2:22:89:2b:7b:c3, 2015-01-01 01:11:51.885, 0.043, 0.011, 1.019, 3.052, 5.249, -0.305, -1.62, -2.115, 126.579, 57.428, -42.140, -12.642, 22.35, 0.44867, 0.02231, -0.02676, 0.89294,
 15:56:55.535,c2:22:89:2b:7b:c3, 2015-01-01 01:11:51.885, 0.096, -0.007, 1.023, -0.366, 2.38, -0.061, -1.615, -2.087, 126.573, 57.428, -42.140, -12.642, 22.35, 0.44867, 0.02231, -0.02676, 0.89294,
 15:56:55.535,c2:22:89:2b:7b:c3, 2015-01-01 01:11:51.885, 0.039, -0.077, 0.992, -2.136, 4.7, 0.183, -1.637, -2.054, 126.573, 57.428, -42.140, -12.642, 22.35, 0.44867, 0.02231, -0.02676, 0.89294,
 15:56:55.535,c2:22:89:2b:7b:c3, 2015-01-01 01:11:51.885, -0.029, -0.049, 0.986, 1.038, 7.141, 0, -1.637, -1.989, 126.568, 57.428, -42.140, -12.642, 22.35, 0.44867, 0.02231, -0.02676, 0.89294,
 15:56:55.535,c2:22:89:2b:7b:c3, 2015-01-01 01:11:51.885, 0.027, 0.004, 1.007, 2.991, 6.287, -0.244, -1.609, -1.928, 126.562, 57.428, -42.140, -12.642, 22.35, 0.44867, 0.02231, -0.02676, 0.89294,
 15:56:55.595,c2:22:89:2b:7b:c3, 2015-01-01 01:11:51.885, 0.098, 0.021, 1.014, 0.183, 2.747, -0.122, -1.599, -1.895, 126.557, 57.428, -42.140, -12.642, 22.35, 0.44962, 0.00909, -0.02057, 0.89288,
 15:56:55.595,c2:22:89:2b:7b:c3, 2015-01-01 01:11:51.885, 0.043, -0.049, 1.004, -4.456, 4.883, 0.244, -1.631, -1.857, 126.552, 57.428, -42.140, -12.642, 22.35, 0.44962, 0.00909, -0.02057, 0.89288,
 15:56:55.595,c2:22:89:2b:7b:c3, 2015-01-01 01:11:51.885, -0.039, -0.105, 0.983, -2.319, 8.24, 0, -1.664, -1.785, 126.546, 57.428, -42.140, -12.642, 22.35, 0.44962, 0.00909, -0.02057, 0.89288,
 15:56:55.595,c2:22:89:2b:7b:c3, 2015-01-01 01:11:51.885, -0.008, -0.023, 1, 3.723, 6.409, -0.305, -1.642, -1.714, 126.541, 57.428, -42.140, -12.642, 22.35, 0.44962, 0.00909, -0.02057, 0.89288,
 15:56:55.624,c2:22:89:2b:7b:c3, 2015-01-01 01:11:52.240, 0.078, 0.019, 1.027, 2.258, 2.258, -0.244, -1.609, -1.686, 126.535, 57.428, -42.140, -12.642, 22.35, 0.44962, 0.00909, -0.02057, 0.89288,
 15:56:55.624,c2:22:89:2b:7b:c3, 2015-01-01 01:11:52.240, 0.075, -0.048, 1.016, -2.563, 3.662, 0.061, -1.626, -1.653, 126.53, 57.428, -42.140, -12.642, 22.35, 0.44962, 0.00909, -0.02057, 0.89288,
 15:56:55.624,c2:22:89:2b:7b:c3, 2015-01-01 01:11:52.240, -0.019, -0.074, 0.977, -1.16, 6.897, 0.244, -1.648, -1.599, 126.524, 57.428, -42.140, -12.642, 22.35, 0.44962, 0.00909, -0.02057, 0.89288,
 15:56:55.624,c2:22:89:2b:7b:c3, 2015-01-01 01:11:52.240, -0.013, -0.013, 1.009, 2.502, 7.141, 0, -1.631, -1.527, 126.519, 57.428, -42.140, -12.642, 22.35, 0.44962, 0.00909, -0.02057, 0.89288,
 15:56:55.654,c2:22:89:2b:7b:c3, 2015-01-01 01:11:52.240, 0.06, 0.017, 1.015, 1.831, 3.784, -0.244, -1.609, -1.478, 126.513, 57.428, -42.140, -12.642, 22.35, 0.44962, 0.00909, -0.02057, 0.89288,
 15:56:55.654,c2:22:89:2b:7b:c3, 2015-01-01 01:11:52.240, 0.07, -0.015, 0.995, -2.808, 3.967, 0.061, -1.62, -1.445, 126.508, 57.428, -42.140, -12.642, 22.35, 0.44962, 0.00909, -0.02057, 0.89288,
 15:56:55.654,c2:22:89:2b:7b:c3, 2015-01-01 01:11:52.240, -0.012, -0.083, 0.981, -4.395, 7.08, 0.061, -1.664, -1.384, 126.502, 57.428, -42.140, -12.642, 22.35, 0.44962, 0.00909, -0.02057, 0.89288,
 15:56:55.654,c2:22:89:2b:7b:c3, 2015-01-01 01:11:52.240, -0.036, -0.083, 1.005, 0.732, 7.751, -0.244, -1.681, -1.307, 126.497, 57.428, -42.140, -12.642, 22.35, 0.44962, 0.00909, -0.02057, 0.89288,
 15:56:55.714,c2:22:89:2b:7b:c3, 2015-01-01 01:11:52.240, 0.024, -0.014, 1.021, 3.906, 4.211, -0.183, -1.642, -1.258, 126.491, 57.428, -42.140, -12.642, 22.35, 0.44962, 0.00909, -0.02057, 0.89288,
 15:56:55.714,c2:22:89:2b:7b:c3, 2015-01-01 01:11:52.240, 0.072, 0.017, 1.013, 1.16, 2.319, -0.244, -1.62, -1.23, 126.486, 57.428, -42.140, -12.642, 22.35, 0.44962, 0.00909, -0.02057, 0.89288,
 15:56:55.714,c2:22:89:2b:7b:c3, 2015-01-01 01:11:52.240, 0.036, -0.062, 0.98, -2.014, 4.089, 0, -1.637, -1.203, 126.48, 57.428, -42.140, -12.642, 22.35, 0.44962, 0.00909, -0.02057, 0.89288,
 15:56:55.714,c2:22:89:2b:7b:c3, 2015-01-01 01:11:52.240, -0.023, -0.065, 0.997, -0.122, 8.118, 0.122, -1.648, -1.132, 126.475, 57.428, -42.140, -12.642, 22.35, 0.44962, 0.00909, -0.02057, 0.89288,
 15:56:55.745,c2:22:89:2b:7b:c3, 2015-01-01 01:11:52.240, -0.01, 0.014, 1.017, 2.014, 6.226, -0.244, -1.631, -1.066, 126.464, 57.428, -42.140, -12.642, 22.35, 0.44962, 0.00909, -0.02057, 0.89288,
 15:56:55.745,c2:22:89:2b:7b:c3, 2015-01-01 01:11:52.240, 0.055, 0.016, 0.995, -0.732, 4.333, -0.244, -1.631, -1.022, 126.458, 57.428, -42.140, -12.642, 22.35, 0.44962, 0.00909, -0.02057, 0.89288,
 15:56:55.745,c2:22:89:2b:7b:c3, 2015-01-01 01:11:52.240, 0.049, -0.065, 0.988, -2.869, 4.272, -0.061, -1.659, -0.983, 126.453, 57.428, -42.140, -12.642, 22.35, 0.44962, 0.00909, -0.02057, 0.89288,
 15:56:55.745,c2:22:89:2b:7b:c3, 2015-01-01 01:11:52.240, -0.028, -0.081, 1.004, -1.77, 7.385, 0.244, -1.681, -0.923, 126.447, 57.428, -42.140, -12.642, 22.35, 0.44962, 0.00909, -0.02057, 0.89288,
 15:56:55.776,c2:22:89:2b:7b:c3, 2015-01-01 01:11:52.240, -0.033, -0.053, 1.023, 1.587, 7.019, -0.061, -1.675, -0.846, 126.442, 57.428, -42.140, -12.642, 22.35, 0.44962, 0.00909, -0.02057, 0.89288,
 15:56:55.776,c2:22:89:2b:7b:c3, 2015-01-01 01:11:52.240, 0.013, 0.003, 0.98, 3.174, 3.845, -0.183, -1.648, -0.802, 126.436, 57.428, -42.140, -12.642, 22.35, 0.44962, 0.00909, -0.02057, 0.89288,
 15:56:55.776,c2:22:89:2b:7b:c3, 2015-01-01 01:11:52.240, 0.066, -0.018, 0.986, 1.221, 1.465, -0.122, -1.631, -0.786, 126.425, 57.428, -42.140, -12.642, 22.35, 0.44962, 0.00909, -0.02057, 0.89288,
 15:56:55.776,c2:22:89:2b:7b:c3, 2015-01-01 01:11:52.240, 0.039, -0.033, 1.002, -0.549, 4.822, 0, -1.637, -0.753, 126.42, 57.428, -42.140, -12.642, 22.35, 0.44962, 0.00909, -0.02057, 0.89288,
 15:56:55.835,c2:22:89:2b:7b:c3, 2015-01-01 01:11:52.240, -0.018, -0.038, 1.018, -1.709, 8.179, 0, -1.653, -0.681, 126.414, 57.428, -42.140, -12.642, 22.35, 0.44962, 0.00909, -0.02057, 0.89288,
 15:56:55.835,c2:22:89:2b:7b:c3, 2015-01-01 01:11:52.240, -0.049, -0.028, 0.99, -2.625, 7.385, 0.061, -1.675, -0.604, 126.409, 57.428, -42.140, -12.642, 22.35, 0.44962, 0.00909, -0.02057, 0.89288,
 15:56:55.835,c2:22:89:2b:7b:c3, 2015-01-01 01:11:52.240, 0.001, -0.058, 0.978, -0.427, 5.005, 0, -1.692, -0.549, 126.403, 57.428, -42.140, -12.642, 22.35, 0.44962, 0.00909, -0.02057, 0.89288,
 15:56:55.835,c2:22:89:2b:7b:c3, 2015-01-01 01:11:52.240, 0.047, -0.041, 1.004, 2.625, 2.075, 0, -1.67, -0.527, 126.398, 57.428, -42.140, -12.642, 22.35, 0.44962, 0.00909, -0.02057, 0.89288,
 15:56:55.864,c2:22:89:2b:7b:c3, 2015-01-01 01:11:52.240, 0.036, -0.024, 1.029, 2.258, 3.723, -0.061, -1.648, -0.494, 126.392, 58.310, -41.650, -13.426, 22.35, 0.44962, 0.00909, -0.02057, 0.89288,
 15:56:55.864,c2:22:89:2b:7b:c3, 2015-01-01 01:11:52.240, -0.008, -0.026, 1.007, -0.916, 6.409, 0, -1.648, -0.439, 126.381, 58.310, -41.650, -13.426, 22.35, 0.44962, 0.00909, -0.02057, 0.89288,
 15:56:55.864,c2:22:89:2b:7b:c3, 2015-01-01 01:11:52.240, -0.03, -0.032, 0.98, -2.136, 7.019, 0.061, -1.67, -0.374, 126.376, 58.310, -41.650, -13.426, 22.35, 0.44962, 0.00909, -0.02057, 0.89288,
 15:56:55.864,c2:22:89:2b:7b:c3, 2015-01-01 01:11:52.240, -0.002, -0.044, 0.993, -0.366, 4.883, 0, -1.681, -0.319, 126.37, 58.310, -41.650, -13.426, 22.35, 0.44962, 0.00909, -0.02057, 0.89288,
 15:56:55.894,c2:22:89:2b:7b:c3, 2015-01-01 01:11:52.240, 0.016, -0.033, 1.016, 1.587, 3.784, -0.122, -1.67, -0.28, 126.365, 58.310, -41.650, -13.426, 22.35, 0.44962, 0.00909, -0.02057, 0.89288,
 15:56:55.894,c2:22:89:2b:7b:c3, 2015-01-01 01:11:52.240, 0.016, -0.016, 1.004, 1.099, 4.028, -0.122, -1.659, -0.247, 126.359, 58.310, -41.650, -13.426, 22.35, 0.44962, 0.00909, -0.02057, 0.89288,
 15:56:55.894,c2:22:89:2b:7b:c3, 2015-01-01 01:11:52.240, 0.016, -0.016, 0.981, -1.587, 5.249, 0.061, -1.664, -0.198, 126.348, 58.310, -41.650, -13.426, 22.35, 0.44962, 0.00909, -0.02057, 0.89288,
 15:56:55.894,c2:22:89:2b:7b:c3, 2015-01-01 01:11:52.240, -0.024, -0.069, 0.994, -3.662, 6.836, 0, -1.703, -0.132, 126.343, 58.310, -41.650, -13.426, 22.35, 0.44962, 0.00909, -0.02057, 0.89288,
 15:56:55.955,c2:22:89:2b:7b:c3, 2015-01-01 01:11:52.240, -0.049, -0.085, 1.017, -0.122, 6.531, 0, -1.714, -0.071, 126.337, 58.310, -41.650, -13.426, 22.35, 0.45117, -0.005, -0.01376, 0.89224,
 15:56:55.955,c2:22:89:2b:7b:c3, 2015-01-01 01:11:52.240, -0.037, -0.014, 0.98, 4.089, 4.089, -0.061, -1.686, -0.022, 126.332, 58.310, -41.650, -13.426, 22.35, 0.45117, -0.005, -0.01376, 0.89224,
 15:56:55.955,c2:22:89:2b:7b:c3, 2015-01-01 01:11:52.240, 0.046, -0.001, 0.987, 3.113, 1.709, -0.244, -1.653, 0, 126.321, 58.310, -41.650, -13.426, 22.35, 0.45117, -0.005, -0.01376, 0.89224,
 15:56:55.955,c2:22:89:2b:7b:c3, 2015-01-01 01:11:52.240, 0.086, -0.001, 1.003, 1.526, 1.526, -0.122, -1.637, 0.005, 126.315, 58.310, -41.650, -13.426, 22.35, 0.45117, -0.005, -0.01376, 0.89224,
 15:56:55.985,c2:22:89:2b:7b:c3, 2015-01-01 01:11:52.240, -0.015, -0.023, 1.023, -2.991, 7.141, 0, -1.653, 0.055, 126.31, 58.310, -41.650, -13.426, 22.35, 0.45117, -0.005, -0.01376, 0.89224,
 15:56:55.985,c2:22:89:2b:7b:c3, 2015-01-01 01:11:52.240, -0.09, -0.048, 0.998, -5.432, 10.925, 0.122, -1.708, 0.154, 126.304, 58.310, -41.650, -13.426, 22.35, 0.45117, -0.005, -0.01376, 0.89224,
 15:56:55.985,c2:22:89:2b:7b:c3, 2015-01-01 01:11:52.240, -0.066, -0.077, 0.962, -3.967, 7.263, 0.061, -1.752, 0.242, 126.293, 58.310, -41.650, -13.426, 22.35, 0.45117, -0.005, -0.01376, 0.89224,
 15:56:55.985,c2:22:89:2b:7b:c3, 2015-01-01 01:11:52.240, 0.004, -0.09, 0.97, 1.587, 1.77, -0.061, -1.758, 0.269, 126.288, 58.310, -41.650, -13.426, 22.35, 0.45117, -0.005, -0.01376, 0.89224,
 15:56:56.014,c2:22:89:2b:7b:c3, 2015-01-01 01:11:52.630, 0.02, -0.058, 1.021, 6.958, 0.732, -0.305, -1.703, 0.275, 126.282, 58.310, -41.650, -13.426, 22.35, 0.45117, -0.005, -0.01376, 0.89224,
 15:56:56.014,c2:22:89:2b:7b:c3, 2015-01-01 01:11:52.630, 0.027, 0.036, 1.02, 7.08, 2.075, -0.488, -1.631, 0.291, 126.277, 58.310, -41.650, -13.426, 22.35, 0.45117, -0.005, -0.01376, 0.89224,
 15:56:56.014,c2:22:89:2b:7b:c3, 2015-01-01 01:11:52.630, 0.037, 0.068, 0.994, -0.366, 3.906, -0.183, -1.615, 0.324, 126.266, 58.310, -41.650, -13.426, 22.35, 0.45117, -0.005, -0.01376, 0.89224,
 15:56:56.014,c2:22:89:2b:7b:c3, 2015-01-01 01:11:52.630, 0, -0.01, 0.995, -7.446, 7.69, 0.244, -1.67, 0.39, 126.26, 58.310, -41.650, -13.426, 22.35, 0.45117, -0.005, -0.01376, 0.89224,
 15:56:56.074,c2:22:89:2b:7b:c3, 2015-01-01 01:11:52.630, -0.075, -0.095, 1.013, -7.935, 9.888, 0.244, -1.752, 0.478, 126.255, 58.310, -41.650, -13.426, 22.35, 0.45117, -0.005, -0.01376, 0.89224,
 15:56:56.074,c2:22:89:2b:7b:c3, 2015-01-01 01:11:52.630, -0.092, -0.114, 0.981, -1.77, 7.446, 0, -1.791, 0.56, 126.249, 58.310, -41.650, -13.426, 22.35, 0.45117, -0.005, -0.01376, 0.89224,
 15:56:56.074,c2:22:89:2b:7b:c3, 2015-01-01 01:11:52.630, -0.042, -0.08, 0.964, 4.089, 2.747, -0.183, -1.769, 0.599, 126.244, 58.310, -41.650, -13.426, 22.35, 0.45117, -0.005, -0.01376, 0.89224,
 15:56:56.074,c2:22:89:2b:7b:c3, 2015-01-01 01:11:52.630, 0.057, -0.016, 1, 8.484, -1.892, -0.427, -1.697, 0.588, 126.233, 58.310, -41.650, -13.426, 22.35, 0.45117, -0.005, -0.01376, 0.89224,
 15:56:56.104,c2:22:89:2b:7b:c3, 2015-01-01 01:11:52.630, 0.066, 0.043, 1.032, 5.981, -0.61, -0.366, -1.631, 0.577, 126.227, 58.310, -41.650, -13.426, 22.35, 0.45117, -0.005, -0.01376, 0.89224,
 15:56:56.104,c2:22:89:2b:7b:c3, 2015-01-01 01:11:52.630, 0.01, 0.051, 1.018, -0.549, 5.676, -0.122, -1.615, 0.615, 126.216, 58.310, -41.650, -13.426, 22.35, 0.45117, -0.005, -0.01376, 0.89224,
 15:56:56.104,c2:22:89:2b:7b:c3, 2015-01-01 01:11:52.630, -0.053, 0.021, 0.98, -7.141, 9.949, 0.061, -1.67, 0.703, 126.211, 58.310, -41.650, -13.426, 22.35, 0.45117, -0.005, -0.01376, 0.89224,
 15:56:56.104,c2:22:89:2b:7b:c3, 2015-01-01 01:11:52.630, -0.052, -0.076, 0.989, -10.193, 9.521, 0.244, -1.769, 0.797, 126.205, 58.310, -41.650, -13.426, 22.35, 0.45117, -0.005, -0.01376, 0.89224,
 15:56:56.165,c2:22:89:2b:7b:c3, 2015-01-01 01:11:52.630, -0.053, -0.174, 0.997, -4.211, 5.981, 0.061, -1.829, 0.868, 126.194, 58.310, -41.650, -13.426, 22.35, 0.45117, -0.005, -0.01376, 0.89224,
 15:56:56.165,c2:22:89:2b:7b:c3, 2015-01-01 01:11:52.630, -0.09, -0.131, 0.985, 4.395, 3.174, -0.183, -1.818, 0.901, 126.189, 58.310, -41.650, -13.426, 22.35, 0.45117, -0.005, -0.01376, 0.89224,
 15:56:56.165,c2:22:89:2b:7b:c3, 2015-01-01 01:11:52.630, -0.005, -0.016, 0.99, 9.888, 0, -0.244, -1.73, 0.912, 126.183, 58.310, -41.650, -13.426, 22.35, 0.45117, -0.005, -0.01376, 0.89224,
 15:56:56.165,c2:22:89:2b:7b:c3, 2015-01-01 01:11:52.630, 0.1, 0.049, 0.996, 7.751, -3.235, -0.244, -1.648, 0.89, 126.178, 58.310, -41.650, -13.426, 22.35, 0.45117, -0.005, -0.01376, 0.89224,
 15:56:56.196,c2:22:89:2b:7b:c3, 2015-01-01 01:11:52.630, 0.028, 0.037, 1.015, 1.77, 1.282, 0.122, -1.62, 0.884, 126.172, 58.310, -41.650, -13.426, 22.35, 0.45117, -0.005, -0.01376, 0.89224,
 15:56:56.196,c2:22:89:2b:7b:c3, 2015-01-01 01:11:52.630, -0.043, 0.057, 1.021, -2.808, 9.033, -0.122, -1.637, 0.956, 126.161, 58.310, -41.650, -13.426, 22.35, 0.45117, -0.005, -0.01376, 0.89224,
 15:56:56.196,c2:22:89:2b:7b:c3, 2015-01-01 01:11:52.630, -0.071, 0.019, 0.969, -9.766, 10.498, 0.244, -1.714, 1.06, 126.156, 58.310, -41.650, -13.426, 22.35, 0.45117, -0.005, -0.01376, 0.89224,
 15:56:56.196,c2:22:89:2b:7b:c3, 2015-01-01 01:11:52.630, -0.061, -0.136, 0.98, -9.766, 6.592, 0.305, -1.813, 1.137, 126.145, 58.310, -41.650, -13.426, 22.35, 0.45117, -0.005, -0.01376, 0.89224,
 15:56:56.227,c2:22:89:2b:7b:c3, 2015-01-01 01:11:52.630, -0.071, -0.172, 0.989, -0.366, 4.272, -0.061, -1.846, 1.181, 126.14, 59.388, -41.356, -14.014, 22.35, 0.45117, -0.005, -0.01376, 0.89224,
 15:56:56.227,c2:22:89:2b:7b:c3, 2015-01-01 01:11:52.630, -0.05, -0.098, 0.993, 6.104, 2.502, -0.183, -1.802, 1.214, 126.134, 59.388, -41.356, -14.014, 22.35, 0.45117, -0.005, -0.01376, 0.89224,
 15:56:56.227,c2:22:89:2b:7b:c3, 2015-01-01 01:11:52.630, 0.014, -0.031, 0.987, 8.423, -1.465, -0.183, -1.73, 1.208, 126.129, 59.388, -41.356, -14.014, 22.35, 0.45117, -0.005, -0.01376, 0.89224,
 15:56:56.227,c2:22:89:2b:7b:c3, 2015-01-01 01:11:52.630, 0.043, 0.034, 1.019, 6.653, -1.648, -0.183, -1.659, 1.192, 126.123, 59.388, -41.356, -14.014, 22.35, 0.45117, -0.005, -0.01376, 0.89224,
 15:56:56.284,c2:22:89:2b:7b:c3, 2015-01-01 01:11:52.630, 0.013, 0.062, 1.019, 1.221, 3.662, -0.061, -1.637, 1.214, 126.112, 59.388, -41.356, -14.014, 22.35, 0.45117, -0.005, -0.01376, 0.89224,
 15:56:56.284,c2:22:89:2b:7b:c3, 2015-01-01 01:11:52.630, -0.033, 0.039, 0.998, -4.761, 7.08, 0.122, -1.67, 1.274, 126.107, 59.388, -41.356, -14.014, 22.35, 0.45117, -0.005, -0.01376, 0.89224,
 15:56:56.284,c2:22:89:2b:7b:c3, 2015-01-01 01:11:52.630, -0.083, -0.024, 0.982, -7.874, 8.179, 0.244, -1.741, 1.351, 126.101, 59.388, -41.356, -14.014, 22.35, 0.45117, -0.005, -0.01376, 0.89224,
 15:56:56.284,c2:22:89:2b:7b:c3, 2015-01-01 01:11:52.630, -0.055, -0.099, 0.995, -5.066, 6.226, 0.183, -1.802, 1.423, 126.096, 59.388, -41.356, -14.014, 22.35, 0.45117, -0.005, -0.01376, 0.89224,
 15:56:56.315,c2:22:89:2b:7b:c3, 2015-01-01 01:11:52.630, -0.054, -0.103, 0.986, 0.488, 2.319, 0, -1.813, 1.45, 126.09, 59.388, -41.356, -14.014, 22.35, 0.45291, -0.01697, -0.00803, 0.8913,
 15:56:56.315,c2:22:89:2b:7b:c3, 2015-01-01 01:11:52.630, -0.037, -0.071, 1.008, 4.944, 1.587, -0.366, -1.774, 1.472, 126.079, 59.388, -41.356, -14.014, 22.35, 0.45291, -0.01697, -0.00803, 0.8913,
 15:56:56.315,c2:22:89:2b:7b:c3, 2015-01-01 01:11:52.630, 0.005, 0, 0.994, 5.737, 0.305, -0.244, -1.714, 1.478, 126.074, 59.388, -41.356, -14.014, 22.35, 0.45291, -0.01697, -0.00803, 0.8913,
 15:56:56.315,c2:22:89:2b:7b:c3, 2015-01-01 01:11:52.630, 0.003, 0.015, 0.978, 0.671, 2.136, -0.183, -1.697, 1.494, 126.068, 59.388, -41.356, -14.014, 22.35, 0.45291, -0.01697, -0.00803, 0.8913,
 15:56:56.345,c2:22:89:2b:7b:c3, 2015-01-01 01:11:52.630, -0.027, -0.015, 0.99, -2.869, 4.333, 0, -1.719, 1.527, 126.057, 59.388, -41.356, -14.014, 22.35, 0.45291, -0.01697, -0.00803, 0.8913,
 15:56:56.345,c2:22:89:2b:7b:c3, 2015-01-01 01:11:52.630, -0.088, -0.034, 0.986, -4.028, 6.897, 0.183, -1.758, 1.593, 126.052, 59.388, -41.356, -14.014, 22.35, 0.45291, -0.01697, -0.00803, 0.8913,
 15:56:56.345,c2:22:89:2b:7b:c3, 2015-01-01 01:11:52.630, -0.06, -0.068, 0.982, -3.052, 5.31, 0.122, -1.791, 1.648, 126.046, 59.388, -41.356, -14.014, 22.35, 0.45291, -0.01697, -0.00803, 0.8913,
 15:56:56.345,c2:22:89:2b:7b:c3, 2015-01-01 01:11:52.630, -0.03, -0.081, 0.984, -0.122, 1.404, 0.122, -1.802, 1.67, 126.041, 59.388, -41.356, -14.014, 22.35, 0.45291, -0.01697, -0.00803, 0.8913,
 15:56:56.404,c2:22:89:2b:7b:c3, 2015-01-01 01:11:52.985, -0.028, -0.08, 1.014, 3.662, 1.038, -0.061, -1.78, 1.681, 126.035, 59.388, -41.356, -14.014, 22.35, 0.45291, -0.01697, -0.00803, 0.8913,
 15:56:56.404,c2:22:89:2b:7b:c3, 2015-01-01 01:11:52.985, -0.027, -0.013, 1.012, 5.188, 1.77, -0.183, -1.736, 1.697, 126.024, 59.388, -41.356, -14.014, 22.35, 0.45291, -0.01697, -0.00803, 0.8913,
 15:56:56.404,c2:22:89:2b:7b:c3, 2015-01-01 01:11:52.985, -0.003, 0.029, 0.996, 1.587, 1.892, -0.061, -1.708, 1.719, 126.019, 59.388, -41.356, -14.014, 22.35, 0.45291, -0.01697, -0.00803, 0.8913,
 15:56:56.404,c2:22:89:2b:7b:c3, 2015-01-01 01:11:52.985, -0.01, -0.006, 1, -2.258, 2.93, 0.122, -1.725, 1.741, 126.013, 59.388, -41.356, -14.014, 22.35, 0.45291, -0.01697, -0.00803, 0.8913,
 15:56:56.465,c2:22:89:2b:7b:c3, 2015-01-01 01:11:52.985, -0.069, -0.037, 0.997, -2.808, 5.859, 0.122, -1.752, 1.791, 126.008, 59.388, -41.356, -14.014, 22.35, 0.45291, -0.01697, -0.00803, 0.8913,
 15:56:56.465,c2:22:89:2b:7b:c3, 2015-01-01 01:11:52.985, -0.069, -0.045, 0.993, -3.113, 5.676, 0.061, -1.785, 1.851, 126.002, 59.388, -41.356, -14.014, 22.35, 0.45291, -0.01697, -0.00803, 0.8913,
 15:56:56.465,c2:22:89:2b:7b:c3, 2015-01-01 01:11:52.985, -0.052, -0.06, 0.986, -0.854, 2.197, 0, -1.796, 1.884, 125.991, 59.388, -41.356, -14.014, 22.35, 0.45291, -0.01697, -0.00803, 0.8913,
 15:56:56.465,c2:22:89:2b:7b:c3, 2015-01-01 01:11:52.985, -0.021, -0.071, 0.988, 2.319, 0.977, -0.122, -1.791, 1.895, 125.986, 59.388, -41.356, -14.014, 22.35, 0.45291, -0.01697, -0.00803, 0.8913,
 15:56:56.465,c2:22:89:2b:7b:c3, 2015-01-01 01:11:52.985, -0.03, -0.033, 0.991, 2.869, 1.526, 0.122, -1.763, 1.906, 125.98, 59.388, -41.356, -14.014, 22.35, 0.45291, -0.01697, -0.00803, 0.8913,
 15:56:56.465,c2:22:89:2b:7b:c3, 2015-01-01 01:11:52.985, -0.042, -0.002, 1.007, 1.099, 1.831, -0.122, -1.747, 1.928, 125.975, 59.388, -41.356, -14.014, 22.35, 0.45291, -0.01697, -0.00803, 0.8913,
 15:56:56.465,c2:22:89:2b:7b:c3, 2015-01-01 01:11:52.985, -0.034, -0.005, 0.984, -0.305, 2.869, 0, -1.747, 1.95, 125.964, 59.388, -41.356, -14.014, 22.35, 0.45291, -0.01697, -0.00803, 0.8913,
 15:56:56.465,c2:22:89:2b:7b:c3, 2015-01-01 01:11:52.985, -0.036, -0.032, 0.97, -1.648, 3.479, -0.061, -1.763, 1.983, 125.958, 59.388, -41.356, -14.014, 22.35, 0.45291, -0.01697, -0.00803, 0.8913,
 15:56:56.524,c2:22:89:2b:7b:c3, 2015-01-01 01:11:52.985, -0.063, -0.045, 0.992, -2.38, 2.991, 0, -1.785, 2.016, 125.953, 59.388, -41.356, -14.014, 22.35, 0.45291, -0.01697, -0.00803, 0.8913,
 15:56:56.524,c2:22:89:2b:7b:c3, 2015-01-01 01:11:52.985, -0.057, -0.05, 1.001, -0.244, 2.625, -0.244, -1.796, 2.043, 125.942, 59.388, -41.356, -14.014, 22.35, 0.45291, -0.01697, -0.00803, 0.8913,
 15:56:56.524,c2:22:89:2b:7b:c3, 2015-01-01 01:11:52.985, -0.032, -0.05, 0.981, 1.099, 1.77, -0.061, -1.791, 2.065, 125.936, 59.388, -41.356, -14.014, 22.35, 0.45291, -0.01697, -0.00803, 0.8913,
 15:56:56.524,c2:22:89:2b:7b:c3, 2015-01-01 01:11:52.985, -0.034, -0.036, 0.998, 1.16, 0.732, -0.061, -1.78, 2.076, 125.931, 59.388, -41.356, -14.014, 22.35, 0.45291, -0.01697, -0.00803, 0.8913,
 15:56:56.586,c2:22:89:2b:7b:c3, 2015-01-01 01:11:52.985, -0.03, -0.024, 1.02, 1.709, 1.282, -0.061, -1.763, 2.093, 125.925, 59.388, -41.356, -14.014, 22.35, 0.45291, -0.01697, -0.00803, 0.8913,
 15:56:56.586,c2:22:89:2b:7b:c3, 2015-01-01 01:11:52.985, -0.04, -0.01, 1.005, 0.366, 2.93, -0.061, -1.758, 2.115, 125.914, 59.388, -41.356, -14.014, 22.35, 0.45291, -0.01697, -0.00803, 0.8913,
 15:56:56.586,c2:22:89:2b:7b:c3, 2015-01-01 01:11:52.985, -0.045, -0.014, 0.995, -1.587, 2.563, 0, -1.769, 2.142, 125.909, 59.388, -41.356, -14.014, 22.35, 0.45291, -0.01697, -0.00803, 0.8913,
 15:56:56.586,c2:22:89:2b:7b:c3, 2015-01-01 01:11:52.985, -0.046, -0.045, 0.998, -2.075, 2.869, 0.122, -1.791, 2.17, 125.903, 59.388, -41.356, -14.014, 22.35, 0.45291, -0.01697, -0.00803, 0.8913,
 15:56:56.586,c2:22:89:2b:7b:c3, 2015-01-01 01:11:52.985, -0.053, -0.057, 0.99, -0.671, 2.808, 0, -1.802, 2.197, 125.898, 59.388, -41.356, -14.014, 22.35, 0.45291, -0.01697, -0.00803, 0.8913,
 15:56:56.586,c2:22:89:2b:7b:c3, 2015-01-01 01:11:52.985, -0.051, -0.05, 0.995, -0.427, 2.258, -0.122, -1.807, 2.225, 125.887, 59.388, -41.356, -14.014, 22.35, 0.45291, -0.01697, -0.00803, 0.8913,
 15:56:56.586,c2:22:89:2b:7b:c3, 2015-01-01 01:11:52.985, -0.043, -0.062, 0.989, -0.244, 1.831, 0.122, -1.813, 2.241, 125.881, 59.388, -41.356, -14.014, 22.35, 0.45291, -0.01697, -0.00803, 0.8913,
 15:56:56.586,c2:22:89:2b:7b:c3, 2015-01-01 01:11:52.985, -0.058, -0.065, 0.982, -0.061, 2.258, -0.061, -1.818, 2.263, 125.876, 59.388, -41.356, -14.014, 22.35, 0.45291, -0.01697, -0.00803, 0.8913,
 15:56:56.645,c2:22:89:2b:7b:c3, 2015-01-01 01:11:52.985, -0.071, -0.055, 0.979, 1.221, 1.526, -0.061, -1.813, 2.28, 125.87, 60.074, -41.160, -14.504, 22.35, 0.45291, -0.01697, -0.00803, 0.8913,
 15:56:56.645,c2:22:89:2b:7b:c3, 2015-01-01 01:11:52.985, -0.039, -0.014, 0.984, 2.441, 0.244, -0.061, -1.796, 2.291, 125.865, 60.074, -41.160, -14.504, 22.35, 0.45291, -0.01697, -0.00803, 0.8913,
 15:56:56.645,c2:22:89:2b:7b:c3, 2015-01-01 01:11:52.985, -0.021, -0.014, 0.985, 1.831, 0.061, -0.061, -1.78, 2.291, 125.859, 60.074, -41.160, -14.504, 22.35, 0.45291, -0.01697, -0.00803, 0.8913,
 15:56:56.645,c2:22:89:2b:7b:c3, 2015-01-01 01:11:52.985, -0.025, -0.005, 1.001, 0.671, 0.61, 0, -1.769, 2.296, 125.854, 60.074, -41.160, -14.504, 22.35, 0.45291, -0.01697, -0.00803, 0.8913,
 15:56:56.676,c2:22:89:2b:7b:c3, 2015-01-01 01:11:52.985, -0.06, -0.003, 1.001, -0.793, 2.563, 0, -1.774, 2.318, 125.843, 60.074, -41.160, -14.504, 22.35, 0.45474, -0.02524, -0.00455, 0.8902,
 15:56:56.676,c2:22:89:2b:7b:c3, 2015-01-01 01:11:52.985, -0.044, -0.017, 0.999, -2.319, 3.052, 0.061, -1.791, 2.351, 125.837, 60.074, -41.160, -14.504, 22.35, 0.45474, -0.02524, -0.00455, 0.8902,
 15:56:56.676,c2:22:89:2b:7b:c3, 2015-01-01 01:11:52.985, -0.062, -0.044, 0.99, -2.441, 1.648, 0, -1.818, 2.368, 125.832, 60.074, -41.160, -14.504, 22.35, 0.45474, -0.02524, -0.00455, 0.8902,
 15:56:56.676,c2:22:89:2b:7b:c3, 2015-01-01 01:11:52.985, -0.055, -0.072, 1.003, -0.366, 2.258, 0.061, -1.829, 2.39, 125.826, 60.074, -41.160, -14.504, 22.35, 0.45474, -0.02524, -0.00455, 0.8902,
 15:56:56.705,c2:22:89:2b:7b:c3, 2015-01-01 01:11:52.985, -0.048, -0.051, 0.984, 1.526, 0.488, -0.183, -1.824, 2.401, 125.815, 60.074, -41.160, -14.504, 22.35, 0.45474, -0.02524, -0.00455, 0.8902,
 15:56:56.705,c2:22:89:2b:7b:c3, 2015-01-01 01:11:52.985, -0.053, -0.036, 0.994, 0.977, 0.183, 0, -1.813, 2.406, 125.81, 60.074, -41.160, -14.504, 22.35, 0.45474, -0.02524, -0.00455, 0.8902,
 15:56:56.705,c2:22:89:2b:7b:c3, 2015-01-01 01:11:52.985, -0.04, -0.021, 0.997, 2.014, 0.427, -0.122, -1.796, 2.406, 125.804, 60.074, -41.160, -14.504, 22.35, 0.45474, -0.02524, -0.00455, 0.8902,
 15:56:56.705,c2:22:89:2b:7b:c3, 2015-01-01 01:11:52.985, -0.032, -0.008, 0.981, 0, 1.038, -0.061, -1.791, 2.422, 125.799, 60.074, -41.160, -14.504, 22.35, 0.45474, -0.02524, -0.00455, 0.8902,
 15:56:56.764,c2:22:89:2b:7b:c3, 2015-01-01 01:11:53.345, -0.054, -0.031, 0.99, -1.77, 1.038, 0, -1.807, 2.428, 125.793, 60.074, -41.160, -14.504, 22.35, 0.45474, -0.02524, -0.00455, 0.8902,
 15:56:56.764,c2:22:89:2b:7b:c3, 2015-01-01 01:11:53.345, -0.067, -0.039, 0.989, -0.916, 2.197, 0.061, -1.818, 2.45, 125.788, 60.074, -41.160, -14.504, 22.35, 0.45474, -0.02524, -0.00455, 0.8902,
 15:56:56.764,c2:22:89:2b:7b:c3, 2015-01-01 01:11:53.345, -0.05, -0.039, 0.983, -0.854, 1.77, -0.061, -1.829, 2.472, 125.782, 60.074, -41.160, -14.504, 22.35, 0.45474, -0.02524, -0.00455, 0.8902,
 15:56:56.764,c2:22:89:2b:7b:c3, 2015-01-01 01:11:53.345, -0.054, -0.071, 0.99, -1.526, 0.366, 0.183, -1.846, 2.477, 125.777, 60.074, -41.160, -14.504, 22.35, 0.45474, -0.02524, -0.00455, 0.8902,
 15:56:56.794,c2:22:89:2b:7b:c3, 2015-01-01 01:11:53.345, -0.048, -0.063, 1.003, 1.709, -0.244, -0.122, -1.84, 2.477, 125.771, 60.074, -41.160, -14.504, 22.35, 0.45474, -0.02524, -0.00455, 0.8902,
 15:56:56.794,c2:22:89:2b:7b:c3, 2015-01-01 01:11:53.345, -0.061, -0.034, 0.992, 2.075, 0.671, 0, -1.824, 2.483, 125.766, 60.074, -41.160, -14.504, 22.35, 0.45474, -0.02524, -0.00455, 0.8902,
 15:56:56.794,c2:22:89:2b:7b:c3, 2015-01-01 01:11:53.345, -0.036, -0.009, 0.995, 0.793, -0.183, 0, -1.813, 2.488, 125.76, 60.074, -41.160, -14.504, 22.35, 0.45474, -0.02524, -0.00455, 0.8902,
 15:56:56.794,c2:22:89:2b:7b:c3, 2015-01-01 01:11:53.345, -0.043, -0.02, 0.99, -0.305, -0.427, 0, -1.813, 2.488, 125.755, 60.074, -41.160, -14.504, 22.35, 0.45474, -0.02524, -0.00455, 0.8902,
 15:56:56.824,c2:22:89:2b:7b:c3, 2015-01-01 01:11:53.345, -0.07, -0.037, 0.982, -0.61, 1.465, 0.122, -1.824, 2.499, 125.75, 60.074, -41.160, -14.504, 22.35, 0.45474, -0.02524, -0.00455, 0.8902,
 15:56:56.824,c2:22:89:2b:7b:c3, 2015-01-01 01:11:53.345, -0.047, -0.019, 0.991, 0.305, 0.732, 0.061, -1.818, 2.51, 125.744, 60.074, -41.160, -14.504, 22.35, 0.45474, -0.02524, -0.00455, 0.8902,
 15:56:56.824,c2:22:89:2b:7b:c3, 2015-01-01 01:11:53.345, -0.04, -0.026, 0.997, -0.671, -0.366, -0.061, -1.824, 2.51, 125.739, 60.074, -41.160, -14.504, 22.35, 0.45474, -0.02524, -0.00455, 0.8902,
 15:56:56.824,c2:22:89:2b:7b:c3, 2015-01-01 01:11:53.345, -0.042, -0.044, 1.009, 0.183, 0, 0, -1.824, 2.51, 125.733, 60.074, -41.160, -14.504, 22.35, 0.45474, -0.02524, -0.00455, 0.8902,
 15:56:56.885,c2:22:89:2b:7b:c3, 2015-01-01 01:11:53.345, -0.051, -0.019, 0.999, 0.549, 0.793, 0, -1.818, 2.516, 125.733, 60.074, -41.160, -14.504, 22.35, 0.45474, -0.02524, -0.00455, 0.8902,
 15:56:56.885,c2:22:89:2b:7b:c3, 2015-01-01 01:11:53.345, -0.037, -0.026, 0.998, -1.587, 0.305, 0, -1.829, 2.521, 125.728, 60.074, -41.160, -14.504, 22.35, 0.45474, -0.02524, -0.00455, 0.8902,
 15:56:56.885,c2:22:89:2b:7b:c3, 2015-01-01 01:11:53.345, -0.055, -0.066, 0.997, -2.625, 0.732, 0.183, -1.857, 2.532, 125.722, 60.074, -41.160, -14.504, 22.35, 0.45474, -0.02524, -0.00455, 0.8902,
 15:56:56.885,c2:22:89:2b:7b:c3, 2015-01-01 01:11:53.345, -0.087, -0.082, 0.99, -1.16, 1.16, 0, -1.873, 2.543, 125.717, 60.074, -41.160, -14.504, 22.35, 0.45474, -0.02524, -0.00455, 0.8902,
 15:56:56.915,c2:22:89:2b:7b:c3, 2015-01-01 01:11:53.345, -0.066, -0.059, 0.986, 1.404, 0, -0.122, -1.868, 2.549, 125.711, 60.074, -41.160, -14.504, 22.35, 0.45474, -0.02524, -0.00455, 0.8902,
 15:56:56.915,c2:22:89:2b:7b:c3, 2015-01-01 01:11:53.345, -0.031, -0.038, 0.991, 2.93, -2.014, 0, -1.846, 2.538, 125.706, 60.074, -41.160, -14.504, 22.35, 0.45474, -0.02524, -0.00455, 0.8902,
 15:56:56.915,c2:22:89:2b:7b:c3, 2015-01-01 01:11:53.345, -0.033, -0.009, 1.015, 3.967, -2.625, 0.061, -1.807, 2.516, 125.706, 60.074, -41.160, -14.504, 22.35, 0.45474, -0.02524, -0.00455, 0.8902,
 15:56:56.915,c2:22:89:2b:7b:c3, 2015-01-01 01:11:53.345, -0.022, 0.036, 1.007, 3.052, -0.61, 0, -1.774, 2.505, 125.7, 60.074, -41.160, -14.504, 22.35, 0.45474, -0.02524, -0.00455, 0.8902,
 15:56:56.945,c2:22:89:2b:7b:c3, 2015-01-01 01:11:53.345, -0.035, 0.034, 0.979, -2.625, 0.854, 0, -1.785, 2.51, 125.695, 60.466, -41.160, -14.700, 22.35, 0.45474, -0.02524, -0.00455, 0.8902,
 15:56:56.945,c2:22:89:2b:7b:c3, 2015-01-01 01:11:53.345, -0.062, -0.033, 0.974, -6.042, 2.441, 0.122, -1.84, 2.532, 125.689, 60.466, -41.160, -14.700, 22.35, 0.45474, -0.02524, -0.00455, 0.8902,
 15:56:56.945,c2:22:89:2b:7b:c3, 2015-01-01 01:11:53.345, -0.108, -0.081, 0.973, -5.737, 3.113, 0.244, -1.901, 2.565, 125.684, 60.466, -41.160, -14.700, 22.35, 0.45474, -0.02524, -0.00455, 0.8902,
 15:56:56.945,c2:22:89:2b:7b:c3, 2015-01-01 01:11:53.345, -0.099, -0.122, 0.958, -2.869, 1.282, 0.122, -1.939, 2.587, 125.684, 60.466, -41.160, -14.700, 22.35, 0.45474, -0.02524, -0.00455, 0.8902,
 15:56:57.005,c2:22:89:2b:7b:c3, 2015-01-01 01:11:53.345, -0.081, -0.11, 0.963, 3.052, -2.869, -0.122, -1.928, 2.571, 125.678, 60.466, -41.160, -14.700, 22.35, 0.45474, -0.02524, -0.00455, 0.8902,
 15:56:57.005,c2:22:89:2b:7b:c3, 2015-01-01 01:11:53.345, -0.03, -0.042, 1, 8.362, -5.676, -0.305, -1.862, 2.527, 125.673, 60.466, -41.160, -14.700, 22.35, 0.45474, -0.02524, -0.00455, 0.8902,
 15:56:57.005,c2:22:89:2b:7b:c3, 2015-01-01 01:11:53.345, 0.013, 0.037, 1.008, 8.362, -5.554, -0.61, -1.78, 2.477, 125.667, 60.466, -41.160, -14.700, 22.35, 0.45474, -0.02524, -0.00455, 0.8902,
 15:56:57.005,c2:22:89:2b:7b:c3, 2015-01-01 01:11:53.345, 0.023, 0.08, 1.018, 3.235, -3.357, -0.122, -1.736, 2.439, 125.662, 60.466, -41.160, -14.700, 22.35, 0.45474, -0.02524, -0.00455, 0.8902,
 15:56:57.034,c2:22:89:2b:7b:c3, 2015-01-01 01:11:53.345, -0.014, 0.066, 1.015, -4.7, 1.221, 0.061, -1.758, 2.439, 125.662, 60.466, -41.160, -14.700, 22.35, 0.45599, -0.02704, -0.00439, 0.8895,
 15:56:57.034,c2:22:89:2b:7b:c3, 2015-01-01 01:11:53.345, -0.094, -0.032, 1.009, -11.414, 5.615, 0.366, -1.851, 2.488, 125.656, 60.466, -41.160, -14.700, 22.35, 0.45599, -0.02704, -0.00439, 0.8895,
 15:56:57.034,c2:22:89:2b:7b:c3, 2015-01-01 01:11:53.345, -0.115, -0.167, 0.996, -9.216, 4.028, 0.427, -1.956, 2.538, 125.656, 60.466, -41.160, -14.700, 22.35, 0.45599, -0.02704, -0.00439, 0.8895,
 15:56:57.034,c2:22:89:2b:7b:c3, 2015-01-01 01:11:53.345, -0.126, -0.173, 0.965, 0, -0.732, 0.122, -1.978, 2.543, 125.651, 60.466, -41.160, -14.700, 22.35, 0.45599, -0.02704, -0.00439, 0.8895,
 15:56:57.066,c2:22:89:2b:7b:c3, 2015-01-01 01:11:53.345, -0.069, -0.088, 0.977, 9.338, -4.822, -0.366, -1.912, 2.51, 125.645, 60.466, -41.160, -14.700, 22.35, 0.45599, -0.02704, -0.00439, 0.8895,
 15:56:57.066,c2:22:89:2b:7b:c3, 2015-01-01 01:11:53.345, 0.038, 0.033, 0.98, 12.146, -8.972, -0.244, -1.796, 2.433, 125.645, 60.466, -41.160, -14.700, 22.35, 0.45599, -0.02704, -0.00439, 0.8895,
 15:56:57.066,c2:22:89:2b:7b:c3, 2015-01-01 01:11:53.345, 0.057, 0.09, 1, 6.226, -7.08, -0.366, -1.719, 2.357, 125.64, 60.466, -41.160, -14.700, 22.35, 0.45599, -0.02704, -0.00439, 0.8895,
 15:56:57.066,c2:22:89:2b:7b:c3, 2015-01-01 01:11:53.345, -0.008, 0.071, 1.009, -3.723, 0.793, 0.061, -1.73, 2.346, 125.634, 60.466, -41.160, -14.700, 22.35, 0.45599, -0.02704, -0.00439, 0.8895,
 15:56:57.126,c2:22:89:2b:7b:c3, 2015-01-01 01:11:53.345, -0.107, 0.007, 0.993, -10.925, 6.897, 0.366, -1.824, 2.401, 125.629, 60.466, -41.160, -14.700, 22.35, 0.45599, -0.02704, -0.00439, 0.8895,
 15:56:57.126,c2:22:89:2b:7b:c3, 2015-01-01 01:11:53.345, -0.134, -0.12, 0.993, -12.512, 4.944, 0.366, -1.945, 2.461, 125.629, 60.466, -41.160, -14.700, 22.35, 0.45599, -0.02704, -0.00439, 0.8895,
 15:56:57.126,c2:22:89:2b:7b:c3, 2015-01-01 01:11:53.345, -0.116, -0.195, 0.963, -2.136, -0.977, 0.122, -2, 2.466, 125.623, 60.466, -41.160, -14.700, 22.35, 0.45599, -0.02704, -0.00439, 0.8895,
 15:56:57.126,c2:22:89:2b:7b:c3, 2015-01-01 01:11:53.345, -0.048, -0.098, 0.983, 9.644, -5.92, -0.305, -1.928, 2.422, 125.618, 60.466, -41.160, -14.700, 22.35, 0.45599, -0.02704, -0.00439, 0.8895,
 15:56:57.154,c2:22:89:2b:7b:c3, 2015-01-01 01:11:53.730, 0.049, 0.02, 1.002, 11.169, -9.644, -0.305, -1.818, 2.34, 125.618, 60.466, -41.160, -14.700, 22.35, 0.45599, -0.02704, -0.00439, 0.8895,
 15:56:57.154,c2:22:89:2b:7b:c3, 2015-01-01 01:11:53.730, 0.049, 0.043, 1.007, 4.517, -6.104, 0, -1.758, 2.274, 125.618, 60.466, -41.160, -14.700, 22.35, 0.45599, -0.02704, -0.00439, 0.8895,
 15:56:57.154,c2:22:89:2b:7b:c3, 2015-01-01 01:11:53.730, -0.036, 0.047, 1.009, -2.93, 0.549, 0.183, -1.763, 2.263, 125.612, 60.466, -41.160, -14.700, 22.35, 0.45599, -0.02704, -0.00439, 0.8895,
 15:56:57.154,c2:22:89:2b:7b:c3, 2015-01-01 01:11:53.730, -0.109, 0.003, 1.001, -8.789, 5.249, 0.305, -1.835, 2.307, 125.607, 60.466, -41.160, -14.700, 22.35, 0.45599, -0.02704, -0.00439, 0.8895,
 15:56:57.184,c2:22:89:2b:7b:c3, 2015-01-01 01:11:53.730, -0.076, -0.086, 0.998, -5.859, 1.16, 0.122, -1.906, 2.335, 125.601, 60.466, -41.160, -14.700, 22.35, 0.45599, -0.02704, -0.00439, 0.8895,
 15:56:57.184,c2:22:89:2b:7b:c3, 2015-01-01 01:11:53.730, -0.072, -0.102, 0.984, -0.244, -2.747, 0, -1.928, 2.313, 125.601, 60.466, -41.160, -14.700, 22.35, 0.45599, -0.02704, -0.00439, 0.8895,
 15:56:57.184,c2:22:89:2b:7b:c3, 2015-01-01 01:11:53.730, -0.019, -0.06, 1.017, 4.089, -4.211, 0.122, -1.895, 2.28, 125.596, 60.466, -41.160, -14.700, 22.35, 0.45599, -0.02704, -0.00439, 0.8895,
 15:56:57.184,c2:22:89:2b:7b:c3, 2015-01-01 01:11:53.730, -0.007, -0.032, 0.987, 3.662, -4.883, -0.061, -1.857, 2.236, 125.596, 60.466, -41.160, -14.700, 22.35, 0.45599, -0.02704, -0.00439, 0.8895,
 15:56:57.245,c2:22:89:2b:7b:c3, 2015-01-01 01:11:53.730, -0.037, -0.028, 0.985, 1.221, -2.563, 0.122, -1.84, 2.203, 125.59, 60.466, -41.160, -14.700, 22.35, 0.45599, -0.02704, -0.00439, 0.8895,
 15:56:57.245,c2:22:89:2b:7b:c3, 2015-01-01 01:11:53.730, -0.079, 0.005, 0.98, 0.549, -1.099, 0, -1.835, 2.192, 125.59, 60.466, -41.160, -14.700, 22.35, 0.45599, -0.02704, -0.00439, 0.8895,
 15:56:57.245,c2:22:89:2b:7b:c3, 2015-01-01 01:11:53.730, -0.022, 0.015, 0.992, -0.549, -1.587, 0, -1.84, 2.186, 125.585, 60.466, -41.160, -14.700, 22.35, 0.45599, -0.02704, -0.00439, 0.8895,
 15:56:57.245,c2:22:89:2b:7b:c3, 2015-01-01 01:11:53.730, -0.025, -0.037, 0.976, -2.563, -3.174, 0.122, -1.862, 2.153, 125.585, 60.466, -41.160, -14.700, 22.35, 0.45599, -0.02704, -0.00439, 0.8895,
 15:56:57.274,c2:22:89:2b:7b:c3, 2015-01-01 01:11:53.730, -0.061, -0.064, 1.004, -2.441, -1.343, 0, -1.884, 2.137, 125.579, 60.466, -41.160, -14.700, 22.35, 0.45599, -0.02704, -0.00439, 0.8895,
 15:56:57.274,c2:22:89:2b:7b:c3, 2015-01-01 01:11:53.730, -0.079, -0.071, 0.992, -0.732, -0.977, 0, -1.895, 2.137, 125.574, 60.466, -41.160, -14.700, 22.35, 0.45599, -0.02704, -0.00439, 0.8895,
 15:56:57.274,c2:22:89:2b:7b:c3, 2015-01-01 01:11:53.730, -0.043, -0.055, 0.984, 1.77, -2.991, 0, -1.89, 2.115, 125.574, 60.466, -41.160, -14.700, 22.35, 0.45599, -0.02704, -0.00439, 0.8895,
 15:56:57.274,c2:22:89:2b:7b:c3, 2015-01-01 01:11:53.730, -0.015, -0.022, 1.01, 3.723, -5.92, -0.061, -1.857, 2.065, 125.574, 60.466, -41.160, -14.700, 22.35, 0.45599, -0.02704, -0.00439, 0.8895,
 15:56:57.305,c2:22:89:2b:7b:c3, 2015-01-01 01:11:53.730, 0, 0.001, 1.021, 1.953, -3.723, -0.061, -1.829, 2.021, 125.568, 60.466, -41.160, -14.700, 22.35, 0.45599, -0.02704, -0.00439, 0.8895,
 15:56:57.305,c2:22:89:2b:7b:c3, 2015-01-01 01:11:53.730, -0.022, -0.016, 0.989, -1.16, -1.709, 0, -1.84, 2.005, 125.568, 60.466, -41.160, -14.700, 22.35, 0.45599, -0.02704, -0.00439, 0.8895,
 15:56:57.305,c2:22:89:2b:7b:c3, 2015-01-01 01:11:53.730, -0.09, -0.035, 0.995, -4.15, -0.183, 0.244, -1.873, 2, 125.563, 60.466, -41.160, -14.700, 22.35, 0.45599, -0.02704, -0.00439, 0.8895,
 15:56:57.305,c2:22:89:2b:7b:c3, 2015-01-01 01:11:53.730, -0.059, -0.053, 1.002, -0.305, -1.465, 0, -1.884, 1.994, 125.563, 60.466, -41.160, -14.700, 22.35, 0.45599, -0.02704, -0.00439, 0.8895,
 15:56:57.365,c2:22:89:2b:7b:c3, 2015-01-01 01:11:53.730, -0.02, -0.021, 0.974, 1.282, -3.235, 0.061, -1.879, 1.967, 125.557, 60.466, -41.160, -14.700, 22.35, 0.45599, -0.02704, -0.00439, 0.8895,
 15:56:57.365,c2:22:89:2b:7b:c3, 2015-01-01 01:11:53.730, -0.02, -0.039, 0.989, -1.343, -4.7, 0.244, -1.879, 1.923, 125.557, 60.466, -41.160, -14.700, 22.35, 0.45599, -0.02704, -0.00439, 0.8895,
 15:56:57.365,c2:22:89:2b:7b:c3, 2015-01-01 01:11:53.730, -0.052, -0.068, 0.994, -0.366, -2.747, 0.061, -1.89, 1.895, 125.557, 60.466, -41.160, -14.700, 22.35, 0.45599, -0.02704, -0.00439, 0.8895,
 15:56:57.365,c2:22:89:2b:7b:c3, 2015-01-01 01:11:53.730, -0.065, -0.039, 0.964, 2.319, -1.831, -0.061, -1.879, 1.879, 125.552, 60.466, -41.160, -14.700, 22.35, 0.45599, -0.02704, -0.00439, 0.8895,
 15:56:57.395,c2:22:89:2b:7b:c3, 2015-01-01 01:11:53.730, -0.023, 0.013, 0.986, 1.892, -4.578, 0.122, -1.857, 1.84, 125.552, 60.074, -41.258, -14.602, 22.35, 0.45599, -0.02704, -0.00439, 0.8895,
 15:56:57.395,c2:22:89:2b:7b:c3, 2015-01-01 01:11:53.730, 0.023, 0.002, 1.022, 0.183, -5.371, 0.061, -1.846, 1.791, 125.552, 60.074, -41.258, -14.602, 22.35, 0.45599, -0.02704, -0.00439, 0.8895,
 15:56:57.395,c2:22:89:2b:7b:c3, 2015-01-01 01:11:53.730, -0.028, -0.044, 0.998, -1.953, -2.258, 0.305, -1.862, 1.763, 125.552, 60.074, -41.258, -14.602, 22.35, 0.45599, -0.02704, -0.00439, 0.8895,
 15:56:57.395,c2:22:89:2b:7b:c3, 2015-01-01 01:11:53.730, -0.082, -0.053, 0.99, -2.319, -0.122, 0.122, -1.884, 1.758, 125.552, 60.074, -41.258, -14.602, 22.35, 0.45599, -0.02704, -0.00439, 0.8895,
 15:56:57.426,c2:22:89:2b:7b:c3, 2015-01-01 01:11:53.730, -0.047, -0.036, 0.999, 0.305, -3.052, 0.061, -1.884, 1.741, 125.546, 60.074, -41.258, -14.602, 22.35, 0.45599, -0.02704, -0.00439, 0.8895,
 15:56:57.426,c2:22:89:2b:7b:c3, 2015-01-01 01:11:53.730, -0.01, -0.03, 0.992, 1.221, -5.066, -0.061, -1.879, 1.697, 125.546, 60.074, -41.258, -14.602, 22.35, 0.45599, -0.02704, -0.00439, 0.8895,
 15:56:57.426,c2:22:89:2b:7b:c3, 2015-01-01 01:11:53.730, 0.007, -0.043, 1.007, 0.244, -5.127, 0, -1.868, 1.648, 125.546, 60.074, -41.258, -14.602, 22.35, 0.45599, -0.02704, -0.00439, 0.8895,
 15:56:57.426,c2:22:89:2b:7b:c3, 2015-01-01 01:11:53.730, -0.046, -0.042, 1.002, -0.244, -3.174, 0.122, -1.873, 1.609, 125.546, 60.074, -41.258, -14.602, 22.35, 0.45599, -0.02704, -0.00439, 0.8895,
 15:56:57.485,c2:22:89:2b:7b:c3, 2015-01-01 01:11:53.730, -0.07, -0.039, 0.991, 0.977, -1.526, 0, -1.873, 1.599, 125.546, 60.074, -41.258, -14.602, 22.35, 0.45715, -0.02026, -0.00793, 0.88907,
 15:56:57.485,c2:22:89:2b:7b:c3, 2015-01-01 01:11:53.730, -0.021, 0.016, 0.99, 2.014, -4.333, 0.061, -1.851, 1.566, 125.541, 60.074, -41.258, -14.602, 22.35, 0.45715, -0.02026, -0.00793, 0.88907,
 15:56:57.485,c2:22:89:2b:7b:c3, 2015-01-01 01:11:53.730, 0.02, 0.006, 0.999, -1.099, -5.554, 0, -1.846, 1.516, 125.541, 60.074, -41.258, -14.602, 22.35, 0.45715, -0.02026, -0.00793, 0.88907,
 15:56:57.485,c2:22:89:2b:7b:c3, 2015-01-01 01:11:53.730, -0.027, -0.072, 0.987, -2.991, -2.808, 0.305, -1.879, 1.478, 125.541, 60.074, -41.258, -14.602, 22.35, 0.45715, -0.02026, -0.00793, 0.88907,
 15:56:57.514,c2:22:89:2b:7b:c3, 2015-01-01 01:11:54.120, -0.09, -0.067, 0.98, -1.099, -0.732, 0.122, -1.895, 1.467, 125.541, 60.074, -41.258, -14.602, 22.35, 0.45715, -0.02026, -0.00793, 0.88907,
 15:56:57.514,c2:22:89:2b:7b:c3, 2015-01-01 01:11:54.120, -0.045, -0.029, 1.001, 1.343, -3.845, -0.061, -1.884, 1.445, 125.541, 60.074, -41.258, -14.602, 22.35, 0.45715, -0.02026, -0.00793, 0.88907,
 15:56:57.514,c2:22:89:2b:7b:c3, 2015-01-01 01:11:54.120, 0.032, -0.029, 0.992, 1.16, -6.409, -0.061, -1.873, 1.39, 125.541, 60.074, -41.258, -14.602, 22.35, 0.45715, -0.02026, -0.00793, 0.88907,
 15:56:57.514,c2:22:89:2b:7b:c3, 2015-01-01 01:11:54.120, 0, -0.059, 1.005, 0.183, -5.92, 0.244, -1.873, 1.329, 125.541, 60.074, -41.258, -14.602, 22.35, 0.45715, -0.02026, -0.00793, 0.88907,
