#timestamp [ns], temperature [degC], w_RS_S_x [rad s^-1], w_RS_S_y [rad s^-1], w_RS_S_z [rad s^-1], a_RS_S_x [m s^-2], a_RS_S_y [m s^-2], a_RS_S_z [m s^-2]
0.0,21.78,0.0,0.0,0.0,0.32373,0.22563,9.84924
5000000.0,21.78,0.0,0.0,0.0,0.32373,0.235341900097119,9.868663800194238
10000000.0,21.78,0.0,0.0,0.0,0.304502399611524,0.23544,9.859246199805762
15000000.0,21.78,0.0,0.0,0.0,0.294594299708643,0.244955700291357,9.887597100874071
20000000.0,21.78,0.0,0.0,0.0,0.331970401553904,0.254667600388476,9.869644799223048
25000000.0,21.78,0.0,0.0,0.0,0.361498501456785,0.27369900097119,9.840901498543214
30000000.0,21.78,0.0,0.0,0.0,0.326084397669144,0.247015798251858,9.857872801165428
35000000.0,21.78,0.0,0.0,0.0,0.314606699320167,0.20875679728066798,9.849926699320166
40000000.0,21.78,0.0,0.0,0.0,0.31392,0.25113600388476004,9.867290401553904
45000000.0,21.78,0.0,0.0,0.0,0.340701302622213,0.24613289912592898,9.877787100874071
50000000.0,21.78,0.0,0.0,0.0,0.34335,0.24525,9.88749900097119
55000000.0,21.78,0.0,0.0,0.0,0.31715729679507293,0.23651909893169099,9.862287296795072
60000000.0,21.78,0.0,0.0,0.0,0.33118560233085603,0.261338403496284,9.841784397669144
65000000.0,21.78,0.0,0.0,0.0,0.30793589621235895,0.23926589621235897,9.847964701262548
70000000.0,21.78,0.0,0.0,0.0,0.32941980407899807,0.24387660135966602,9.874549804078997
75000000.0,21.78,0.0,0.0,0.0,0.341878501456785,0.253588501456785,9.870331498543214
80000000.0,21.78,0.0,0.0,0.0,0.351590401553904,0.25506,9.835898393784385
85000000.0,21.78,0.0,0.0,0.0,0.345017698348977,0.25506,9.878473809906138
90000000.0,21.78,0.0,0.0,0.0,0.33530579825185797,0.25506,9.864347394755574
95000000.0,21.78,0.0,0.0,0.0,0.33354,0.25506,9.874942203690521
100000000.0,21.78,0.0,0.0,0.0,0.33354,0.26290800194238,9.87082199805762
105000000.0,21.78,0.0,0.0,0.0,0.341289902039499,0.23387039184200392,9.86886
110000000.0,21.78,0.0,0.0,0.0,0.34335,0.24858540640985408,9.861208197863382
115000000.0,21.78,0.0,0.0,0.0,0.328242595532526,0.23995259553252596,9.851496297766262
120000000.0,21.78,0.0,0.0,0.0,0.3013631930074319,0.24289560233085603,9.856695602330856
125000000.0,21.78,0.0,0.0,0.0,0.3163725072839251,0.25260750242797503,9.873765004855949
130000000.0,21.78,0.0,0.0,0.0,0.330989402525094,0.247800597474906,9.871410597474906
135000000.0,21.78,0.0,0.0,0.0,0.32637869737778696,0.23808869737778698,9.86886
140000000.0,21.78,0.0,0.0,0.0,0.33079320271933205,0.2636928108773281,9.86886
145000000.0,21.78,0.0,0.0,0.0,0.33354,0.26074979436709794,9.875825102816451
150000000.0,21.78,0.0,0.0,0.0,0.31980599417285993,0.26879400582714,9.86493599417286
155000000.0,21.78,0.0,0.0,0.0,0.32068890301068903,0.26114219397862193,9.86581890301069
160000000.0,21.78,0.0,0.0,0.0,0.33707160621561605,0.26173080310780805,9.862189196892192
165000000.0,21.78,0.0,0.0,0.0,0.34335,0.23857918718029186,9.865622703204927
170000000.0,21.78,0.0,0.0,0.0,0.33040079339590794,0.25152841320818414,9.875334603302045
175000000.0,21.78,0.0,0.0,0.0,0.33648300679833004,0.26487,9.891423006798329
180000000.0,21.78,0.0,0.0,0.0,0.32451478951114787,0.26487,9.879454789511147
185000000.0,21.78,0.0,0.0,0.0,0.30155939281319394,0.2525093928131939,9.856499392813193
190000000.0,21.78,0.0,0.0,0.0,0.31862881476208815,0.22700338892843389,9.861404407381045
195000000.0,21.78,0.0,0.0,0.0,0.33354,0.22180410378764104,9.86886
200000000.0,21.78,0.0,0.0,0.0,0.32765399611524,0.24917401553904014,9.857087992230479
205000000.0,21.78,0.0,0.0,0.0,0.3353058079637581,0.259082096018121,9.866603711945636
210000000.0,21.78,0.0,0.0,0.0,0.32628058776300584,0.24368039184200393,9.884359804078997
215000000.0,21.78,0.0,0.0,0.0,0.33628681670446814,0.23544,9.882888295823882
220000000.0,21.78,0.0,0.0,0.0,0.3421727914535279,0.24093360427323604,9.884163604273235
225000000.0,21.78,0.0,0.0,0.0,0.338935504370355,0.25604100874071006,9.883084495629644
230000000.0,21.78,0.0,0.0,0.0,0.338052595532526,0.2542751910650519,9.862777786597578
235000000.0,21.78,0.0,0.0,0.0,0.32834069543540695,0.250449304564593,9.84924
240000000.0,21.78,0.0,0.0,0.0,0.3339324093234241,0.24995879533828796,9.859442409323425
245000000.0,21.78,0.0,0.0,0.0,0.3333437904823379,0.2352437904823379,9.863856895241168
250000000.0,21.78,0.0,0.0,0.0,0.31882499514404994,0.23053500485595005,9.8688600097119
255000000.0,21.78,0.0,0.0,0.0,0.3235338099061381,0.2546676198122762,9.864249285140792
260000000.0,21.78,0.0,0.0,0.0,0.33354,0.2558447797992478,9.858657610100376
265000000.0,21.78,0.0,0.0,0.0,0.3427614102946141,0.24927211544192115,9.86886
270000000.0,21.78,0.0,0.0,0.0,0.33510957902229577,0.2738952104888521,9.86886
275000000.0,21.78,0.0,0.0,0.0,0.3227490106830901,0.2756609893169099,9.87768901068309
280000000.0,21.78,0.0,0.0,0.0,0.32059078368400784,0.25192078368400783,9.875530783684008
285000000.0,21.78,0.0,0.0,0.0,0.30411,0.23122169446421695,9.85905
290000000.0,21.78,0.0,0.0,0.0,0.32471102816451025,0.22975020563290205,9.85905
295000000.0,21.78,0.0,0.0,0.0,0.35316,0.23946210573002105,9.871116317190063
300000000.0,21.78,0.0,0.0,0.0,0.35316,0.2648700291357003,9.88848
305000000.0,21.78,0.0,0.0,0.0,0.3493340940757409,0.29047409407574093,9.873176376302963
310000000.0,21.78,0.0,0.0,0.0,0.3284387759144877,0.2733065819358658,9.841784387957244
315000000.0,21.78,0.0,0.0,0.0,0.30773970611849705,0.25143029388150295,9.847768530592486
320000000.0,21.78,0.0,0.0,0.0,0.31392,0.24171839378438395,9.87867
325000000.0,21.78,0.0,0.0,0.0,0.3242205189382052,0.23200649368726495,9.875236493687265
330000000.0,21.78,0.0,0.0,0.0,0.34335,0.2456424384591244,9.86886
335000000.0,21.78,0.0,0.0,0.0,0.3401126934930269,0.2747780804790808,9.872097306506973
340000000.0,21.78,0.0,0.0,0.0,0.3398184132081841,0.25819920660409207,9.869252380187724
345000000.0,21.78,0.0,0.0,0.0,0.3409955731951557,0.25270557319515574,9.852281106701211
350000000.0,21.78,0.0,0.0,0.0,0.31097699320166994,0.2168009796050098,9.861993006798329
355000000.0,21.78,0.0,0.0,0.0,0.3069549068954491,0.2047347206863472,9.880239627581796
360000000.0,21.78,0.0,0.0,0.0,0.31392,0.23936403496284034,9.894365965037158
365000000.0,21.78,0.0,0.0,0.0,0.3112712929103129,0.27468,9.864347414179374
370000000.0,21.78,0.0,0.0,0.0,0.3117618215604182,0.2772306071868061,9.876119392813193
375000000.0,21.78,0.0,0.0,0.0,0.32863498543214986,0.2820374927160749,9.86886
380000000.0,21.78,0.0,0.0,0.0,0.3209832221431322,0.2581991483326915,9.871214407381045
385000000.0,21.78,0.0,0.0,0.0,0.3410936925218369,0.21277892243448923,9.880926307478163
390000000.0,21.78,0.0,0.0,0.0,0.33354,0.23759820757528208,9.884163584849436
395000000.0,21.78,0.0,0.0,0.0,0.33354,0.24525,9.8709201076724
400000000.0,21.78,0.0,0.0,0.0,0.3355020077695201,0.2511360233085602,9.87867
405000000.0,21.78,0.0,0.0,0.0,0.3452139078666391,0.27468,9.87680609213336
410000000.0,21.78,0.0,0.0,0.0,0.34786257610872573,0.2640851522174515,9.861796768144968
415000000.0,21.78,0.0,0.0,0.0,0.32373,0.21582,9.837958540304385
420000000.0,21.78,0.0,0.0,0.0,0.3252996081579961,0.21582,9.877100391842003
425000000.0,21.78,0.0,0.0,0.0,0.33354,0.22023452476534525,9.86886
430000000.0,21.78,0.0,0.0,0.0,0.33628681670446814,0.24799681670446816,9.864739774943297
435000000.0,21.78,0.0,0.0,0.0,0.3506093831012938,0.2661453084493531,9.83943
440000000.0,21.78,0.0,0.0,0.0,0.33118558290705585,0.2735027914535279,9.840607208546473
445000000.0,21.78,0.0,0.0,0.0,0.31499910864359104,0.26163267406922674,9.84924
450000000.0,21.78,0.0,0.0,0.0,0.3227489912592899,0.23347798251857985,9.85120201748142
455000000.0,21.78,0.0,0.0,0.0,0.3148029088378291,0.21935163535131635,9.86886
460000000.0,21.78,0.0,0.0,0.0,0.3245148089349481,0.2542751910650519,9.869644808934948
465000000.0,21.78,0.0,0.0,0.0,0.3314798729037987,0.25005696322446963,9.877983290967933
470000000.0,21.78,0.0,0.0,0.0,0.30469860912918606,0.3115655634832556,9.870037218258371
475000000.0,21.78,0.0,0.0,0.0,0.31392,0.2736989815473898,9.886517963094779
480000000.0,21.78,0.0,0.0,0.0,0.3147048186468482,0.25388277202972775,9.850024818646848
485000000.0,21.78,0.0,0.0,0.0,0.33354,0.22621861884108618,9.868565690579457
490000000.0,21.78,0.0,0.0,0.0,0.33354,0.24544620951766208,9.859638628552986
495000000.0,21.78,0.0,0.0,0.0,0.33344189038521893,0.2552562192295622,9.888185671155655
500000000.0,21.78,0.0,0.0,0.0,0.3237299902880999,0.27468,9.8590500194238
505000000.0,21.78,0.0,0.0,0.0,0.31401809019098087,0.27468,9.878473819618037
510000000.0,21.78,0.0,0.0,0.0,0.31392,0.27468,9.859442380187724
515000000.0,21.78,0.0,0.0,0.0,0.31392,0.2366171599869716,9.849534289996743
520000000.0,21.78,0.0,0.0,0.0,0.3233376101003761,0.2448576101003761,9.858657610100376
525000000.0,21.78,0.0,0.0,0.0,0.31441048980250486,0.22661097960500978,9.85905
530000000.0,21.78,0.0,0.0,0.0,0.3323628205892282,0.2440728205892282,9.877492820589229
535000000.0,21.78,0.0,0.0,0.0,0.3244166896082669,0.2726199311751993,9.860423379216533
540000000.0,21.78,0.0,0.0,0.0,0.3327552104888521,0.24760436853344367,9.85905
545000000.0,21.78,0.0,0.0,0.0,0.31568577882805776,0.2541771105859711,9.841195778828057
550000000.0,21.78,0.0,0.0,0.0,0.32274901068309014,0.2462309893169099,9.88357505341545
555000000.0,21.78,0.0,0.0,0.0,0.32373,0.2365190892197909,9.87101817843958
560000000.0,21.78,0.0,0.0,0.0,0.2978315673680157,0.2440728108773281,9.877492810877328
565000000.0,21.78,0.0,0.0,0.0,0.3028347109744471,0.22818057805110578,9.853065867076658
570000000.0,21.78,0.0,0.0,0.0,0.3294198332146983,0.24250322214313222,9.857676611071566
575000000.0,21.78,0.0,0.0,0.0,0.3502170223373702,0.25358851116868514,9.85905
580000000.0,21.78,0.0,0.0,0.0,0.36140041126580413,0.2633004112658041,9.85905
585000000.0,21.78,0.0,0.0,0.0,0.34668537727415377,0.24044306591123066,9.883476934088769
590000000.0,21.78,0.0,0.0,0.0,0.3192173656198736,0.23544,9.880435788539957
595000000.0,21.78,0.0,0.0,0.0,0.2980277768856778,0.25133222311432224,9.87867
600000000.0,21.78,0.0,0.0,0.0,0.33354005827140054,0.2472119883457199,9.8394299417286
605000000.0,21.78,0.0,0.0,0.0,0.3356000882486009,0.2762496470055965,9.860619647005596
610000000.0,21.78,0.0,0.0,0.0,0.33354,0.24623094075740942,9.861208188151481
615000000.0,21.78,0.0,0.0,0.0,0.33354,0.23544,9.851496288054364
620000000.0,21.78,0.0,0.0,0.0,0.32608438795724387,0.25035122408551225,9.84924
625000000.0,21.78,0.0,0.0,0.0,0.31637248786012484,0.24034497572024976,9.886027560699375
630000000.0,21.78,0.0,0.0,0.0,0.32843882447398826,0.2644776489479765,9.869252351052022
635000000.0,21.78,0.0,0.0,0.0,0.3478626246682262,0.2531960629976606,9.866211312334112
640000000.0,21.78,0.0,0.0,0.0,0.3602232124312321,0.24525,9.86886
645000000.0,21.78,0.0,0.0,0.0,0.3281444373582444,0.2522151125283511,9.86189488747165
650000000.0,21.78,0.0,0.0,0.0,0.30705298737452985,0.24819298737452988,9.87278402525094
655000000.0,21.78,0.0,0.0,0.0,0.2973410872774109,0.25878782544517825,9.865132174554821
660000000.0,21.78,0.0,0.0,0.0,0.3076416256394162,0.24485756154087562,9.885733251278833
665000000.0,21.78,0.0,0.0,0.0,0.3336381387504814,0.2551581387504814,9.87199914833269
670000000.0,21.78,0.0,0.0,0.0,0.33687538698605385,0.24544616095816163,9.871999226027892
675000000.0,21.78,0.0,0.0,0.0,0.3271634868889349,0.24181651311106514,9.872293486888935
680000000.0,21.78,0.0,0.0,0.0,0.32373,0.24525,9.862581586791816
685000000.0,21.78,0.0,0.0,0.0,0.3299103133053031,0.23906968669469686,9.85905
690000000.0,21.78,0.0,0.0,0.0,0.3274577865975779,0.2476044268048443,9.871214426804844
695000000.0,21.78,0.0,0.0,0.0,0.33569822699908225,0.25506,9.87867
700000000.0,21.78,0.0,0.0,0.0,0.3492360135966601,0.24328797280667974,9.86101195921002
705000000.0,21.78,0.0,0.0,0.0,0.3300083452248834,0.24701582738755828,9.866603741081336
710000000.0,21.78,0.0,0.0,0.0,0.31960981379089815,0.24368037241820373,9.872980186209102
715000000.0,21.78,0.0,0.0,0.0,0.31813828611198286,0.22425657222396572,9.863268286111982
720000000.0,21.78,0.0,0.0,0.0,0.3413880699256807,0.21582,9.864543613985136
725000000.0,21.78,0.0,0.0,0.0,0.36297,0.23200654224676542,9.87965102816451
730000000.0,21.78,0.0,0.0,0.0,0.34178034328250345,0.23465517164125171,9.872587757461877
735000000.0,21.78,0.0,0.0,0.0,0.31853068572350685,0.22043068572350685,9.869448628552986
740000000.0,21.78,0.0,0.0,0.0,0.3292236431208364,0.2413260718680607,9.883771214373612
745000000.0,21.78,0.0,0.0,0.0,0.33334377105853774,0.24485754211707542,9.878473771058538
750000000.0,21.78,0.0,0.0,0.0,0.32373,0.2452500582714006,9.86886
755000000.0,21.78,0.0,0.0,0.0,0.32373,0.2696769146649691,9.86886
760000000.0,21.78,0.0,0.0,0.0,0.32373,0.26997118523791186,9.859442370475824
765000000.0,21.78,0.0,0.0,0.0,0.33756214457762146,0.2464271405631714,9.844629285140792
770000000.0,21.78,0.0,0.0,0.0,0.35316,0.2166047700873477,9.83943
775000000.0,21.78,0.0,0.0,0.0,0.33991645483966454,0.21925354516033546,9.865917090320671
780000000.0,21.78,0.0,0.0,0.0,0.3366792454516925,0.24838924545169247,9.889657169698872
785000000.0,21.78,0.0,0.0,0.0,0.32785010851390106,0.26487,9.874451684752316
790000000.0,21.78,0.0,0.0,0.0,0.30666064603440646,0.26487,9.860619569310396
795000000.0,21.78,0.0,0.0,0.0,0.31970788455807886,0.2528036536742365,9.853262115441922
800000000.0,21.78,0.0,0.0,0.0,0.3217680310780803,0.24328803107808034,9.86689803107808
805000000.0,21.78,0.0,0.0,0.0,0.32206225309152253,0.24358225309152254,9.87867
810000000.0,21.78,0.0,0.0,0.0,0.3227490786663908,0.22935781573327815,9.867486552800166
815000000.0,21.78,0.0,0.0,0.0,0.35678971583039715,0.24995886332158862,9.86375886332159
820000000.0,21.78,0.0,0.0,0.0,0.3559067681449677,0.27468,9.884948384072484
825000000.0,21.78,0.0,0.0,0.0,0.34678351602463514,0.2643794519260945,9.882103516024635
830000000.0,21.78,0.0,0.0,0.0,0.33981833551298335,0.24858541612175417,9.88848
835000000.0,21.78,0.0,0.0,0.0,0.31068268378112684,0.25506,9.882005367562254
840000000.0,21.78,0.0,0.0,0.0,0.30724921631599217,0.25506,9.86886
845000000.0,21.78,0.0,0.0,0.0,0.31696111641311114,0.2641833492393335,9.86886
850000000.0,21.78,0.0,0.0,0.0,0.3178439669795397,0.28154698348976986,9.86591698348977
855000000.0,21.78,0.0,0.0,0.0,0.3126447498220475,0.2661452501779525,9.86189491660735
860000000.0,21.78,0.0,0.0,0.0,0.3280463665910637,0.24250318329553183,9.863366366591064
865000000.0,21.78,0.0,0.0,0.0,0.31921743360317434,0.23544,9.857186150404761
870000000.0,21.78,0.0,0.0,0.0,0.3360906168987062,0.24309185069611852,9.87867
875000000.0,21.78,0.0,0.0,0.0,0.34089748300417483,0.2697750339916503,9.871312449012525
880000000.0,21.78,0.0,0.0,0.0,0.33824883418588836,0.2821355829070558,9.851594417092944
885000000.0,21.78,0.0,0.0,0.0,0.3418784140496841,0.27468,9.85905
890000000.0,21.78,0.0,0.0,0.0,0.3019517827128178,0.2682053481384535,9.863366434574365
895000000.0,21.78,0.0,0.0,0.0,0.29842023476860235,0.23906964784709647,9.876609882615698
900000000.0,21.78,0.0,0.0,0.0,0.3178440349628403,0.21778201748142018,9.87082201748142
905000000.0,21.78,0.0,0.0,0.0,0.3391317527356175,0.2330856703141567,9.87494216484292
910000000.0,21.78,0.0,0.0,0.0,0.3647358176756582,0.2719332707026327,9.860815817675658
915000000.0,21.78,0.0,0.0,0.0,0.3694445644544456,0.2941036933633369,9.865524564454445
920000000.0,21.78,0.0,0.0,0.0,0.34688152852041526,0.24211076426020764,9.846100764260207
925000000.0,21.78,0.0,0.0,0.0,0.31097696406596964,0.22563,9.83550607186806
930000000.0,21.78,0.0,0.0,0.0,0.29155316387173164,0.22563,9.86886
935000000.0,21.78,0.0,0.0,0.0,0.28360722712877223,0.22690531816125317,9.867584681838746
940000000.0,21.78,0.0,0.0,0.0,0.3409955634832556,0.24132609129186092,9.860227218258371
945000000.0,21.78,0.0,0.0,0.0,0.3258882367109824,0.28341088164450884,9.867780881644508
950000000.0,21.78,0.0,0.0,0.0,0.3423689815473898,0.27468,9.86297407381044
955000000.0,21.78,0.0,0.0,0.0,0.33354,0.2711483258010832,9.895641244350811
960000000.0,21.78,0.0,0.0,0.0,0.33197036270630365,0.23387036270630363,9.870429637293697
965000000.0,21.78,0.0,0.0,0.0,0.3173535937198359,0.2165067187439672,9.887793281256032
970000000.0,21.78,0.0,0.0,0.0,0.36179276231782764,0.22798447536434474,9.87867
975000000.0,21.78,0.0,0.0,0.0,0.3428594810617948,0.26536051893820517,9.87965103787641
980000000.0,21.78,0.0,0.0,0.0,0.33314758096467584,0.27507241903532414,9.896720323858702
985000000.0,21.78,0.0,0.0,0.0,0.3234356808675568,0.28331272347022723,9.858755680867556
990000000.0,21.78,0.0,0.0,0.0,0.3143124384591244,0.24485756154087562,9.849828657688686
995000000.0,21.78,0.0,0.0,0.0,0.3336381193266812,0.22543376134663762,9.878571880673318
1000000000.0,21.78,0.0,0.0,0.0,0.3433499805761998,0.2060100582714006,9.8688599805762
1005000000.0,21.78,0.0,0.0,0.0,0.33363808047908083,0.2351457585627576,9.85914808047908
1010000000.0,21.78,0.0,0.0,0.0,0.35276763923607635,0.2642814588541146,9.897505278472153
1015000000.0,21.78,0.0,0.0,0.0,0.3436442802848428,0.3219643182909432,9.869742840854528
1020000000.0,21.78,0.0,0.0,0.0,0.3150971405631714,0.24838904150179042,9.850024760375447
1025000000.0,21.78,0.0,0.0,0.0,0.3325590398187904,0.2172914402718144,9.858559519909395
1030000000.0,21.78,0.0,0.0,0.0,0.3150971599869716,0.2250414200065142,9.849828579993487
1035000000.0,21.78,0.0,0.0,0.0,0.3047966798963668,0.21650667989636682,9.903979920621799
1040000000.0,21.78,0.0,0.0,0.0,0.3311856606022566,0.26997132120451317,9.881024339397744
1045000000.0,21.78,0.0,0.0,0.0,0.33354,0.2657528797021288,9.87867
1050000000.0,21.78,0.0,0.0,0.0,0.3511980407899804,0.27369902039499017,9.86101195921002
1055000000.0,21.78,0.0,0.0,0.0,0.34442907950789076,0.2397563180315632,9.876511840984218
1060000000.0,21.78,0.0,0.0,0.0,0.3347171794107718,0.23544,9.870037179410772
1065000000.0,21.78,0.0,0.0,0.0,0.30793583794095836,0.2183705586273056,9.851790558627306
1070000000.0,21.78,0.0,0.0,0.0,0.30411,0.23269324156693244,9.840803379216533
1075000000.0,21.78,0.0,0.0,0.0,0.32912556264175563,0.25211704176117045,9.87278408352234
1080000000.0,21.78,0.0,0.0,0.0,0.3252995790222958,0.26330042097770423,9.870429579022295
1085000000.0,21.78,0.0,0.0,0.0,0.32373,0.2567276789251768,9.86886
1090000000.0,21.78,0.0,0.0,0.0,0.3317742211719422,0.24701577882805778,9.844727336484173
1095000000.0,21.78,0.0,0.0,0.0,0.31764775746187757,0.22935775746187756,9.847376121269061
1100000000.0,21.78,0.0,0.0,0.0,0.33746406409854063,0.23347802136618023,9.857088021366181
1105000000.0,21.78,0.0,0.0,0.0,0.3278501570734016,0.23544,9.866799921463299
1110000000.0,21.78,0.0,0.0,0.0,0.33138182156041823,0.2583954646812546,9.86120817843958
1115000000.0,21.78,0.0,0.0,0.0,0.33354,0.28753116497261166,9.85905
1120000000.0,21.78,0.0,0.0,0.0,0.33354,0.2570218912267189,9.85905
1125000000.0,21.78,0.0,0.0,0.0,0.3188249562964495,0.23789247814822478,9.87376504370355
1130000000.0,21.78,0.0,0.0,0.0,0.2994011561022116,0.22818057805110578,9.871410578051105
1135000000.0,21.78,0.0,0.0,0.0,0.3229452881840529,0.24711396613803965,9.883182644092026
1140000000.0,21.78,0.0,0.0,0.0,0.3264767778568678,0.25506,9.881416777856867
1145000000.0,21.78,0.0,0.0,0.0,0.34462536672075367,0.2620251222402512,9.864739755519498
1150000000.0,21.78,0.0,0.0,0.0,0.33255893298788936,0.26487,9.86591702233737
1155000000.0,21.78,0.0,0.0,0.0,0.33049892243448925,0.25133215513102153,9.86886
1160000000.0,21.78,0.0,0.0,0.0,0.31352753240517534,0.25859164506321647,9.882201645063216
1165000000.0,21.78,0.0,0.0,0.0,0.2975372773712728,0.26487,9.875334554742546
1170000000.0,21.78,0.0,0.0,0.0,0.3007746227258462,0.25192075454830754,9.862385377274153
1175000000.0,21.78,0.0,0.0,0.0,0.3168630456459305,0.25800304564593046,9.85905
1180000000.0,21.78,0.0,0.0,0.0,0.31117315415983154,0.2460347312397473,9.865328422920085
1185000000.0,21.78,0.0,0.0,0.0,0.3350116150860161,0.22307935396559356,9.86886
1190000000.0,21.78,0.0,0.0,0.0,0.3349133306570333,0.2340666693429667,9.874942223114322
1195000000.0,21.78,0.0,0.0,0.0,0.32373,0.24525,9.890638246422881
1200000000.0,21.78,0.0,0.0,0.0,0.32373,0.25702204661712047,9.880631930074319
1205000000.0,21.78,0.0,0.0,0.0,0.33530584681135844,0.2475062297829623,9.857284153188642
1210000000.0,21.78,0.0,0.0,0.0,0.34335,0.23544,9.860619647005596
1215000000.0,21.78,0.0,0.0,0.0,0.33216655280016555,0.22425655280016554,9.880043447199833
1220000000.0,21.78,0.0,0.0,0.0,0.3072491289088913,0.23230087109110872,9.893973623697036
1225000000.0,21.78,0.0,0.0,0.0,0.3104865713824657,0.24525,9.88749895241169
1230000000.0,21.78,0.0,0.0,0.0,0.3184325761087258,0.25054742389127427,9.873372576108725
1235000000.0,21.78,0.0,0.0,0.0,0.3347172959535729,0.24986067601160677,9.863660676011607
1240000000.0,21.78,0.0,0.0,0.0,0.35316,0.25545244817102447,9.864151224085512
1245000000.0,21.78,0.0,0.0,0.0,0.35816312418263124,0.2598668758173688,9.848847503269475
1250000000.0,21.78,0.0,0.0,0.0,0.3384448786012488,0.2403449271607493,9.84433507283925
1255000000.0,21.78,0.0,0.0,0.0,0.31392,0.24485769750747696,9.85905
1260000000.0,21.78,0.0,0.0,0.0,0.30921117552601174,0.2507435265780353,9.873176473421964
1265000000.0,21.78,0.0,0.0,0.0,0.30411,0.2446614491422145,9.88848
1270000000.0,21.78,0.0,0.0,0.0,0.3131352493364525,0.2595726246682262,9.883967375331773
1275000000.0,21.78,0.0,0.0,0.0,0.3458026238267262,0.2560409504693095,9.865426425703964
1280000000.0,21.78,0.0,0.0,0.0,0.3511978756876788,0.24525,9.84924
1285000000.0,21.78,0.0,0.0,0.0,0.3195116750404168,0.24103167504041675,9.84924
1290000000.0,21.78,0.0,0.0,0.0,0.31804022505670226,0.23956022505670224,9.857480450113405
1295000000.0,21.78,0.0,0.0,0.0,0.3317742503076425,0.2532942503076425,9.86886
1300000000.0,21.78,0.0,0.0,0.0,0.3394259747490597,0.26094597474905973,9.86493597474906
1305000000.0,21.78,0.0,0.0,0.0,0.3258881493038815,0.25123407465194075,9.866701850696119
1310000000.0,21.78,0.0,0.0,0.0,0.3176478254451782,0.24525,9.874942174554821
1315000000.0,21.78,0.0,0.0,0.0,0.33098945108459454,0.24887972554229726,9.872489725542296
1320000000.0,21.78,0.0,0.0,0.0,0.3362867487211675,0.25506,9.87867
1325000000.0,21.78,0.0,0.0,0.0,0.3271635257365353,0.25162647426346474,9.87867
1330000000.0,21.78,0.0,0.0,0.0,0.33354,0.24525,9.87867
1335000000.0,21.78,0.0,0.0,0.0,0.33030267406922675,0.24201267406922675,9.86895802220768
1340000000.0,21.78,0.0,0.0,0.0,0.32686922602789226,0.23857922602789228,9.846100773972108
1345000000.0,21.78,0.0,0.0,0.0,0.3304988738749887,0.24525,9.84247112612501
1350000000.0,21.78,0.0,0.0,0.0,0.32078697377786974,0.2540790786663908,9.861012104888522
1355000000.0,21.78,0.0,0.0,0.0,0.31392,0.2633002947230029,9.8827901473615
1360000000.0,21.78,0.0,0.0,0.0,0.30842634716726347,0.23818682641636826,9.866113173583631
1365000000.0,21.78,0.0,0.0,0.0,0.29959745302697455,0.24525,9.872293632567436
1370000000.0,21.78,0.0,0.0,0.0,0.324122506442425,0.25035125322121254,9.895346866946968
1375000000.0,21.78,0.0,0.0,0.0,0.35316,0.25996494658454944,9.856597473292275
1380000000.0,21.78,0.0,0.0,0.0,0.3508055731951557,0.24054114639031146,9.856303280414533
1385000000.0,21.78,0.0,0.0,0.0,0.3388373461960735,0.23014265380392654,9.876413673098037
1390000000.0,21.78,0.0,0.0,0.0,0.3215717730009177,0.24740822699908227,9.871018226999082
1395000000.0,21.78,0.0,0.0,0.0,0.3118598729037987,0.25506,9.8807301270962
1400000000.0,21.78,0.0,0.0,0.0,0.3021479728066797,0.26094608157996085,9.882593918420039
1405000000.0,21.78,0.0,0.0,0.0,0.29802785458087855,0.2788982181286822,9.860913927290438
1410000000.0,21.78,0.0,0.0,0.0,0.31392,0.2515283452248835,9.861796690449767
1415000000.0,21.78,0.0,0.0,0.0,0.3155877274846773,0.2371077274846773,9.83629090993871
1420000000.0,21.78,0.0,0.0,0.0,0.32686925516359255,0.24838925516359256,9.871999255163592
1425000000.0,21.78,0.0,0.0,0.0,0.34335,0.2619269446421694,9.879650833926508
1430000000.0,21.78,0.0,0.0,0.0,0.34335,0.24937028332810282,9.835113711104137
1435000000.0,21.78,0.0,0.0,0.0,0.3420746721268467,0.27085401638054013,9.871410655746306
1440000000.0,21.78,0.0,0.0,0.0,0.3288310881189109,0.24642722797027228,9.884948316089183
1445000000.0,21.78,0.0,0.0,0.0,0.29645825613478255,0.25290174386521747,9.860129128067392
1450000000.0,21.78,0.0,0.0,0.0,0.31392,0.23740205632902056,9.87082205632902
1455000000.0,21.78,0.0,0.0,0.0,0.31480292826162926,0.2559429282616293,9.88759707173837
1460000000.0,21.78,0.0,0.0,0.0,0.3252996567174966,0.2633003432825034,9.877885171641251
1465000000.0,21.78,0.0,0.0,0.0,0.34266327154413273,0.2445632715441327,9.868173271544132
1470000000.0,21.78,0.0,0.0,0.0,0.33236274289402745,0.23485137144701373,9.85905
1475000000.0,21.78,0.0,0.0,0.0,0.31490105730021056,0.2251394713498947,9.85905
1480000000.0,21.78,0.0,0.0,0.0,0.33354,0.21699728624167286,9.858657571252776
1485000000.0,21.78,0.0,0.0,0.0,0.3338343288443433,0.24583865768868657,9.849828657688686
1490000000.0,21.78,0.0,0.0,0.0,0.3429575421170754,0.26545868682438684,9.868467542117076
1495000000.0,21.78,0.0,0.0,0.0,0.32353374192283746,0.29390748384567483,9.84924
1500000000.0,21.78,0.0,0.0,0.0,0.3041099708642997,0.2550599417285994,9.8492400291357
1505000000.0,21.78,0.0,0.0,0.0,0.2943980707671807,0.2356361415343614,9.85895192923282
1510000000.0,21.78,0.0,0.0,0.0,0.30391382932993827,0.2258261706700617,9.878277658659876
1515000000.0,21.78,0.0,0.0,0.0,0.3136257294270573,0.26369291770822917,9.859638541145886
1520000000.0,21.78,0.0,0.0,0.0,0.31392,0.26487,9.85905
1525000000.0,21.78,0.0,0.0,0.0,0.3418785888638859,0.26487,9.85905
1530000000.0,21.78,0.0,0.0,0.0,0.35257142971841426,0.2556485702815857,9.849828570281586
1535000000.0,21.78,0.0,0.0,0.0,0.2984200211068002,0.2185666807378668,9.894856649077665
1540000000.0,21.78,0.0,0.0,0.0,0.3033252299126523,0.19776954017469542,9.889264770087348
1545000000.0,21.78,0.0,0.0,0.0,0.3130371300097713,0.23190852003908521,9.897407130009771
1550000000.0,21.78,0.0,0.0,0.0,0.3315780602137806,0.2707561204275612,9.88063193978622
1555000000.0,21.78,0.0,0.0,0.0,0.3422709302040093,0.2834109302040093,9.88740093020401
1560000000.0,21.78,0.0,0.0,0.0,0.3260843393977434,0.24995867879548678,9.871214339397744
1565000000.0,21.78,0.0,0.0,0.0,0.3407994607964946,0.24525,9.877394730398247
1570000000.0,21.78,0.0,0.0,0.0,0.3180401085139011,0.21994010851390108,9.861796739009268
1575000000.0,21.78,0.0,0.0,0.0,0.3222585305924853,0.24083559177745592,9.85905
1580000000.0,21.78,0.0,0.0,0.0,0.3402108613792086,0.2617308613792086,9.875530861379207
1585000000.0,21.78,0.0,0.0,0.0,0.34335,0.27301233078672327,9.870527669213276
1590000000.0,21.78,0.0,0.0,0.0,0.31921730734847303,0.2827242308838423,9.884948461767683
1595000000.0,21.78,0.0,0.0,0.0,0.31392,0.2685977380380774,9.872587738038076
1600000000.0,21.78,0.0,0.0,0.0,0.3374640932342409,0.24132590676575907,9.86886
1605000000.0,21.78,0.0,0.0,0.0,0.3356000688248007,0.2431899311751993,9.8611100688248
1610000000.0,21.78,0.0,0.0,0.0,0.3258881687276817,0.22229450618304508,9.866701831272318
1615000000.0,21.78,0.0,0.0,0.0,0.3161762686305627,0.23848119410831195,9.861306268630562
1620000000.0,21.78,0.0,0.0,0.0,0.3288312629331126,0.27507252586622527,9.89632815733278
1625000000.0,21.78,0.0,0.0,0.0,0.3482550631273506,0.2918475315636753,9.871312342181623
1630000000.0,21.78,0.0,0.0,0.0,0.33864113667841134,0.26526227335682273,9.84453113667841
1635000000.0,21.78,0.0,0.0,0.0,0.3263786682420867,0.23357600472626006,9.846591331757914
1640000000.0,21.78,0.0,0.0,0.0,0.29547707257987077,0.22563,9.863366463710065
1645000000.0,21.78,0.0,0.0,0.0,0.3123505278086053,0.22563,9.875825131952151
1650000000.0,21.78,0.0,0.0,0.0,0.32373,0.2530981281970813,9.88553703204927
1655000000.0,21.78,0.0,0.0,0.0,0.34403679643916796,0.25133213570722135,9.87494213570722
1660000000.0,21.78,0.0,0.0,0.0,0.33981833551298335,0.25859166448701665,9.875530832243507
1665000000.0,21.78,0.0,0.0,0.0,0.313821802978118,0.25172453531874533,9.865524535318745
1670000000.0,21.78,0.0,0.0,0.0,0.31705926487549263,0.25172463243774634,9.865524632437745
1675000000.0,21.78,0.0,0.0,0.0,0.3301065325348653,0.2678130650697306,9.836977337325674
1680000000.0,21.78,0.0,0.0,0.0,0.3398184326319843,0.2621231347360313,9.844923730527938
1685000000.0,21.78,0.0,0.0,0.0,0.34335,0.26124033272910335,9.865230332729103
1690000000.0,21.78,0.0,0.0,0.0,0.3311855343475554,0.27095223282622233,9.86886
1695000000.0,21.78,0.0,0.0,0.0,0.32373,0.256727601229976,9.856891734153317
1700000000.0,21.78,0.0,0.0,0.0,0.31784396697953965,0.22759190093861903,9.86689809906138
1705000000.0,21.78,0.0,0.0,0.0,0.32549586623515864,0.21582,9.86709413376484
1710000000.0,21.78,0.0,0.0,0.0,0.33922983321469835,0.21582,9.864739833214697
1715000000.0,21.78,0.0,0.0,0.0,0.3321665333763653,0.2270034666236347,9.863268266688182
1720000000.0,21.78,0.0,0.0,0.0,0.32922363340893634,0.24093363340893634,9.870037266817873
1725000000.0,21.78,0.0,0.0,0.0,0.3281444664939447,0.261436600518166,9.884065533506055
1730000000.0,21.78,0.0,0.0,0.0,0.3290274336031743,0.258787699190477,9.899074867206348
1735000000.0,21.78,0.0,0.0,0.0,0.3075433314985333,0.23485133259941332,9.887302665198826
1740000000.0,21.78,0.0,0.0,0.0,0.3099961689870617,0.23583246759482468,9.879062467594824
1745000000.0,21.78,0.0,0.0,0.0,0.3235337322109373,0.260259401683594,9.878473732210937
1750000000.0,21.78,0.0,0.0,0.0,0.3384451699582517,0.2844900679833007,9.86395496600835
1755000000.0,21.78,0.0,0.0,0.0,0.35335613182246134,0.27987919773369196,9.85424306591123
1760000000.0,21.78,0.0,0.0,0.0,0.34335,0.250743497442335,9.84924
1765000000.0,21.78,0.0,0.0,0.0,0.3341285314339853,0.22160779715097798,9.863072202849022
1770000000.0,21.78,0.0,0.0,0.0,0.32824263438012635,0.21954790314037903,9.869644731239747
1775000000.0,21.78,0.0,0.0,0.0,0.3379545344772453,0.2442690689544907,9.854635465522755
1780000000.0,21.78,0.0,0.0,0.0,0.3476664345743643,0.2723257382974574,9.857872869148729
1785000000.0,21.78,0.0,0.0,0.0,0.3362866613140666,0.2774266613140666,9.873078334671483
1790000000.0,21.78,0.0,0.0,0.0,0.3221604695372047,0.25506,9.870429530462795
1795000000.0,21.78,0.0,0.0,0.0,0.32549573026855727,0.24299359540283597,9.85905
1800000000.0,21.78,0.0,0.0,0.0,0.3217680699256807,0.22170596503715964,9.85120193007432
1805000000.0,21.78,0.0,0.0,0.0,0.33354,0.21964593505995936,9.847081870119919
1810000000.0,21.78,0.0,0.0,0.0,0.34472350547123504,0.2405413406283134,9.85905
1815000000.0,21.78,0.0,0.0,0.0,0.35934026474580266,0.26487,9.862679735254197
1820000000.0,21.78,0.0,0.0,0.0,0.34256509394605095,0.2578067292973673,9.872391635351317
1825000000.0,21.78,0.0,0.0,0.0,0.31342939365469397,0.24868353544843536,9.87867
1830000000.0,21.78,0.0,0.0,0.0,0.2976354355455544,0.25172456445444563,9.87867
1835000000.0,21.78,0.0,0.0,0.0,0.3105846712853467,0.24201266435732666,9.872195328714653
1840000000.0,21.78,0.0,0.0,0.0,0.32059076426020766,0.24171847147958472,9.862189235739793
1845000000.0,21.78,0.0,0.0,0.0,0.3200022716738227,0.2611422716738227,9.86886
1850000000.0,21.78,0.0,0.0,0.0,0.33942607186806073,0.27468,9.877689107802091
1855000000.0,21.78,0.0,0.0,0.0,0.3503150639688506,0.2661451919065519,9.881220383813103
1860000000.0,21.78,0.0,0.0,0.0,0.33785632774346325,0.23975632774346328,9.847670508384805
1865000000.0,21.78,0.0,0.0,0.0,0.3184325275492253,0.22563,9.871508736225387
1870000000.0,21.78,0.0,0.0,0.0,0.3117619089675191,0.23073127264501272,9.881220636322507
1875000000.0,21.78,0.0,0.0,0.0,0.33599253641962534,0.2526076092588761,9.881122390741124
1880000000.0,21.78,0.0,0.0,0.0,0.3504133095502331,0.2723255634832556,9.861404436516745
1885000000.0,21.78,0.0,0.0,0.0,0.3614983169306832,0.26487,9.871116336613863
1890000000.0,21.78,0.0,0.0,0.0,0.3194135265780353,0.26055352657803527,9.874353526578036
1895000000.0,21.78,0.0,0.0,0.0,0.30617013680810135,0.24318986319189864,9.861110136808101
1900000000.0,21.78,0.0,0.0,0.0,0.3178440738104407,0.23544,9.866897963094779
1905000000.0,21.78,0.0,0.0,0.0,0.3391318110070181,0.23544,9.85905
1910000000.0,21.78,0.0,0.0,0.0,0.35943832580108326,0.24073751129837512,9.860815837099459
1915000000.0,21.78,0.0,0.0,0.0,0.34001452560684525,0.26153452560684526,9.865524525606846
1920000000.0,21.78,0.0,0.0,0.0,0.3252996372936964,0.24995891188108912,9.852379274587392
1925000000.0,21.78,0.0,0.0,0.0,0.3291253878275539,0.27173692521836923,9.86886
1930000000.0,21.78,0.0,0.0,0.0,0.3054834374879344,0.2523131250241313,9.874353749951737
1935000000.0,21.78,0.0,0.0,0.0,0.31647067517010674,0.23288932482989325,9.90044797448968
1940000000.0,21.78,0.0,0.0,0.0,0.33354,0.2217061884108619,9.850417237682173
1945000000.0,21.78,0.0,0.0,0.0,0.33354,0.2627117244414172,9.861208275558583
1950000000.0,21.78,0.0,0.0,0.0,0.33550207575282076,0.25113622725846224,9.876707924247178
1955000000.0,21.78,0.0,0.0,0.0,0.35051118607941184,0.2996953101323531,9.85905
1960000000.0,21.78,0.0,0.0,0.0,0.32373,0.2542751619293516,9.859834838070649
1965000000.0,21.78,0.0,0.0,0.0,0.32373,0.24387652366446524,9.86886
1970000000.0,21.78,0.0,0.0,0.0,0.32373,0.2262186382648864,9.870625914794658
1975000000.0,21.78,0.0,0.0,0.0,0.32373,0.23544,9.896818384913983
1980000000.0,21.78,0.0,0.0,0.0,0.32451487691824876,0.23661731537737316,9.86807512308175
1985000000.0,21.78,0.0,0.0,0.0,0.3430556614437566,0.2645756614437566,9.848945661443757
1990000000.0,21.78,0.0,0.0,0.0,0.33393247730672476,0.25486376134663763,9.84021495461345
1995000000.0,21.78,0.0,0.0,0.0,0.3529637224990372,0.24525,9.878375583748555
2000000000.0,21.78,0.0,0.0,0.0,0.3335398834571988,0.2452499611523996,9.849240077695201
2005000000.0,21.78,0.0,0.0,0.0,0.30440418316584184,0.23553806105528063,9.868663877889439
2010000000.0,21.78,0.0,0.0,0.0,0.28488232191632323,0.23544,9.859246160958161
2015000000.0,21.78,0.0,0.0,0.0,0.3130372174168721,0.26398721741687214,9.85905
2020000000.0,21.78,0.0,0.0,0.0,0.3327552784721528,0.26487,9.849632360763923
2025000000.0,21.78,0.0,0.0,0.0,0.35217907866639075,0.2928286179995862,9.867879078666391
2030000000.0,21.78,0.0,0.0,0.0,0.3347171211393712,0.25741424227874243,9.878081439430314
2035000000.0,21.78,0.0,0.0,0.0,0.3244166604725666,0.25506,9.860423320945133
2040000000.0,21.78,0.0,0.0,0.0,0.34178047924910476,0.25506,9.877100479249105
2045000000.0,21.78,0.0,0.0,0.0,0.3344228602783286,0.25506,9.87867
2050000000.0,21.78,0.0,0.0,0.0,0.33354,0.2638890398187904,9.86984096018121
2055000000.0,21.78,0.0,0.0,0.0,0.33354,0.26487,9.86886
2060000000.0,21.78,0.0,0.0,0.0,0.3162743199739432,0.26487,9.886125680026057
2065000000.0,21.78,0.0,0.0,0.0,0.3053852598898526,0.26487,9.88848
2070000000.0,21.78,0.0,0.0,0.0,0.3378565608290656,0.21425015875640158,9.880043359792733
2075000000.0,21.78,0.0,0.0,0.0,0.3350114596956146,0.23936416121754162,9.89534708060877
2080000000.0,21.78,0.0,0.0,0.0,0.3417804404015044,0.2370095595984956,9.873568678795486
2085000000.0,21.78,0.0,0.0,0.0,0.3270653190027532,0.23544,9.860717659501377
2090000000.0,21.78,0.0,0.0,0.0,0.3317742405957424,0.2515284811914848,9.85905
2095000000.0,21.78,0.0,0.0,0.0,0.30175543722855436,0.2630061406928614,9.85110385930714
2100000000.0,21.78,0.0,0.0,0.0,0.32569216315992167,0.24917391842003916,9.86493608157996
2105000000.0,21.78,0.0,0.0,0.0,0.3102901773387018,0.25299994088709943,9.861110059112901
2110000000.0,21.78,0.0,0.0,0.0,0.3117618409842184,0.2474081590157816,9.85905
2115000000.0,21.78,0.0,0.0,0.0,0.3214737410813374,0.2603574821626748,9.85905
2120000000.0,21.78,0.0,0.0,0.0,0.3162743588215436,0.24250307646463076,9.844138717643087
2125000000.0,21.78,0.0,0.0,0.0,0.34335016510230165,0.25751262382672624,9.861502623826727
2130000000.0,21.78,0.0,0.0,0.0,0.33864111725461116,0.2721294413726944,9.86886
2135000000.0,21.78,0.0,0.0,0.0,0.33354,0.27468,9.86886
2140000000.0,21.78,0.0,0.0,0.0,0.3264767584330676,0.23230055059840551,9.882986483133864
2145000000.0,21.78,0.0,0.0,0.0,0.33069514166405145,0.22278514166405142,9.874549716671897
2150000000.0,21.78,0.0,0.0,0.0,0.31293887471648874,0.23936408352234084,9.86886
2155000000.0,21.78,0.0,0.0,0.0,0.30411,0.25878788371657885,9.86886
2160000000.0,21.78,0.0,0.0,0.0,0.30411,0.26487,9.86886
2165000000.0,21.78,0.0,0.0,0.0,0.31725548410505483,0.2582972579474726,9.875432742052528
2170000000.0,21.78,0.0,0.0,0.0,0.3431539264489393,0.25506,9.865720715700707
2175000000.0,21.78,0.0,0.0,0.0,0.32765383101293827,0.24230691550646916,9.878179626740296
2180000000.0,21.78,0.0,0.0,0.0,0.32647688468776886,0.24171844234388443,9.882201557656115
2185000000.0,21.78,0.0,0.0,0.0,0.33354,0.24525,9.853948630235987
2190000000.0,21.78,0.0,0.0,0.0,0.3274577574618776,0.2513322425381224,9.851594485076244
2195000000.0,21.78,0.0,0.0,0.0,0.3177458573647586,0.26104414263524145,9.85905
2200000000.0,21.78,0.0,0.0,0.0,0.3198060427323604,0.2707560427323604,9.87670812819708
2205000000.0,21.78,0.0,0.0,0.0,0.32373,0.2573161715115617,9.88269205717052
2210000000.0,21.78,0.0,0.0,0.0,0.33510968585319684,0.2395601570734016,9.87867
2215000000.0,21.78,0.0,0.0,0.0,0.3377582569762826,0.22425651395256516,9.861894770928847
2220000000.0,21.78,0.0,0.0,0.0,0.32804635687916356,0.23779457248334573,9.860227286241672
2225000000.0,21.78,0.0,0.0,0.0,0.34531217287182175,0.26045554321795544,9.863464456782044
2230000000.0,21.78,0.0,0.0,0.0,0.36297,0.25957255668492557,9.874942329945222
2235000000.0,21.78,0.0,0.0,0.0,0.36816934341219343,0.2602593434121934,9.883280656587806
2240000000.0,21.78,0.0,0.0,0.0,0.34217253894412536,0.2597687564906876,9.87867
2245000000.0,21.78,0.0,0.0,0.0,0.3189231436064314,0.24505371278713714,9.873666856393568
2250000000.0,21.78,0.0,0.0,0.0,0.32373,0.24034504370355045,9.8590499125929
2255000000.0,21.78,0.0,0.0,0.0,0.32373,0.24044305619933057,9.85404694380067
2260000000.0,21.78,0.0,0.0,0.0,0.3331476877955769,0.24014884389778846,9.854341156102212
2265000000.0,21.78,0.0,0.0,0.0,0.35257148798981486,0.24525,9.876904463969444
2270000000.0,21.78,0.0,0.0,0.0,0.36297,0.23622471181594712,9.885536779539867
2275000000.0,21.78,0.0,0.0,0.0,0.33648273486512736,0.23445908837829088,9.86787908837829
2280000000.0,21.78,0.0,0.0,0.0,0.3213757771450578,0.24093355571373556,9.870037111427472
2285000000.0,21.78,0.0,0.0,0.0,0.33069496684984967,0.24809503315015033,9.863268344383384
2290000000.0,21.78,0.0,0.0,0.0,0.32216048896100485,0.2566295110389951,9.85237902207799
2295000000.0,21.78,0.0,0.0,0.0,0.33354,0.26536072288810725,9.853752867465728
2300000000.0,21.78,0.0,0.0,0.0,0.32961595532525956,0.2668316872768169,9.89240404467474
2305000000.0,21.78,0.0,0.0,0.0,0.32373,0.22180405522814056,9.879160276140702
2310000000.0,21.78,0.0,0.0,0.0,0.32745784486897844,0.22700353460693534,9.852967844868978
2315000000.0,21.78,0.0,0.0,0.0,0.33354,0.24162025503390255,9.869939234898292
2320000000.0,21.78,0.0,0.0,0.0,0.34060329012643287,0.2495665802528658,9.881416709873566
2325000000.0,21.78,0.0,0.0,0.0,0.3497264548396645,0.27811354516033543,9.861992909679328
2330000000.0,21.78,0.0,0.0,0.0,0.34335,0.27448366422763665,9.85591089051491
2335000000.0,21.78,0.0,0.0,0.0,0.33040061858170616,0.24534796393627964,9.86886
2340000000.0,21.78,0.0,0.0,0.0,0.3103884909033849,0.22249075454830755,9.875138490903385
2345000000.0,21.78,0.0,0.0,0.0,0.3176477089023771,0.21886114554881148,9.88848
2350000000.0,21.78,0.0,0.0,0.0,0.31882522822965226,0.2462313195215132,9.88553695435407
2355000000.0,21.78,0.0,0.0,0.0,0.35316,0.29145505425695056,9.8729801085139
2360000000.0,21.78,0.0,0.0,0.0,0.35316,0.2789963083196631,9.867290537520505
2365000000.0,21.78,0.0,0.0,0.0,0.3425650162508501,0.2622212540627125,9.883182508125424
2370000000.0,21.78,0.0,0.0,0.0,0.3113693539655935,0.24485741586237417,9.866309353965594
2375000000.0,21.78,0.0,0.0,0.0,0.3090150922630509,0.21827254613152547,9.861502546131526
2380000000.0,21.78,0.0,0.0,0.0,0.32373,0.2326933386859334,9.86415110754271
2385000000.0,21.78,0.0,0.0,0.0,0.3304990389772904,0.2663417316288173,9.853752692651527
2390000000.0,21.78,0.0,0.0,0.0,0.34884350715423507,0.2976352607313526,9.866701753577118
2395000000.0,21.78,0.0,0.0,0.0,0.32941970695999706,0.26849956043999557,9.863170293040003
2400000000.0,21.78,0.0,0.0,0.0,0.3119579533828795,0.23740181353151812,9.87867
2405000000.0,21.78,0.0,0.0,0.0,0.30783789342847895,0.20787394671423948,9.87867
2410000000.0,21.78,0.0,0.0,0.0,0.32373,0.22111754043407542,9.87867
2415000000.0,21.78,0.0,0.0,0.0,0.3253977469084775,0.24858549381695494,9.875334506183044
2420000000.0,21.78,0.0,0.0,0.0,0.3351096470055965,0.26643964700559647,9.854341058983211
2425000000.0,21.78,0.0,0.0,0.0,0.3418784528972845,0.2702653586918536,9.832563094205431
2430000000.0,21.78,0.0,0.0,0.0,0.33628689439966897,0.24525,9.850613447199834
2435000000.0,21.78,0.0,0.0,0.0,0.3467832635152326,0.24269930540609305,9.860325347296953
2440000000.0,21.78,0.0,0.0,0.0,0.3088189895762899,0.22563,9.870037247394071
2445000000.0,21.78,0.0,0.0,0.0,0.34119170501761703,0.22778829498238296,9.877590852508808
2450000000.0,21.78,0.0,0.0,0.0,0.32569209517662095,0.24623104758831046,9.86787895241169
2455000000.0,21.78,0.0,0.0,0.0,0.341584104629141,0.256825895370859,9.85905
2460000000.0,21.78,0.0,0.0,0.0,0.32373,0.2738951522174515,9.85905
2465000000.0,21.78,0.0,0.0,0.0,0.3230432521203325,0.2614362606016626,9.85905
2470000000.0,21.78,0.0,0.0,0.0,0.31392,0.21523135202321353,9.85905
2475000000.0,21.78,0.0,0.0,0.0,0.31441054807390545,0.20748164422171644,9.85905
2480000000.0,21.78,0.0,0.0,0.0,0.32333755182897556,0.23661734451307345,9.85905
2485000000.0,21.78,0.0,0.0,0.0,0.3142143482681435,0.26487,9.85816695519557
2490000000.0,21.78,0.0,0.0,0.0,0.324122496730525,0.265262496730525,9.829816248365264
2495000000.0,21.78,0.0,0.0,0.0,0.3432518515376185,0.28439185153761853,9.839331851537619
2500000000.0,21.78,0.0,0.0,0.0,0.33354,0.27467970864299707,9.829620145678502
2505000000.0,21.78,0.0,0.0,0.0,0.33354,0.2164083080602831,9.858755845969858
2510000000.0,21.78,0.0,0.0,0.0,0.2950846049850461,0.20620615124626152,9.84943615124626
2515000000.0,21.78,0.0,0.0,0.0,0.32284724655257246,0.25358874425428746,9.868271497701715
2520000000.0,21.78,0.0,0.0,0.0,0.34256529789595297,0.30214824473988244,9.821771755260118
2525000000.0,21.78,0.0,0.0,0.0,0.3713086471352865,0.31342954904509546,9.81981
2530000000.0,21.78,0.0,0.0,0.0,0.354337101715571,0.24936985600449857,9.829031449142215
2535000000.0,21.78,0.0,0.0,0.0,0.31666660304266603,0.23612665076066652,9.82962
2540000000.0,21.78,0.0,0.0,0.0,0.31392,0.2083642519906425,9.82962
2545000000.0,21.78,0.0,0.0,0.0,0.3228471494335715,0.188155701132857,9.847474298867143
2550000000.0,21.78,0.0,0.0,0.0,0.34138809906138096,0.23936429718414295,9.86689809906138
2555000000.0,21.78,0.0,0.0,0.0,0.360811899255619,0.27144284888342846,9.903783798511236
2560000000.0,21.78,0.0,0.0,0.0,0.38023569944985697,0.27468,9.882201450825214
2565000000.0,21.78,0.0,0.0,0.0,0.331381501067715,0.291749499644095,9.904274249466141
2570000000.0,21.78,0.0,0.0,0.0,0.2984200502425005,0.2352434505658345,9.8827900502425
2575000000.0,21.78,0.0,0.0,0.0,0.31097710003257095,0.208952899967429,9.887008550016285
2580000000.0,21.78,0.0,0.0,0.0,0.3056795498865955,0.222490900226809,9.880239549886594
2585000000.0,21.78,0.0,0.0,0.0,0.3448217510526175,0.25819940084209403,9.870527649789476
2590000000.0,21.78,0.0,0.0,0.0,0.35316,0.29704700123057,9.852771499384716
2595000000.0,21.78,0.0,0.0,0.0,0.3293215487857155,0.2961638495952385,9.833347699190478
2600000000.0,21.78,0.0,0.0,0.0,0.3315780505018805,0.28645194949811953,9.853164151505641
2605000000.0,21.78,0.0,0.0,0.0,0.32579004940100054,0.23024034580700348,9.828050197604002
2610000000.0,21.78,0.0,0.0,0.0,0.3007744479116445,0.2081681493038815,9.81981
2615000000.0,21.78,0.0,0.0,0.0,0.3320687539661875,0.23622500317295003,9.812256249206763
2620000000.0,21.78,0.0,0.0,0.0,0.32098304732893046,0.260161301780713,9.802544349109644
2625000000.0,21.78,0.0,0.0,0.0,0.33599265296242653,0.2722275509874755,9.81490510197495
2630000000.0,21.78,0.0,0.0,0.0,0.34335,0.24564219566162196,9.827069451084595
2635000000.0,21.78,0.0,0.0,0.0,0.34335,0.22111729763657298,9.843942702363426
2640000000.0,21.78,0.0,0.0,0.0,0.3362867487211675,0.20169349744233497,9.870429753836497
2645000000.0,21.78,0.0,0.0,0.0,0.3265748486240485,0.23102575687975757,9.864739697248098
2650000000.0,21.78,0.0,0.0,0.0,0.309995897053859,0.26585115441921153,9.85905
2655000000.0,21.78,0.0,0.0,0.0,0.33118580628075805,0.2949868547105685,9.865818951570189
2660000000.0,21.78,0.0,0.0,0.0,0.33000829666538295,0.2774265933307659,9.842176593330766
2665000000.0,21.78,0.0,0.0,0.0,0.30401174470671743,0.23857899294228993,9.842765503528856
2670000000.0,21.78,0.0,0.0,0.0,0.2943,0.24505395558463955,9.868663955584639
2675000000.0,21.78,0.0,0.0,0.0,0.31980620783466207,0.2486834480413345,9.846787240206673
2680000000.0,21.78,0.0,0.0,0.0,0.3774891643904916,0.2515284520557845,9.810784643832648
2685000000.0,21.78,0.0,0.0,0.0,0.3960296478470965,0.26742070430580706,9.76310788708258
2690000000.0,21.78,0.0,0.0,0.0,0.3376597297497973,0.2929267567500676,9.747412252250022
2695000000.0,21.78,0.0,0.0,0.0,0.3100941523471415,0.292141695305717,9.727203390611434
2700000000.0,21.78,-0.006387961978533914,0.0019163885935601622,0.0,0.31392,0.2609457902229579,9.723672104888522
2705000000.0,21.78,-0.010018358737209096,0.001937653131237049,0.0,0.30813204745862044,0.2163102372931024,9.783611572872417
2710000000.0,21.78,-0.005876838381093938,-0.0020228651665791797,0.0,0.3097998526384985,0.1905101473615015,9.85963896846949
2715000000.0,21.78,-0.001980239122825537,-0.004865460079028159,0.0,0.3530622691493227,0.2255322691493227,9.894071752735616
2720000000.0,21.78,-0.0010646508437165,-0.002342203187258182,0.0,0.41005826416368263,0.25506,9.892796347167263
2725000000.0,21.78,-0.0010646508437165,0.0023422548334710936,0.0,0.3884755765611558,0.28203776464927766,9.872293341210433
2730000000.0,21.78,-0.0027894024751284685,0.00655827221674876,0.0,0.34786254697302543,0.2723252818381528,9.880239812107897
2735000000.0,21.78,-0.00482287408743967,0.009645748174879386,0.0,0.30175517500725174,0.23485129375181293,9.903489353124092
2740000000.0,21.78,-0.004216005789229858,0.010092884222488952,0.0,0.23936373389393734,0.25623751932727523,9.938707519327275
2745000000.0,21.78,-0.001022041664032455,0.005781013575993732,0.0,0.22082315331833155,0.2994994599549946,9.96696
2750000000.0,21.78,-0.003193998907340817,0.002129301687433,0.0,0.21581989316909894,0.2697745192609452,9.96205494658455
2755000000.0,21.78,-0.011634585882436859,-0.004652599685372592,0.0,0.20120304648743048,0.153525697311457,9.96676390702514
2760000000.0,21.78,-0.017520330617531776,-0.01887407207990122,0.0,0.26683280414532806,0.0408091711224917,9.957934585561246
2765000000.0,21.78,-0.012667872908901236,-0.026133332660242613,0.0,0.4171220593089206,0.0737720593089206,9.909865477759155
2770000000.0,21.78,0.0025126694181162295,-0.021161366496073725,0.0,0.558974499451045,0.3013649217256492,9.856106730980366
2775000000.0,21.78,0.0117111592808819,-0.005918288553409139,0.0,0.6587418773073188,0.4797091078020911,9.803132676593727
2780000000.0,21.78,0.004684375808390338,0.020449151552061118,0.0,0.6101809200367092,0.3696392880513929,9.775076453998164
2785000000.0,21.78,-0.00975977719012022,0.04430386321517178,0.0,0.3147024198075242,0.13988962628489626,9.82697189504812
2790000000.0,21.78,-0.015255899369889917,0.03922784961242575,0.0,-0.005494575463245777,0.06808177934681779,9.942043304501233
2795000000.0,21.78,-0.007537657270901539,0.0033991360236767694,0.0,-0.031489068499090694,0.16019800576378007,9.999921382841913
2800000000.0,21.78,0.0012775987197328497,-0.0274855158894987,0.0,0.18050541405265413,0.2668324350931244,9.921833238587032
2805000000.0,21.78,0.0019482933051081159,-0.02892263500495824,0.0,0.32971404551624045,0.35217954483759545,9.801170455162405
2810000000.0,21.78,-0.0012137197323501183,-0.017151669910569864,0.0,0.3535528366470284,0.4194757091617571,9.726418581676485
2815000000.0,21.78,-0.006739293247125858,-0.01344653422209539,0.0,0.4385075467799755,0.38082343450803435,9.691200735966008
2820000000.0,21.78,-0.015848335393937516,-0.00817644714472885,0.0,0.49324669044976693,0.20954028539720287,9.665596690449767
2825000000.0,21.78,-0.02056520266600001,0.0029810700034027357,0.0,0.4635222256388223,0.051992890255528904,9.666774219488943
2830000000.0,21.78,-0.01446939997929619,0.0110570517346844,0.0,0.4049563602451636,0.09260727950967279,9.69228
2835000000.0,21.78,-0.0014585059176406246,0.017743919721423498,0.0,0.33049851453468515,0.290083296927733,9.711704130398841
2840000000.0,21.78,0.0063879050622992,0.01994769313991481,0.0,0.2468189380368894,0.5089432964723329,9.760557765490777
2845000000.0,21.78,0.0011071409209095304,0.013415930825781863,0.0,0.14852306843573068,0.5020745842643458,9.789693465782136
2850000000.0,21.78,-0.015442763437506299,0.0014904390873059265,0.0,0.12262527678915276,0.2678113946229139,9.827658332146983
2855000000.0,21.78,-0.02755998867456123,-0.008996329721228756,0.0,0.1683398218197982,0.031685579085655786,9.86886
2860000000.0,21.78,-0.02505305765351508,-0.013372026654889384,0.0,0.2346559777289598,-0.04237886668758867,9.879847422208273
2865000000.0,21.78,-0.009326268917618013,-0.015484747834515932,0.0,0.36002755649187557,0.05827262428212625,9.923992533895126
2870000000.0,21.78,0.001107261077404966,-0.015386437220641855,0.0,0.47755180343351805,0.24897852470198525,9.969510655746307
2875000000.0,21.78,0.0029277595175955075,-0.006920145636807687,0.0,0.6106725558434256,0.32863466493944665,9.986580223373702
2880000000.0,21.78,-0.0028533067586155154,0.00911771546217957,0.0,0.5897765287134653,0.26094544059455443,10.025427823762177
2885000000.0,21.78,-0.008272330974072407,0.025973677351959594,0.0,0.4506701671714017,0.1796209318870093,10.050737287924672
2890000000.0,21.78,-0.006281409517201912,0.029018493538197545,0.0,0.24995790184347905,0.16990953680869536,10.031313487730435
2895000000.0,21.78,-0.002352884467298648,0.01946487958084082,0.0,0.10486828144908282,0.2323012498552125,10.00158890637669
2900000000.0,21.78,-0.0036198250950866314,0.003616181505735701,0.0,0.03139233797412338,0.2923379436709794,9.94341588734196
2905000000.0,21.78,-0.005930123570796871,-0.01801011378898192,0.0,0.11389517209665172,0.2751702178693022,9.922128130721582
2910000000.0,21.78,-0.008708850035906563,-0.02644208109925914,0.0,0.29312370437213703,0.23190828695348287,9.891226573906966
2915000000.0,21.78,-0.009219864016894501,-0.024664089600331163,0.0,0.4318365397222654,0.22415878310188783,9.854046730138867
2920000000.0,21.78,-0.007111855325255661,-0.018539523791622783,0.0,0.4932472537399726,0.26487,9.817062746260028
2925000000.0,21.78,-0.005642661803548496,-0.007346004498688152,0.0,0.5562268863707689,0.2619268863707689,9.739367545483075
2930000000.0,21.78,-0.007601613200601491,0.00756155719957575,0.0,0.5244419739709199,0.2397561723530617,9.664419258529593
2935000000.0,21.78,-0.0085172067497323,0.021864113353605347,0.0,0.4074082168317822,0.20856071401770715,9.621452142053121
2940000000.0,21.78,-0.008006149554566142,0.025058016346550745,0.0,0.2323001718343017,0.2409343423776434,9.686787085271671
2945000000.0,21.78,-0.004141485573971688,0.01990313659216862,0.0,0.13086505678145055,0.35423915720309157,9.800092414827825
2950000000.0,21.78,-0.004152194258125243,0.006707194598778304,0.0,0.08338528650105285,0.35021625509726256,9.886518458401683
2955000000.0,21.78,-0.0133523298536437,-0.010541676542894795,0.0,0.1407743609599436,0.2221956390400564,9.954501127808012
2960000000.0,21.78,-0.019010811865011506,-0.020416175937540304,0.0,0.2888074349000743,0.08436571252775713,9.925365427516654
2965000000.0,21.78,-0.016379858675291792,-0.022076993773343583,0.0,0.4540070303662703,0.04748109109881091,9.892109181675892
2970000000.0,21.78,-0.006941473414745255,-0.017284961287199585,0.0,0.4934432884434329,0.16755583839635838,9.806468053867881
2975000000.0,21.78,0.0010114120302048173,-0.0036197376127258883,0.0,0.5375877688567777,0.3374644622864446,9.749668326642583
2980000000.0,21.78,-0.00042592315614562685,0.00894382814056013,0.0,0.49638542117075424,0.40927279481952794,9.72171
2985000000.0,21.78,-0.010870652863117279,0.019277005932569927,0.0,0.39720591433925917,0.33775719837917195,9.724064863840349
2990000000.0,21.78,-0.01815911627534174,0.022204377282827367,0.0,0.2336736773055368,0.15617496769134967,9.80156380654014
2995000000.0,21.78,-0.02014976928940046,0.01370197428331344,0.0,0.14705184182571843,0.11860342356853425,9.869154474522844
3000000000.0,21.78,-0.010646470493008951,-9.496406368235257e-08,0.0,0.13734040789980406,0.20601069925680698,9.898289708642997
3005000000.0,21.78,-0.004322444418092382,-0.015827438911122444,0.0,0.20532370857963708,0.322553500422235,9.849730208157402
3010000000.0,21.78,-0.0042586033748661,-0.019117308464113095,0.0,0.35021787698457874,0.35257157539691575,9.810784566137446
3015000000.0,21.78,-0.015635427587365122,-0.01400065031122613,0.0,0.4197703099393031,0.2199393801213938,9.771936965748969
3020000000.0,21.78,-0.02211964300519282,-0.0036197492067737286,0.0,0.42183,0.06513746144197463,9.808430634639507
3025000000.0,21.78,-0.017317997619282273,0.001863170860135331,0.0,0.4311495587569956,0.05886,9.884556470055964
3030000000.0,21.78,-0.010030013329787313,0.0051316362285127246,0.0,0.4131970822917708,0.10496729427057294,9.934587294270573
3035000000.0,21.78,-0.0006706724512840039,0.007303517583508149,0.0,0.37552656419506564,0.25388374321973745,9.983146794756168
3040000000.0,21.78,0.0,0.012349981828843896,0.0,0.3186284457098844,0.3370720723868207,9.923403186661531
3045000000.0,21.78,-0.004844193433342587,0.010838132751261439,0.0,0.25142988598169885,0.39691295487282957,9.873274204272642
3050000000.0,21.78,-0.011072407351211035,0.003939163115765613,0.0,0.20110470378704706,0.358064703787047,9.833543763029638
3055000000.0,21.78,-0.019307058343792094,-0.006281504377593046,0.0,0.2049309593397096,0.2221956099043561,9.82088904066029
3060000000.0,21.78,-0.021182718516111317,-0.014010850256855778,0.0,0.28370573493145734,0.08514996788439966,9.828442859436828
3065000000.0,21.78,-0.02223672286193078,-0.012126353726791429,0.0,0.34550855720368556,0.025996202330262022,9.86375903813579
3070000000.0,21.78,-0.013204049101079439,-0.008964340689333194,0.0,0.4122166174174662,0.10398659631066597,9.86886
3075000000.0,21.78,-0.0053764413858813824,-0.0021824888547317825,0.0,0.463522798640928,0.20944415701004157,9.885537119456371
3080000000.0,21.78,-0.007835856180420788,0.003406915163226735,0.0,0.4543990803493908,0.2503513794759138,9.896720459825303
3085000000.0,21.78,-0.005866206639257691,0.009560603595815401,0.0,0.3942634805430348,0.2632023599224236,9.914574719844847
3090000000.0,21.78,-0.007942314835365944,0.008900468025976544,0.0,0.3182359198436592,0.2809585200390852,9.893777219941372
3095000000.0,21.78,-0.013691448995916056,0.006792459334337688,0.0,0.25643303930003036,0.2606515196500152,9.848749199416693
3100000000.0,21.78,-0.0149051118120315,0.0021292690132983195,0.0,0.22955387957243878,0.2629080602137806,9.800189698931097
3105000000.0,21.78,-0.014064031100128478,-0.009028317699120086,0.0,0.2411299206217992,0.2416201190673012,9.759380158756402
3110000000.0,21.78,-0.01800624571398407,-0.01337202770889378,0.0,0.3294204644882046,0.21248441877594418,9.766443720816037
3115000000.0,21.78,-0.015888578472095332,-0.008921734671662093,0.0,0.39848256303082563,0.1909024789897248,9.77076
3120000000.0,21.78,-0.014095970593819842,0.0006388562761011065,0.0,0.41202,0.21621264240902643,9.800582642409026
3125000000.0,21.78,-0.011444976807371316,0.0055894366920932834,0.0,0.36787463580374635,0.2182724393006244,9.817357560699376
3130000000.0,21.78,-0.013797901326835133,0.0063879050622992,0.0,0.2950843136280431,0.2085605392035054,9.81981
3135000000.0,21.78,-0.01802665972199017,0.0009474929906570012,0.0,0.27468,0.1988486391063864,9.81981
3140000000.0,21.78,-0.01841461325279443,-0.006430537430078918,0.0,0.31705956594439566,0.16794695603706955,9.798620217027803
3145000000.0,21.78,-0.01660470017824893,-0.0085172067497323,0.0,0.3405051610878516,0.19875096652710966,9.78341483891215
3150000000.0,21.78,-0.01299394961133203,-0.0040456333647585175,0.0,0.37081824473988245,0.30509179540461795,9.78057
3155000000.0,21.78,-0.010976543547950093,0.0030130084430897877,0.0,0.38259,0.3568879225641792,9.79410792256418
3160000000.0,21.78,-0.0157261614305237,0.008943100393756264,0.0,0.3492356931039569,0.28291966344949665,9.820202584137625
3165000000.0,21.78,-0.023823099532801813,0.0106465084371654,0.0,0.2875306696657067,0.10722200899712009,9.85591104590531
3170000000.0,21.78,-0.027336400624673907,0.0071331272409630555,0.0,0.2324966921327669,-0.02550661573446615,9.888283984720339
3175000000.0,21.78,-0.02354619678108988,0.0018631055118659653,0.0,0.22219656167056562,-0.020600629976606305,9.94292593169396
3180000000.0,21.78,-0.012441317784944075,-0.009539365408247113,0.0,0.26330077060610774,0.1444046206567462,9.960681538232317
3185000000.0,21.78,-0.0047696089238193256,-0.018940527969679394,0.0,0.35865434237764343,0.34923723729607237,9.901526743216767
3190000000.0,21.78,-0.00781458426471348,-0.014038656291078045,0.0,0.4751971435430714,0.4096654760761548,9.84453095215231
3195000000.0,21.78,-0.017151592553562408,-0.0017885325963905392,0.0,0.5079616758819168,0.28252675881916756,9.823635837940959
3200000000.0,21.78,-0.02450445642613939,0.010220722301584686,0.0,0.41790512981375133,0.09417481903294819,9.837468186468483
3205000000.0,21.78,-0.02537742287751216,0.016799861627256985,0.0,0.3050903774672038,0.013832037746720375,9.878179811266397
3210000000.0,21.78,-0.019564388649492365,0.013783864822665456,0.0,0.21366123884641236,0.07239848585438487,9.921049449401595
3215000000.0,21.78,-0.01233612091143097,0.002757357581002583,0.0,0.18217176244751762,0.17363762447517625,9.931938237552483
3220000000.0,21.78,-0.0095818575934488,-0.0061750088324958475,0.0,0.230339300357093,0.2762502879910029,9.883770699642907
3225000000.0,21.78,-0.013104845590015544,-0.01321132427104331,0.0,0.308034501134045,0.2859610615077106,9.843844437358245
3230000000.0,21.78,-0.018286889006168046,-0.014742768844502967,0.0,0.3645398509554985,0.25506,9.834132537261125
3235000000.0,21.78,-0.0202458193231342,-0.00939017952513112,0.0,0.42938426552394265,0.20306637164006372,9.840018725671987
3240000000.0,21.78,-0.02079944459181494,-0.0030661534502146506,0.0,0.4657787370668874,0.13145368533443685,9.844138737066887
3245000000.0,21.78,-0.018595576312932502,0.006515745249403636,0.0,0.43605418484884184,0.08789734787907348,9.834426836969769
3250000000.0,21.78,-0.015446156916809565,0.016510862793375974,0.0,0.35806430559914304,0.08338518938205189,9.849240252509402
3255000000.0,21.78,-0.013340054487063322,0.017628838222367695,0.0,0.2560403677553037,0.1413626690202267,9.902508742571287
3260000000.0,21.78,-0.010178041449605088,0.008261601209831947,0.0,0.19659227335682272,0.21935204325112045,9.93753
3265000000.0,21.78,-0.010518777866512879,-0.0059408480650156,0.0,0.22327610734966108,0.26428152683741524,9.932919236581293
3270000000.0,21.78,-0.014742823877352826,-0.016297221002367395,0.0,0.30999663515826636,0.2656546729683467,9.887106028357561
3275000000.0,21.78,-0.01944736570898914,-0.015340516117400513,0.0,0.3850428180647282,0.2418163091611631,9.804113491096434
3280000000.0,21.78,-0.020969761154055907,-0.007835788724142655,0.0,0.42496939113019394,0.21268060886980608,9.75231707257987
3285000000.0,21.78,-0.01963897526702429,0.0003194645012004997,0.0,0.4161398171568982,0.17932654477126544,9.732893272385633
3290000000.0,21.78,-0.020692979612843727,0.0068350653520087255,0.0,0.3619886804784868,0.14459920828709208,9.750551847330119
3295000000.0,21.78,-0.019564414999601043,0.006579528322390892,0.0,0.3134291799928918,0.13557432800284328,9.798424328002843
3300000000.0,21.78,-0.017477734085899883,0.0036197850429214905,0.0,0.2766418718029187,0.17069438459124384,9.813924064098542
3305000000.0,21.78,-0.016864048349351176,-0.0005962323403561824,0.0,0.27634789258697895,0.2251398209782982,9.815984035804341
3310000000.0,21.78,-0.015720892773816605,-0.004003101127391716,0.0,0.31666718575667185,0.27742718575667186,9.791360678536106
3315000000.0,21.78,-0.017839722392432436,-0.0045353986181348276,0.0,0.3567897643898976,0.2994009424404094,9.757320235610102
3320000000.0,21.78,-0.020331012386398062,-0.0020441086241691753,0.0,0.3594383355129834,0.22523669718176695,9.744076671025967
3325000000.0,21.78,-0.02461092983714542,0.004471617653156236,0.0,0.32912504791105046,0.09957078957450789,9.75555495208895
3330000000.0,21.78,-0.02803904945980136,0.01024189197887046,0.0,0.26781267659372676,0.026094535318745355,9.826873717450038
3335000000.0,21.78,-0.02347164810771442,0.0004044688976864927,0.0,0.25162682389186825,0.05199364778373648,9.904568918226989
3340000000.0,21.78,-0.01568350038000278,-0.010603943525663762,0.0,0.3158826487549265,0.13341632437746326,9.963428529750985
3345000000.0,21.78,-0.013435907750280808,-0.011455614873233615,0.0,0.4160428146987281,0.19414048475350484,9.970687670054778
3350000000.0,21.78,-0.0149051118120315,-0.004364976655459279,0.0,0.4905,0.25506,9.936548544511886
3355000000.0,21.78,-0.015836440833943644,0.007484544937911376,0.0,0.4563604179978042,0.2436801393326014,9.874255174165752
3360000000.0,21.78,-0.019905173550600102,0.013973134439216616,0.0,0.3370707515684075,0.18560448209634484,9.83943
3365000000.0,21.78,-0.025654273983011164,0.014747451716696445,0.0,0.21876234638912345,0.10526123463891235,9.831483703916737
3370000000.0,21.78,-0.027932577102799734,0.004088145576042851,0.0,0.15480199637461997,0.10575199637461997,9.815101330916415
3375000000.0,21.78,-0.02370588476350761,-0.011183268444078596,0.0,0.20601078666390785,0.14715052444260524,9.836977696665977
3380000000.0,21.78,-0.01683471209088515,-0.018414598496733565,0.0,0.32255358782933585,0.22013679391466795,9.877885725219556
3385000000.0,21.78,-0.01400420864717633,-0.0140241869366974,0.0,0.43232729174607293,0.24681907400349073,9.933017268500873
3390000000.0,21.78,-0.019990360289837923,-0.005344482920111805,0.0,0.48736040491990407,0.16480734153317342,9.904960404919903
3395000000.0,21.78,-0.027304475887043343,0.002576469355172967,0.0,0.4270288383933884,0.07592900433719003,9.842568672449588
3400000000.0,21.78,-0.028550052900745852,0.004471540710838971,0.0,0.35904553771355535,0.05101272645012726,9.760949339590795
3405000000.0,21.78,-0.022428317663905115,0.0053232542185827,0.0,0.3022460338619603,0.1652994920705949,9.68433396613804
3410000000.0,21.78,-0.016771865543956065,0.0057065428989399175,0.0,0.2943,0.2986169298812693,9.70640692988127
3415000000.0,21.78,-0.011916460510878172,0.0074525559060157,0.0,0.28262563567405635,0.3496278693417787,9.790773195987331
3420000000.0,21.78,-0.020160733768313566,0.006430447839709476,0.0,0.22249066714120666,0.2468180056944801,9.90731599715276
3425000000.0,21.78,-0.0321699665321976,-0.0013309218535922328,0.0,0.210424699579547,0.019618669469686694,10.004728433473487
3430000000.0,21.78,-0.038813301115671384,-0.015503788785877095,0.0,0.25329506610725067,-0.14028266688182667,9.981281867140018
3435000000.0,21.78,-0.032380425074572915,-0.019319580330110615,0.0,0.38465123425281234,-0.05983899837738999,9.87445096607171
3440000000.0,21.78,-0.01269057279315204,-0.017816183106032144,0.0,0.5391581345429813,0.22798620408256204,9.765265531367657
3445000000.0,21.78,-0.004727078794461152,0.002110059369405559,0.0,0.5963491639350916,0.46214916691499164,9.661673335319934
3450000000.0,21.78,-0.010116037553232335,0.020671781477440566,0.0,0.4767643917093439,0.4443911906730119,9.74721707219377
3455000000.0,21.78,-0.02632511402098615,0.03293636998219498,0.0,0.24456175648771755,0.17334021695850216,9.903490440856904
3460000000.0,21.78,-0.04464760936740721,0.0190092310312804,0.0,0.03924,-0.16951787530157875,10.06074407044444
3465000000.0,21.78,-0.042475612071933705,-0.009093500749059942,0.0,0.051601811462418115,-0.2981243520202435,10.119112628875726
3470000000.0,21.78,-0.025035517932638803,-0.031211759587365363,0.0,0.23289135461701355,-0.06415463657594636,10.04288798458768
3475000000.0,21.78,0.0002661993375801522,-0.03509667197633228,0.0,0.5066873774701738,0.32863702493117025,9.843353190027532
3480000000.0,21.78,0.004726947043917983,-0.012647148367024599,0.0,0.6239153240517533,0.6039028564569285,9.7299501296207
3485000000.0,21.78,-0.010444946849145592,0.016338631537207656,0.0,0.5229695430852954,0.48882966001419664,9.694340573843606
3490000000.0,21.78,-0.03864343808631685,0.02748537149090335,0.0,0.30057717979687176,0.1106543595937436,9.762323874523439
3495000000.0,21.78,-0.05316073535788774,0.016806652991947387,0.0,0.1280208394309084,-0.23612717520327176,9.830601678861816
3500000000.0,21.78,-0.04260330259042098,-0.0074525854181373835,0.0,0.17658081579960813,-0.30410768856777687,9.927719592100196
3505000000.0,21.78,-0.01625319394493553,-0.011668602801415094,0.0,0.2931236169650362,0.026096914734269172,9.869448191517481
3510000000.0,21.78,0.0028104624668472793,-0.00858106360302377,0.0,0.37121094542030947,0.41398472710154727,9.830404527289845
3515000000.0,21.78,9.579634698283481e-05,0.0007772618027679958,0.0,0.37278,0.5740822923945229,9.810588463450685
3520000000.0,21.78,-0.0194361276554726,0.0010646508437165,0.0,0.3256916581411166,0.4186896376797964,9.75349398976934
3525000000.0,21.78,-0.042497185432883944,-0.010061032211158323,0.0,0.28645172612441727,0.07651553511975534,9.713861726124417
3530000000.0,21.78,-0.05269155721113295,-0.01464962537462226,0.0,0.4228120284902203,-0.19011965128239652,9.721121468566015
3535000000.0,21.78,-0.04235975698552433,-0.00401365171089336,0.0,0.4772568433156684,-0.24250347465253475,9.739956737326267
3540000000.0,21.78,-0.019010652710355357,0.012477827285970126,0.0,0.363361506116715,0.01648279404732797,9.786456343801264
3545000000.0,21.78,-0.0015345483225192164,0.017731702549706005,0.0,0.24603397371153973,0.37847241658012415,9.861797350858973
3550000000.0,21.78,-0.004790966213878706,0.006602490636445083,0.0,0.2442690689544907,0.5356269653628697,9.87768906895449
3555000000.0,21.78,-0.02713236290398562,-0.007942400209717917,0.0,0.3150977524128775,0.3398167427613674,9.86993903094839
3560000000.0,21.78,-0.045770340135710845,-0.0095818575934488,0.0,0.34962860744618607,-0.06592624254406243,9.799797046810172
3565000000.0,21.78,-0.04887044830136854,0.0024594411446479773,0.0,0.3019513845249138,-0.23720676944186772,9.764775692262457
3570000000.0,21.78,-0.03251290491969261,0.0042586033748661,0.0,0.2689899919710999,-0.11163662116956621,9.853753362772633
3575000000.0,21.78,-0.014428508688465699,-0.009315807924485789,0.0,0.28988570832025706,0.17020565264265658,9.88553713888017
3580000000.0,21.78,-0.009028216514702888,-0.017091705702672644,0.0,0.44262845166968456,0.36414845166968457,9.880239530462795
3585000000.0,21.78,-0.020903041711354986,-0.004847014916582477,0.0,0.576730805246208,0.27840682511946824,9.894954739268647
3590000000.0,21.78,-0.031296963190672725,0.02058356288606269,0.0,0.5018787632226877,0.029820447519604443,9.930467078925771
3595000000.0,21.78,-0.03560875373283762,0.03160569687362842,0.0,0.23435873531458734,-0.06729701897137018,9.993153188799933
3600000000.0,21.78,-0.026846571077032512,0.01171446009419658,0.0,0.0667070210404702,0.054937188736571885,10.029744209777041
3605000000.0,21.78,-0.021981177400278117,-0.014652927311056382,0.0,0.1477395803191958,0.1502897601823976,9.950380329749203
3610000000.0,21.78,-0.026293081774912415,-0.028550172003236982,0.0,0.3678767529979675,0.09025129880081298,9.858853168920731
3615000000.0,21.78,-0.03261710784982891,-0.0177622682783233,0.0,0.48226016173630165,-0.006867702170377021,9.854537540434075
3620000000.0,21.78,-0.029231426658153023,0.006388095837085776,0.0,0.41084195623011954,-0.007062989057529893,9.896328351570784
3625000000.0,21.78,-0.020511913260279763,0.011178818575960635,0.0,0.3016567254759672,0.1912968306931683,10.003748415346584
3630000000.0,21.78,-0.01574005424452715,-0.001959079985583213,0.0,0.35453417559234174,0.25506,10.03563
3635000000.0,21.78,-0.025798691740532995,-0.008719513397873191,0.0,0.41839685302756857,0.09750984667869847,9.95685492333935
3640000000.0,21.78,-0.03672668344223095,0.004216155457846949,0.0,0.4175134585947346,-0.0667090605394906,9.814707668757876
3645000000.0,21.78,-0.03487407581364938,0.01564152781894354,0.0,0.27271658400496585,-0.07308414600124147,9.742899316800992
3650000000.0,21.78,-0.02258794346006644,0.009161140786802581,0.0,0.11968100744381006,0.20895576497795768,9.73838707089687
3655000000.0,21.78,-0.01369677401593751,-0.011584974779095904,0.0,0.17324559391585595,0.41172662292186624,9.768405883975959
3660000000.0,21.78,-0.022582581981861898,-0.022801019924612895,0.0,0.38259177727771776,0.29782996490449964,9.740544773453347
3665000000.0,21.78,-0.043403192466914264,-0.009512929251377948,0.0,0.5267977118822772,-0.043853618717336174,9.774292169505822
3670000000.0,21.78,-0.04903011520369937,0.01053040889086288,0.0,0.4102525604370256,-0.26722539799485395,9.813139342570693
3675000000.0,21.78,-0.03409223387819346,0.015656460434152315,0.0,0.2378914292630143,-0.09711657299616575,9.845316285529863
3680000000.0,21.78,-0.010950715309685811,-0.004866203048419424,0.0,0.24917471479584719,0.30215121658131217,9.808822228163322
3685000000.0,21.78,-0.0074952040838606425,-0.015987215948268,0.0,0.414277803110778,0.46107,9.700225169502852
3690000000.0,21.78,-0.027819703449109525,-0.0034346600479182397,0.0,0.533075901716759,0.22994367639473673,9.62871091330471
3695000000.0,21.78,-0.04809720235883065,0.020505370104973462,0.0,0.36169233155892333,-0.0792668095863681,9.67962588948036
3700000000.0,21.78,-0.04601724953500157,0.021299881068993533,0.0,0.10594641890266418,-0.11575713758327137,9.845317509229275
3705000000.0,21.78,-0.03042375642630909,-0.004577891805504622,0.0,0.12380349537323497,0.023937551442875515,9.979811747686618
3710000000.0,21.78,-0.022822266544215982,-0.026144086666582998,0.0,0.34413667361976674,0.09397987206229873,9.97049102350161
3715000000.0,21.78,-0.026623132695762275,-0.019809853855484227,0.0,0.5295448102318481,0.058957594884075946,9.903979367043494
3720000000.0,21.78,-0.03042388923085663,0.003662587105400855,0.0,0.5061949161519492,0.06788570579575706,9.840214294204243
3725000000.0,21.78,-0.02737893286204073,0.016085842884397218,0.0,0.3497252699878527,0.18442915765849158,9.81
3730000000.0,21.78,-0.025654261334959017,0.00784373278945465,0.0,0.2534901101969011,0.2338701101969011,9.841784834704649
3735000000.0,21.78,-0.036226362335331316,-0.003949909744075565,0.0,0.29783247057472473,0.07543694120686942,9.889657490191574
3740000000.0,21.78,-0.045295490892655214,-0.004130797969905076,0.0,0.38886890851508904,-0.13577163496521635,9.9081
3745000000.0,21.78,-0.03983321348358017,0.002736207929799358,0.0,0.366795099836551,-0.20081048177360483,9.943122209194922
3750000000.0,21.78,-0.02503661373430451,0.0074525717160809375,0.0,0.2844895629644956,-0.05395303334023033,10.030725801231759
3755000000.0,21.78,-0.013891916389194778,0.002256964801807439,0.0,0.2694809188091092,0.20346129634561294,10.06064513531815
3760000000.0,21.78,-0.014274738646710871,-0.009888424727274771,0.0,0.355123095502331,0.3052867617990676,9.99795901573209
3765000000.0,21.78,-0.02655934962277503,-0.010975074438679608,0.0,0.4362507731306077,0.1455783523429835,9.906431495563314
3770000000.0,21.78,-0.04218573482046361,-0.001405275536163702,0.0,0.3963232677227327,-0.09476613778226138,9.840214653544546
3775000000.0,21.78,-0.04506173541576406,0.0031939525311496,0.0,0.3124479867260799,-0.19718085335030852,9.856107439949074
3780000000.0,21.78,-0.034980475444351136,0.0031939525311496,0.0,0.2789964734219647,-0.08711111129481112,9.884163526578035
3785000000.0,21.78,-0.021132525239517502,-0.00046851020173847195,0.0,0.30558186759541867,0.1362625909389259,9.866014879442748
3790000000.0,21.78,-0.0160835982007158,-0.007111899593438227,0.0,0.3665021889296219,0.27723082084860823,9.824518358302784
3795000000.0,21.78,-0.025292376320852343,-0.005653223981097928,0.0,0.40397565257335655,0.21787869944688698,9.774291305146713
3800000000.0,21.78,-0.036215622031047424,0.004258683479196442,0.0,0.3453111142747112,0.05689704046427041,9.74721592618956
3805000000.0,21.78,-0.0389943126600094,0.008155177337030244,0.0,0.23259428701684287,-0.0004901304622013034,9.74133
3810000000.0,21.78,-0.0363220069056884,-0.001810026907014867,0.0,0.18913724402807244,0.048069370023393704,9.715234881967248
3815000000.0,21.78,-0.03380948715618923,-0.016050834527462286,0.0,0.2800766115269661,0.04218225898202259,9.665400451796405
3820000000.0,21.78,-0.03668406056049034,-0.01883410026099303,0.0,0.4151600903870009,-0.030215022596750227,9.667166696795668
3825000000.0,21.78,-0.03642844764255963,-0.004311698843786842,0.0,0.4836328514079285,-0.01814783133567831,9.699147148592072
3830000000.0,21.78,-0.027634423515467375,0.011078383763196926,0.0,0.4241833584958336,0.10261401346994013,9.728577371965773
3835000000.0,21.78,-0.022364498754770066,0.016705386466082273,0.0,0.31087837856808376,0.23857949796109498,9.783611621431916
3840000000.0,21.78,-0.029274171804397675,0.00975210459140297,0.0,0.2711485491747855,0.19266668448996685,9.832759274587392
3845000000.0,21.78,-0.04271544383204223,7.450124317989705e-05,0.0,0.2875311746845118,-0.033748192428281934,9.836388825315488
3850000000.0,21.78,-0.049115286132872,-0.002129301687433,0.0,0.2766415513102155,-0.1903138504367385,9.823733850436739
3855000000.0,21.78,-0.04224312905474805,-0.003364329171638223,0.0,0.246819899514999,-0.11968050242500503,9.81284497487875
3860000000.0,21.78,-0.0291036655213745,-0.007878456928070104,0.0,0.3021487497586875,0.0470887497586875,9.84178499980695
3865000000.0,21.78,-0.0253668143237715,-0.011136231530367776,0.0,0.40191652580286524,0.128315100291951,9.911533875364938
3870000000.0,21.78,-0.029636096870669537,-0.0070905011972093816,0.0,0.490892700680427,0.13400392346903922,9.93968797448968
3875000000.0,21.78,-0.036215614653016974,0.00479543928737103,0.0,0.49540424732774246,0.02452364518993644,9.925267725801676
3880000000.0,21.78,-0.03992058327316329,0.0199477416241147,0.0,0.3770949680774497,-0.13145475364344755,9.963821327550413
3885000000.0,21.78,-0.04006956889545356,0.019187694131340315,0.0,0.21287624538536246,-0.1811898699238987,10.01601
3890000000.0,21.78,-0.03257438589167977,0.0031260450182058423,0.0,0.1567644800272448,-0.05061793771117938,10.00090207108992
3895000000.0,21.78,-0.023216186966409483,-0.017775895051262616,0.0,0.2585928104912281,0.13008105393421054,9.937039121721492
3900000000.0,21.78,-0.024930381690293747,-0.02173273283501833,0.0,0.4041728332810283,0.13733848494358483,9.90221415150564
3905000000.0,21.78,-0.036769266271806385,-0.007005254379723902,0.0,0.4755881932004819,-0.045715661899156615,9.91791
3910000000.0,21.78,-0.04136839315470256,0.00794227056718342,0.0,0.3908294886352949,-0.1216424810588248,9.926739379735293
3915000000.0,21.78,-0.029263337693727038,0.0026082707742951065,0.0,0.3076422083534221,0.0559177604417776,9.958621119779112
3920000000.0,21.78,-0.023013994150737876,-0.010135451241999235,0.0,0.3806283807064838,0.10908582945665829,9.900643562445735
3925000000.0,21.78,-0.03387344940991525,-0.00505696739864178,0.0,0.4100573900926739,-0.05248418614574186,9.802642118807922
3930000000.0,21.78,-0.042944075897480914,0.009411563165299137,0.0,0.3213743786314438,-0.09456656794716568,9.754082618322325
3935000000.0,21.78,-0.030434436652345236,0.012828918241571237,0.0,0.1825638707020387,0.12448989362449894,9.714450752865307
3940000000.0,21.78,-0.021651249797936725,-0.003238774290579425,0.0,0.17579642447636423,0.22131268164272683,9.739760935708409
3945000000.0,21.78,-0.03383281714497244,-0.01882980875270828,0.0,0.3247117662689176,0.08750305444703055,9.79479411686554
3950000000.0,21.78,-0.04890237198499472,-0.014601316139435983,0.0,0.41202,-0.15892215344802152,9.746234616379946
3955000000.0,21.78,-0.046121912270214,-0.0015543402087798285,0.0,0.41113702317887024,-0.16068641721966415,9.70297297682113
3960000000.0,21.78,-0.02718729273787954,0.0047696858661365575,0.0,0.3990704923270049,0.010203399937233999,9.715824384591244
3965000000.0,21.78,-0.022130343257311526,0.0102738388505923,0.0,0.3602228919385289,0.1254696689538967,9.76095
3970000000.0,21.78,-0.03334106654482019,0.004939929702077713,0.0,0.32137529155005296,0.09927735422497355,9.758006614437566
3975000000.0,21.78,-0.038664329195437656,-0.0011178917652368743,0.0,0.28547115441921156,0.11183307348473073,9.7119
3980000000.0,21.78,-0.0449464591159706,-0.001958923992939989,0.0,0.30450247730672475,-0.00902697805466978,9.715432295760523
3985000000.0,21.78,-0.0499776524625389,0.0021931975388852654,0.0,0.31156498076924977,-0.22474686778846867,9.80254501923075
3990000000.0,21.78,-0.04655967308739754,0.004002986240917976,0.0,0.2362251100038511,-0.19090050747400508,9.879847665005776
3995000000.0,21.78,-0.030796433390912606,-0.00859196593023801,0.0,0.27683990715779905,0.06955359838273598,9.937333644803838
4000000000.0,21.78,-0.0213105966473722,-0.015987106193585957,0.0,0.4905002330856023,0.1569582907055829,9.917910388476002
4005000000.0,21.78,-0.03712066183466347,-0.0022677709381659535,0.0,0.5196359333769593,-0.05670351143103511,9.9664698889616
4010000000.0,21.78,-0.04668763370745756,0.015625029437082143,0.0,0.36610795376897953,-0.20306816834158167,9.986187755778877
4015000000.0,21.78,-0.039633575401655255,0.015987215948268,0.0,0.20120177422851773,-0.11085222013442221,10.034158889932788
4020000000.0,21.78,-0.027144655100078054,-0.00447100503472871,0.0,0.20561767808367679,-0.00431554107955541,10.073300712334708
4025000000.0,21.78,-0.03270228510302764,-0.018488383207024665,0.0,0.3644428290735283,-0.10251535998875361,10.102828734542388
4030000000.0,21.78,-0.04102787175468128,-0.01115851993823351,0.0,0.42810886966748873,-0.13557443483374435,10.012085217220854
4035000000.0,21.78,-0.02866709692133613,-0.0007451705324508714,0.0,0.3860231081248311,-0.01873608112456082,9.969706486499865
4040000000.0,21.78,-0.02378042605885264,0.008815385633168924,0.0,0.3194130506949305,0.06239222777722228,9.948909443055696
4045000000.0,21.78,-0.030221657417024282,0.0076441760040943645,0.0,0.2603569285843693,0.04188846429218464,9.956267178569272
4050000000.0,21.78,-0.03568329924420004,-0.0069203585456855165,0.0,0.23740184266721842,0.021581842667218423,9.886517370668873
4055000000.0,21.78,-0.04000577317441419,-0.016113122711269544,0.0,0.34894272392562725,-0.05895880887158808,9.782629233601392
4060000000.0,21.78,-0.04422179055769182,-0.006730593443419228,0.0,0.39750151544251516,-0.1377330308850303,9.718962726836228
4065000000.0,21.78,-0.04010151471317099,-0.0006919802031390932,0.0,0.3168622104225221,-0.14715,9.720434778957747
4070000000.0,21.78,-0.031169059763307472,-0.005493649831149561,0.0,0.30411,0.07220365542653653,9.6963999628354
4075000000.0,21.78,-0.02620782968740514,-0.010007752291477144,0.0,0.37915721236787214,0.1996343706718437,9.667264262544043
4080000000.0,21.78,-0.03630085725448519,-0.0017033553431918449,0.0,0.46656431324194314,0.03452945651969458,9.62988808300358
4085000000.0,21.78,-0.048963395778277206,0.009720356926502536,0.0,0.4155509652302096,-0.1384204488858045,9.639894758692447
4090000000.0,21.78,-0.04588570136060851,0.015217560376500953,0.0,0.23328013168980133,-0.09437148500991484,9.675407117773371
4095000000.0,21.78,-0.03610903057155471,0.0056245688513419465,0.0,0.1723614613786146,-0.00696438413584384,9.722200897702308
4100000000.0,21.78,-0.039196656198302454,-0.0087302579181745,0.0,0.23740271673822716,-0.021582318550323186,9.755064238912741
4105000000.0,21.78,-0.04215635099357193,-0.01677144444330176,0.0,0.3790596757551968,-0.06042991893879919,9.7764499594694
4110000000.0,21.78,-0.040112178075137644,-0.013120285993416383,0.0,0.48853879831818803,-0.0839737596636376,9.78822187983182
4115000000.0,21.78,-0.0394095345100319,0.007144006673820553,0.0,0.44968976056849763,-0.1411664595025646,9.85836401936044
4120000000.0,21.78,-0.04264610781491345,0.01602564807417213,0.0,0.319804799609148,-0.1644156800260568,9.983049520364794
4125000000.0,21.78,-0.03408617594501899,0.004262827426872732,0.0,0.26241725963047263,-0.08583661864506618,10.023367580123175
4130000000.0,21.78,-0.030104477429873423,-0.002363550991278393,0.0,0.3203953219826532,-0.0370815593391156,10.011301039559411
4135000000.0,21.78,-0.03915412290693118,-0.0008623410335625724,0.0,0.3648341409522414,-0.10104380317413804,10.013361380317415
4140000000.0,21.78,-0.0441366017104453,0.0015331146692637268,0.0,0.337463597927336,-0.16990968248719682,10.023073280414533
4145000000.0,21.78,-0.035661858687797345,0.002129301687433,0.0,0.28193891693008916,-0.10977301437183014,10.02582
4150000000.0,21.78,-0.03046644992634079,-0.0015970200067551713,0.0,0.2786041612175416,-0.06474583878245839,10.046421241826312
4155000000.0,21.78,-0.03717385532598833,-0.009070895258673797,0.0,0.31156592282355927,-0.08593592282355923,10.04171203858822
4160000000.0,21.78,-0.0404741853537485,-0.014618913035728359,0.0,0.39710968883309694,-0.11811264240902643,9.948908549560885
4165000000.0,21.78,-0.03762088597316334,-0.0038489997308608515,0.0,0.46450390450063905,-0.14724834270038342,9.868663314599234
4170000000.0,21.78,-0.03481022528438397,0.01056144185442294,0.0,0.3641457420495574,-0.12458659501376596,9.88808808598348
4175000000.0,21.78,-0.03270221659274511,0.006600729619807023,0.0,0.23396760796197608,-0.005884702490147026,9.914476581094364
4180000000.0,21.78,-0.03127559325256121,-0.009465419538963701,0.0,0.296655699063757,0.06160696238296962,9.867682150468122
4185000000.0,21.78,-0.03625823858876195,-0.01195178710801044,0.0,0.39024228773162284,-0.017855338040453375,9.771445805825358
4190000000.0,21.78,-0.04602127925279703,-0.0036410263925027823,0.0,0.3329503419856034,-0.17206878355728783,9.719355437228554
4195000000.0,21.78,-0.04747571280866307,0.0006494458577635265,0.0,0.2904741814828418,-0.15764564072305642,9.7119
4200000000.0,21.78,-0.03622243034620109,-0.0008517472358827145,0.0,0.32373040789980406,-0.043163102620431035,9.676583510520235
4205000000.0,21.78,-0.032968441226429536,-0.0015011488254637166,0.0,0.36071394503123944,0.011575963354159634,9.681979908385399
4210000000.0,21.78,-0.038855969319598845,-0.0016821572077886618,0.0,0.3329508275806083,-0.0031395270967952728,9.719159645322597
4215000000.0,21.78,-0.043359415795990175,-0.0027361615536080973,0.0,0.35443603684186037,-0.06435425497054255,9.720336436257364
4220000000.0,21.78,-0.04593498945481437,0.0027681811516297554,0.0,0.3924,-0.16402418362124183,9.717393681968437
4225000000.0,21.78,-0.047465110578948456,0.009794823387538999,0.0,0.30067510488555105,-0.22661116413111165,9.781061402721114
4230000000.0,21.78,-0.043910327020759254,0.0025124333211427666,0.0,0.23092748216267484,-0.1400853210718532,9.861404892976049
4235000000.0,21.78,-0.03595999435705585,-0.010975243355835097,0.0,0.36022517423505174,-0.04326185322061853,9.852084324181444
4240000000.0,21.78,-0.03527874286415285,-0.00767372943929197,0.0,0.5065889764983899,-0.09064538828295389,9.835113847070739
4245000000.0,21.78,-0.04105978806027706,0.004343847030338641,0.0,0.43448316846533175,-0.15715636490806364,9.90427500699435
4250000000.0,21.78,-0.041006465980422055,0.007452537987941871,0.0,0.30410950469309506,-0.1471496697953967,9.971865247653453
4255000000.0,21.78,-0.03886657154931347,0.0063879050622992,0.0,0.2939079305930793,-0.15637189588961897,10.01061491324135
4260000000.0,21.78,-0.04043161728023384,0.004343739521895318,0.0,0.29979335176383354,-0.2052255309815553,10.040338882745388
4265000000.0,21.78,-0.040538046423057306,-0.003875436959013086,0.0,0.28449,-0.17952217157492173,10.04544
4270000000.0,21.78,-0.037940289342111744,-0.013103279045818771,0.0,0.338642195275522,-0.14558073175850733,10.000313170603732
4275000000.0,21.78,-0.03765288765311109,-0.00783462966493749,0.0,0.4154537491102375,-0.17118458303674583,9.934096250889763
4280000000.0,21.78,-0.036598802148957055,0.0025977570809455042,0.0,0.36689275299202756,-0.12046571925975719,9.948125381937054
4285000000.0,21.78,-0.0330216294477327,-0.001841945320619297,0.0,0.28870838323098386,-0.032176467076064676,9.973924850307048
4290000000.0,21.78,-0.03749325342491504,-0.008070044352014041,0.0,0.343743399937234,-0.09221566656205665,9.924187733375177
4295000000.0,21.78,-0.045857873382361365,-0.0017778492083412936,0.0,0.3758203491730035,-0.22612091712610918,9.85855908287389
4300000000.0,21.78,-0.046020778116927466,0.005536166258451211,0.0,0.3119577494329775,-0.20404691420956916,9.809999582388297
4305000000.0,21.78,-0.036971384253169426,0.0009368201426512017,0.0,0.3057779508583795,-0.08161819656648198,9.77674401638054
4310000000.0,21.78,-0.031445982541102,-0.005067756187125599,0.0,0.3311857674331577,0.012557302299473022,9.748392697700526
4315000000.0,21.78,-0.03763164946554284,-0.005600045245833944,0.0,0.3469797838136978,0.03090108093151081,9.701010648558906
4320000000.0,21.78,-0.045207554860835775,-0.0031087531438596,0.0,0.35669168391081685,-0.07769704603797047,9.700128419554085
4325000000.0,21.78,-0.0498073791144761,0.0011711706309137677,0.0,0.35953641599206415,-0.2776245121428451,9.748687920039679
4330000000.0,21.78,-0.052905458356325624,0.007495196705830237,0.0,0.3231406430545064,-0.36905161126461616,9.797247420525276
4335000000.0,21.78,-0.04587284769121744,0.005738312697931607,0.0,0.26487,-0.24279539494565397,9.845806921010869
4340000000.0,21.78,-0.030977444935250596,-0.00980046445335538,0.0,0.32451640168656404,-0.040808588408485884,9.87867
4345000000.0,21.78,-0.03026428451478224,-0.01308584507095226,0.0,0.4725482907748829,0.01795170922511709,9.848258156035882
4350000000.0,21.78,-0.040585950765065985,0.001171271815330977,0.0,0.47284064810350646,-0.07063318290943182,9.783513084493531
4355000000.0,21.78,-0.047976198340240646,0.015698070123977677,0.0,0.32883018491220184,-0.20659978426909784,9.8302097842691
4360000000.0,21.78,-0.0532674487708669,0.016365483697496973,0.0,0.22327492249784922,-0.3096037693755377,9.952441962189921
4365000000.0,21.78,-0.04981315707990609,0.0006386064770711308,0.0,0.19590663263376631,-0.30783729129067294,10.002766076075561
4370000000.0,21.78,-0.03853645633419851,-0.0149051118120315,0.0,0.307838903466089,-0.2546672604719726,9.959307945353979
4375000000.0,21.78,-0.03461866104853566,-0.012509564410827066,0.0,0.4120203399165034,-0.22317741502087415,9.939982584979127
4380000000.0,21.78,-0.038387432767751736,-0.0040456270407325055,0.0,0.4273230895425309,-0.17108478355134785,9.942631029847512
4385000000.0,21.78,-0.03368165750912821,0.0007346368130187464,0.0,0.36679530378645303,-0.018148074133180744,9.92095084447991
4390000000.0,21.78,-0.03180804778995183,0.002725487651598005,0.0,0.3268697116228971,-0.012754279057242794,9.89829
4395000000.0,21.78,-0.04573735557079241,0.0008410649018378352,0.0,0.37071981463239817,-0.16461333661683336,9.879748331691584
4400000000.0,21.78,-0.05603547603786216,0.0002129394439815432,0.0,0.35512165814111657,-0.31588251278832513,9.804113743605837
4405000000.0,21.78,-0.04845183639323719,0.0024807014663075088,0.0,0.3162740577526406,-0.3424661588197616,9.782433985561841
4410000000.0,21.78,-0.04000566461196654,0.007942267405170381,0.0,0.2703629147283292,-0.217976401161864,9.808038856589588
4415000000.0,21.78,-0.03247862959686213,0.0015192880501889655,0.0,0.22769121482901214,-0.035707713951377146,9.890147785756078
4420000000.0,21.78,-0.03136085798812058,-0.01602695339807879,0.0,0.3523762302383623,0.0027453404956534026,9.884162827321228
4425000000.0,21.78,-0.04196746392876198,-0.008091197165230341,0.0,0.4483168280993683,-0.17412964875789647,9.814414757850948
4430000000.0,21.78,-0.0564614013020165,0.006238844605700386,0.0,0.41378468138334684,-0.3935778883794789,9.849044402332044
4435000000.0,21.78,-0.054382922840200854,0.00449277046637252,0.0,0.3002838415663384,-0.4406638216871382,9.90554922771089
4440000000.0,21.78,-0.03906874328489816,-0.0018312556085439493,0.0,0.2888074349000743,-0.27467784395817846,9.883770855033308
4445000000.0,21.78,-0.02852878414705159,-0.006984072054385892,0.0,0.3977959316939593,-0.046988950273289504,9.847081627322416
4450000000.0,21.78,-0.02769846903553672,-0.002129207881046292,0.0,0.4404689135640891,0.033352617025426176,9.831582172871823
4455000000.0,21.78,-0.0387192232795775,0.008316578560315141,0.0,0.4210441616036416,-0.12733570372665703,9.85365493266515
4460000000.0,21.78,-0.0532674487708669,0.016539381559159936,0.0,0.29743738076687376,-0.32686954652059547,9.902999319780893
4465000000.0,21.78,-0.05244634220158255,0.008781912269415533,0.0,0.11203072036360721,-0.35610213272732133,9.956463213272732
4470000000.0,21.78,-0.04128328230377762,-0.01694554304959566,0.0,0.1832532310828323,-0.26074919222929194,9.939687071282972
4475000000.0,21.78,-0.03738671677364824,-0.030997750225300203,0.0,0.4483182169010822,-0.19227530462795306,9.814413543863436
4480000000.0,21.78,-0.0391965571218939,-0.012094282482556803,0.0,0.5744726427951264,-0.11575756490687565,9.711507512981376
4485000000.0,21.78,-0.03415017825091016,0.004578093172170882,0.0,0.4673473546110736,-0.06867,9.704150709810207
4490000000.0,21.78,-0.03647156098189623,0.014862506848364787,0.0,0.351589702297097,-0.07161430819294308,9.772134010490038
4495000000.0,21.78,-0.04905146933174564,0.01262662634949112,0.0,0.27468,-0.21719462233974623,9.839528187309982
4500000000.0,21.78,-0.053267458256906014,-0.002129311173472112,0.0,0.27468008740710087,-0.353160699256807,9.84924
4505000000.0,21.78,-0.05432146260272539,-0.0031833155192915897,0.0,0.2843919875042199,-0.430855900033759,9.84924
4510000000.0,21.78,-0.04492468922640677,-0.0052806871990724365,0.0,0.32294555040535555,-0.2970455735812557,9.830012224797322
4515000000.0,21.78,-0.03234013869584314,-0.0032578125464541073,0.0,0.3617931507938315,-0.06592109523701095,9.820104212301542
4520000000.0,21.78,-0.028890755589514625,-0.002171878192982378,0.0,0.3723876877955769,0.0070638145690381585,9.81981
4525000000.0,21.78,-0.042923015836647135,-0.002129301687433,0.0,0.3820995878926959,-0.12066423049774232,9.894366703141566
4530000000.0,21.78,-0.05769548292963329,-0.0011285203450601168,0.0,0.3733685120101851,-0.41339612768426126,9.953618927938889
4535000000.0,21.78,-0.059580837833925364,0.0019057536897107848,0.0,0.3910267761738678,-0.6141077617386776,9.984520164260802
4540000000.0,21.78,-0.04790149367422196,0.0011498133408543599,0.0,0.32922298271162986,-0.4924606772392068,10.031706440920264
4545000000.0,21.78,-0.024580298535634818,-0.0037795583996911835,0.0,0.32373,-0.1146752804719528,9.999921246875312
4550000000.0,21.78,-0.01758414425664513,-0.010007775479572753,0.0,0.42084997216119974,0.08044359080923594,9.961073646486836
4555000000.0,21.78,-0.03600284384973082,-0.00022347105540501504,0.0,0.45783296542622964,-0.1114437234098372,9.869840115245902
4560000000.0,21.78,-0.05522448511113859,0.01043367439361839,0.0,0.26251356283183563,-0.27546621716046216,9.867682888572528
4565000000.0,21.78,-0.056599796288639974,0.005227368281230413,0.0,0.19276605665176055,-0.42232183004471835,9.911533943348239
4570000000.0,21.78,-0.053714573224428686,-0.007644318294681084,0.0,0.2707568876676689,-0.45832337753353375,9.909473311233233
4575000000.0,21.78,-0.04329802183983723,-0.015026470217984358,0.0,0.33452153318331534,-0.30263681158616806,9.883084233408342
4580000000.0,21.78,-0.02812409074643948,-0.01777584867507142,0.0,0.4422358675320587,-0.09338924285789243,9.812746088311961
4585000000.0,21.78,-0.031754762600248974,-0.004846983261894583,0.0,0.5262091124649912,-0.05886,9.751335665651256
4590000000.0,21.78,-0.04525826845272247,0.011839072194286204,0.0,0.42692995182659954,-0.13930289155242892,9.74133
4595000000.0,21.78,-0.0513937020311255,0.01231798120290051,0.0,0.26712478270984785,-0.21258332476653324,9.773114757009449
4600000000.0,21.78,-0.049647606811710675,-0.002768257039942665,0.0,0.2746804467474045,-0.2884147147958471,9.77272191065052
4605000000.0,21.78,-0.05321426476558116,-0.00722898893621526,0.0,0.3232399472329995,-0.38935988391259885,9.732010052767
4610000000.0,21.78,-0.0485190379824506,-0.0016394942738829745,0.0,0.3411918895437189,-0.38906433136884333,9.737013779087437
4615000000.0,21.78,-0.04030777748886956,0.0016395817562436339,0.0,0.33579621035916213,-0.30705210359162105,9.831975475690054
4620000000.0,21.78,-0.03672659490586593,0.002129301687433,0.0,0.3409956897379569,-0.20247741288247412,9.918695517903656
4625000000.0,21.78,-0.03940957350819274,-0.002661685606532517,0.0,0.3359924101649241,-0.18393758983507588,9.959602769505228
4630000000.0,21.78,-0.04362559089147038,-0.008985711681449036,0.0,0.3843564295253643,-0.28076336911853367,9.95244102013561
4635000000.0,21.78,-0.050185963998061765,-0.0044288693448984616,0.0,0.44517834017588337,-0.44998641055696414,9.933017219941373
4640000000.0,21.78,-0.04913656437260539,0.006302840587565518,0.0,0.35512064810350646,-0.43674038886210387,9.899466839494268
4645000000.0,21.78,-0.03734903608372774,0.008825945702709712,0.0,0.31392,-0.25878581508185816,9.895445190223551
4650000000.0,21.78,-0.0315310986620487,0.00031928742847039254,0.0,0.3276541806413418,-0.13439618711396187,9.918891270962012
4655000000.0,21.78,-0.03823851670974832,-0.0031939525311496,0.0,0.32000201916442017,-0.17559990417789906,9.92095100958221
4660000000.0,21.78,-0.045894538979703116,-0.0039179249281973225,0.0,0.31392,-0.29940246720872465,9.904568218970182
4665000000.0,21.78,-0.05151082404803734,-0.00283195157656483,0.0,0.3270655812240558,-0.42222348734433485,9.924581162448112
4670000000.0,21.78,-0.04905137236334582,-0.00142662228617952,0.0,0.30764123716341235,-0.45459530929085307,9.93753
4675000000.0,21.78,-0.03856380406659664,-0.008677012780636702,0.0,0.3198063632250636,-0.32372818387468183,9.899270455162405
4680000000.0,21.78,-0.0340862802914492,-0.0127758101245984,0.0,0.4277173635507736,-0.20483207277292073,9.815885090966152
4685000000.0,21.78,-0.03811071973682208,-0.0060684110489769945,0.0,0.4683292179989922,-0.20748195500251954,9.749668044997481
4690000000.0,21.78,-0.04444556701517569,0.004471632409217123,0.0,0.4489054178047542,-0.2682060376833604,9.737602291097623
4695000000.0,21.78,-0.04817843753210341,0.011764441308571783,0.0,0.3816080880525809,-0.3361893383631934,9.783219338363194
4700000000.0,21.78,-0.04516557077484373,0.011924059726702688,0.0,0.27271690449766905,-0.3335395435406954,9.833544365167445
4705000000.0,21.78,-0.040719025293260554,0.0031086614454816147,0.0,0.23720598277795982,-0.29076803444408034,9.8781799569449
4710000000.0,21.78,-0.042497071600414556,-0.0076868684501218,0.0,0.2964590233748902,-0.3315789148609891,9.8926001085139
4715000000.0,21.78,-0.048383902789366134,-0.005035689158908426,0.0,0.3447235831664358,-0.40073895791608954,9.86052104208391
4720000000.0,21.78,-0.045166228853688296,0.0,0.0,0.3256915415983154,-0.36689308319663083,9.872392150082021
4725000000.0,21.78,-0.038131913656207814,-0.004098975470696112,0.0,0.3580659177745592,-0.3021476328901763,9.876707632890176
4730000000.0,21.78,-0.039665110537810536,-0.0074525559060157,0.0,0.40221,-0.2897874918745749,9.864347491874575
4735000000.0,21.78,-0.0426034870411815,-0.005759731120242947,0.0,0.40221,-0.2943,9.874059391971693
4740000000.0,21.78,-0.0426034870411815,0.0001704240706842308,0.0,0.4124125841376258,-0.3402116286193163,9.873568707931186
4745000000.0,21.78,-0.04532729804832551,0.010783287911586866,0.0,0.3768012705066127,-0.41761234516152346,9.888872768663727
4750000000.0,21.78,-0.044741455132478666,0.013316791937279485,0.0,0.2648687083172871,-0.3973039851064398,9.927720369052203
4755000000.0,21.78,-0.037365324701445546,0.002799901412417225,0.0,0.20581398472033985,-0.27605210695762106,9.91369105347881
4760000000.0,21.78,-0.03813205383878582,-0.00834694288770858,0.0,0.2629089245728892,-0.22955446228644463,9.855125537713555
4765000000.0,21.78,-0.04717911268550637,-0.013276206065806618,0.0,0.3508063404352634,-0.2919463404352634,9.825009207445593
4770000000.0,21.78,-0.04917914931018952,-0.010901964308448567,0.0,0.4059380779545808,-0.35610346325763464,9.810784614696948
4775000000.0,21.78,-0.0468795437085676,-0.0036197323427041893,0.0,0.4306591854972919,-0.3958337782459378,9.791360814502708
4780000000.0,21.78,-0.046411087261050796,0.0029384766337838125,0.0,0.4026015643881156,-0.3990705214627052,9.819418435611885
4785000000.0,21.78,-0.0426027181363719,0.0012029646720054105,0.0,0.3573783929428839,-0.34884285645692853,9.860423214114231
4790000000.0,21.78,-0.037450556762870235,-0.002022786116253243,0.0,0.37945117216001173,-0.30823029304000293,9.832758827839989
4795000000.0,21.78,-0.040587907532773346,0.005866337335796519,0.0,0.38209903431439035,-0.3420753519598535,9.83011096568561
4800000000.0,21.78,-0.04474320994604187,0.010220587389028401,0.0,0.3021467879548679,-0.3590454405945544,9.851201813531517
4805000000.0,21.78,-0.041538836197465,0.0022356654819871,0.0,0.22563,-0.32755599333135993,9.86238595998816
4810000000.0,21.78,-0.04437751083578288,-0.0042586033748661,0.0,0.2517252539993525,-0.3670910408563104,9.913201573713916
4815000000.0,21.78,-0.04979670732047465,-0.007016120110524897,0.0,0.3124489676279897,-0.4544981417303814,9.941159793525598
4820000000.0,21.78,-0.048448872481180454,-0.012094443745221733,0.0,0.37866693622716935,-0.4959932255091323,9.950871693622718
4825000000.0,21.78,-0.04180494805268447,-0.007931516560843002,0.0,0.44831718743967186,-0.4331104690818047,9.943415625120656
4830000000.0,21.78,-0.034362977512313736,0.002512616717898931,0.0,0.4443925309152253,-0.2929246298439463,9.911239012366089
4835000000.0,21.78,-0.02944448415062125,0.0053232542185827,0.0,0.40230781825777817,-0.16990957565629575,9.888577818257778
4840000000.0,21.78,-0.03924489802904683,0.006004651164085395,0.0,0.35433635389926355,-0.25584658621266587,9.865720705988807
4845000000.0,21.78,-0.050914662325972325,0.00844271183057844,0.0,0.26692925302519255,-0.4221255234080552,9.85905
4850000000.0,21.78,-0.055929024760947424,0.0068136427136800265,0.0,0.20601,-0.5277785652325857,9.861993094205431
4855000000.0,21.78,-0.049727664472062824,-0.005216891478032944,0.0,0.2202349715127497,-0.5348400683694007,9.86886
4860000000.0,21.78,-0.04068701307326938,-0.014569372101430769,0.0,0.29076962719569627,-0.4073096896052969,9.855125528001656
4865000000.0,21.78,-0.032446697481201194,-0.017739126005986143,0.0,0.41967312295503123,-0.2704608495289085,9.811863616509637
4870000000.0,21.78,-0.03421416158472315,-0.009688168687785596,0.0,0.5173793054060931,-0.2340676405329764,9.79038
4875000000.0,21.78,-0.04633423125121105,0.004524858574676571,0.0,0.47087848494358486,-0.3458037309833373,9.787927405308976
4880000000.0,21.78,-0.0527989406771371,0.010944579812158751,0.0,0.33196954690669545,-0.45322247394072473,9.787633484364436
4885000000.0,21.78,-0.04745443456892967,0.006558166816314202,0.0,0.27163918465579184,-0.48373081534420814,9.80323081534421
4890000000.0,21.78,-0.04510835249017001,-0.0011711674689007046,0.0,0.3007748849471489,-0.4438036401409364,9.776253410035235
4895000000.0,21.78,-0.04103837807000036,-0.004876080226816658,0.0,0.3319707803180078,-0.36404824428448246,9.765070390159003
4900000000.0,21.78,-0.03642857412308109,-0.0019163095432342258,0.0,0.3668941903532419,-0.3099967614129676,9.790380475883106
4905000000.0,21.78,-0.04316050449325863,0.004003128531504689,0.0,0.36022205671512053,-0.3839639716424397,9.851987943284879
4910000000.0,21.78,-0.049690201235333985,0.004769490875332585,0.0,0.26487,-0.43870358148343586,9.954403581483437
4915000000.0,21.78,-0.04812519555657872,-0.009446534182834147,0.0,0.2948903184236032,-0.49089354561573545,9.981576613596067
4920000000.0,21.78,-0.04866813638320588,-0.01747483071861733,0.0,0.4508681733905818,-0.5697636532188366,9.943022739914127
4925000000.0,21.78,-0.044321597408489226,-0.007079834673229723,0.0,0.49589521301335215,-0.4443912780801128,9.871803191324432
4930000000.0,21.78,-0.029976738427186175,0.0025552659497481535,0.0,0.4640125212033252,-0.2915530084813301,9.88023902544399
4935000000.0,21.78,-0.032832407036753164,0.012405503442981075,0.0,0.40397445800964454,-0.2861585627080856,9.841098562708085
4940000000.0,21.78,-0.04645373543889571,0.01564431856326992,0.0,0.27507163237141635,-0.37356566358215665,9.921441887860718
4945000000.0,21.78,-0.0506696590157866,0.0033321799310821166,0.0,0.2146435684055357,-0.4663687447096874,9.945181607898617
4950000000.0,21.78,-0.04730544578462632,-0.012349908048539695,0.0,0.28841438459124386,-0.5944865768868658,9.929682192295623
4955000000.0,21.78,-0.049986627862463835,-0.008421377728614739,0.0,0.32549599248985994,-0.6262680901216809,9.942042022530421
4960000000.0,21.78,-0.0373226933876702,-0.007622920952456569,0.0,0.34805937805229376,-0.39632207315902074,9.883770621947706
4965000000.0,21.78,-0.026388969820273327,-0.009134641441508932,0.0,0.40701757507417574,-0.21856718575667186,9.827559610682496
4970000000.0,21.78,-0.03798406499358896,-0.003066173476297219,0.0,0.46911391039113914,-0.2638904480443045,9.801367393072574
4975000000.0,21.78,-0.04922181751411697,-0.0009581647846583682,0.0,0.43899701683297015,-0.40760656296746567,9.818828806733189
4980000000.0,21.78,-0.05313965917597106,0.001320230033508174,0.0,0.3912225098084251,-0.5144374640357746,9.802152483652625
4985000000.0,21.78,-0.04988127226626352,0.0074525559060157,0.0,0.3594372380682724,-0.6150860317235604,9.84924
4990000000.0,21.78,-0.04343379899068338,0.00721821701180098,0.0,0.24564259384952594,-0.5154151707304517,9.849632593849526
4995000000.0,21.78,-0.031967635641956677,-0.0042905744886878395,0.0,0.26595016724070164,-0.2941036059562361,9.868761802978117
5000000000.0,21.78,-0.0330217561010418,-0.007452524285885326,0.0,0.3727802913570029,-0.27468116542801163,9.859049902880999
5005000000.0,21.78,-0.04568708701064232,-0.004290511248427091,0.0,0.40191599164835995,-0.3912239665934397,9.84933800278388
5010000000.0,21.78,-0.04894499802874834,-0.005301971762831913,0.0,0.3541405134338051,-0.4981528704456287,9.810784410747045
5015000000.0,21.78,-0.05107428917613799,-0.0011923666583081314,0.0,0.4007389870517899,-0.5669205818725058,9.829031594820716
5020000000.0,21.78,-0.047049845514747723,-4.257545154502792e-05,0.0,0.39279230249252306,-0.5407269074775691,9.867290790029907
5025000000.0,21.78,-0.03776010285855262,-0.005057144471371943,0.0,0.37376080479080803,-0.4370344263494443,9.850220804790808
5030000000.0,21.78,-0.0372802328225988,-0.003321689425828148,0.0,0.4096659908068599,-0.3855325114914251,9.886125990806859
5035000000.0,21.78,-0.04025064051803931,0.00868767825061206,0.0,0.3755264088046641,-0.4464537845918378,9.861109806603498
5040000000.0,21.78,-0.0404741853537485,0.008602368192865814,0.0,0.2554511273526113,-0.43320940420809406,9.931252383167624
5045000000.0,21.78,-0.043380714061806186,-0.00020237937444075177,0.0,0.26310439598614394,-0.46734879197228796,9.955384395986144
5050000000.0,21.78,-0.04462633428968685,-0.008730222082026713,0.0,0.29135729427057294,-0.5326836866313369,9.913004509549044
5055000000.0,21.78,-0.04378523882172298,-0.012424507314123753,0.0,0.3554169873111699,-0.46097101631421017,9.88190700543807
5060000000.0,21.78,-0.03710981402193634,-0.0127758101245984,0.0,0.42340028799100293,-0.43399420343114203,9.809606813724569
5065000000.0,21.78,-0.04269938035656421,-0.0016607271914295153,0.0,0.43164,-0.47431399190773993,9.808724798381549
5070000000.0,21.78,-0.0436681378848981,0.005493662479201711,0.0,0.37258311064933114,-0.48912669847866697,9.852183492393335
5075000000.0,21.78,-0.041858210054291745,0.001863085485783355,0.0,0.32127700712107005,-0.44046840854528413,9.834034204272642
5080000000.0,21.78,-0.03975020136265289,0.00017033342631048642,0.0,0.34688199469161995,-0.44812099734580996,9.837860498672905
5085000000.0,21.78,-0.044726046435602004,-0.001767341839017784,0.0,0.3775871963100719,-0.47568719631007195,9.831287601229976
5090000000.0,21.78,-0.04492755656747516,0.003108844842237704,0.0,0.358457103398571,-0.45655710339857103,9.813531402265715
5095000000.0,21.78,-0.045609303995341015,0.006845737146010128,0.0,0.3054828062144281,-0.49099099482131,9.841784795857048
5100000000.0,21.78,-0.04751835571648624,0.0014904359252928484,0.0,0.255059504693095,-0.5317023962455241,9.872784297184143
5105000000.0,21.78,-0.04710310962436372,-0.0050465095675225925,0.0,0.27624999663399996,-0.5318000008415,9.9329199941095
5110000000.0,21.78,-0.04271373781369658,-0.013031412502485708,0.0,0.42222418660114186,-0.567999496278095,9.924384302233143
5115000000.0,21.78,-0.043998211993843565,-0.005887400558643402,0.0,0.506392796116428,-0.571236200647262,9.902802401294524
5120000000.0,21.78,-0.03825962525478204,0.0016609200742247988,0.0,0.44537300550143005,-0.48696730605157307,9.913201398899712
5125000000.0,21.78,-0.03222308729722255,0.008783445085473261,0.0,0.39975720135907206,-0.40956680317116806,9.939982798640928
5130000000.0,21.78,-0.03640729482934341,0.009858655998730528,0.0,0.356102501779525,-0.45047599715276,9.925561501067714
5135000000.0,21.78,-0.04535247821214717,0.004141416009684844,0.0,0.293220201811502,-0.513848398447284,9.90358720051757
5140000000.0,21.78,-0.04486539023348186,-0.002470054968410402,0.0,0.27468,-0.5438665996766661,9.891226700161667
5145000000.0,21.78,-0.044424050829641536,-0.006526342209096472,0.0,0.30950599967726,-0.6050815994836161,9.895445199935452
5150000000.0,21.78,-0.04175172294122928,-0.0074525559060157,0.0,0.303128699902287,-0.545434799609148,9.891422899967429
5155000000.0,21.78,-0.033862605813205514,-0.01112565565076179,0.0,0.32137600051876003,-0.38150899753588996,9.86140399948124
5160000000.0,21.78,-0.03234027466240381,-0.011327863222494263,0.0,0.4536162040825621,-0.357084501134045,9.822556399092765
5165000000.0,21.78,-0.043019900676380285,-0.004226565858770606,0.0,0.51012,-0.4976632061546321,9.796854399352144
5170000000.0,21.78,-0.05075491637331557,0.006664834164119848,0.0,0.432423594947436,-0.572119400842094,9.751531797473717
5175000000.0,21.78,-0.0452711135345699,0.009262440522443927,0.0,0.31588079378200795,-0.540530396891004,9.737896600518166
5180000000.0,21.78,-0.04017606127853777,0.0044288819929506115,0.0,0.293515501845855,-0.488537496923575,9.747608500615284
5185000000.0,21.78,-0.037397311625332455,0.00011707880273361662,0.0,0.291749198575192,-0.44615839715038397,9.788222404274425
5190000000.0,21.78,-0.03819586536989038,-0.004365123162063322,0.0,0.30881920323809203,-0.45596920323809204,9.816082300809523
5195000000.0,21.78,-0.043966316958401065,-0.003790113199210205,0.0,0.341682602719926,-0.5785956163195562,9.84973100453321
5200000000.0,21.78,-0.050073551047943206,-0.0014905002195579034,0.0,0.341387797992478,-0.6886627070263271,9.92772101003761
5205000000.0,21.78,-0.04591095060491168,-0.006718045573518511,0.0,0.36248000550440007,-0.65246198789032,9.95538399779824
5210000000.0,21.78,-0.03721627689289885,-0.0106465084371654,0.0,0.46224861677198614,-0.5513209880200098,9.930270296406002
5215000000.0,21.78,-0.03347941831726547,-0.0033641647469603905,0.0,0.514338198704882,-0.498936397409764,9.88995099352441
5220000000.0,21.78,-0.034810275876592585,0.008687671926585993,0.0,0.4387018819009188,-0.47401889582328893,9.896328506961185
5225000000.0,21.78,-0.03797228891405082,0.015021198416543018,0.0,0.3232383836170838,-0.49883921042549206,9.923305601489355
5230000000.0,21.78,-0.04344341683217521,0.011378411145632273,0.0,0.2428949904811499,-0.5827150158647502,9.98069501586475
5235000000.0,21.78,-0.04461318935224235,-0.0015758598155084956,0.0,0.22101940168359402,-0.6590364101015642,10.036218803367188
5240000000.0,21.78,-0.042049857556483376,-0.014573598848923876,0.0,0.27154171602641713,-0.656092189315722,10.014832189315722
5245000000.0,21.78,-0.03610900632945477,-0.017552219519014544,0.0,0.37395842253398426,-0.5928175868551759,9.931544779343847
5250000000.0,21.78,-0.0308923277602996,-0.012252133698253755,0.0,0.44145020394990203,-0.48559347037573475,9.844334286175343
5255000000.0,21.78,-0.03141401775130636,-0.0043436868216780765,0.0,0.45126,-0.3639499792792998,9.78596498963965
5260000000.0,21.78,-0.03502323956267407,0.001533130479328962,0.0,0.441842195661622,-0.3798446303686463,9.76095
5265000000.0,21.78,-0.043357056847870445,0.005695937507212276,0.0,0.40397518640215185,-0.5480868475924685,9.76095
5270000000.0,21.78,-0.050967847385262374,0.009496707744363135,0.0,0.3141148692754487,-0.7069097259976973,9.769975404726853
5275000000.0,21.78,-0.04894765861217739,0.005855468442982487,0.0,0.24525,-0.7210339753945398,9.789399204921093
5280000000.0,21.78,-0.03757819036512286,-0.0037476600121693466,0.0,0.2711490153459901,-0.5807499488466996,9.787240492327005
5285000000.0,21.78,-0.029827676916583,-0.012187199877144762,0.0,0.3252020132739201,-0.41604076548780766,9.77076
5290000000.0,21.78,-0.03340499296239844,-0.013020055674774574,0.0,0.38612242201522423,-0.3680718165114182,9.762519394496193
5295000000.0,21.78,-0.04402677380101807,-0.004396929851207107,0.0,0.43968440569804407,-0.49069846267848466,9.77125101424511
5300000000.0,21.78,-0.05348041245694838,0.003832843589394111,0.0,0.41986717643087174,-0.6808156471382566,9.815886411784565
5305000000.0,21.78,-0.051659725349979944,0.007505732533271001,0.0,0.33834597261065974,-0.7711639969567401,9.88151603347586
5310000000.0,21.78,-0.04297621083122404,0.001021975261758643,0.0,0.3143132251230323,-0.7241730654558307,9.954795806280758
5315000000.0,21.78,-0.03558735955262618,-0.0034707393423834606,0.0,0.38111901618749017,-0.6028229514375295,9.959700393525004
5320000000.0,21.78,-0.030125756723611206,-0.0009794451324004615,0.0,0.40848829666538294,-0.47127126331921265,9.936744889996149
5325000000.0,21.78,-0.02913566509331356,0.0021825679050577087,0.0,0.39877639656826397,-0.41594441372694413,9.928210810295207
5330000000.0,21.78,-0.035625491581030566,0.005706573465065913,0.0,0.35904496471144964,-0.5081600705771008,9.96068201411542
5335000000.0,21.78,-0.048284927807178926,0.005003746503204052,0.0,0.27163817461818174,-0.6635492290077923,9.989817403625974
5340000000.0,21.78,-0.048066266104488914,-0.006563980773400729,0.0,0.25388373350783733,-0.7067120888307209,9.968136266492163
5345000000.0,21.78,-0.039888571053172076,-0.015651752214018287,0.0,0.3473732420223324,-0.6927824076404241,9.902017592359575
5350000000.0,21.78,-0.03653498850984375,-0.011391639971455427,0.0,0.42477310391733103,-0.6798320647440206,9.88848
5355000000.0,21.78,-0.03542767262421277,-0.0022676724319565847,0.0,0.4231049879566499,-0.5611299197109992,9.8770999839422
5360000000.0,21.78,-0.029103646549296276,0.0,0.0,0.3939692876652929,-0.4108423835537238,9.843746191776862
5365000000.0,21.78,-0.029966296406132145,0.0008624011118102838,0.0,0.370131195791312,-0.44351249679982496,9.832268804208688
5370000000.0,21.78,-0.047228711624600433,0.00291713199177661,0.0,0.3451150698593507,-0.6515819731987197,9.836879295694192
5375000000.0,21.78,-0.051665995690948235,0.0015969536044813147,0.0,0.29675260440292606,-0.7553691647765917,9.812451769179518
5380000000.0,21.78,-0.0411128624491108,-0.000255527543578721,0.0,0.3111735135001351,-0.6706104504995045,9.75624099099991
5385000000.0,21.78,-0.0332665104934143,-0.0010646508437165,0.0,0.33805280919432806,-0.5660359540283595,9.754868427582984
5390000000.0,21.78,-0.0340862802914492,-0.0029385272259923895,0.0,0.35747660938856607,-0.4753918671400187,9.802348304694284
5395000000.0,21.78,-0.03430986834133656,-0.0095818575934488,0.0,0.3892616383312164,-0.45067286707962867,9.81
5400000000.0,21.78,-0.03834854526013395,-0.006600675865585412,0.0,0.45322210488852105,-0.6101847271015474,9.82765894399669
5405000000.0,21.78,-0.0511381470834338,0.005930139380862059,0.0,0.4275179102584791,-0.8310060448707606,9.9076100249282
5410000000.0,21.78,-0.047876979848492054,0.006984018300164312,0.0,0.2809581898344819,-0.8566064678482647,9.943808189834483
5415000000.0,21.78,-0.03121160886474393,-0.0005430061748966276,0.0,0.2898870776981708,-0.6124360912225609,9.917713168920733
5420000000.0,21.78,-0.023226898812576075,-0.0030235969707478353,0.0,0.41358970527699707,-0.4445894105539941,9.862581178892011
5425000000.0,21.78,-0.02945517491670096,-0.0013307563749098493,0.0,0.4203583946258839,-0.46842802687058027,9.841392842992928
5430000000.0,21.78,-0.039707659639246926,0.004237390483402181,0.0,0.3996584507588845,-0.5307225820685258,9.902605978115059
5435000000.0,21.78,-0.04251001778028543,0.009954428103613454,0.0,0.31480216102152164,-0.680227300230373,9.882889461251894
5440000000.0,21.78,-0.04849567253765233,0.003790019392823502,0.0,0.2538826943345269,-0.831495388669054,9.981479222661893
5445000000.0,21.78,-0.04367868109036929,-0.008859952807352342,0.0,0.2603588806762888,-0.7969627077985272,10.004138736611488
5450000000.0,21.78,-0.034405595124032545,-0.0197116909404486,0.0,0.39730658789566586,-0.6474589414028894,9.901232258982022
5455000000.0,21.78,-0.0279858654545157,-0.01298851030959348,0.0,0.5270909821295098,-0.55828699404317,9.83943
5460000000.0,21.78,-0.0313182456464235,0.007069373680097434,0.0,0.4846118789210188,-0.5446505636763057,9.84021490605395
5465000000.0,21.78,-0.03606650782022698,0.01408520393942727,0.0,0.3034231938489319,-0.4918736123021361,9.84924
5470000000.0,21.78,-0.034725186105754556,0.003066171368288527,0.0,0.2990096499854965,-0.5230715374601154,9.849828706248188
5475000000.0,21.78,-0.04515961425071033,0.0010646508437165,0.0,0.3713081809640818,-0.7347709142155092,9.860031212690611
5480000000.0,21.78,-0.052840774593427974,0.0008942605011713352,0.0,0.3421724806727248,-0.8978099226908992,9.878277493557574
5485000000.0,21.78,-0.04199641637413727,-0.0033217568821062773,0.0,0.3153920326977203,-0.7777342430509425,9.867682373841824
5490000000.0,21.78,-0.022396425600409345,-0.007324728366963414,0.0,0.36375522654665227,-0.5468080137233802,9.829227386726673
5495000000.0,21.78,-0.023557010865677987,-0.0010646508437165,0.0,0.40201358653243585,-0.42212462020134617,9.81
5500000000.0,21.78,-0.03515103548159594,-0.001064697219907716,0.0,0.38259042732360427,-0.45126160246351604,9.809999572676396
5505000000.0,21.78,-0.04463707459397074,-0.005280714603185428,0.0,0.4214380277120803,-0.5969401039203011,9.77115197228792
5510000000.0,21.78,-0.04788000147160641,0.004067070759148143,0.0,0.44105781405027816,-0.8483715826536158,9.78998781405028
5515000000.0,21.78,-0.052075086328576055,0.012520386927449905,0.0,0.27968127892161276,-0.9391122641003227,9.88553807122258
5520000000.0,21.78,-0.03685489588293584,0.0035771221090157516,0.0,0.23700917112249173,-0.7251527339543273,9.973239364974393
5525000000.0,21.78,-0.01699841296158631,-0.015028367356691798,0.0,0.34727528779795286,-0.4924594244040943,9.892893534151534
5530000000.0,21.78,-0.020991133200176062,-0.006963758608761661,0.0,0.4545965815497658,-0.45302547775915475,9.85159397034554
5535000000.0,21.78,-0.04012307226405605,0.006483875319999064,0.0,0.3972061474248615,-0.5972345201717452,9.89485703755367
5540000000.0,21.78,-0.041538836197465,0.005493574996841036,0.0,0.3382481543528815,-0.6443212304314123,9.916340615215706
5545000000.0,21.78,-0.03572577245732347,-0.0004898095215587423,0.0,0.37817603852486037,-0.7456592847546928,9.900055584590055
5550000000.0,21.78,-0.04281651080551077,0.0008517440738696771,0.0,0.3384444609895446,-0.861319293625093,9.924777323406273
5555000000.0,21.78,-0.03893038308041809,-0.003673103960763424,0.0,0.32480899210078995,-0.8207039526047396,9.96264403159684
5560000000.0,21.78,-0.02897583903632659,-0.009880030152859438,0.0,0.37552744797797444,-0.6415718400734185,9.897896736029367
5565000000.0,21.78,-0.01936205354323414,-0.0023101867512495353,0.0,0.4764728890279289,-0.5241471109720711,9.854340767626208
5570000000.0,21.78,-0.02818824377495207,0.004429017959511286,0.0,0.389259501713195,-0.5354301245717014,9.882986832762269
5575000000.0,21.78,-0.03797236164035067,0.001703394341352606,0.0,0.30607113369851136,-0.6229360828768609,9.905157216575372
5580000000.0,21.78,-0.040303852981442345,-0.0034069415133353804,0.0,0.37670508384805085,-0.6788525419240254,9.850416441306365
5585000000.0,21.78,-0.03959051338023518,-0.0016075874543263033,0.0,0.4005424084819241,-0.7681240848192409,9.79871795759038
5590000000.0,21.78,-0.0402825599856481,-0.0001916253681003838,0.0,0.37003276568382765,-0.8330658514742585,9.81451292573713
5595000000.0,21.78,-0.03529991148743429,-0.0017247579554379893,0.0,0.3391313739715137,-0.6688434091244342,9.795971373971515
5600000000.0,21.78,-0.022162025573942496,-0.00468449912689878,0.0,0.36493243509312434,-0.48657404208094046,9.751139456133595
5605000000.0,21.78,-0.0250687703528911,-0.0011178243089587838,0.0,0.3882800177408002,-0.4745100266112003,9.772330035481602
5610000000.0,21.78,-0.03992075612987603,0.0,0.0,0.34648854619488545,-0.656683906252939,9.818829544837596
5615000000.0,21.78,-0.04942012801709269,-0.0008197929861305085,0.0,0.33354,-0.7969657087756572,9.82962
5620000000.0,21.78,-0.04222427101633778,0.0005536421327502739,0.0,0.3484514183235142,-0.816584290838243,9.784885745029458
5625000000.0,21.78,-0.033820034577677814,-0.0005323491369560308,0.0,0.3458023907411239,-0.7700843444467435,9.822263264812133
5630000000.0,21.78,-0.03116912511157696,-0.0034282113210340054,0.0,0.38690705613597054,-0.7118129438640294,9.875727546779975
5635000000.0,21.78,-0.029337913771215484,-0.002704189385781982,0.0,0.44517845671868456,-0.6392187243750873,9.866995771640658
5640000000.0,21.78,-0.0279964655762216,0.0063028637756611244,0.0,0.4045635235981352,-0.6250933095502331,9.880239928650699
5645000000.0,21.78,-0.03147794522288904,0.006558201598457611,0.0,0.3756247903526479,-0.6626660482367606,9.979027725415577
5650000000.0,21.78,-0.03898376945453817,0.00010638171262795579,0.0,0.34531156102211563,-0.8004979754004797,10.036611329233413
5655000000.0,21.78,-0.03933497318860432,-0.0006600596815259277,0.0,0.34030900984159007,-0.8737770295247703,9.99805693110887
5660000000.0,21.78,-0.029657189605638085,0.0,0.0,0.3233372701838727,-0.7828363509193635,9.956757270183873
5665000000.0,21.78,-0.020575777491601648,-0.005706624057274546,0.0,0.3467840501791405,-0.6437306594984066,9.927621569892516
5670000000.0,21.78,-0.023737969709798672,-0.0057064807126834816,0.0,0.427717101329471,-0.5919352898670529,9.879061739202317
5675000000.0,21.78,-0.030785934453623896,0.0026617467387845956,0.0,0.4355635590797356,-0.6587427125307271,9.846296779539868
5680000000.0,21.78,-0.03506579498813655,0.002980962494959429,0.0,0.36532340705533406,-0.6902314896728149,9.870822551635925
5685000000.0,21.78,-0.03554483996331143,-0.004972027296420952,0.0,0.3149987687270877,-0.7237824625458247,9.913201641697217
5690000000.0,21.78,-0.0351509311351657,-0.007857111232058553,0.0,0.37101541573565416,-0.800300794692808,9.891226136871461
5695000000.0,21.78,-0.03320258407583595,-0.0016075147280265037,0.0,0.4060357893814579,-0.7859763150516632,9.820986315051664
5700000000.0,21.78,-0.025568953385221437,0.0014904991655535576,0.0,0.34923500355905,-0.643533896402439,9.766835557137355
5705000000.0,21.78,-0.02068231414286838,-0.004588753372124565,0.0,0.37180010812780107,-0.5226759134977591,9.76271602162556
5710000000.0,21.78,-0.027655933636156885,-0.003577130541050532,0.0,0.42339982181979824,-0.6042982181979822,9.725240712720806
5715000000.0,21.78,-0.041527660416598694,0.004854904225504792,0.0,0.3701300789228008,-0.7873525981263261,9.737014488056145
5720000000.0,21.78,-0.04435712132905814,0.003747474507404483,0.0,0.2797803111669031,-0.8413051555834516,9.820203399937233
5725000000.0,21.78,-0.03451199580873871,-0.007612410421120126,0.0,0.2992061120125611,-0.7970619439937195,9.848258777597488
5730000000.0,21.78,-0.028188102538369786,-0.01154076683032804,0.0,0.41221764687887646,-0.7379074209113742,9.82883497740325
5735000000.0,21.78,-0.02826265226574959,-0.0033748101908531343,0.0,0.43968353162703533,-0.6803229430225294,9.814610588604506
5740000000.0,21.78,-0.02820939553416403,0.002129301687433,0.0,0.4069186885073869,-0.6317634425369344,9.799797377014775
5745000000.0,21.78,-0.029327327351566096,0.0037582538098491474,0.0,0.4122164231794642,-0.6232296347691964,9.785376788410268
5750000000.0,21.78,-0.03408635301774906,0.00851727947603216,0.0,0.3678737714446377,-0.721036898676469,9.82471600518166
5755000000.0,21.78,-0.04041037909266558,0.008059321965804014,0.0,0.2850779292961793,-0.8909462121114621,9.921737129623672
5760000000.0,21.78,-0.040090826055100066,-0.0003407975491598993,0.0,0.27389564752435647,-0.9480376168323762,9.986187823762178
5765000000.0,21.78,-0.029210009289845948,-0.007324846415450196,0.0,0.33579730780387307,-0.8155029484576295,9.991779188021791
5770000000.0,21.78,-0.018861712410251905,-0.008602354490809273,0.0,0.42320440867794407,-0.6792437275480373,9.98658
5775000000.0,21.78,-0.01982005637564909,-0.004098820532057275,0.0,0.44439232696532327,-0.6651184486897845,9.995409224344893
5780000000.0,21.78,-0.027783632586678916,0.0,0.0,0.3990704631913046,-0.6996495368086955,9.984617438652176
5785000000.0,21.78,-0.03149916654638772,0.0,0.0,0.3741531752666318,-0.71613,9.923402701066527
5790000000.0,21.78,-0.03133949332003085,0.002235827798656357,0.0,0.36709031246380314,-0.7696940620294406,9.89103093739141
5795000000.0,21.78,-0.034139573913186845,0.003140658909411953,0.0,0.3486467246344672,-0.8798599130482991,9.92821106280461
5800000000.0,21.78,-0.034724997438976654,-0.0012776176918110743,0.0,0.32569233797412334,-0.9044812113937121,9.945377662025876
5805000000.0,21.78,-0.026740067099900545,-0.002363500399069781,0.0,0.34335,-0.7791077193864773,9.916241961734519
5810000000.0,21.78,-0.018216289030483494,-0.004301287388858761,0.0,0.3470779128522791,-0.6176366971817671,9.890834174295442
