#timestamp [ns], temperature [degC], w_RS_S_x [rad s^-1], w_RS_S_y [rad s^-1], w_RS_S_z [rad s^-1], a_RS_S_x [m s^-2], a_RS_S_y [m s^-2], a_RS_S_z [m s^-2]
0,22.72,0.0,0.0,0.0,0.019620000000000002,0.15696000000000002,9.80019
5050505,22.72,0.0,0.0,0.0,0.009810000000000001,0.15696000000000002,9.819809999999999
10101010,22.72,0.0,0.0,0.0,0.019620000000000002,0.16677000000000003,9.80019
15151515,22.72,0.0,0.0,0.0,0.019620000000000002,0.15696000000000002,9.79038
20202020,22.72,0.0,0.0,0.0,0.02943,0.15696000000000002,9.79038
25252525,22.72,0.0,0.0,0.0,0.02943,0.13734000000000002,9.770760000000001
30303030,22.72,0.0,0.0,0.0,0.02943,0.16677000000000003,9.81
35353535,22.72,0.0,0.0,0.0,0.039240000000000004,0.14715,9.79038
40404040,22.72,0.0,0.0,0.0,0.02943,0.12753,9.819809999999999
45454545,22.72,0.0,0.0,0.0,0.039240000000000004,0.16677000000000003,9.80019
50505050,22.72,0.0,0.0,0.0,0.039240000000000004,0.15696000000000002,9.81
55555555,22.72,0.0,0.0,0.0,0.009810000000000001,0.14715,9.819809999999999
60606060,22.72,0.0,0.0,0.0,0.02943,0.16677000000000003,9.79038
65656565,22.72,0.0,0.0,0.0,0.019620000000000002,0.15696000000000002,9.80019
70707070,22.72,0.0,0.0,0.0,0.019620000000000002,0.16677000000000003,9.80019
75757575,22.72,0.0,0.0,0.0,0.039240000000000004,0.15696000000000002,9.80019
80808080,22.72,0.0,0.0,0.0,0.039240000000000004,0.16677000000000003,9.79038
85858585,22.72,0.0,0.0,0.0,0.04905,0.14715,9.79038
90909090,22.72,0.0,0.0,0.0,0.039240000000000004,0.13734000000000002,9.79038
95959595,22.72,0.0,0.0,0.0,0.02943,0.16677000000000003,9.81
101010100,22.72,0.0,0.0,0.0,0.009810000000000001,0.15696000000000002,9.80019
106060605,22.72,0.0,0.0,0.0,0.02943,0.15696000000000002,9.819809999999999
111111110,22.72,0.0,0.0,0.0,0.039240000000000004,0.16677000000000003,9.80019
116161615,22.72,0.0,0.0,0.0,0.039240000000000004,0.14715,9.80019
121212120,22.72,0.0,0.0,0.0,0.02943,0.13734000000000002,9.80019
126262625,22.72,0.0,0.0,0.0,0.019620000000000002,0.13734000000000002,9.81
131313130,22.72,0.0,0.0,0.0,0.0,0.15696000000000002,9.79038
136363635,22.72,0.0,0.0,0.0,0.019620000000000002,0.13734000000000002,9.78057
141414140,22.72,0.0,0.0,0.0,0.02943,0.16677000000000003,9.78057
146464645,22.72,0.0,0.0,0.0,0.019620000000000002,0.17658,9.79038
151515150,22.72,0.0,0.0,0.0,0.019620000000000002,0.15696000000000002,9.81
156565655,22.72,0.0,0.0,0.0,0.02943,0.14715,9.79038
161616160,22.72,0.0,0.0,0.0,0.039240000000000004,0.16677000000000003,9.80019
166666665,22.72,0.0,0.0,0.0,0.039240000000000004,0.14715,9.80019
171717170,22.72,0.0,0.0,0.0,0.039240000000000004,0.13734000000000002,9.81
176767675,22.72,0.0,0.0,0.0,0.009810000000000001,0.14715,9.80019
181818180,22.72,0.0,0.0,0.0,0.009810000000000001,0.15696000000000002,9.81
186868685,22.72,0.0,0.0,0.0,0.02943,0.14715,9.79038
191919190,22.72,0.0,0.0,0.0,0.039240000000000004,0.16677000000000003,9.80019
196969695,22.72,0.0,0.0,0.0,0.019620000000000002,0.17658,9.81
202020200,22.72,0.0,0.0,0.0,0.02943,0.16677000000000003,9.819809999999999
207070705,22.72,0.0,0.0,0.0,0.039240000000000004,0.18639,9.81
212121210,22.72,0.0,0.0,0.0,0.019620000000000002,0.15696000000000002,9.80019
217171715,22.72,0.0,0.0,0.0,0.0,0.13734000000000002,9.81
222222220,22.72,0.0,0.0,0.0,0.039240000000000004,0.15696000000000002,9.81
227272725,22.72,0.0,0.0,0.0,0.009810000000000001,0.15696000000000002,9.80019
232323230,22.72,0.0,0.0,0.0,0.02943,0.16677000000000003,9.80019
237373735,22.72,0.0,0.0,0.0,0.009810000000000001,0.15696000000000002,9.81
242424240,22.72,0.0,0.0,0.0,0.019620000000000002,0.16677000000000003,9.81
247474745,22.72,0.0,0.0,0.0,0.039240000000000004,0.14715,9.78057
252525250,22.72,0.0,0.0,0.0,0.009810000000000001,0.16677000000000003,9.80019
257575755,22.72,0.0,0.0,0.0,0.039240000000000004,0.13734000000000002,9.79038
262626260,22.72,0.0,0.0,0.0,0.019620000000000002,0.14715,9.81
267676765,22.72,0.0,0.0,0.0,0.039240000000000004,0.14715,9.81
272727270,22.72,0.0,0.0,0.0,0.04905,0.16677000000000003,9.80019
277777775,22.72,0.0,0.0,0.0,0.039240000000000004,0.16677000000000003,9.80019
282828280,22.72,0.0,0.0,0.0,0.009810000000000001,0.16677000000000003,9.80019
287878785,22.72,0.0,0.0,0.0,0.039240000000000004,0.14715,9.80019
292929290,22.72,0.0,0.0,0.0,0.019620000000000002,0.16677000000000003,9.79038
297979795,22.72,0.0,0.0,0.0,0.009810000000000001,0.13734000000000002,9.80019
303030300,22.72,0.0,0.0,0.0,0.009810000000000001,0.16677000000000003,9.80019
308080805,22.72,0.0,0.0,0.0,0.009810000000000001,0.16677000000000003,9.80019
313131310,22.72,0.0,0.0,0.0,0.039240000000000004,0.18639,9.81
318181815,22.72,0.0,0.0,0.0,0.039240000000000004,0.16677000000000003,9.80019
323232320,22.72,0.0,0.0,0.0,0.039240000000000004,0.16677000000000003,9.81
328282825,22.72,0.0,0.0,0.0,0.02943,0.15696000000000002,9.80019
333333330,22.72,0.0,0.0,0.0,0.009810000000000001,0.15696000000000002,9.79038
338383835,22.72,0.0,0.0,0.0,0.009810000000000001,0.16677000000000003,9.81
343434340,22.72,0.0,0.0,0.0,0.009810000000000001,0.17658,9.79038
348484845,22.72,0.0,0.0,0.0,0.04905,0.15696000000000002,9.79038
353535350,22.72,0.0,0.0,0.0,0.05886,0.15696000000000002,9.80019
358585855,22.72,0.0,0.0,0.0,0.039240000000000004,0.16677000000000003,9.79038
363636360,22.72,0.0,0.0,0.0,0.02943,0.13734000000000002,9.79038
368686865,22.72,0.0,0.0,0.0,0.02943,0.15696000000000002,9.81
373737370,22.72,0.0,0.0,0.0,0.02943,0.14715,9.819809999999999
378787875,22.72,0.0,0.0,0.0,0.039240000000000004,0.13734000000000002,9.81
383838380,22.72,0.0,0.0,0.0,0.039240000000000004,0.14715,9.79038
388888885,22.72,0.0,0.0,0.0,0.04905,0.15696000000000002,9.81
393939390,22.72,0.0,0.0,0.0,0.05886,0.17658,9.770760000000001
398989895,22.72,0.0,0.0,0.0,0.039240000000000004,0.16677000000000003,9.79038
404040400,22.72,0.0,0.0,0.0,0.02943,0.15696000000000002,9.81
409090905,22.72,0.0,0.0,0.0,0.02943,0.12753,9.81
414141410,22.72,0.0,0.0,0.0,0.039240000000000004,0.11772,9.819809999999999
419191915,22.72,0.0,0.0,0.0,0.02943,0.13734000000000002,9.81
424242420,22.72,0.0,0.0,0.0,0.019620000000000002,0.14715,9.81
429292925,22.72,0.0,0.0,0.0,0.039240000000000004,0.16677000000000003,9.78057
434343430,22.72,0.0,0.0,0.0,0.019620000000000002,0.16677000000000003,9.79038
439393935,22.72,0.0,0.0,0.0,0.05886,0.17658,9.80019
444444440,22.72,0.0,0.0,0.0,0.009810000000000001,0.16677000000000003,9.81
449494945,22.72,0.0,0.0,0.0,0.039240000000000004,0.13734000000000002,9.81
454545450,22.72,0.0,0.0,0.0,0.039240000000000004,0.10791,9.80019
459595955,22.72,0.0,0.0,0.0,0.019620000000000002,0.12753,9.81
464646460,22.72,0.0,0.0,0.0,0.02943,0.15696000000000002,9.79038
469696965,22.72,0.0,0.0,0.0,0.039240000000000004,0.16677000000000003,9.78057
474747470,22.72,0.0,0.0,0.0,0.039240000000000004,0.18639,9.79038
479797975,22.72,0.0,0.0,0.0,0.04905,0.17658,9.78057
484848480,22.72,0.0,0.0,0.0,0.039240000000000004,0.14715,9.79038
489898985,22.72,0.0,0.0,0.0,0.02943,0.13734000000000002,9.80019
494949490,22.72,0.0,0.0,0.0,0.019620000000000002,0.13734000000000002,9.79038
499999995,22.72,0.0,0.0,0.0,0.039240000000000004,0.13734000000000002,9.79038
505050500,22.72,0.0,0.0,0.0,0.02943,0.18639,9.81
510101005,22.72,0.0,0.0,0.0,0.02943,0.16677000000000003,9.819809999999999
515151510,22.72,0.0,0.0,0.0,0.04905,0.17658,9.80019
520202015,22.72,0.0,0.0,0.0,0.04905,0.16677000000000003,9.79038
525252520,22.72,0.0,0.0,0.0,0.02943,0.13734000000000002,9.81
530303025,22.72,0.0,0.0,0.0,0.02943,0.14715,9.81
535353530,22.72,0.0,0.0,0.0,0.009810000000000001,0.12753,9.79038
540404035,22.72,0.0,0.0,0.0,0.0,0.16677000000000003,9.819809999999999
545454540,22.72,0.0,0.0,0.0,0.019620000000000002,0.15696000000000002,9.819809999999999
550505045,22.72,0.0,0.0,0.0,0.019620000000000002,0.17658,9.81
555555550,22.72,0.0,0.0,0.0,0.039240000000000004,0.16677000000000003,9.79038
560606055,22.72,0.0,0.0,0.0,0.039240000000000004,0.16677000000000003,9.79038
565656560,22.72,0.0,0.0,0.0,0.019620000000000002,0.13734000000000002,9.81
570707065,22.72,0.0,0.0,0.0,0.039240000000000004,0.15696000000000002,9.81
575757570,22.72,0.0,0.0,0.0,0.009810000000000001,0.15696000000000002,9.819809999999999
580808075,22.72,0.0,0.0,0.0,0.019620000000000002,0.15696000000000002,9.80019
585858580,22.72,0.0,0.0,0.0,0.02943,0.14715,9.81
590909085,22.72,0.0,0.0,0.0,0.02943,0.14715,9.81
595959590,22.72,0.0,0.0,0.0,0.04905,0.15696000000000002,9.79038
601010095,22.72,0.0,0.0,0.0,0.04905,0.16677000000000003,9.79038
606060600,22.72,0.0,0.0,0.0,0.04905,0.15696000000000002,9.770760000000001
611111105,22.72,0.0,0.0,0.0,0.019620000000000002,0.12753,9.81
616161610,22.72,0.0,0.0,0.0,0.0,0.15696000000000002,9.80019
621212115,22.72,0.0,0.0,0.0,0.039240000000000004,0.12753,9.81
626262620,22.72,0.0,0.0,0.0,0.02943,0.16677000000000003,9.82962
631313125,22.72,0.0,0.0,0.0,0.02943,0.17658,9.80019
636363630,22.72,0.0,0.0,0.0,0.019620000000000002,0.15696000000000002,9.760950000000001
641414135,22.72,0.0,0.0,0.0,0.039240000000000004,0.17658,9.81
646464640,22.72,0.0,0.0,0.0,0.019620000000000002,0.14715,9.81
651515145,22.72,0.0,0.0,0.0,0.019620000000000002,0.13734000000000002,9.80019
656565650,22.72,0.0,0.0,0.0,0.019620000000000002,0.12753,9.819809999999999
661616155,22.72,0.0,0.0,0.0,0.039240000000000004,0.14715,9.80019
666666660,22.72,0.0,0.0,0.0,0.019620000000000002,0.17658,9.79038
671717165,22.72,0.0,0.0,0.0,0.04905,0.13734000000000002,9.79038
676767670,22.72,0.0,0.0,0.0,0.039240000000000004,0.15696000000000002,9.81
681818175,22.72,0.0,0.0,0.0,0.019620000000000002,0.13734000000000002,9.80019
686868680,22.72,0.0,0.0,0.0,0.039240000000000004,0.12753,9.81
691919185,22.72,0.0,0.0,0.0,0.02943,0.11772,9.79038
696969690,22.72,0.0,0.0,0.0,0.009810000000000001,0.13734000000000002,9.79038
702020195,22.72,0.0,0.0,0.0,0.019620000000000002,0.13734000000000002,9.79038
707070700,22.72,0.0,0.0,0.0,0.039240000000000004,0.16677000000000003,9.80019
712121205,22.72,0.0,0.0,0.0,0.019620000000000002,0.15696000000000002,9.80019
717171710,22.72,0.0,0.0,0.0,0.04905,0.17658,9.78057
722222215,22.72,0.0,0.0,0.0,0.02943,0.15696000000000002,9.79038
727272720,22.72,0.0,0.0,0.0,0.039240000000000004,0.16677000000000003,9.78057
732323225,22.72,0.0,0.0,0.0,0.019620000000000002,0.15696000000000002,9.819809999999999
737373730,22.72,0.0,0.0,0.0,0.009810000000000001,0.14715,9.78057
742424235,22.72,0.0,0.0,0.0,0.019620000000000002,0.12753,9.81
747474740,22.72,0.0,0.0,0.0,0.02943,0.17658,9.79038
752525245,22.72,0.0,0.0,0.0,0.039240000000000004,0.16677000000000003,9.80019
757575750,22.72,0.0,0.0,0.0,0.04905,0.17658,9.80019
762626255,22.72,0.0,0.0,0.0,0.039240000000000004,0.13734000000000002,9.81
767676760,22.72,0.0,0.0,0.0,0.039240000000000004,0.17658,9.819809999999999
772727265,22.72,0.0,0.0,0.0,0.04905,0.12753,9.79038
777777770,22.72,0.0,0.0,0.0,0.009810000000000001,0.14715,9.80019
782828275,22.72,0.0,0.0,0.0,0.04905,0.14715,9.81
787878780,22.72,0.0,0.0,0.0,0.0,0.12753,9.81
792929285,22.72,0.0,0.0,0.0,0.019620000000000002,0.16677000000000003,9.79038
797979790,22.72,0.0,0.0,0.0,0.019620000000000002,0.15696000000000002,9.78057
803030295,22.72,0.0,0.0,0.0,0.009810000000000001,0.15696000000000002,9.80019
808080800,22.72,0.0,0.0,0.0,0.02943,0.17658,9.80019
813131305,22.72,0.0,0.0,0.0,0.019620000000000002,0.15696000000000002,9.80019
818181810,22.72,0.0,0.0,0.0,0.04905,0.14715,9.82962
823232315,22.72,0.0,0.0,0.0,0.009810000000000001,0.16677000000000003,9.81
828282820,22.72,0.0,0.0,0.0,0.039240000000000004,0.15696000000000002,9.819809999999999
833333325,22.72,0.0,0.0,0.0,0.019620000000000002,0.16677000000000003,9.79038
838383830,22.72,0.0,0.0,0.0,0.039240000000000004,0.14715,9.770760000000001
843434335,22.72,0.0,0.0,0.0,0.009810000000000001,0.14715,9.81
848484840,22.72,0.0,0.0,0.0,0.0,0.16677000000000003,9.81
853535345,22.72,0.0,0.0,0.0,0.019620000000000002,0.14715,9.819809999999999
858585850,22.72,0.0,0.0,0.0,0.019620000000000002,0.14715,9.81
863636355,22.72,0.0,0.0,0.0,0.019620000000000002,0.14715,9.80019
868686860,22.72,0.0,0.0,0.0,0.019620000000000002,0.13734000000000002,9.78057
873737365,22.72,0.0,0.0,0.0,0.019620000000000002,0.15696000000000002,9.80019
878787870,22.72,0.0,0.0,0.0,0.019620000000000002,0.15696000000000002,9.81
883838375,22.72,0.0,0.0,0.0,0.019620000000000002,0.15696000000000002,9.81
888888880,22.72,0.0,0.0,0.0,0.02943,0.16677000000000003,9.81
893939385,22.72,0.0,0.0,0.0,0.06867000000000001,0.13734000000000002,9.80019
898989890,22.72,0.0,0.0,0.0,0.04905,0.11772,9.81
904040395,22.72,0.0,0.0,0.0,0.019620000000000002,0.13734000000000002,9.80019
909090900,22.72,0.0,0.0,0.0,0.019620000000000002,0.15696000000000002,9.79038
914141405,22.72,0.0,0.0,0.0,0.02943,0.17658,9.79038
919191910,22.72,0.0,0.0,0.0,0.009810000000000001,0.13734000000000002,9.81
924242415,22.72,0.0,0.0,0.0,0.019620000000000002,0.16677000000000003,9.81
929292920,22.72,0.0,0.0,0.0,0.0,0.15696000000000002,9.79038
934343425,22.72,0.0,0.0,0.0,0.009810000000000001,0.14715,9.770760000000001
939393930,22.72,0.0,0.0,0.0,0.02943,0.15696000000000002,9.78057
944444435,22.72,0.0,0.0,0.0,0.02943,0.14715,9.81
949494940,22.72,0.0,0.0,0.0,0.02943,0.13734000000000002,9.81
954545445,22.72,0.0,0.0,0.0,0.019620000000000002,0.15696000000000002,9.81
959595950,22.72,0.0,0.0,0.0,0.019620000000000002,0.14715,9.79038
964646455,22.72,0.0,0.0,0.0,0.02943,0.15696000000000002,9.78057
969696960,22.72,0.0,0.0,0.0,0.019620000000000002,0.15696000000000002,9.79038
974747465,22.72,0.0,0.0,0.0,0.019620000000000002,0.15696000000000002,9.80019
979797970,22.72,0.0,0.0,0.0,0.019620000000000002,0.14715,9.81
984848475,22.72,0.0,0.0,0.0,0.039240000000000004,0.18639,9.819809999999999
989898980,22.72,0.0,0.0,0.0,0.02943,0.16677000000000003,9.81
994949485,22.72,0.0,0.0,0.0,0.02943,0.13734000000000002,9.79038
999999990,22.72,0.0,0.0,0.0,0.019620000000000002,0.14715,9.78057
1005050495,22.72,0.0,0.0,0.0,0.009810000000000001,0.13734000000000002,9.78057
1010101000,22.72,0.0,0.0,0.0,0.019620000000000002,0.14715,9.80019
1015151505,22.72,0.0,0.0,0.0,0.039240000000000004,0.17658,9.81
1020202010,22.72,0.0,0.0,0.0,0.019620000000000002,0.1962,9.82962
1025252515,22.72,0.0,0.0,0.0,0.02943,0.16677000000000003,9.80019
1030303020,22.72,0.0,0.0,0.0,0.019620000000000002,0.13734000000000002,9.79038
1035353525,22.72,0.0,0.0,0.0,0.02943,0.14715,9.79038
1040404030,22.72,0.0,0.0,0.0,0.02943,0.15696000000000002,9.78057
1045454535,22.72,0.0,0.0,0.0,0.02943,0.16677000000000003,9.81
1050505040,22.72,0.0,0.0,0.0,0.019620000000000002,0.15696000000000002,9.80019
1055555545,22.72,0.0,0.0,0.0,0.04905,0.14715,9.81
1060606050,22.72,0.0,0.0,0.0,0.009810000000000001,0.13734000000000002,9.80019
1065656555,22.72,0.0,0.0,0.0,0.02943,0.13734000000000002,9.78057
1070707060,22.72,0.0,0.0,0.0,0.039240000000000004,0.13734000000000002,9.79038
1075757565,22.72,0.0,0.0,0.0,0.009810000000000001,0.15696000000000002,9.79038
1080808070,22.72,0.0,0.0,0.0,0.04905,0.16677000000000003,9.80019
1085858575,22.72,0.0,0.0,0.0,0.04905,0.17658,9.81
1090909080,22.72,0.0,0.0,0.0,0.039240000000000004,0.16677000000000003,9.81
1095959585,22.72,0.0,0.0,0.0,0.019620000000000002,0.16677000000000003,9.80019
1101010090,22.72,0.0,0.0,0.0,0.009810000000000001,0.14715,9.78057
1106060595,22.72,0.0,0.0,0.0,0.0,0.11772,9.78057
1111111100,22.72,0.0,0.0,0.0,0.02943,0.16677000000000003,9.82962
1116161605,22.72,0.0,0.0,0.0,0.0,0.17658,9.83943
1121212110,22.72,0.0,0.0,0.0,0.02943,0.16677000000000003,9.83943
1126262615,22.72,0.0,0.0,0.0,0.02943,0.16677000000000003,9.80019
1131313120,22.72,0.0,0.0,0.0,0.019620000000000002,0.16677000000000003,9.770760000000001
1136363625,22.72,0.0,0.0,0.0,0.039240000000000004,0.14715,9.770760000000001
1141414130,22.72,0.0,0.0,0.0,0.02943,0.12753,9.79038
1146464635,22.72,0.0,0.0,0.0,0.019620000000000002,0.15696000000000002,9.80019
1151515140,22.72,0.0,0.0,0.0,0.039240000000000004,0.15696000000000002,9.81
1156565645,22.72,0.0,0.0,0.0,0.039240000000000004,0.16677000000000003,9.80019
1161616150,22.72,0.0,0.0,0.0,0.019620000000000002,0.16677000000000003,9.80019
1166666655,22.72,0.0,0.0,0.0,0.019620000000000002,0.12753,9.81
1171717160,22.72,0.0,0.0,0.0,0.039240000000000004,0.14715,9.81
1176767665,22.72,0.0,0.0,0.0,0.02943,0.15696000000000002,9.78057
1181818170,22.72,0.0,0.0,0.0,0.019620000000000002,0.15696000000000002,9.80019
1186868675,22.72,0.0,0.0,0.0,0.02943,0.15696000000000002,9.81
1191919180,22.72,0.0,0.0,0.0,0.019620000000000002,0.13734000000000002,9.81
1196969685,22.72,0.0,0.0,0.0,0.019620000000000002,0.15696000000000002,9.79038
1202020190,22.72,0.0,0.0,0.0,0.02943,0.14715,9.79038
1207070695,22.72,0.0,0.0,0.0,0.039240000000000004,0.14715,9.79038
1212121200,22.72,0.0,0.0,0.0,0.019620000000000002,0.15696000000000002,9.81
1217171705,22.72,0.0,0.0,0.0,0.02943,0.15696000000000002,9.819809999999999
1222222210,22.72,0.0,0.0,0.0,0.02943,0.15696000000000002,9.81
1227272715,22.72,0.0,0.0,0.0,0.02943,0.16677000000000003,9.78057
1232323220,22.72,0.0,0.0,0.0,0.039240000000000004,0.12753,9.81
1237373725,22.72,0.0,0.0,0.0,0.019620000000000002,0.12753,9.78057
1242424230,22.72,0.0,0.0,0.0,0.019620000000000002,0.14715,9.81
1247474735,22.72,0.0,0.0,0.0,0.019620000000000002,0.16677000000000003,9.79038
1252525240,22.72,0.0,0.0,0.0,0.019620000000000002,0.17658,9.80019
1257575745,22.72,0.0,0.0,0.0,0.039240000000000004,0.14715,9.81
1262626250,22.72,0.0,0.0,0.0,0.04905,0.16677000000000003,9.78057
1267676755,22.72,0.0,0.0,0.0,0.02943,0.13734000000000002,9.79038
1272727260,22.72,0.0,0.0,0.0,0.009810000000000001,0.12753,9.770760000000001
1277777765,22.72,0.0,0.0,0.0,0.019620000000000002,0.15696000000000002,9.82962
1282828270,22.72,0.0,0.0,0.0,0.0,0.14715,9.81
1287878775,22.72,0.0,0.0,0.0,0.009810000000000001,0.17658,9.78057
1292929280,22.72,0.0,0.0,0.0,0.019620000000000002,0.16677000000000003,9.81
1297979785,22.72,0.0,0.0,0.0,0.019620000000000002,0.15696000000000002,9.79038
1303030290,22.72,0.0,0.0,0.0,0.039240000000000004,0.13734000000000002,9.78057
1308080795,22.72,0.0,0.0,0.0,0.02943,0.13734000000000002,9.79038
1313131300,22.72,0.0,0.0,0.0,0.019620000000000002,0.16677000000000003,9.80019
1318181805,22.72,0.0,0.0,0.0,0.039240000000000004,0.15696000000000002,9.81
1323232310,22.72,0.0,0.0,0.0,0.019620000000000002,0.17658,9.819809999999999
1328282815,22.72,0.0,0.0,0.0,0.02943,0.16677000000000003,9.79038
1333333320,22.72,0.0,0.0,0.0,0.02943,0.14715,9.78057
1338383825,22.72,0.0,0.0,0.0,0.009810000000000001,0.15696000000000002,9.79038
1343434330,22.72,0.0,0.0,0.0,0.02943,0.16677000000000003,9.80019
1348484835,22.72,0.0,0.0,0.0,0.04905,0.17658,9.80019
1353535340,22.72,0.0,0.0,0.0,0.02943,0.15696000000000002,9.81
1358585845,22.72,0.0,0.0,0.0,0.009810000000000001,0.18639,9.80019
1363636350,22.72,0.0,0.0,0.0,0.039240000000000004,0.14715,9.81
1368686855,22.72,0.0,0.0,0.0,0.009810000000000001,0.15696000000000002,9.78057
1373737360,22.72,0.0,0.0,0.0,0.02943,0.14715,9.770760000000001
1378787865,22.72,0.0,0.0,0.0,0.039240000000000004,0.15696000000000002,9.770760000000001
1383838370,22.72,0.0,0.0,0.0,0.039240000000000004,0.16677000000000003,9.81
1388888875,22.72,0.0,0.0,0.0,0.039240000000000004,0.14715,9.81
1393939380,22.72,0.0,0.0,0.0,0.019620000000000002,0.14715,9.81
1398989885,22.72,0.0,0.0,0.0,0.019620000000000002,0.15696000000000002,9.81
1404040390,22.72,0.0,0.0,0.0,0.019620000000000002,0.14715,9.770760000000001
1409090895,22.72,0.0,0.0,0.0,0.02943,0.14715,9.78057
1414141400,22.72,0.0,0.0,0.0,0.019620000000000002,0.14715,9.81
1419191905,22.72,0.0,0.0,0.0,0.04905,0.18639,9.80019
1424242410,22.72,0.0,0.0,0.0,0.019620000000000002,0.15696000000000002,9.80019
1429292915,22.72,0.0,0.0,0.0,0.039240000000000004,0.17658,9.80019
1434343420,22.72,0.0,0.0,0.0,0.02943,0.13734000000000002,9.79038
1439393925,22.72,0.0,0.0,0.0,0.04905,0.16677000000000003,9.80019
1444444430,22.72,0.0,0.0,0.0,0.019620000000000002,0.14715,9.81
1449494935,22.72,0.0,0.0,0.0,0.019620000000000002,0.16677000000000003,9.81
1454545440,22.72,0.0,0.0,0.0,0.019620000000000002,0.18639,9.81
1459595945,22.72,0.0,0.0,0.0,0.019620000000000002,0.17658,9.78057
1464646450,22.72,0.0,0.0,0.0,0.039240000000000004,0.15696000000000002,9.80019
1469696955,22.72,0.0,0.0,0.0,0.04905,0.14715,9.79038
1474747460,22.72,0.0,0.0,0.0,0.039240000000000004,0.14715,9.80019
1479797965,22.72,0.0,0.0,0.0,0.009810000000000001,0.14715,9.78057
1484848470,22.72,0.0,0.0,0.0,0.039240000000000004,0.13734000000000002,9.81
1489898975,22.72,0.0,0.0,0.0,0.039240000000000004,0.16677000000000003,9.819809999999999
1494949480,22.72,0.0,0.0,0.0,0.02943,0.15696000000000002,9.81
1499999985,22.72,0.0,0.0,0.0,0.02943,0.15696000000000002,9.81
1505050490,22.72,0.0,0.0,0.0,0.04905,0.14715,9.78057
1510100995,22.72,0.0,0.0,0.0,0.009810000000000001,0.16677000000000003,9.78057
1515151500,22.72,0.0,0.0,0.0,0.009810000000000001,0.16677000000000003,9.81
1520202005,22.72,0.0,0.0,0.0,0.02943,0.15696000000000002,9.79038
1525252510,22.72,0.0,0.0,0.0,0.039240000000000004,0.15696000000000002,9.80019
1530303015,22.72,0.0,0.0,0.0,0.0,0.15696000000000002,9.81
1535353520,22.72,0.0,0.0,0.0,0.019620000000000002,0.16677000000000003,9.78057
1540404025,22.72,0.0,0.0,0.0,0.019620000000000002,0.15696000000000002,9.760950000000001
1545454530,22.72,0.0,0.0,0.0,0.009810000000000001,0.14715,9.79038
1550505035,22.72,0.0,0.0,0.0,0.009810000000000001,0.18639,9.819809999999999
1555555540,22.72,0.0,0.0,0.0,0.02943,0.16677000000000003,9.80019
1560606045,22.72,0.0,0.0,0.0,0.02943,0.15696000000000002,9.79038
1565656550,22.72,0.0,0.0,0.0,0.02943,0.16677000000000003,9.81
1570707055,22.72,0.0,0.0,0.0,0.009810000000000001,0.14715,9.819809999999999
1575757560,22.72,0.0,0.0,0.0,0.019620000000000002,0.16677000000000003,9.79038
1580808065,22.72,0.0,0.0,0.0,0.0,0.16677000000000003,9.819809999999999
1585858570,22.72,0.0,0.0,0.0,0.02943,0.16677000000000003,9.81
1590909075,22.72,0.0,0.0,0.0,0.019620000000000002,0.17658,9.80019
1595959580,22.72,0.0,0.0,0.0,0.02943,0.15696000000000002,9.81
1601010085,22.72,0.0,0.0,0.0,0.019620000000000002,0.17658,9.79038
1606060590,22.72,0.0,0.0,0.0,0.019620000000000002,0.13734000000000002,9.81
1611111095,22.72,0.0,0.0,0.0,0.009810000000000001,0.14715,9.80019
1616161600,22.72,0.0,0.0,0.0,0.019620000000000002,0.15696000000000002,9.81
1621212105,22.72,0.0,0.0,0.0,0.019620000000000002,0.14715,9.81
1626262610,22.72,0.0,0.0,0.0,0.02943,0.16677000000000003,9.79038
1631313115,22.72,0.0,0.0,0.0,0.04905,0.15696000000000002,9.80019
1636363620,22.72,0.0,0.0,0.0,0.04905,0.14715,9.80019
1641414125,22.72,0.0,0.0,0.0,0.0,0.12753,9.81
1646464630,22.72,0.0,0.0,0.0,-0.009810000000000001,0.15696000000000002,9.81
1651515135,22.72,0.0,0.0,0.0,0.019620000000000002,0.15696000000000002,9.80019
1656565640,22.72,0.0,0.0,0.0,0.009810000000000001,0.14715,9.80019
1661616145,22.72,0.0,0.0,0.0,0.0,0.16677000000000003,9.81
1666666650,22.72,0.0,0.0,0.0,0.0,0.16677000000000003,9.80019
1671717155,22.72,0.0,0.0,0.0,0.039240000000000004,0.15696000000000002,9.770760000000001
1676767660,22.72,0.0,0.0,0.0,0.039240000000000004,0.14715,9.79038
1681818165,22.72,0.0,0.0,0.0,0.02943,0.15696000000000002,9.79038
1686868670,22.72,0.0,0.0,0.0,0.039240000000000004,0.14715,9.79038
1691919175,22.72,0.0,0.0,0.0,0.039240000000000004,0.18639,9.81
1696969680,22.72,0.0,0.0,0.0,0.019620000000000002,0.15696000000000002,9.79038
1702020185,22.72,0.0,0.0,0.0,0.02943,0.15696000000000002,9.81
1707070690,22.72,0.0,0.0,0.0,0.009810000000000001,0.14715,9.78057
1712121195,22.72,0.0,0.0,0.0,0.019620000000000002,0.15696000000000002,9.80019
1717171700,22.72,0.0,0.0,0.0,0.039240000000000004,0.15696000000000002,9.79038
1722222205,22.72,0.0,0.0,0.0,0.009810000000000001,0.16677000000000003,9.82962
1727272710,22.72,0.0,0.0,0.0,0.04905,0.16677000000000003,9.81
1732323215,22.72,0.0,0.0,0.0,0.02943,0.14715,9.770760000000001
1737373720,22.72,0.0,0.0,0.0,0.009810000000000001,0.14715,9.78057
1742424225,22.72,0.0,0.0,0.0,0.009810000000000001,0.16677000000000003,9.79038
1747474730,22.72,0.0,0.0,0.0,0.039240000000000004,0.14715,9.80019
1752525235,22.72,0.0,0.0,0.0,0.02943,0.17658,9.81
1757575740,22.72,0.0,0.0,0.0,0.039240000000000004,0.1962,9.819809999999999
1762626245,22.72,0.0,0.0,0.0,0.039240000000000004,0.15696000000000002,9.79038
1767676750,22.72,0.0,0.0,0.0,0.019620000000000002,0.15696000000000002,9.78057
1772727255,22.72,0.0,0.0,0.0,0.039240000000000004,0.14715,9.80019
1777777760,22.72,0.0,0.0,0.0,0.009810000000000001,0.12753,9.78057
1782828265,22.72,0.0,0.0,0.0,0.019620000000000002,0.15696000000000002,9.80019
1787878770,22.72,0.0,0.0,0.0,0.039240000000000004,0.16677000000000003,9.81
1792929275,22.72,0.0,0.0,0.0,0.039240000000000004,0.17658,9.79038
1797979780,22.72,0.0,0.0,0.0,0.039240000000000004,0.17658,9.79038
1803030285,22.72,0.0,0.0,0.0,0.04905,0.13734000000000002,9.78057
1808080790,22.72,0.0,0.0,0.0,0.04905,0.14715,9.81
1813131295,22.72,0.0,0.0,0.0,0.009810000000000001,0.15696000000000002,9.81
1818181800,22.72,0.0,0.0,0.0,0.0,0.14715,9.80019
1823232305,22.72,0.0,0.0,0.0,0.019620000000000002,0.16677000000000003,9.80019
1828282810,22.72,0.0,0.0,0.0,0.039240000000000004,0.15696000000000002,9.80019
1833333315,22.72,0.0,0.0,0.0,0.019620000000000002,0.18639,9.80019
1838383820,22.72,0.0,0.0,0.0,0.039240000000000004,0.16677000000000003,9.79038
1843434325,22.72,0.0,0.0,0.0,0.02943,0.16677000000000003,9.78057
1848484830,22.72,0.0,0.0,0.0,0.039240000000000004,0.13734000000000002,9.819809999999999
1853535335,22.72,0.0,0.0,0.0,0.009810000000000001,0.17658,9.80019
1858585840,22.72,0.0,0.0,0.0,0.02943,0.13734000000000002,9.79038
1863636345,22.72,0.0,0.0,0.0,0.02943,0.17658,9.82962
1868686850,22.72,0.0,0.0,0.0,0.02943,0.16677000000000003,9.78057
1873737355,22.72,0.0,0.0,0.0,0.039240000000000004,0.15696000000000002,9.78057
1878787860,22.72,0.0,0.0,0.0,0.02943,0.15696000000000002,9.81
1883838365,22.72,0.0,0.0,0.0,0.019620000000000002,0.15696000000000002,9.79038
1888888870,22.72,0.0,0.0,0.0,0.039240000000000004,0.16677000000000003,9.81
1893939375,22.72,0.0,0.0,0.0,0.039240000000000004,0.15696000000000002,9.83943
1898989880,22.72,0.0,0.0,0.0,0.02943,0.15696000000000002,9.79038
1904040385,22.72,0.0,0.0,0.0,0.04905,0.15696000000000002,9.770760000000001
1909090890,22.72,0.0,0.0,0.0,0.02943,0.13734000000000002,9.760950000000001
1914141395,22.72,0.0,0.0,0.0,0.019620000000000002,0.15696000000000002,9.81
1919191900,22.72,0.0,0.0,0.0,0.039240000000000004,0.15696000000000002,9.80019
1924242405,22.72,0.0,0.0,0.0,0.02943,0.15696000000000002,9.81
1929292910,22.72,0.0,0.0,0.0,0.019620000000000002,0.16677000000000003,9.80019
1934343415,22.72,0.0,0.0,0.0,0.039240000000000004,0.14715,9.79038
1939393920,22.72,0.0,0.0,0.0,0.019620000000000002,0.15696000000000002,9.79038
1944444425,22.72,0.0,0.0,0.0,0.009810000000000001,0.14715,9.79038
1949494930,22.72,0.0,0.0,0.0,0.009810000000000001,0.16677000000000003,9.80019
1954545435,22.72,0.0,0.0,0.0,0.009810000000000001,0.15696000000000002,9.81
1959595940,22.72,0.0,0.0,0.0,0.02943,0.18639,9.82962
1964646445,22.72,0.0,0.0,0.0,0.02943,0.15696000000000002,9.819809999999999
1969696950,22.72,0.0,0.0,0.0,0.019620000000000002,0.14715,9.80019
1974747455,22.72,0.0,0.0,0.0,0.02943,0.15696000000000002,9.80019
1979797960,22.72,0.0,0.0,0.0,0.02943,0.13734000000000002,9.81
1984848465,22.72,0.0,0.0,0.0,0.039240000000000004,0.15696000000000002,9.81
1989898970,22.72,0.0,0.0,0.0,0.02943,0.16677000000000003,9.80019
1994949475,22.72,0.0,0.0,0.0,0.02943,0.14715,9.79038
1999999980,22.72,0.0,0.0,0.0,0.02943,0.16677000000000003,9.81
2005050485,22.72,0.0,0.0,0.0,0.009810000000000001,0.12753,9.79038
2010100990,22.72,0.0,0.0,0.0,0.02943,0.14715,9.80019
2015151495,22.72,0.0,0.0,0.0,0.009810000000000001,0.12753,9.819809999999999
2020202000,22.72,0.0,0.0,0.0,0.0,0.14715,9.79038
2025252505,22.72,0.0,0.0,0.0,0.039240000000000004,0.16677000000000003,9.819809999999999
2030303010,22.72,0.0,0.0,0.0,0.02943,0.15696000000000002,9.82962
2035353515,22.72,0.0,0.0,0.0,0.039240000000000004,0.16677000000000003,9.78057
2040404020,22.72,0.0,0.0,0.0,0.039240000000000004,0.14715,9.78057
2045454525,22.72,0.0,0.0,0.0,0.02943,0.14715,9.79038
2050505030,22.72,0.0,0.0,0.0,0.05886,0.14715,9.79038
2055555535,22.72,0.0,0.0,0.0,0.019620000000000002,0.13734000000000002,9.81
2060606040,22.72,0.0,0.0,0.0,0.04905,0.13734000000000002,9.81
2065656545,22.72,0.0,0.0,0.0,0.019620000000000002,0.14715,9.819809999999999
2070707050,22.72,0.0,0.0,0.0,0.019620000000000002,0.16677000000000003,9.79038
2075757555,22.72,0.0,0.0,0.0,0.009810000000000001,0.14715,9.79038
2080808060,22.72,0.0,0.0,0.0,0.039240000000000004,0.14715,9.770760000000001
2085858565,22.72,0.0,0.0,0.0,0.04905,0.16677000000000003,9.80019
2090909070,22.72,0.0,0.0,0.0,0.02943,0.17658,9.80019
2095959575,22.72,0.0,0.0,0.0,0.019620000000000002,0.14715,9.80019
2101010080,22.72,0.0,0.0,0.0,0.019620000000000002,0.16677000000000003,9.79038
2106060585,22.72,0.0,0.0,0.0,0.02943,0.16677000000000003,9.81
2111111090,22.72,0.0,0.0,0.0,0.039240000000000004,0.14715,9.78057
2116161595,22.72,0.0,0.0,0.0,0.05886,0.16677000000000003,9.80019
2121212100,22.72,0.0,0.0,0.0,0.019620000000000002,0.17658,9.81
2126262605,22.72,0.0,0.0,0.0,0.039240000000000004,0.15696000000000002,9.80019
2131313110,22.72,0.0,0.0,0.0,0.019620000000000002,0.17658,9.80019
2136363615,22.72,0.0,0.0,0.0,0.04905,0.16677000000000003,9.81
2141414120,22.72,0.0,0.0,0.0,0.02943,0.14715,9.81
2146464625,22.72,0.0,0.0,0.0,0.02943,0.11772,9.80019
2151515130,22.72,0.0,0.0,0.0,0.04905,0.15696000000000002,9.80019
2156565635,22.72,0.0,0.0,0.0,0.039240000000000004,0.13734000000000002,9.80019
2161616140,22.72,0.0,0.0,0.0,0.05886,0.18639,9.79038
2166666645,22.72,0.0,0.0,0.0,0.019620000000000002,0.17658,9.80019
2171717150,22.72,0.0,0.0,0.0,0.02943,0.15696000000000002,9.81
2176767655,22.72,0.0,0.0,0.0,0.019620000000000002,0.14715,9.79038
2181818160,22.72,0.0,0.0,0.0,0.02943,0.13734000000000002,9.79038
2186868665,22.72,0.0,0.0,0.0,0.019620000000000002,0.14715,9.80019
2191919170,22.72,0.0,0.0,0.0,0.04905,0.15696000000000002,9.81
2196969675,22.72,0.0,0.0,0.0,0.04905,0.15696000000000002,9.80019
2202020180,22.72,0.0,0.0,0.0,0.019620000000000002,0.14715,9.79038
2207070685,22.72,0.0,0.0,0.0,0.039240000000000004,0.15696000000000002,9.81
2212121190,22.72,0.0,0.0,0.0,0.019620000000000002,0.17658,9.79038
2217171695,22.72,0.0,0.0,0.0,0.02943,0.13734000000000002,9.770760000000001
2222222200,22.72,0.0,0.0,0.0,0.039240000000000004,0.14715,9.80019
2227272705,22.72,0.0,0.0,0.0,0.02943,0.16677000000000003,9.81
2232323210,22.72,0.0,0.0,0.0,0.009810000000000001,0.13734000000000002,9.78057
2237373715,22.72,0.0,0.0,0.0,0.04905,0.1962,9.78057
2242424220,22.72,0.0,0.0,0.0,0.02943,0.13734000000000002,9.78057
2247474725,22.72,0.0,0.0,0.0,0.04905,0.14715,9.80019
2252525230,22.72,0.0,0.0,0.0,0.02943,0.14715,9.79038
2257575735,22.72,0.0,0.0,0.0,0.019620000000000002,0.14715,9.81
2262626240,22.72,0.0,0.0,0.0,0.019620000000000002,0.14715,9.81
2267676745,22.72,0.0,0.0,0.0,0.02943,0.16677000000000003,9.81
2272727250,22.72,0.0,0.0,0.0,0.04905,0.18639,9.79038
2277777755,22.72,0.0,0.0,0.0,0.039240000000000004,0.18639,9.80019
2282828260,22.72,0.0,0.0,0.0,0.04905,0.14715,9.79038
2287878765,22.72,0.0,0.0,0.0,0.02943,0.15696000000000002,9.80019
2292929270,22.72,0.0,0.0,0.0,0.02943,0.15696000000000002,9.81
2297979775,22.72,0.0,0.0,0.0,0.019620000000000002,0.16677000000000003,9.81
2303030280,22.72,0.0,0.0,0.0,0.02943,0.16677000000000003,9.81
2308080785,22.72,0.0,0.0,0.0,0.02943,0.15696000000000002,9.81
2313131290,22.72,0.0,0.0,0.0,0.039240000000000004,0.15696000000000002,9.79038
2318181795,22.72,0.0,0.0,0.0,0.02943,0.15696000000000002,9.79038
2323232300,22.72,0.0,0.0,0.0,0.039240000000000004,0.18639,9.79038
2328282805,22.72,0.0,0.0,0.0,0.039240000000000004,0.16677000000000003,9.80019
2333333310,22.72,0.0,0.0,0.0,0.04905,0.16677000000000003,9.81
2338383815,22.72,0.0,0.0,0.0,0.009810000000000001,0.13734000000000002,9.79038
2343434320,22.72,0.0,0.0,0.0,0.019620000000000002,0.15696000000000002,9.819809999999999
2348484825,22.72,0.0,0.0,0.0,0.0,0.14715,9.81
2353535330,22.72,0.0,0.0,0.0,0.04905,0.14715,9.80019
2358585835,22.72,0.0,0.0,0.0,0.019620000000000002,0.1962,9.80019
2363636340,22.72,0.0,0.0,0.0,0.039240000000000004,0.17658,9.81
2368686845,22.72,0.0,0.0,0.0,0.039240000000000004,0.16677000000000003,9.79038
2373737350,22.72,0.0,0.0,0.0,0.02943,0.16677000000000003,9.81
2378787855,22.72,0.0,0.0,0.0,0.0,0.13734000000000002,9.81
2383838360,22.72,0.0,0.0,0.0,0.019620000000000002,0.11772,9.81
2388888865,22.72,0.0,0.0,0.0,0.019620000000000002,0.16677000000000003,9.80019
2393939370,22.72,0.0,0.0,0.0,0.02943,0.16677000000000003,9.81
2398989875,22.72,0.0,0.0,0.0,0.039240000000000004,0.16677000000000003,9.83943
2404040380,22.72,0.0,0.0,0.0,0.019620000000000002,0.16677000000000003,9.79038
2409090885,22.72,0.0,0.0,0.0,0.019620000000000002,0.15696000000000002,9.770760000000001
2414141390,22.72,0.0,0.0,0.0,0.02943,0.14715,9.79038
2419191895,22.72,0.0,0.0,0.0,0.0,0.13734000000000002,9.80019
2424242400,22.72,0.0,0.0,0.0,0.02943,0.14715,9.81
2429292905,22.72,0.0,0.0,0.0,0.039240000000000004,0.15696000000000002,9.82962
2434343410,22.72,0.0,0.0,0.0,0.019620000000000002,0.15696000000000002,9.78057
2439393915,22.72,0.0,0.0,0.0,0.019620000000000002,0.15696000000000002,9.81
2444444420,22.72,0.0,0.0,0.0,0.05886,0.17658,9.78057
2449494925,22.72,0.0,0.0,0.0,0.02943,0.15696000000000002,9.80019
2454545430,22.72,0.0,0.0,0.0,0.04905,0.15696000000000002,9.79038
2459595935,22.72,0.0,0.0,0.0,0.039240000000000004,0.16677000000000003,9.80019
2464646440,22.72,0.0,0.0,0.0,0.02943,0.12753,9.79038
2469696945,22.72,0.0,0.0,0.0,0.009810000000000001,0.16677000000000003,9.81
2474747450,22.72,0.0,0.0,0.0,0.04905,0.15696000000000002,9.78057
2479797955,22.72,0.0,0.0,0.0,0.019620000000000002,0.15696000000000002,9.819809999999999
2484848460,22.72,0.0,0.0,0.0,0.02943,0.17658,9.78057
2489898965,22.72,0.0,0.0,0.0,0.02943,0.15696000000000002,9.81
2494949470,22.72,0.0,0.0,0.0,0.019620000000000002,0.16677000000000003,9.80019
2499999975,22.72,0.0,0.0,0.0,0.039240000000000004,0.15696000000000002,9.81
2505050480,22.72,0.0,0.0,0.0,0.02943,0.15696000000000002,9.80019
2510100985,22.72,0.0,0.0,0.0,0.009810000000000001,0.14715,9.80019
2515151490,22.72,0.0,0.0,0.0,0.02943,0.13734000000000002,9.81
2520201995,22.72,0.0,0.0,0.0,0.039240000000000004,0.12753,9.81
2525252500,22.72,0.0,0.0,0.0,0.02943,0.14715,9.80019
2530303005,22.72,0.0,0.0,0.0,0.02943,0.13734000000000002,9.79038
2535353510,22.72,0.0,0.0,0.0,0.039240000000000004,0.15696000000000002,9.80019
2540404015,22.72,0.0,0.0,0.0,0.019620000000000002,0.15696000000000002,9.80019
2545454520,22.72,0.0,0.0,0.0,0.04905,0.15696000000000002,9.79038
2550505025,22.72,0.0,0.0,0.0,0.02943,0.15696000000000002,9.81
2555555530,22.72,0.0,0.0,0.0,0.019620000000000002,0.14715,9.81
2560606035,22.72,0.0,0.0,0.0,0.02943,0.15696000000000002,9.79038
2565656540,22.72,0.0,0.0,0.0,0.02943,0.16677000000000003,9.78057
2570707045,22.72,0.0,0.0,0.0,0.04905,0.16677000000000003,9.78057
2575757550,22.72,0.0,0.0,0.0,0.039240000000000004,0.18639,9.79038
2580808055,22.72,0.0,0.0,0.0,0.02943,0.15696000000000002,9.80019
2585858560,22.72,0.0,0.0,0.0,0.019620000000000002,0.12753,9.81
2590909065,22.72,0.0,0.0,0.0,0.019620000000000002,0.17658,9.81
2595959570,22.72,0.0,0.0,0.0,0.02943,0.14715,9.81
2601010075,22.72,0.0,0.0,0.0,0.039240000000000004,0.16677000000000003,9.80019
2606060580,22.72,0.0,0.0,0.0,0.02943,0.16677000000000003,9.79038
2611111085,22.72,0.0,0.0,0.0,0.039240000000000004,0.16677000000000003,9.79038
2616161590,22.72,0.0,0.0,0.0,0.02943,0.16677000000000003,9.80019
2621212095,22.72,0.0,0.0,0.0,0.02943,0.12753,9.80019
2626262600,22.72,0.0,0.0,0.0,0.02943,0.15696000000000002,9.81
2631313105,22.72,0.0,0.0,0.0,0.02943,0.16677000000000003,9.80019
2636363610,22.72,0.0,0.0,0.0,0.019620000000000002,0.17658,9.81
2641414115,22.72,0.0,0.0,0.0,0.02943,0.14715,9.81
2646464620,22.72,0.0,0.0,0.0,0.039240000000000004,0.15696000000000002,9.79038
2651515125,22.72,0.0,0.0,0.0,0.05886,0.15696000000000002,9.79038
2656565630,22.72,0.0,0.0,0.0,0.019620000000000002,0.15696000000000002,9.81
2661616135,22.72,0.0,0.0,0.0,0.02943,0.13734000000000002,9.79038
2666666640,22.72,0.0,0.0,0.0,0.019620000000000002,0.15696000000000002,9.80019
2671717145,22.72,0.0,0.0,0.0,0.039240000000000004,0.13734000000000002,9.81
2676767650,22.72,0.0,0.0,0.0,0.05886,0.14715,9.80019
2681818155,22.72,0.0,0.0,0.0,0.039240000000000004,0.16677000000000003,9.78057
2686868660,22.72,0.0,0.0,0.0,0.04905,0.16677000000000003,9.81
2691919165,22.72,0.0,0.0,0.0,0.039240000000000004,0.16677000000000003,9.80019
2696969670,22.72,0.0,0.0,0.0,0.039240000000000004,0.13734000000000002,9.79038
2702020175,22.72,0.0,0.0,0.0,0.02943,0.15696000000000002,9.78057
2707070680,22.72,0.0,0.0,0.0,0.019620000000000002,0.14715,9.79038
2712121185,22.72,0.0,0.0,0.0,0.04905,0.14715,9.819809999999999
2717171690,22.72,0.0,0.0,0.0,0.039240000000000004,0.16677000000000003,9.79038
2722222195,22.72,0.0,0.0,0.0,0.02943,0.15696000000000002,9.80019
2727272700,22.72,0.0,0.0,0.0,0.02943,0.15696000000000002,9.819809999999999
2732323205,22.72,0.0,0.0,0.0,0.039240000000000004,0.15696000000000002,9.81
2737373710,22.72,0.0,0.0,0.0,0.019620000000000002,0.16677000000000003,9.80019
2742424215,22.72,0.0,0.0,0.0,0.019620000000000002,0.12753,9.819809999999999
2747474720,22.72,0.0,0.0,0.0,0.009810000000000001,0.14715,9.79038
2752525225,22.72,0.0,0.0,0.0,0.019620000000000002,0.15696000000000002,9.81
2757575730,22.72,0.0,0.0,0.0,0.02943,0.16677000000000003,9.81
2762626235,22.72,0.0,0.0,0.0,0.039240000000000004,0.13734000000000002,9.79038
2767676740,22.72,0.0,0.0,0.0,0.019620000000000002,0.13734000000000002,9.78057
2772727245,22.72,0.0,0.0,0.0,0.02943,0.18639,9.81
2777777750,22.72,0.0,0.0,0.0,0.02943,0.15696000000000002,9.79038
2782828255,22.72,0.0,0.0,0.0,0.02943,0.15696000000000002,9.80019
2787878760,22.72,0.0,0.0,0.0,0.019620000000000002,0.15696000000000002,9.819809999999999
2792929265,22.72,0.0,0.0,0.0,0.009810000000000001,0.12753,9.81
2797979770,22.72,0.0,0.0,0.0,0.0,0.12753,9.81
2803030275,22.72,0.0,0.0,0.0,0.009810000000000001,0.14715,9.819809999999999
2808080780,22.72,0.0,0.0,0.0,0.039240000000000004,0.16677000000000003,9.81
2813131285,22.72,0.0,0.0,0.0,0.019620000000000002,0.17658,9.81
2818181790,22.72,0.0,0.0,0.0,0.02943,0.16677000000000003,9.78057
2823232295,22.72,0.0,0.0,0.0,0.04905,0.16677000000000003,9.80019
2828282800,22.72,0.0,0.0,0.0,0.019620000000000002,0.16677000000000003,9.82962
2833333305,22.72,0.0,0.0,0.0,0.02943,0.14715,9.79038
2838383810,22.72,0.0,0.0,0.0,0.009810000000000001,0.15696000000000002,9.81
2843434315,22.72,0.0,0.0,0.0,0.02943,0.15696000000000002,9.819809999999999
2848484820,22.72,0.0,0.0,0.0,0.009810000000000001,0.16677000000000003,9.80019
2853535325,22.72,0.0,0.0,0.0,0.0,0.16677000000000003,9.79038
2858585830,22.72,0.0,0.0,0.0,0.02943,0.14715,9.79038
2863636335,22.72,0.0,0.0,0.0,0.02943,0.17658,9.79038
2868686840,22.72,0.0,0.0,0.0,0.009810000000000001,0.16677000000000003,9.79038
2873737345,22.72,0.0,0.0,0.0,0.039240000000000004,0.14715,9.79038
2878787850,22.72,0.0,0.0,0.0,0.019620000000000002,0.13734000000000002,9.80019
2883838355,22.72,0.0,0.0,0.0,0.02943,0.12753,9.81
2888888860,22.72,0.0,0.0,0.0,0.039240000000000004,0.15696000000000002,9.79038
2893939365,22.72,0.0,0.0,0.0,0.04905,0.15696000000000002,9.760950000000001
2898989870,22.72,0.0,0.0,0.0,0.02943,0.15696000000000002,9.80019
2904040375,22.72,0.0,0.0,0.0,0.039240000000000004,0.16677000000000003,9.80019
2909090880,22.72,0.0,0.0,0.0,0.009810000000000001,0.14715,9.80019
2914141385,22.72,0.0,0.0,0.0,0.019620000000000002,0.18639,9.81
2919191890,22.72,0.0,0.0,0.0,0.019620000000000002,0.17658,9.79038
2924242395,22.72,0.0,0.0,0.0,0.039240000000000004,0.14715,9.79038
2929292900,22.72,0.0,0.0,0.0,0.019620000000000002,0.16677000000000003,9.80019
2934343405,22.72,0.0,0.0,0.0,0.02943,0.15696000000000002,9.81
2939393910,22.72,0.0,0.0,0.0,0.019620000000000002,0.16677000000000003,9.81
2944444415,22.72,0.0,0.0,0.0,0.04905,0.13734000000000002,9.819809999999999
2949494920,22.72,0.0,0.0,0.0,0.02943,0.14715,9.80019
2954545425,22.72,0.0,0.0,0.0,0.039240000000000004,0.15696000000000002,9.81
2959595930,22.72,0.0,0.0,0.0,0.039240000000000004,0.14715,9.79038
2964646435,22.72,0.0,0.0,0.0,0.019620000000000002,0.16677000000000003,9.80019
2969696940,22.72,0.0,0.0,0.0,0.02943,0.16677000000000003,9.79038
2974747445,22.72,0.0,0.0,0.0,0.039240000000000004,0.15696000000000002,9.80019
2979797950,22.72,0.0,0.0,0.0,0.02943,0.15696000000000002,9.80019
2984848455,22.72,0.0,0.0,0.0,0.019620000000000002,0.17658,9.79038
2989898960,22.72,0.0,0.0,0.0,0.02943,0.13734000000000002,9.79038
2994949465,22.72,0.0,0.0,0.0,0.019620000000000002,0.15696000000000002,9.81
2999999970,22.72,0.0,0.0,0.0,0.02943,0.18639,9.80019
3005050475,22.72,0.0,0.0,0.0,0.0,0.16677000000000003,9.80019
3010100980,22.72,0.0,0.0,0.0,0.009810000000000001,0.16677000000000003,9.80019
3015151485,22.72,0.0,0.0,0.0,0.039240000000000004,0.16677000000000003,9.79038
3020201990,22.72,0.0,0.0,0.0,0.039240000000000004,0.15696000000000002,9.79038
3025252495,22.72,0.0,0.0,0.0,0.04905,0.14715,9.770760000000001
3030303000,22.72,0.0,0.0,0.0,0.02943,0.16677000000000003,9.78057
3035353505,22.72,0.0,0.0,0.0,0.039240000000000004,0.14715,9.81
3040404010,22.72,0.0,0.0,0.0,0.009810000000000001,0.14715,9.819809999999999
3045454515,22.72,0.0,0.0,0.0,0.0,0.14715,9.81
3050505020,22.72,0.0,0.0,0.0,0.02943,0.17658,9.80019
3055555525,22.72,0.0,0.0,0.0,0.039240000000000004,0.15696000000000002,9.770760000000001
3060606030,22.72,0.0,0.0,0.0,0.04905,0.16677000000000003,9.80019
3065656535,22.72,0.0,0.0,0.0,0.019620000000000002,0.15696000000000002,9.79038
3070707040,22.72,0.0,0.0,0.0,0.02943,0.14715,9.80019
3075757545,22.72,0.0,0.0,0.0,0.02943,0.15696000000000002,9.80019
3080808050,22.72,0.0,0.0,0.0,0.04905,0.16677000000000003,9.81
3085858555,22.72,0.0,0.0,0.0,0.02943,0.16677000000000003,9.79038
3090909060,22.72,0.0,0.0,0.0,0.039240000000000004,0.15696000000000002,9.81
3095959565,22.72,0.0,0.0,0.0,0.009810000000000001,0.14715,9.79038
3101010070,22.72,0.0,0.0,0.0,0.02943,0.15696000000000002,9.79038
3106060575,22.72,0.0,0.0,0.0,0.04905,0.17658,9.79038
3111111080,22.72,0.0,0.0,0.0,0.02943,0.17658,9.78057
3116161585,22.72,0.0,0.0,0.0,0.019620000000000002,0.15696000000000002,9.80019
3121212090,22.72,0.0,0.0,0.0,0.009810000000000001,0.16677000000000003,9.80019
3126262595,22.72,0.0,0.0,0.0,0.0,0.12753,9.80019
3131313100,22.72,0.0,0.0,0.0,0.02943,0.15696000000000002,9.79038
3136363605,22.72,0.0,0.0,0.0,0.02943,0.16677000000000003,9.819809999999999
3141414110,22.72,0.0,0.0,0.0,0.02943,0.16677000000000003,9.81
3146464615,22.72,0.0,0.0,0.0,0.02943,0.18639,9.80019
3151515120,22.72,0.0,0.0,0.0,0.0,0.16677000000000003,9.79038
3156565625,22.72,0.0,0.0,0.0,0.039240000000000004,0.16677000000000003,9.81
3161616130,22.72,0.0,0.0,0.0,0.019620000000000002,0.15696000000000002,9.79038
3166666635,22.72,0.0,0.0,0.0,0.02943,0.16677000000000003,9.770760000000001
3171717140,22.72,0.0,0.0,0.0,0.019620000000000002,0.16677000000000003,9.79038
3176767645,22.72,0.0,0.0,0.0,0.019620000000000002,0.14715,9.81
3181818150,22.72,0.0,0.0,0.0,0.019620000000000002,0.18639,9.79038
3186868655,22.72,0.0,0.0,0.0,0.02943,0.14715,9.80019
3191919160,22.72,0.0,0.0,0.0,0.02943,0.15696000000000002,9.81
3196969665,22.72,0.0,0.0,0.0,0.02943,0.14715,9.81
3202020170,22.72,0.0,0.0,0.0,0.02943,0.16677000000000003,9.81
3207070675,22.72,0.0,0.0,0.0,0.02943,0.17658,9.81
3212121180,22.72,0.0,0.0,0.0,0.009810000000000001,0.13734000000000002,9.78057
3217171685,22.72,0.0,0.0,0.0,0.039240000000000004,0.15696000000000002,9.80019
3222222190,22.72,0.0,0.0,0.0,0.05886,0.15696000000000002,9.80019
3227272695,22.72,0.0,0.0,0.0,0.02943,0.15696000000000002,9.78057
3232323200,22.72,0.0,0.0,0.0,0.039240000000000004,0.10791,9.79038
3237373705,22.72,0.0,0.0,0.0,0.019620000000000002,0.14715,9.80019
3242424210,22.72,0.0,0.0,0.0,0.039240000000000004,0.17658,9.80019
3247474715,22.72,0.0,0.0,0.0,0.04905,0.16677000000000003,9.81
3252525220,22.72,0.0,0.0,0.0,0.0,0.16677000000000003,9.80019
3257575725,22.72,0.0,0.0,0.0,0.039240000000000004,0.15696000000000002,9.79038
3262626230,22.72,0.0,0.0,0.0,0.019620000000000002,0.16677000000000003,9.80019
3267676735,22.72,0.0,0.0,0.0,0.02943,0.16677000000000003,9.81
3272727240,22.72,0.0,0.0,0.0,0.039240000000000004,0.15696000000000002,9.81
3277777745,22.72,0.0,0.0,0.0,0.0,0.14715,9.83943
3282828250,22.72,0.0,0.0,0.0,0.019620000000000002,0.17658,9.819809999999999
3287878755,22.72,0.0,0.0,0.0,0.02943,0.14715,9.819809999999999
3292929260,22.72,0.0,0.0,0.0,0.02943,0.13734000000000002,9.78057
3297979765,22.72,0.0,0.0,0.0,0.02943,0.15696000000000002,9.79038
3303030270,22.72,0.0,0.0,0.0,0.019620000000000002,0.16677000000000003,9.80019
3308080775,22.72,0.0,0.0,0.0,0.02943,0.17658,9.78057
3313131280,22.72,0.0,0.0,0.0,0.02943,0.15696000000000002,9.81
3318181785,22.72,0.0,0.0,0.0,0.02943,0.15696000000000002,9.80019
3323232290,22.72,0.0,0.0,0.0,0.019620000000000002,0.17658,9.819809999999999
3328282795,22.72,0.0,0.0,0.0,0.04905,0.15696000000000002,9.819809999999999
3333333300,22.72,0.0,0.0,0.0,0.019620000000000002,0.14715,9.81
3338383805,22.72,0.0,0.0,0.0,0.02943,0.14715,9.80019
3343434310,22.72,0.0,0.0,0.0,0.039240000000000004,0.17658,9.79038
3348484815,22.72,0.0,0.0,0.0,0.04905,0.14715,9.80019
3353535320,22.72,0.0,0.0,0.0,0.009810000000000001,0.12753,9.81
3358585825,22.72,0.0,0.0,0.0,0.02943,0.15696000000000002,9.81
3363636330,22.72,0.0,0.0,0.0,0.02943,0.13734000000000002,9.81
3368686835,22.72,0.0,0.0,0.0,0.009810000000000001,0.15696000000000002,9.81
3373737340,22.72,0.0,0.0,0.0,0.019620000000000002,0.14715,9.819809999999999
3378787845,22.72,0.0,0.0,0.0,0.019620000000000002,0.16677000000000003,9.78057
3383838350,22.72,0.0,0.0,0.0,0.019620000000000002,0.17658,9.81
3388888855,22.72,0.0,0.0,0.0,0.039240000000000004,0.15696000000000002,9.79038
3393939360,22.72,0.0,0.0,0.0,0.009810000000000001,0.13734000000000002,9.78057
3398989865,22.72,0.0,0.0,0.0,0.02943,0.14715,9.80019
3404040370,22.72,0.0,0.0,0.0,0.019620000000000002,0.14715,9.81
3409090875,22.72,0.0,0.0,0.0,0.019620000000000002,0.14715,9.81
3414141380,22.72,0.0,0.0,0.0,0.019620000000000002,0.14715,9.79038
3419191885,22.72,0.0,0.0,0.0,0.009810000000000001,0.14715,9.78057
3424242390,22.72,0.0,0.0,0.0,0.02943,0.17658,9.80019
3429292895,22.72,0.0,0.0,0.0,0.009810000000000001,0.17658,9.80019
3434343400,22.72,0.0,0.0,0.0,0.039240000000000004,0.15696000000000002,9.79038
3439393905,22.72,0.0,0.0,0.0,0.019620000000000002,0.15696000000000002,9.80019
3444444410,22.72,0.0,0.0,0.0,0.04905,0.11772,9.81
3449494915,22.72,0.0,0.0,0.0,0.019620000000000002,0.16677000000000003,9.80019
3454545420,22.72,0.0,0.0,0.0,0.0,0.16677000000000003,9.81
3459595925,22.72,0.0,0.0,0.0,0.04905,0.14715,9.819809999999999
3464646430,22.72,0.0,0.0,0.0,0.039240000000000004,0.15696000000000002,9.79038
3469696935,22.72,0.0,0.0,0.0,0.06867000000000001,0.16677000000000003,9.78057
3474747440,22.72,0.0,0.0,0.0,0.039240000000000004,0.16677000000000003,9.79038
3479797945,22.72,0.0,0.0,0.0,0.04905,0.18639,9.80019
3484848450,22.72,0.0,0.0,0.0,0.039240000000000004,0.16677000000000003,9.81
3489898955,22.72,0.0,0.0,0.0,0.02943,0.16677000000000003,9.81
3494949460,22.72,0.0,0.0,0.0,0.009810000000000001,0.15696000000000002,9.78057
3499999965,22.72,0.0,0.0,0.0,0.039240000000000004,0.14715,9.79038
3505050470,22.72,0.0,0.0,0.0,0.039240000000000004,0.15696000000000002,9.80019
3510100975,22.72,0.0,0.0,0.0,0.039240000000000004,0.14715,9.79038
3515151480,22.72,0.0,0.0,0.0,0.02943,0.14715,9.81
3520201985,22.72,0.0,0.0,0.0,0.04905,0.16677000000000003,9.80019
3525252490,22.72,0.0,0.0,0.0,0.019620000000000002,0.14715,9.78057
3530302995,22.72,0.0,0.0,0.0,0.02943,0.12753,9.81
3535353500,22.72,0.0,0.0,0.0,0.019620000000000002,0.14715,9.760950000000001
3540404005,22.72,0.0,0.0,0.0,0.019620000000000002,0.12753,9.80019
3545454510,22.72,0.0,0.0,0.0,0.02943,0.15696000000000002,9.81
3550505015,22.72,0.0,0.0,0.0,0.039240000000000004,0.16677000000000003,9.81
3555555520,22.72,0.0,0.0,0.0,0.039240000000000004,0.14715,9.80019
3560606025,22.72,0.0,0.0,0.0,0.02943,0.15696000000000002,9.80019
3565656530,22.72,0.0,0.0,0.0,0.039240000000000004,0.17658,9.819809999999999
3570707035,22.72,0.0,0.0,0.0,0.02943,0.16677000000000003,9.80019
3575757540,22.72,0.0,0.0,0.0,0.02943,0.17658,9.79038
3580808045,22.72,0.0,0.0,0.0,0.019620000000000002,0.12753,9.79038
3585858550,22.72,0.0,0.0,0.0,0.02943,0.17658,9.80019
3590909055,22.72,0.0,0.0,0.0,0.04905,0.13734000000000002,9.81
3595959560,22.72,0.0,0.0,0.0,0.02943,0.17658,9.81
3601010065,22.72,0.0,0.0,0.0,0.02943,0.16677000000000003,9.80019
3606060570,22.72,0.0,0.0,0.0,0.019620000000000002,0.13734000000000002,9.80019
3611111075,22.72,0.0,0.0,0.0,0.019620000000000002,0.15696000000000002,9.80019
3616161580,22.72,0.0,0.0,0.0,0.039240000000000004,0.14715,9.81
3621212085,22.72,0.0,0.0,0.0,0.019620000000000002,0.16677000000000003,9.78057
3626262590,22.72,0.0,0.0,0.0,0.009810000000000001,0.17658,9.80019
3631313095,22.72,0.0,0.0,0.0,0.04905,0.15696000000000002,9.81
3636363600,22.72,0.0,0.0,0.0,0.0,0.15696000000000002,9.78057
3641414105,22.72,0.0,0.0,0.0,0.019620000000000002,0.15696000000000002,9.79038
3646464610,22.72,0.0,0.0,0.0,0.02943,0.13734000000000002,9.81
3651515115,22.72,0.0,0.0,0.0,0.02943,0.16677000000000003,9.81
3656565620,22.72,0.0,0.0,0.0,0.02943,0.17658,9.81
3661616125,22.72,0.0,0.0,0.0,0.02943,0.15696000000000002,9.78057
3666666630,22.72,0.0,0.0,0.0,0.019620000000000002,0.16677000000000003,9.79038
3671717135,22.72,0.0,0.0,0.0,0.039240000000000004,0.14715,9.81
3676767640,22.72,0.0,0.0,0.0,0.02943,0.14715,9.79038
3681818145,22.72,0.0,0.0,0.0,0.019620000000000002,0.14715,9.80019
3686868650,22.72,0.0,0.0,0.0,0.02943,0.14715,9.819809999999999
3691919155,22.72,0.0,0.0,0.0,0.019620000000000002,0.18639,9.78057
3696969660,22.72,0.0,0.0,0.0,0.039240000000000004,0.18639,9.81
3702020165,22.72,0.0,0.0,0.0,0.04905,0.14715,9.79038
3707070670,22.72,0.0,0.0,0.0,0.009810000000000001,0.17658,9.79038
3712121175,22.72,0.0,0.0,0.0,0.009810000000000001,0.16677000000000003,9.81
3717171680,22.72,0.0,0.0,0.0,0.009810000000000001,0.15696000000000002,9.819809999999999
3722222185,22.72,0.0,0.0,0.0,0.039240000000000004,0.15696000000000002,9.80019
3727272690,22.72,0.0,0.0,0.0,0.009810000000000001,0.14715,9.81
3732323195,22.72,0.0,0.0,0.0,0.04905,0.13734000000000002,9.819809999999999
3737373700,22.72,0.0,0.0,0.0,0.019620000000000002,0.14715,9.80019
3742424205,22.72,0.0,0.0,0.0,0.019620000000000002,0.13734000000000002,9.80019
3747474710,22.72,0.0,0.0,0.0,0.02943,0.17658,9.79038
3752525215,22.72,0.0,0.0,0.0,0.009810000000000001,0.18639,9.80019
3757575720,22.72,0.0,0.0,0.0,0.02943,0.14715,9.81
3762626225,22.72,0.0,0.0,0.0,0.0,0.15696000000000002,9.819809999999999
3767676730,22.72,0.0,0.0,0.0,0.04905,0.14715,9.80019
3772727235,22.72,0.0,0.0,0.0,0.039240000000000004,0.12753,9.79038
3777777740,22.72,0.0,0.0,0.0,0.009810000000000001,0.13734000000000002,9.78057
3782828245,22.72,0.0,0.0,0.0,0.009810000000000001,0.15696000000000002,9.80019
3787878750,22.72,0.0,0.0,0.0,0.0,0.14715,9.81
3792929255,22.72,0.0,0.0,0.0,0.02943,0.15696000000000002,9.80019
3797979760,22.72,0.0,0.0,0.0,0.039240000000000004,0.15696000000000002,9.81
3803030265,22.72,0.0,0.0,0.0,0.04905,0.14715,9.81
3808080770,22.72,0.0,0.0,0.0,0.039240000000000004,0.16677000000000003,9.80019
3813131275,22.72,0.0,0.0,0.0,0.039240000000000004,0.16677000000000003,9.80019
3818181780,22.72,0.0,0.0,0.0,0.039240000000000004,0.16677000000000003,9.79038
3823232285,22.72,0.0,0.0,0.0,0.02943,0.12753,9.81
3828282790,22.72,0.0,0.0,0.0,0.019620000000000002,0.13734000000000002,9.770760000000001
3833333295,22.72,0.0,0.0,0.0,0.04905,0.15696000000000002,9.81
3838383800,22.72,0.0,0.0,0.0,0.039240000000000004,0.17658,9.80019
3843434305,22.72,0.0,0.0,0.0,0.019620000000000002,0.15696000000000002,9.770760000000001
3848484810,22.72,0.0,0.0,0.0,0.019620000000000002,0.14715,9.80019
3853535315,22.72,0.0,0.0,0.0,0.019620000000000002,0.14715,9.81
3858585820,22.72,0.0,0.0,0.0,0.02943,0.16677000000000003,9.81
3863636325,22.72,0.0,0.0,0.0,0.0,0.14715,9.79038
3868686830,22.72,0.0,0.0,0.0,0.039240000000000004,0.14715,9.81
3873737335,22.72,0.0,0.0,0.0,0.04905,0.16677000000000003,9.80019
3878787840,22.72,0.0,0.0,0.0,0.039240000000000004,0.15696000000000002,9.79038
3883838345,22.72,0.0,0.0,0.0,0.009810000000000001,0.15696000000000002,9.79038
3888888850,22.72,0.0,0.0,0.0,0.009810000000000001,0.14715,9.819809999999999
3893939355,22.72,0.0,0.0,0.0,0.019620000000000002,0.16677000000000003,9.81
3898989860,22.72,0.0,0.0,0.0,0.019620000000000002,0.16677000000000003,9.819809999999999
3904040365,22.72,0.0,0.0,0.0,0.04905,0.15696000000000002,9.78057
3909090870,22.72,0.0,0.0,0.0,0.039240000000000004,0.15696000000000002,9.770760000000001
3914141375,22.72,0.0,0.0,0.0,0.019620000000000002,0.16677000000000003,9.80019
3919191880,22.72,0.0,0.0,0.0,0.02943,0.16677000000000003,9.79038
3924242385,22.72,0.0,0.0,0.0,0.009810000000000001,0.15696000000000002,9.80019
3929292890,22.72,0.0,0.0,0.0,0.0,0.15696000000000002,9.81
3934343395,22.72,0.0,0.0,0.0,0.039240000000000004,0.16677000000000003,9.80019
3939393900,22.72,0.0,0.0,0.0,0.009810000000000001,0.17658,9.81
3944444405,22.72,0.0,0.0,0.0,0.02943,0.15696000000000002,9.81
3949494910,22.72,0.0,0.0,0.0,0.019620000000000002,0.13734000000000002,9.819809999999999
3954545415,22.72,0.0,0.0,0.0,0.02943,0.14715,9.819809999999999
3959595920,22.72,0.0,0.0,0.0,0.019620000000000002,0.13734000000000002,9.81
3964646425,22.72,0.0,0.0,0.0,0.019620000000000002,0.16677000000000003,9.80019
3969696930,22.72,0.0,0.0,0.0,0.019620000000000002,0.15696000000000002,9.81
3974747435,22.72,0.0,0.0,0.0,0.04905,0.14715,9.80019
3979797940,22.72,0.0,0.0,0.0,0.019620000000000002,0.15696000000000002,9.819809999999999
3984848445,22.72,0.0,0.0,0.0,0.02943,0.16677000000000003,9.79038
3989898950,22.72,0.0,0.0,0.0,0.019620000000000002,0.17658,9.80019
3994949455,22.72,0.0,0.0,0.0,0.02943,0.14715,9.819809999999999
3999999960,22.72,0.0,0.0,0.0,0.019620000000000002,0.14715,9.79038
4005050465,22.72,0.0,0.0,0.0,0.02943,0.15696000000000002,9.79038
4010100970,22.72,0.0,0.0,0.0,0.039240000000000004,0.16677000000000003,9.81
4015151475,22.72,0.0,0.0,0.0,0.009810000000000001,0.15696000000000002,9.78057
4020201980,22.72,0.0,0.0,0.0,0.039240000000000004,0.15696000000000002,9.78057
4025252485,22.72,0.0,0.0,0.0,0.02943,0.14715,9.81
4030302990,22.72,0.0,0.0,0.0,0.02943,0.14715,9.819809999999999
4035353495,22.72,0.0,0.0,0.0,0.019620000000000002,0.15696000000000002,9.819809999999999
4040404000,22.72,0.0,0.0,0.0,0.02943,0.15696000000000002,9.80019
4045454505,22.72,0.0,0.0,0.0,0.02943,0.15696000000000002,9.81
4050505010,22.72,0.0,0.0,0.0,0.02943,0.15696000000000002,9.79038
4055555515,22.72,0.0,0.0,0.0,0.019620000000000002,0.14715,9.78057
4060606020,22.72,0.0,0.0,0.0,0.0,0.16677000000000003,9.81
4065656525,22.72,0.0,0.0,0.0,0.04905,0.15696000000000002,9.80019
4070707030,22.72,0.0,0.0,0.0,0.019620000000000002,0.17658,9.81
4075757535,22.72,0.0,0.0,0.0,0.02943,0.16677000000000003,9.80019
4080808040,22.72,0.0,0.0,0.0,0.0,0.14715,9.78057
4085858545,22.72,0.0,0.0,0.0,0.02943,0.16677000000000003,9.78057
4090909050,22.72,0.0,0.0,0.0,0.019620000000000002,0.15696000000000002,9.81
4095959555,22.72,0.0,0.0,0.0,0.039240000000000004,0.17658,9.81
4101010060,22.72,0.0,0.0,0.0,0.019620000000000002,0.15696000000000002,9.80019
4106060565,22.72,0.0,0.0,0.0,0.019620000000000002,0.15696000000000002,9.81
4111111070,22.72,0.0,0.0,0.0,0.009810000000000001,0.16677000000000003,9.81
4116161575,22.72,0.0,0.0,0.0,0.009810000000000001,0.12753,9.81
4121212080,22.72,0.0,0.0,0.0,0.039240000000000004,0.16677000000000003,9.80019
4126262585,22.72,0.0,0.0,0.0,0.02943,0.14715,9.80019
4131313090,22.72,0.0,0.0,0.0,0.039240000000000004,0.17658,9.80019
4136363595,22.72,0.0,0.0,0.0,0.039240000000000004,0.16677000000000003,9.81
4141414100,22.72,0.0,0.0,0.0,0.019620000000000002,0.14715,9.78057
4146464605,22.72,0.0,0.0,0.0,0.02943,0.13734000000000002,9.80019
4151515110,22.72,0.0,0.0,0.0,0.02943,0.14715,9.770760000000001
4156565615,22.72,0.0,0.0,0.0,0.009810000000000001,0.16677000000000003,9.81
4161616120,22.72,0.0,0.0,0.0,0.009810000000000001,0.16677000000000003,9.79038
4166666625,22.72,0.0,0.0,0.0,0.04905,0.16677000000000003,9.81
4171717130,22.72,0.0,0.0,0.0,0.039240000000000004,0.16677000000000003,9.819809999999999
4176767635,22.72,0.0,0.0,0.0,0.039240000000000004,0.13734000000000002,9.80019
4181818140,22.72,0.0,0.0,0.0,0.02943,0.17658,9.79038
4186868645,22.72,0.0,0.0,0.0,0.009810000000000001,0.15696000000000002,9.81
4191919150,22.72,0.0,0.0,0.0,0.039240000000000004,0.17658,9.819809999999999
4196969655,22.72,0.0,0.0,0.0,0.019620000000000002,0.15696000000000002,9.819809999999999
4202020160,22.72,0.0,0.0,0.0,0.019620000000000002,0.16677000000000003,9.80019
4207070665,22.72,0.0,0.0,0.0,0.039240000000000004,0.17658,9.79038
4212121170,22.72,0.0,0.0,0.0,0.04905,0.12753,9.79038
4217171675,22.72,0.0,0.0,0.0,0.02943,0.16677000000000003,9.81
4222222180,22.72,0.0,0.0,0.0,0.019620000000000002,0.14715,9.81
4227272685,22.72,0.0,0.0,0.0,0.039240000000000004,0.14715,9.80019
4232323190,22.72,0.0,0.0,0.0,0.009810000000000001,0.13734000000000002,9.79038
4237373695,22.72,0.0,0.0,0.0,0.02943,0.16677000000000003,9.81
4242424200,22.72,0.0,0.0,0.0,0.009810000000000001,0.14715,9.78057
4247474705,22.72,0.0,0.0,0.0,0.039240000000000004,0.16677000000000003,9.80019
4252525210,22.72,0.0,0.0,0.0,0.02943,0.14715,9.78057
4257575715,22.72,0.0,0.0,0.0,0.02943,0.16677000000000003,9.81
4262626220,22.72,0.0,0.0,0.0,0.039240000000000004,0.17658,9.80019
4267676725,22.72,0.0,0.0,0.0,0.04905,0.13734000000000002,9.81
4272727230,22.72,0.0,0.0,0.0,0.019620000000000002,0.15696000000000002,9.80019
4277777735,22.72,0.0,0.0,0.0,0.039240000000000004,0.15696000000000002,9.80019
4282828240,22.72,0.0,0.0,0.0,0.019620000000000002,0.14715,9.79038
4287878745,22.72,0.0,0.0,0.0,0.05886,0.12753,9.78057
4292929250,22.72,0.0,0.0,0.0,0.009810000000000001,0.14715,9.80019
4297979755,22.72,0.0,0.0,0.0,0.009810000000000001,0.16677000000000003,9.81
4303030260,22.72,0.0,0.0,0.0,0.02943,0.17658,9.80019
4308080765,22.72,0.0,0.0,0.0,0.019620000000000002,0.15696000000000002,9.79038
4313131270,22.72,0.0,0.0,0.0,0.05886,0.15696000000000002,9.78057
4318181775,22.72,0.0,0.0,0.0,0.009810000000000001,0.13734000000000002,9.81
4323232280,22.72,0.0,0.0,0.0,0.019620000000000002,0.15696000000000002,9.79038
4328282785,22.72,0.0,0.0,0.0,0.019620000000000002,0.16677000000000003,9.80019
4333333290,22.72,0.0,0.0,0.0,0.04905,0.13734000000000002,9.80019
4338383795,22.72,0.0,0.0,0.0,0.05886,0.16677000000000003,9.79038
4343434300,22.72,0.0,0.0,0.0,0.039240000000000004,0.14715,9.80019
4348484805,22.72,0.0,0.0,0.0,0.0,0.14715,9.79038
4353535310,22.72,0.0,0.0,0.0,0.009810000000000001,0.15696000000000002,9.81
4358585815,22.72,0.0,0.0,0.0,0.02943,0.16677000000000003,9.79038
4363636320,22.72,0.0,0.0,0.0,0.05886,0.16677000000000003,9.81
4368686825,22.72,0.0,0.0,0.0,0.04905,0.17658,9.80019
4373737330,22.72,0.0,0.0,0.0,0.019620000000000002,0.16677000000000003,9.770760000000001
4378787835,22.72,0.0,0.0,0.0,0.02943,0.15696000000000002,9.79038
4383838340,22.72,0.0,0.0,0.0,0.039240000000000004,0.13734000000000002,9.78057
4388888845,22.72,0.0,0.0,0.0,0.009810000000000001,0.13734000000000002,9.79038
4393939350,22.72,0.0,0.0,0.0,0.0,0.18639,9.81
4398989855,22.72,0.0,0.0,0.0,0.0,0.16677000000000003,9.81
4404040360,22.72,0.0,0.0,0.0,0.019620000000000002,0.17658,9.81
4409090865,22.72,0.0,0.0,0.0,0.02943,0.15696000000000002,9.81
4414141370,22.72,0.0,0.0,0.0,0.05886,0.12753,9.81
4419191875,22.72,0.0,0.0,0.0,0.039240000000000004,0.13734000000000002,9.78057
4424242380,22.72,0.0,0.0,0.0,0.02943,0.15696000000000002,9.80019
4429292885,22.72,0.0,0.0,0.0,0.009810000000000001,0.14715,9.78057
4434343390,22.72,0.0,0.0,0.0,0.019620000000000002,0.18639,9.81
4439393895,22.72,0.0,0.0,0.0,0.04905,0.16677000000000003,9.80019
4444444400,22.72,0.0,0.0,0.0,0.039240000000000004,0.15696000000000002,9.81
4449494905,22.72,0.0,0.0,0.0,0.04905,0.14715,9.78057
4454545410,22.72,0.0,0.0,0.0,0.02943,0.14715,9.78057
4459595915,22.72,0.0,0.0,0.0,0.019620000000000002,0.16677000000000003,9.81
4464646420,22.72,0.0,0.0,0.0,0.05886,0.16677000000000003,9.81
4469696925,22.72,0.0,0.0,0.0,0.009810000000000001,0.16677000000000003,9.819809999999999
4474747430,22.72,0.0,0.0,0.0,0.039240000000000004,0.16677000000000003,9.78057
4479797935,22.72,0.0,0.0,0.0,0.019620000000000002,0.15696000000000002,9.79038
4484848440,22.72,0.0,0.0,0.0,0.009810000000000001,0.15696000000000002,9.770760000000001
4489898945,22.72,0.0,0.0,0.0,0.039240000000000004,0.13734000000000002,9.78057
4494949450,22.72,0.0,0.0,0.0,0.0,0.15696000000000002,9.79038
4499999955,22.72,0.0,0.0,0.0,0.009810000000000001,0.16677000000000003,9.81
4505050460,22.72,0.0,0.0,0.0,0.039240000000000004,0.15696000000000002,9.81
4510100965,22.72,0.0,0.0,0.0,0.039240000000000004,0.16677000000000003,9.78057
4515151470,22.72,0.0,0.0,0.0,0.02943,0.16677000000000003,9.770760000000001
4520201975,22.72,0.0,0.0,0.0,0.02943,0.17658,9.770760000000001
4525252480,22.72,0.0,0.0,0.0,0.039240000000000004,0.16677000000000003,9.78057
4530302985,22.72,0.0,0.0,0.0,0.019620000000000002,0.15696000000000002,9.79038
4535353490,22.72,0.0,0.0,0.0,0.02943,0.18639,9.78057
4540403995,22.72,0.0,0.0,0.0,0.02943,0.14715,9.770760000000001
4545454500,22.72,0.0,0.0,0.0,0.009810000000000001,0.16677000000000003,9.78057
4550505005,22.72,0.0,0.0,0.0,0.04905,0.15696000000000002,9.770760000000001
4555555510,22.72,0.0,0.0,0.0,0.0,0.17658,9.760950000000001
4560606015,22.72,0.0,0.0,0.0,0.009810000000000001,0.14715,9.760950000000001
4565656520,22.72,0.0,0.0,0.0,0.0,0.04905,9.81
4570707025,22.72,0.0,0.06710790973918197,0.0,-0.10791,-0.07848000000000001,9.74133
4575757530,22.72,0.00958185759344887,0.13955652698946658,0.0,-0.27468000000000004,-0.039240000000000004,9.78057
4580808035,22.72,0.003193952531149623,0.09587093581204853,0.0,-0.37278,0.04905,9.94734
4585858540,22.72,0.005323254218582705,0.039409534510031964,-0.005323254218582705,-0.6867000000000001,0.05886,9.59418
4590909045,22.72,0.0,0.006387905062299246,0.001064650843716541,-0.90252,0.18639,9.42741
4595959550,22.72,0.007452555906015787,-0.04153883619746504,0.0,-0.70632,0.46107000000000004,9.47646
4601010055,22.72,0.031956978604016174,-0.14700908289548237,0.001064650843716541,-0.18639,0.9810000000000001,9.67266
4606060560,22.72,-0.05539675045830002,-0.21411699263466438,0.0,0.36297,0.94176,10.56537
4611111065,22.72,-0.06604325889546543,-0.23329816111408203,0.002129301687433082,0.9221400000000001,0.28449,9.91791
4616161570,22.72,-0.12144000935376545,-0.1555262896452147,0.0,1.04967,-0.11772,9.47646
4621212075,22.72,-0.10653489754173388,-0.10653489754173388,0.0,1.24587,-0.40221,9.58437
4626262580,22.72,-0.09587093581204853,-0.006387905062299246,0.003193952531149623,1.21644,-0.41202000000000005,9.78057
4631313085,22.72,-0.05326744877086694,0.10119419003063122,-0.007452555906015787,1.00062,-0.60822,10.06506
4636363590,22.72,-0.01811651763570114,0.18109536318693162,-0.001064650843716541,0.57879,-0.36297,10.212209999999999
4641414095,22.72,0.022375121010567305,0.23329816111408203,-0.004258603374866164,0.02943,-0.31392000000000003,10.01601
4646464600,22.72,0.07456046564519776,0.23649211364523165,-0.003193952531149623,-0.35316,-0.20601000000000003,9.770760000000001
4651515105,22.72,0.07136651311404815,0.177901410655782,0.002129301687433082,-0.70632,-0.009810000000000001,9.6138
4656565610,22.72,0.09693558665576507,0.07670722062515077,0.0,-0.89271,0.11772,9.751140000000001
4661616115,22.72,0.09906488834319814,-0.03834488366631542,0.0,-0.84366,0.36297,9.56475
4666666620,22.72,0.11185815176031658,-0.10545279340549739,0.0,-0.72594,1.3537800000000002,9.78057
4671717125,22.72,0.11398745344774965,-0.13955652698946658,0.002129301687433082,-0.02943,1.1477700000000002,10.1043
4676767630,22.72,-0.004258603374866164,-0.08735372906231618,-0.001064650843716541,0.1962,0.94176,10.05525
4681818135,22.72,-0.06284930636431581,-0.05113814708343386,0.001064650843716541,0.31392000000000003,0.06867000000000001,8.927100000000001
4686868640,22.72,-0.08948303074974927,-0.014905111812031574,0.003193952531149623,-0.07848000000000001,0.07848000000000001,9.33912
4691919145,22.72,-0.10866419922916695,0.012775810124598492,0.002129301687433082,-0.0981,-0.07848000000000001,9.80019
4696969650,22.72,-0.06604325889546543,-0.008517206749732328,0.003193952531149623,-0.0981,-0.16677000000000003,10.17297
4702020155,22.72,-0.05007349623971732,-0.05220279792715039,0.0,0.019620000000000002,-0.1962,10.163160000000001
4707070660,22.72,-0.007452555906015787,-0.08841837990603273,-0.003193952531149623,0.24525000000000002,-0.18639,9.87867
4712121165,22.72,0.0,-0.06817256058289851,-0.002129301687433082,0.30411,-0.11772,9.70209
4717171670,22.72,0.023439771854283843,-0.005323254218582705,0.0,0.3924,-0.0981,9.60399
4722222175,22.72,0.024504422698000388,0.028763026072866547,-0.001064650843716541,0.40221,-0.039240000000000004,9.69228
4727272680,22.72,0.021310470166850764,0.05752605214573309,-0.003193952531149623,0.24525000000000002,0.04905,9.66285
4732323185,22.72,0.02982767691658309,0.09693558665576507,0.0,-0.009810000000000001,0.15696000000000002,9.80019
4737373690,22.72,0.05646140130201656,0.08841837990603273,-0.002129301687433082,-0.20601000000000003,0.48069000000000006,9.74133
4742424195,22.72,0.05646140130201656,0.05965535383316618,-0.001064650843716541,-0.24525000000000002,0.5591700000000001,9.92772
4747474700,22.72,0.014905111812031574,0.023439771854283843,-0.005323254218582705,-0.26487,0.57879,10.03563
4752525205,22.72,-0.012775810124598492,0.015987215948268057,-0.003193952531149623,-0.32373,0.2943,9.66285
4757575710,22.72,-0.024504422698000388,0.003193952531149623,0.0,-0.46107000000000004,0.17658,9.66285
4762626215,22.72,-0.039409534510031964,-0.02982767691658309,0.001064650843716541,-0.37278,0.11772,9.69228
4767676720,22.72,-0.0404741853537485,-0.060720004676882725,0.003193952531149623,-0.20601000000000003,0.02943,9.81
4772727225,22.72,-0.03834488366631542,-0.08096582400001695,0.002129301687433082,-0.0981,0.10791,9.937529999999999
4777777730,22.72,-0.01064650843716541,-0.10119419003063122,0.002129301687433082,0.07848000000000001,0.30411,9.86886
4782828235,22.72,-0.004258603374866164,-0.10653489754173388,-0.002129301687433082,0.45126,0.34335000000000004,9.908100000000001
4787878740,22.72,-0.02556907354171693,-0.08735372906231618,-0.002129301687433082,0.75537,0.17658,9.78057
4792929245,22.72,-0.04794419455228423,-0.0404741853537485,0.0,0.7651800000000001,-0.019620000000000002,9.70209
4797979750,22.72,-0.04153883619746504,-0.0,-0.001064650843716541,0.6768900000000001,-0.17658,9.6138
4803030255,22.72,-0.033021629447732716,0.05965535383316618,-0.001064650843716541,0.50031,-0.13734000000000002,9.81
4808080760,22.72,-0.01064650843716541,0.09480628496833199,-0.001064650843716541,0.27468000000000004,-0.07848000000000001,10.08468
4813131265,22.72,0.024504422698000388,0.10119419003063122,-0.003193952531149623,0.06867000000000001,-0.06867000000000001,10.025820000000001
4818181770,22.72,0.04260348704118158,0.10332349171806432,0.0,-0.14715,0.039240000000000004,9.78057
4823232275,22.72,0.04153883619746504,0.09480628496833199,0.0,-0.33354000000000006,0.0981,9.7119
4828282780,22.72,0.044732788728614664,0.08415977653116657,-0.003193952531149623,-0.52974,0.17658,9.770760000000001
4833333285,22.72,0.03621558197888234,0.060720004676882725,-0.004258603374866164,-0.6278400000000001,0.25506,9.78057
4838383790,22.72,0.03515093113516579,0.02769837522915001,0.0,-0.69651,0.50031,9.87867
4843434295,22.72,0.03089232776029963,-0.02982767691658309,0.0,-0.6180300000000001,0.5591700000000001,9.94734
4848484800,22.72,0.004258603374866164,-0.07349581480148122,0.001064650843716541,-0.46107000000000004,0.5591700000000001,9.80019
4853535305,22.72,-0.028763026072866547,-0.10438814256178083,0.004258603374866164,-0.1962,0.41202000000000005,9.64323
4858585810,22.72,-0.046879543708567686,-0.1278279144160647,0.0,0.009810000000000001,0.34335000000000004,9.623610000000001
4863636315,22.72,-0.06604325889546543,-0.12995721610349775,0.0,0.30411,0.21582,9.67266
4868686820,22.72,-0.06923721142661506,-0.1171814059788993,0.0,0.6180300000000001,0.02943,9.82962
4873737325,22.72,-0.07777187146886733,-0.0756251164889143,0.001064650843716541,0.73575,-0.17658,9.91791
4878787830,22.72,-0.05752605214573309,-0.02663372438543347,-0.002129301687433082,0.70632,-0.21582,9.84924
4883838335,22.72,-0.02982767691658309,0.02769837522915001,-0.003193952531149623,0.6768900000000001,-0.24525000000000002,9.95715
4888888840,22.72,-0.008517206749732328,0.07136651311404815,-0.001064650843716541,0.50031,-0.1962,9.84924
4893939345,22.72,0.012775810124598492,0.10012953918691468,0.0,0.35316,-0.16677000000000003,9.770760000000001
4898989850,22.72,0.04153883619746504,0.11505210429146619,-0.001064650843716541,0.06867000000000001,-0.04905,9.65304
4904040355,22.72,0.046879543708567686,0.12037535851004891,-0.004258603374866164,-0.13734000000000002,0.039240000000000004,9.623610000000001
4909090860,22.72,0.06497860805174888,0.10545279340549739,-0.002129301687433082,-0.40221,0.16677000000000003,9.73152
4914141365,22.72,0.06923721142661506,0.07349581480148122,-0.001064650843716541,-0.56898,0.32373,9.83943
4919191870,22.72,0.06178465552059926,0.03621558197888234,-0.003193952531149623,-0.63765,0.65727,9.86886
4924242375,22.72,0.03089232776029963,-0.005323254218582705,0.001064650843716541,-0.5395500000000001,0.69651,9.99639
4929292880,22.72,0.003193952531149623,-0.05752605214573309,0.0,-0.43164,0.52974,9.55494
4934343385,22.72,-0.033021629447732716,-0.07777187146886733,0.003193952531149623,-0.25506,0.47088,9.57456
4939393890,22.72,-0.05326744877086694,-0.08948303074974927,0.002129301687433082,-0.07848000000000001,0.25506,9.50589
4944444395,22.72,-0.06178465552059926,-0.09374163412461543,0.001064650843716541,0.08829,0.10791,9.623610000000001
4949494900,22.72,-0.07136651311404815,-0.08628907821859966,-0.002129301687433082,0.25506,-0.019620000000000002,9.81
4954545405,22.72,-0.06178465552059926,-0.06497860805174888,0.0,0.34335000000000004,-0.14715,9.91791
4959595910,22.72,-0.05007349623971732,-0.02982767691658309,0.003193952531149623,0.37278,-0.14715,9.91791
4964646415,22.72,-0.033021629447732716,-0.004258603374866164,0.0,0.42183,-0.16677000000000003,9.95715
4969696920,22.72,-0.002129301687433082,0.006387905062299246,0.0,0.41202000000000005,-0.11772,9.69228
4974747425,22.72,0.007452555906015787,0.022375121010567305,0.0,0.38259000000000004,-0.02943,9.64323
4979797930,22.72,0.028763026072866547,0.03408628029144926,-0.002129301687433082,0.30411,0.0,9.70209
4984848435,22.72,0.04153883619746504,0.04581489286485115,0.0,0.18639,0.16677000000000003,9.81
4989898940,22.72,0.0404741853537485,0.05539675045830002,0.0,0.07848000000000001,0.27468000000000004,9.97677
4994949445,22.72,0.01918116847941768,0.06817256058289851,0.0,-0.04905,0.33354000000000006,10.143540000000002
4999999950,22.72,0.01918116847941768,0.05752605214573309,-0.001064650843716541,-0.17658,0.21582,9.819809999999999
5005050455,22.72,0.007452555906015787,0.04581489286485115,0.0,-0.34335000000000004,0.28449,9.84924
5010100960,22.72,-0.004258603374866164,0.028763026072866547,0.0,-0.31392000000000003,0.24525000000000002,9.78057
5015151465,22.72,-0.005323254218582705,0.005323254218582705,-0.001064650843716541,-0.3924,0.23544,9.86886
5020201970,22.72,-0.01918116847941768,-0.011711159280881954,-0.001064650843716541,-0.38259000000000004,0.13734000000000002,9.82962
5025252475,22.72,-0.011711159280881954,-0.03621558197888234,0.002129301687433082,-0.28449,0.11772,9.770760000000001
5030302980,22.72,-0.021310470166850764,-0.06497860805174888,0.002129301687433082,-0.1962,0.15696000000000002,9.81
5035353485,22.72,-0.022375121010567305,-0.08203047484373349,0.002129301687433082,0.0,0.20601000000000003,9.87867
5040403990,22.72,-0.024504422698000388,-0.07883652231258387,0.0,0.20601000000000003,0.14715,9.908100000000001
5045454495,22.72,-0.021310470166850764,-0.06178465552059926,-0.001064650843716541,0.37278,0.05886,9.85905
5050505000,22.72,-0.014905111812031574,-0.03515093113516579,-0.001064650843716541,0.43164,0.02943,9.68247
5055555505,22.72,-0.011711159280881954,-0.008517206749732328,0.001064650843716541,0.46107000000000004,0.0,9.66285
5060606010,22.72,-0.002129301687433082,0.02556907354171693,0.0,0.38259000000000004,0.0,9.57456
5065656515,22.72,0.002129301687433082,0.054332099614583476,0.0,0.25506,0.019620000000000002,9.64323
5070707020,22.72,0.006387905062299246,0.07349581480148122,0.0,0.13734000000000002,0.07848000000000001,9.751140000000001
5075757525,22.72,0.01811651763570114,0.07456046564519776,-0.003193952531149623,-0.05886,0.13734000000000002,9.78057
5080808030,22.72,0.023439771854283843,0.05539675045830002,-0.003193952531149623,-0.18639,0.30411,9.7119
5085858535,22.72,0.02769837522915001,0.03089232776029963,-0.003193952531149623,-0.20601000000000003,0.3924,9.751140000000001
5090909040,22.72,0.012775810124598492,0.012775810124598492,-0.002129301687433082,-0.21582,0.41202000000000005,9.70209
5095959545,22.72,-0.00958185759344887,0.006387905062299246,0.0,-0.20601000000000003,0.32373,9.57456
5101010050,22.72,-0.028763026072866547,0.001064650843716541,-0.001064650843716541,-0.26487,0.21582,9.633420000000001
5106060555,22.72,-0.033021629447732716,-0.0170518667919846,0.001064650843716541,-0.25506,0.17658,9.67266
5111111060,22.72,-0.03621558197888234,-0.03515093113516579,0.0,-0.18639,0.10791,9.819809999999999
5116161565,22.72,-0.03408628029144926,-0.05752605214573309,0.002129301687433082,-0.10791,0.05886,9.99639
5121212070,22.72,-0.03728023282259888,-0.06284930636431581,0.0,0.0,0.0,10.01601
5126262575,22.72,-0.02769837522915001,-0.06391395720803235,0.0,0.11772,0.019620000000000002,10.01601
5131313080,22.72,-0.020245819323134222,-0.05646140130201656,0.0,0.2943,0.06867000000000001,9.97677
5136363585,22.72,-0.013840460968315033,-0.04153883619746504,-0.001064650843716541,0.41202000000000005,0.019620000000000002,9.96696
5141414090,22.72,-0.011711159280881954,-0.013840460968315033,0.0,0.42183,-0.019620000000000002,9.888480000000001
5146464595,22.72,-0.001064650843716541,0.01918116847941768,0.001064650843716541,0.38259000000000004,-0.02943,9.83943
5151515100,22.72,0.004258603374866164,0.04366813788489812,0.0,0.26487,-0.019620000000000002,9.85905
5156565605,22.72,0.011711159280881954,0.05326744877086694,-0.002129301687433082,0.12753,0.02943,9.94734
5161616110,22.72,0.020245819323134222,0.05326744877086694,-0.002129301687433082,0.02943,0.04905,9.82962
5166666615,22.72,0.023439771854283843,0.044732788728614664,-0.005323254218582705,-0.04905,0.21582,9.770760000000001
5171717120,22.72,0.02769837522915001,0.03621558197888234,0.0,-0.08829,0.31392000000000003,9.751140000000001
5176767625,22.72,0.01918116847941768,0.02663372438543347,0.001064650843716541,-0.14715,0.35316,9.68247
5181818130,22.72,0.006387905062299246,0.014905111812031574,-0.001064650843716541,-0.13734000000000002,0.33354000000000006,9.57456
5186868635,22.72,-0.004258603374866164,0.003193952531149623,0.0,-0.1962,0.31392000000000003,9.50589
5191919140,22.72,-0.0170518667919846,-0.004258603374866164,0.0,-0.15696000000000002,0.25506,9.5157
5196969645,22.72,-0.020245819323134222,-0.01064650843716541,0.0,-0.14715,0.21582,9.56475
5202020150,22.72,-0.02556907354171693,-0.015987215948268057,0.005323254218582705,-0.15696000000000002,0.13734000000000002,9.58437
5207070655,22.72,-0.028763026072866547,-0.031956978604016174,0.001064650843716541,-0.07848000000000001,0.12753,9.69228
5212121160,22.72,-0.024504422698000388,-0.04581489286485115,0.0,0.0,0.13734000000000002,9.72171
5217171665,22.72,-0.02556907354171693,-0.049008845396000776,0.001064650843716541,0.11772,0.13734000000000002,9.79038
5222222170,22.72,-0.02769837522915001,-0.039409534510031964,-0.001064650843716541,0.20601000000000003,0.06867000000000001,9.86886
5227272675,22.72,-0.028763026072866547,-0.0170518667919846,-0.001064650843716541,0.22563,0.0,9.85905
5232323180,22.72,-0.033021629447732716,-0.003193952531149623,-0.002129301687433082,0.1962,-0.04905,9.819809999999999
5237373685,22.72,-0.0170518667919846,0.00958185759344887,0.001064650843716541,0.16677000000000003,-0.039240000000000004,9.91791
5242424190,22.72,-0.008517206749732328,0.01064650843716541,-0.002129301687433082,0.10791,0.0,9.97677
5247474695,22.72,-0.001064650843716541,0.014905111812031574,0.001064650843716541,0.0981,0.08829,9.96696
5252525200,22.72,0.008517206749732328,0.01918116847941768,0.0,0.08829,0.14715,9.96696
5257575705,22.72,0.011711159280881954,0.01811651763570114,0.001064650843716541,0.04905,0.16677000000000003,9.937529999999999
5262626210,22.72,0.002129301687433082,0.013840460968315033,-0.002129301687433082,0.02943,0.15696000000000002,9.888480000000001
5267676715,22.72,0.0,0.015987215948268057,-0.002129301687433082,0.009810000000000001,0.13734000000000002,9.819809999999999
5272727220,22.72,-0.007452555906015787,0.0170518667919846,0.0,-0.02943,0.11772,9.73152
5277777725,22.72,-0.005323254218582705,0.021310470166850764,-0.001064650843716541,-0.06867000000000001,0.14715,9.74133
5282828230,22.72,-0.003193952531149623,0.021310470166850764,0.0,-0.11772,0.17658,9.72171
5287878735,22.72,-0.001064650843716541,0.011711159280881954,0.0,-0.14715,0.20601000000000003,9.70209
5292929240,22.72,-0.001064650843716541,0.0,0.001064650843716541,-0.12753,0.23544,9.72171
5297979745,22.72,-0.011711159280881954,-0.01918116847941768,0.001064650843716541,-0.0981,0.20601000000000003,9.68247
5303030250,22.72,-0.021310470166850764,-0.024504422698000388,0.0,-0.02943,0.1962,9.72171
5308080755,22.72,-0.02769837522915001,-0.023439771854283843,0.001064650843716541,0.0,0.10791,9.819809999999999
5313131260,22.72,-0.02663372438543347,-0.023439771854283843,0.0,0.019620000000000002,0.04905,9.83943
5318181765,22.72,-0.021310470166850764,-0.020245819323134222,0.001064650843716541,0.05886,0.0,9.83943
5323232270,22.72,-0.014905111812031574,-0.014905111812031574,0.0,0.08829,0.009810000000000001,9.819809999999999
5328282775,22.72,-0.01064650843716541,-0.007452555906015787,0.0,0.0981,0.0,9.78057
5333333280,22.72,-0.001064650843716541,0.005323254218582705,0.002129301687433082,0.0981,0.06867000000000001,9.78057
5338383785,22.72,-0.002129301687433082,0.008517206749732328,0.0,0.07848000000000001,0.11772,9.760950000000001
5343434290,22.72,-0.003193952531149623,0.007452555906015787,0.0,0.039240000000000004,0.15696000000000002,9.82962
5348484795,22.72,0.0,0.004258603374866164,0.0,0.04905,0.18639,9.81
5353535300,22.72,-0.004258603374866164,0.01064650843716541,-0.002129301687433082,0.04905,0.16677000000000003,9.78057
5358585805,22.72,-0.006387905062299246,0.00958185759344887,0.001064650843716541,0.019620000000000002,0.15696000000000002,9.72171
5363636310,22.72,-0.013840460968315033,0.006387905062299246,0.0,0.02943,0.13734000000000002,9.68247
5368686815,22.72,-0.015987215948268057,0.001064650843716541,-0.001064650843716541,0.0,0.12753,9.65304
5373737320,22.72,-0.0170518667919846,0.0,0.0,0.019620000000000002,0.14715,9.72171
5378787825,22.72,-0.0170518667919846,-0.004258603374866164,-0.001064650843716541,0.02943,0.15696000000000002,9.81
5383838330,22.72,-0.0170518667919846,-0.003193952531149623,0.0,0.009810000000000001,0.0981,9.84924
5388888835,22.72,-0.024504422698000388,-0.002129301687433082,-0.003193952531149623,0.0,0.039240000000000004,9.91791
5393939340,22.72,-0.023439771854283843,-0.01064650843716541,-0.002129301687433082,0.019620000000000002,0.0,9.908100000000001
5398989845,22.72,-0.0170518667919846,-0.0170518667919846,0.0,0.019620000000000002,-0.009810000000000001,9.86886
5404040350,22.72,-0.013840460968315033,-0.0170518667919846,0.0,0.06867000000000001,0.0,9.82962
5409090855,22.72,-0.004258603374866164,-0.00958185759344887,0.001064650843716541,0.13734000000000002,0.11772,9.80019
5414141360,22.72,0.003193952531149623,-0.001064650843716541,0.0,0.15696000000000002,0.15696000000000002,9.80019
5419191865,22.72,0.0,0.00958185759344887,-0.002129301687433082,0.12753,0.14715,9.72171
5424242370,22.72,-0.005323254218582705,0.014905111812031574,-0.001064650843716541,0.08829,0.14715,9.69228
5429292875,22.72,-0.013840460968315033,0.021310470166850764,-0.001064650843716541,0.039240000000000004,0.10791,9.73152
5434343380,22.72,-0.008517206749732328,0.020245819323134222,0.0,0.0,0.15696000000000002,9.7119
5439393885,22.72,-0.01064650843716541,0.013840460968315033,-0.001064650843716541,-0.019620000000000002,0.18639,9.74133
5444444390,22.72,-0.00958185759344887,0.004258603374866164,-0.002129301687433082,-0.009810000000000001,0.16677000000000003,9.78057
5449494895,22.72,-0.013840460968315033,0.002129301687433082,-0.002129301687433082,-0.009810000000000001,0.10791,9.81
5454545400,22.72,-0.01918116847941768,-0.0,-0.003193952531149623,-0.06867000000000001,0.06867000000000001,9.79038
5459595905,22.72,-0.020245819323134222,0.0,0.001064650843716541,-0.05886,0.02943,9.81
5464646410,22.72,-0.022375121010567305,-0.006387905062299246,0.001064650843716541,-0.039240000000000004,0.039240000000000004,9.87867
5469696915,22.72,-0.021310470166850764,-0.01811651763570114,-0.001064650843716541,-0.009810000000000001,0.04905,9.888480000000001
5474747420,22.72,-0.008517206749732328,-0.024504422698000388,0.003193952531149623,0.039240000000000004,0.15696000000000002,9.85905
5479797925,22.72,-0.006387905062299246,-0.020245819323134222,0.0,0.0981,0.13734000000000002,9.84924
5484848430,22.72,-0.001064650843716541,-0.011711159280881954,0.001064650843716541,0.14715,0.0981,9.770760000000001
5489898935,22.72,-0.003193952531149623,0.003193952531149623,0.001064650843716541,0.10791,0.10791,9.69228
5494949440,22.72,-0.007452555906015787,0.01811651763570114,0.0,0.0981,0.10791,9.633420000000001
5499999945,22.72,-0.015987215948268057,0.024504422698000388,-0.001064650843716541,0.05886,0.12753,9.67266
5505050450,22.72,-0.00958185759344887,0.022375121010567305,0.001064650843716541,0.0,0.14715,9.751140000000001
5510100955,22.72,-0.011711159280881954,0.01918116847941768,0.0,-0.04905,0.11772,9.83943
5515151460,22.72,-0.01064650843716541,0.013840460968315033,0.0,-0.10791,0.12753,9.84924
5520201965,22.72,-0.01064650843716541,0.0,0.0,-0.10791,0.10791,9.89829
5525252470,22.72,-0.013840460968315033,-0.006387905062299246,0.001064650843716541,-0.08829,0.02943,9.83943
5530302975,22.72,-0.020245819323134222,-0.01811651763570114,0.0,-0.07848000000000001,0.04905,9.79038
5535353480,22.72,-0.01811651763570114,-0.015987215948268057,-0.001064650843716541,-0.019620000000000002,0.0981,9.79038
5540403985,22.72,-0.01064650843716541,-0.015987215948268057,0.0,0.009810000000000001,0.13734000000000002,9.80019
5545454490,22.72,-0.007452555906015787,-0.020245819323134222,0.002129301687433082,0.08829,0.18639,9.79038
5550504995,22.72,-0.011711159280881954,-0.015987215948268057,0.002129301687433082,0.12753,0.12753,9.82962
5555555500,22.72,-0.015987215948268057,-0.011711159280881954,0.0,0.12753,0.06867000000000001,9.79038
5560606005,22.72,-0.021310470166850764,-0.002129301687433082,0.001064650843716541,0.11772,0.009810000000000001,9.74133
5565656510,22.72,-0.01811651763570114,0.005323254218582705,0.001064650843716541,0.11772,0.0,9.79038
5570707015,22.72,-0.014905111812031574,0.011711159280881954,0.0,0.06867000000000001,0.019620000000000002,9.83943
5575757520,22.72,-0.007452555906015787,0.014905111812031574,0.0,0.07848000000000001,0.019620000000000002,9.908100000000001
5580808025,22.72,-0.003193952531149623,0.013840460968315033,-0.001064650843716541,0.0,0.05886,9.908100000000001
5585858530,22.72,-0.001064650843716541,0.008517206749732328,0.0,-0.019620000000000002,0.06867000000000001,9.888480000000001
5590909035,22.72,-0.005323254218582705,0.004258603374866164,0.0,-0.019620000000000002,0.07848000000000001,9.83943
5595959540,22.72,-0.005323254218582705,0.0,0.0,0.0,0.10791,9.79038
5601010045,22.72,-0.003193952531149623,-0.007452555906015787,0.0,0.009810000000000001,0.16677000000000003,9.751140000000001
5606060550,22.72,-0.006387905062299246,-0.015987215948268057,0.001064650843716541,0.04905,0.15696000000000002,9.74133
5611111055,22.72,-0.006387905062299246,-0.015987215948268057,-0.001064650843716541,0.07848000000000001,0.1962,9.70209
5616161560,22.72,-0.011711159280881954,-0.01064650843716541,0.0,0.0981,0.18639,9.633420000000001
5621212065,22.72,-0.01811651763570114,-0.005323254218582705,-0.002129301687433082,0.12753,0.13734000000000002,9.623610000000001
5626262570,22.72,-0.022375121010567305,0.0,0.0,0.10791,0.07848000000000001,9.633420000000001
5631313075,22.72,-0.02769837522915001,0.005323254218582705,0.0,0.08829,0.0,9.68247
5636363580,22.72,-0.02769837522915001,0.01064650843716541,0.0,0.06867000000000001,-0.019620000000000002,9.80019
5641414085,22.72,-0.021310470166850764,0.008517206749732328,-0.001064650843716541,0.019620000000000002,0.0,9.888480000000001
5646464590,22.72,-0.012775810124598492,0.007452555906015787,0.0,0.009810000000000001,0.0,9.85905
5651515095,22.72,-0.004258603374866164,0.005323254218582705,0.0,0.0,0.039240000000000004,9.82962
5656565600,22.72,0.0,0.003193952531149623,-0.001064650843716541,-0.009810000000000001,0.0981,9.78057
5661616105,22.72,-0.002129301687433082,0.003193952531149623,0.001064650843716541,0.0,0.16677000000000003,9.7119
5666666610,22.72,-0.008517206749732328,0.002129301687433082,0.0,0.0,0.18639,9.67266
5671717115,22.72,-0.012775810124598492,0.002129301687433082,0.0,-0.009810000000000001,0.18639,9.73152
5676767620,22.72,-0.0170518667919846,-0.004258603374866164,0.0,0.009810000000000001,0.15696000000000002,9.80019
5681818125,22.72,-0.024504422698000388,-0.003193952531149623,0.0,0.0,0.06867000000000001,9.82962
5686868630,22.72,-0.02982767691658309,-0.0,-0.001064650843716541,-0.019620000000000002,-0.019620000000000002,9.86886
5691919135,22.72,-0.03089232776029963,0.0,0.0,-0.039240000000000004,-0.019620000000000002,9.91791
5696969640,22.72,-0.023439771854283843,0.001064650843716541,0.001064650843716541,-0.02943,-0.04905,9.937529999999999
5702020145,22.72,-0.02769837522915001,0.0,0.002129301687433082,0.0,0.009810000000000001,9.908100000000001
5707070650,22.72,-0.014905111812031574,-0.00958185759344887,0.0,0.019620000000000002,-0.02943,9.79038
5712121155,22.72,-0.002129301687433082,-0.011711159280881954,0.0,0.0,0.019620000000000002,9.79038
5717171660,22.72,-0.002129301687433082,-0.008517206749732328,0.0,0.04905,0.05886,9.760950000000001
5722222165,22.72,0.001064650843716541,-0.004258603374866164,0.0,0.05886,0.14715,9.81
5727272670,22.72,0.002129301687433082,0.001064650843716541,0.0,0.07848000000000001,0.12753,9.80019
5732323175,22.72,-0.004258603374866164,0.005323254218582705,0.0,0.06867000000000001,0.17658,9.72171
5737373680,22.72,-0.014905111812031574,0.006387905062299246,0.0,0.05886,0.13734000000000002,9.64323
5742424185,22.72,-0.01918116847941768,0.008517206749732328,0.0,0.02943,0.12753,9.7119
5747474690,22.72,-0.020245819323134222,0.011711159280881954,0.0,-0.009810000000000001,0.06867000000000001,9.78057
5752525195,22.72,-0.020245819323134222,0.006387905062299246,0.0,-0.02943,0.019620000000000002,9.82962
5757575700,22.72,-0.021310470166850764,0.0,0.0,-0.05886,0.02943,9.81
5762626205,22.72,-0.0170518667919846,-0.007452555906015787,0.0,-0.05886,0.04905,9.79038
5767676710,22.72,-0.014905111812031574,-0.00958185759344887,0.0,-0.009810000000000001,0.07848000000000001,9.74133
5772727215,22.72,-0.007452555906015787,-0.012775810124598492,0.0,0.009810000000000001,0.11772,9.70209
5777777720,22.72,-0.007452555906015787,-0.014905111812031574,0.0,0.0981,0.17658,9.67266
5782828225,22.72,-0.01064650843716541,-0.014905111812031574,0.0,0.10791,0.17658,9.70209
5787878730,22.72,-0.024504422698000388,-0.00958185759344887,0.0,0.15696000000000002,0.11772,9.760950000000001
5792929235,22.72,-0.03621558197888234,-0.007452555906015787,0.0,0.0981,-0.019620000000000002,9.81
5797979740,22.72,-0.039409534510031964,-0.002129301687433082,0.0,0.10791,-0.06867000000000001,9.908100000000001
5803030245,22.72,-0.03408628029144926,-0.003193952531149623,0.0,0.0981,-0.04905,9.95715
5808080750,22.72,-0.028763026072866547,-0.001064650843716541,0.0,0.13734000000000002,0.0,10.01601
5813131255,22.72,-0.011711159280881954,-0.001064650843716541,0.0,0.12753,-0.05886,9.83943
5818181760,22.72,-0.004258603374866164,0.007452555906015787,0.0,0.0981,0.009810000000000001,9.751140000000001
5823232265,22.72,-0.001064650843716541,0.013840460968315033,0.0,0.08829,0.019620000000000002,9.66285
5828282770,22.72,0.001064650843716541,0.021310470166850764,0.0,0.08829,0.04905,9.73152
5833333275,22.72,-0.004258603374866164,0.02982767691658309,0.0,0.0,0.11772,9.751140000000001
5838383780,22.72,-0.003193952531149623,0.028763026072866547,0.0,-0.07848000000000001,0.08829,9.83943
5843434285,22.72,-0.012775810124598492,0.022375121010567305,0.0,-0.13734000000000002,0.08829,9.89829
5848484790,22.72,-0.015987215948268057,0.006387905062299246,0.0,-0.15696000000000002,0.06867000000000001,9.87867
5853535295,22.72,-0.008517206749732328,-0.005323254218582705,0.0,-0.13734000000000002,0.07848000000000001,9.80019
5858585800,22.72,-0.012775810124598492,-0.014905111812031574,0.0,-0.11772,0.0981,9.751140000000001
5863636305,22.72,-0.012775810124598492,-0.014905111812031574,0.0,-0.06867000000000001,0.11772,9.72171
5868686810,22.72,-0.015987215948268057,-0.01918116847941768,0.0,-0.019620000000000002,0.10791,9.7119
5873737315,22.72,-0.022375121010567305,-0.01811651763570114,0.0,0.019620000000000002,0.0981,9.7119
5878787820,22.72,-0.02769837522915001,-0.0170518667919846,0.0,0.039240000000000004,0.02943,9.81
5883838325,22.72,-0.03089232776029963,-0.013840460968315033,0.0,0.04905,-0.009810000000000001,9.85905
5888888830,22.72,-0.02769837522915001,-0.01064650843716541,0.0,0.05886,-0.04905,9.908100000000001
5893939335,22.72,-0.01918116847941768,-0.011711159280881954,0.0,0.0981,-0.019620000000000002,9.91791
5898989840,22.72,-0.023439771854283843,-0.007452555906015787,0.0,0.11772,-0.02943,9.908100000000001
5904040345,22.72,-0.00958185759344887,-0.008517206749732328,0.0,0.13734000000000002,0.0,9.770760000000001
5909090850,22.72,-0.006387905062299246,0.008517206749732328,0.0,0.11772,0.019620000000000002,9.73152
5914141355,22.72,-0.005323254218582705,0.0170518667919846,0.0,0.10791,0.019620000000000002,9.69228
5919191860,22.72,0.0,0.020245819323134222,0.0,0.02943,0.06867000000000001,9.74133
5924242365,22.72,-0.003193952531149623,0.020245819323134222,0.0,0.02943,0.12753,9.74133
5929292870,22.72,-0.004258603374866164,0.01918116847941768,0.0,0.009810000000000001,0.08829,9.81
5934343375,22.72,-0.008517206749732328,0.01811651763570114,0.0,-0.07848000000000001,0.05886,9.78057
5939393880,22.72,-0.023439771854283843,0.014905111812031574,0.0,-0.12753,0.06867000000000001,9.760950000000001
5944444385,22.72,-0.0170518667919846,0.0,0.0,-0.12753,0.04905,9.760950000000001
5949494890,22.72,-0.01811651763570114,-0.014905111812031574,0.0,-0.10791,0.0981,9.760950000000001
5954545395,22.72,-0.013840460968315033,-0.02663372438543347,0.0,-0.009810000000000001,0.11772,9.751140000000001
5959595900,22.72,-0.0170518667919846,-0.02663372438543347,0.0,0.04905,0.10791,9.751140000000001
5964646405,22.72,-0.021310470166850764,-0.021310470166850764,0.0,0.08829,0.08829,9.751140000000001
5969696910,22.72,-0.02663372438543347,-0.01811651763570114,0.0,0.13734000000000002,0.039240000000000004,9.770760000000001
5974747415,22.72,-0.03408628029144926,-0.015987215948268057,0.0,0.14715,-0.039240000000000004,9.79038
5979797920,22.72,-0.03515093113516579,-0.012775810124598492,0.0,0.16677000000000003,-0.009810000000000001,9.819809999999999
5984848425,22.72,-0.028763026072866547,0.0,0.0,0.18639,-0.05886,9.92772
5989898930,22.72,-0.024504422698000388,0.008517206749732328,0.0,0.15696000000000002,-0.039240000000000004,9.888480000000001
5994949435,22.72,-0.01918116847941768,0.015987215948268057,0.0,0.14715,-0.04905,9.888480000000001
5999999940,22.72,-0.005323254218582705,0.0170518667919846,0.0,0.05886,-0.019620000000000002,9.82962
6005050445,22.72,-0.008517206749732328,0.020245819323134222,0.0,0.04905,0.0,9.79038
6010100950,22.72,-0.004258603374866164,0.021310470166850764,0.0,0.0,0.02943,9.72171
6015151455,22.72,-0.005323254218582705,0.02663372438543347,0.0,-0.05886,0.04905,9.73152
6020201960,22.72,-0.005323254218582705,0.022375121010567305,0.0,-0.08829,0.06867000000000001,9.78057
6025252465,22.72,-0.006387905062299246,0.007452555906015787,0.0,-0.10791,0.05886,9.82962
6030302970,22.72,-0.005323254218582705,-0.002129301687433082,0.0,-0.13734000000000002,0.0981,9.819809999999999
6035353475,22.72,-0.011711159280881954,-0.00958185759344887,0.0,-0.0981,0.07848000000000001,9.79038
6040403980,22.72,-0.014905111812031574,-0.013840460968315033,0.0,-0.039240000000000004,0.08829,9.760950000000001
6045454485,22.72,-0.0170518667919846,-0.0170518667919846,0.0,-0.02943,0.08829,9.7119
6050504990,22.72,-0.01811651763570114,-0.01811651763570114,0.0,0.039240000000000004,0.12753,9.70209
6055555495,22.72,-0.021310470166850764,-0.014905111812031574,0.0,0.05886,0.05886,9.72171
6060606000,22.72,-0.03089232776029963,-0.01064650843716541,0.0,0.08829,0.009810000000000001,9.751140000000001
6065656505,22.72,-0.03515093113516579,-0.007452555906015787,0.0,0.06867000000000001,0.0,9.78057
6070707010,22.72,-0.03515093113516579,-0.007452555906015787,0.0,0.07848000000000001,-0.05886,9.83943
6075757515,22.72,-0.03621558197888234,-0.001064650843716541,0.0,0.06867000000000001,-0.02943,9.908100000000001
6080808020,22.72,-0.024504422698000388,0.003193952531149623,0.0,0.06867000000000001,-0.04905,9.84924
6085858525,22.72,-0.01811651763570114,0.006387905062299246,0.0,0.06867000000000001,-0.039240000000000004,9.819809999999999
6090909030,22.72,-0.011711159280881954,0.008517206749732328,0.0,0.06867000000000001,-0.009810000000000001,9.73152
6095959535,22.72,-0.00958185759344887,0.007452555906015787,0.0,0.02943,0.0,9.7119
6101010040,22.72,-0.00958185759344887,0.01064650843716541,0.0,0.0,-0.009810000000000001,9.73152
6106060545,22.72,-0.013840460968315033,0.013840460968315033,0.0,-0.009810000000000001,0.019620000000000002,9.81
6111111050,22.72,-0.015987215948268057,0.006387905062299246,0.0,-0.039240000000000004,0.009810000000000001,9.86886
6116161555,22.72,-0.01811651763570114,-0.007452555906015787,0.0,-0.039240000000000004,0.02943,9.908100000000001
6121212060,22.72,-0.011711159280881954,-0.020245819323134222,0.0,-0.02943,0.039240000000000004,9.908100000000001
6126262565,22.72,-0.011711159280881954,-0.024504422698000388,0.0,0.05886,0.04905,9.819809999999999
6131313070,22.72,-0.011711159280881954,-0.02556907354171693,0.0,0.0981,0.07848000000000001,9.819809999999999
6136363575,22.72,-0.020245819323134222,-0.015987215948268057,0.0,0.1962,0.019620000000000002,9.819809999999999
6141414080,22.72,-0.03089232776029963,-0.008517206749732328,0.0,0.18639,-0.05886,9.78057
6146464585,22.72,-0.03515093113516579,0.002129301687433082,0.0,0.13734000000000002,-0.02943,9.819809999999999
6151515090,22.72,-0.031956978604016174,0.007452555906015787,0.0,0.14715,-0.05886,9.92772
6156565595,22.72,-0.023439771854283843,0.008517206749732328,0.0,0.12753,-0.07848000000000001,9.96696
6161616100,22.72,-0.020245819323134222,0.01064650843716541,0.0,0.07848000000000001,-0.04905,9.95715
6166666605,22.72,-0.011711159280881954,0.015987215948268057,0.0,0.06867000000000001,-0.07848000000000001,9.83943
6171717110,22.72,-0.007452555906015787,0.021310470166850764,0.0,0.04905,-0.039240000000000004,9.69228
6176767615,22.72,-0.008517206749732328,0.028763026072866547,0.0,0.0,0.0,9.6138
6181818120,22.72,-0.005323254218582705,0.02663372438543347,0.0,-0.039240000000000004,0.0,9.59418
6186868625,22.72,-0.006387905062299246,0.020245819323134222,0.0,-0.06867000000000001,0.019620000000000002,9.633420000000001
6191919130,22.72,-0.006387905062299246,0.012775810124598492,0.0,-0.12753,0.039240000000000004,9.79038
6196969635,22.72,-0.006387905062299246,0.002129301687433082,0.0,-0.13734000000000002,0.039240000000000004,9.82962
6202020140,22.72,-0.008517206749732328,-0.005323254218582705,0.0,-0.16677000000000003,0.04905,9.81
6207070645,22.72,-0.011711159280881954,-0.013840460968315033,0.0,-0.12753,0.04905,9.73152
6212121150,22.72,-0.015987215948268057,-0.022375121010567305,0.0,-0.06867000000000001,0.08829,9.623610000000001
6217171655,22.72,-0.01918116847941768,-0.021310470166850764,0.0,0.0,0.07848000000000001,9.623610000000001
6222222160,22.72,-0.02556907354171693,-0.01918116847941768,0.0,0.04905,0.07848000000000001,9.65304
6227272665,22.72,-0.031956978604016174,-0.014905111812031574,0.0,0.06867000000000001,0.039240000000000004,9.751140000000001
6232323170,22.72,-0.04153883619746504,-0.01064650843716541,0.0,0.07848000000000001,-0.02943,9.819809999999999
6237373675,22.72,-0.04153883619746504,-0.00958185759344887,0.0,0.05886,-0.05886,9.91791
6242424180,22.72,-0.04153883619746504,-0.006387905062299246,0.0,0.08829,-0.05886,9.99639
6247474685,22.72,-0.02982767691658309,-0.006387905062299246,0.0,0.08829,-0.07848000000000001,9.937529999999999
6252525190,22.72,-0.028763026072866547,-0.001064650843716541,0.0,0.13734000000000002,-0.06867000000000001,9.81
6257575695,22.72,-0.01811651763570114,0.002129301687433082,0.0,0.13734000000000002,-0.0981,9.73152
6262626200,22.72,-0.013840460968315033,0.012775810124598492,0.0,0.11772,-0.05886,9.7119
6267676705,22.72,-0.015987215948268057,0.014905111812031574,0.0,0.08829,-0.06867000000000001,9.770760000000001
6272727210,22.72,-0.020245819323134222,0.011711159280881954,0.0,0.009810000000000001,-0.04905,9.888480000000001
6277777715,22.72,-0.0170518667919846,0.005323254218582705,0.0,0.0,-0.05886,9.94734
6282828220,22.72,-0.013840460968315033,-0.004258603374866164,0.0,0.0,-0.02943,9.937529999999999
6287878725,22.72,0.0,-0.008517206749732328,0.0,0.0,-0.019620000000000002,9.82962
6292929230,22.72,0.002129301687433082,-0.011711159280881954,0.0,0.039240000000000004,0.0,9.751140000000001
6297979735,22.72,0.0,-0.007452555906015787,0.0,0.07848000000000001,0.04905,9.67266
6303030240,22.72,-0.01064650843716541,-0.006387905062299246,0.0,0.0981,0.04905,9.66285
6308080745,22.72,-0.01918116847941768,-0.002129301687433082,0.0,0.13734000000000002,0.019620000000000002,9.69228
6313131250,22.72,-0.02663372438543347,0.0,0.0,0.10791,0.0,9.80019
6318181755,22.72,-0.02982767691658309,0.002129301687433082,0.0,0.06867000000000001,0.0,9.89829
6323232260,22.72,-0.022375121010567305,-0.001064650843716541,0.0,0.02943,-0.02943,9.937529999999999
6328282765,22.72,-0.021310470166850764,-0.001064650843716541,0.0,0.06867000000000001,-0.009810000000000001,9.87867
6333333270,22.72,-0.014905111812031574,0.004258603374866164,0.0,0.08829,-0.019620000000000002,9.72171
6338383775,22.72,-0.020245819323134222,0.0170518667919846,0.0,0.04905,-0.019620000000000002,9.633420000000001
6343434280,22.72,-0.022375121010567305,0.02556907354171693,0.0,0.009810000000000001,-0.039240000000000004,9.57456
6348484785,22.72,-0.02982767691658309,0.02769837522915001,0.0,-0.039240000000000004,-0.04905,9.66285
6353535290,22.72,-0.02982767691658309,0.020245819323134222,0.0,-0.12753,-0.039240000000000004,9.819809999999999
6358585795,22.72,-0.02663372438543347,0.001064650843716541,0.0,-0.14715,-0.04905,9.937529999999999
6363636300,22.72,-0.020245819323134222,-0.0170518667919846,0.0,-0.12753,-0.05886,9.99639
6368686805,22.72,-0.0170518667919846,-0.028763026072866547,0.0,-0.07848000000000001,-0.039240000000000004,9.94734
6373737310,22.72,-0.014905111812031574,-0.03089232776029963,0.0,0.0,-0.07848000000000001,9.80019
6378787815,22.72,-0.013840460968315033,-0.022375121010567305,0.0,0.0981,-0.04905,9.73152
6383838320,22.72,-0.01918116847941768,-0.006387905062299246,0.0,0.12753,-0.05886,9.74133
6388888825,22.72,-0.02663372438543347,0.006387905062299246,0.0,0.08829,-0.06867000000000001,9.81
6393939330,22.72,-0.023439771854283843,0.001064650843716541,0.0,0.04905,-0.08829,9.87867
6398989835,22.72,-0.022375121010567305,-0.003193952531149623,0.0,0.039240000000000004,-0.06867000000000001,10.025820000000001
6404040340,22.72,-0.012775810124598492,-0.001064650843716541,0.0,0.039240000000000004,-0.07848000000000001,10.006200000000002
6409090845,22.72,-0.006387905062299246,0.002129301687433082,0.0,0.04905,-0.04905,9.92772
6414141350,22.72,-0.007452555906015787,0.01064650843716541,0.0,0.039240000000000004,-0.04905,9.78057
6419191855,22.72,-0.011711159280881954,0.012775810124598492,0.0,0.039240000000000004,-0.039240000000000004,9.60399
6424242360,22.72,-0.0170518667919846,0.0170518667919846,0.0,0.009810000000000001,-0.02943,9.53532
6429292865,22.72,-0.0170518667919846,0.012775810124598492,0.0,-0.019620000000000002,-0.039240000000000004,9.60399
6434343370,22.72,-0.01918116847941768,0.002129301687433082,0.0,0.0,0.0,9.74133
6439393875,22.72,-0.015987215948268057,-0.011711159280881954,0.0,-0.02943,-0.009810000000000001,9.87867
6444444380,22.72,-0.00958185759344887,-0.022375121010567305,0.0,0.0,-0.009810000000000001,9.888480000000001
6449494885,22.72,-0.01064650843716541,-0.02556907354171693,0.0,0.039240000000000004,0.02943,9.81
6454545390,22.72,-0.011711159280881954,-0.01918116847941768,0.0,0.10791,-0.02943,9.7119
6459595895,22.72,-0.024504422698000388,-0.011711159280881954,0.0,0.13734000000000002,-0.02943,9.64323
6464646400,22.72,-0.031956978604016174,-0.002129301687433082,0.0,0.17658,-0.039240000000000004,9.64323
6469696905,22.72,-0.03515093113516579,0.005323254218582705,0.0,0.16677000000000003,-0.039240000000000004,9.72171
6474747410,22.72,-0.03515093113516579,0.006387905062299246,0.0,0.11772,-0.05886,9.85905
6479797915,22.72,-0.02663372438543347,0.0,0.0,0.06867000000000001,-0.06867000000000001,9.98658
6484848420,22.72,-0.023439771854283843,0.001064650843716541,0.0,0.08829,-0.10791,9.98658
6489898925,22.72,-0.024504422698000388,0.004258603374866164,0.0,0.05886,-0.10791,9.908100000000001
6494949430,22.72,-0.023439771854283843,0.011711159280881954,0.0,0.08829,-0.10791,9.79038
6499999935,22.72,-0.023439771854283843,0.021310470166850764,0.0,0.02943,-0.0981,9.65304
6505050440,22.72,-0.02556907354171693,0.028763026072866547,0.0,0.009810000000000001,-0.0981,9.633420000000001
6510100945,22.72,-0.022375121010567305,0.020245819323134222,0.0,-0.05886,-0.06867000000000001,9.72171
6515151450,22.72,-0.01918116847941768,0.003193952531149623,0.0,-0.0981,-0.07848000000000001,9.81
6520201955,22.72,-0.011711159280881954,-0.005323254218582705,0.0,-0.0981,-0.05886,9.95715
6525252460,22.72,-0.008517206749732328,-0.006387905062299246,0.0,-0.0981,-0.07848000000000001,9.91791
6530302965,22.72,-0.008517206749732328,-0.011711159280881954,0.0,-0.04905,-0.05886,9.84924
6535353470,22.72,-0.012775810124598492,-0.007452555906015787,0.0,0.0,-0.05886,9.74133
6540403975,22.72,-0.01918116847941768,-0.005323254218582705,0.0,0.0,-0.04905,9.68247
6545454480,22.72,-0.023439771854283843,-0.003193952531149623,0.0,0.0,-0.039240000000000004,9.6138
6550504985,22.72,-0.02556907354171693,-0.007452555906015787,0.0,0.019620000000000002,-0.019620000000000002,9.70209
6555555490,22.72,-0.01918116847941768,-0.011711159280881954,0.0,0.039240000000000004,-0.009810000000000001,9.82962
6560605995,22.72,-0.013840460968315033,-0.01918116847941768,0.0,0.02943,-0.039240000000000004,9.92772
6565656500,22.72,-0.01918116847941768,-0.015987215948268057,0.0,0.07848000000000001,-0.07848000000000001,9.95715
6570707005,22.72,-0.023439771854283843,-0.007452555906015787,0.0,0.10791,-0.08829,9.89829
6575757510,22.72,-0.02982767691658309,0.006387905062299246,0.0,0.08829,-0.11772,9.770760000000001
6580808015,22.72,-0.03089232776029963,0.01064650843716541,0.0,0.06867000000000001,-0.07848000000000001,9.65304
6585858520,22.72,-0.033021629447732716,0.012775810124598492,0.0,0.04905,-0.08829,9.6138
6590909025,22.72,-0.020245819323134222,0.014905111812031574,0.0,0.039240000000000004,-0.0981,9.770760000000001
6595959530,22.72,-0.015987215948268057,0.00958185759344887,0.0,0.0,-0.07848000000000001,9.92772
6601010035,22.72,-0.01918116847941768,0.00958185759344887,0.0,-0.04905,-0.08829,10.025820000000001
6606060540,22.72,-0.020245819323134222,0.004258603374866164,0.0,-0.02943,-0.12753,10.03563
6611111045,22.72,-0.02663372438543347,0.0,0.0,-0.08829,-0.12753,9.95715
6616161550,22.72,-0.028763026072866547,0.0,0.0,-0.04905,-0.11772,9.78057
6621212055,22.72,-0.02663372438543347,-0.012775810124598492,0.0,-0.02943,-0.11772,9.67266
6626262560,22.72,-0.014905111812031574,-0.02769837522915001,0.0,0.04905,-0.10791,9.68247
6631313065,22.72,-0.007452555906015787,-0.04153883619746504,0.0,0.10791,-0.06867000000000001,9.74133
6636363570,22.72,-0.003193952531149623,-0.03728023282259888,0.0,0.22563,-0.06867000000000001,9.85905
6641414075,22.72,-0.00958185759344887,-0.022375121010567305,0.0,0.22563,-0.08829,9.92772
6646464580,22.72,-0.020245819323134222,-0.004258603374866164,0.0,0.27468000000000004,-0.06867000000000001,9.87867
6651515085,22.72,-0.02556907354171693,0.012775810124598492,0.0,0.23544,-0.10791,9.760950000000001
6656565590,22.72,-0.023439771854283843,0.02556907354171693,0.0,0.22563,-0.07848000000000001,9.67266
6661616095,22.72,-0.011711159280881954,0.03408628029144926,0.0,0.15696000000000002,-0.06867000000000001,9.60399
6666666600,22.72,-0.005323254218582705,0.0404741853537485,0.0,0.06867000000000001,0.0,9.633420000000001
6671717105,22.72,-0.003193952531149623,0.044732788728614664,0.0,0.0,-0.039240000000000004,9.70209
6676767610,22.72,-0.0170518667919846,0.04260348704118158,0.0,-0.11772,-0.04905,9.81
6681818115,22.72,-0.02982767691658309,0.0404741853537485,0.0,-0.20601000000000003,-0.05886,9.87867
6686868620,22.72,-0.03515093113516579,0.02663372438543347,0.0,-0.28449,-0.07848000000000001,9.83943
6691919125,22.72,-0.03408628029144926,0.007452555906015787,0.0,-0.30411,-0.0981,9.81
6696969630,22.72,-0.03089232776029963,-0.015987215948268057,0.0,-0.25506,-0.0981,9.751140000000001
6702020135,22.72,-0.020245819323134222,-0.0404741853537485,0.0,-0.18639,-0.11772,9.72171
6707070640,22.72,-0.022375121010567305,-0.05220279792715039,0.0,-0.04905,-0.10791,9.7119
6712121145,22.72,-0.021310470166850764,-0.05220279792715039,0.0,0.04905,-0.0981,9.751140000000001
6717171650,22.72,-0.02982767691658309,-0.04794419455228423,0.0,0.13734000000000002,-0.10791,9.81
6722222155,22.72,-0.031956978604016174,-0.03515093113516579,0.0,0.20601000000000003,-0.14715,9.87867
6727272660,22.72,-0.03089232776029963,-0.02556907354171693,0.0,0.24525000000000002,-0.13734000000000002,9.92772
6732323165,22.72,-0.02769837522915001,-0.00958185759344887,0.0,0.27468000000000004,-0.15696000000000002,9.908100000000001
6737373670,22.72,-0.0170518667919846,0.002129301687433082,0.0,0.27468000000000004,-0.13734000000000002,9.82962
6742424175,22.72,-0.013840460968315033,0.00958185759344887,0.0,0.25506,-0.12753,9.751140000000001
6747474680,22.72,-0.006387905062299246,0.023439771854283843,0.0,0.20601000000000003,-0.12753,9.70209
6752525185,22.72,-0.011711159280881954,0.0404741853537485,0.0,0.13734000000000002,-0.11772,9.74133
6757575690,22.72,-0.01811651763570114,0.049008845396000776,0.0,0.02943,-0.11772,9.819809999999999
6762626195,22.72,-0.022375121010567305,0.046879543708567686,0.0,-0.11772,-0.0981,9.91791
6767676700,22.72,-0.020245819323134222,0.024504422698000388,0.0,-0.17658,-0.10791,9.888480000000001
6772727205,22.72,-0.01811651763570114,0.0,0.0,-0.16677000000000003,-0.08829,9.81
6777777710,22.72,-0.013840460968315033,-0.022375121010567305,0.0,-0.13734000000000002,-0.07848000000000001,9.73152
6782828215,22.72,-0.008517206749732328,-0.03621558197888234,0.0,-0.02943,-0.06867000000000001,9.72171
6787878720,22.72,-0.011711159280881954,-0.03621558197888234,0.0,0.02943,-0.06867000000000001,9.72171
6792929225,22.72,-0.02556907354171693,-0.02556907354171693,0.0,0.0981,-0.10791,9.770760000000001
6797979730,22.72,-0.031956978604016174,-0.022375121010567305,0.0,0.16677000000000003,-0.11772,9.79038
6803030235,22.72,-0.039409534510031964,-0.015987215948268057,0.0,0.14715,-0.14715,9.82962
6808080740,22.72,-0.031956978604016174,-0.011711159280881954,0.0,0.18639,-0.13734000000000002,9.85905
6813131245,22.72,-0.022375121010567305,0.0,0.0,0.18639,-0.13734000000000002,9.888480000000001
6818181750,22.72,-0.012775810124598492,0.005323254218582705,0.0,0.17658,-0.14715,9.86886
6823232255,22.72,-0.013840460968315033,0.01811651763570114,0.0,0.12753,-0.15696000000000002,9.819809999999999
6828282760,22.72,-0.022375121010567305,0.033021629447732716,0.0,0.06867000000000001,-0.15696000000000002,9.751140000000001
6833333265,22.72,-0.033021629447732716,0.03834488366631542,0.0,0.009810000000000001,-0.15696000000000002,9.751140000000001
6838383770,22.72,-0.03515093113516579,0.031956978604016174,0.0,-0.05886,-0.18639,9.83943
6843434275,22.72,-0.03089232776029963,0.022375121010567305,0.0,-0.11772,-0.15696000000000002,9.92772
6848484780,22.72,-0.0170518667919846,0.008517206749732328,0.0,-0.16677000000000003,-0.17658,9.937529999999999
6853535285,22.72,-0.006387905062299246,-0.00958185759344887,0.0,-0.15696000000000002,-0.14715,9.87867
6858585790,22.72,-0.007452555906015787,-0.024504422698000388,0.0,-0.08829,-0.17658,9.79038
6863636295,22.72,-0.01064650843716541,-0.02769837522915001,0.0,-0.009810000000000001,-0.12753,9.70209
6868686800,22.72,-0.0170518667919846,-0.014905111812031574,0.0,0.019620000000000002,-0.12753,9.64323
6873737305,22.72,-0.01918116847941768,0.0,0.0,0.039240000000000004,-0.11772,9.69228
6878787810,22.72,-0.0170518667919846,0.002129301687433082,0.0,0.019620000000000002,-0.11772,9.760950000000001
6883838315,22.72,-0.012775810124598492,-0.005323254218582705,0.0,0.019620000000000002,-0.0981,9.819809999999999
6888888820,22.72,-0.011711159280881954,-0.012775810124598492,0.0,0.019620000000000002,-0.10791,9.819809999999999
6893939325,22.72,-0.012775810124598492,-0.012775810124598492,0.0,0.08829,-0.07848000000000001,9.78057
6898989830,22.72,-0.015987215948268057,-0.005323254218582705,0.0,0.08829,-0.07848000000000001,9.72171
6904040335,22.72,-0.020245819323134222,0.00958185759344887,0.0,0.0981,-0.07848000000000001,9.69228
6909090840,22.72,-0.02663372438543347,0.01811651763570114,0.0,0.07848000000000001,-0.10791,9.70209
6914141345,22.72,-0.031956978604016174,0.008517206749732328,0.0,0.009810000000000001,-0.11772,9.751140000000001
6919191850,22.72,-0.031956978604016174,0.0,0.0,0.009810000000000001,-0.15696000000000002,9.81
6924242355,22.72,-0.03408628029144926,-0.008517206749732328,0.0,0.05886,-0.14715,9.87867
6929292860,22.72,-0.023439771854283843,-0.01064650843716541,0.0,0.04905,-0.15696000000000002,9.908100000000001
6934343365,22.72,-0.023439771854283843,-0.00958185759344887,0.0,0.05886,-0.16677000000000003,9.87867
6939393870,22.72,-0.023439771854283843,-0.003193952531149623,0.0,0.07848000000000001,-0.18639,9.83943
6944444375,22.72,-0.03515093113516579,-0.002129301687433082,0.0,0.0981,-0.20601000000000003,9.760950000000001
6949494880,22.72,-0.03621558197888234,0.003193952531149623,0.0,0.0981,-0.1962,9.751140000000001
6954545385,22.72,-0.02769837522915001,0.004258603374866164,0.0,0.07848000000000001,-0.20601000000000003,9.760950000000001
6959595890,22.72,-0.024504422698000388,0.003193952531149623,0.0,0.04905,-0.18639,9.819809999999999
6964646395,22.72,-0.011711159280881954,-0.005323254218582705,0.0,0.07848000000000001,-0.18639,9.92772
6969696900,22.72,-0.00958185759344887,-0.00958185759344887,0.0,0.07848000000000001,-0.1962,9.89829
6974747405,22.72,-0.007452555906015787,-0.008517206749732328,0.0,0.11772,-0.18639,9.84924
6979797910,22.72,-0.014905111812031574,0.0,0.0,0.11772,-0.16677000000000003,9.760950000000001
6984848415,22.72,-0.01811651763570114,0.007452555906015787,0.0,0.12753,-0.14715,9.7119
6989898920,22.72,-0.023439771854283843,0.011711159280881954,0.0,0.0981,-0.11772,9.69228
6994949425,22.72,-0.014905111812031574,0.01064650843716541,0.0,0.04905,-0.12753,9.73152
6999999930,22.72,-0.01064650843716541,0.00958185759344887,0.0,0.019620000000000002,-0.11772,9.81
7005050435,22.72,-0.007452555906015787,0.008517206749732328,0.0,-0.019620000000000002,-0.10791,9.84924
7010100940,22.72,-0.01918116847941768,0.00958185759344887,0.0,-0.04905,-0.11772,9.819809999999999
7015151445,22.72,-0.022375121010567305,0.005323254218582705,0.0,-0.019620000000000002,-0.11772,9.79038
7020201950,22.72,-0.028763026072866547,0.006387905062299246,0.0,-0.05886,-0.14715,9.70209
7025252455,22.72,-0.02769837522915001,0.005323254218582705,0.0,-0.039240000000000004,-0.15696000000000002,9.69228
7030302960,22.72,-0.023439771854283843,0.0,0.0,-0.05886,-0.13734000000000002,9.73152
7035353465,22.72,-0.024504422698000388,-0.005323254218582705,0.0,-0.05886,-0.15696000000000002,9.81
7040403970,22.72,-0.021310470166850764,-0.01918116847941768,0.0,-0.019620000000000002,-0.15696000000000002,9.83943
7045454475,22.72,-0.02556907354171693,-0.022375121010567305,0.0,-0.009810000000000001,-0.1962,9.85905
7050504980,22.72,-0.02982767691658309,-0.021310470166850764,0.0,0.02943,-0.20601000000000003,9.908100000000001
7055555485,22.72,-0.03621558197888234,-0.011711159280881954,0.0,0.07848000000000001,-0.20601000000000003,9.888480000000001
7060605990,22.72,-0.028763026072866547,-0.007452555906015787,0.0,0.07848000000000001,-0.20601000000000003,9.91791
7065656495,22.72,-0.02663372438543347,-0.003193952531149623,0.0,0.10791,-0.23544,9.86886
7070707000,22.72,-0.024504422698000388,-0.001064650843716541,0.0,0.11772,-0.22563,9.82962
7075757505,22.72,-0.015987215948268057,-0.001064650843716541,0.0,0.07848000000000001,-0.22563,9.81
7080808010,22.72,-0.011711159280881954,0.003193952531149623,0.0,0.10791,-0.24525000000000002,9.81
7085858515,22.72,-0.013840460968315033,0.012775810124598492,0.0,0.08829,-0.21582,9.82962
7090909020,22.72,-0.015987215948268057,0.011711159280881954,0.0,0.039240000000000004,-0.1962,9.82962
7095959525,22.72,-0.011711159280881954,0.013840460968315033,0.0,0.02943,-0.21582,9.81
7101010030,22.72,-0.00958185759344887,0.01064650843716541,0.0,0.0,-0.16677000000000003,9.751140000000001
7106060535,22.72,-0.008517206749732328,0.006387905062299246,0.0,-0.009810000000000001,-0.14715,9.69228
7111111040,22.72,-0.005323254218582705,0.0,0.0,-0.019620000000000002,-0.15696000000000002,9.67266
7116161545,22.72,-0.004258603374866164,-0.006387905062299246,0.0,0.0,-0.13734000000000002,9.68247
7121212050,22.72,-0.003193952531149623,-0.01064650843716541,0.0,0.009810000000000001,-0.10791,9.73152
7126262555,22.72,-0.013840460968315033,-0.008517206749732328,0.0,0.009810000000000001,-0.11772,9.770760000000001
7131313060,22.72,-0.01811651763570114,-0.006387905062299246,0.0,0.02943,-0.16677000000000003,9.79038
7136363565,22.72,-0.02663372438543347,-0.002129301687433082,0.0,0.019620000000000002,-0.14715,9.82962
7141414070,22.72,-0.03408628029144926,-0.004258603374866164,0.0,0.05886,-0.14715,9.81
7146464575,22.72,-0.033021629447732716,-0.00958185759344887,0.0,0.06867000000000001,-0.16677000000000003,9.81
7151515080,22.72,-0.02982767691658309,-0.011711159280881954,0.0,0.10791,-0.20601000000000003,9.81
7156565585,22.72,-0.02663372438543347,-0.012775810124598492,0.0,0.12753,-0.20601000000000003,9.82962
7161616090,22.72,-0.023439771854283843,-0.006387905062299246,0.0,0.14715,-0.1962,9.80019
7166666595,22.72,-0.03089232776029963,0.001064650843716541,0.0,0.12753,-0.23544,9.83943
7171717100,22.72,-0.031956978604016174,0.00958185759344887,0.0,0.10791,-0.24525000000000002,9.82962
7176767605,22.72,-0.03408628029144926,0.00958185759344887,0.0,0.06867000000000001,-0.24525000000000002,9.83943
7181818110,22.72,-0.02556907354171693,0.006387905062299246,0.0,0.06867000000000001,-0.26487,9.82962
7186868615,22.72,-0.01918116847941768,0.003193952531149623,0.0,0.05886,-0.24525000000000002,9.82962
7191919120,22.72,-0.011711159280881954,0.007452555906015787,0.0,0.06867000000000001,-0.25506,9.819809999999999
7196969625,22.72,-0.005323254218582705,0.013840460968315033,0.0,0.019620000000000002,-0.20601000000000003,9.81
7202020130,22.72,-0.01064650843716541,0.021310470166850764,0.0,-0.02943,-0.20601000000000003,9.79038
7207070635,22.72,-0.012775810124598492,0.021310470166850764,0.0,-0.04905,-0.20601000000000003,9.78057
7212121140,22.72,-0.021310470166850764,0.013840460968315033,0.0,-0.11772,-0.1962,9.78057
7217171645,22.72,-0.01811651763570114,0.003193952531149623,0.0,-0.08829,-0.20601000000000003,9.751140000000001
7222222150,22.72,-0.014905111812031574,-0.013840460968315033,0.0,-0.08829,-0.20601000000000003,9.80019
7227272655,22.72,-0.011711159280881954,-0.02982767691658309,0.0,-0.039240000000000004,-0.20601000000000003,9.819809999999999
7232323160,22.72,-0.006387905062299246,-0.02982767691658309,0.0,0.04905,-0.20601000000000003,9.82962
7237373665,22.72,-0.011711159280881954,-0.022375121010567305,0.0,0.039240000000000004,-0.17658,9.80019
7242424170,22.72,-0.015987215948268057,-0.008517206749732328,0.0,0.11772,-0.17658,9.751140000000001
7247474675,22.72,-0.022375121010567305,0.001064650843716541,0.0,0.12753,-0.16677000000000003,9.72171
7252525180,22.72,-0.02556907354171693,0.006387905062299246,0.0,0.11772,-0.1962,9.7119
7257575685,22.72,-0.028763026072866547,0.005323254218582705,0.0,0.05886,-0.21582,9.760950000000001
7262626190,22.72,-0.021310470166850764,0.002129301687433082,0.0,0.04905,-0.1962,9.86886
7267676695,22.72,-0.01918116847941768,0.007452555906015787,0.0,0.019620000000000002,-0.1962,9.937529999999999
7272727200,22.72,-0.020245819323134222,0.00958185759344887,0.0,0.0,-0.22563,9.91791
7277777705,22.72,-0.023439771854283843,0.013840460968315033,0.0,0.0,-0.21582,9.819809999999999
7282828210,22.72,-0.02769837522915001,0.006387905062299246,0.0,-0.02943,-0.23544,9.78057
7287878715,22.72,-0.028763026072866547,0.0,0.0,-0.009810000000000001,-0.25506,9.760950000000001
7292929220,22.72,-0.02556907354171693,0.0,0.0,-0.019620000000000002,-0.24525000000000002,9.80019
7297979725,22.72,-0.022375121010567305,-0.007452555906015787,0.0,-0.009810000000000001,-0.25506,9.85905
7303030230,22.72,-0.01918116847941768,-0.022375121010567305,0.0,0.009810000000000001,-0.26487,9.95715
7308080735,22.72,-0.013840460968315033,-0.024504422698000388,0.0,0.04905,-0.28449,9.94734
7313131240,22.72,-0.014905111812031574,-0.022375121010567305,0.0,0.11772,-0.25506,9.888480000000001
7318181745,22.72,-0.013840460968315033,-0.011711159280881954,0.0,0.13734000000000002,-0.25506,9.79038
7323232250,22.72,-0.008517206749732328,0.0,0.0,0.16677000000000003,-0.22563,9.70209
7328282755,22.72,-0.003193952531149623,0.01064650843716541,0.0,0.15696000000000002,-0.21582,9.68247
7333333260,22.72,-0.002129301687433082,0.021310470166850764,0.0,0.10791,-0.20601000000000003,9.69228
7338383765,22.72,-0.01064650843716541,0.03089232776029963,0.0,0.009810000000000001,-0.1962,9.751140000000001
7343434270,22.72,-0.013840460968315033,0.028763026072866547,0.0,-0.02943,-0.18639,9.82962
7348484775,22.72,-0.01918116847941768,0.021310470166850764,0.0,-0.08829,-0.16677000000000003,9.83943
7353535280,22.72,-0.0170518667919846,0.004258603374866164,0.0,-0.08829,-0.1962,9.78057
7358585785,22.72,-0.014905111812031574,-0.012775810124598492,0.0,-0.05886,-0.17658,9.68247
7363636290,22.72,-0.008517206749732328,-0.02663372438543347,0.0,-0.02943,-0.18639,9.633420000000001
7368686795,22.72,-0.00958185759344887,-0.031956978604016174,0.0,0.05886,-0.17658,9.66285
7373737300,22.72,-0.01918116847941768,-0.024504422698000388,0.0,0.07848000000000001,-0.20601000000000003,9.751140000000001
7378787805,22.72,-0.03408628029144926,-0.020245819323134222,0.0,0.13734000000000002,-0.1962,9.819809999999999
7383838310,22.72,-0.0404741853537485,-0.015987215948268057,0.0,0.16677000000000003,-0.22563,9.908100000000001
7388888815,22.72,-0.03834488366631542,-0.00958185759344887,0.0,0.16677000000000003,-0.25506,9.95715
7393939320,22.72,-0.02663372438543347,-0.011711159280881954,0.0,0.20601000000000003,-0.25506,9.94734
7398989825,22.72,-0.020245819323134222,-0.003193952531149623,0.0,0.22563,-0.30411,9.888480000000001
7404040330,22.72,-0.015987215948268057,0.011711159280881954,0.0,0.1962,-0.27468000000000004,9.78057
7409090835,22.72,-0.021310470166850764,0.02982767691658309,0.0,0.15696000000000002,-0.28449,9.72171
7414141340,22.72,-0.023439771854283843,0.04153883619746504,0.0,0.07848000000000001,-0.27468000000000004,9.72171
7419191845,22.72,-0.02663372438543347,0.044732788728614664,0.0,-0.019620000000000002,-0.27468000000000004,9.770760000000001
7424242350,22.72,-0.023439771854283843,0.04153883619746504,0.0,-0.14715,-0.27468000000000004,9.83943
7429292855,22.72,-0.0170518667919846,0.02663372438543347,0.0,-0.18639,-0.2943,9.92772
