#timestamp [ns], temperature [degC], w_RS_S_x [rad s^-1], w_RS_S_y [rad s^-1], w_RS_S_z [rad s^-1], a_RS_S_x [m s^-2], a_RS_S_y [m s^-2], a_RS_S_z [m s^-2]
0.0,21.9,0.0,0.0,0.0,0.75537,-0.95157,9.76095
5000000.0,21.9,0.0,0.0,0.0,0.7650819000971191,-0.95157,9.780373800194239
10000000.0,21.9,0.0,0.0,0.0,0.755566199805762,-0.932342399611524,9.770956199805761
15000000.0,21.9,0.0,0.0,0.0,0.75537,-0.941465700291357,9.751728599417286
20000000.0,21.9,0.0,0.0,0.0,0.727117198834572,-0.932342399611524,9.779392801165429
25000000.0,21.9,0.0,0.0,0.0,0.753898501456785,-0.9226304995144049,9.78057
30000000.0,21.9,0.0,0.0,0.0,0.736927198834572,-0.931361400582714,9.78057
35000000.0,21.9,0.0,0.0,0.0,0.7631199020394991,-0.9410733006798331,9.789693300679835
40000000.0,21.9,0.0,0.0,0.0,0.7742052007769521,-0.9327347992230479,9.781354799223049
45000000.0,21.9,0.0,0.0,0.0,0.7660628991259291,-0.9498042017481421,9.762715798251858
50000000.0,21.9,0.0,0.0,0.0,0.72986399611524,-0.96039900097119,9.74329199805762
55000000.0,21.9,0.0,0.0,0.0,0.7608636042732361,-0.943918197863382,9.784984505341546
60000000.0,21.9,0.0,0.0,0.0,0.756547198834572,-0.950392801165428,9.781747198834573
65000000.0,21.9,0.0,0.0,0.0,0.738300597474906,-0.9345005974749059,9.772035298737453
70000000.0,21.9,0.0,0.0,0.0,0.7273133986403341,-0.9488232027193321,9.745450195921002
75000000.0,21.9,0.0,0.0,0.0,0.72594,-0.943231498543215,9.758007002913569
80000000.0,21.9,0.0,0.0,0.0,0.7341804015539041,-0.933519598446096,9.769190401553903
85000000.0,21.9,0.0,0.0,0.0,0.743892301651023,-0.9238076983489769,9.803329206604092
90000000.0,21.9,0.0,0.0,0.0,0.737515798251858,-0.9140957982518579,9.785867394755575
95000000.0,21.9,0.0,0.0,0.0,0.7675344073810442,-0.9361683055357831,9.740839490773695
100000000.0,21.9,0.0,0.0,0.0,0.75144599417286,-0.9260639961152399,9.747216003884759
105000000.0,21.9,0.0,0.0,0.0,0.753309902039499,-0.937639804078998,9.75114
110000000.0,21.9,0.0,0.0,0.0,0.7400663957267639,-0.949411802136618,9.774095406409854
115000000.0,21.9,0.0,0.0,0.0,0.728196297766263,-0.9440162977662631,9.78057
120000000.0,21.9,0.0,0.0,0.0,0.7408512046617121,-0.94176,9.765658795338288
125000000.0,21.9,0.0,0.0,0.0,0.7529175024279751,-0.919687492716075,9.77566500485595
130000000.0,21.9,0.0,0.0,0.0,0.733591792424718,-0.926848805050188,9.766051194949812
135000000.0,21.9,0.0,0.0,0.0,0.747423907866639,-0.9391113026222131,9.768111302622213
140000000.0,21.9,0.0,0.0,0.0,0.748306797280668,-0.94176,9.756633594561336
145000000.0,21.9,0.0,0.0,0.0,0.752525102816451,-0.9626553084493531,9.7650702056329
150000000.0,21.9,0.0,0.0,0.0,0.75537,-0.95058899125929,9.76389299708643
155000000.0,21.9,0.0,0.0,0.0,0.741832193978622,-0.9282221939786219,9.781256709032068
160000000.0,21.9,0.0,0.0,0.0,0.7490916062156161,-0.9087983937843839,9.770367590676576
165000000.0,21.9,0.0,0.0,0.0,0.7290791871802919,-0.922238109614781,9.767522703204927
170000000.0,21.9,0.0,0.0,0.0,0.7355538099061381,-0.938424603302046,9.75133619009386
175000000.0,21.9,0.0,0.0,0.0,0.73280699320167,-0.9481365033991651,9.773212516995825
180000000.0,21.9,0.0,0.0,0.0,0.7322184034962841,-0.9390131930074319,9.784101596503717
185000000.0,21.9,0.0,0.0,0.0,0.7419303035934031,-0.93195,9.768209392813194
190000000.0,21.9,0.0,0.0,0.0,0.751642203690522,-0.93195,9.754867796309478
195000000.0,21.9,0.0,0.0,0.0,0.7673382075752821,-0.93195,9.769092311362924
200000000.0,21.9,0.0,0.0,0.0,0.7632179922304799,-0.9378360038847601,9.77468399611524
205000000.0,21.9,0.0,0.0,0.0,0.743794192036242,-0.9359720960181209,9.76497209601812
210000000.0,21.9,0.0,0.0,0.0,0.7243703918420039,-0.93195,9.766639804078997
215000000.0,21.9,0.0,0.0,0.0,0.7329051125283511,-0.9207665916477659,9.753984887471649
220000000.0,21.9,0.0,0.0,0.0,0.74556,-0.923317208546472,9.757810812819708
225000000.0,21.9,0.0,0.0,0.0,0.7617465131110651,-0.937345504370355,9.78155100874071
230000000.0,21.9,0.0,0.0,0.0,0.7590977865975779,-0.9258677865975778,9.785082595532527
235000000.0,21.9,0.0,0.0,0.0,0.7559586091291861,-0.9279279136937791,9.754573477177034
240000000.0,21.9,0.0,0.0,0.0,0.754977590676576,-0.931557590676576,9.762127227970273
245000000.0,21.9,0.0,0.0,0.0,0.740556895241169,-0.927143104758831,9.765364476205844
250000000.0,21.9,0.0,0.0,0.0,0.7504650145678502,-0.9270449951440499,9.7609500194238
255000000.0,21.9,0.0,0.0,0.0,0.755566190093862,-0.9317538099061381,9.775763095046932
260000000.0,21.9,0.0,0.0,0.0,0.740851194949812,-0.9370511949498119,9.751924779799248
265000000.0,21.9,0.0,0.0,0.0,0.7495821154419212,-0.941171410294614,9.749962820589229
270000000.0,21.9,0.0,0.0,0.0,0.7561547895111479,-0.9380321842667219,9.779785210488852
275000000.0,21.9,0.0,0.0,0.0,0.73673098931691,-0.9309690106830901,9.79038
280000000.0,21.9,0.0,0.0,0.0,0.72594,-0.94176,9.79038
285000000.0,21.9,0.0,0.0,0.0,0.7301583055357831,-0.94176,9.760851861249519
290000000.0,21.9,0.0,0.0,0.0,0.7439904112658041,-0.9458802056329021,9.750551439430314
295000000.0,21.9,0.0,0.0,0.0,0.7473257885399579,-0.947547894269979,9.782335788539958
300000000.0,21.9,0.0,0.0,0.0,0.73967400582714,-0.9378359941728599,9.77860801165428
305000000.0,21.9,0.0,0.0,0.0,0.749385905924259,-0.9357759059242591,9.782728188151482
310000000.0,21.9,0.0,0.0,0.0,0.75537,-0.9305765819358658,9.77076
315000000.0,21.9,0.0,0.0,0.0,0.751740293881503,-0.915959706118497,9.767130293881502
320000000.0,21.9,0.0,0.0,0.0,0.7420283937843839,-0.9327348186468482,9.76095
325000000.0,21.9,0.0,0.0,0.0,0.7323164936872649,-0.9447029873745298,9.77468402525094
330000000.0,21.9,0.0,0.0,0.0,0.7392816256394164,-0.9386208128197081,9.790183780770437
335000000.0,21.9,0.0,0.0,0.0,0.7554680804790809,-0.948332693493027,9.764285386986053
340000000.0,21.9,0.0,0.0,0.0,0.7420284132081841,-0.9448992066040921,9.75427920660409
345000000.0,21.9,0.0,0.0,0.0,0.7462466798963668,-0.9424466798963668,9.757908893298788
350000000.0,21.9,0.0,0.0,0.0,0.7377120271933203,-0.92214,9.75702601359666
355000000.0,21.9,0.0,0.0,0.0,0.7566452793136529,-0.9278298137908981,9.77076
360000000.0,21.9,0.0,0.0,0.0,0.73575,-0.94176,9.765266386014863
365000000.0,21.9,0.0,0.0,0.0,0.7383987070896871,-0.94176,9.756437414179373
370000000.0,21.9,0.0,0.0,0.0,0.7404587856263879,-0.9392093928131939,9.77076
375000000.0,21.9,0.0,0.0,0.0,0.7308450145678501,-0.93195,9.763402478148224
380000000.0,21.9,0.0,0.0,0.0,0.74556,-0.934304407381044,9.748393222143132
385000000.0,21.9,0.0,0.0,0.0,0.7478163074781631,-0.94176,9.766247385043673
390000000.0,21.9,0.0,0.0,0.0,0.7510535848494359,-0.9439182075752821,9.75114
395000000.0,21.9,0.0,0.0,0.0,0.7378101076724011,-0.949509892327599,9.761440538362006
400000000.0,21.9,0.0,0.0,0.0,0.74556,-0.93979799223048,9.79626598446096
405000000.0,21.9,0.0,0.0,0.0,0.747423907866639,-0.93195,9.78243390786664
410000000.0,21.9,0.0,0.0,0.0,0.75537,-0.9284183840724838,9.785082576108726
415000000.0,21.9,0.0,0.0,0.0,0.7587054161217541,-0.9156654161217541,9.757614583878246
420000000.0,21.9,0.0,0.0,0.0,0.771850783684008,-0.93195,9.742899608157996
425000000.0,21.9,0.0,0.0,0.0,0.75537,-0.933421508255115,9.75114
430000000.0,21.9,0.0,0.0,0.0,0.75537,-0.94176,9.75800704176117
435000000.0,21.9,0.0,0.0,0.0,0.7540946915506469,-0.940484691550647,9.80019
440000000.0,21.9,0.0,0.0,0.0,0.7443827914535279,-0.93195,9.79430395726764
445000000.0,21.9,0.0,0.0,0.0,0.7368291086435911,-0.933029108643591,9.75221910864359
450000000.0,21.9,0.0,0.0,0.0,0.74654100874071,-0.9427410087407101,9.76095
455000000.0,21.9,0.0,0.0,0.0,0.75537,-0.9498041823243418,9.763598726513488
460000000.0,21.9,0.0,0.0,0.0,0.7538003821301038,-0.9335196178698961,9.79116480893495
465000000.0,21.9,0.0,0.0,0.0,0.7364367090320671,-0.9495098729037987,9.797443163871732
470000000.0,21.9,0.0,0.0,0.0,0.74556,-0.9227286091291861,9.763304436516744
475000000.0,21.9,0.0,0.0,0.0,0.7460505092263051,-0.93195,9.79822796309478
480000000.0,21.9,0.0,0.0,0.0,0.7541927720297277,-0.9315575906765758,9.761342409323424
485000000.0,21.9,0.0,0.0,0.0,0.7268229282616293,-0.9227286188410861,9.770171381158914
490000000.0,21.9,0.0,0.0,0.0,0.75537,-0.9421524190353242,9.751532419035323
495000000.0,21.9,0.0,0.0,0.0,0.7554681096147811,-0.9608894519260945,9.77076
500000000.0,21.9,0.0,0.0,0.0,0.7651799708642998,-0.9123300194238002,9.77076
505000000.0,21.9,0.0,0.0,0.0,0.7360442705729427,-0.9317538196180382,9.77076
510000000.0,21.9,0.0,0.0,0.0,0.7742052396245525,-0.93195,9.789987619812276
515000000.0,21.9,0.0,0.0,0.0,0.7559585799934858,-0.9224342899967428,9.79038
520000000.0,21.9,0.0,0.0,0.0,0.7365347797992479,-0.9315576101003761,9.771544779799248
525000000.0,21.9,0.0,0.0,0.0,0.7450695101974951,-0.9412695101974952,9.761440489802505
530000000.0,21.9,0.0,0.0,0.0,0.7363385897053859,-0.94176,9.779392820589228
535000000.0,21.9,0.0,0.0,0.0,0.7539966207834662,-0.94176,9.744076758433067
540000000.0,21.9,0.0,0.0,0.0,0.7463447895111479,-0.94176,9.750355210488852
545000000.0,21.9,0.0,0.0,0.0,0.7544871105859711,-0.9506871105859711,9.768994221171942
550000000.0,21.9,0.0,0.0,0.0,0.7465409893169099,-0.9162539572676396,9.77076
555000000.0,21.9,0.0,0.0,0.0,0.736829089219791,-0.9472536431208365,9.805683643120837
560000000.0,21.9,0.0,0.0,0.0,0.7616484326319845,-0.9256715673680156,9.75820313473603
565000000.0,21.9,0.0,0.0,0.0,0.7395758670766587,-0.9392094219488942,9.793813554872235
570000000.0,21.9,0.0,0.0,0.0,0.73575,-0.9333233889284338,9.774880166785302
575000000.0,21.9,0.0,0.0,0.0,0.7440885111686851,-0.9486270223373703,9.745744466493944
580000000.0,21.9,0.0,0.0,0.0,0.7538004112658041,-0.9268487662025876,9.757810822531608
585000000.0,21.9,0.0,0.0,0.0,0.7472276886370769,-0.930282311362923,9.752807688637077
590000000.0,21.9,0.0,0.0,0.0,0.7375157885399579,-0.93195,9.783316845840169
595000000.0,21.9,0.0,0.0,0.0,0.7436961115571611,-0.93195,9.758595553771356
600000000.0,21.9,0.0,0.0,0.0,0.7612560233085603,-0.93195,9.76683602330856
605000000.0,21.9,0.0,0.0,0.0,0.7264304412430045,-0.9629496470055965,9.7785099117514
610000000.0,21.9,0.0,0.0,0.0,0.7314336236970362,-0.9329309407574093,9.765266376302963
615000000.0,21.9,0.0,0.0,0.0,0.7508574238912742,-0.9372474238912742,9.776057423891276
620000000.0,21.9,0.0,0.0,0.0,0.7479143879572439,-0.94176,9.78057
625000000.0,21.9,0.0,0.0,0.0,0.7602750242797504,-0.9344024878601248,9.765854975720249
630000000.0,21.9,0.0,0.0,0.0,0.7434017632890176,-0.9246905877630058,9.76095
635000000.0,21.9,0.0,0.0,0.0,0.73575,-0.9293013123341131,9.775272624668228
640000000.0,21.9,0.0,0.0,0.0,0.7286867875687679,-0.93195,9.759380362706304
645000000.0,21.9,0.0,0.0,0.0,0.7398702250567023,-0.93195,9.75810511252835
650000000.0,21.9,0.0,0.0,0.0,0.7592940252509404,-0.9525510378764104,9.76781701262547
655000000.0,21.9,0.0,0.0,0.0,0.7516421745548217,-0.9546110872774108,9.77752891272259
660000000.0,21.9,0.0,0.0,0.0,0.7589016256394163,-0.9382283743605837,9.773899187180291
665000000.0,21.9,0.0,0.0,0.0,0.7323164354158644,-0.9253772870831728,9.790478138750482
670000000.0,21.9,0.0,0.0,0.0,0.7290792260278923,-0.9156653869860538,9.774291547944216
675000000.0,21.9,0.0,0.0,0.0,0.73575,-0.9314595393331954,9.748196973777869
680000000.0,21.9,0.0,0.0,0.0,0.7608636528327366,-0.94176,9.753886826416368
685000000.0,21.9,0.0,0.0,0.0,0.7749900000000001,-0.9355796866946968,9.77949093991591
690000000.0,21.9,0.0,0.0,0.0,0.7749900000000001,-0.9258677865975778,9.784297786597579
695000000.0,21.9,0.0,0.0,0.0,0.7570376595013766,-0.92214,9.768601773000917
700000000.0,21.9,0.0,0.0,0.0,0.7573320271933204,-0.9397980407899804,9.76683601359666
705000000.0,21.9,0.0,0.0,0.0,0.7593920863062209,-0.95157,9.764972086306221
710000000.0,21.9,0.0,0.0,0.0,0.7439903724182038,-0.9345005586273055,9.772329627581797
715000000.0,21.9,0.0,0.0,0.0,0.7245665722239658,-0.9277317138880171,9.769386572223965
720000000.0,21.9,0.0,0.0,0.0,0.7216236139851362,-0.9264563860148638,9.755456386014863
725000000.0,21.9,0.0,0.0,0.0,0.7367310281645103,-0.9275355140822551,9.756535514082255
730000000.0,21.9,0.0,0.0,0.0,0.74556,-0.93195,9.776842242538123
735000000.0,21.9,0.0,0.0,0.0,0.74556,-0.93195,9.795579314276495
740000000.0,21.9,0.0,0.0,0.0,0.74556,-0.9115451425055514,9.764481499384715
745000000.0,21.9,0.0,0.0,0.0,0.7355537710585377,-0.9177255723536557,9.73152
750000000.0,21.9,0.0,0.0,0.0,0.7455600582714006,-0.9319499708642998,9.7413300291357
755000000.0,21.9,0.0,0.0,0.0,0.7603730853350309,-0.92214,9.779981487989815
760000000.0,21.9,0.0,0.0,0.0,0.75537,-0.9174311852379118,9.800582370475825
765000000.0,21.9,0.0,0.0,0.0,0.7507592851407928,-0.9215514297184143,9.781158570281585
770000000.0,21.9,0.0,0.0,0.0,0.74556,-0.9274373850436738,9.757222155131021
775000000.0,21.9,0.0,0.0,0.0,0.7367309698931097,-0.9353835451603354,9.75015903010689
780000000.0,21.9,0.0,0.0,0.0,0.72594,-0.9429371696988716,9.778215660602257
785000000.0,21.9,0.0,0.0,0.0,0.7385949457430495,-0.93195,9.787535054256951
790000000.0,21.9,0.0,0.0,0.0,0.75537,-0.9360702153448022,9.779000430689605
795000000.0,21.9,0.0,0.0,0.0,0.7473257691161577,-0.9256715382323154,9.770269422790394
800000000.0,21.9,0.0,0.0,0.0,0.7475220466171205,-0.9103680310780803,9.74917803107808
805000000.0,21.9,0.0,0.0,0.0,0.7613540843638409,-0.9336177469084774,9.768601831272319
810000000.0,21.9,0.0,0.0,0.0,0.75537,-0.95157,9.769386552800166
815000000.0,21.9,0.0,0.0,0.0,0.7481105683392056,-0.9443105683392057,9.76202914749119
820000000.0,21.9,0.0,0.0,0.0,0.73575,-0.9284183840724838,9.769975152217452
825000000.0,21.9,0.0,0.0,0.0,0.7323164839753649,-0.9290070320492703,9.754573516024635
830000000.0,21.9,0.0,0.0,0.0,0.7359462483652625,-0.9384245838782459,9.76095
835000000.0,21.9,0.0,0.0,0.0,0.7521326837811269,-0.9351873162188732,9.764187316218873
840000000.0,21.9,0.0,0.0,0.0,0.7518384326319844,-0.94176,9.761342351052022
845000000.0,21.9,0.0,0.0,0.0,0.7560566507606665,-0.9478422328262224,9.744371116413111
850000000.0,21.9,0.0,0.0,0.0,0.7386930165102302,-0.9466649174488492,9.75114
855000000.0,21.9,0.0,0.0,0.0,0.7427150833926508,-0.9151749166073492,9.756829833214697
860000000.0,21.9,0.0,0.0,0.0,0.7412436334089363,-0.92214,9.768013183295531
865000000.0,21.9,0.0,0.0,0.0,0.7527212831984128,-0.92214,9.763598716801587
870000000.0,21.9,0.0,0.0,0.0,0.7404587662025877,-0.9272412337974123,9.775861233797412
875000000.0,21.9,0.0,0.0,0.0,0.7357500679833007,-0.9393074830041749,9.778117415020875
880000000.0,21.9,0.0,0.0,0.0,0.7604711658141117,-0.93195,9.748393251278832
885000000.0,21.9,0.0,0.0,0.0,0.7433036828099369,-0.9387189515701895,9.768503682809936
890000000.0,21.9,0.0,0.0,0.0,0.7422246518615465,-0.9527471308512713,9.765266434574364
895000000.0,21.9,0.0,0.0,0.0,0.7651800000000001,-0.9242001173843011,9.772329530462796
900000000.0,21.9,0.0,0.0,0.0,0.7671420174814203,-0.9280259650371596,9.74525403496284
905000000.0,21.9,0.0,0.0,0.0,0.7675343296858433,-0.91233,9.766541752735618
910000000.0,21.9,0.0,0.0,0.0,0.7375158176756582,-0.9176274530269746,9.788614182324343
915000000.0,21.9,0.0,0.0,0.0,0.7405568466816684,-0.9400922822272229,9.78057
920000000.0,21.9,0.0,0.0,0.0,0.7224084714795848,-0.9350892357397923,9.779000382130105
925000000.0,21.9,0.0,0.0,0.0,0.75537,-0.9486269640659697,9.77370303593403
930000000.0,21.9,0.0,0.0,0.0,0.7539965819358658,-0.93195,9.789006581935867
935000000.0,21.9,0.0,0.0,0.0,0.7468353181612531,-0.93195,9.77674404551624
940000000.0,21.9,0.0,0.0,0.0,0.75537,-0.93195,9.753494436516744
945000000.0,21.9,0.0,0.0,0.0,0.7532117632890176,-0.9330291183554912,9.77076
950000000.0,21.9,0.0,0.0,0.0,0.7367310184526102,-0.9397979630947797,9.77272203690522
955000000.0,21.9,0.0,0.0,0.0,0.74556,-0.9230229185497292,9.788614162900542
960000000.0,21.9,0.0,0.0,0.0,0.7471296372936964,-0.9311651813531517,9.769190362706302
965000000.0,21.9,0.0,0.0,0.0,0.7638065625120657,-0.9214532812560328,9.750453281256032
970000000.0,21.9,0.0,0.0,0.0,0.74556,-0.9152730942054309,9.743095856523258
975000000.0,21.9,0.0,0.0,0.0,0.74556,-0.9599084431853845,9.772231556814615
980000000.0,21.9,0.0,0.0,0.0,0.7463448380706483,-0.93195,9.80019
985000000.0,21.9,0.0,0.0,0.0,0.7645913617351137,-0.9316556808675568,9.797835446940455
990000000.0,21.9,0.0,0.0,0.0,0.7457562192295621,-0.9223362192295621,9.72269109614781
995000000.0,21.9,0.0,0.0,0.0,0.75537,-0.9321462386533623,9.770661880673318
1000000000.0,21.9,0.0,0.0,0.0,0.7553699611523996,-0.9515699805761998,9.7609500388476
1005000000.0,21.9,0.0,0.0,0.0,0.7359461609581617,-0.9418580804790808,9.78037383904184
1010000000.0,21.9,0.0,0.0,0.0,0.7549776392360764,-0.94176,9.790183819618038
1015000000.0,21.9,0.0,0.0,0.0,0.7458542802848428,-0.94176,9.75231712113937
1020000000.0,21.9,0.0,0.0,0.0,0.7267247603754476,-0.9323423801877238,9.760557619812275
1025000000.0,21.9,0.0,0.0,0.0,0.7445790398187904,-0.9226304800906048,9.76095
1030000000.0,21.9,0.0,0.0,0.0,0.7363385799934858,-0.9498042600195427,9.770171420006513
1035000000.0,21.9,0.0,0.0,0.0,0.7539966402072664,-0.9424466798963669,9.789006640207267
1040000000.0,21.9,0.0,0.0,0.0,0.7463447797992478,-0.9237095595984955,9.772329559598495
1045000000.0,21.9,0.0,0.0,0.0,0.7366328797021288,-0.9399942405957424,9.77076
1050000000.0,21.9,0.0,0.0,0.0,0.73575,-0.94176,9.735443918420039
1055000000.0,21.9,0.0,0.0,0.0,0.7532118409842185,-0.9242981590157816,9.775174602460547
1060000000.0,21.9,0.0,0.0,0.0,0.75537,-0.9135071794107718,9.771937179410772
1065000000.0,21.9,0.0,0.0,0.0,0.7383005586273056,-0.9208647206863472,9.787829441372695
1070000000.0,21.9,0.0,0.0,0.0,0.7441866207834662,-0.9558864831338648,9.773506758433067
1075000000.0,21.9,0.0,0.0,0.0,0.7205444373582444,-0.9363644373582444,9.77076
1080000000.0,21.9,0.0,0.0,0.0,0.7490916839108168,-0.9484308419554084,9.77076
1085000000.0,21.9,0.0,0.0,0.0,0.75537,-0.9352853578503535,9.778902321074824
1090000000.0,21.9,0.0,0.0,0.0,0.7392815576561156,-0.9480384423438845,9.788614221171944
1095000000.0,21.9,0.0,0.0,0.0,0.7516422425381224,-0.9356777574618775,9.750649393654694
1100000000.0,21.9,0.0,0.0,0.0,0.7475219786338198,-0.9241019786338197,9.76487406409854
1105000000.0,21.9,0.0,0.0,0.0,0.7533099214632992,-0.9376398429265984,9.755260157073401
1110000000.0,21.9,0.0,0.0,0.0,0.7630218215604183,-0.9494118215604183,9.774095464681254
1115000000.0,21.9,0.0,0.0,0.0,0.7651800000000001,-0.95157,9.788123721657538
1120000000.0,21.9,0.0,0.0,0.0,0.7428131347360314,-0.9441143782453438,9.782924378245344
1125000000.0,21.9,0.0,0.0,0.0,0.7504650437035504,-0.9270449562964496,9.743782390741124
1130000000.0,21.9,0.0,0.0,0.0,0.7481105780511058,-0.9511776877955769,9.738779421948895
1135000000.0,21.9,0.0,0.0,0.0,0.7383986779539868,-0.9470573559079736,9.748491322046013
1140000000.0,21.9,0.0,0.0,0.0,0.7428132221431323,-0.9276335557137355,9.793519332858793
1145000000.0,21.9,0.0,0.0,0.0,0.7316297555194976,-0.9151748777597487,9.81
1150000000.0,21.9,0.0,0.0,0.0,0.7396740446747404,-0.9260640446747403,9.755063821301038
1155000000.0,21.9,0.0,0.0,0.0,0.7523289224344892,-0.9454878448689784,9.73152
1160000000.0,21.9,0.0,0.0,0.0,0.7687116450632165,-0.9649116450632165,9.751532467594824
1165000000.0,21.9,0.0,0.0,0.0,0.7684172773712729,-0.9514718321138184,9.787240890514909
1170000000.0,21.9,0.0,0.0,0.0,0.7587053772741538,-0.9223361318224613,9.793715377274154
1175000000.0,21.9,0.0,0.0,0.0,0.7489934771770348,-0.937836091291861,9.752120863062208
1180000000.0,21.9,0.0,0.0,0.0,0.7330031541598315,-0.9390131541598316,9.756633691680337
1185000000.0,21.9,0.0,0.0,0.0,0.7197596769827969,-0.9381303230172032,9.752219030948389
1190000000.0,21.9,0.0,0.0,0.0,0.7343766693429667,-0.9356777768856778,9.771741115571611
1195000000.0,21.9,0.0,0.0,0.0,0.7635123696343238,-0.9259658767885587,9.778411753577117
1200000000.0,21.9,0.0,0.0,0.0,0.7573319300743193,-0.92214,9.75898795338288
1205000000.0,21.9,0.0,0.0,0.0,0.7513479234056792,-0.9279279234056792,9.75114
1210000000.0,21.9,0.0,0.0,0.0,0.75537,-0.9433296470055965,9.756829823502798
1215000000.0,21.9,0.0,0.0,0.0,0.75537,-0.95157,9.777725170799751
1220000000.0,21.9,0.0,0.0,0.0,0.7388891289088912,-0.9350891289088913,9.779392752605927
1225000000.0,21.9,0.0,0.0,0.0,0.7367310475883105,-0.9275355237941552,9.776155523794156
1230000000.0,21.9,0.0,0.0,0.0,0.7349651522174515,-0.9266525761087258,9.748785456652355
1235000000.0,21.9,0.0,0.0,0.0,0.72594,-0.9325386479767865,9.75290594393036
1240000000.0,21.9,0.0,0.0,0.0,0.746344896342049,-0.9366587759144878,9.795873672256537
1245000000.0,21.9,0.0,0.0,0.0,0.7501706274521063,-0.9269468758173687,9.794990627452107
1250000000.0,21.9,0.0,0.0,0.0,0.755370097119001,-0.9270450242797502,9.7707599514405
1255000000.0,21.9,0.0,0.0,0.0,0.7605692268693923,-0.9415638487537384,9.75133615124626
1260000000.0,21.9,0.0,0.0,0.0,0.74556,-0.9468611755260118,9.760165297895954
1265000000.0,21.9,0.0,0.0,0.0,0.7363385508577855,-0.9371492754288927,9.785180724571108
1270000000.0,21.9,0.0,0.0,0.0,0.72594,-0.9409752493364525,9.79038
1275000000.0,21.9,0.0,0.0,0.0,0.7391835742960358,-0.9383264257039643,9.785965475234656
1280000000.0,21.9,0.0,0.0,0.0,0.7424207254126073,-0.9307728497249285,9.763304300550143
1285000000.0,21.9,0.0,0.0,0.0,0.7385949748787498,-0.94176,9.74133
1290000000.0,21.9,0.0,0.0,0.0,0.7471295498865955,-0.9500004501134045,9.774291800453618
1295000000.0,21.9,0.0,0.0,0.0,0.7478163754614638,-0.945291499384715,9.803721499384716
1300000000.0,21.9,0.0,0.0,0.0,0.7651800000000001,-0.9260640252509402,9.78057
1305000000.0,21.9,0.0,0.0,0.0,0.7651800000000001,-0.93195,9.78439592534806
1310000000.0,21.9,0.0,0.0,0.0,0.7539965236644653,-0.9356778254451782,9.775468698219287
1315000000.0,21.9,0.0,0.0,0.0,0.7538986277114863,-0.94176,9.76565890216919
1320000000.0,21.9,0.0,0.0,0.0,0.770673497442335,-0.9382283743605837,9.779785123081751
1325000000.0,21.9,0.0,0.0,0.0,0.7352594227903942,-0.9353835257365353,9.771250577209605
1330000000.0,21.9,0.0,0.0,0.0,0.7261362775009628,-0.9350891483326915,9.783709148332692
1335000000.0,21.9,0.0,0.0,0.0,0.74556,-0.9253773259307733,9.764285348138452
1340000000.0,21.9,0.0,0.0,0.0,0.7424207739721077,-0.93195,9.763696904111569
1345000000.0,21.9,0.0,0.0,0.0,0.7327088738749887,-0.9258677477499774,9.78733887387499
1350000000.0,21.9,0.0,0.0,0.0,0.7318260524442606,-0.9211590786663908,9.77468394755574
1355000000.0,21.9,0.0,0.0,0.0,0.7484049263192493,-0.9446049263192493,9.75810507368075
1360000000.0,21.9,0.0,0.0,0.0,0.7526231735836317,-0.9543168264163683,9.762127305665473
1365000000.0,21.9,0.0,0.0,0.0,0.7482087265134872,-0.96138,9.782433820459538
1370000000.0,21.9,0.0,0.0,0.0,0.7502687467787874,-0.951177493557575,9.766051253221212
1375000000.0,21.9,0.0,0.0,0.0,0.7406550534154506,-0.9270450534154505,9.778117473292275
1380000000.0,21.9,0.0,0.0,0.0,0.7506611463903115,-0.94176,9.76605114639031
1385000000.0,21.9,0.0,0.0,0.0,0.7402626538039265,-0.9349910192941102,9.75114
1390000000.0,21.9,0.0,0.0,0.0,0.7488953190027532,-0.9209629079963291,9.755456453998164
1395000000.0,21.9,0.0,0.0,0.0,0.7321203812886038,-0.9474497458075974,9.774880254192402
1400000000.0,21.9,0.0,0.0,0.0,0.7534079728066797,-0.93195,9.78253189122672
1405000000.0,21.9,0.0,0.0,0.0,0.7492878545808785,-0.9338139272904392,9.75114
1410000000.0,21.9,0.0,0.0,0.0,0.7634141726124418,-0.9399941726124418,9.756437482162674
1415000000.0,21.9,0.0,0.0,0.0,0.7537022725153227,-0.9336177274846772,9.78057
1420000000.0,21.9,0.0,0.0,0.0,0.7486992551635926,-0.94176,9.777430744836408
1425000000.0,21.9,0.0,0.0,0.0,0.7563508339265084,-0.94176,9.76095
1430000000.0,21.9,0.0,0.0,0.0,0.7104402833281028,-0.94176,9.76095
1435000000.0,21.9,0.0,0.0,0.0,0.7395759836194599,-0.94176,9.763500655746306
1440000000.0,21.9,0.0,0.0,0.0,0.7616483160891833,-0.9405827720297277,9.781747227970273
1445000000.0,21.9,0.0,0.0,0.0,0.73575,-0.9330291280673912,9.787142615797826
1450000000.0,21.9,0.0,0.0,0.0,0.73575,-0.9427410281645103,9.76389308449353
1455000000.0,21.9,0.0,0.0,0.0,0.7366329282616293,-0.95157,9.785965358691854
1460000000.0,21.9,0.0,0.0,0.0,0.7432055149237552,-0.9507851716412518,9.746038970152489
1465000000.0,21.9,0.0,0.0,0.0,0.7175034569117346,-0.9376396292647964,9.798129814632398
1470000000.0,21.9,0.0,0.0,0.0,0.7375158856589589,-0.8858431427649315,9.769582742894027
1475000000.0,21.9,0.0,0.0,0.0,0.7651800000000001,-0.9309689426997894,9.75212105730021
1480000000.0,21.9,0.0,0.0,0.0,0.7647875712527757,-0.9131148574944485,9.77076
1485000000.0,21.9,0.0,0.0,0.0,0.7556643288443433,-0.9328329865330298,9.77076
1490000000.0,21.9,0.0,0.0,0.0,0.7655724578829246,-0.9603988552926885,9.77076
1495000000.0,21.9,0.0,0.0,0.0,0.7843093548070936,-0.9124281290385813,9.770563741922837
1500000000.0,21.9,0.0,0.0,0.0,0.7357500291357003,-0.9221400291357003,9.7511399125929
1505000000.0,21.9,0.0,0.0,0.0,0.7454619292328193,-0.9318519292328192,9.722004212301542
1510000000.0,21.9,0.0,0.0,0.0,0.74556,-0.9415638293299383,9.789006805309569
1515000000.0,21.9,0.0,0.0,0.0,0.74556,-0.94176,9.771348541145885
1520000000.0,21.9,0.0,0.0,0.0,0.74556,-0.9229247409516473,9.789595259048353
1525000000.0,21.9,0.0,0.0,0.0,0.7548795296212952,-0.9314595296212952,9.734462822272228
1530000000.0,21.9,0.0,0.0,0.0,0.7461485702815857,-0.9503928594368286,9.759184289155241
1535000000.0,21.9,0.0,0.0,0.0,0.7364366701844667,-0.9424466701844667,9.7335800105534
1540000000.0,21.9,0.0,0.0,0.0,0.7538004598253046,-0.9327347700873476,9.794696609388566
1545000000.0,21.9,0.0,0.0,0.0,0.7375157399804574,-0.9230228699902286,9.791262869990229
1550000000.0,21.9,0.0,0.0,0.0,0.7445790301068903,-0.9309690301068902,9.781550969893111
1555000000.0,21.9,0.0,0.0,0.0,0.7280981395919814,-0.9494118604080186,9.745646279183962
1560000000.0,21.9,0.0,0.0,0.0,0.751838490903385,-0.9429371696988718,9.749962830301127
1565000000.0,21.9,0.0,0.0,0.0,0.7639047303982474,-0.94176,9.793813651991236
1570000000.0,21.9,0.0,0.0,0.0,0.7567433695046337,-0.9248867390092673,9.791753369504635
1575000000.0,21.9,0.0,0.0,0.0,0.7637085305924853,-0.9138014694075147,9.765364408222544
1580000000.0,21.9,0.0,0.0,0.0,0.7322182772415828,-0.937051292068813,9.752709569310396
1585000000.0,21.9,0.0,0.0,0.0,0.7585093231468933,-0.94176,9.742997669213276
1590000000.0,21.9,0.0,0.0,0.0,0.7490915382323154,-0.9498042308838424,9.781551154419212
1595000000.0,21.9,0.0,0.0,0.0,0.7614522619619227,-0.927731607057116,9.798326130980962
1600000000.0,21.9,0.0,0.0,0.0,0.7416359067657591,-0.9299880310780803,9.776645906765758
1605000000.0,21.9,0.0,0.0,0.0,0.73575,-0.93195,9.739760275299203
1610000000.0,21.9,0.0,0.0,0.0,0.7510536625446366,-0.9472536625446366,9.762127325089272
1615000000.0,21.9,0.0,0.0,0.0,0.7402625372611253,-0.9364625372611254,9.793421194108312
1620000000.0,21.9,0.0,0.0,0.0,0.7432056314665563,-0.9543168943996689,9.80019
1625000000.0,21.9,0.0,0.0,0.0,0.7602750631273507,-0.9466649368726494,9.770759873745298
1630000000.0,21.9,0.0,0.0,0.0,0.7579205683392057,-0.9345005683392057,9.768209431660793
1635000000.0,21.9,0.0,0.0,0.0,0.75537,-0.9391113317579133,9.756437336484172
1640000000.0,21.9,0.0,0.0,0.0,0.7412435362899353,-0.94176,9.744076768144968
1645000000.0,21.9,0.0,0.0,0.0,0.73575,-0.94176,9.776155659760757
1650000000.0,21.9,0.0,0.0,0.0,0.7426170320492703,-0.94176,9.77664593590146
1655000000.0,21.9,0.0,0.0,0.0,0.7387910678536107,-0.9620667964391679,9.77752893214639
1660000000.0,21.9,0.0,0.0,0.0,0.7424208322435083,-0.951177503269475,9.787240832243508
1665000000.0,21.9,0.0,0.0,0.0,0.74556,-0.9088963382968634,9.76408907063749
1670000000.0,21.9,0.0,0.0,0.0,0.7520346324377463,-0.9186085297509853,9.738190735124507
1675000000.0,21.9,0.0,0.0,0.0,0.7808761301394613,-0.9638326626743265,9.75702613013946
1680000000.0,21.9,0.0,0.0,0.0,0.7883315673680157,-0.9558862694720627,9.839822758951827
1685000000.0,21.9,0.0,0.0,0.0,0.7724393345417934,-0.9293993345417934,9.810686339979863
1690000000.0,21.9,0.0,0.0,0.0,0.7712622328262224,-0.9343044656524446,9.728184370216443
1695000000.0,21.9,0.0,0.0,0.0,0.7510534683066348,-0.9656965316933653,9.773899595080096
1700000000.0,21.9,0.0,0.0,0.0,0.7298639669795397,-0.9751139669795397,9.82569603302046
1705000000.0,21.9,0.0,0.0,0.0,0.7490917324703174,-0.9827658662351586,9.887499331175794
1710000000.0,21.9,0.011125142661663095,-0.05807547174700763,0.0,0.52620700498267,-0.8258048367737483,9.785474169632542
1715000000.0,21.9,0.0076409827165018,-0.11713141631521048,0.00303427298076667,1.1695530635253306,-0.756645599806356,9.430842000968221
1720000000.0,21.9,0.008484452631632949,-0.1675476480033894,0.006515670415095079,1.4942574293263742,-1.0637980370378806,9.790383340893634
1725000000.0,21.9,-0.012138939609963647,-0.1455147608216089,-0.00015974489865240495,2.3499922347171225,-1.0918518607941188,10.200437865975779
1730000000.0,21.9,0.01604478749718525,-0.04120438613893588,-6.383893521757188e-05,2.7393412413016125,-0.909975398380954,10.209267168015872
1735000000.0,21.9,0.028037811367548994,0.030914792446072432,-0.0031407748498899924,2.387950671804107,-0.8465046640979467,9.462328612356586
1740000000.0,21.9,-0.009974273692259459,0.17867161790379088,-0.007324775797159023,2.253551881900919,-1.1560126644266266,9.17274500240075
1745000000.0,21.9,-0.013742511152223556,0.24337932734822312,-0.00914538385380154,1.0092456143593562,-1.5065219372617193,9.775470426937506
1750000000.0,21.9,0.006929064172334258,0.2908161879497747,-0.01330813185744149,0.36297258336542587,-1.3684938102922382,10.168066121724461
1755000000.0,21.9,0.055779912589020694,0.2782231762697343,-0.008602349220787543,-0.6486470175655702,-0.6776711184129112,10.517400429462004
1760000000.0,21.9,0.07674132884509557,0.1485337208471068,-0.0027254950296284,-1.3690783695590838,-0.43870538789685387,9.817841504681216
1765000000.0,21.9,0.046764763896657346,0.10180183136327428,-0.0030662093124449773,-1.478471716620417,-0.7559585314339854,9.129874791263449
1770000000.0,21.9,0.0048347206815964675,-0.04495840848419051,-0.0014053092643027685,-1.6470926396766266,-0.8042242469416425,9.406416290578862
1775000000.0,21.9,-0.014435539605881438,-0.1734298920790342,0.0036730491525374526,-0.7068108102952082,-0.8819190689544907,9.809022516679025
1780000000.0,21.9,0.004897450164928187,-0.2709212406085191,0.006132403868829113,-0.41005523405085237,-0.8322799159588992,10.337777827128178
1785000000.0,21.9,-0.002647974530524278,-0.3672819975534529,0.009432814000919562,0.8435685915962858,-0.8608283667870837,9.880039863508697
1790000000.0,21.9,-0.012871006933174875,-0.3309150941231412,0.009305037054075852,2.1205312688929125,-1.1365877473638775,9.499220799355708
1795000000.0,21.9,0.005376505680146514,-0.2731287345413998,0.00614302401661756,3.065336522575465,-1.1916195494311954,9.652352358625523
1800000000.0,21.9,0.017041470766989017,-0.10887285279773946,0.002129282715354835,3.874948601486386,-0.9653036853344369,9.758990342510304
1805000000.0,21.9,0.039799706979165475,0.05500992573159259,-0.0018950861117267858,3.4673429223018295,-0.8664187792804878,9.877882675682926
1810000000.0,21.9,0.03717778470602581,0.18453965370711506,-0.005216808211689685,2.9072888577478886,-0.8244326812566268,9.480580516413704
1815000000.0,21.9,0.011398260069078951,0.3090083884539212,-0.0085172067497323,1.7904168600070687,-0.9275360288129604,9.669620204405302
1820000000.0,21.9,0.01619384368593035,0.2971269347448896,-0.010050319310987372,0.4457638900565389,-1.0237716353513164,9.979517613080276
1825000000.0,21.9,0.015017708694547768,0.27345796394361654,-0.010540020270098507,-0.2987175840138758,-0.9888475746187757,10.11705292910313
1830000000.0,21.9,0.02243903478009338,0.18693439170209697,-0.0067498902068187155,-0.9835519862766199,-0.9056591289088912,9.940863658267837
1835000000.0,21.9,0.02383852537020817,0.0705736688591952,-0.0049931853796588745,-1.1421772663624727,-0.8894726643573266,9.630084671285347
1840000000.0,21.9,0.01929712046511179,-0.013973459210785272,0.0013627685949011224,-0.9609877072193771,-0.9048746501785465,9.58986299242353
1845000000.0,21.9,0.021975684603499357,-0.10698114827752925,0.0042586033748661,-0.7498736763947367,-0.9241997774677978,9.658928150214681
1850000000.0,21.9,0.01075831486825854,-0.17587867934775472,0.005536199986590278,-0.04708570022205702,-0.8603369640659697,10.100376431208364
1855000000.0,21.9,0.025638471105787965,-0.2089782095482578,0.0085172067497323,0.494817697121377,-0.85347,10.071827494785175
1860000000.0,21.9,0.009496642396093637,-0.2204697243624304,0.007324782121185098,1.0916613521618135,-0.9084067225653673,9.739759605178097
1865000000.0,21.9,0.005093798526502118,-0.16371548606106812,0.003108764737907413,1.9418889566191895,-1.070859889803099,9.687670712790107
1870000000.0,21.9,0.015152238543562584,-0.1293858327622535,0.000830439484027656,2.107388086508181,-1.112846182064962,9.918497909872379
1875000000.0,21.9,0.019168173435214122,-0.042873653201871614,0.0018631192139224658,2.6928421592692215,-1.0766476092588761,9.83943087407101
1880000000.0,21.9,0.03936696432850863,0.03928611189704341,-0.002384821852981324,2.166048730334887,-1.0163147219139472,9.935959158430691
1885000000.0,21.9,0.04530111170776508,0.09398550914906705,-0.0036836998664519804,2.136909407504794,-0.7756770295247702,9.69600801968318
1890000000.0,21.9,0.05245828225655088,0.16886919625075905,-0.005557481388336757,1.3696692998323932,-0.84366,9.78665297093063
1895000000.0,21.9,0.0391001421953114,0.14912090862066266,-0.006164324390442264,0.6889549381002494,-0.8828025993539259,9.930858905535189
1900000000.0,21.9,0.016399161779996136,0.169164067996855,-0.005749122566502328,0.2766396380658964,-1.0320120369052204,9.915948885725289
1905000000.0,21.9,0.026229149033308,0.11557035055653622,-0.006845692877827604,-0.2200381889929819,-1.0230845669789457,10.055837637939177
1910000000.0,21.9,0.029298593810798218,0.08498694576800556,-0.00387532101853494,-0.24211176458591765,-0.9586333483978335,9.817454932209749
1915000000.0,21.9,0.0511381470834338,0.04716078664283055,-0.001767312326896101,-0.46793737196577373,-0.9541197816752978,9.696008320752084
1920000000.0,21.9,0.05011326539605217,-0.023385544367416994,0.00017034818237132794,-0.49285305742693064,-0.7859774610558746,9.788025077888252
1925000000.0,21.9,0.04329547356834668,-0.08612010205614762,0.0012243525281907064,-0.1697123269653233,-0.8510176869540769,9.681489224344892
1930000000.0,21.9,0.033362268896240624,-0.16272591120391758,0.0024274120605871836,0.11497687381756874,-0.8982037499517375,9.738387187439672
1935000000.0,21.9,0.024728068718126765,-0.1938711733115301,0.004397012063546076,1.013178904762989,-0.9230226369046264,9.841786204082563
1940000000.0,21.9,0.04060194754453134,-0.1922102648313531,0.00493996764623415,1.566463211659032,-0.8585710492713106,10.225550770992207
1945000000.0,21.9,0.041070373425922096,-0.1660862651722476,0.002129301687433,2.179391715640317,-0.8305148266757484,9.968723457683934
1950000000.0,21.9,0.03770610960255321,-0.04463820778687261,0.001490486517501398,2.6320215985728166,-0.8858431136292312,9.409751318224613
1955000000.0,21.9,0.039239091467269456,0.04500575003971479,-0.0042586033748661,2.293871806344118,-0.937935201232352,9.264074069602941
1960000000.0,21.9,0.01794626852973826,0.17111720662905594,-0.004343779574060463,2.0899181360873813,-1.186617105081571,9.483527349700674
1965000000.0,21.9,0.042040530879372394,0.22700479898025328,-0.005397783919879934,1.004932277881123,-1.0507480694702807,10.468643476335535
1970000000.0,21.9,0.06361590480511717,0.2099624898823978,-0.0063879050622992,-0.0062800836550008406,-0.7926472347022724,10.441564853603749
1975000000.0,21.9,0.07498627602287838,0.1396058564317445,-0.006174958240287226,-0.4262456124981561,-0.6077294616379946,9.702087698279676
1980000000.0,21.9,0.0615283117284091,0.036256462746948076,-0.002044121272221261,-0.6804200231759002,-0.6121453460693534,9.148806576886866
1985000000.0,21.9,0.02950823981949551,-0.0412633170078839,3.19437097087479e-05,-0.28782455176264554,-0.9423486771124868,9.31803216284312
1990000000.0,21.9,0.019521923868403637,-0.1021958572550174,0.0010646508437165,-0.06768687406506874,-0.9594176134663761,10.224767341147073
1995000000.0,21.9,0.03633291443380931,-0.15121443270077597,0.0010859522715455105,0.4674490187812902,-0.8626911674971117,10.356023282483633
2000000000.0,21.9,0.04794412702689103,-0.14594433501425094,0.0031939440991148333,1.098720815799608,-0.8044206215616062,10.025817552601175
2005000000.0,21.9,0.031062778734012794,-0.12168495630063675,0.0010859354074759771,1.3026707178391073,-0.9598110231155103,9.413967846482679
2010000000.0,21.9,0.023588793312721824,-0.0431365416698989,2.1288779776859786e-05,1.8334911473011113,-1.211339815087798,9.205899380121393
2015000000.0,21.9,0.04720915963664041,0.015294379461631168,-0.0020654311320850373,1.5778393041091932,-1.1117668694714686,10.14383817475678
2020000000.0,21.9,0.07247385218777469,0.04260359349562049,-0.0011072326192876028,1.5036765253474653,-0.8542537406259374,10.342487506249375
2025000000.0,21.9,0.08564946634233386,0.06593601512823391,-0.0030874959842131467,1.1281484266721842,-0.6386301346697014,10.135200595336507
2030000000.0,21.9,0.06725792667880645,0.046075206054686346,-0.004194728603500754,0.7673367410783674,-0.673947197151572,9.625962270763022
2035000000.0,21.9,0.04028365832729147,0.05167992738216117,-0.002278344225957942,0.8732867533840676,-0.9779602044053022,9.329603153704431
2040000000.0,21.9,0.03246798520697366,0.05612073023337813,-0.0050677509171039165,0.539940894267009,-1.0367209584982096,10.040734409588744
2045000000.0,21.9,0.049411919586756274,0.047741872094078035,-0.0014479079039433598,0.465484301391643,-0.9862971616699716,10.256061375268414
2050000000.0,21.9,0.06838556853716245,0.022909083655389177,-0.00010646076295383212,0.28448920362419206,-0.9015386416308864,9.970882646161128
2055000000.0,21.9,0.06272151360740687,-0.012001729497012444,0.0,0.2736009399159094,-0.8839790600840907,9.658139922690898
2060000000.0,21.9,0.06365844969053613,-0.04034654015744801,0.0,0.4732353202996532,-0.8829,9.649508520039086
2065000000.0,21.9,0.07039771131753168,-0.06683958699753514,0.0018525011741426065,0.671004802202948,-0.8231568192289683,9.892012723084129
2070000000.0,21.9,0.07870635573054308,-0.05473659275436981,0.00029809350908463657,1.0508488887051888,-0.6876803968910041,10.003649761865397
2075000000.0,21.9,0.07174171946445766,-0.04223342905275353,-0.0009049575912770602,1.0918529193912292,-0.6837570806087709,9.999332919391229
2080000000.0,21.9,0.05509857368287196,-0.014524502808132833,-0.0019589619370964386,1.2454783676285839,-0.8432683676285837,9.51020401631124
2085000000.0,21.9,0.041584336476512135,0.02666287712619197,-0.0030129662829159,1.1450225520220254,-1.0196521289752214,9.621158512465586
2090000000.0,21.9,0.0481540272579808,0.030594207901106254,-0.002320934433563822,0.9413667068936671,-1.1140239247659394,9.89613297727653
2095000000.0,21.9,0.06732092823348942,0.03413953491502603,-0.001266930087744426,0.9104661406928614,-0.9453887640641877,10.026801406928614
2100000000.0,21.9,0.10120481708992356,0.024930229913667952,-0.00021292574192504753,0.6376485723506857,-0.6278385723506857,10.05328804078998
2105000000.0,21.9,0.09855746780860024,-0.006235339695675357,-0.0016821572077886618,0.6697292315322922,-0.5359201773387018,9.52825401967724
2110000000.0,21.9,0.07343565530904103,0.007750773787613224,-0.0012988695814357906,0.7500728868895289,-0.6292139327948394,9.58711786558968
2115000000.0,21.9,0.051531983185279615,-0.0025552511936872933,-0.0010646508437165,0.6594276248612763,-0.8612210091961101,9.839627268114773
2120000000.0,21.9,0.03958402714116353,0.009539365408247125,-0.0002555117335135337,0.7993197471044975,-1.0339746176768463,10.04740282356913
2125000000.0,21.9,0.04847221943770573,-0.0002662478217800735,-0.0015969852246116895,0.5738834315281343,-1.0472173761732737,10.19013803658248
2130000000.0,21.9,0.06953541244414295,-0.018729553673603756,-0.002129301687433,0.7565487721623877,-0.9309683794095838,9.648524131557142
2135000000.0,21.9,0.08496425286437372,-0.01643223432835926,-0.0005749024544097966,0.7460498779527988,-0.8497419511811196,9.69767695144347
2140000000.0,21.9,0.0953173579735633,-0.019218899243184,-0.003066212474457992,0.8687745560394455,-0.6996484102282842,9.684431376496015
2145000000.0,21.9,0.09422070439589458,-0.0008885994956663,-0.0012349768919965947,0.9249848583359486,-0.64746,9.928800808226107
2150000000.0,21.9,0.0844791219298759,-0.0014905655678274224,-0.001490520245640474,0.9084059164776591,-0.6337259164776592,10.066041125283512
2155000000.0,21.9,0.06332305415555126,0.004226722905418147,-0.0013946880625098845,0.8957510581417106,-0.7902946045989461,9.912415395401053
2160000000.0,21.9,0.0553967504583,-0.0001703987745798989,-0.001788617970742494,0.8193307384905074,-0.9366592615094926,9.872784209777041
2165000000.0,21.9,0.058963353603944495,-0.002831962116608288,-0.0035559429456908116,0.8636729046303291,-0.9843354841050548,9.803034353317143
2170000000.0,21.9,0.0811090737306572,0.003492091362421139,-0.0021505809811707814,0.9284185685985857,-0.8807410834560109,9.786848568598586
2175000000.0,21.9,0.10477220218584131,0.016779664277619635,-0.002448706110385824,0.8588649507920496,-0.6901326128179261,9.844825795727358
2180000000.0,21.9,0.10230764568164288,0.027144788958629984,-0.004556714802024679,0.7640024612489247,-0.6996497504704975,9.887695327031652
2185000000.0,21.9,0.0848623631800376,0.023120330541178888,-0.0033110503059614153,0.5936021238569212,-0.7517403424410034,9.929191712205018
2190000000.0,21.9,0.06983999267610445,0.004648408290221975,-0.002129301687433,0.5587779403049794,-0.840521395533714,10.002080182843102
2195000000.0,21.9,0.07017414118571819,-0.015959199510588058,-0.0008304184039407136,0.6005682852704829,-0.9166465705409657,9.897994719389446
2200000000.0,21.9,0.08244941886690635,-0.02727254271737805,0.0,0.7318268973795691,-0.8260012308175123,9.751139572676395
2205000000.0,21.9,0.10476054221956882,-0.028571379624679198,-0.002512594583807659,0.8663214854653148,-0.6511870290693703,9.729263828488438
2210000000.0,21.9,0.11241174224685391,-0.02522836663693077,-0.0036411012268113213,0.9537285863393858,-0.5503407853670078,9.758399528779794
2215000000.0,21.9,0.09940235556692162,-0.013720132998479642,-0.0031939525311496,1.0187687151185871,-0.5856574302371743,9.882594860474349
2220000000.0,21.9,0.08146700292822397,-0.006984114214559736,-0.0025977433788890083,1.0563409293625092,-0.7047510036917102,9.950479070637492
2225000000.0,21.9,0.06705462560348337,0.004844259835616377,-0.001543739033069586,1.080081086435911,-0.8784864075770641,9.980694345743643
2230000000.0,21.9,0.0727174873484832,0.026412859796381846,-0.0010646508437165,1.014745793588958,-0.9023232369040324,9.87297903049299
2235000000.0,21.9,0.09162305903940968,0.039601199930297426,-0.0021931901608548948,0.8215864146951641,-0.8280619697634197,9.740741313175613
2240000000.0,21.9,0.10733571606517074,0.0426034870411815,-0.003747575691821649,0.6553075649068756,-0.7479138343789384,9.71111502596275
2245000000.0,21.9,0.11615936009884942,0.029029070471807798,-0.003715626712091172,0.5231665586906655,-0.6366685639356857,9.737308292457884
2250000000.0,21.9,0.11239042500895968,0.006396546256452772,-0.0031939525311496,0.47088026222130264,-0.6131252185177523,9.873765830367459
2255000000.0,21.9,0.09922277401274196,-0.008932472867937327,-0.002672268864168866,0.5435724942060249,-0.6472638876013389,10.024643325608034
2260000000.0,21.9,0.08956818376084795,-0.016957638146875394,-0.0011072273492658737,0.6262707511823076,-0.6525611561022115,10.037591561022117
2265000000.0,21.9,0.08835451040468903,-0.02218351250653639,0.0,0.6763014879898149,-0.656681487989815,9.815982472188425
2270000000.0,21.9,0.08850354240317052,-0.03193574779447829,0.0,0.7453643731963439,-0.7302570172883702,9.628122644092025
2275000000.0,21.9,0.09166560814084607,-0.04036772986081634,-0.000958195350784397,0.893691795404618,-0.8176636325674363,9.664321809324017
2280000000.0,21.9,0.10068319607572575,-0.036385873245018935,-0.001192399332442846,1.0944046628703465,-0.8122677785686778,9.848849105732992
2285000000.0,21.9,0.10866493115743066,-0.01425481281550447,-0.001373414038793909,1.22625,-0.746834900549549,10.141088609584587
2290000000.0,21.9,0.11471143533083653,0.014444082794909623,-0.0036411107128504335,1.1685665772729659,-0.6429468217534682,10.1119499762994
2295000000.0,21.9,0.11062657479260066,0.03386995146323043,-0.0042586033748661,0.9722678072489781,-0.6011571566209716,9.782138530137086
2300000000.0,21.9,0.1011941900306312,0.03941993367976171,-0.0042586033748661,0.769103597927336,-0.7180928041453281,9.55297697248097
2305000000.0,21.9,0.10202462740665018,0.029827676916583,-0.0034281659988471226,0.6931743313688433,-0.8049102761407029,9.597419404277394
2310000000.0,21.9,0.1134444288018588,0.029018532536358305,-0.002938446067657733,0.6460864653930647,-0.7004331026204311,10.072517933186878
2315000000.0,21.9,0.13429685651609843,0.018237700817751144,-0.0030768262982203845,0.5879128053729281,-0.4807868859153689,10.33071408054244
2320000000.0,21.9,0.13324740313642042,0.0002129057158424411,-0.0018312092323527452,0.5128667098735671,-0.3562997407585974,9.9740199103852
2325000000.0,21.9,0.10370727292946866,-0.01065271519229774,-0.0031939525311496,0.53807899676369,-0.5586811709324118,9.491665183877652
2330000000.0,21.9,0.07416738303550778,-0.025228395095048057,-0.0028319663326257043,0.6515807883469079,-0.8746606861789068,9.630479489159995
2335000000.0,21.9,0.081188520915148,-0.02628238468480666,-0.00177796198680626,0.7875475256731753,-0.9782524743268247,10.064276288509763
2340000000.0,21.9,0.11738822576997639,-0.024546993933528015,-0.0020867304519053874,0.9084062272584623,-0.7569379182873792,10.15923509096615
2345000000.0,21.9,0.14473075974961125,-0.022045074305734772,-0.003598509965201075,0.9295954178047542,-0.46754396231663964,9.90113303249873
2350000000.0,21.9,0.1465831829274323,-0.020991069959915325,-0.0024487018943684055,0.9496087303348872,-0.3904382738755827,9.547090813205807
2355000000.0,21.9,0.13073599760774485,-0.009738070143405707,-0.0031939525311496,1.05948,-0.4828490233748902,9.53071190735382
2360000000.0,21.9,0.10772732638629838,0.020160716904244022,-0.002597738108867307,1.053986308319663,-0.6054731541598315,10.032100141926401
2365000000.0,21.9,0.11050604020335598,0.03405439560598383,-0.001927032983448559,0.941856400320364,-0.5904637621881377,10.255471319066112
2370000000.0,21.9,0.1097288500728835,0.037620831164937314,-0.003981789159519211,0.6411809555183097,-0.5893851682752518,10.021501574486116
2375000000.0,21.9,0.1083936480804305,0.01465187377323706,-0.002395449378800272,0.5297398154738983,-0.6867007381044075,9.630966162185763
2380000000.0,21.9,0.10873619216662762,-0.011966680500434547,-0.0005110424391052922,0.5615256019447561,-0.7879388763994888,9.462334478344244
2385000000.0,21.9,0.12936516674353613,-0.011306561794665207,-0.0028639258523996194,0.7508573073484731,-0.6590342249240423,9.743883472197334
2390000000.0,21.9,0.15326925000909866,-0.007090589733574431,-0.004386341323549044,0.7551742178059422,-0.36983630365676307,10.171203317965233
2395000000.0,21.9,0.15010340516475934,-0.008911112415864935,-0.001511814295439084,0.8178595604399957,-0.281841904760019,9.95783516483995
2400000000.0,21.9,0.11824238900844367,-0.007665516430084199,-0.0029810173031854198,0.8063822797027228,-0.4453754917478549,9.70012795338288
2405000000.0,21.9,0.08942982355636793,-0.008932324253324558,-0.0019270129573659615,0.8721094671423947,-0.724469200713592,9.735150774427508
2410000000.0,21.9,0.09949404276565034,0.00956376213582208,-0.0014479353080563517,0.9233164510182645,-0.8083430637728306,9.937334314924943
2415000000.0,21.9,0.13131244763427324,0.019000172745144806,-0.003374948265422395,0.7779325309152253,-0.5990953396541534,10.007474784006748
2420000000.0,21.9,0.15889059141273998,0.013003247933998315,-0.004088254138490426,0.6792438829384388,-0.3472735299440353,9.88180811887128
2425000000.0,21.9,0.1541926790956513,-0.01464159273838776,-0.0035133580081067196,0.6268602246706022,-0.30313022467060224,9.665792152151122
2430000000.0,21.9,0.11996826056266992,-0.017539106288094235,-0.005025141737419824,0.8491537887993379,-0.5405317079975172,9.60772096238891
2435000000.0,21.9,0.10466723105932459,-0.0057916389938039384,-0.003055542788465278,0.8918274310786743,-0.6747320837817209,10.178071389187814
2440000000.0,21.9,0.10934568892705203,0.007369560614600521,-0.0023848281770073873,0.9350885364829854,-0.708281289088913,10.16982909381339
2445000000.0,21.9,0.13113030351906874,0.019913749379205488,-0.004024369881085957,0.7904887551937877,-0.5733942625440427,9.841783640140937
2450000000.0,21.9,0.14157941007411964,-0.001064702489929485,-0.0022357719364259543,0.6209740945311409,-0.5169863813519638,9.690317428940274
2455000000.0,21.9,0.15049050667991948,-0.009688270926207134,-0.0034814237844370778,0.8143275754602759,-0.39338052314570526,9.613507273619172
2460000000.0,21.9,0.15314145619818548,-0.0003407090127948137,-0.006217550555901789,0.7302572600858727,-0.3033251522174515,9.913593934477838
2465000000.0,21.9,0.14833854472843175,-0.003736888087755026,-0.004035011108961353,0.8824087818049878,-0.3080349575933496,9.98501097455601
2470000000.0,21.9,0.1224822313824144,0.002810646986722838,-0.0010007665863120416,0.7543897196517972,-0.5005070156053701,10.080362448557125
2475000000.0,21.9,0.10593280599121921,-0.002501861657554196,-0.0003194265570440308,0.8873139711870397,-0.6562889038521891,9.866408221108582
2480000000.0,21.9,0.11611758404912498,0.01009282203623258,-0.006345313800688985,0.7844075518289756,-0.6337255182897552,9.991286969501072
2485000000.0,21.9,0.14229277918744848,-0.002842560130305557,-0.005291309454869603,0.7770504378770045,-0.5351347759778479,9.62929912424599
2490000000.0,21.9,0.16204233345430835,0.00821903102830868,-0.0042586033748661,0.8401275294252752,-0.39043751634737517,9.505892418263123
2495000000.0,21.9,0.16810634308480987,-0.006323994454786094,-0.004247951606947249,0.6702207507962076,-0.2948888907742889,9.986874445387144
2500000000.0,21.9,0.1470090618153954,1.2129689356807041e-07,-0.0031939525311496,0.9809989316909893,-0.3531594658454946,10.016011359666013
2505000000.0,21.9,0.14279304443211777,0.024259500010507654,-0.0031939525311496,0.7673371295543714,-0.24632856477718565,10.287944562385345
2510000000.0,21.9,0.1354298333815991,0.0015333297898228494,-0.0031939525311496,0.6401999662013997,-0.3413884875373849,9.809997562313077
2515000000.0,21.9,0.11772428778128312,0.0020973674637633647,-0.0031939525311496,0.7137759908068599,-0.5431807258680074,9.324402557457125
2520000000.0,21.9,0.1171814059788993,-0.010135539778364299,-0.002171882408999761,0.6784594042080941,-0.7188776810635769,9.563966521595365
2525000000.0,21.9,0.14855211904588345,-0.006600813940154724,-0.005163572560191054,0.9005591770822917,-0.5581881171882812,10.087135197480253
2530000000.0,21.9,0.18224430965240843,-0.00038324230416601334,-0.004322477092227106,0.8016726102934262,-0.1067304411737044,10.307760431986503
2535000000.0,21.9,0.19320049137420697,0.0009901306284583783,-0.005248734003324571,0.7854866507606666,0.0401235401113354,9.84570583955466
2540000000.0,21.9,0.14683987792769354,-0.00677122220077374,-0.0014053176963374882,0.7035727559719275,-0.14048023606550233,9.557293018579331
2545000000.0,21.9,0.10880939720908603,0.006111170951282558,-0.0030023261090448617,0.8482715403707155,-0.5765360233778603,9.48175710339857
2550000000.0,21.9,0.10642669259165399,0.013201702714618051,-0.0031939525311496,0.7131861579782616,-0.6710042971841431,10.02386107090281
2555000000.0,21.9,0.14824239508264792,-0.0003727085847338267,-0.002246407894279619,0.69651,-0.45861625930476263,10.320415639950857
2560000000.0,21.9,0.17589790227901375,-0.01713503089688271,-0.002129301687433,0.7137756994498571,-0.2158187568767876,9.995603161277932
2565000000.0,21.9,0.168777293447666,-0.02381242668479602,-0.003981804969584385,0.8185469978645701,-0.17785525017795248,9.520602508897625
2570000000.0,21.9,0.1525902100073796,-0.015333361345834741,-0.0051742085180447135,0.9603997487874975,-0.277819799029998,9.60026304862583
2575000000.0,21.9,0.1438683249096619,0.0033537532920323056,-0.003513336928019803,1.0226927500814273,-0.28596144998371453,9.840412300423422
2580000000.0,21.9,0.14543341596276912,0.011753777946605074,-0.0031939525311496,0.8899623480721235,-0.37513495124744956,10.158845303855754
2585000000.0,21.9,0.13532595793579671,0.0074738162276752566,-0.0031939525311496,0.8388529493684296,-0.42496940084209406,10.195925299578953
2590000000.0,21.9,0.14189567193991842,0.022989580731880937,-0.0031939525311496,0.7855844981541451,-0.351197496923575,9.814510235540801
2595000000.0,21.9,0.17056281988543215,0.016271115284500075,-0.004056325184842519,0.631959292714293,-0.1905092927142929,9.588489292714293
2600000000.0,21.9,0.17939193827945296,0.009581830189335849,-0.005962055686457777,0.6376502525094025,-0.11771974749059748,9.468611444479315
2605000000.0,21.9,0.15562561407303938,0.005152888118137435,-0.0038646660886030907,0.6552099505989996,-0.31715866617298666,9.857777381746974
2610000000.0,21.9,0.13334654088452458,0.010902068654878774,-0.004854818851152788,0.6955292534805925,-0.34217259721552595,10.471982145943823
2615000000.0,21.9,0.14612152428958325,-0.0028001364553863,-0.0036836808943737556,0.6307824920676249,-0.3259862492067625,10.319823719063738
2620000000.0,21.9,0.16097736824083664,-0.0017885747565643635,-0.004003092695356912,0.60822,-0.17461698219286984,9.553365768977557
2625000000.0,21.9,0.16645206745398114,-0.014385976053687369,-0.0018631223759354534,0.578789796050098,-0.23053571382465715,9.346477550987474
2630000000.0,21.9,0.15936351500713455,-0.0191811684794176,-0.004216039517368924,0.7432068260302682,-0.3011672554229725,9.588491885791619
2635000000.0,21.9,0.15969974317099506,-0.005178815415531444,-0.0053232542185827,0.8617108094537081,-0.23514513700115136,10.166793231538232
2640000000.0,21.9,0.18615839802206582,-0.008432095898807373,-0.0053232542185827,0.8546469948846699,-0.0011757129138570965,10.23653797953868
2645000000.0,21.9,0.1717990374787739,0.0011392711893874995,-0.003055531194417445,0.7949039403683394,-0.03296242201522423,9.837367279826474
2650000000.0,21.9,0.14103466436008338,-0.0018099678827714905,-0.001384040510608417,0.8161923088384232,-0.2707574412459744,9.603008330850084
2655000000.0,21.9,0.1291480590752209,0.002022892570692189,-0.0025338802015714918,0.7526225811577258,-0.3734668547105685,9.659515321982653
2660000000.0,21.9,0.1539026372639945,-0.00843214122099423,-0.0031939525311496,0.8228636266769364,-0.31588148332691485,9.935569808355798
2665000000.0,21.9,0.18615749900819514,-0.011338503396365274,-0.0024806308480163144,0.8928082552932826,-0.06101644000946441,9.979712482355724
2670000000.0,21.9,0.18616302240565744,-0.013095233519629415,-0.003534652057905259,0.8442481332460814,0.029626044415360445,9.869644177661442
2675000000.0,21.9,0.16309127258353823,0.0017035766841044901,-0.005642660749544115,0.960890695049307,-0.10153448721464488,9.71484206474402
2680000000.0,21.9,0.13703264521134959,0.02496670461527179,-0.005025140683415428,0.8640633424380335,-0.2860605890599059,9.772330589059907
2685000000.0,21.9,0.15266712633736976,0.026985008223829862,-0.0022463963002318406,0.7651800000000001,-0.2666350698593507,9.94449598659936
2690000000.0,21.9,0.17121543738050238,0.022119593466988517,-0.003705007618307066,0.6617817117496172,-0.14283297299972975,10.05485801800018
2695000000.0,21.9,0.17689002075966836,0.019362142079599173,-0.005972696914333189,0.6043941523471416,-0.056210933570009336,9.976965257751452
2700000000.0,21.9,0.1802436538952053,0.008524102599082926,-0.005110312666592405,0.49638500355905,0.011772367109823666,9.760948688893487
2705000000.0,21.9,0.17795461468715026,-0.002267746212260839,-0.004886753074822405,0.5260131457448315,0.05081590508275905,9.616546379668964
2710000000.0,21.9,0.16094190911561693,-0.005940757420641824,-0.003470744612405211,0.5870302947230029,-0.14597469498594698,9.77782498970895
2715000000.0,21.9,0.1356285260561833,-0.006994761766461203,-0.00273615839159506,0.6347075273561753,-0.3614010328274103,10.180722378574023
2720000000.0,21.9,0.14014520118561014,-0.017597903350326728,-0.0025977423248846627,0.654915388669054,-0.3790580830035808,10.30206886034169
2725000000.0,21.9,0.17459335743709592,-0.030839146917026904,-0.0044715565209041495,0.7401655056672551,-0.18050230624462305,9.880137953699679
2730000000.0,21.9,0.20546412597047087,-0.03745059997704836,-0.004663153430887232,0.8558247181618472,0.029626889350668886,9.430743862217739
2735000000.0,21.9,0.20834650434606786,-0.029816932396281748,-0.003758223243723116,0.9868870624818707,0.15068223748912238,9.450661240598713
2740000000.0,21.9,0.1863842529070046,-0.008568037422495196,-0.0042586033748661,1.104606266106063,0.13459245490302452,9.910850206157603
2745000000.0,21.9,0.16986326785330283,0.005365863398266745,-0.004801581091645425,1.0831216201350162,0.06366684668166847,10.302266759729967
2750000000.0,21.9,0.16085820085073735,0.014913919711659306,-0.003726260561936144,1.020239786338198,0.0294296795072968,10.182777756551078
2755000000.0,21.9,0.15550500824346822,0.02967870710435797,-0.002129301687433,0.8708322551606226,-0.06729734917597349,9.731615370858954
2760000000.0,21.9,0.15607990226584328,0.03523607993024712,-0.0036624163566968226,0.6792437566837376,-0.13734,9.368156366977164
2765000000.0,21.9,0.16354076039130352,0.03202084599735108,-0.005823645943773487,0.6410837685340378,-0.15578301482723014,9.462924670513146
2770000000.0,21.9,0.1862990514117059,0.026974365941950136,-0.005898159835005534,0.5678016163136163,-0.005099155450791537,9.986387189647372
2775000000.0,21.9,0.2024058333537823,0.01613898345088088,-0.005802352947979244,0.499820092911501,0.2050291078020911,10.218585260275953
2780000000.0,21.9,0.18365238500424733,0.0028957799717390514,-0.0059194528307997775,0.4901067360293674,0.12085801204038013,9.964996380055064
2785000000.0,21.9,0.15474902995045534,-0.006547632042877692,-0.003949837017775711,0.4528302491434025,-0.021091770476417707,9.665202668950927
2790000000.0,21.9,0.15926004511110264,-0.014507939665479825,-0.003470779394548623,0.5487717793468178,-0.02432847484558475,9.531592796116428
2795000000.0,21.9,0.1803821237161373,-0.02436605933150723,-0.004450228742966543,0.6449101600533016,0.08623093150090931,9.734955400133254
2800000000.0,21.9,0.18769618661312548,-0.031318223512332204,-0.0036198187710605365,0.7416362175465623,0.1608835105202351,9.980694598253047
2805000000.0,21.9,0.18102076075933451,-0.03847268907127638,-0.005089042858893769,0.8302212262239123,0.11173595448375954,9.95361709238977
2810000000.0,21.9,0.16852579164776796,-0.0347675265143305,-0.005578758574065775,1.013962800779328,0.09535287251472874,9.765265745029458
2815000000.0,21.9,0.16546599323900196,-0.007633705628595637,-0.0046525301210857085,1.1368807359660074,0.08063852806798529,9.75035607484796
2820000000.0,21.9,0.16882426057246608,0.018062826982621502,-0.0053232542185827,1.0335802853972027,0.08593510702395107,9.898683166851631
2825000000.0,21.9,0.1618076938923949,0.023705904789590188,-0.004950620468157336,0.8691657805110578,-0.01177265846682658,9.928209567171995
2830000000.0,21.9,0.1616433853277127,0.0202458193231342,-0.004982577879922548,0.7902927204903272,-0.044929085398390856,9.786455450306455
2835000000.0,21.9,0.17887616396559144,0.019543137813871996,-0.006036564307668114,0.7384976810635768,0.07808826079768261,9.679624384135844
2840000000.0,21.9,0.1974602563136985,0.027320847719268213,-0.006004642732050629,0.7714571312373713,0.19777031712670318,9.732307227198072
2845000000.0,21.9,0.19269999741059463,0.042253464465854304,-0.006132364870668298,0.5693715158286152,0.27536653421786533,10.062313863128539
2850000000.0,21.9,0.1805629476477017,0.023008507211458647,-0.0028745512702098488,0.4404686124951861,0.22562944642169447,10.061134449980745
2855000000.0,21.9,0.1669091042482162,-0.00034073641690785493,-0.002129301687433,0.4123146881846469,0.14273522272525221,9.817650801810908
2860000000.0,21.9,0.1641336218011378,-0.007878446388026646,-0.002725518217723984,0.485791699968617,0.10516314444793146,9.670305155583451
2865000000.0,21.9,0.17401546527344114,-0.01631526004484346,-0.0039711416076177435,0.5440624887016249,0.10604626694756267,9.666775112983752
2870000000.0,21.9,0.177901410655782,-0.030700732958325223,-0.0031939525311496,0.6011583608965836,0.11987803276108033,9.88396901664289
2875000000.0,21.9,0.1813616046846856,-0.03648175075033641,-0.003726290074057852,0.8142302233737022,0.12017300259083002,10.074869553252595
2880000000.0,21.9,0.19148634935054,-0.03446948781347179,-0.0055787764921396915,0.8742679272270792,0.20522564752435649,9.935958498021485
2885000000.0,21.9,0.18945284190208106,-0.020422667895881395,-0.00614302928663933,0.9824717801883178,0.25810093188700933,9.666675507736356
2890000000.0,21.9,0.1825432152286446,-0.001788576864573063,-0.004854795663057181,0.9921826702478267,0.24407302453913024,9.63969907361739
2895000000.0,21.9,0.17235457365733364,0.005206197549940309,-0.0034175353110152272,0.9153717185509171,0.24995812521718125,9.78508406202944
2900000000.0,21.9,0.1734299321311993,0.015760408830878408,-0.004684475938803131,0.9633409297486094,0.19031495759334957,10.000314394303144
2905000000.0,21.9,0.1835228405957883,0.027496085445078595,-0.005983325494156412,0.7918625228863253,0.3405056078352561,9.988147568658976
2910000000.0,21.9,0.1938711733115301,0.025100578096039244,-0.005216819805737449,0.6876807173837072,0.4190834260930343,9.686197291290673
2915000000.0,21.9,0.18988924396943282,0.0181165176357011,-0.008495876863785919,0.6341179470369795,0.4312469205554692,9.643819619166797
2920000000.0,21.9,0.16789080776635465,0.01828686792608112,-0.0038753536926696944,0.5752586268699863,0.3099951492375515,9.798228283587484
2925000000.0,21.9,0.15334371225411778,0.01758151245962983,-0.007133148321049904,0.587618204595382,0.1731459886684599,9.840901556814616
2930000000.0,21.9,0.14835059854675436,0.007026633803874493,-0.004727025040239566,0.48598802602908026,0.08848580161785802,9.845119629264797
2935000000.0,21.9,0.16033030102897894,-0.002682944874187646,-0.0010646508437165,0.5711378579468787,0.05876321120363211,9.84149106915051
2940000000.0,21.9,0.18816687563191306,-0.008178699742082235,-0.0011924151425080334,0.5293480568477805,0.2750733708015337,9.98187097157611
2945000000.0,21.9,0.208910856216976,-0.022247412574006028,-0.0024806550901162574,0.6027266288123663,0.4326215720309157,9.913886126704162
2950000000.0,21.9,0.20804663167764742,-0.030572976037564065,-0.0052167829155854,0.6474605730021058,0.5150247134989472,9.616741452894315
2955000000.0,21.9,0.1890572061828479,-0.037088583212398454,-0.004066953764665753,0.7622387219198872,0.45851859643738596,9.423390827263809
2960000000.0,21.9,0.16055134179226507,-0.03165722417414878,-0.002384836609042158,1.031619714988897,0.3272611400444114,9.924191734678017
2965000000.0,21.9,0.14689336189224872,0.009412810294342882,-0.005248722409276767,1.0345613329855134,0.2584937879578379,10.43597512094335
2970000000.0,21.9,0.1746649722634567,0.02015948726130515,-0.0043224886862749095,0.8267861077357611,0.30940791919817917,10.22966678108427
2975000000.0,21.9,0.19089017603442723,0.0021825405009446874,-0.005270015405071013,0.7156394422141945,0.39387167335741674,9.411221593068417
2980000000.0,21.9,0.1944673086834864,0.0030235832686913515,-0.004301195690480665,0.7090672051804721,0.42183,9.1260500993267
2985000000.0,21.9,0.1827454776086031,-0.000521048240590214,-0.0053232542185827,0.7791110117206101,0.41918077817960775,9.684632490523226
2990000000.0,21.9,0.1673613988177182,0.017094465431625235,-0.005344553538403018,0.907619806148098,0.33432503230865035,10.391341355003114
2995000000.0,21.9,0.17267403183450805,0.01908511844568386,-0.006334640952683215,0.6757121019086211,0.37307447452284476,10.507485764314659
3000000000.0,21.9,0.18216000138259594,0.009581769057083751,-0.0010646634917686499,0.5591698251857983,0.4022096503715965,9.63341702815857
3005000000.0,21.9,0.1800519926909572,-0.005174291784388043,-0.003172672183407506,0.5300341248944412,0.3439382497888825,9.138110123205502
3010000000.0,21.9,0.1842041690310085,0.014500665048436289,-0.005280680875046361,0.7316310277784103,0.45871630158766297,9.488822763228626
3015000000.0,21.9,0.1946164924585937,0.007676088093672737,-0.0032578188704801823,0.573982104433121,0.527680309939303,9.990899445263397
3020000000.0,21.9,0.1939137529790925,0.018712094108893972,-0.004216023707303689,0.5783976586598766,0.6239165865987659,10.20397083185741
3025000000.0,21.9,0.176676953781161,0.005004642251389087,-0.0042586033748661,0.47627485367304856,0.4880466186450662,10.100375294916054
3030000000.0,21.9,0.16074403006327256,-0.0117538475108919,-0.005259381555226039,0.5446516708329168,0.44380416458354166,9.61497413958604
3035000000.0,21.9,0.1647355514323946,-0.023683490298614412,-0.002352859171194342,0.5219899231462992,0.38670984629259847,9.629986794756167
3040000000.0,21.9,0.19059081917154333,-0.035278759728222385,-0.0031087868719986943,0.7275109581121095,0.5360194038219941,9.56121792761318
3045000000.0,21.9,0.19183768378114502,-0.03427790460554525,-0.00416279121781808,0.7544871591454716,0.5850686365818863,9.751337501200375
3050000000.0,21.9,0.18024356535884023,-0.033128088102677845,-0.0042586033748661,0.993754599549946,0.5444547037870471,9.894366829396267
3055000000.0,21.9,0.16473734260046846,0.003000640341405611,-0.003311057683991862,1.0551638373588383,0.4784332846220329,10.091450146133901
3060000000.0,21.9,0.1789214908350056,0.014010850256855778,-0.0041308517241267165,0.929987108447571,0.557208594368286,9.915554232952942
3065000000.0,21.9,0.1820216158820116,0.021404065148002922,-0.0042586033748661,0.7672390879228909,0.6287233167376333,9.658041492583415
3070000000.0,21.9,0.16934152727008744,0.0086260181151649,-0.0024273909805002675,0.7371233403689335,0.4942267862718679,9.539243403689335
3075000000.0,21.9,0.16090534891870972,0.014547377760777596,-0.004844180785290425,0.7440885597281856,0.4458643208154432,9.592218477825485
3080000000.0,21.9,0.17321425191306472,0.029401913969097956,-0.0053232542185827,0.7538004598253046,0.5403355179036552,9.966570232313401
3085000000.0,21.9,0.1961109294880559,0.027538645086558393,-0.0053232542185827,0.6088075213963753,0.7138748385260484,10.165907758758777
3090000000.0,21.9,0.19240503800935044,0.01527014990605682,-0.00445023401298823,0.41790479960914795,0.7294714799609148,9.951262199413721
3095000000.0,21.9,0.16479187227556483,-0.015696659503309056,-0.0025338559594714877,0.422320800583308,0.5431783173167832,9.644012876266828
3100000000.0,21.9,0.14594433402936166,-0.007030068493019834,-0.003832756107033368,0.6749298666271987,0.42967745807597457,9.474497157007072
3105000000.0,21.9,0.16547344695039048,-0.0031939525311496,-0.005099684086769201,0.5885007540929076,0.5050195237307953,9.772528333057783
3110000000.0,21.9,0.19145754040526453,0.002619086966891863,-0.0053232542185827,0.7253527893844279,0.6598216269363162,10.088605812240559
3115000000.0,21.9,0.18805147511511563,-0.01870889181906757,-0.002863891070256208,0.5936997478766975,0.658741197474312,10.191118802525688
3120000000.0,21.9,0.17402598950683412,-0.04338344495250865,-0.004556725342068126,0.7483084968631851,0.6027260363864604,9.658136776035267
3125000000.0,21.9,0.17444132835133905,-0.025040913709181534,-0.0053232542185827,0.9393085318893853,0.6253878034968781,9.48627
3130000000.0,21.9,0.19232983718374505,0.002657254313081274,-0.004535405996165211,0.9664810784070108,0.8118770591158706,9.602421372743914
3135000000.0,21.9,0.18492205965019337,0.03291065034093589,-0.0019269982013051471,0.8038300603405006,0.8301218346383185,9.915361713957317
3140000000.0,21.9,0.16008770997188682,0.021595833826136803,-0.0025977612969629157,0.6749273900926739,0.65177499721315,10.008946739009268
3145000000.0,21.9,0.14930870219916073,0.023679666388126606,-0.004705769988601772,0.6265645167364452,0.5746696778242968,9.83207097280371
3150000000.0,21.9,0.16820803138520085,0.02322680184417622,-0.003832729756924773,0.5562264493352646,0.6788529789595298,9.706013510520235
3155000000.0,21.9,0.18785599580604292,0.015421501422528263,-0.0031939525311496,0.4755883097432831,0.8207054579492546,9.64862519358955
3160000000.0,21.9,0.1761552300620151,0.0011923023640430918,-0.0031939525311496,0.4445891386207914,0.776558802070288,9.700128613792085
3165000000.0,21.9,0.15475472724135597,-0.02139004288153119,-0.002480629794011969,0.5203231377159314,0.6305858163787582,9.75781104590531
3170000000.0,21.9,0.1543978198923631,-0.029827676916583,-0.0014266254481925574,0.7275112009096121,0.5917393231468933,9.867879923601699
3175000000.0,21.9,0.1749676796160895,-0.01735979682254471,-0.0031407400677465275,0.8142300000000001,0.7195646717407468,9.968922493364525
3180000000.0,21.9,0.18701484869186613,-0.0120092749240578,-0.002895836887973637,0.7702807676262077,0.8161923088384232,9.858263841110938
3185000000.0,21.9,0.179828341400809,-0.010092863142402025,-0.003470775178531218,0.7517403618648036,0.8276696381351965,9.644602038974321
3190000000.0,21.9,0.17008682639106848,-0.011157567740340187,-0.005578783870170074,0.8101103576573035,0.7997109521523096,9.522174166266542
3195000000.0,21.9,0.16399703685099382,0.0028108398695181214,-0.005738461312544366,0.8735808102952081,0.8207049723542497,9.675604861771248
3200000000.0,21.9,0.16703504480847184,0.023007038240418234,-0.004684456966724927,0.8456215027507151,0.8260018135315181,9.996392175465623
3205000000.0,21.9,0.16290074814889516,0.03296843068638608,-0.0042586033748661,0.6984707549344076,0.7910781509868816,10.046910566200806
3210000000.0,21.9,0.15271555728413977,0.025888367294213302,-0.005493611886993098,0.47578344124003447,0.7124015141456153,9.810194267137643
3215000000.0,21.9,0.15824125095541097,0.005213491553752302,-0.005781047304132852,0.45106467426524677,0.7062223371326234,9.481166551889366
3220000000.0,21.9,0.1698876112759039,-0.0053232542185827,-0.0053232542185827,0.5156136625446366,0.8016739505356395,9.483132551249826
3225000000.0,21.9,0.17247167775617153,-0.008836642792815444,-0.00473768945621054,0.6224456901933568,0.8210966241494663,9.81441694302847
3230000000.0,21.9,0.1674796528525761,0.0003621242730931975,-0.004833521639341138,0.6904276117833762,0.8369897019109971,10.156098807643987
3235000000.0,21.9,0.16856692088439923,0.006696606071120204,-0.0047589824520047844,0.6092982831320829,0.8782893628359937,10.123721663576216
3240000000.0,21.9,0.17091728063115696,-0.001788674886977224,-0.0042586033748661,0.5136511594682116,0.8829,9.625175383481453
3245000000.0,21.9,0.16177359982375433,-0.008559820145433779,-0.0042586033748661,0.5307216303023163,0.8578841848488419,9.319696326060463
3250000000.0,21.9,0.15499397107438465,-0.013849228833056424,-0.0042586033748661,0.6817963256743633,0.8338500000000001,9.628518850768389
3255000000.0,21.9,0.1544829180952359,-0.013391514141239291,-0.0042586033748661,0.7559582206531823,0.8386569632244697,10.110384602529846
3260000000.0,21.9,0.16362615119269414,-0.007537700485079733,-0.005280681929050657,0.7589020432511204,0.8766220432511204,10.163942963673929
3265000000.0,21.9,0.17320627978704684,-0.0058236469977778335,-0.0048867267247137535,0.7208377853006779,0.926162290256123,9.711699614365296
3270000000.0,21.9,0.16171055133995985,-0.004428919937107061,-0.004663191375043681,0.7098526162532262,0.892120701325907,9.327936028357561
3275000000.0,21.9,0.1516403347768347,-0.004524800604437541,-0.0049506057120964845,0.7990245636129457,0.8559228180647283,9.576035762067358
3280000000.0,21.9,0.15949456023138828,-0.003704929621985463,-0.0031939525311496,0.8303187822603879,0.9217481733905818,10.041125129041552
3285000000.0,21.9,0.1672549022186166,0.004269298356963158,-0.0031939525311496,0.8210963619281637,0.9669716361928163,10.092821087663511
3290000000.0,21.9,0.16232880853525902,0.01433762101250898,-0.004088273110568693,0.7404584165741842,0.9407786804784868,9.731123637933237
3295000000.0,21.9,0.15378023447796502,0.028486314095941156,-0.0053232542185827,0.7022978359985783,0.9042856719971567,9.37433783599858
3300000000.0,21.9,0.153397022739925,0.0372802328225988,-0.004471519630752095,0.5944843334379433,0.9241025127883251,9.576525397222655
3305000000.0,21.9,0.1582518236730039,0.028553789207921707,-0.0036091733271677606,0.3993643938477439,1.0017977135652771,9.98412910489149
3310000000.0,21.9,0.15801752377694994,0.00316582480097799,-0.0038540290767450605,0.3521793214638932,1.0049356284866564,10.055444849851648
3315000000.0,21.9,0.14708768532140812,-0.02425969975297061,-0.0031939525311496,0.4079983507292835,0.9029118848808187,9.742602016115221
3320000000.0,21.9,0.1417173426984105,-0.031445820224432784,-0.003577233833476396,0.5748682570455825,0.8640649934610499,9.388561690642817
3325000000.0,21.9,0.1598443955395171,-0.015076076863405286,-0.0042586033748661,0.7431065312379653,0.9653055500192554,9.491178229206783
3330000000.0,21.9,0.17541012066181633,-0.006004602679885454,-0.0042586033748661,0.6841501114938011,1.145023717450037,9.91006394043764
3335000000.0,21.9,0.1683775458674134,-0.008821181171097632,-0.003204577948959772,0.7132842578811426,1.16120898743789,10.05897689310277
3340000000.0,21.9,0.14802540763994307,-0.021949295876825817,-0.001746041465193152,0.6717897082568971,1.0418210268676102,9.838250140104801
3345000000.0,21.9,0.13175646897808962,-0.02259863422614608,-0.0031939525311496,0.8320856293974563,0.9174306802191068,9.49176204065732
3350000000.0,21.9,0.13581813777489915,-0.004158858088289752,-0.0031939525311496,0.9633416095816161,0.9162551712551518,9.449975667858956
3355000000.0,21.9,0.15040539688299887,0.02837986492703513,-0.004120219982290466,0.8851554528309545,1.0512398606673987,9.865233362841932
3360000000.0,21.9,0.1578259142189148,0.039281748077149146,-0.0063879050622992,0.7286852336647524,1.0736062694720627,10.145893290512532
3365000000.0,21.9,0.1558137524664674,0.03564065633637687,-0.005812979419793768,0.5326823463891235,1.0647775307221754,9.88013790514018
3370000000.0,21.9,0.15299232828530854,0.029099048498534525,-0.004812236021577288,0.4559686690835867,1.0663466727089668,9.42505402900304
3375000000.0,21.9,0.1392859083498945,0.014638941986573041,-0.005323225760465312,0.43409230333402304,1.022692303334023,9.3464800566577
3380000000.0,21.9,0.1299146585700266,0.010263134382456152,-0.0018737783598716622,0.4026021373902214,0.9959110686951107,9.784105801756457
3385000000.0,21.9,0.1390322269208456,-0.008170093278235827,-0.0017992813327091716,0.37729273149912734,1.001307291746073,10.26126
3390000000.0,21.9,0.16130061566730683,-0.03500581275849283,-0.004492833706633216,0.44419838032038383,1.0908726584668267,10.084282200572021
3395000000.0,21.9,0.16798576726844444,-0.043575389217399306,-0.0048760865508427325,0.6505018253818183,1.1776908297190083,9.397095187629752
3400000000.0,21.9,0.1559520568087171,-0.03216980843154568,-0.0031939525311496,0.7808775189411752,1.2125158679181587,9.221401651023017
3405000000.0,21.9,0.14002148485098437,-0.010326935770928782,-0.0027893708549981207,0.9241006772392069,1.1669965417913655,9.536893832834538
3410000000.0,21.9,0.120460573707404,0.029657246521872706,-0.0012562951838951085,0.7510530701187308,1.0363282675296828,10.109011184465711
3415000000.0,21.9,0.12823554969831483,0.016463233667452882,-0.001948303845151513,0.6683545703449458,1.0335821306582214,10.303537319060174
3420000000.0,21.9,0.1411322318663362,-0.0005565696902964843,-0.0015757048768696121,0.5756506671412067,1.0830233357060333,9.742110681377406
3425000000.0,21.9,0.14525247398271796,-0.019926409630159698,-0.0040988985283788556,0.5959591631628917,1.0329944635833448,9.232681566526516
3430000000.0,21.9,0.15309887126060134,-0.012745529927486333,-0.003343010879739722,0.8071669332472694,1.2178134666236347,9.313813731052639
3435000000.0,21.9,0.15154450997173452,0.02246040893422229,-0.004535427076252114,0.8112863327924634,1.2351775670452758,9.820892235875421
3440000000.0,21.9,0.14994522891831244,0.03932657298131321,-0.00626013970950332,0.69062199546382,1.2866791322748914,10.21260186545702
3445000000.0,21.9,0.12346277333592738,0.05245627795497536,-0.005206135363683932,0.42300666468006665,1.1917166587202666,10.074473317440535
3450000000.0,21.9,0.11366803637674469,0.0362155092525824,-0.004152131017864463,0.33059545872145457,0.9221406701211067,9.501965061830452
3455000000.0,21.9,0.11366984760545858,0.024236506992097423,-0.002906474953836047,0.1460723092938231,1.0174937368738373,9.392487473747675
3460000000.0,21.9,0.14445406674476413,-0.0024715978579851047,0.0,0.32176699190476993,1.105392211333322,9.57063902428569
3465000000.0,21.9,0.16300003630860316,-0.032905936919895205,-0.0002981314532410931,0.2069930191040302,1.2983538365173384,9.986384742248548
3470000000.0,21.9,0.14901061185208908,-0.06157299211302646,-0.004130830644039794,0.49128601321056015,1.3374946585935468,10.09821598018416
3475000000.0,21.9,0.14562397355535214,-0.09075962177221243,-0.0021825415549490334,0.676892699908227,1.2345882975068831,9.824221057617011
3480000000.0,21.9,0.11939589440557011,-0.07260047239076693,-0.0032365459007685066,1.0579118194913182,1.203097791646578,9.35324714354307
3485000000.0,21.9,0.12159974371237432,-0.02489766551635083,-0.0042586033748661,1.252736323080563,1.1206949415355494,9.466259766142198
3490000000.0,21.9,0.1268271646938221,-0.0017874294858094514,-0.0042586033748661,1.1565986610546866,1.1974088033671881,9.771348803367188
3495000000.0,21.9,0.1301278527720421,0.067129217491037,-0.004269257250793643,1.1040142772356427,1.2270353430894534,9.801760686178907
3500000000.0,21.9,0.14700905338336062,0.06923743288847894,-0.005323268974643541,0.6572691162170912,1.304730679833007,9.957147552601176
3505000000.0,21.9,0.142793036000083,0.10087484202282906,-0.0074312776662822985,0.5310144149545442,1.401849680804197,9.607519149104892
3510000000.0,21.9,0.13125635768716987,0.1011941900306312,-0.006409190680063022,0.1355714047209141,1.3259190545796904,9.555920659112306
3515000000.0,21.9,0.10518696893061036,0.07019569837374927,-0.00432246760618799,-0.13891151169041518,1.3053184634506847,9.602518841373287
3520000000.0,21.9,0.10234399810146383,0.018116844636229687,-0.0022144589145491347,-0.19423834185888345,1.1728826427951264,9.764090362320204
3525000000.0,21.9,0.11238967894667047,-0.05182805036237011,-0.001117875955171687,-0.0657260414354604,1.1487508630622087,9.742801294593313
3530000000.0,21.9,0.1229305949476754,-0.09744588451855438,0.000936907625011883,0.19011965128239652,1.2030988113960883,9.833544685660147
3535000000.0,21.9,0.13744740103594238,-0.13381028391100072,0.0010646508437165,0.6530550644935507,1.2796169493050698,9.593099046095391
3540000000.0,21.9,0.13063992908573813,-0.10792396309581538,0.002044137082286448,1.0747865566908656,1.312185806280758,9.529433656198737
3545000000.0,21.9,0.12220649817811481,-0.08898251781405861,0.003098141428105918,1.2602918705753188,1.6180637411506376,9.766543559149037
3550000000.0,21.9,0.10802530395490498,-0.03941265075163474,-0.0006388204399533112,1.813873206223932,1.1271649316850494,10.019935792816757
3555000000.0,21.9,0.08472578885633078,0.01805985778326425,-0.00390729107835234,1.3149279806969798,1.1304067833612679,9.792241897503319
3560000000.0,21.9,0.09889467928940042,0.05918509085675809,-0.0042586033748661,1.2372371308512715,1.0516313085127131,9.536495402133054
3565000000.0,21.9,0.12621822574359923,0.08893799292100033,-0.009816125869372406,0.9202735379036355,1.1593467694418678,9.360798922820589
3570000000.0,21.9,0.13821269131912048,0.11924460352026674,-0.00789968668360357,0.569369903653199,1.3628067255452672,9.6428400963468
3575000000.0,21.9,0.1486061345223679,0.10093045678676008,-0.0074525559060157,0.24475720847717208,1.5014214027211141,9.900744236002144
3580000000.0,21.9,0.12425326113080196,0.07994361580329779,-0.0074525559060157,-0.05101408611614086,1.487588121851181,10.127060799355707
3585000000.0,21.9,0.10870669457638163,0.02984385676450814,-0.0048015526335280535,-0.16323895707458957,1.4161710429254104,9.951458389507582
3590000000.0,21.9,0.1065348975417338,-0.016449697227869615,-0.0042586033748661,-0.12831438161134381,1.3867414605371144,9.52197505289075
3595000000.0,21.9,0.10912202182683879,-0.06332542426574975,-0.0008091043280595732,0.07298807588548074,1.3991023396571234,9.190888735314587
3600000000.0,21.9,0.10630797425924231,-0.08096240935423289,0.0017034565276089798,0.4394908669529087,1.40283,9.3764001676961
3605000000.0,21.9,0.09956522104414556,-0.09655243394196837,0.0004471381556182632,0.7059292805471928,1.4183299400455993,9.863468351253983
3610000000.0,21.9,0.10049154330351241,-0.08850344543477076,0.0,1.1073560255162604,1.4071462597601627,10.191022363357725
3615000000.0,21.9,0.09627545740995222,-0.03928937792821473,0.0,1.161307378697774,1.30463098717851,10.077713285008132
3620000000.0,21.9,0.10372011459012166,-0.023950788997284818,0.0,1.1552256703141568,1.2081989671725897,9.3026199795268
3625000000.0,21.9,0.09214888350933238,0.014914205502345908,-0.0023954873229567212,1.179652711233827,1.2532281337014815,9.103680281645103
3630000000.0,21.9,0.09208082472084689,0.046619673425181515,-0.003981801807571361,1.0781179423740794,1.2898189410167895,9.570836642028866
3635000000.0,21.9,0.10929843072426489,0.06337108489168758,-0.0042586033748661,0.8321802524401025,1.3808564472661644,10.13255675390877
3640000000.0,21.9,0.12118455453648654,0.06404168461667176,-0.005791715936121207,0.5646616910289168,1.4903359777289598,10.210247292973673
3645000000.0,21.9,0.1235693110411985,0.04696280896332555,-0.004120175714107941,0.35119658400496584,1.52055,9.65342701921887
3650000000.0,21.9,0.11462615162319885,0.013632489668850622,-0.0024486892463162556,0.25309757461877574,1.5274170708968708,9.196872518609526
3655000000.0,21.9,0.10123143978828313,-0.004482249394992515,-0.001394684900496847,0.3708194198797942,1.5438979419879795,9.222480448885804
3660000000.0,21.9,0.084628091742101,-0.01034843706217196,-0.00034068055467746856,0.4449817421822174,1.5032839023622389,9.853954913835349
3665000000.0,21.9,0.07668485710651636,-0.04098082238298469,-0.0007133237911419099,0.5367060254469602,1.3892912033648122,10.150211084752911
3670000000.0,21.9,0.07421976190242466,-0.048358458225962554,0.0003407037427730767,0.7341821108483212,1.2986473010025732,9.884749134730091
3675000000.0,21.9,0.08111949831744268,-0.0447327887286146,-0.0003194107469788336,0.8142300000000001,1.256170285852603,9.50539685884877
3680000000.0,21.9,0.09886328355827892,-0.03655617715920774,-0.0024274194386176545,0.9711917869896178,1.3839963725508637,9.227676684489968
3685000000.0,21.9,0.10317021284233456,-0.0024335197220323943,-0.0018524769320426894,1.1089229726136298,1.5482152020738522,9.45811895041189
3690000000.0,21.9,0.0873322726958483,0.03935013231107484,-0.0023848334470291666,1.052808196566482,1.4408909364806095,9.93517904034349
3695000000.0,21.9,0.08143430152762064,0.060177102848416264,-0.004492842138668022,0.8510157057264571,1.3738908588547085,9.970489877497398
3700000000.0,21.9,0.08373392399331206,0.07733919373451084,-0.005962052524444759,0.5140410534095106,1.4106782156041822,9.80215106571521
3705000000.0,21.9,0.09044129461081611,0.06429346736920355,-0.005131601446369266,0.22003664480086646,1.4398139158955392,9.600652728905327
3710000000.0,21.9,0.09665880089853547,0.03850113208697748,-0.0036410980647982837,0.12184012793770128,1.5201584647475848,9.484700255875403
3715000000.0,21.9,0.09314536700211581,0.015104050138743389,-0.0038008113433202944,0.11212822784058228,1.5472329113623293,9.633029620463695
3720000000.0,21.9,0.08471333223556045,-0.008143855412413848,-0.0030661787463188983,0.16284672256536722,1.491904294204243,9.828051411591513
3725000000.0,21.9,0.0809658240000169,-0.022907524955749332,-0.0027148675038095064,0.2491745788292458,1.4886678617682785,9.82373313175613
3730000000.0,21.9,0.07290752863444566,-0.03172281045850542,-0.0008942752572322268,0.3745470316631703,1.452467803041478,9.622430771378307
3735000000.0,21.9,0.06547898607488314,-0.03458665831458349,-0.0006281676180301247,0.5032537254789373,1.3820325098084252,9.542874352931044
3740000000.0,21.9,0.07384570505606602,-0.03685441190487474,-0.0015756753647479132,0.569765090580051,1.440109089675191,9.701699270835293
3745000000.0,21.9,0.09017517221555323,-0.04321929459215087,-0.0010646508437165,0.7086761458111616,1.5357558637106585,9.754965099836552
3750000000.0,21.9,0.09320923755746381,-0.037821150375572266,-0.0005323175168256563,0.8142298543214986,1.6382711654280118,9.672659562964496
3755000000.0,21.9,0.0873750062480452,-0.0324148338758227,-0.0005216868289937221,0.9053664316637643,1.7455918376182182,9.575932378890824
3760000000.0,21.9,0.06992740991316189,-0.02292015566002433,-0.0010646508437165,1.062227603368376,1.6390526820288267,9.567105349435353
3765000000.0,21.9,0.04468868725156442,-0.001511693084939359,-0.0010646508437165,1.0353460836490609,1.4173476299102763,9.63342
3770000000.0,21.9,0.04601855732977082,0.0034494210504849633,-0.0005749035084141425,0.923709307089093,1.3296473267722733,9.624394653544545
3775000000.0,21.9,0.06135885884497507,0.003353705861836742,0.0,0.9245928666242287,1.3464228666242286,9.58289798672608
3780000000.0,21.9,0.0707354818698829,0.014487050577973906,-0.0023422716975406597,0.8954558455144586,1.4338306279075064,9.614193574751436
3785000000.0,21.9,0.08311653040770486,0.017022957025145873,-0.004407638535360671,0.7818562648091627,1.607762590938926,9.740055361671754
3790000000.0,21.9,0.08758788034375728,0.014337634731844236,-0.0036411138748634712,0.7506616416972165,1.6786861693731618,9.769778631918987
3795000000.0,21.9,0.07503908132958617,0.01887584626295419,-0.0033855736832325593,0.6882678308802783,1.6030521737133219,9.644797830880279
3800000000.0,21.9,0.06327513466007025,0.011711119228716779,-0.0017034333395133717,0.6042970333461705,1.60884,9.458801114274712
3805000000.0,21.9,0.058643895426770086,0.010178094149822365,-0.0018950945437615524,0.644614287016843,1.6011880521848805,9.453211556428515
3810000000.0,21.9,0.05377844904979838,0.018851072789301156,-0.0019802264747734066,0.5638785039812851,1.5929478740046787,9.636953228102932
3815000000.0,21.9,0.05271386250034693,0.024035879822127154,0.0,0.5322904517964046,1.5917704517964046,9.78527909640719
3820000000.0,21.9,0.05194720925131958,0.018670192442586105,-0.00038328235633114204,0.48461325801083255,1.5723466516021667,9.834721719392418
3825000000.0,21.9,0.044318240646550475,0.01784412519320877,-0.001809922560584576,0.38406068274360683,1.5151535341515354,9.792830642599107
3830000000.0,21.9,0.0411768468369281,0.002384704858498978,-0.002107984449538869,0.327261897572619,1.4355954743931547,9.553368614564286
3835000000.0,21.9,0.04012284249110869,-0.012728458564672248,0.0003513428626397774,0.39200849388328496,1.4194083785680838,9.459490115315202
3840000000.0,21.9,0.0404316236042599,-0.024461860948511802,4.256174948853242e-05,0.5273869425730695,1.3828178237621784,9.61890202046132
3845000000.0,21.9,0.047559645697419564,-0.023663275583823497,-0.0017992518205874656,0.6596246987380471,1.4271593974760939,9.774391716481817
3850000000.0,21.9,0.06370115689262441,-0.015769017195388438,-0.0010646508437165,0.6955292243448923,1.5195699721611997,9.91300387827554
3855000000.0,21.9,0.07377257526260647,-0.009996998285136692,-0.0013734077147677913,0.7189749748787498,1.631599799029998,9.70473592948626
3860000000.0,21.9,0.06715043881453572,-0.005578835516383041,-0.0018311913142788302,0.7094587501447875,1.7669793743001938,9.455270624927605
3865000000.0,21.9,0.054018418366113416,-0.014877974431254751,-0.0007771869684594518,0.7359481518976816,1.8605614469345149,9.57181590262756
3870000000.0,21.9,0.024435752759781864,-0.01900615582673202,0.0,0.8940825731288258,1.5113271717679717,9.796461222788613
3875000000.0,21.9,0.007723318961462011,-0.010118660831818985,0.0,0.8240403010689031,1.3783051505344517,9.680016822594968
3880000000.0,21.9,0.035751479934335736,-0.017473415519077353,-0.0005110487631313671,0.872305802914758,1.4236281797364818,9.569064968077448
3885000000.0,21.9,0.05187278073443951,-0.0006705744288798615,-0.002129301687433,0.9206681226926812,1.5498828809990288,9.472537509229275
3890000000.0,21.9,0.05597171931498355,0.01631433998544334,-0.0018950703016615594,0.8936913777929137,1.6523965511171657,9.634401377792914
3895000000.0,21.9,0.056414952885584624,0.030257531007854534,-0.0017354055073394777,0.880445608607456,1.651218594754386,9.701502459179824
3900000000.0,21.9,0.03770615070872274,0.0639139572080323,-0.004471541764843317,0.6572688637076888,1.597068303011283,9.774682636449226
3905000000.0,21.9,0.041442927072017174,0.06776081941807978,-0.005525546110662776,0.4761748211020483,1.6359159033997592,9.612916265650663
3910000000.0,21.9,0.03214862399819907,0.07725740061280639,-0.006004614273933273,0.16892660511176605,1.65357299242353,9.54140288352353
3915000000.0,21.9,0.031935636070017655,0.040016993793662074,-0.003896605582294417,-0.018345536485955365,1.6025622083534221,9.608796671867466
3920000000.0,21.9,0.02799654357254314,0.0004623156626892052,-0.001447892093878155,-0.0922132385870324,1.6629909715761098,9.609484818260748
3925000000.0,21.9,0.03371357803074135,-0.06546067484010448,0.002289007587924605,0.04758147329821473,1.6426847287152473,9.725142661377426
3930000000.0,21.9,0.023777917113819363,-0.10647741779486727,0.003343011933744068,0.43733338777013386,1.7089042900660432,9.634793476335535
3935000000.0,21.9,0.012637397219901054,-0.11834181733345082,0.0038433646607740467,0.9167494681224948,1.9199125777224257,9.67001290508573
3940000000.0,21.9,0.005831810036812317,-0.1031637525041238,0.001192417250516725,1.4797409357084095,1.5805834500411344,9.805680768398407
3945000000.0,21.9,-0.03423319519261138,-0.034488578337594764,0.0018950618696267929,1.5261407038504071,1.1554216467462166,9.480874116865541
3950000000.0,21.9,-0.006385909797515028,0.009158042480552395,-0.00021294682201196394,1.3841887750036876,1.1585626112042262,9.452917227584173
3955000000.0,21.9,0.02467653785818182,0.047791837014582825,-0.002416782426759599,1.1281500000000002,1.3492678609267788,9.618020374170504
3960000000.0,21.9,0.04930708119567207,0.08999411324101965,-0.005152893388159214,1.0771330003138302,1.4255914306292143,9.85983487691825
3965000000.0,21.9,0.06430780279591723,0.09534919839084616,-0.0031939525311496,0.4808851217848512,1.692814216122942,9.855124459692645
3970000000.0,21.9,0.055013425941795,0.08586183579458821,-0.0031939525311496,0.3378543950753439,1.7663886771124868,9.670305291550052
3975000000.0,21.9,0.04773019047751953,0.04458947886789031,-0.0030342297665884722,0.09221307348473073,1.7800251948864518,9.629004805113548
3980000000.0,21.9,0.023397177430660547,0.018838597058222502,0.0,-0.013340363092403629,1.859975226932752,9.545522477306726
3985000000.0,21.9,0.022119013868270924,-0.041369251010567515,6.389585145226236e-05,0.14587694471146945,1.7752200769230009,9.554645622596157
3990000000.0,21.9,0.013584843834366873,-0.07036576655381853,0.0020866988317749806,0.4312513200462132,2.0750093399768934,9.548662995017331
3995000000.0,21.9,0.0007128634849816902,-0.07316533730261016,1.0654929931888096e-05,0.8929063551961636,1.8405492512728925,9.721120934411509
4000000000.0,21.9,-0.03408633931569257,-0.04047392382244066,0.0010646508437165,0.9123310100376101,1.4714988345719884,9.662847591448777
4005000000.0,21.9,-0.04146436973642851,-0.007782510342271051,0.0010646508437165,1.038585711300157,1.3258203331152032,9.361778688438086
4010000000.0,21.9,-0.027975074558023203,0.01969207173811305,2.1284563759476488e-05,0.7706714190957142,1.2185973432161734,9.560631435678214
4015000000.0,21.9,-0.01322336844781795,0.0026726531956223452,0.002065439564119804,0.7176011100672112,1.254503111946231,9.621844667919346
4020000000.0,21.9,0.013798095263634756,0.002129301687433,0.0031513749715958764,0.7443830342510304,1.378109815087798,9.924975698677658
4025000000.0,21.9,0.04020736223566194,-0.02924150945379149,-0.0008517546139131301,0.6710033745536339,1.8398693308589933,9.807055905468859
4030000000.0,21.9,0.05756772704559776,-0.01888296429987668,-0.0010646508437165,1.1373753921736538,2.029886609002466,9.689532260665024
4035000000.0,21.9,0.02193952104052263,0.027462100128951984,-0.0030449184246594246,1.0396627027495269,1.7576552703739527,9.600359594624695
4040000000.0,21.9,-0.007281045588819951,0.047559668902793936,-0.005152927116298281,0.7141652534746527,1.6822183291670838,9.206093025697431
4045000000.0,21.9,-0.029943396917648517,0.06547913890551327,-0.0033855726292282636,0.5885010357380104,1.5346751428916514,9.547291499909415
4050000000.0,21.9,-0.039622532978256866,0.05465138388104079,-0.00031936964080935687,0.3050885613418856,1.3881138200041383,9.92870406798924
4055000000.0,21.9,-0.03573644635933359,0.021035290038372588,0.0009475477988829296,0.16990825483788252,1.3035521698919217,10.150310554033705
4060000000.0,21.9,-0.002344026562940228,-0.03263462023570725,0.002001552144702308,0.19149151544251516,1.3553501520244018,9.81902196671422
4065000000.0,21.9,0.016964563041821226,-0.06628610830457349,0.0002767920812556269,0.3839651370704513,1.5172160212394603,9.378160167943602
4070000000.0,21.9,0.028337251531333596,-0.08221978021003859,0.000915608305191565,0.7410504831398048,2.1307375338406755,9.336373358109734
4075000000.0,21.9,0.039782256796822305,-0.08596970014575547,0.00015968903642205653,1.4533577530068778,2.0600984169602845,9.75604895759929
4080000000.0,21.9,-0.03988783967782866,0.021981717845326126,-0.0017886306187946438,1.2729427470322274,1.4867983695590836,9.738974728259848
4085000000.0,21.9,-0.04124356310033723,0.03730147417218013,-0.0030129704989332834,0.9965957576519576,1.334355723922657,9.322733412035035
4090000000.0,21.9,-0.033979772098299846,0.058928473973769824,-0.0005748855903402817,0.5413117483895176,1.4128370738767708,9.47430410385694
4095000000.0,21.9,-0.014035224193746667,0.0457899277697523,0.0,0.5307217954046181,1.4004752818381527,9.636756513566466
4100000000.0,21.9,0.011725338127474644,0.01597299388749714,-0.0017034586356176715,0.32961377014773774,1.6598547076777472,9.945380866952908
4105000000.0,21.9,0.022098363711455044,-0.008921964444609545,-0.00044713604760957155,0.4451795541633955,1.7808098581428986,9.65176095246911
4110000000.0,21.9,0.013460922279911372,-0.01966712893261431,-0.0008304363220145927,0.4905,1.9176600773091008,9.447813682354537
4115000000.0,21.9,-0.007388867693419579,-0.01721152104626319,-0.00024486101959902886,0.6264680387208805,2.0126202394315027,9.402492440142124
4120000000.0,21.9,-0.0338268012510205,-0.015987215948268,-0.0008091433262203496,0.7043584001302841,1.814455279244353,9.46508112023451
4125000000.0,21.9,-0.06124819300209294,-0.0031981765831562096,0.002129336469576487,0.7234875801231758,1.5401677565510776,9.57456096147811
4130000000.0,21.9,-0.06423330893076781,-0.013129570683141216,0.003981802861575706,0.6823831186782313,1.435202598898526,9.676584802202948
4135000000.0,21.9,-0.05196845270890957,-0.018893721468230085,0.001149788044750087,0.7601779441263795,1.42245,9.594669295238793
4140000000.0,21.9,-0.036433268019123284,0.0007618887346940266,0.0007665573346318634,0.8369896824871967,1.4789562433162624,9.625572804145328
4145000000.0,21.9,-0.019094102398594943,0.0070053850762627455,0.0003087400069817581,0.7420271118135711,1.6054077076747773,9.73662216613982
4150000000.0,21.9,-0.025776907837895054,0.0063879050622992,0.0,0.6896429193912292,1.5862762745210628,9.68148795208598
4155000000.0,21.9,-0.041923638289832726,0.0063879050622992,-0.0007346178409404988,0.6731620385882205,1.4988691736469917,9.62292305788233
4160000000.0,21.9,-0.04397178995372114,-0.004471665083351797,-0.00034067950067312273,0.633725595984956,1.5315379272270793,9.620470880803008
4165000000.0,21.9,-0.034043588899426096,-0.0074418830580099665,0.0014266496902925114,0.8020678652035786,1.658381713501917,9.577600533699105
4170000000.0,21.9,-0.034043747000078,0.013298607977845274,0.0007239449929347316,0.8409125520220256,1.6486678710247786,9.736231067922912
4175000000.0,21.9,-0.038983709376290476,0.022055708155579713,0.0013840636987040252,0.680321797018318,1.625026581094366,9.772230770150708
4180000000.0,21.9,-0.04593643841705099,0.0213104701668507,0.0007665309845232178,0.5642706316596063,1.5907891128510914,9.722494556425545
4185000000.0,21.9,-0.05638697278513648,0.00855543623034182,0.0006707388535577695,0.45302466195954666,1.4583531368051315,9.718080381288603
4190000000.0,21.9,-0.06534065116650742,-0.010167740388673293,0.000404558488055852,0.499526502171565,1.3747731558428318,9.624393497828436
4195000000.0,21.9,-0.058430872716445176,-0.023546325369620105,0.00194833757329064,0.6190118148284182,1.3276849111029494,9.678449448173994
4200000000.0,21.9,-0.04388793412823322,-0.01874471207036639,0.0012775544515503255,0.7455612236994122,1.3871351421194515,9.774684326319843
4205000000.0,21.9,-0.02703813215086783,-0.010263198676721208,-0.0012563057239385667,0.7696921099375211,1.5578296335415962,9.79616798167708
4210000000.0,21.9,-0.015466007239835756,-0.006047181293443536,-0.0008942889592886763,0.8365981083871811,1.7065485812903858,9.686392364516024
4215000000.0,21.9,-0.024316096104320967,0.007888542471031448,0.0,0.8298268356728684,1.7392146543860465,9.542480399415503
4220000000.0,21.9,-0.04555188417121338,0.01227238585611715,0.0005962133682779187,0.7530152721262527,1.6826105442525057,9.485092636063126
4225000000.0,21.9,-0.06183798603248899,0.012625774299289511,0.0010646508437165,0.6979809255411094,1.5455639407544395,9.627536297835562
4230000000.0,21.9,-0.06480822824924715,0.009653666926808245,0.0022144915886839053,0.6352951070239511,1.4722849643253495,9.761734964325349
4235000000.0,21.9,-0.054385198245517116,0.0020015078765198303,0.0003725831582167766,0.6030206177402062,1.5073069112989692,9.682370501583504
4240000000.0,21.9,-0.04188782145972827,-0.006643528520273398,-0.0010220469340541348,0.6035112823569128,1.591575388282954,9.481559223434093
4245000000.0,21.9,-0.04217596205761162,-0.007346001336675086,0.0,0.6882709192645092,1.7231277368104776,9.383559547362097
4250000000.0,21.9,-0.050073549993938885,0.0031940421215190446,0.0015970031426856181,0.7798952476534525,1.7412740919373408,9.58437313694373
4255000000.0,21.9,-0.06579651022319802,0.009560582515728486,0.002150576765153415,0.7657681041103811,1.6152152602759526,9.717883190869031
4260000000.0,21.9,-0.0788365223125838,0.017809465556203524,0.0010646508437165,0.683952289800723,1.4977900552915007,9.634596703527667
4265000000.0,21.9,-0.07582594979448853,0.016553762377175506,0.0005642559565126751,0.4849057318822574,1.4933770455825706,9.585546868629969
4270000000.0,21.9,-0.07096191878984444,-0.006353581721795308,0.0009794967786134067,0.4455724393699244,1.5040685364829853,9.519623170603731
4275000000.0,21.9,-0.07067451710084378,-0.021789572058260327,0.002129301687433,0.5797708339265084,1.5411524946614248,9.594672908065629
4280000000.0,21.9,-0.07008888699020221,-0.029401951913254468,0.0011923909004080795,0.698474494015945,1.6210040674645407,9.785671865070919
4285000000.0,21.9,-0.07856063719342837,-0.023687493942761432,0.0,0.8674983832309838,1.4977888024563883,9.821183233538033
4290000000.0,21.9,-0.09016433494286955,-0.00023414179540201963,0.0013414871931546933,0.8648494333437944,1.3553494333437945,9.674030650172606
4295000000.0,21.9,-0.08216881607613531,0.008378865517330452,0.0023209207315073675,0.7649819646451197,1.3560365502756657,9.494314366850444
4300000000.0,21.9,-0.07606141239556603,0.008942985507282513,0.0019163896475644883,0.7082835034021351,1.4047926681787268,9.60399208805852
4305000000.0,21.9,-0.07141970028134685,0.005685289955310793,0.002363506723095856,0.7644922129470222,1.4365760655221607,9.930961230114612
4310000000.0,21.9,-0.06453137292773077,0.0006811766585944155,0.0002554980314570381,0.664332697700527,1.431279418582894,10.048183116470533
4315000000.0,21.9,-0.05740891326475173,-0.006749722620127771,0.0005110687892139745,0.6859165410191654,1.5016176219506763,9.649897782706878
4320000000.0,21.9,-0.0588463011513195,0.008389521501266711,0.0016608188898076125,0.7176980056944801,1.5801950517324506,9.452131787375718
4325000000.0,21.9,-0.07206481818992132,0.007505633456862563,-0.00031937701883976734,0.5949764159920642,1.5749949119444493,9.530415840079359
4330000000.0,21.9,-0.09283216034934037,0.0004472720141702191,0.0025126125018815476,0.6519741979960421,1.4403019291635193,9.700915491361755
4335000000.0,21.9,-0.10337766164938231,0.006419762343651591,0.003917878552006141,0.7199544685630447,1.2784395368086954,9.95018599462826
4340000000.0,21.9,-0.08832744880855262,-0.0010220922562410371,0.0010646508437165,0.60822,1.3298442743943428,9.916337196626872
4345000000.0,21.9,-0.06993975275329918,-0.00352400345199948,0.0007345999228666198,0.6203847375856474,1.398415921982059,9.589861574486116
4350000000.0,21.9,-0.061252375947929955,-0.007777288165427775,0.0,0.6239153240517533,1.4940647743641478,9.42741
4355000000.0,21.9,-0.0649786080517488,-0.019074795198824487,0.0006175158501112741,0.6685544606727446,1.6496499383625995,9.475774738041048
4360000000.0,21.9,-0.07452306079339804,-0.014103270299622555,0.0015330788331159688,0.9205706540633065,1.6005972287424726,9.682080310008603
4365000000.0,21.9,-0.09935235327245949,0.0181165176357011,0.0,0.872891595592916,1.4054787847848877,9.825987671668477
4370000000.0,21.9,-0.09625408114781465,0.019777428223886787,0.00027681843136427245,0.6586424662979248,1.4253934244100341,9.593787260471972
4375000000.0,21.9,-0.08336122384061297,0.018378104753936482,0.0010646508437165,0.5542641502087415,1.46169,9.547581905146119
4380000000.0,21.9,-0.07802739690443733,-0.00025552543557002936,0.0010646508437165,0.49952588060995884,1.492298305991183,9.536106246296162
4385000000.0,21.9,-0.0788365223125838,-0.00645600188133498,0.0010646508437165,0.5681955406934555,1.6117838517336385,9.667362770346728
4390000000.0,21.9,-0.08539887050236797,-0.02145556110485308,0.0010646508437165,0.6610002728440028,1.6290462976969629,9.675995144188551
4395000000.0,21.9,-0.11268874618298302,-0.009975750611529364,0.0017354086693525152,0.8355157365451574,1.395667590221176,9.66334092683801
4400000000.0,21.9,-0.1274020355281016,-0.010437198932314512,0.00361978504292145,0.6808150255766503,1.2890337436058374,9.67854497442335
4405000000.0,21.9,-0.12225963264519629,-0.017719066972820774,0.0012669437898009217,0.8122697112367971,1.2580340577526405,9.5750500721908
4410000000.0,21.9,-0.10318853833209007,0.005198786603482171,0.0017460087910583996,0.9164475445722755,1.2686312558150126,9.59712599806356
4415000000.0,21.9,-0.0801961592705072,0.01773020166479629,0.0,0.6737511430243115,1.4833712148290121,9.836975356098053
4420000000.0,21.9,-0.07081594824201862,0.012012128735857325,0.00034070690478611406,0.6984715707340157,1.5703837697616378,9.639698743412787
4425000000.0,21.9,-0.10018564173023393,0.01630382515169565,0.0022890086419289505,0.6366677966955779,1.4553125545465255,9.69031903140379
4430000000.0,21.9,-0.1252302037113103,-0.0011924836527905536,0.003044892074550772,0.5473997209486973,1.3484816534782167,9.791753486047435
4435000000.0,21.9,-0.1282004954662727,-0.006856239245311939,0.002406129604836398,0.7059269108435692,1.254404613855446,9.805291544578216
4440000000.0,21.9,-0.12113963473737378,0.0025976263844066302,0.0037475335316478043,0.6341181412749815,1.2529337174500372,9.812352416441524
4445000000.0,21.9,-0.10191804016317486,-0.011926196867383249,0.00023424192581489867,0.6211702360655024,1.3079675590163757,9.595453832240537
4450000000.0,21.9,-0.09171890070857944,-0.02844166958202901,0.002129301687433,0.747523901590039,1.342989777923198,9.466651728718217
4455000000.0,21.9,-0.10245049680857411,-0.004471345720035012,0.002033473720319794,0.9311641616036417,1.416269094268791,9.680315434387255
4460000000.0,21.9,-0.10430296109256472,0.01447920446595106,0.001320195251364762,0.8177609069588092,1.3584893197808934,10.035627834246277
4465000000.0,21.9,-0.10451727314394348,0.011446453761198674,0.004109533432228167,0.7407524929091249,1.4023381990909818,9.800384985818251
4470000000.0,21.9,-0.12031147003662705,0.03378677263682892,0.0020654132140111585,0.6592293952683941,1.2631352527024526,9.66912787905368
4475000000.0,21.9,-0.11915098173975813,-0.004684539179063875,0.0010114088681917799,0.3997605422527054,1.2282123476860236,9.60055415311934
4480000000.0,21.9,-0.1159037777470447,-0.012222068915439602,4.259547762759854e-05,0.7235850778882508,1.2662749740372496,9.367376889875368
4485000000.0,21.9,-0.11034569144660722,0.00045709647507134385,0.001032701863986023,0.6667856128842562,1.2889370325046705,9.810588774231489
4490000000.0,21.9,-0.09599875070304864,-0.01879737458540353,2.130248183335546e-05,0.6604105954058059,1.41264,9.829227425574274
4495000000.0,21.9,-0.10240819933771622,-7.459188755363942e-05,0.0010859628115889688,0.8129535649702357,1.411854501520145,9.81
4500000000.0,21.9,-0.11718147238117309,-0.007452470531663689,0.003193933559071375,0.6867006992568071,1.3341597377786976,9.809996503715965
4505000000.0,21.9,-0.12455950280190894,0.0020335685807109155,0.0010859248674325189,0.7643959000337591,1.3050240374873405,9.421520499831205
4510000000.0,21.9,-0.11733039054718522,-0.004130902316335313,0.005238120179562173,0.7074966743919667,1.3624133256080335,9.446441662804016
4515000000.0,21.9,-0.1326722185198636,-0.0001277200306090123,0.0011923708743255147,0.782446301587663,1.2684321230154212,9.684924692461447
4520000000.0,21.9,-0.13827829564250232,-0.003066223014501474,4.257650554937375e-05,0.6906231220442314,1.2089838732265388,9.955975258276153
4525000000.0,21.9,-0.1273495891185128,-0.011285375253309922,0.0030342835208101086,0.9010505215320053,1.1973104121073042,9.771248654253386
4530000000.0,21.9,-0.1107507620943814,0.01832868724181999,0.0011923898464037395,0.8293366080916662,1.3166993438675934,9.659513632112038
4535000000.0,21.9,-0.10179153959831518,0.004387430092759506,0.002054785688192262,0.6871891786959918,1.406460492782405,9.44320207400052
4540000000.0,21.9,-0.12863592092084367,0.012009347650357636,0.002129301687433,0.7851934582086346,1.34946298271163,9.400334135447842
4545000000.0,21.9,-0.15816532136355485,0.030230846054123496,0.0030981435361146096,0.6696293640635936,1.1564990460953906,9.942538485151484
4550000000.0,21.9,-0.1455184182512464,0.010860972766253932,0.005110343232718484,0.5248336743256368,1.1732763535131636,10.014048176756582
4555000000.0,21.9,-0.136219205953482,0.0009368159266338301,0.00342815651280806,0.51012,1.1684690115245902,9.631846507081965
4560000000.0,21.9,-0.1277852514821589,-0.024374820284744768,0.005067757241129995,0.51012,1.16739,9.480775337129653
4565000000.0,21.9,-0.12491075185816196,-0.040665957228452884,0.002544486647303429,0.6808157733929576,1.252737886696479,9.500789154678593
4570000000.0,21.9,-0.11730908701134746,-0.02795373729404641,0.0030449110466289966,0.9594206630030067,1.3329835101341352,9.683060464102105
4575000000.0,21.9,-0.12335645802557327,-0.0029301665525037525,0.0004790639472531475,0.9839428222722282,1.3940015331833153,9.95371907705269
4580000000.0,21.9,-0.14342926644034093,0.009113498114331845,0.002682949090205087,0.7749877759748778,1.2792226655849266,9.831580220779903
4585000000.0,21.9,-0.1664643063278209,0.008879168706156225,0.004077622396654146,0.817173890581239,1.0114083282562834,9.669911775070018
4590000000.0,21.9,-0.18179815852866313,0.021626869122329494,0.0042586033748661,0.7051413735161138,0.8728928192923282,9.788027204794373
4595000000.0,21.9,-0.14459170505993987,0.007242747978060668,0.0008090958960248066,0.6530514322429144,0.9806090280377903,9.644993836448037
4600000000.0,21.9,-0.10630767488745062,0.004045682902962781,0.0,0.6867004467474045,1.238024591134946,9.68247089349481
4605000000.0,21.9,-0.0957005528475337,-0.003311151490378678,0.00168216774783212,0.6500100633204007,1.3569199155727993,9.841589810038798
4610000000.0,21.9,-0.12554608160850955,-0.014471679082267099,0.0012988643114140615,0.6759094477185945,1.2892292150190923,9.779195435931653
4615000000.0,21.9,-0.15636361238237714,-0.0006426100348243674,0.0035240234780820274,0.8151144238942443,1.1068604175424042,9.71337105179581
4620000000.0,21.9,-0.16865612087477447,0.009922614036439195,0.0034494589946414047,0.711811894978819,1.0147458615722587,9.754279828165698
4625000000.0,21.9,-0.15765979850330603,0.012509657163209474,0.005589446178132396,0.6965103593403036,1.0153351796701517,9.778117589835077
4630000000.0,21.9,-0.1439427713446158,0.005685147664724107,0.003236499524577242,0.6192061208136612,1.02024,9.853164899321948
4635000000.0,21.9,-0.13050477324453574,-0.002246481674583861,0.0013520968008996692,0.6458911202345112,1.106176680351767,9.74976497947235
4640000000.0,21.9,-0.11449832935416832,-0.019602337678552153,0.0018312092323527092,0.6247002592414026,1.2580359321493595,9.596140648103507
4645000000.0,21.9,-0.12182344032470932,-0.02103360219728216,0.0028852135781721588,0.7753845653652456,1.2768692391057925,9.40867100530541
4650000000.0,21.9,-0.1618151719668347,0.005437024415280989,0.0046844833168336025,0.8848625419240254,1.052610200059202,9.706018696674887
4655000000.0,21.9,-0.18124447318173467,0.018191072633102604,0.0053232542185827,0.8212921149865212,0.9478420191644202,10.062119712533697
4660000000.0,21.9,-0.1607696521659328,0.014825465697179485,0.003151337027439395,0.6980784233061843,0.9551017810298178,9.993248627642185
4665000000.0,21.9,-0.12807823868576332,0.004215899334790914,0.0007026498891317969,0.5718237220436372,1.099408602852586,9.549833725726437
4670000000.0,21.9,-0.11437068837388525,-0.02038922197079846,0.0021080382037605054,0.600961597800616,1.2580356699280568,9.290853711490238
4675000000.0,21.9,-0.13369513450641898,-0.02743216324351768,0.003885985434505958,0.8098179517691795,1.2154577287122772,9.442127724187978
4680000000.0,21.9,-0.16669531645168761,-0.00852324313629341,0.005621376185784638,0.8899630181932302,1.0543771637390715,9.846497563362476
4685000000.0,21.9,-0.1756123619616878,-0.002289048694094139,0.0063879050622992,0.8952607820010078,0.99081,10.090174692006046
4690000000.0,21.9,-0.1729827138712508,0.005642797770109117,0.005067718242969151,0.8477793801213939,0.9543162534142625,10.024248760242788
4695000000.0,21.9,-0.16933092187835982,0.007165030898506611,0.003609156463098228,0.748403896857839,0.860139705663097,9.681877205041873
4700000000.0,21.9,-0.16021762552810576,0.0010646013055122866,0.001277551289537288,0.6886617261244173,0.8966352780860528,9.30576289607673
4705000000.0,21.9,-0.13855583630874613,0.005216888316019968,0.0006281539159736292,0.7637098708346988,1.0673298277795984,9.328625767502459
4710000000.0,21.9,-0.12861578582657768,0.018237084518947715,0.002299665679869573,0.7728309766251098,1.1762194574304947,9.789993272138132
4715000000.0,21.9,-0.15303782814966543,0.018425864956531163,0.0031939525311496,0.7245664168335642,1.1129431262517313,10.207601955913319
4720000000.0,21.9,-0.18237314319541195,0.015042663819802222,0.0025977381088672794,0.6447120081556201,0.9013403246309033,10.209068783032588
4725000000.0,21.9,-0.18120164898516403,0.005437393835164818,0.002714869611818198,0.5130617151156172,0.8279647342196474,9.73102298380063
4730000000.0,21.9,-0.15589601012762822,-0.013551963149352232,0.0031939525311496,0.5889947887389478,0.9268499024948991,9.184510357518704
4735000000.0,21.9,-0.1484571278199907,-0.010516097101492523,0.004322502388331453,0.6907218240849182,1.0017975678867757,9.323920478160105
4740000000.0,21.9,-0.16166788427643053,-0.007750798029713157,0.003662368926501261,0.7279029206881293,0.9641257872430579,9.960295276541652
4745000000.0,21.9,-0.1634238143240024,-0.015999977020785493,0.001586319754636343,0.8000059608296597,0.9373459608296596,10.341114690323046
4750000000.0,21.9,-0.15765557130656518,-0.01597846911177726,0.0031939925833147417,0.8142298154738982,0.9515698154738982,10.109199371953894
4755000000.0,21.9,-0.16181638213661134,-0.012296667127019333,0.005844943155585113,0.80922699236017,0.874462106957621,9.550422412550825
4760000000.0,21.9,-0.17083219929235374,-0.00600456051971161,0.004343735305877935,0.8142300000000001,0.8279644622864446,9.303804462286445
4765000000.0,21.9,-0.17170508247738317,-0.0006281138638084881,0.0036304895110576057,0.8418947553264476,0.8165836595647366,9.499909324513093
4770000000.0,21.9,-0.1585165355167132,0.004982646390205031,0.0038540058886494606,0.8776026926515269,0.8742692383335924,9.935965403182454
4775000000.0,21.9,-0.14317625933217076,0.012464329412578612,0.0016501987420190723,0.8564124435081245,1.0261267419891675,10.191117850759479
4780000000.0,21.9,-0.14692409220105282,0.018797954633368967,0.002001563738750156,0.7722420858508209,1.0045426073135262,9.972057300477873
4785000000.0,21.9,-0.16819272525504217,0.02008607126246879,0.0031939525311496,0.6388257129138571,0.8926112493998124,9.568375889341759
4790000000.0,21.9,-0.17902986986859004,0.011678574822924715,0.0031939525311496,0.5905629304000294,0.8369888278399883,9.326759120879991
4795000000.0,21.9,-0.17427094117080685,0.003822086421040658,0.004940020346451407,0.6233268411772684,0.818252193137122,9.555043781364438
4800000000.0,21.9,-0.17747564138427083,0.0014904707074362806,0.005749074082302381,0.6199927458739275,0.7926472541260726,10.076836009072359
4805000000.0,21.9,-0.17741152946192768,-0.011867280702659728,0.004439624405243234,0.6594280133372802,0.7532119866627199,10.173064273414242
4810000000.0,21.9,-0.16548087842401518,-0.021069421912939507,0.004769595221762816,0.7108341882841419,0.8024589342847894,9.767420582575406
4815000000.0,21.9,-0.1529709246190579,-0.01246297425672882,0.0037050255363808952,0.7888214453208146,0.9177269028839691,9.491370825897608
4820000000.0,21.9,-0.14913863859796272,-0.0130423336981056,0.004854767204939793,0.7702818553590186,0.9857081446409814,9.480776774490868
4825000000.0,21.9,-0.1769915167474632,-0.0025019396538757473,0.0036198535532039186,0.8176635937198361,0.8318850009652501,9.70160484203065
4830000000.0,21.9,-0.19490469603755642,-0.005727892810968836,0.004577947719571178,0.8507239505356395,0.6445174690847748,10.018363086562632
4835000000.0,21.9,-0.1825905267018482,-0.0039709539948442575,0.00211868575566194,0.905757393914074,0.6995517573985176,9.866209515632596
4840000000.0,21.9,-0.1600402255728556,0.012653729069075819,0.0035772064293633724,0.8777977658768776,0.7989279981902799,9.766444352089543
4845000000.0,21.9,-0.15261996646800435,0.015215134093054382,0.002129301687433,0.7253489531838896,0.8849592530251925,9.77419208837532
4850000000.0,21.9,-0.16894624911750886,-0.0009636570630744126,0.0018098962104758955,0.6288235435466355,0.8063814347674144,9.613798115891381
4855000000.0,21.9,-0.1846991698177094,-0.0116275174528337,0.0016821688018364947,0.8000050284872504,0.7281950740668508,9.573189806286697
4860000000.0,21.9,-0.1977589456462562,0.003960490893703239,0.0034920650123124613,0.7899020495970206,0.6266624224013243,9.848456521595367
4865000000.0,21.9,-0.18596072524355564,0.004343816464212586,0.004546069358131867,0.7951965210706652,0.6090051779871518,9.989720711948607
4870000000.0,21.9,-0.175362870165356,0.0005275307474497158,0.005046434733214055,0.6504034729695348,0.6402006945939069,10.035431245964512
4875000000.0,21.9,-0.16244641736394844,-0.021842898354132667,0.0037262573999230814,0.7210363256743634,0.6621755681461557,9.729063238903832
4880000000.0,21.9,-0.15548374475979565,-0.025479537634972984,0.002384828177007399,0.8640664113984642,0.7298649478814494,9.41210696872887
4885000000.0,21.9,-0.16043440211810514,-0.004115865112793701,0.002949072539472323,0.99081,0.7999072102294721,9.551608585181086
4890000000.0,21.9,-0.17086130785132359,0.023418571610871977,0.002597768674993286,0.9411692154051922,0.7610587551937876,9.927133964524339
4895000000.0,21.9,-0.18927196421629497,0.03156308874794866,0.0040350163789830895,0.7610596098409962,0.6501074639664748,10.115188244284482
4900000000.0,21.9,-0.1938710700191042,0.031105113319646636,0.002768071535177802,0.6866971447013714,0.551322095176621,10.004236001290959
4905000000.0,21.9,-0.1821172625603773,0.015334266182647471,0.001469238843894054,0.45685198582121983,0.5778099527373995,9.753686217407962
4910000000.0,21.9,-0.16735817378904383,-0.005667332658647186,0.003960542539916202,0.5036466398211664,0.6590358953708589,9.386404104629142
4915000000.0,21.9,-0.16497282382804893,-0.02427774410002589,0.006547550884543045,0.6332369320196694,0.672083386403934,9.448407409655076
4920000000.0,21.9,-0.17436674911183747,-0.01346002084701424,0.002470010700227822,0.7585093911301939,0.6886615221745152,9.865725387124655
4925000000.0,21.9,-0.17465436054770303,-0.0181698228514866,0.0042586033748661,0.7838195739732958,0.645988404337784,10.225941704106816
4930000000.0,21.9,-0.18716392495853013,-0.024802545719206634,0.004407664885469274,0.8407174787966749,0.6184210593693107,9.981868135701282
4935000000.0,21.9,-0.18938881640809427,-0.02718738443625758,0.0053232542185827,0.8956539585645396,0.5079623751387238,9.658333374028933
4940000000.0,21.9,-0.17338727025129796,-0.026929409235406505,0.005067717188964854,0.9927729595357296,0.5638791838142919,9.336376174560762
4945000000.0,21.9,-0.17010612135747696,0.00435654004182133,0.0031939525311496,1.0737040197465404,0.6113603526083036,9.65902899858529
4950000000.0,21.9,-0.16031912046189617,0.021949218934508585,0.0031939525311496,0.9996360194178601,0.7131867115565672,10.1043
4955000000.0,21.9,-0.17614489344139564,0.0181165176357011,0.003289781552267152,0.7444829211435292,0.6734550563260506,10.069863146447732
4960000000.0,21.9,-0.19204153758671433,0.019649803053668907,0.0041734208516456695,0.909972902422629,0.5324859329215594,9.722494896342049
4965000000.0,21.9,-0.20660982529046085,0.03735476884792211,0.003343024581796225,0.6565832035608321,0.44782601780416015,9.726712424925823
4970000000.0,21.9,-0.19078352871270415,0.0383448836663154,0.005131585636304126,0.6327425865928259,0.40986305497173053,9.679333503016036
4975000000.0,21.9,-0.17539940776164542,0.03653374782577743,0.002129301687433,0.39730403366594036,0.5307211932668119,9.930171050498911
4980000000.0,21.9,-0.1687881149102845,0.0008081109030454333,0.0022996878139607854,0.3092124574968246,0.5462200261558003,9.786062535964225
4985000000.0,21.9,-0.1800307123432151,-0.03098817786150407,0.006355955028564377,0.44076630165696307,0.4720575873105759,9.690124317518743
4990000000.0,21.9,-0.17988158759235118,-0.034299315649826224,0.005344557754420401,0.7347685153761851,0.510512593849526,9.940474453871445
4995000000.0,21.9,-0.17259947051308044,-0.04491413307914448,0.0063879050622992,0.6888603344814034,0.5292490148905902,10.080752119124721
5000000000.0,21.9,-0.1747076373053711,-0.06284922204396813,0.006387926142386116,0.9025216510230165,0.4806889316909893,9.692278348976984
5005000000.0,21.9,-0.19262571118430122,-0.05441718727741271,0.008495934834024972,1.0676239526740396,0.3738580306226803,9.52717604732596
5010000000.0,21.9,-0.19908383719541076,-0.038664469395294415,0.005387101585835057,1.3673208167104083,0.3343244107470441,9.756243535517735
5015000000.0,21.9,-0.1764750693740725,0.010209975033960601,0.0032578104384454157,1.392431594820716,0.4191821766932218,10.03690812490038
5020000000.0,21.9,-0.15838007196713524,0.04239017638032516,0.0031939525311496,1.1669952598205526,0.5819308576271086,10.092528487537384
5025000000.0,21.9,-0.15866702022692214,0.06290186767765696,0.0031939525311496,0.9152704622805046,0.616558792813788,9.79626287665293
5030000000.0,21.9,-0.18976090273285265,0.05290535084788232,0.002193170134772277,0.6258750689485506,0.4797075344742754,9.65146903217599
5035000000.0,21.9,-0.2105706854312604,0.0522027979271503,0.002129301687433,0.60822,0.2701652484256525,9.570242817609328
5040000000.0,21.9,-0.20121330754081798,0.04337133611861485,0.004088280488599064,0.44576463787284637,0.28213589368785896,9.844534234774542
5045000000.0,21.9,-0.17410189062329406,0.02419547189014944,0.0023209175694942803,0.36914961404849617,0.40947077190300774,10.172384731764447
5050000000.0,21.9,-0.1638322262173891,-0.010219264890034597,0.005962087306588152,0.4247736866313369,0.38651360763923603,10.043476234376563
5055000000.0,21.9,-0.1762600778527447,-0.029964342990504156,0.0016501555278409154,0.41417800362538004,0.38259,9.711504065256841
5060000000.0,21.9,-0.17696450724678742,-0.04696279222020727,0.005749167888689174,0.5501463725508637,0.391222898284429,9.482736237742563
5065000000.0,21.9,-0.17868927363426024,-0.04343611938989002,0.0063879050622992,0.8335587498279875,0.35826080647380804,9.559257580578576
5070000000.0,21.9,-0.18812216563150141,-0.03344738290917859,0.008219125888699799,0.9490202863080028,0.32784990456399904,10.131382099592022
5075000000.0,21.9,-0.18418278644484493,-0.035576834265228806,0.009422170665035435,1.0197501900305017,0.2069896199389962,10.22202
5080000000.0,21.9,-0.169809903613274,-0.01294866818505611,0.004215953089012551,1.071252493364525,0.34295947478519473,9.94184304512123
5085000000.0,21.9,-0.14956699741992152,-0.01205189042776795,0.004077623450658492,0.9732488159896882,0.47863118401031185,9.391793675028536
5090000000.0,21.9,-0.1599128227975547,-0.002299517065256827,0.0025125545316424767,1.11245597734286,0.47617710339857106,9.26593710339857
5095000000.0,21.9,-0.18972669852939736,0.025023097130737474,0.004716435458577108,1.076254209321642,0.35963321450033214,9.944013110926532
