#timestamp [ns], temperature [degC], w_RS_S_x [rad s^-1], w_RS_S_y [rad s^-1], w_RS_S_z [rad s^-1], a_RS_S_x [m s^-2], a_RS_S_y [m s^-2], a_RS_S_z [m s^-2]
0,21.84,0.0,0.0,0.0,0.07848000000000001,0.35316,9.86886
5050505,21.84,0.0,0.0,0.0,0.07848000000000001,0.35316,9.87867
10101010,21.84,0.0,0.0,0.0,0.05886,0.33354000000000006,9.87867
15151515,21.84,0.0,0.0,0.0,0.07848000000000001,0.33354000000000006,9.89829
20202020,21.84,0.0,0.0,0.0,0.08829,0.36297,9.89829
25252525,21.84,0.0,0.0,0.0,0.07848000000000001,0.34335000000000004,9.888480000000001
30303030,21.84,0.0,0.0,0.0,0.07848000000000001,0.37278,9.888480000000001
35353535,21.84,0.0,0.0,0.0,0.05886,0.36297,9.85905
40404040,21.84,0.0,0.0,0.0,0.06867000000000001,0.37278,9.86886
45454545,21.84,0.0,0.0,0.0,0.08829,0.35316,9.86886
50505050,21.84,0.0,0.0,0.0,0.07848000000000001,0.36297,9.89829
55555555,21.84,0.0,0.0,0.0,0.07848000000000001,0.34335000000000004,9.888480000000001
60606060,21.84,0.0,0.0,0.0,0.06867000000000001,0.35316,9.86886
65656565,21.84,0.0,0.0,0.0,0.07848000000000001,0.33354000000000006,9.86886
70707070,21.84,0.0,0.0,0.0,0.05886,0.38259000000000004,9.888480000000001
75757575,21.84,0.0,0.0,0.0,0.08829,0.35316,9.87867
80808080,21.84,0.0,0.0,0.0,0.05886,0.34335000000000004,9.888480000000001
85858585,21.84,0.0,0.0,0.0,0.06867000000000001,0.33354000000000006,9.86886
90909090,21.84,0.0,0.0,0.0,0.0981,0.36297,9.888480000000001
95959595,21.84,0.0,0.0,0.0,0.05886,0.35316,9.908100000000001
101010100,21.84,0.0,0.0,0.0,0.08829,0.35316,9.89829
106060605,21.84,0.0,0.0,0.0,0.05886,0.34335000000000004,9.888480000000001
111111110,21.84,0.0,0.0,0.0,0.05886,0.33354000000000006,9.888480000000001
116161615,21.84,0.0,0.0,0.0,0.08829,0.36297,9.86886
121212120,21.84,0.0,0.0,0.0,0.08829,0.35316,9.888480000000001
126262625,21.84,0.0,0.0,0.0,0.06867000000000001,0.38259000000000004,9.86886
131313130,21.84,0.0,0.0,0.0,0.04905,0.36297,9.87867
136363635,21.84,0.0,0.0,0.0,0.07848000000000001,0.32373,9.91791
141414140,21.84,0.0,0.0,0.0,0.07848000000000001,0.32373,9.908100000000001
146464645,21.84,0.0,0.0,0.0,0.05886,0.36297,9.87867
151515150,21.84,0.0,0.0,0.0,0.0981,0.33354000000000006,9.89829
156565655,21.84,0.0,0.0,0.0,0.08829,0.38259000000000004,9.86886
161616160,21.84,0.0,0.0,0.0,0.05886,0.36297,9.888480000000001
166666665,21.84,0.0,0.0,0.0,0.07848000000000001,0.35316,9.908100000000001
171717170,21.84,0.0,0.0,0.0,0.07848000000000001,0.33354000000000006,9.89829
176767675,21.84,0.0,0.0,0.0,0.07848000000000001,0.34335000000000004,9.85905
181818180,21.84,0.0,0.0,0.0,0.05886,0.34335000000000004,9.89829
186868685,21.84,0.0,0.0,0.0,0.07848000000000001,0.35316,9.86886
191919190,21.84,0.0,0.0,0.0,0.06867000000000001,0.37278,9.89829
196969695,21.84,0.0,0.0,0.0,0.05886,0.35316,9.86886
202020200,21.84,0.0,0.0,0.0,0.06867000000000001,0.35316,9.86886
207070705,21.84,0.0,0.0,0.0,0.04905,0.36297,9.89829
212121210,21.84,0.0,0.0,0.0,0.08829,0.32373,9.87867
217171715,21.84,0.0,0.0,0.0,0.06867000000000001,0.32373,9.908100000000001
222222220,21.84,0.0,0.0,0.0,0.07848000000000001,0.34335000000000004,9.888480000000001
227272725,21.84,0.0,0.0,0.0,0.05886,0.37278,9.89829
232323230,21.84,0.0,0.0,0.0,0.06867000000000001,0.35316,9.888480000000001
237373735,21.84,0.0,0.0,0.0,0.06867000000000001,0.38259000000000004,9.888480000000001
242424240,21.84,0.0,0.0,0.0,0.07848000000000001,0.35316,9.888480000000001
247474745,21.84,0.0,0.0,0.0,0.08829,0.36297,9.85905
252525250,21.84,0.0,0.0,0.0,0.08829,0.34335000000000004,9.86886
257575755,21.84,0.0,0.0,0.0,0.07848000000000001,0.35316,9.89829
262626260,21.84,0.0,0.0,0.0,0.04905,0.34335000000000004,9.908100000000001
267676765,21.84,0.0,0.0,0.0,0.06867000000000001,0.37278,9.89829
272727270,21.84,0.0,0.0,0.0,0.04905,0.34335000000000004,9.87867
277777775,21.84,0.0,0.0,0.0,0.06867000000000001,0.37278,9.86886
282828280,21.84,0.0,0.0,0.0,0.08829,0.36297,9.86886
287878785,21.84,0.0,0.0,0.0,0.07848000000000001,0.37278,9.87867
292929290,21.84,0.0,0.0,0.0,0.06867000000000001,0.34335000000000004,9.87867
297979795,21.84,0.0,0.0,0.0,0.06867000000000001,0.33354000000000006,9.86886
303030300,21.84,0.0,0.0,0.0,0.039240000000000004,0.35316,9.87867
308080805,21.84,0.0,0.0,0.0,0.0981,0.35316,9.89829
313131310,21.84,0.0,0.0,0.0,0.06867000000000001,0.34335000000000004,9.89829
318181815,21.84,0.0,0.0,0.0,0.05886,0.34335000000000004,9.85905
323232320,21.84,0.0,0.0,0.0,0.07848000000000001,0.36297,9.86886
328282825,21.84,0.0,0.0,0.0,0.07848000000000001,0.33354000000000006,9.85905
333333330,21.84,0.0,0.0,0.0,0.05886,0.36297,9.888480000000001
338383835,21.84,0.0,0.0,0.0,0.06867000000000001,0.33354000000000006,9.86886
343434340,21.84,0.0,0.0,0.0,0.05886,0.33354000000000006,9.888480000000001
348484845,21.84,0.0,0.0,0.0,0.07848000000000001,0.34335000000000004,9.89829
353535350,21.84,0.0,0.0,0.0,0.04905,0.36297,9.86886
358585855,21.84,0.0,0.0,0.0,0.07848000000000001,0.37278,9.87867
363636360,21.84,0.0,0.0,0.0,0.07848000000000001,0.36297,9.87867
368686865,21.84,0.0,0.0,0.0,0.06867000000000001,0.34335000000000004,9.888480000000001
373737370,21.84,0.0,0.0,0.0,0.06867000000000001,0.36297,9.86886
378787875,21.84,0.0,0.0,0.0,0.08829,0.35316,9.87867
383838380,21.84,0.0,0.0,0.0,0.0981,0.38259000000000004,9.91791
388888885,21.84,0.0,0.0,0.0,0.08829,0.36297,9.908100000000001
393939390,21.84,0.0,0.0,0.0,0.0981,0.37278,9.888480000000001
398989895,21.84,0.0,0.0,0.0,0.07848000000000001,0.36297,9.89829
404040400,21.84,0.0,0.0,0.0,0.06867000000000001,0.36297,9.888480000000001
409090905,21.84,0.0,0.0,0.0,0.07848000000000001,0.35316,9.86886
414141410,21.84,0.0,0.0,0.0,0.08829,0.32373,9.87867
419191915,21.84,0.0,0.0,0.0,0.07848000000000001,0.34335000000000004,9.888480000000001
424242420,21.84,0.0,0.0,0.0,0.06867000000000001,0.33354000000000006,9.89829
429292925,21.84,0.0,0.0,0.0,0.06867000000000001,0.35316,9.89829
434343430,21.84,0.0,0.0,0.0,0.05886,0.35316,9.91791
439393935,21.84,0.0,0.0,0.0,0.05886,0.35316,9.86886
444444440,21.84,0.0,0.0,0.0,0.08829,0.35316,9.87867
449494945,21.84,0.0,0.0,0.0,0.04905,0.36297,9.888480000000001
454545450,21.84,0.0,0.0,0.0,0.05886,0.35316,9.86886
459595955,21.84,0.0,0.0,0.0,0.07848000000000001,0.36297,9.86886
464646460,21.84,0.0,0.0,0.0,0.06867000000000001,0.34335000000000004,9.92772
469696965,21.84,0.0,0.0,0.0,0.08829,0.33354000000000006,9.91791
474747470,21.84,0.0,0.0,0.0,0.08829,0.34335000000000004,9.908100000000001
479797975,21.84,0.0,0.0,0.0,0.07848000000000001,0.32373,9.888480000000001
484848480,21.84,0.0,0.0,0.0,0.08829,0.36297,9.89829
489898985,21.84,0.0,0.0,0.0,0.07848000000000001,0.37278,9.89829
494949490,21.84,0.0,0.0,0.0,0.06867000000000001,0.38259000000000004,9.888480000000001
499999995,21.84,0.0,0.0,0.0,0.04905,0.32373,9.888480000000001
505050500,21.84,0.0,0.0,0.0,0.06867000000000001,0.33354000000000006,9.89829
510101005,21.84,0.0,0.0,0.0,0.06867000000000001,0.35316,9.908100000000001
515151510,21.84,0.0,0.0,0.0,0.06867000000000001,0.31392000000000003,9.87867
520202015,21.84,0.0,0.0,0.0,0.10791,0.35316,9.908100000000001
525252520,21.84,0.0,0.0,0.0,0.05886,0.36297,9.87867
530303025,21.84,0.0,0.0,0.0,0.07848000000000001,0.34335000000000004,9.86886
535353530,21.84,0.0,0.0,0.0,0.06867000000000001,0.35316,9.87867
540404035,21.84,0.0,0.0,0.0,0.05886,0.35316,9.888480000000001
545454540,21.84,0.0,0.0,0.0,0.08829,0.33354000000000006,9.888480000000001
550505045,21.84,0.0,0.0,0.0,0.07848000000000001,0.34335000000000004,9.89829
555555550,21.84,0.0,0.0,0.0,0.06867000000000001,0.34335000000000004,9.888480000000001
560606055,21.84,0.0,0.0,0.0,0.04905,0.35316,9.87867
565656560,21.84,0.0,0.0,0.0,0.05886,0.37278,9.908100000000001
570707065,21.84,0.0,0.0,0.0,0.08829,0.35316,9.89829
575757570,21.84,0.0,0.0,0.0,0.06867000000000001,0.36297,9.86886
580808075,21.84,0.0,0.0,0.0,0.07848000000000001,0.35316,9.86886
585858580,21.84,0.0,0.0,0.0,0.05886,0.34335000000000004,9.87867
590909085,21.84,0.0,0.0,0.0,0.07848000000000001,0.33354000000000006,9.89829
595959590,21.84,0.0,0.0,0.0,0.06867000000000001,0.37278,9.908100000000001
601010095,21.84,0.0,0.0,0.0,0.05886,0.34335000000000004,9.86886
606060600,21.84,0.0,0.0,0.0,0.05886,0.33354000000000006,9.89829
611111105,21.84,0.0,0.0,0.0,0.07848000000000001,0.37278,9.86886
616161610,21.84,0.0,0.0,0.0,0.07848000000000001,0.34335000000000004,9.86886
621212115,21.84,0.0,0.0,0.0,0.05886,0.37278,9.87867
626262620,21.84,0.0,0.0,0.0,0.08829,0.32373,9.87867
631313125,21.84,0.0,0.0,0.0,0.05886,0.33354000000000006,9.91791
636363630,21.84,0.0,0.0,0.0,0.07848000000000001,0.32373,9.89829
641414135,21.84,0.0,0.0,0.0,0.06867000000000001,0.36297,9.908100000000001
646464640,21.84,0.0,0.0,0.0,0.07848000000000001,0.35316,9.89829
651515145,21.84,0.0,0.0,0.0,0.08829,0.35316,9.888480000000001
656565650,21.84,0.0,0.0,0.0,0.08829,0.37278,9.87867
661616155,21.84,0.0,0.0,0.0,0.06867000000000001,0.35316,9.89829
666666660,21.84,0.0,0.0,0.0,0.07848000000000001,0.34335000000000004,9.87867
671717165,21.84,0.0,0.0,0.0,0.08829,0.35316,9.91791
676767670,21.84,0.0,0.0,0.0,0.08829,0.33354000000000006,9.888480000000001
681818175,21.84,0.0,0.0,0.0,0.05886,0.33354000000000006,9.89829
686868680,21.84,0.0,0.0,0.0,0.05886,0.36297,9.87867
691919185,21.84,0.0,0.0,0.0,0.07848000000000001,0.36297,9.86886
696969690,21.84,0.0,0.0,0.0,0.07848000000000001,0.36297,9.85905
702020195,21.84,0.0,0.0,0.0,0.06867000000000001,0.34335000000000004,9.86886
707070700,21.84,0.0,0.0,0.0,0.07848000000000001,0.35316,9.888480000000001
712121205,21.84,0.0,0.0,0.0,0.07848000000000001,0.32373,9.908100000000001
717171710,21.84,0.0,0.0,0.0,0.07848000000000001,0.34335000000000004,9.888480000000001
722222215,21.84,0.0,0.0,0.0,0.07848000000000001,0.34335000000000004,9.888480000000001
727272720,21.84,0.0,0.0,0.0,0.0981,0.33354000000000006,9.85905
732323225,21.84,0.0,0.0,0.0,0.06867000000000001,0.35316,9.87867
737373730,21.84,0.0,0.0,0.0,0.0981,0.36297,9.89829
742424235,21.84,0.0,0.0,0.0,0.06867000000000001,0.32373,9.87867
747474740,21.84,0.0,0.0,0.0,0.08829,0.33354000000000006,9.888480000000001
752525245,21.84,0.0,0.0,0.0,0.06867000000000001,0.32373,9.888480000000001
757575750,21.84,0.0,0.0,0.0,0.10791,0.33354000000000006,9.89829
762626255,21.84,0.0,0.0,0.0,0.07848000000000001,0.32373,9.888480000000001
767676760,21.84,0.0,0.0,0.0,0.04905,0.35316,9.87867
772727265,21.84,0.0,0.0,0.0,0.07848000000000001,0.35316,9.85905
777777770,21.84,0.0,0.0,0.0,0.08829,0.36297,9.888480000000001
782828275,21.84,0.0,0.0,0.0,0.05886,0.32373,9.86886
787878780,21.84,0.0,0.0,0.0,0.05886,0.35316,9.91791
792929285,21.84,0.0,0.0,0.0,0.06867000000000001,0.33354000000000006,9.91791
797979790,21.84,0.0,0.0,0.0,0.08829,0.36297,9.91791
803030295,21.84,0.0,0.0,0.0,0.07848000000000001,0.34335000000000004,9.908100000000001
808080800,21.84,0.0,0.0,0.0,0.08829,0.34335000000000004,9.89829
813131305,21.84,0.0,0.0,0.0,0.07848000000000001,0.33354000000000006,9.86886
818181810,21.84,0.0,0.0,0.0,0.08829,0.35316,9.87867
823232315,21.84,0.0,0.0,0.0,0.07848000000000001,0.36297,9.86886
828282820,21.84,0.0,0.0,0.0,0.08829,0.33354000000000006,9.89829
833333325,21.84,0.0,0.0,0.0,0.05886,0.35316,9.86886
838383830,21.84,0.0,0.0,0.0,0.05886,0.34335000000000004,9.92772
843434335,21.84,0.0,0.0,0.0,0.04905,0.32373,9.87867
848484840,21.84,0.0,0.0,0.0,0.04905,0.33354000000000006,9.89829
853535345,21.84,0.0,0.0,0.0,0.04905,0.37278,9.86886
858585850,21.84,0.0,0.0,0.0,0.08829,0.35316,9.888480000000001
863636355,21.84,0.0,0.0,0.0,0.04905,0.34335000000000004,9.87867
868686860,21.84,0.0,0.0,0.0,0.05886,0.33354000000000006,9.888480000000001
873737365,21.84,0.0,0.0,0.0,0.05886,0.35316,9.888480000000001
878787870,21.84,0.0,0.0,0.0,0.07848000000000001,0.34335000000000004,9.87867
883838375,21.84,0.0,0.0,0.0,0.07848000000000001,0.35316,9.89829
888888880,21.84,0.0,0.0,0.0,0.06867000000000001,0.37278,9.89829
893939385,21.84,0.0,0.0,0.0,0.06867000000000001,0.38259000000000004,9.89829
898989890,21.84,0.0,0.0,0.0,0.07848000000000001,0.36297,9.86886
904040395,21.84,0.0,0.0,0.0,0.08829,0.34335000000000004,9.888480000000001
909090900,21.84,0.0,0.0,0.0,0.06867000000000001,0.34335000000000004,9.888480000000001
914141405,21.84,0.0,0.0,0.0,0.06867000000000001,0.32373,9.87867
919191910,21.84,0.0,0.0,0.0,0.05886,0.36297,9.91791
924242415,21.84,0.0,0.0,0.0,0.07848000000000001,0.34335000000000004,9.89829
929292920,21.84,0.0,0.0,0.0,0.08829,0.36297,9.86886
934343425,21.84,0.0,0.0,0.0,0.05886,0.36297,9.85905
939393930,21.84,0.0,0.0,0.0,0.05886,0.36297,9.84924
944444435,21.84,0.0,0.0,0.0,0.06867000000000001,0.33354000000000006,9.89829
949494940,21.84,0.0,0.0,0.0,0.05886,0.34335000000000004,9.89829
954545445,21.84,0.0,0.0,0.0,0.08829,0.33354000000000006,9.89829
959595950,21.84,0.0,0.0,0.0,0.06867000000000001,0.35316,9.85905
964646455,21.84,0.0,0.0,0.0,0.06867000000000001,0.37278,9.91791
969696960,21.84,0.0,0.0,0.0,0.05886,0.36297,9.92772
974747465,21.84,0.0,0.0,0.0,0.04905,0.35316,9.888480000000001
979797970,21.84,0.0,0.0,0.0,0.05886,0.32373,9.888480000000001
984848475,21.84,0.0,0.0,0.0,0.08829,0.35316,9.85905
989898980,21.84,0.0,0.0,0.0,0.06867000000000001,0.35316,9.86886
994949485,21.84,0.0,0.0,0.0,0.05886,0.34335000000000004,9.87867
999999990,21.84,0.0,0.0,0.0,0.05886,0.35316,9.92772
1005050495,21.84,0.0,0.0,0.0,0.07848000000000001,0.35316,9.89829
1010101000,21.84,0.0,0.0,0.0,0.08829,0.35316,9.87867
1015151505,21.84,0.0,0.0,0.0,0.06867000000000001,0.34335000000000004,9.908100000000001
1020202010,21.84,0.0,0.0,0.0,0.10791,0.36297,9.84924
1025252515,21.84,0.0,0.0,0.0,0.06867000000000001,0.36297,9.86886
1030303020,21.84,0.0,0.0,0.0,0.05886,0.35316,9.89829
1035353525,21.84,0.0,0.0,0.0,0.08829,0.36297,9.86886
1040404030,21.84,0.0,0.0,0.0,0.06867000000000001,0.35316,9.89829
1045454535,21.84,0.0,0.0,0.0,0.05886,0.35316,9.91791
1050505040,21.84,0.0,0.0,0.0,0.06867000000000001,0.33354000000000006,9.91791
1055555545,21.84,0.0,0.0,0.0,0.06867000000000001,0.36297,9.85905
1060606050,21.84,0.0,0.0,0.0,0.06867000000000001,0.38259000000000004,9.87867
1065656555,21.84,0.0,0.0,0.0,0.06867000000000001,0.34335000000000004,9.888480000000001
1070707060,21.84,0.0,0.0,0.0,0.07848000000000001,0.37278,9.89829
1075757565,21.84,0.0,0.0,0.0,0.08829,0.34335000000000004,9.888480000000001
1080808070,21.84,0.0,0.0,0.0,0.08829,0.33354000000000006,9.89829
1085858575,21.84,0.0,0.0,0.0,0.04905,0.33354000000000006,9.908100000000001
1090909080,21.84,0.0,0.0,0.0,0.05886,0.35316,9.888480000000001
1095959585,21.84,0.0,0.0,0.0,0.04905,0.34335000000000004,9.888480000000001
1101010090,21.84,0.0,0.0,0.0,0.08829,0.34335000000000004,9.87867
1106060595,21.84,0.0,0.0,0.0,0.04905,0.37278,9.87867
1111111100,21.84,0.0,0.0,0.0,0.07848000000000001,0.40221,9.86886
1116161605,21.84,0.0,0.0,0.0,0.08829,0.33354000000000006,9.87867
1121212110,21.84,0.0,0.0,0.0,0.08829,0.34335000000000004,9.89829
1126262615,21.84,0.0,0.0,0.0,0.07848000000000001,0.31392000000000003,9.92772
1131313120,21.84,0.0,0.0,0.0,0.08829,0.36297,9.908100000000001
1136363625,21.84,0.0,0.0,0.0,0.07848000000000001,0.38259000000000004,9.89829
1141414130,21.84,0.0,0.0,0.0,0.08829,0.37278,9.87867
1146464635,21.84,0.0,0.0,0.0,0.07848000000000001,0.36297,9.87867
1151515140,21.84,0.0,0.0,0.0,0.10791,0.34335000000000004,9.89829
1156565645,21.84,0.0,0.0,0.0,0.0981,0.33354000000000006,9.86886
1161616150,21.84,0.0,0.0,0.0,0.06867000000000001,0.37278,9.89829
1166666655,21.84,0.0,0.0,0.0,0.07848000000000001,0.35316,9.87867
1171717160,21.84,0.0,0.0,0.0,0.08829,0.32373,9.91791
1176767665,21.84,0.0,0.0,0.0,0.06867000000000001,0.35316,9.87867
1181818170,21.84,0.0,0.0,0.0,0.06867000000000001,0.34335000000000004,9.87867
1186868675,21.84,0.0,0.0,0.0,0.07848000000000001,0.33354000000000006,9.87867
1191919180,21.84,0.0,0.0,0.0,0.07848000000000001,0.35316,9.85905
1196969685,21.84,0.0,0.0,0.0,0.08829,0.35316,9.89829
1202020190,21.84,0.0,0.0,0.0,0.07848000000000001,0.34335000000000004,9.888480000000001
1207070695,21.84,0.0,0.0,0.0,0.06867000000000001,0.33354000000000006,9.908100000000001
1212121200,21.84,0.0,0.0,0.0,0.05886,0.36297,9.91791
1217171705,21.84,0.0,0.0,0.0,0.06867000000000001,0.37278,9.87867
1222222210,21.84,0.0,0.0,0.0,0.0981,0.35316,9.84924
1227272715,21.84,0.0,0.0,0.0,0.08829,0.36297,9.87867
1232323220,21.84,0.0,0.0,0.0,0.04905,0.35316,9.85905
1237373725,21.84,0.0,0.0,0.0,0.0981,0.35316,9.888480000000001
1242424230,21.84,0.0,0.0,0.0,0.10791,0.33354000000000006,9.908100000000001
1247474735,21.84,0.0,0.0,0.0,0.05886,0.34335000000000004,9.888480000000001
1252525240,21.84,0.0,0.0,0.0,0.08829,0.33354000000000006,9.87867
1257575745,21.84,0.0,0.0,0.0,0.07848000000000001,0.34335000000000004,9.888480000000001
1262626250,21.84,0.0,0.0,0.0,0.02943,0.36297,9.888480000000001
1267676755,21.84,0.0,0.0,0.0,0.07848000000000001,0.37278,9.888480000000001
1272727260,21.84,0.0,0.0,0.0,0.07848000000000001,0.35316,9.86886
1277777765,21.84,0.0,0.0,0.0,0.07848000000000001,0.33354000000000006,9.86886
1282828270,21.84,0.0,0.0,0.0,0.07848000000000001,0.34335000000000004,9.908100000000001
1287878775,21.84,0.0,0.0,0.0,0.07848000000000001,0.33354000000000006,9.91791
1292929280,21.84,0.0,0.0,0.0,0.07848000000000001,0.34335000000000004,9.908100000000001
1297979785,21.84,0.0,0.0,0.0,0.06867000000000001,0.36297,9.87867
1303030290,21.84,0.0,0.0,0.0,0.06867000000000001,0.34335000000000004,9.87867
1308080795,21.84,0.0,0.0,0.0,0.04905,0.3924,9.89829
1313131300,21.84,0.0,0.0,0.0,0.05886,0.37278,9.85905
1318181805,21.84,0.0,0.0,0.0,0.04905,0.36297,9.87867
1323232310,21.84,0.0,0.0,0.0,0.07848000000000001,0.31392000000000003,9.908100000000001
1328282815,21.84,0.0,0.0,0.0,0.06867000000000001,0.36297,9.87867
1333333320,21.84,0.0,0.0,0.0,0.07848000000000001,0.34335000000000004,9.908100000000001
1338383825,21.84,0.0,0.0,0.0,0.06867000000000001,0.35316,9.89829
1343434330,21.84,0.0,0.0,0.0,0.05886,0.37278,9.888480000000001
1348484835,21.84,0.0,0.0,0.0,0.08829,0.36297,9.86886
1353535340,21.84,0.0,0.0,0.0,0.07848000000000001,0.35316,9.86886
1358585845,21.84,0.0,0.0,0.0,0.08829,0.34335000000000004,9.86886
1363636350,21.84,0.0,0.0,0.0,0.07848000000000001,0.36297,9.87867
1368686855,21.84,0.0,0.0,0.0,0.06867000000000001,0.35316,9.888480000000001
1373737360,21.84,0.0,0.0,0.0,0.05886,0.35316,9.89829
1378787865,21.84,0.0,0.0,0.0,0.06867000000000001,0.34335000000000004,9.91791
1383838370,21.84,0.0,0.0,0.0,0.08829,0.36297,9.888480000000001
1388888875,21.84,0.0,0.0,0.0,0.05886,0.36297,9.87867
1393939380,21.84,0.0,0.0,0.0,0.0981,0.35316,9.87867
1398989885,21.84,0.0,0.0,0.0,0.08829,0.36297,9.86886
1404040390,21.84,0.0,0.0,0.0,0.06867000000000001,0.34335000000000004,9.908100000000001
1409090895,21.84,0.0,0.0,0.0,0.06867000000000001,0.35316,9.908100000000001
1414141400,21.84,0.0,0.0,0.0,0.06867000000000001,0.34335000000000004,9.91791
1419191905,21.84,0.0,0.0,0.0,0.06867000000000001,0.36297,9.86886
1424242410,21.84,0.0,0.0,0.0,0.07848000000000001,0.36297,9.888480000000001
1429292915,21.84,0.0,0.0,0.0,0.08829,0.37278,9.888480000000001
1434343420,21.84,0.0,0.0,0.0,0.06867000000000001,0.36297,9.888480000000001
1439393925,21.84,0.0,0.0,0.0,0.0981,0.37278,9.89829
1444444430,21.84,0.0,0.0,0.0,0.05886,0.36297,9.908100000000001
1449494935,21.84,0.0,0.0,0.0,0.0981,0.34335000000000004,9.908100000000001
1454545440,21.84,0.0,0.0,0.0,0.07848000000000001,0.33354000000000006,9.89829
1459595945,21.84,0.0,0.0,0.0,0.08829,0.35316,9.87867
1464646450,21.84,0.0,0.0,0.0,0.06867000000000001,0.35316,9.91791
1469696955,21.84,0.0,0.0,0.0,0.06867000000000001,0.37278,9.888480000000001
1474747460,21.84,0.0,0.0,0.0,0.07848000000000001,0.35316,9.888480000000001
1479797965,21.84,0.0,0.0,0.0,0.08829,0.34335000000000004,9.888480000000001
1484848470,21.84,0.0,0.0,0.0,0.06867000000000001,0.35316,9.87867
1489898975,21.84,0.0,0.0,0.0,0.06867000000000001,0.33354000000000006,9.908100000000001
1494949480,21.84,0.0,0.0,0.0,0.07848000000000001,0.35316,9.888480000000001
1499999985,21.84,0.0,0.0,0.0,0.06867000000000001,0.36297,9.87867
1505050490,21.84,0.0,0.0,0.0,0.05886,0.36297,9.908100000000001
1510100995,21.84,0.0,0.0,0.0,0.06867000000000001,0.36297,9.85905
1515151500,21.84,0.0,0.0,0.0,0.05886,0.35316,9.86886
1520202005,21.84,0.0,0.0,0.0,0.07848000000000001,0.34335000000000004,9.86886
1525252510,21.84,0.0,0.0,0.0,0.06867000000000001,0.36297,9.87867
1530303015,21.84,0.0,0.0,0.0,0.08829,0.35316,9.908100000000001
1535353520,21.84,0.0,0.0,0.0,0.06867000000000001,0.34335000000000004,9.86886
1540404025,21.84,0.0,0.0,0.0,0.05886,0.36297,9.908100000000001
1545454530,21.84,0.0,0.0,0.0,0.05886,0.36297,9.85905
1550505035,21.84,0.0,0.0,0.0,0.06867000000000001,0.35316,9.888480000000001
1555555540,21.84,0.0,0.0,0.0,0.11772,0.35316,9.86886
1560606045,21.84,0.0,0.0,0.0,0.08829,0.37278,9.85905
1565656550,21.84,0.0,0.0,0.0,0.0981,0.33354000000000006,9.86886
1570707055,21.84,0.0,0.0,0.0,0.04905,0.35316,9.91791
1575757560,21.84,0.0,0.0,0.0,0.05886,0.35316,9.89829
1580808065,21.84,0.0,0.0,0.0,0.08829,0.37278,9.92772
1585858570,21.84,0.0,0.0,0.0,0.05886,0.32373,9.908100000000001
1590909075,21.84,0.0,0.0,0.0,0.08829,0.34335000000000004,9.87867
1595959580,21.84,0.0,0.0,0.0,0.04905,0.35316,9.84924
1601010085,21.84,0.0,0.0,0.0,0.08829,0.34335000000000004,9.85905
1606060590,21.84,0.0,0.0,0.0,0.07848000000000001,0.37278,9.85905
1611111095,21.84,0.0,0.0,0.0,0.07848000000000001,0.36297,9.92772
1616161600,21.84,0.0,0.0,0.0,0.05886,0.33354000000000006,9.89829
1621212105,21.84,0.0,0.0,0.0,0.04905,0.33354000000000006,9.888480000000001
1626262610,21.84,0.0,0.0,0.0,0.05886,0.32373,9.87867
1631313115,21.84,0.0,0.0,0.0,0.07848000000000001,0.33354000000000006,9.908100000000001
1636363620,21.84,0.0,0.0,0.0,0.07848000000000001,0.37278,9.86886
1641414125,21.84,0.0,0.0,0.0,0.05886,0.37278,9.89829
1646464630,21.84,0.0,0.0,0.0,0.05886,0.36297,9.87867
1651515135,21.84,0.0,0.0,0.0,0.06867000000000001,0.36297,9.888480000000001
1656565640,21.84,0.0,0.0,0.0,0.04905,0.32373,9.89829
1661616145,21.84,0.0,0.0,0.0,0.07848000000000001,0.33354000000000006,9.888480000000001
1666666650,21.84,0.0,0.0,0.0,0.10791,0.35316,9.91791
1671717155,21.84,0.0,0.0,0.0,0.05886,0.3924,9.86886
1676767660,21.84,0.0,0.0,0.0,0.07848000000000001,0.36297,9.888480000000001
1681818165,21.84,0.0,0.0,0.0,0.07848000000000001,0.33354000000000006,9.888480000000001
1686868670,21.84,0.0,0.0,0.0,0.06867000000000001,0.35316,9.87867
1691919175,21.84,0.0,0.0,0.0,0.08829,0.33354000000000006,9.87867
1696969680,21.84,0.0,0.0,0.0,0.07848000000000001,0.35316,9.89829
1702020185,21.84,0.0,0.0,0.0,0.06867000000000001,0.33354000000000006,9.91791
1707070690,21.84,0.0,0.0,0.0,0.039240000000000004,0.38259000000000004,9.87867
1712121195,21.84,0.0,0.0,0.0,0.08829,0.35316,9.86886
1717171700,21.84,0.0,0.0,0.0,0.06867000000000001,0.34335000000000004,9.888480000000001
1722222205,21.84,0.0,0.0,0.0,0.05886,0.36297,9.83943
1727272710,21.84,0.0,0.0,0.0,0.06867000000000001,0.34335000000000004,9.86886
1732323215,21.84,0.0,0.0,0.0,0.05886,0.36297,9.89829
1737373720,21.84,0.0,0.0,0.0,0.05886,0.34335000000000004,9.89829
1742424225,21.84,0.0,0.0,0.0,0.08829,0.35316,9.908100000000001
1747474730,21.84,0.0,0.0,0.0,0.06867000000000001,0.36297,9.89829
1752525235,21.84,0.0,0.0,0.0,0.07848000000000001,0.35316,9.86886
1757575740,21.84,0.0,0.0,0.0,0.07848000000000001,0.34335000000000004,9.85905
1762626245,21.84,0.0,0.0,0.0,0.07848000000000001,0.36297,9.87867
1767676750,21.84,0.0,0.0,0.0,0.07848000000000001,0.35316,9.86886
1772727255,21.84,0.0,0.0,0.0,0.08829,0.34335000000000004,9.89829
1777777760,21.84,0.0,0.0,0.0,0.05886,0.35316,9.91791
1782828265,21.84,0.0,0.0,0.0,0.05886,0.34335000000000004,9.87867
1787878770,21.84,0.0,0.0,0.0,0.06867000000000001,0.34335000000000004,9.89829
1792929275,21.84,0.0,0.0,0.0,0.07848000000000001,0.34335000000000004,9.87867
1797979780,21.84,0.0,0.0,0.0,0.08829,0.37278,9.86886
1803030285,21.84,0.0,0.0,0.0,0.06867000000000001,0.35316,9.87867
1808080790,21.84,0.0,0.0,0.0,0.07848000000000001,0.34335000000000004,9.89829
1813131295,21.84,0.0,0.0,0.0,0.08829,0.36297,9.89829
1818181800,21.84,0.0,0.0,0.0,0.08829,0.33354000000000006,9.89829
1823232305,21.84,0.0,0.0,0.0,0.08829,0.33354000000000006,9.888480000000001
1828282810,21.84,0.0,0.0,0.0,0.08829,0.34335000000000004,9.87867
1833333315,21.84,0.0,0.0,0.0,0.08829,0.37278,9.87867
1838383820,21.84,0.0,0.0,0.0,0.07848000000000001,0.34335000000000004,9.888480000000001
1843434325,21.84,0.0,0.0,0.0,0.07848000000000001,0.36297,9.84924
1848484830,21.84,0.0,0.0,0.0,0.07848000000000001,0.36297,9.82962
1853535335,21.84,0.0,0.0,0.0,0.07848000000000001,0.35316,9.89829
1858585840,21.84,0.0,0.0,0.0,0.07848000000000001,0.32373,9.89829
1863636345,21.84,0.0,0.0,0.0,0.07848000000000001,0.34335000000000004,9.888480000000001
1868686850,21.84,0.0,0.0,0.0,0.07848000000000001,0.35316,9.89829
1873737355,21.84,0.0,0.0,0.0,0.07848000000000001,0.37278,9.888480000000001
1878787860,21.84,0.0,0.0,0.0,0.08829,0.37278,9.888480000000001
1883838365,21.84,0.0,0.0,0.0,0.07848000000000001,0.35316,9.87867
1888888870,21.84,0.0,0.0,0.0,0.08829,0.35316,9.86886
1893939375,21.84,0.0,0.0,0.0,0.10791,0.36297,9.84924
1898989880,21.84,0.0,0.0,0.0,0.05886,0.34335000000000004,9.888480000000001
1904040385,21.84,0.0,0.0,0.0,0.06867000000000001,0.35316,9.908100000000001
1909090890,21.84,0.0,0.0,0.0,0.05886,0.34335000000000004,9.89829
1914141395,21.84,0.0,0.0,0.0,0.04905,0.37278,9.908100000000001
1919191900,21.84,0.0,0.0,0.0,0.07848000000000001,0.36297,9.85905
1924242405,21.84,0.0,0.0,0.0,0.07848000000000001,0.36297,9.89829
1929292910,21.84,0.0,0.0,0.0,0.04905,0.36297,9.888480000000001
1934343415,21.84,0.0,0.0,0.0,0.07848000000000001,0.36297,9.87867
1939393920,21.84,0.0,0.0,0.0,0.05886,0.35316,9.86886
1944444425,21.84,0.0,0.0,0.0,0.06867000000000001,0.36297,9.92772
1949494930,21.84,0.0,0.0,0.0,0.05886,0.33354000000000006,9.908100000000001
1954545435,21.84,0.0,0.0,0.0,0.05886,0.36297,9.89829
1959595940,21.84,0.0,0.0,0.0,0.07848000000000001,0.36297,9.888480000000001
1964646445,21.84,0.0,0.0,0.0,0.04905,0.37278,9.888480000000001
1969696950,21.84,0.0,0.0,0.0,0.07848000000000001,0.33354000000000006,9.85905
1974747455,21.84,0.0,0.0,0.0,0.07848000000000001,0.37278,9.86886
1979797960,21.84,0.0,0.0,0.0,0.05886,0.34335000000000004,9.91791
1984848465,21.84,0.0,0.0,0.0,0.02943,0.34335000000000004,9.908100000000001
1989898970,21.84,0.0,0.0,0.0,0.07848000000000001,0.34335000000000004,9.91791
1994949475,21.84,0.0,0.0,0.0,0.06867000000000001,0.35316,9.87867
1999999980,21.84,0.0,0.0,0.0,0.04905,0.36297,9.888480000000001
2005050485,21.84,0.0,0.0,0.0,0.06867000000000001,0.34335000000000004,9.87867
2010100990,21.84,0.0,0.0,0.0,0.05886,0.36297,9.84924
2015151495,21.84,0.0,0.0,0.0,0.05886,0.36297,9.86886
2020202000,21.84,0.0,0.0,0.0,0.05886,0.34335000000000004,9.87867
2025252505,21.84,0.0,0.0,0.0,0.10791,0.35316,9.888480000000001
2030303010,21.84,0.0,0.0,0.0,0.08829,0.36297,9.87867
2035353515,21.84,0.0,0.0,0.0,0.08829,0.38259000000000004,9.89829
2040404020,21.84,0.0,0.0,0.0,0.06867000000000001,0.34335000000000004,9.87867
2045454525,21.84,0.0,0.0,0.0,0.04905,0.36297,9.84924
2050505030,21.84,0.0,0.0,0.0,0.04905,0.34335000000000004,9.86886
2055555535,21.84,0.0,0.0,0.0,0.0981,0.36297,9.87867
2060606040,21.84,0.0,0.0,0.0,0.08829,0.32373,9.87867
2065656545,21.84,0.0,0.0,0.0,0.04905,0.34335000000000004,9.89829
2070707050,21.84,0.0,0.0,0.0,0.06867000000000001,0.34335000000000004,9.91791
2075757555,21.84,0.0,0.0,0.0,0.08829,0.34335000000000004,9.888480000000001
2080808060,21.84,0.0,0.0,0.0,0.08829,0.35316,9.888480000000001
2085858565,21.84,0.0,0.0,0.0,0.07848000000000001,0.36297,9.87867
2090909070,21.84,0.0,0.0,0.0,0.08829,0.36297,9.87867
2095959575,21.84,0.0,0.0,0.0,0.08829,0.35316,9.87867
2101010080,21.84,0.0,0.0,0.0,0.08829,0.34335000000000004,9.87867
2106060585,21.84,0.0,0.0,0.0,0.06867000000000001,0.38259000000000004,9.888480000000001
2111111090,21.84,0.0,0.0,0.0,0.05886,0.34335000000000004,9.908100000000001
2116161595,21.84,0.0,0.0,0.0,0.06867000000000001,0.35316,9.89829
2121212100,21.84,0.0,0.0,0.0,0.06867000000000001,0.34335000000000004,9.89829
2126262605,21.84,0.0,0.0,0.0,0.0981,0.35316,9.888480000000001
2131313110,21.84,0.0,0.0,0.0,0.07848000000000001,0.34335000000000004,9.86886
2136363615,21.84,0.0,0.0,0.0,0.10791,0.33354000000000006,9.86886
2141414120,21.84,0.0,0.0,0.0,0.06867000000000001,0.32373,9.888480000000001
2146464625,21.84,0.0,0.0,0.0,0.0981,0.32373,9.908100000000001
2151515130,21.84,0.0,0.0,0.0,0.05886,0.35316,9.91791
2156565635,21.84,0.0,0.0,0.0,0.05886,0.33354000000000006,9.92772
2161616140,21.84,0.0,0.0,0.0,0.06867000000000001,0.34335000000000004,9.92772
2166666645,21.84,0.0,0.0,0.0,0.07848000000000001,0.33354000000000006,9.87867
2171717150,21.84,0.0,0.0,0.0,0.08829,0.37278,9.84924
2176767655,21.84,0.0,0.0,0.0,0.05886,0.34335000000000004,9.86886
2181818160,21.84,0.0,0.0,0.0,0.0981,0.36297,9.87867
2186868665,21.84,0.0,0.0,0.0,0.07848000000000001,0.35316,9.86886
2191919170,21.84,0.0,0.0,0.0,0.06867000000000001,0.33354000000000006,9.87867
2196969675,21.84,0.0,0.0,0.0,0.07848000000000001,0.32373,9.908100000000001
2202020180,21.84,0.0,0.0,0.0,0.07848000000000001,0.36297,9.84924
2207070685,21.84,0.0,0.0,0.0,0.06867000000000001,0.35316,9.908100000000001
2212121190,21.84,0.0,0.0,0.0,0.08829,0.37278,9.888480000000001
2217171695,21.84,0.0,0.0,0.0,0.08829,0.37278,9.85905
2222222200,21.84,0.0,0.0,0.0,0.06867000000000001,0.35316,9.87867
2227272705,21.84,0.0,0.0,0.0,0.08829,0.33354000000000006,9.87867
2232323210,21.84,0.0,0.0,0.0,0.05886,0.33354000000000006,9.86886
2237373715,21.84,0.0,0.0,0.0,0.07848000000000001,0.33354000000000006,9.87867
2242424220,21.84,0.0,0.0,0.0,0.06867000000000001,0.36297,9.91791
2247474725,21.84,0.0,0.0,0.0,0.04905,0.36297,9.89829
2252525230,21.84,0.0,0.0,0.0,0.05886,0.36297,9.888480000000001
2257575735,21.84,0.0,0.0,0.0,0.05886,0.36297,9.888480000000001
2262626240,21.84,0.0,0.0,0.0,0.07848000000000001,0.37278,9.87867
2267676745,21.84,0.0,0.0,0.0,0.07848000000000001,0.35316,9.908100000000001
2272727250,21.84,0.0,0.0,0.0,0.08829,0.35316,9.888480000000001
2277777755,21.84,0.0,0.0,0.0,0.039240000000000004,0.34335000000000004,9.91791
2282828260,21.84,0.0,0.0,0.0,0.05886,0.35316,9.87867
2287878765,21.84,0.0,0.0,0.0,0.06867000000000001,0.37278,9.888480000000001
2292929270,21.84,0.0,0.0,0.0,0.06867000000000001,0.34335000000000004,9.89829
2297979775,21.84,0.0,0.0,0.0,0.06867000000000001,0.36297,9.85905
2303030280,21.84,0.0,0.0,0.0,0.04905,0.35316,9.86886
2308080785,21.84,0.0,0.0,0.0,0.05886,0.35316,9.87867
2313131290,21.84,0.0,0.0,0.0,0.04905,0.33354000000000006,9.86886
2318181795,21.84,0.0,0.0,0.0,0.06867000000000001,0.35316,9.908100000000001
2323232300,21.84,0.0,0.0,0.0,0.04905,0.33354000000000006,9.89829
2328282805,21.84,0.0,0.0,0.0,0.05886,0.37278,9.87867
2333333310,21.84,0.0,0.0,0.0,0.06867000000000001,0.36297,9.888480000000001
2338383815,21.84,0.0,0.0,0.0,0.05886,0.36297,9.86886
2343434320,21.84,0.0,0.0,0.0,0.07848000000000001,0.35316,9.85905
2348484825,21.84,0.0,0.0,0.0,0.07848000000000001,0.36297,9.86886
2353535330,21.84,0.0,0.0,0.0,0.0981,0.34335000000000004,9.888480000000001
2358585835,21.84,0.0,0.0,0.0,0.05886,0.35316,9.908100000000001
2363636340,21.84,0.0,0.0,0.0,0.0981,0.33354000000000006,9.89829
2368686845,21.84,0.0,0.0,0.0,0.07848000000000001,0.35316,9.888480000000001
2373737350,21.84,0.0,0.0,0.0,0.06867000000000001,0.36297,9.89829
2378787855,21.84,0.0,0.0,0.0,0.08829,0.34335000000000004,9.888480000000001
2383838360,21.84,0.0,0.0,0.0,0.06867000000000001,0.35316,9.888480000000001
2388888865,21.84,0.0,0.0,0.0,0.06867000000000001,0.35316,9.908100000000001
2393939370,21.84,0.0,0.0,0.0,0.05886,0.36297,9.91791
2398989875,21.84,0.0,0.0,0.0,0.11772,0.33354000000000006,9.888480000000001
2404040380,21.84,0.0,0.0,0.0,0.06867000000000001,0.32373,9.888480000000001
2409090885,21.84,0.0,0.0,0.0,0.05886,0.37278,9.86886
2414141390,21.84,0.0,0.0,0.0,0.06867000000000001,0.34335000000000004,9.89829
2419191895,21.84,0.0,0.0,0.0,0.07848000000000001,0.35316,9.87867
2424242400,21.84,0.0,0.0,0.0,0.0981,0.37278,9.87867
2429292905,21.84,0.0,0.0,0.0,0.04905,0.35316,9.87867
2434343410,21.84,0.0,0.0,0.0,0.06867000000000001,0.34335000000000004,9.91791
2439393915,21.84,0.0,0.0,0.0,0.07848000000000001,0.35316,9.89829
2444444420,21.84,0.0,0.0,0.0,0.07848000000000001,0.34335000000000004,9.91791
2449494925,21.84,0.0,0.0,0.0,0.06867000000000001,0.36297,9.86886
2454545430,21.84,0.0,0.0,0.0,0.06867000000000001,0.34335000000000004,9.87867
2459595935,21.84,0.0,0.0,0.0,0.08829,0.36297,9.888480000000001
2464646440,21.84,0.0,0.0,0.0,0.11772,0.34335000000000004,9.888480000000001
2469696945,21.84,0.0,0.0,0.0,0.08829,0.35316,9.87867
2474747450,21.84,0.0,0.0,0.0,0.08829,0.33354000000000006,9.888480000000001
2479797955,21.84,0.0,0.0,0.0,0.05886,0.33354000000000006,9.888480000000001
2484848460,21.84,0.0,0.0,0.0,0.07848000000000001,0.35316,9.89829
2489898965,21.84,0.0,0.0,0.0,0.10791,0.35316,9.888480000000001
2494949470,21.84,0.0,0.0,0.0,0.07848000000000001,0.35316,9.888480000000001
2499999975,21.84,0.0,0.0,0.0,0.06867000000000001,0.37278,9.86886
2505050480,21.84,0.0,0.0,0.0,0.08829,0.35316,9.89829
2510100985,21.84,0.0,0.0,0.0,0.07848000000000001,0.36297,9.89829
2515151490,21.84,0.0,0.0,0.0,0.05886,0.32373,9.908100000000001
2520201995,21.84,0.0,0.0,0.0,0.06867000000000001,0.34335000000000004,9.908100000000001
2525252500,21.84,0.0,0.0,0.0,0.06867000000000001,0.34335000000000004,9.87867
2530303005,21.84,0.0,0.0,0.0,0.08829,0.36297,9.89829
2535353510,21.84,0.0,0.0,0.0,0.04905,0.34335000000000004,9.888480000000001
2540404015,21.84,0.0,0.0,0.0,0.08829,0.36297,9.86886
2545454520,21.84,0.0,0.0,0.0,0.08829,0.35316,9.888480000000001
2550505025,21.84,0.0,0.0,0.0,0.05886,0.36297,9.87867
2555555530,21.84,0.0,0.0,0.0,0.05886,0.34335000000000004,9.888480000000001
2560606035,21.84,0.0,0.0,0.0,0.08829,0.35316,9.908100000000001
2565656540,21.84,0.0,0.0,0.0,0.06867000000000001,0.34335000000000004,9.89829
2570707045,21.84,0.0,0.0,0.0,0.07848000000000001,0.31392000000000003,9.86886
2575757550,21.84,0.0,0.0,0.0,0.07848000000000001,0.33354000000000006,9.87867
2580808055,21.84,0.0,0.0,0.0,0.06867000000000001,0.38259000000000004,9.908100000000001
2585858560,21.84,0.0,0.0,0.0,0.06867000000000001,0.36297,9.86886
2590909065,21.84,0.0,0.0,0.0,0.05886,0.34335000000000004,9.89829
2595959570,21.84,0.0,0.0,0.0,0.08829,0.36297,9.87867
2601010075,21.84,0.0,0.0,0.0,0.08829,0.34335000000000004,9.89829
2606060580,21.84,0.0,0.0,0.0,0.07848000000000001,0.36297,9.888480000000001
2611111085,21.84,0.0,0.0,0.0,0.07848000000000001,0.34335000000000004,9.89829
2616161590,21.84,0.0,0.0,0.0,0.06867000000000001,0.35316,9.908100000000001
2621212095,21.84,0.0,0.0,0.0,0.05886,0.35316,9.85905
2626262600,21.84,0.0,0.0,0.0,0.05886,0.37278,9.888480000000001
2631313105,21.84,0.0,0.0,0.0,0.06867000000000001,0.34335000000000004,9.85905
2636363610,21.84,0.0,0.0,0.0,0.07848000000000001,0.36297,9.86886
2641414115,21.84,0.0,0.0,0.0,0.04905,0.32373,9.89829
2646464620,21.84,0.0,0.0,0.0,0.07848000000000001,0.35316,9.89829
2651515125,21.84,0.0,0.0,0.0,0.06867000000000001,0.34335000000000004,9.908100000000001
2656565630,21.84,0.0,0.0,0.0,0.06867000000000001,0.36297,9.89829
2661616135,21.84,0.0,0.0,0.0,0.06867000000000001,0.35316,9.84924
2666666640,21.84,0.0,0.0,0.0,0.07848000000000001,0.33354000000000006,9.87867
2671717145,21.84,0.0,0.0,0.0,0.05886,0.36297,9.87867
2676767650,21.84,0.0,0.0,0.0,0.08829,0.34335000000000004,9.87867
2681818155,21.84,0.0,0.0,0.0,0.0981,0.36297,9.85905
2686868660,21.84,0.0,0.0,0.0,0.06867000000000001,0.32373,9.888480000000001
2691919165,21.84,0.0,0.0,0.0,0.06867000000000001,0.32373,9.888480000000001
2696969670,21.84,0.0,0.0,0.0,0.07848000000000001,0.38259000000000004,9.888480000000001
2702020175,21.84,0.0,0.0,0.0,0.07848000000000001,0.36297,9.87867
2707070680,21.84,0.0,0.0,0.0,0.06867000000000001,0.37278,9.89829
2712121185,21.84,0.0,0.0,0.0,0.06867000000000001,0.35316,9.86886
2717171690,21.84,0.0,0.0,0.0,0.06867000000000001,0.36297,9.87867
2722222195,21.84,0.0,0.0,0.0,0.04905,0.34335000000000004,9.888480000000001
2727272700,21.84,0.0,0.0,0.0,0.08829,0.34335000000000004,9.89829
2732323205,21.84,0.0,0.0,0.0,0.0981,0.32373,9.908100000000001
2737373710,21.84,0.0,0.0,0.0,0.06867000000000001,0.36297,9.89829
2742424215,21.84,0.0,0.0,0.0,0.05886,0.33354000000000006,9.87867
2747474720,21.84,0.0,0.0,0.0,0.06867000000000001,0.37278,9.85905
2752525225,21.84,0.0,0.0,0.0,0.08829,0.36297,9.888480000000001
2757575730,21.84,0.0,0.0,0.0,0.05886,0.35316,9.91791
2762626235,21.84,0.0,0.0,0.0,0.06867000000000001,0.35316,9.87867
2767676740,21.84,0.0,0.0,0.0,0.06867000000000001,0.35316,9.91791
2772727245,21.84,0.0,0.0,0.0,0.06867000000000001,0.36297,9.89829
2777777750,21.84,0.0,0.0,0.0,0.07848000000000001,0.36297,9.89829
2782828255,21.84,0.0,0.0,0.0,0.06867000000000001,0.35316,9.888480000000001
2787878760,21.84,0.0,0.0,0.0,0.07848000000000001,0.34335000000000004,9.87867
2792929265,21.84,0.0,0.0,0.0,0.06867000000000001,0.37278,9.888480000000001
2797979770,21.84,0.0,0.0,0.0,0.05886,0.37278,9.86886
2803030275,21.84,0.0,0.0,0.0,0.05886,0.35316,9.84924
2808080780,21.84,0.0,0.0,0.0,0.06867000000000001,0.33354000000000006,9.89829
2813131285,21.84,0.0,0.0,0.0,0.04905,0.36297,9.89829
2818181790,21.84,0.0,0.0,0.0,0.04905,0.35316,9.888480000000001
2823232295,21.84,0.0,0.0,0.0,0.06867000000000001,0.3924,9.87867
2828282800,21.84,0.0,0.0,0.0,0.05886,0.35316,9.84924
2833333305,21.84,0.0,0.0,0.0,0.05886,0.34335000000000004,9.89829
2838383810,21.84,0.0,0.0,0.0,0.08829,0.34335000000000004,9.87867
2843434315,21.84,0.0,0.0,0.0,0.05886,0.36297,9.888480000000001
2848484820,21.84,0.0,0.0,0.0,0.06867000000000001,0.37278,9.888480000000001
2853535325,21.84,0.0,0.0,0.0,0.07848000000000001,0.32373,9.91791
2858585830,21.84,0.0,0.0,0.0,0.05886,0.33354000000000006,9.91791
2863636335,21.84,0.0,0.0,0.0,0.06867000000000001,0.32373,9.87867
2868686840,21.84,0.0,0.0,0.0,0.07848000000000001,0.34335000000000004,9.86886
2873737345,21.84,0.0,0.0,0.0,0.07848000000000001,0.36297,9.86886
2878787850,21.84,0.0,0.0,0.0,0.06867000000000001,0.36297,9.87867
2883838355,21.84,0.0,0.0,0.0,0.07848000000000001,0.33354000000000006,9.908100000000001
2888888860,21.84,0.0,0.0,0.0,0.08829,0.33354000000000006,9.91791
2893939365,21.84,0.0,0.0,0.0,0.07848000000000001,0.33354000000000006,9.89829
2898989870,21.84,0.0,0.0,0.0,0.06867000000000001,0.35316,9.89829
2904040375,21.84,0.0,0.0,0.0,0.04905,0.31392000000000003,9.888480000000001
2909090880,21.84,0.0,0.0,0.0,0.07848000000000001,0.37278,9.89829
2914141385,21.84,0.0,0.0,0.0,0.06867000000000001,0.36297,9.83943
2919191890,21.84,0.0,0.0,0.0,0.07848000000000001,0.36297,9.888480000000001
2924242395,21.84,0.0,0.0,0.0,0.08829,0.34335000000000004,9.89829
2929292900,21.84,0.0,0.0,0.0,0.06867000000000001,0.36297,9.87867
2934343405,21.84,0.0,0.0,0.0,0.06867000000000001,0.33354000000000006,9.908100000000001
2939393910,21.84,0.0,0.0,0.0,0.06867000000000001,0.34335000000000004,9.89829
2944444415,21.84,0.0,0.0,0.0,0.04905,0.31392000000000003,9.91791
2949494920,21.84,0.0,0.0,0.0,0.06867000000000001,0.36297,9.87867
2954545425,21.84,0.0,0.0,0.0,0.06867000000000001,0.36297,9.908100000000001
2959595930,21.84,0.0,0.0,0.0,0.06867000000000001,0.35316,9.86886
2964646435,21.84,0.0,0.0,0.0,0.07848000000000001,0.34335000000000004,9.908100000000001
2969696940,21.84,0.0,0.0,0.0,0.06867000000000001,0.36297,9.87867
2974747445,21.84,0.0,0.0,0.0,0.06867000000000001,0.32373,9.86886
2979797950,21.84,0.0,0.0,0.0,0.07848000000000001,0.34335000000000004,9.87867
2984848455,21.84,0.0,0.0,0.0,0.06867000000000001,0.34335000000000004,9.888480000000001
2989898960,21.84,0.0,0.0,0.0,0.08829,0.34335000000000004,9.888480000000001
2994949465,21.84,0.0,0.0,0.0,0.06867000000000001,0.35316,9.89829
2999999970,21.84,0.0,0.0,0.0,0.05886,0.37278,9.85905
3005050475,21.84,0.0,0.0,0.0,0.08829,0.34335000000000004,9.89829
3010100980,21.84,0.0,0.0,0.0,0.08829,0.33354000000000006,9.888480000000001
3015151485,21.84,0.0,0.0,0.0,0.05886,0.34335000000000004,9.908100000000001
3020201990,21.84,0.0,0.0,0.0,0.0981,0.34335000000000004,9.86886
3025252495,21.84,0.0,0.0,0.0,0.04905,0.33354000000000006,9.888480000000001
3030303000,21.84,0.0,0.0,0.0,0.07848000000000001,0.34335000000000004,9.85905
3035353505,21.84,0.0,0.0,0.0,0.05886,0.36297,9.888480000000001
3040404010,21.84,0.0,0.0,0.0,0.08829,0.37278,9.85905
3045454515,21.84,0.0,0.0,0.0,0.07848000000000001,0.37278,9.87867
3050505020,21.84,0.0,0.0,0.0,0.06867000000000001,0.37278,9.908100000000001
3055555525,21.84,0.0,0.0,0.0,0.10791,0.33354000000000006,9.87867
3060606030,21.84,0.0,0.0,0.0,0.08829,0.33354000000000006,9.87867
3065656535,21.84,0.0,0.0,0.0,0.0981,0.36297,9.89829
3070707040,21.84,0.0,0.0,0.0,0.06867000000000001,0.37278,9.87867
3075757545,21.84,0.0,0.0,0.0,0.06867000000000001,0.35316,9.888480000000001
3080808050,21.84,0.0,0.0,0.0,0.06867000000000001,0.33354000000000006,9.87867
3085858555,21.84,0.0,0.0,0.0,0.07848000000000001,0.35316,9.84924
3090909060,21.84,0.0,0.0,0.0,0.07848000000000001,0.31392000000000003,9.87867
3095959565,21.84,0.0,0.0,0.0,0.06867000000000001,0.30411,9.89829
3101010070,21.84,0.0,0.0,0.0,0.04905,0.33354000000000006,9.908100000000001
3106060575,21.84,0.0,0.0,0.0,0.05886,0.37278,9.908100000000001
3111111080,21.84,0.0,0.0,0.0,0.07848000000000001,0.36297,9.888480000000001
3116161585,21.84,0.0,0.0,0.0,0.06867000000000001,0.36297,9.86886
3121212090,21.84,0.0,0.0,0.0,0.07848000000000001,0.32373,9.89829
3126262595,21.84,0.0,0.0,0.0,0.05886,0.37278,9.888480000000001
3131313100,21.84,0.0,0.0,0.0,0.06867000000000001,0.32373,9.87867
3136363605,21.84,0.0,0.0,0.0,0.06867000000000001,0.35316,9.87867
3141414110,21.84,0.0,0.0,0.0,0.05886,0.33354000000000006,9.908100000000001
3146464615,21.84,0.0,0.0,0.0,0.06867000000000001,0.36297,9.908100000000001
3151515120,21.84,0.0,0.0,0.0,0.05886,0.36297,9.888480000000001
3156565625,21.84,0.0,0.0,0.0,0.06867000000000001,0.35316,9.888480000000001
3161616130,21.84,0.0,0.0,0.0,0.08829,0.36297,9.908100000000001
3166666635,21.84,0.0,0.0,0.0,0.06867000000000001,0.31392000000000003,9.85905
3171717140,21.84,0.0,0.0,0.0,0.07848000000000001,0.33354000000000006,9.89829
3176767645,21.84,0.0,0.0,0.0,0.07848000000000001,0.34335000000000004,9.908100000000001
3181818150,21.84,0.0,0.0,0.0,0.04905,0.34335000000000004,9.89829
3186868655,21.84,0.0,0.0,0.0,0.05886,0.35316,9.87867
3191919160,21.84,0.0,0.0,0.0,0.06867000000000001,0.34335000000000004,9.888480000000001
3196969665,21.84,0.0,0.0,0.0,0.06867000000000001,0.37278,9.86886
3202020170,21.84,0.0,0.0,0.0,0.0981,0.35316,9.87867
3207070675,21.84,0.0,0.0,0.0,0.07848000000000001,0.34335000000000004,9.908100000000001
3212121180,21.84,0.0,0.0,0.0,0.04905,0.38259000000000004,9.86886
3217171685,21.84,0.0,0.0,0.0,0.05886,0.36297,9.908100000000001
3222222190,21.84,0.0,0.0,0.0,0.06867000000000001,0.37278,9.89829
3227272695,21.84,0.0,0.0,0.0,0.07848000000000001,0.35316,9.87867
3232323200,21.84,0.0,0.0,0.0,0.05886,0.33354000000000006,9.908100000000001
3237373705,21.84,0.0,0.0,0.0,0.08829,0.3924,9.89829
3242424210,21.84,0.0,0.0,0.0,0.06867000000000001,0.35316,9.888480000000001
3247474715,21.84,0.0,0.0,0.0,0.08829,0.35316,9.86886
3252525220,21.84,0.0,0.0,0.0,0.08829,0.35316,9.888480000000001
3257575725,21.84,0.0,0.0,0.0,0.07848000000000001,0.33354000000000006,9.89829
3262626230,21.84,0.0,0.0,0.0,0.08829,0.33354000000000006,9.91791
3267676735,21.84,0.0,0.0,0.0,0.07848000000000001,0.33354000000000006,9.888480000000001
3272727240,21.84,0.0,0.0,0.0,0.07848000000000001,0.33354000000000006,9.89829
3277777745,21.84,0.0,0.0,0.0,0.06867000000000001,0.35316,9.89829
3282828250,21.84,0.0,0.0,0.0,0.07848000000000001,0.34335000000000004,9.87867
3287878755,21.84,0.0,0.0,0.0,0.06867000000000001,0.37278,9.87867
3292929260,21.84,0.0,0.0,0.0,0.06867000000000001,0.34335000000000004,9.89829
3297979765,21.84,0.0,0.0,0.0,0.05886,0.34335000000000004,9.888480000000001
3303030270,21.84,0.0,0.0,0.0,0.05886,0.34335000000000004,9.92772
3308080775,21.84,0.0,0.0,0.0,0.06867000000000001,0.32373,9.87867
3313131280,21.84,0.0,0.0,0.0,0.06867000000000001,0.32373,9.89829
3318181785,21.84,0.0,0.0,0.0,0.06867000000000001,0.34335000000000004,9.908100000000001
3323232290,21.84,0.0,0.0,0.0,0.05886,0.37278,9.85905
3328282795,21.84,0.0,0.0,0.0,0.10791,0.32373,9.86886
3333333300,21.84,0.0,0.0,0.0,0.07848000000000001,0.35316,9.89829
3338383805,21.84,0.0,0.0,0.0,0.0981,0.36297,9.888480000000001
3343434310,21.84,0.0,0.0,0.0,0.05886,0.34335000000000004,9.89829
3348484815,21.84,0.0,0.0,0.0,0.06867000000000001,0.35316,9.89829
3353535320,21.84,0.0,0.0,0.0,0.06867000000000001,0.36297,9.89829
3358585825,21.84,0.0,0.0,0.0,0.08829,0.35316,9.89829
3363636330,21.84,0.0,0.0,0.0,0.07848000000000001,0.36297,9.85905
3368686835,21.84,0.0,0.0,0.0,0.06867000000000001,0.33354000000000006,9.85905
3373737340,21.84,0.0,0.0,0.0,0.08829,0.37278,9.85905
3378787845,21.84,0.0,0.0,0.0,0.08829,0.34335000000000004,9.89829
3383838350,21.84,0.0,0.0,0.0,0.08829,0.34335000000000004,9.888480000000001
3388888855,21.84,0.0,0.0,0.0,0.05886,0.33354000000000006,9.86886
3393939360,21.84,0.0,0.0,0.0,0.04905,0.34335000000000004,9.92772
3398989865,21.84,0.0,0.0,0.0,0.06867000000000001,0.36297,9.87867
3404040370,21.84,0.0,0.0,0.0,0.04905,0.35316,9.888480000000001
3409090875,21.84,0.0,0.0,0.0,0.06867000000000001,0.37278,9.87867
3414141380,21.84,0.0,0.0,0.0,0.06867000000000001,0.35316,9.89829
3419191885,21.84,0.0,0.0,0.0,0.07848000000000001,0.32373,9.908100000000001
3424242390,21.84,0.0,0.0,0.0,0.05886,0.34335000000000004,9.87867
3429292895,21.84,0.0,0.0,0.0,0.10791,0.32373,9.888480000000001
3434343400,21.84,0.0,0.0,0.0,0.06867000000000001,0.35316,9.85905
3439393905,21.84,0.0,0.0,0.0,0.0981,0.33354000000000006,9.888480000000001
3444444410,21.84,0.0,0.0,0.0,0.08829,0.35316,9.87867
3449494915,21.84,0.0,0.0,0.0,0.07848000000000001,0.35316,9.85905
3454545420,21.84,0.0,0.0,0.0,0.039240000000000004,0.35316,9.87867
3459595925,21.84,0.0,0.0,0.0,0.08829,0.35316,9.91791
3464646430,21.84,0.0,0.0,0.0,0.07848000000000001,0.31392000000000003,9.888480000000001
3469696935,21.84,0.0,0.0,0.0,0.039240000000000004,0.32373,9.908100000000001
3474747440,21.84,0.0,0.0,0.0,0.05886,0.34335000000000004,9.888480000000001
3479797945,21.84,0.0,0.0,0.0,0.06867000000000001,0.36297,9.91791
3484848450,21.84,0.0,0.0,0.0,0.06867000000000001,0.34335000000000004,9.87867
3489898955,21.84,0.0,0.0,0.0,0.05886,0.34335000000000004,9.87867
3494949460,21.84,0.0,0.0,0.0,0.07848000000000001,0.36297,9.85905
3499999965,21.84,0.0,0.0,0.0,0.07848000000000001,0.35316,9.888480000000001
3505050470,21.84,0.0,0.0,0.0,0.06867000000000001,0.35316,9.87867
3510100975,21.84,0.0,0.0,0.0,0.07848000000000001,0.34335000000000004,9.91791
3515151480,21.84,0.0,0.0,0.0,0.0981,0.35316,9.89829
3520201985,21.84,0.0,0.0,0.0,0.07848000000000001,0.35316,9.888480000000001
3525252490,21.84,0.0,0.0,0.0,0.07848000000000001,0.35316,9.888480000000001
3530302995,21.84,0.0,0.0,0.0,0.07848000000000001,0.37278,9.85905
3535353500,21.84,0.0,0.0,0.0,0.10791,0.35316,9.85905
3540404005,21.84,0.0,0.0,0.0,0.05886,0.33354000000000006,9.888480000000001
3545454510,21.84,0.0,0.0,0.0,0.08829,0.33354000000000006,9.888480000000001
3550505015,21.84,0.0,0.0,0.0,0.06867000000000001,0.35316,9.87867
3555555520,21.84,0.0,0.0,0.0,0.05886,0.33354000000000006,9.87867
3560606025,21.84,0.0,0.0,0.0,0.06867000000000001,0.37278,9.89829
3565656530,21.84,0.0,0.0,0.0,0.08829,0.34335000000000004,9.85905
3570707035,21.84,0.0,0.0,0.0,0.06867000000000001,0.34335000000000004,9.87867
3575757540,21.84,0.0,0.0,0.0,0.04905,0.37278,9.89829
3580808045,21.84,0.0,0.0,0.0,0.05886,0.34335000000000004,9.89829
3585858550,21.84,0.0,0.0,0.0,0.06867000000000001,0.34335000000000004,9.888480000000001
3590909055,21.84,0.0,0.0,0.0,0.05886,0.34335000000000004,9.86886
3595959560,21.84,0.0,0.0,0.0,0.039240000000000004,0.35316,9.888480000000001
3601010065,21.84,0.0,0.0,0.0,0.06867000000000001,0.33354000000000006,9.888480000000001
3606060570,21.84,0.0,0.0,0.0,0.05886,0.35316,9.86886
3611111075,21.84,0.0,0.0,0.0,0.0981,0.37278,9.87867
3616161580,21.84,0.0,0.0,0.0,0.11772,0.36297,9.87867
3621212085,21.84,0.0,0.0,0.0,0.07848000000000001,0.33354000000000006,9.86886
3626262590,21.84,0.0,0.0,0.0,0.07848000000000001,0.36297,9.888480000000001
3631313095,21.84,0.0,0.0,0.0,0.07848000000000001,0.36297,9.888480000000001
3636363600,21.84,0.0,0.0,0.0,0.06867000000000001,0.36297,9.87867
3641414105,21.84,0.0,0.0,0.0,0.08829,0.33354000000000006,9.908100000000001
3646464610,21.84,0.0,0.0,0.0,0.07848000000000001,0.36297,9.908100000000001
3651515115,21.84,0.0,0.0,0.0,0.07848000000000001,0.37278,9.84924
3656565620,21.84,0.0,0.0,0.0,0.05886,0.37278,9.83943
3661616125,21.84,0.0,0.0,0.0,0.07848000000000001,0.35316,9.888480000000001
3666666630,21.84,0.0,0.0,0.0,0.07848000000000001,0.34335000000000004,9.86886
3671717135,21.84,0.0,0.0,0.0,0.07848000000000001,0.33354000000000006,9.89829
3676767640,21.84,0.0,0.0,0.0,0.06867000000000001,0.34335000000000004,9.908100000000001
3681818145,21.84,0.0,0.0,0.0,0.08829,0.35316,9.87867
3686868650,21.84,0.0,0.0,0.0,0.07848000000000001,0.35316,9.87867
3691919155,21.84,0.0,0.0,0.0,0.06867000000000001,0.36297,9.888480000000001
3696969660,21.84,0.0,0.0,0.0,0.07848000000000001,0.35316,9.85905
3702020165,21.84,0.0,0.0,0.0,0.08829,0.34335000000000004,9.86886
3707070670,21.84,0.0,0.0,0.0,0.06867000000000001,0.34335000000000004,9.888480000000001
3712121175,21.84,0.0,0.0,0.0,0.06867000000000001,0.34335000000000004,9.87867
3717171680,21.84,0.0,0.0,0.0,0.06867000000000001,0.33354000000000006,9.89829
3722222185,21.84,0.0,0.0,0.0,0.05886,0.35316,9.908100000000001
3727272690,21.84,0.0,0.0,0.0,0.07848000000000001,0.36297,9.888480000000001
3732323195,21.84,0.0,0.0,0.0,0.08829,0.36297,9.85905
3737373700,21.84,0.0,0.0,0.0,0.05886,0.38259000000000004,9.86886
3742424205,21.84,0.0,0.0,0.0,0.06867000000000001,0.35316,9.888480000000001
3747474710,21.84,0.0,0.0,0.0,0.05886,0.34335000000000004,9.888480000000001
3752525215,21.84,0.0,0.0,0.0,0.05886,0.36297,9.888480000000001
3757575720,21.84,0.0,0.0,0.0,0.07848000000000001,0.33354000000000006,9.91791
3762626225,21.84,0.0,0.0,0.0,0.07848000000000001,0.34335000000000004,9.92772
3767676730,21.84,0.0,0.0,0.0,0.06867000000000001,0.37278,9.87867
3772727235,21.84,0.0,0.0,0.0,0.08829,0.35316,9.87867
3777777740,21.84,0.0,0.0,0.0,0.04905,0.36297,9.86886
3782828245,21.84,0.0,0.0,0.0,0.04905,0.38259000000000004,9.888480000000001
3787878750,21.84,0.0,0.0,0.0,0.07848000000000001,0.34335000000000004,9.908100000000001
3792929255,21.84,0.0,0.0,0.0,0.08829,0.36297,9.89829
3797979760,21.84,0.0,0.0,0.0,0.05886,0.35316,9.908100000000001
3803030265,21.84,0.0,0.0,0.0,0.06867000000000001,0.33354000000000006,9.89829
3808080770,21.84,0.0,0.0,0.0,0.06867000000000001,0.37278,9.888480000000001
3813131275,21.84,0.0,0.0,0.0,0.04905,0.36297,9.888480000000001
3818181780,21.84,0.0,0.0,0.0,0.06867000000000001,0.37278,9.888480000000001
3823232285,21.84,0.0,0.0,0.0,0.06867000000000001,0.36297,9.87867
3828282790,21.84,0.0,0.0,0.0,0.039240000000000004,0.34335000000000004,9.87867
3833333295,21.84,0.0,0.0,0.0,0.06867000000000001,0.32373,9.89829
3838383800,21.84,0.0,0.0,0.0,0.07848000000000001,0.35316,9.87867
3843434305,21.84,0.0,0.0,0.0,0.08829,0.35316,9.91791
3848484810,21.84,0.0,0.0,0.0,0.08829,0.35316,9.85905
3853535315,21.84,0.0,0.0,0.0,0.07848000000000001,0.37278,9.908100000000001
3858585820,21.84,0.0,0.0,0.0,0.039240000000000004,0.34335000000000004,9.86886
3863636325,21.84,0.0,0.0,0.0,0.08829,0.33354000000000006,9.87867
3868686830,21.84,0.0,0.0,0.0,0.05886,0.36297,9.86886
3873737335,21.84,0.0,0.0,0.0,0.08829,0.38259000000000004,9.908100000000001
3878787840,21.84,0.0,0.0,0.0,0.0981,0.34335000000000004,9.908100000000001
3883838345,21.84,0.0,0.0,0.0,0.07848000000000001,0.34335000000000004,9.92772
3888888850,21.84,0.0,0.0,0.0,0.06867000000000001,0.36297,9.888480000000001
3893939355,21.84,0.0,0.0,0.0,0.08829,0.34335000000000004,9.89829
3898989860,21.84,0.0,0.0,0.0,0.08829,0.37278,9.85905
3904040365,21.84,0.0,0.0,0.0,0.07848000000000001,0.33354000000000006,9.85905
3909090870,21.84,0.0,0.0,0.0,0.04905,0.35316,9.87867
3914141375,21.84,0.0,0.0,0.0,0.06867000000000001,0.32373,9.85905
3919191880,21.84,0.0,0.0,0.0,0.06867000000000001,0.33354000000000006,9.89829
3924242385,21.84,0.0,0.0,0.0,0.06867000000000001,0.33354000000000006,9.87867
3929292890,21.84,0.0,0.0,0.0,0.06867000000000001,0.34335000000000004,9.908100000000001
3934343395,21.84,0.0,0.0,0.0,0.05886,0.34335000000000004,9.83943
3939393900,21.84,0.0,0.0,0.0,0.05886,0.36297,9.86886
3944444405,21.84,0.0,0.0,0.0,0.06867000000000001,0.3924,9.86886
3949494910,21.84,0.0,0.0,0.0,0.05886,0.34335000000000004,9.888480000000001
3954545415,21.84,0.0,0.0,0.0,0.10791,0.34335000000000004,9.888480000000001
3959595920,21.84,0.0,0.0,0.0,0.08829,0.32373,9.908100000000001
3964646425,21.84,0.0,0.0,0.0,0.04905,0.36297,9.888480000000001
3969696930,21.84,0.0,0.0,0.0,0.05886,0.34335000000000004,9.91791
3974747435,21.84,0.0,0.0,0.0,0.07848000000000001,0.33354000000000006,9.84924
3979797940,21.84,0.0,0.0,0.0,0.08829,0.37278,9.888480000000001
3984848445,21.84,0.0,0.0,0.0,0.06867000000000001,0.36297,9.888480000000001
3989898950,21.84,0.0,0.0,0.0,0.05886,0.34335000000000004,9.87867
3994949455,21.84,0.0,0.0,0.0,0.07848000000000001,0.36297,9.89829
3999999960,21.84,0.0,0.0,0.0,0.07848000000000001,0.35316,9.91791
4005050465,21.84,0.0,0.0,0.0,0.07848000000000001,0.34335000000000004,9.89829
4010100970,21.84,0.0,0.0,0.0,0.07848000000000001,0.36297,9.86886
4015151475,21.84,0.0,0.0,0.0,0.08829,0.34335000000000004,9.86886
4020201980,21.84,0.0,0.0,0.0,0.05886,0.35316,9.888480000000001
4025252485,21.84,0.0,0.0,0.0,0.07848000000000001,0.34335000000000004,9.87867
4030302990,21.84,0.0,0.0,0.0,0.0981,0.36297,9.86886
4035353495,21.84,0.0,0.0,0.0,0.05886,0.32373,9.888480000000001
4040404000,21.84,0.0,0.0,0.0,0.06867000000000001,0.32373,9.89829
4045454505,21.84,0.0,0.0,0.0,0.04905,0.34335000000000004,9.888480000000001
4050505010,21.84,0.0,0.0,0.0,0.06867000000000001,0.35316,9.89829
4055555515,21.84,0.0,0.0,0.0,0.06867000000000001,0.36297,9.908100000000001
4060606020,21.84,0.0,0.0,0.0,0.08829,0.37278,9.87867
4065656525,21.84,0.0,0.0,0.0,0.07848000000000001,0.35316,9.888480000000001
4070707030,21.84,0.0,0.0,0.0,0.07848000000000001,0.34335000000000004,9.86886
4075757535,21.84,0.0,0.0,0.0,0.039240000000000004,0.37278,9.86886
4080808040,21.84,0.0,0.0,0.0,0.07848000000000001,0.35316,9.89829
4085858545,21.84,0.0,0.0,0.0,0.06867000000000001,0.34335000000000004,9.87867
4090909050,21.84,0.0,0.0,0.0,0.06867000000000001,0.31392000000000003,9.84924
4095959555,21.84,0.0,0.0,0.0,0.05886,0.34335000000000004,9.888480000000001
4101010060,21.84,0.0,0.0,0.0,0.07848000000000001,0.37278,9.87867
4106060565,21.84,0.0,0.0,0.0,0.08829,0.3924,9.86886
4111111070,21.84,0.0,0.0,0.0,0.08829,0.36297,9.89829
4116161575,21.84,0.0,0.0,0.0,0.05886,0.34335000000000004,9.888480000000001
4121212080,21.84,0.0,0.0,0.0,0.05886,0.31392000000000003,9.908100000000001
4126262585,21.84,0.0,0.0,0.0,0.07848000000000001,0.33354000000000006,9.89829
4131313090,21.84,0.0,0.0,0.0,0.07848000000000001,0.33354000000000006,9.87867
4136363595,21.84,0.0,0.0,0.0,0.06867000000000001,0.36297,9.86886
4141414100,21.84,0.0,0.0,0.0,0.05886,0.36297,9.85905
4146464605,21.84,0.0,0.0,0.0,0.06867000000000001,0.32373,9.84924
4151515110,21.84,0.0,0.0,0.0,0.07848000000000001,0.38259000000000004,9.888480000000001
4156565615,21.84,0.0,0.0,0.0,0.05886,0.35316,9.888480000000001
4161616120,21.84,0.0,0.0,0.0,0.05886,0.33354000000000006,9.91791
4166666625,21.84,0.0,0.0,0.0,0.08829,0.32373,9.908100000000001
4171717130,21.84,0.0,0.0,0.0,0.05886,0.33354000000000006,9.87867
4176767635,21.84,0.0,0.0,0.0,0.05886,0.34335000000000004,9.87867
4181818140,21.84,0.0,0.0,0.0,0.0981,0.36297,9.888480000000001
4186868645,21.84,0.0,0.0,0.0,0.04905,0.34335000000000004,9.85905
4191919150,21.84,0.0,0.0,0.0,0.06867000000000001,0.35316,9.87867
4196969655,21.84,0.0,0.0,0.0,0.04905,0.34335000000000004,9.89829
4202020160,21.84,0.0,0.0,0.0,0.05886,0.35316,9.888480000000001
4207070665,21.84,0.0,0.0,0.0,0.05886,0.36297,9.87867
4212121170,21.84,0.0,0.0,0.0,0.07848000000000001,0.33354000000000006,9.908100000000001
4217171675,21.84,0.0,0.0,0.0,0.07848000000000001,0.35316,9.908100000000001
4222222180,21.84,0.0,0.0,0.0,0.06867000000000001,0.34335000000000004,9.87867
4227272685,21.84,0.0,0.0,0.0,0.08829,0.35316,9.888480000000001
4232323190,21.84,0.0,0.0,0.0,0.07848000000000001,0.36297,9.86886
4237373695,21.84,0.0,0.0,0.0,0.07848000000000001,0.36297,9.87867
4242424200,21.84,0.0,0.0,0.0,0.04905,0.32373,9.86886
4247474705,21.84,0.0,0.0,0.0,0.05886,0.32373,9.89829
4252525210,21.84,0.0,0.0,0.0,0.05886,0.32373,9.89829
4257575715,21.84,0.0,0.0,0.0,0.06867000000000001,0.35316,9.87867
4262626220,21.84,0.0,0.0,0.0,0.05886,0.36297,9.89829
4267676725,21.84,0.0,0.0,0.0,0.07848000000000001,0.35316,9.86886
4272727230,21.84,0.0,0.0,0.0,0.05886,0.37278,9.86886
4277777735,21.84,0.0,0.0,0.0,0.08829,0.36297,9.888480000000001
4282828240,21.84,0.0,0.0,0.0,0.0981,0.36297,9.888480000000001
4287878745,21.84,0.0,0.0,0.0,0.06867000000000001,0.31392000000000003,9.888480000000001
4292929250,21.84,0.0,0.0,0.0,0.07848000000000001,0.33354000000000006,9.888480000000001
4297979755,21.84,0.0,0.0,0.0,0.05886,0.33354000000000006,9.888480000000001
4303030260,21.84,0.0,0.0,0.0,0.05886,0.36297,9.87867
4308080765,21.84,0.0,0.0,0.0,0.06867000000000001,0.35316,9.85905
4313131270,21.84,0.0,0.0,0.0,0.07848000000000001,0.36297,9.84924
4318181775,21.84,0.0,0.0,0.0,0.08829,0.31392000000000003,9.89829
4323232280,21.84,0.0,0.0,0.0,0.08829,0.34335000000000004,9.888480000000001
4328282785,21.84,0.0,0.0,0.0,0.07848000000000001,0.36297,9.91791
4333333290,21.84,0.0,0.0,0.0,0.06867000000000001,0.34335000000000004,9.92772
4338383795,21.84,0.0,0.0,0.0,0.04905,0.35316,9.908100000000001
4343434300,21.84,0.0,0.0,0.0,0.06867000000000001,0.35316,9.86886
4348484805,21.84,0.0,0.0,0.0,0.06867000000000001,0.34335000000000004,9.89829
4353535310,21.84,0.0,0.0,0.0,0.04905,0.35316,9.86886
4358585815,21.84,0.0,0.0,0.0,0.06867000000000001,0.35316,9.89829
4363636320,21.84,0.0,0.0,0.0,0.06867000000000001,0.35316,9.87867
4368686825,21.84,0.0,0.0,0.0,0.07848000000000001,0.36297,9.87867
4373737330,21.84,0.0,0.0,0.0,0.06867000000000001,0.35316,9.888480000000001
4378787835,21.84,0.0,0.0,0.0,0.0981,0.34335000000000004,9.92772
4383838340,21.84,0.0,0.0,0.0,0.06867000000000001,0.36297,9.89829
4388888845,21.84,0.0,0.0,0.0,0.06867000000000001,0.34335000000000004,9.888480000000001
4393939350,21.84,0.0,0.0,0.0,0.05886,0.33354000000000006,9.87867
4398989855,21.84,0.0,0.0,0.0,0.07848000000000001,0.36297,9.888480000000001
4404040360,21.84,0.0,0.0,0.0,0.05886,0.33354000000000006,9.86886
4409090865,21.84,0.0,0.0,0.0,0.06867000000000001,0.36297,9.89829
4414141370,21.84,0.0,0.0,0.0,0.05886,0.34335000000000004,9.91791
4419191875,21.84,0.0,0.0,0.0,0.07848000000000001,0.34335000000000004,9.908100000000001
4424242380,21.84,0.0,0.0,0.0,0.08829,0.32373,9.87867
4429292885,21.84,0.0,0.0,0.0,0.06867000000000001,0.37278,9.86886
4434343390,21.84,0.0,0.0,0.0,0.07848000000000001,0.37278,9.84924
4439393895,21.84,0.0,0.0,0.0,0.04905,0.37278,9.87867
4444444400,21.84,0.0,0.0,0.0,0.06867000000000001,0.34335000000000004,9.908100000000001
4449494905,21.84,0.0,0.0,0.0,0.05886,0.34335000000000004,9.89829
4454545410,21.84,0.0,0.0,0.0,0.05886,0.33354000000000006,9.89829
4459595915,21.84,0.0,0.0,0.0,0.08829,0.35316,9.91791
4464646420,21.84,0.0,0.0,0.0,0.05886,0.37278,9.89829
4469696925,21.84,0.0,0.0,0.0,0.04905,0.36297,9.87867
4474747430,21.84,0.0,0.0,0.0,0.07848000000000001,0.34335000000000004,9.908100000000001
4479797935,21.84,0.0,0.0,0.0,0.08829,0.36297,9.87867
4484848440,21.84,0.0,0.0,0.0,0.07848000000000001,0.31392000000000003,9.85905
4489898945,21.84,0.0,0.0,0.0,0.07848000000000001,0.33354000000000006,9.888480000000001
4494949450,21.84,0.0,0.0,0.0,0.07848000000000001,0.35316,9.89829
4499999955,21.84,0.0,0.0,0.0,0.08829,0.33354000000000006,9.87867
4505050460,21.84,0.0,0.0,0.0,0.05886,0.33354000000000006,9.91791
4510100965,21.84,0.0,0.0,0.0,0.07848000000000001,0.37278,9.85905
4515151470,21.84,0.0,0.0,0.0,0.05886,0.36297,9.908100000000001
4520201975,21.84,0.0,0.0,0.0,0.07848000000000001,0.35316,9.85905
4525252480,21.84,0.0,0.0,0.0,0.04905,0.34335000000000004,9.89829
4530302985,21.84,0.0,0.0,0.0,0.05886,0.34335000000000004,9.87867
4535353490,21.84,0.0,0.0,0.0,0.04905,0.32373,9.908100000000001
4540403995,21.84,0.0,0.0,0.0,0.06867000000000001,0.36297,9.888480000000001
4545454500,21.84,0.0,0.0,0.0,0.08829,0.34335000000000004,9.89829
4550505005,21.84,0.0,0.0,0.0,0.07848000000000001,0.37278,9.87867
4555555510,21.84,0.0,0.0,0.0,0.06867000000000001,0.35316,9.85905
4560606015,21.84,0.0,0.0,0.0,0.10791,0.35316,9.89829
4565656520,21.84,0.0,0.0,0.0,0.06867000000000001,0.33354000000000006,9.87867
4570707025,21.84,0.0,0.0,0.0,0.05886,0.37278,9.888480000000001
4575757530,21.84,0.0,0.0,0.0,0.08829,0.30411,9.89829
4580808035,21.84,0.0,0.0,0.0,0.06867000000000001,0.32373,9.87867
4585858540,21.84,0.0,0.0,0.0,0.06867000000000001,0.35316,9.888480000000001
4590909045,21.84,0.0,0.0,0.0,0.06867000000000001,0.38259000000000004,9.87867
4595959550,21.84,0.0,0.0,0.0,0.08829,0.37278,9.84924
4601010055,21.84,0.0,0.0,0.0,0.08829,0.35316,9.84924
4606060560,21.84,0.0,0.0,0.0,0.05886,0.37278,9.84924
4611111065,21.84,0.0,0.0,0.0,0.04905,0.36297,9.908100000000001
4616161570,21.84,0.0,0.0,0.0,0.05886,0.36297,9.91791
4621212075,21.84,0.0,0.0,0.0,0.06867000000000001,0.35316,9.92772
4626262580,21.84,0.0,0.0,0.0,0.05886,0.33354000000000006,9.87867
4631313085,21.84,0.0,0.0,0.0,0.06867000000000001,0.35316,9.908100000000001
4636363590,21.84,0.0,0.0,0.0,0.08829,0.36297,9.86886
4641414095,21.84,0.0,0.0,0.0,0.0981,0.35316,9.888480000000001
4646464600,21.84,0.0,0.0,0.0,0.0981,0.35316,9.888480000000001
4651515105,21.84,0.0,0.0,0.0,0.06867000000000001,0.37278,9.89829
4656565610,21.84,0.0,0.0,0.0,0.04905,0.34335000000000004,9.908100000000001
4661616115,21.84,0.0,0.0,0.0,0.05886,0.33354000000000006,9.908100000000001
4666666620,21.84,0.0,0.0,0.0,0.039240000000000004,0.32373,9.89829
4671717125,21.84,0.0,0.0,0.0,0.06867000000000001,0.35316,9.888480000000001
4676767630,21.84,0.0,0.0,0.0,0.10791,0.34335000000000004,9.87867
4681818135,21.84,0.0,0.0,0.0,0.07848000000000001,0.36297,9.908100000000001
4686868640,21.84,0.0,0.0,0.0,0.06867000000000001,0.35316,9.87867
4691919145,21.84,0.0,0.0,0.0,0.08829,0.35316,9.87867
4696969650,21.84,0.0,0.0,0.0,0.05886,0.33354000000000006,9.888480000000001
4702020155,21.84,0.0,0.0,0.0,0.0981,0.34335000000000004,9.888480000000001
4707070660,21.84,0.0,0.0,0.0,0.08829,0.37278,9.87867
4712121165,21.84,0.0,0.0,0.0,0.05886,0.36297,9.87867
4717171670,21.84,0.0,0.0,0.0,0.039240000000000004,0.35316,9.85905
4722222175,21.84,0.0,0.0,0.0,0.02943,0.34335000000000004,9.888480000000001
4727272680,21.84,0.0,0.0,0.0,0.02943,0.36297,9.91791
4732323185,21.84,0.0,0.0,0.0,0.06867000000000001,0.31392000000000003,9.89829
4737373690,21.84,0.0,0.0,0.0,0.07848000000000001,0.37278,9.89829
4742424195,21.84,0.0,0.0,0.0,0.10791,0.36297,9.888480000000001
4747474700,21.84,0.0,0.0,0.0,0.08829,0.38259000000000004,9.86886
4752525205,21.84,0.0,0.0,0.0,0.07848000000000001,0.35316,9.86886
4757575710,21.84,0.0,0.0,0.0,0.07848000000000001,0.35316,9.86886
4762626215,21.84,0.0,0.0,0.0,0.05886,0.34335000000000004,9.87867
4767676720,21.84,0.0,0.0,0.0,0.039240000000000004,0.33354000000000006,9.89829
4772727225,21.84,0.0,0.0,0.0,0.06867000000000001,0.34335000000000004,9.888480000000001
4777777730,21.84,0.0,0.0,0.0,0.06867000000000001,0.34335000000000004,9.908100000000001
4782828235,21.84,0.0,0.0,0.0,0.07848000000000001,0.34335000000000004,9.89829
4787878740,21.84,0.0,0.0,0.0,0.0981,0.36297,9.888480000000001
4792929245,21.84,0.0,0.0,0.0,0.08829,0.37278,9.888480000000001
4797979750,21.84,0.0,0.0,0.0,0.08829,0.34335000000000004,9.86886
4803030255,21.84,0.0,0.0,0.0,0.05886,0.34335000000000004,9.86886
4808080760,21.84,0.0,0.0,0.0,0.05886,0.34335000000000004,9.84924
4813131265,21.84,0.0,0.0,0.0,0.05886,0.28449,9.908100000000001
4818181770,21.84,0.0,0.0,0.0,0.0981,0.35316,9.87867
4823232275,21.84,0.013840460968315033,0.03089232776029963,0.0,0.23544,0.42183,10.045440000000001
4828282780,21.84,0.004258603374866164,0.15126768627034853,0.0,0.57879,0.12753,9.751140000000001
4833333285,21.84,-0.021310470166850764,0.286548156592429,-0.00958185759344887,-0.7749900000000001,0.20601000000000003,9.751140000000001
4838383790,21.84,0.023439771854283843,0.001064650843716541,-0.003193952531149623,-0.70632,0.0981,9.623610000000001
4843434295,21.84,-0.01811651763570114,0.18535396656179778,-0.001064650843716541,-0.47088,0.0981,9.908100000000001
4848484800,21.84,0.05859070298944965,-0.07030186227033158,-0.001064650843716541,-1.39302,0.44145,9.42741
4853535305,21.84,0.04260348704118158,-0.09800023749948161,0.005323254218582705,-0.23544,0.43164,9.888480000000001
4858585810,21.84,0.03728023282259888,-0.1757721089683489,-0.001064650843716541,-0.87309,0.7749900000000001,9.85905
4863636315,21.84,0.011711159280881954,-0.24926792376983012,0.00958185759344887,0.40221,0.46107000000000004,10.212209999999999
4868686820,21.84,-0.020245819323134222,-0.18535396656179778,0.003193952531149623,-0.49050000000000005,0.9613800000000001,10.38879
4873737325,21.84,0.0170518667919846,-0.5017472533633298,0.00958185759344887,0.9221400000000001,0.8240400000000001,10.182780000000001
4878787830,21.84,-0.10012953918691468,-0.16831955306233315,0.00958185759344887,1.43226,0.74556,10.457460000000001
4883838335,21.84,-0.08096582400001695,-0.2396860661763813,0.004258603374866164,1.65789,0.46107000000000004,10.143540000000002
4888888840,21.84,-0.1555262896452147,0.13955652698946658,0.003193952531149623,1.70694,0.11772,9.78057
4893939345,21.84,-0.09161233243718235,0.05220279792715039,-0.008517206749732328,0.73575,0.02943,9.82962
4898989850,21.84,-0.11505210429146619,0.2535265271446963,0.0,1.6186500000000001,-0.72594,9.70209
4904040355,21.84,-0.0756251164889143,0.3632553772175798,-0.006387905062299246,-0.57879,-0.51012,9.81
4909090860,21.84,0.03728023282259888,0.05007349623971732,-0.004258603374866164,0.0981,-0.52974,9.59418
4914141365,21.84,0.05326744877086694,0.26631979056181476,-0.002129301687433082,-0.24525000000000002,-0.24525000000000002,9.6138
4919191870,21.84,0.15339698795778162,-0.003193952531149623,-0.005323254218582705,-0.7848,0.1962,9.59418
4924242375,21.84,0.15233233711406508,0.02663372438543347,-0.002129301687433082,0.20601000000000003,0.52974,9.5157
4929292880,21.84,0.1757721089683489,0.04366813788489812,-0.006387905062299246,-0.30411,0.9810000000000001,9.53532
4934343385,21.84,0.13208651779093086,0.03089232776029963,-0.001064650843716541,0.47088,0.89271,9.53532
4939393890,21.84,0.0756251164889143,0.20559978588493202,-0.006387905062299246,-0.12753,1.3832099999999998,9.89829
4944444395,21.84,0.07883652231258387,0.13634512116579703,-0.004258603374866164,-0.56898,1.6284600000000002,10.35936
4949494900,21.84,-0.02982767691658309,0.12995721610349775,-0.004258603374866164,-1.0791000000000002,0.9123300000000001,10.12392
4954545405,21.84,-0.1800307123432151,-0.024504422698000388,0.0,-0.56898,-0.12753,10.23183
4959595910,21.84,-0.15765559133264778,0.08096582400001695,-0.001064650843716541,-0.6867000000000001,0.009810000000000001,10.12392
4964646415,21.84,-0.01811651763570114,-0.10012953918691468,0.0,-0.9123300000000001,-0.04905,10.06506
4969696920,21.84,-0.11824605682261582,-0.005323254218582705,0.005323254218582705,-0.41202000000000005,-0.41202000000000005,10.17297
4974747425,21.84,-0.001064650843716541,-0.1832246648743647,0.001064650843716541,-1.05948,0.1962,9.751140000000001
4979797930,21.84,0.04260348704118158,-0.1704488547497662,0.007452555906015787,0.0,0.17658,10.05525
4984848435,21.84,0.01064650843716541,-0.2503325746135467,0.004258603374866164,-0.52974,0.46107000000000004,9.6138
4989898940,21.84,0.03408628029144926,-0.3110525792904294,0.011711159280881954,0.73575,0.50031,9.85905
4994949445,21.84,0.015987215948268057,-0.19493582415524666,0.002129301687433082,0.3924,0.8240400000000001,9.85905
4999999950,21.84,0.01918116847941768,-0.3227811918638313,0.004258603374866164,1.22625,0.63765,9.91791
5005050455,21.84,-0.060720004676882725,-0.09800023749948161,0.004258603374866164,1.2556800000000001,0.6867000000000001,10.143540000000002
5010100960,21.84,-0.02556907354171693,-0.18109536318693162,0.001064650843716541,1.44207,0.5591700000000001,9.97677
5015151465,21.84,-0.09054768159346581,0.06817256058289851,0.002129301687433082,1.71675,0.23544,9.80019
5020201970,21.84,-0.060720004676882725,0.06391395720803235,-0.008517206749732328,1.04967,0.21582,9.760950000000001
5025252475,21.84,-0.06497860805174888,0.2151816434783809,0.0,1.42245,-0.1962,9.65304
5030302980,21.84,-0.05113814708343386,0.27483699731154704,-0.00958185759344887,0.17658,-0.18639,9.67266
5035353485,21.84,0.007452555906015787,0.18216001403064813,-0.006387905062299246,0.52974,-0.31392000000000003,9.58437
5040403990,21.84,0.013840460968315033,0.3131818809778625,-0.00958185759344887,-0.0981,-0.17658,9.65304
5045454495,21.84,0.07456046564519776,0.20559978588493202,-0.006387905062299246,-0.20601000000000003,-0.17658,9.633420000000001
5050505000,21.84,0.07243116395776468,0.35473817046784745,-0.005323254218582705,-0.35316,-0.16677000000000003,9.54513
5055555505,21.84,0.15659094048893124,0.22263419938439669,-0.011711159280881954,-1.3537800000000002,0.6867000000000001,9.623610000000001
5060606010,21.84,0.18109536318693162,0.19493582415524666,-0.004258603374866164,-0.84366,2.0601,9.87867
5065656515,21.84,0.2151816434783809,0.14594443205176583,-0.003193952531149623,-2.95281,2.14839,10.56537
5070707020,21.84,-0.1097288500728835,-0.21944024685324706,0.005323254218582705,-1.5499800000000001,0.04905,10.143540000000002
5075757525,21.84,-0.26099653634323206,-0.16831955306233315,0.002129301687433082,-1.03005,-0.0981,9.56475
5080808030,21.84,0.007452555906015787,-0.32171654102011477,0.005323254218582705,-0.5591700000000001,0.45126,10.320120000000001
5085858535,21.84,-0.05539675045830002,-0.2705783939366809,0.01064650843716541,-0.38259000000000004,0.06867000000000001,10.074869999999999
5090909040,21.84,-0.08841837990603273,-0.4250400327381791,0.008517206749732328,0.039240000000000004,0.17658,10.01601
5095959545,21.84,0.002129301687433082,-0.3270397952386975,0.012775810124598492,0.90252,0.63765,10.163160000000001
5101010050,21.84,0.011711159280881954,-0.3312983986135636,0.007452555906015787,0.8829,0.59841,9.908100000000001
5106060555,21.84,-0.08628907821859966,-0.26312583803066514,0.00958185759344887,1.58922,0.32373,9.7119
5111111060,21.84,-0.05007349623971732,-0.19280652246781357,0.0,1.42245,0.60822,9.91791
5116161565,21.84,-0.07030186227033158,-0.12250466019748199,0.0,2.1287700000000003,0.07848000000000001,9.66285
5121212070,21.84,-0.12250466019748199,0.10119419003063122,0.0,1.65789,-0.05886,9.66285
5126262575,21.84,-0.03408628029144926,0.1374272253020335,-0.007452555906015787,1.54017,-0.11772,9.7119
5131313080,21.84,-0.02556907354171693,0.31211723013414594,-0.004258603374866164,1.2556800000000001,-0.30411,9.43722
5136363585,21.84,0.0170518667919846,0.3526088687804144,-0.00958185759344887,0.6278400000000001,-0.37278,9.64323
5141414090,21.84,0.049008845396000776,0.4133288734572971,-0.008517206749732328,0.26487,-0.47088,9.57456
5146464595,21.84,0.09267698328089889,0.40692351510247793,-0.014905111812031574,-0.52974,-0.30411,9.67266
5151515100,21.84,0.14275047952061623,0.3526088687804144,-0.008517206749732328,-0.6867000000000001,-0.20601000000000003,9.760950000000001
5156565605,21.84,0.18535396656179778,0.3302337477698471,-0.00958185759344887,-1.22625,1.26549,9.888480000000001
5161616110,21.84,0.3206518901763982,0.27377234646783055,-0.006387905062299246,-2.1974400000000003,2.7566100000000002,11.252070000000002
5166666615,21.84,0.1704488547497662,0.04260348704118158,0.0,-2.943,1.8737100000000002,9.760950000000001
5171717120,21.84,-0.2130523417909478,-0.2620611871869486,0.004258603374866164,-1.68732,0.009810000000000001,10.09449
5176767625,21.84,-0.19600047499896323,-0.2556558288321294,0.007452555906015787,-0.7848,0.34335000000000004,9.57456
5181818130,21.84,0.022375121010567305,-0.3312983986135636,0.007452555906015787,-0.65727,0.6278400000000001,9.86886
5186868635,21.84,-0.14487978120804929,-0.38137189485328093,0.01064650843716541,-0.16677000000000003,-0.17658,10.006200000000002
5191919140,21.84,-0.1374272253020335,-0.4186521276758798,0.007452555906015787,0.30411,0.16677000000000003,10.17297
5196969645,21.84,0.00958185759344887,-0.37390188565474514,0.01064650843716541,1.1281500000000002,0.3924,10.163160000000001
5202020150,21.84,-0.06497860805174888,-0.26844909224924784,0.003193952531149623,1.21644,0.21582,10.143540000000002
5207070655,21.84,-0.06604325889546543,-0.2162462943220974,0.006387905062299246,1.7756100000000001,0.22563,9.937529999999999
5212121160,21.84,-0.033021629447732716,-0.021310470166850764,0.0,1.6382700000000001,0.28449,9.73152
5217171665,21.84,-0.04366813788489812,-0.0,-0.003193952531149623,1.44207,0.0,9.633420000000001
5222222170,21.84,-0.05752605214573309,0.15446163880149816,-0.005323254218582705,1.6480800000000002,-0.13734000000000002,9.44703
5227272675,21.84,-0.004258603374866164,0.27909560068641326,-0.007452555906015787,1.04967,-0.20601000000000003,9.56475
5232323180,21.84,0.01064650843716541,0.34088025620701246,-0.006387905062299246,0.60822,-0.43164,9.59418
5237373685,21.84,0.054332099614583476,0.37070793312359557,-0.012775810124598492,0.04905,-0.31392000000000003,9.73152
5242424190,21.84,0.13102186694721432,0.3344923511447132,-0.00958185759344887,-0.37278,-0.06867000000000001,9.81
5247474695,21.84,0.15339698795778162,0.28761280743614553,-0.007452555906015787,-0.7848,0.17658,9.908100000000001
5252525200,21.84,0.17683675981206545,0.19067722078038052,-0.00958185759344887,-0.9221400000000001,1.04967,9.888480000000001
5257575705,21.84,0.22263419938439669,0.17896606149949854,-0.004258603374866164,-1.43226,2.32497,10.457460000000001
5262626210,21.84,0.17683675981206545,0.007452555906015787,0.0,-2.11896,1.8246600000000002,10.1043
5267676715,21.84,-0.14381513036433274,-0.2151816434783809,0.001064650843716541,-1.10853,0.38259000000000004,9.97677
5272727220,21.84,-0.1629788455512305,-0.2236988502281132,0.003193952531149623,-0.35316,0.60822,9.68247
5277777725,21.84,0.001064650843716541,-0.22263419938439669,0.006387905062299246,-0.17658,0.79461,9.97677
5282828230,21.84,-0.14594443205176583,-0.2524618763009797,0.007452555906015787,-0.019620000000000002,0.08829,10.1043
5287878735,21.84,-0.16404349639494703,-0.2641904888743817,0.004258603374866164,0.38259000000000004,0.12753,10.074869999999999
5292929240,21.84,-0.06178465552059926,-0.20027653166634932,0.006387905062299246,0.70632,0.18639,10.006200000000002
5297979745,21.84,-0.10225884087434776,-0.16404349639494703,0.005323254218582705,0.7651800000000001,-0.10791,9.937529999999999
5303030250,21.84,-0.08096582400001695,-0.11398745344774965,0.003193952531149623,1.03986,-0.05886,9.68247
5308080755,21.84,-0.012775810124598492,0.002129301687433082,-0.001064650843716541,1.05948,-0.039240000000000004,9.66285
5313131260,21.84,-0.02556907354171693,0.06604325889546543,-0.001064650843716541,0.79461,-0.27468000000000004,9.623610000000001
5318181765,21.84,0.001064650843716541,0.10545279340549739,-0.003193952531149623,0.6768900000000001,-0.18639,9.65304
5323232270,21.84,0.06604325889546543,0.1480737337391989,-0.004258603374866164,0.47088,-0.02943,9.74133
5328282775,21.84,0.07883652231258387,0.16084954386379738,-0.006387905062299246,0.34335000000000004,0.02943,9.73152
5333333280,21.84,0.10332349171806432,0.18535396656179778,-0.005323254218582705,0.18639,0.24525000000000002,9.79038
5338383785,21.84,0.1278279144160647,0.18854791909294744,-0.005323254218582705,-0.13734000000000002,0.47088,9.82962
5343434290,21.84,0.11505210429146619,0.14700908289548237,-0.006387905062299246,-0.28449,0.6180300000000001,9.87867
5348484795,21.84,0.10759954838545042,0.10545279340549739,-0.002129301687433082,-0.40221,0.7848,9.97677
5353535300,21.84,0.09267698328089889,0.04794419455228423,-0.002129301687433082,-0.41202000000000005,1.06929,10.045440000000001
5358585805,21.84,0.06391395720803235,0.01918116847941768,-0.001064650843716541,-0.38259000000000004,1.1870100000000001,10.23183
5363636310,21.84,-0.002129301687433082,-0.02982767691658309,0.001064650843716541,-0.46107000000000004,0.85347,10.025820000000001
5368686815,21.84,-0.08096582400001695,-0.0756251164889143,0.001064650843716541,-0.13734000000000002,0.6768900000000001,10.13373
5373737320,21.84,-0.05859070298944965,-0.05859070298944965,0.0,-0.15696000000000002,0.72594,9.99639
5378787825,21.84,-0.0852244273748831,-0.09906488834319814,0.0,-0.05886,0.41202000000000005,9.89829
5383838330,21.84,-0.13634512116579703,-0.0756251164889143,0.002129301687433082,0.08829,0.13734000000000002,9.908100000000001
5388888835,21.84,-0.09800023749948161,-0.06604325889546543,0.001064650843716541,0.019620000000000002,0.0981,9.78057
5393939340,21.84,-0.08841837990603273,-0.05646140130201656,0.002129301687433082,0.0981,-0.18639,9.760950000000001
5398989845,21.84,-0.07670722062515077,-0.04153883619746504,0.002129301687433082,0.07848000000000001,-0.26487,9.79038
5404040350,21.84,-0.023439771854283843,-0.02769837522915001,-0.001064650843716541,0.17658,-0.15696000000000002,9.751140000000001
5409090855,21.84,0.00958185759344887,0.003193952531149623,0.0,0.1962,-0.15696000000000002,9.760950000000001
5414141360,21.84,0.03621558197888234,0.022375121010567305,0.0,0.15696000000000002,-0.019620000000000002,9.7119
5419191865,21.84,0.07030186227033158,0.039409534510031964,-0.001064650843716541,0.04905,0.20601000000000003,9.760950000000001
5424242370,21.84,0.09480628496833199,0.023439771854283843,0.0,0.04905,0.40221,9.78057
5429292875,21.84,0.09480628496833199,0.015987215948268057,-0.001064650843716541,0.02943,0.6180300000000001,9.84924
5434343380,21.84,0.08841837990603273,-0.013840460968315033,0.0,0.0981,0.7749900000000001,9.94734
5439393885,21.84,0.06178465552059926,-0.014905111812031574,0.0,0.1962,0.8240400000000001,10.03563
5444444390,21.84,0.02556907354171693,-0.022375121010567305,-0.002129301687433082,0.22563,0.84366,10.1043
5449494895,21.84,-0.00958185759344887,-0.023439771854283843,0.0,0.34335000000000004,0.75537,10.05525
5454545400,21.84,-0.0404741853537485,-0.011711159280881954,-0.001064650843716541,0.2943,0.6670800000000001,10.05525
5459595905,21.84,-0.05539675045830002,-0.00958185759344887,0.0,0.31392000000000003,0.5591700000000001,9.94734
5464646410,21.84,-0.07136651311404815,0.01918116847941768,-0.002129301687433082,0.31392000000000003,0.35316,9.888480000000001
5469696915,21.84,-0.08203047484373349,0.0404741853537485,0.0,0.17658,0.11772,9.83943
5474747420,21.84,-0.08415977653116657,0.05220279792715039,0.0,0.05886,-0.06867000000000001,9.79038
5479797925,21.84,-0.05326744877086694,0.049008845396000776,-0.001064650843716541,-0.06867000000000001,-0.13734000000000002,9.819809999999999
5484848430,21.84,-0.024504422698000388,0.04260348704118158,-0.003193952531149623,-0.14715,-0.17658,9.760950000000001
5489898935,21.84,0.007452555906015787,0.04260348704118158,0.0,-0.10791,-0.08829,9.770760000000001
5494949440,21.84,0.0404741853537485,0.06710790973918197,-0.001064650843716541,-0.18639,-0.019620000000000002,9.70209
5499999945,21.84,0.0756251164889143,0.05007349623971732,-0.002129301687433082,-0.34335000000000004,0.20601000000000003,9.66285
5505050450,21.84,0.09374163412461543,0.03089232776029963,0.0,-0.27468000000000004,0.41202000000000005,9.770760000000001
5510100955,21.84,0.09374163412461543,0.003193952531149623,0.0,-0.38259000000000004,0.64746,9.87867
5515151460,21.84,0.07883652231258387,-0.04260348704118158,0.0,-0.15696000000000002,0.74556,9.92772
5520201965,21.84,0.044732788728614664,-0.05326744877086694,0.002129301687433082,-0.14715,0.8240400000000001,10.03563
5525252470,21.84,0.023439771854283843,-0.10119419003063122,0.0,0.019620000000000002,0.85347,10.15335
5530302975,21.84,-0.006387905062299246,-0.10119419003063122,0.003193952531149623,0.21582,0.86328,10.12392
5535353480,21.84,-0.03834488366631542,-0.10759954838545042,0.002129301687433082,0.2943,0.80442,10.08468
5540403985,21.84,-0.06817256058289851,-0.09906488834319814,0.0,0.45126,0.64746,10.006200000000002
5545454490,21.84,-0.09693558665576507,-0.07349581480148122,0.001064650843716541,0.50031,0.40221,9.95715
5550504995,21.84,-0.10866419922916695,-0.054332099614583476,0.001064650843716541,0.52974,0.18639,9.86886
5555555500,21.84,-0.11079350091660004,-0.028763026072866547,-0.001064650843716541,0.50031,-0.039240000000000004,9.819809999999999
5560606005,21.84,-0.09267698328089889,-0.002129301687433082,-0.002129301687433082,0.52974,-0.20601000000000003,9.81
5565656510,21.84,-0.06284930636431581,0.054332099614583476,-0.002129301687433082,0.49050000000000005,-0.32373,9.72171
5570707015,21.84,-0.0170518667919846,0.10119419003063122,-0.003193952531149623,0.34335000000000004,-0.32373,9.70209
5575757520,21.84,0.023439771854283843,0.1480737337391989,-0.002129301687433082,0.15696000000000002,-0.28449,9.68247
5580808025,21.84,0.06923721142661506,0.150203035426632,-0.003193952531149623,-0.15696000000000002,-0.05886,9.64323
5585858530,21.84,0.10653489754173388,0.12995721610349775,-0.002129301687433082,-0.24525000000000002,0.11772,9.66285
5590909035,21.84,0.1288925652597812,0.10332349171806432,-0.004258603374866164,-0.41202000000000005,0.40221,9.770760000000001
5595959540,21.84,0.13208651779093086,0.06817256058289851,-0.003193952531149623,-0.33354000000000006,0.6278400000000001,9.85905
5601010045,21.84,0.11931070766633237,0.05007349623971732,0.0,-0.42183,0.90252,9.97677
5606060550,21.84,0.09587093581204853,-0.007452555906015787,0.0,-0.43164,1.29492,10.12392
5611111055,21.84,0.06923721142661506,-0.054332099614583476,0.001064650843716541,-0.51993,1.1870100000000001,10.32993
5616161560,21.84,-0.0404741853537485,-0.14062117783318315,0.0,-0.05886,0.89271,9.95715
5621212065,21.84,-0.06284930636431581,-0.10012953918691468,0.003193952531149623,0.18639,0.94176,10.074869999999999
5626262570,21.84,-0.07883652231258387,-0.10545279340549739,0.003193952531149623,0.14715,0.65727,10.05525
5631313075,21.84,-0.15659094048893124,-0.09374163412461543,0.004258603374866164,0.2943,0.22563,9.98658
5636363580,21.84,-0.13102186694721432,-0.0852244273748831,0.001064650843716541,0.22563,0.13734000000000002,9.89829
5641414085,21.84,-0.11079350091660004,-0.06817256058289851,0.001064650843716541,0.36297,-0.11772,9.95715
5646464590,21.84,-0.11931070766633237,-0.033021629447732716,0.002129301687433082,0.34335000000000004,-0.33354000000000006,9.79038
5651515095,21.84,-0.06710790973918197,0.001064650843716541,0.0,0.41202000000000005,-0.37278,9.72171
5656565600,21.84,-0.022375121010567305,0.06497860805174888,0.0,0.23544,-0.3924,9.67266
5661616105,21.84,0.024504422698000388,0.05859070298944965,-0.002129301687433082,0.08829,-0.26487,9.60399
5666666610,21.84,0.07030186227033158,0.07670722062515077,-0.002129301687433082,0.07848000000000001,-0.019620000000000002,9.59418
5671717115,21.84,0.1097288500728835,0.07243116395776468,-0.004258603374866164,-0.04905,0.20601000000000003,9.68247
5676767620,21.84,0.12250466019748199,0.06391395720803235,-0.002129301687433082,-0.05886,0.41202000000000005,9.770760000000001
5681818125,21.84,0.12569861272863161,0.04581489286485115,-0.003193952531149623,-0.11772,0.6867000000000001,9.91791
5686868630,21.84,0.11398745344774965,0.013840460968315033,0.0,-0.0981,0.86328,9.99639
5691919135,21.84,0.08096582400001695,-0.013840460968315033,0.0,-0.05886,1.00062,10.1043
5696969640,21.84,0.046879543708567686,-0.049008845396000776,0.0,0.08829,1.06929,10.12392
5702020145,21.84,0.001064650843716541,-0.044732788728614664,0.0,0.21582,1.04967,10.1043
5707070650,21.84,-0.044732788728614664,-0.04366813788489812,0.001064650843716541,0.24525000000000002,0.85347,10.09449
5712121155,21.84,-0.08735372906231618,-0.03621558197888234,0.0,0.26487,0.63765,10.01601
5717171660,21.84,-0.1171814059788993,-0.03089232776029963,0.0,0.23544,0.36297,9.98658
5722222165,21.84,-0.1278279144160647,-0.028763026072866547,0.0,0.25506,0.06867000000000001,9.91791
5727272670,21.84,-0.12037535851004891,-0.005323254218582705,0.0,0.21582,-0.13734000000000002,9.87867
5732323175,21.84,-0.09054768159346581,0.001064650843716541,0.001064650843716541,0.1962,-0.28449,9.80019
5737373680,21.84,-0.05859070298944965,0.0404741853537485,0.0,0.13734000000000002,-0.33354000000000006,9.73152
5742424185,21.84,-0.006387905062299246,0.05752605214573309,-0.002129301687433082,0.039240000000000004,-0.30411,9.67266
5747474690,21.84,0.03515093113516579,0.07456046564519776,-0.002129301687433082,-0.04905,-0.15696000000000002,9.6138
5752525195,21.84,0.07136651311404815,0.06817256058289851,-0.003193952531149623,-0.17658,0.009810000000000001,9.67266
5757575700,21.84,0.10012953918691468,0.06178465552059926,-0.002129301687433082,-0.1962,0.21582,9.74133
5762626205,21.84,0.12037535851004891,0.0404741853537485,-0.002129301687433082,-0.2943,0.49050000000000005,9.81
5767676710,21.84,0.12037535851004891,0.013840460968315033,0.0,-0.20601000000000003,0.71613,9.95715
5772727215,21.84,0.10119419003063122,-0.007452555906015787,-0.001064650843716541,-0.22563,0.9221400000000001,10.05525
5777777720,21.84,0.0756251164889143,-0.04581489286485115,-0.001064650843716541,-0.07848000000000001,1.00062,10.12392
5782828225,21.84,0.02982767691658309,-0.06710790973918197,0.0,-0.009810000000000001,1.0791000000000002,10.11411
5787878730,21.84,-0.0170518667919846,-0.08735372906231618,0.002129301687433082,0.21582,1.03005,10.1043
5792929235,21.84,-0.07136651311404815,-0.06391395720803235,0.0,0.30411,0.7848,10.03563
5797979740,21.84,-0.10866419922916695,-0.05326744877086694,0.003193952531149623,0.28449,0.51012,10.006200000000002
5803030245,21.84,-0.12569861272863161,-0.03728023282259888,0.001064650843716541,0.32373,0.21582,9.95715
5808080750,21.84,-0.12356931104119852,-0.024504422698000388,0.0,0.24525000000000002,0.009810000000000001,9.91791
5813131255,21.84,-0.10866419922916695,-0.012775810124598492,0.001064650843716541,0.28449,-0.18639,9.84924
5818181760,21.84,-0.0852244273748831,0.020245819323134222,-0.001064650843716541,0.21582,-0.32373,9.79038
5823232265,21.84,-0.04366813788489812,0.03834488366631542,0.0,0.0981,-0.38259000000000004,9.70209
5828282770,21.84,0.003193952531149623,0.054332099614583476,-0.002129301687433082,0.0,-0.25506,9.633420000000001
5833333275,21.84,0.05539675045830002,0.05965535383316618,-0.003193952531149623,0.0,-0.05886,9.59418
5838383780,21.84,0.08841837990603273,0.07349581480148122,-0.002129301687433082,-0.04905,0.11772,9.64323
5843434285,21.84,0.1097288500728835,0.06817256058289851,-0.005323254218582705,-0.14715,0.31392000000000003,9.73152
5848484790,21.84,0.12037535851004891,0.05007349623971732,-0.002129301687433082,-0.21582,0.5591700000000001,9.85905
5853535295,21.84,0.11824605682261582,0.01064650843716541,-0.002129301687433082,-0.18639,0.8142300000000001,9.96696
5858585800,21.84,0.09054768159346581,-0.00958185759344887,-0.001064650843716541,-0.0981,0.95157,10.06506
5863636305,21.84,0.05752605214573309,-0.04366813788489812,0.0,-0.039240000000000004,1.03986,10.1043
5868686810,21.84,0.0170518667919846,-0.06710790973918197,0.001064650843716541,0.10791,1.03005,10.11411
5873737315,21.84,-0.02769837522915001,-0.07777187146886733,0.002129301687433082,0.11772,0.9810000000000001,10.06506
5878787820,21.84,-0.06710790973918197,-0.09374163412461543,0.0,0.31392000000000003,0.7749900000000001,10.05525
5883838325,21.84,-0.10866419922916695,-0.07456046564519776,0.001064650843716541,0.34335000000000004,0.48069000000000006,10.01601
5888888830,21.84,-0.1278279144160647,-0.06817256058289851,0.0,0.37278,0.22563,9.95715
5893939335,21.84,-0.13102186694721432,-0.039409534510031964,-0.001064650843716541,0.41202000000000005,-0.019620000000000002,9.89829
5898989840,21.84,-0.11185815176031658,-0.01811651763570114,0.0,0.37278,-0.20601000000000003,9.83943
5904040345,21.84,-0.08096582400001695,0.021310470166850764,0.001064650843716541,0.35316,-0.32373,9.751140000000001
5909090850,21.84,-0.033021629447732716,0.03834488366631542,-0.001064650843716541,0.25506,-0.33354000000000006,9.623610000000001
5914141355,21.84,0.003193952531149623,0.08203047484373349,0.0,0.24525000000000002,-0.33354000000000006,9.633420000000001
5919191860,21.84,0.05007349623971732,0.11398745344774965,-0.005323254218582705,0.019620000000000002,-0.15696000000000002,9.64323
5924242365,21.84,0.09161233243718235,0.12356931104119852,-0.003193952531149623,-0.02943,0.009810000000000001,9.66285
5929292870,21.84,0.11079350091660004,0.13208651779093086,-0.004258603374866164,-0.26487,0.21582,9.73152
5934343375,21.84,0.13208651779093086,0.09374163412461543,-0.003193952531149623,-0.40221,0.49050000000000005,9.85905
5939393880,21.84,0.1416858286768997,0.06284930636431581,-0.002129301687433082,-0.38259000000000004,0.80442,9.937529999999999
5944444385,21.84,0.12250466019748199,0.015987215948268057,0.0,-0.37278,1.1183400000000001,10.03563
5949494890,21.84,0.09161233243718235,-0.002129301687433082,-0.001064650843716541,-0.37278,1.3341600000000002,10.280880000000002
5954545395,21.84,0.02769837522915001,-0.06391395720803235,0.001064650843716541,-0.40221,1.02024,10.006200000000002
5959595900,21.84,-0.0756251164889143,-0.12037535851004891,0.002129301687433082,0.0,0.8338500000000001,10.074869999999999
5964646405,21.84,-0.05646140130201656,-0.10438814256178083,0.001064650843716541,0.039240000000000004,0.8829,10.045440000000001
5969696910,21.84,-0.11398745344774965,-0.12356931104119852,0.002129301687433082,0.22563,0.42183,9.937529999999999
5974747415,21.84,-0.1629788455512305,-0.09587093581204853,0.003193952531149623,0.32373,0.16677000000000003,10.01601
5979797920,21.84,-0.11824605682261582,-0.08309512568745003,0.003193952531149623,0.31392000000000003,0.02943,9.91791
5984848425,21.84,-0.11292280260403312,-0.060720004676882725,0.004258603374866164,0.38259000000000004,-0.20601000000000003,9.84924
5989898930,21.84,-0.09587093581204853,-0.04260348704118158,0.0,0.34335000000000004,-0.32373,9.78057
5994949435,21.84,-0.04153883619746504,-0.01811651763570114,0.001064650843716541,0.41202000000000005,-0.30411,9.65304
5999999940,21.84,-0.004258603374866164,0.020245819323134222,-0.002129301687433082,0.40221,-0.27468000000000004,9.58437
6005050445,21.84,0.03408628029144926,0.06178465552059926,-0.002129301687433082,0.34335000000000004,-0.15696000000000002,9.623610000000001
6010100950,21.84,0.08096582400001695,0.08203047484373349,-0.002129301687433082,0.20601000000000003,0.07848000000000001,9.64323
6015151455,21.84,0.10438814256178083,0.08948303074974927,-0.002129301687433082,0.12753,0.22563,9.72171
6020201960,21.84,0.11185815176031658,0.08948303074974927,-0.004258603374866164,0.0,0.44145,9.85905
6025252465,21.84,0.12250466019748199,0.06391395720803235,-0.002129301687433082,-0.009810000000000001,0.6768900000000001,9.937529999999999
6030302970,21.84,0.10438814256178083,0.05646140130201656,-0.002129301687433082,-0.02943,0.84366,10.025820000000001
6035353475,21.84,0.07243116395776468,0.023439771854283843,-0.001064650843716541,-0.04905,0.9319500000000001,10.05525
6040403980,21.84,0.03621558197888234,0.007452555906015787,-0.001064650843716541,-0.019620000000000002,0.9810000000000001,10.06506
6045454485,21.84,0.005323254218582705,-0.02769837522915001,0.0,-0.02943,0.94176,10.05525
6050504990,21.84,-0.033021629447732716,-0.04153883619746504,0.0,0.10791,0.8240400000000001,10.11411
6055555495,21.84,-0.07777187146886733,-0.02982767691658309,0.0,0.14715,0.57879,9.99639
6060606000,21.84,-0.10866419922916695,-0.014905111812031574,0.0,0.10791,0.31392000000000003,9.97677
6065656505,21.84,-0.11292280260403312,-0.007452555906015787,0.002129301687433082,0.07848000000000001,0.05886,9.92772
6070707010,21.84,-0.10012953918691468,0.003193952531149623,0.0,0.009810000000000001,-0.08829,9.86886
6075757515,21.84,-0.07243116395776468,0.006387905062299246,0.001064650843716541,0.019620000000000002,-0.18639,9.819809999999999
6080808020,21.84,-0.04581489286485115,0.03089232776029963,0.0,-0.039240000000000004,-0.24525000000000002,9.74133
6085858525,21.84,-0.003193952531149623,0.03089232776029963,-0.002129301687433082,-0.16677000000000003,-0.20601000000000003,9.67266
6090909030,21.84,0.03515093113516579,0.02556907354171693,-0.001064650843716541,-0.12753,-0.04905,9.70209
6095959535,21.84,0.06923721142661506,0.024504422698000388,-0.001064650843716541,-0.15696000000000002,0.13734000000000002,9.69228
6101010040,21.84,0.08841837990603273,0.008517206749732328,-0.002129301687433082,-0.14715,0.35316,9.751140000000001
6106060545,21.84,0.08841837990603273,0.005323254218582705,-0.003193952531149623,-0.07848000000000001,0.50031,9.84924
6111111050,21.84,0.08948303074974927,-0.007452555906015787,-0.001064650843716541,-0.11772,0.73575,9.89829
6116161555,21.84,0.07883652231258387,-0.03728023282259888,0.0,-0.06867000000000001,0.8829,10.006200000000002
6121212060,21.84,0.04581489286485115,-0.046879543708567686,0.001064650843716541,0.0981,0.9319500000000001,10.06506
6126262565,21.84,0.001064650843716541,-0.046879543708567686,0.001064650843716541,0.12753,0.85347,10.06506
6131313070,21.84,-0.031956978604016174,-0.06923721142661506,0.003193952531149623,0.15696000000000002,0.7651800000000001,10.08468
6136363575,21.84,-0.05859070298944965,-0.0852244273748831,0.001064650843716541,0.28449,0.6670800000000001,10.025820000000001
6141414080,21.84,-0.0852244273748831,-0.0756251164889143,0.0,0.42183,0.47088,9.99639
6146464585,21.84,-0.10438814256178083,-0.046879543708567686,0.001064650843716541,0.44145,0.22563,9.94734
6151515090,21.84,-0.10332349171806432,-0.02982767691658309,0.002129301687433082,0.36297,0.009810000000000001,9.87867
6156565595,21.84,-0.08415977653116657,-0.0170518667919846,0.0,0.37278,-0.11772,9.82962
6161616100,21.84,-0.05539675045830002,0.0,0.001064650843716541,0.37278,-0.13734000000000002,9.760950000000001
6166666605,21.84,-0.023439771854283843,0.033021629447732716,-0.002129301687433082,0.35316,-0.17658,9.69228
6171717110,21.84,0.003193952531149623,0.060720004676882725,-0.001064650843716541,0.34335000000000004,-0.18639,9.65304
6176767615,21.84,0.03515093113516579,0.10653489754173388,-0.003193952531149623,0.16677000000000003,-0.10791,9.69228
6181818120,21.84,0.07670722062515077,0.11505210429146619,-0.004258603374866164,-0.02943,0.07848000000000001,9.73152
6186868625,21.84,0.10119419003063122,0.10653489754173388,-0.005323254218582705,-0.07848000000000001,0.27468000000000004,9.81
6191919130,21.84,0.10866419922916695,0.10653489754173388,-0.002129301687433082,-0.15696000000000002,0.45126,9.84924
6196969635,21.84,0.10225884087434776,0.09693558665576507,-0.004258603374866164,-0.30411,0.60822,9.92772
6202020140,21.84,0.09161233243718235,0.05539675045830002,-0.001064650843716541,-0.45126,0.7848,10.01601
6207070645,21.84,0.07456046564519776,-0.002129301687433082,-0.001064650843716541,-0.33354000000000006,0.9221400000000001,10.025820000000001
6212121150,21.84,0.039409534510031964,-0.02663372438543347,0.0,-0.22563,0.9613800000000001,10.045440000000001
6217171655,21.84,-0.003193952531149623,-0.05752605214573309,0.001064650843716541,-0.20601000000000003,0.9221400000000001,10.05525
6222222160,21.84,-0.044732788728614664,-0.07777187146886733,0.0,-0.07848000000000001,0.8142300000000001,10.06506
6227272665,21.84,-0.07136651311404815,-0.09267698328089889,0.001064650843716541,0.039240000000000004,0.63765,9.97677
6232323170,21.84,-0.10225884087434776,-0.0852244273748831,0.002129301687433082,0.13734000000000002,0.41202000000000005,9.99639
6237373675,21.84,-0.11611675513518273,-0.06923721142661506,0.002129301687433082,0.15696000000000002,0.17658,9.94734
6242424180,21.84,-0.11398745344774965,-0.05752605214573309,0.003193952531149623,0.17658,-0.02943,9.888480000000001
6247474685,21.84,-0.09374163412461543,-0.04581489286485115,0.001064650843716541,0.17658,-0.16677000000000003,9.82962
6252525190,21.84,-0.05965535383316618,-0.03728023282259888,0.0,0.17658,-0.1962,9.74133
6257575695,21.84,-0.021310470166850764,-0.024504422698000388,0.0,0.23544,-0.16677000000000003,9.7119
6262626200,21.84,0.008517206749732328,0.005323254218582705,0.0,0.28449,-0.13734000000000002,9.66285
6267676705,21.84,0.03621558197888234,0.0404741853537485,0.0,0.18639,-0.009810000000000001,9.70209
6272727210,21.84,0.06923721142661506,0.03834488366631542,-0.001064650843716541,0.10791,0.17658,9.74133
6277777715,21.84,0.09161233243718235,0.03834488366631542,-0.002129301687433082,0.14715,0.3924,9.80019
6282828220,21.84,0.09161233243718235,0.0404741853537485,-0.004258603374866164,0.0981,0.5493600000000001,9.888480000000001
6287878725,21.84,0.08415977653116657,0.03515093113516579,0.0,0.04905,0.69651,9.94734
6292929230,21.84,0.06604325889546543,0.002129301687433082,0.0,0.02943,0.8142300000000001,10.01601
6297979735,21.84,0.04581489286485115,-0.01811651763570114,-0.002129301687433082,0.18639,0.86328,10.045440000000001
6303030240,21.84,0.00958185759344887,-0.014905111812031574,0.0,0.16677000000000003,0.87309,10.05525
6308080745,21.84,-0.023439771854283843,-0.03408628029144926,0.0,0.20601000000000003,0.72594,10.03563
6313131250,21.84,-0.05965535383316618,-0.022375121010567305,0.0,0.27468000000000004,0.5591700000000001,10.006200000000002
6318181755,21.84,-0.07349581480148122,-0.0170518667919846,0.0,0.23544,0.40221,9.97677
6323232260,21.84,-0.08309512568745003,0.011711159280881954,0.0,0.28449,0.20601000000000003,9.937529999999999
6328282765,21.84,-0.0852244273748831,0.03515093113516579,0.0,0.14715,-0.009810000000000001,9.86886
6333333270,21.84,-0.07456046564519776,0.054332099614583476,0.0,0.07848000000000001,-0.16677000000000003,9.79038
6338383775,21.84,-0.03515093113516579,0.060720004676882725,-0.002129301687433082,-0.12753,-0.17658,9.79038
6343434280,21.84,0.004258603374866164,0.04794419455228423,-0.002129301687433082,-0.15696000000000002,-0.08829,9.73152
6348484785,21.84,0.033021629447732716,0.05326744877086694,-0.002129301687433082,-0.13734000000000002,-0.019620000000000002,9.66285
6353535290,21.84,0.05859070298944965,0.060720004676882725,-0.001064650843716541,-0.1962,0.10791,9.74133
6358585795,21.84,0.07883652231258387,0.05646140130201656,-0.004258603374866164,-0.35316,0.2943,9.78057
6363636300,21.84,0.09800023749948161,0.007452555906015787,-0.003193952531149623,-0.36297,0.5591700000000001,9.819809999999999
6368686805,21.84,0.09161233243718235,-0.003193952531149623,0.0,-0.1962,0.72594,9.888480000000001
6373737310,21.84,0.06923721142661506,-0.01811651763570114,0.0,-0.16677000000000003,0.8142300000000001,9.97677
6378787815,21.84,0.03728023282259888,-0.04260348704118158,0.0,-0.15696000000000002,0.84366,10.03563
6383838320,21.84,0.01064650843716541,-0.0756251164889143,0.002129301687433082,-0.07848000000000001,0.9221400000000001,10.03563
6388888825,21.84,-0.0170518667919846,-0.09161233243718235,0.001064650843716541,0.12753,0.8142300000000001,10.06506
6393939330,21.84,-0.05539675045830002,-0.08841837990603273,0.001064650843716541,0.12753,0.65727,10.01601
6398989835,21.84,-0.08948303074974927,-0.1097288500728835,0.002129301687433082,0.26487,0.51012,10.006200000000002
6404040340,21.84,-0.10545279340549739,-0.09267698328089889,0.002129301687433082,0.41202000000000005,0.27468000000000004,9.98658
6409090845,21.84,-0.10119419003063122,-0.07456046564519776,0.001064650843716541,0.43164,0.13734000000000002,9.89829
6414141350,21.84,-0.09267698328089889,-0.05752605214573309,0.001064650843716541,0.48069000000000006,-0.02943,9.819809999999999
6419191855,21.84,-0.07883652231258387,-0.033021629447732716,-0.001064650843716541,0.48069000000000006,-0.15696000000000002,9.79038
6424242360,21.84,-0.05007349623971732,-0.00958185759344887,0.0,0.49050000000000005,-0.1962,9.72171
6429292865,21.84,-0.005323254218582705,0.02982767691658309,-0.001064650843716541,0.46107000000000004,-0.12753,9.70209
6434343370,21.84,0.02982767691658309,0.054332099614583476,-0.003193952531149623,0.44145,-0.05886,9.69228
6439393875,21.84,0.0404741853537485,0.11505210429146619,-0.002129301687433082,0.40221,-0.04905,9.69228
6444444380,21.84,0.06391395720803235,0.150203035426632,-0.005323254218582705,0.11772,0.07848000000000001,9.80019
6449494885,21.84,0.09693558665576507,0.15339698795778162,-0.003193952531149623,-0.07848000000000001,0.28449,9.83943
6454545390,21.84,0.11505210429146619,0.12676326357234816,-0.005323254218582705,-0.24525000000000002,0.51993,9.87867
6459595895,21.84,0.11185815176031658,0.11611675513518273,-0.003193952531149623,-0.21582,0.65727,9.95715
6464646400,21.84,0.08841837990603273,0.08735372906231618,-0.005323254218582705,-0.49050000000000005,0.7848,9.95715
6469696905,21.84,0.06923721142661506,0.012775810124598492,0.0,-0.45126,1.02024,10.05525
6474747410,21.84,0.05113814708343386,-0.021310470166850764,0.0,-0.46107000000000004,1.03005,10.27107
6479797915,21.84,-0.01918116847941768,-0.08841837990603273,-0.001064650843716541,-0.20601000000000003,0.8240400000000001,9.84924
6484848420,21.84,-0.07030186227033158,-0.07243116395776468,0.002129301687433082,-0.02943,0.74556,10.074869999999999
6489898925,21.84,-0.07136651311404815,-0.10012953918691468,0.003193952531149623,-0.07848000000000001,0.56898,10.01601
6494949430,21.84,-0.11079350091660004,-0.09267698328089889,0.003193952531149623,0.15696000000000002,0.28449,9.86886
6499999935,21.84,-0.10438814256178083,-0.08096582400001695,0.001064650843716541,0.06867000000000001,0.20601000000000003,9.95715
6505050440,21.84,-0.09906488834319814,-0.07670722062515077,0.001064650843716541,0.24525000000000002,-0.02943,9.86886
6510100945,21.84,-0.10866419922916695,-0.04366813788489812,0.002129301687433082,0.22563,-0.24525000000000002,9.80019
6515151450,21.84,-0.049008845396000776,-0.02663372438543347,0.0,0.27468000000000004,-0.1962,9.78057
6520201955,21.84,-0.00958185759344887,0.014905111812031574,0.0,0.21582,-0.17658,9.73152
6525252460,21.84,0.01064650843716541,0.028763026072866547,0.0,0.20601000000000003,-0.1962,9.70209
6530302965,21.84,0.04581489286485115,0.05326744877086694,-0.003193952531149623,0.08829,0.019620000000000002,9.72171
6535353470,21.84,0.08948303074974927,0.03728023282259888,-0.001064650843716541,-0.019620000000000002,0.21582,9.751140000000001
6540403975,21.84,0.10332349171806432,0.012775810124598492,0.0,-0.019620000000000002,0.50031,9.81
6545454480,21.84,0.10332349171806432,-0.005323254218582705,-0.003193952531149623,0.08829,0.69651,9.888480000000001
6550504985,21.84,0.07777187146886733,-0.00958185759344887,0.002129301687433082,0.15696000000000002,0.79461,9.95715
6555555490,21.84,0.04581489286485115,-0.03089232776029963,0.0,0.14715,0.84366,9.99639
6560605995,21.84,0.028763026072866547,-0.05113814708343386,-0.001064650843716541,0.30411,0.9319500000000001,10.06506
6565656500,21.84,-0.004258603374866164,-0.044732788728614664,0.0,0.41202000000000005,0.87309,10.074869999999999
6570707005,21.84,-0.05646140130201656,-0.023439771854283843,0.0,0.50031,0.64746,10.05525
6575757510,21.84,-0.08735372906231618,0.001064650843716541,0.0,0.40221,0.42183,9.98658
6580808015,21.84,-0.08841837990603273,0.02556907354171693,0.0,0.33354000000000006,0.25506,10.006200000000002
6585858520,21.84,-0.08841837990603273,0.04260348704118158,-0.003193952531149623,0.27468000000000004,0.009810000000000001,9.908100000000001
6590909025,21.84,-0.08948303074974927,0.06497860805174888,-0.002129301687433082,0.14715,-0.17658,9.84924
6595959530,21.84,-0.05859070298944965,0.08735372906231618,0.0,0.04905,-0.28449,9.760950000000001
6601010035,21.84,-0.012775810124598492,0.10012953918691468,-0.002129301687433082,-0.15696000000000002,-0.25506,9.68247
6606060540,21.84,0.03408628029144926,0.10119419003063122,-0.002129301687433082,-0.23544,-0.0981,9.70209
6611111045,21.84,0.06710790973918197,0.10438814256178083,-0.004258603374866164,-0.38259000000000004,0.009810000000000001,9.69228
6616161550,21.84,0.08841837990603273,0.08309512568745003,-0.003193952531149623,-0.46107000000000004,0.1962,9.70209
6621212055,21.84,0.10012953918691468,0.054332099614583476,-0.002129301687433082,-0.6180300000000001,0.44145,9.79038
6626262560,21.84,0.12250466019748199,-0.014905111812031574,-0.002129301687433082,-0.5395500000000001,0.74556,9.85905
6631313065,21.84,0.10653489754173388,-0.04366813788489812,0.001064650843716541,-0.36297,0.9221400000000001,10.03563
6636363570,21.84,0.06391395720803235,-0.08948303074974927,0.0,-0.2943,1.03005,10.03563
6641414075,21.84,0.021310470166850764,-0.12144000935376545,0.003193952531149623,-0.08829,1.04967,10.074869999999999
6646464580,21.84,-0.01064650843716541,-0.14487978120804929,0.001064650843716541,0.08829,1.04967,10.11411
6651515085,21.84,-0.054332099614583476,-0.15765559133264778,0.002129301687433082,0.33354000000000006,0.9319500000000001,10.074869999999999
6656565590,21.84,-0.11398745344774965,-0.1374272253020335,0.003193952531149623,0.48069000000000006,0.63765,10.05525
6661616095,21.84,-0.14594443205176583,-0.12356931104119852,0.002129301687433082,0.6278400000000001,0.30411,9.98658
6666666600,21.84,-0.15339698795778162,-0.07456046564519776,0.002129301687433082,0.6278400000000001,0.04905,9.91791
6671717105,21.84,-0.13102186694721432,-0.046879543708567686,0.0,0.5886,-0.16677000000000003,9.85905
6676767610,21.84,-0.11185815176031658,-0.021310470166850764,-0.001064650843716541,0.6278400000000001,-0.37278,9.74133
6681818115,21.84,-0.07883652231258387,0.031956978604016174,0.0,0.5591700000000001,-0.47088,9.7119
6686868620,21.84,-0.01811651763570114,0.06284930636431581,0.0,0.40221,-0.41202000000000005,9.64323
6691919125,21.84,0.05007349623971732,0.08096582400001695,-0.003193952531149623,0.32373,-0.21582,9.6138
6696969630,21.84,0.08735372906231618,0.11185815176031658,-0.002129301687433082,0.32373,-0.0981,9.66285
6702020135,21.84,0.11292280260403312,0.14700908289548237,-0.003193952531149623,0.0981,0.14715,9.751140000000001
6707070640,21.84,0.13634512116579703,0.14275047952061623,-0.005323254218582705,-0.07848000000000001,0.38259000000000004,9.78057
6712121145,21.84,0.14913838458291545,0.12676326357234816,-0.006387905062299246,-0.18639,0.6768900000000001,9.87867
6717171650,21.84,0.14062117783318315,0.10866419922916695,-0.003193952531149623,-0.18639,0.8829,10.01601
6722222155,21.84,0.10119419003063122,0.09374163412461543,-0.005323254218582705,-0.34335000000000004,1.31454,10.03563
6727272660,21.84,0.0852244273748831,0.05965535383316618,0.0,-0.7651800000000001,1.44207,10.62423
6732323165,21.84,-0.02556907354171693,-0.046879543708567686,0.0,-0.5493600000000001,0.74556,9.87867
6737373670,21.84,-0.11611675513518273,-0.07030186227033158,0.001064650843716541,-0.20601000000000003,0.6768900000000001,9.97677
6742424175,21.84,-0.05539675045830002,-0.07136651311404815,0.003193952531149623,-0.20601000000000003,0.69651,10.12392
6747474680,21.84,-0.12144000935376545,-0.10438814256178083,0.001064650843716541,-0.11772,0.15696000000000002,9.87867
6752525185,21.84,-0.1480737337391989,-0.10438814256178083,0.004258603374866164,0.009810000000000001,0.02943,9.86886
6757575690,21.84,-0.06817256058289851,-0.10332349171806432,0.002129301687433082,0.04905,0.10791,9.908100000000001
6762626195,21.84,-0.07670722062515077,-0.10759954838545042,0.002129301687433082,0.20601000000000003,-0.15696000000000002,9.79038
6767676700,21.84,-0.08203047484373349,-0.07777187146886733,0.0,0.30411,-0.20601000000000003,9.74133
6772727205,21.84,-0.01064650843716541,-0.05113814708343386,0.0,0.37278,-0.07848000000000001,9.73152
6777777710,21.84,0.00958185759344887,-0.012775810124598492,0.0,0.36297,-0.04905,9.66285
6782828215,21.84,0.031956978604016174,0.012775810124598492,0.0,0.40221,0.04905,9.69228
6787878720,21.84,0.05752605214573309,0.05646140130201656,-0.002129301687433082,0.37278,0.14715,9.760950000000001
6792929225,21.84,0.06497860805174888,0.06817256058289851,-0.002129301687433082,0.16677000000000003,0.26487,9.83943
6797979730,21.84,0.08628907821859966,0.05113814708343386,-0.001064650843716541,0.15696000000000002,0.47088,9.888480000000001
6803030235,21.84,0.09161233243718235,0.05113814708343386,-0.002129301687433082,0.11772,0.6670800000000001,9.97677
6808080740,21.84,0.06817256058289851,0.020245819323134222,-0.003193952531149623,0.0981,0.71613,9.98658
6813131245,21.84,0.03408628029144926,0.015987215948268057,-0.001064650843716541,0.13734000000000002,0.7651800000000001,10.03563
6818181750,21.84,0.024504422698000388,-0.013840460968315033,-0.001064650843716541,0.08829,0.84366,10.08468
6823232255,21.84,-0.003193952531149623,-0.028763026072866547,-0.001064650843716541,0.1962,0.79461,9.98658
6828282760,21.84,-0.03834488366631542,-0.02663372438543347,0.0,0.25506,0.63765,10.006200000000002
6833333265,21.84,-0.06817256058289851,-0.013840460968315033,0.0,0.34335000000000004,0.46107000000000004,9.96696
6838383770,21.84,-0.08203047484373349,0.012775810124598492,-0.001064650843716541,0.21582,0.28449,9.937529999999999
6843434275,21.84,-0.07243116395776468,0.006387905062299246,0.0,0.18639,0.13734000000000002,9.87867
6848484780,21.84,-0.06710790973918197,0.03621558197888234,-0.002129301687433082,0.20601000000000003,-0.02943,9.86886
6853535285,21.84,-0.05965535383316618,0.06817256058289851,-0.001064650843716541,0.11772,-0.22563,9.82962
6858585790,21.84,-0.033021629447732716,0.10012953918691468,-0.001064650843716541,-0.08829,-0.21582,9.79038
6863636295,21.84,0.021310470166850764,0.09800023749948161,-0.001064650843716541,-0.26487,-0.0981,9.760950000000001
6868686800,21.84,0.05859070298944965,0.09587093581204853,-0.003193952531149623,-0.33354000000000006,0.009810000000000001,9.74133
6873737305,21.84,0.07990117315630041,0.07883652231258387,-0.002129301687433082,-0.5493600000000001,0.1962,9.69228
6878787810,21.84,0.09587093581204853,0.031956978604016174,0.0,-0.57879,0.41202000000000005,9.751140000000001
6883838315,21.84,0.10438814256178083,-0.020245819323134222,-0.001064650843716541,-0.6180300000000001,0.70632,9.87867
6888888820,21.84,0.10012953918691468,-0.08628907821859966,0.0,-0.2943,0.9319500000000001,9.95715
6893939325,21.84,0.05646140130201656,-0.10119419003063122,0.001064650843716541,-0.17658,0.9908100000000001,9.94734
6898989830,21.84,0.014905111812031574,-0.15126768627034853,0.003193952531149623,-0.02943,1.02024,10.074869999999999
6904040335,21.84,-0.02556907354171693,-0.15978489302008084,0.002129301687433082,0.32373,0.9810000000000001,10.045440000000001
6909090840,21.84,-0.06284930636431581,-0.14381513036433274,0.004258603374866164,0.45126,0.8829,10.05525
6914141345,21.84,-0.10653489754173388,-0.12037535851004891,0.0,0.64746,0.5591700000000001,10.05525
6919191850,21.84,-0.14381513036433274,-0.07777187146886733,0.003193952531149623,0.65727,0.25506,9.99639
6924242355,21.84,-0.14700908289548237,-0.05326744877086694,0.001064650843716541,0.6768900000000001,-0.05886,9.92772
6929292860,21.84,-0.12356931104119852,-0.002129301687433082,0.0,0.63765,-0.21582,9.86886
6934343365,21.84,-0.08735372906231618,0.03621558197888234,0.0,0.5886,-0.37278,9.80019
6939393870,21.84,-0.060720004676882725,0.1097288500728835,-0.001064650843716541,0.52974,-0.56898,9.68247
6944444375,21.84,-0.00958185759344887,0.14700908289548237,-0.004258603374866164,0.13734000000000002,-0.51012,9.633420000000001
6949494880,21.84,0.06497860805174888,0.13955652698946658,-0.002129301687433082,-0.06867000000000001,-0.26487,9.65304
6954545385,21.84,0.12144000935376545,0.13208651779093086,-0.004258603374866164,-0.22563,0.04905,9.64323
6959595890,21.84,0.150203035426632,0.09480628496833199,-0.004258603374866164,-0.23544,0.30411,9.65304
6964646395,21.84,0.14913838458291545,0.08415977653116657,-0.001064650843716541,-0.33354000000000006,0.5886,9.819809999999999
6969696900,21.84,0.14594443205176583,0.022375121010567305,0.0,-0.38259000000000004,0.89271,9.937529999999999
6974747405,21.84,0.1288925652597812,-0.023439771854283843,-0.001064650843716541,-0.22563,1.1870100000000001,10.074869999999999
6979797910,21.84,0.08841837990603273,-0.05752605214573309,-0.001064650843716541,-0.009810000000000001,1.3243500000000001,10.08468
6984848415,21.84,0.0170518667919846,-0.05752605214573309,0.002129301687433082,0.07848000000000001,1.16739,10.17297
6989898920,21.84,-0.05646140130201656,-0.06178465552059926,0.001064650843716541,0.20601000000000003,0.9908100000000001,10.11411
6994949425,21.84,-0.08628907821859966,-0.049008845396000776,0.001064650843716541,0.27468000000000004,0.8142300000000001,10.06506
6999999930,21.84,-0.12463396188491506,-0.01918116847941768,0.0,0.21582,0.46107000000000004,10.1043
7005050435,21.84,-0.15872024217636432,-0.013840460968315033,0.0,0.16677000000000003,0.05886,9.95715
7010100940,21.84,-0.1629788455512305,0.013840460968315033,0.0,0.05886,-0.24525000000000002,9.86886
7015151445,21.84,-0.12037535851004891,0.011711159280881954,0.0,-0.06867000000000001,-0.42183,9.82962
7020201950,21.84,-0.06710790973918197,0.01064650843716541,-0.002129301687433082,-0.07848000000000001,-0.43164,9.68247
7025252455,21.84,-0.01811651763570114,0.021310470166850764,0.0,-0.0981,-0.40221,9.60399
7030302960,21.84,0.022375121010567305,0.03834488366631542,0.0,-0.17658,-0.30411,9.59418
7035353465,21.84,0.07456046564519776,0.012775810124598492,0.0,-0.2943,-0.039240000000000004,9.57456
7040403970,21.84,0.12463396188491506,-0.013840460968315033,-0.003193952531149623,-0.1962,0.33354000000000006,9.68247
7045454475,21.84,0.13634512116579703,-0.03834488366631542,-0.004258603374866164,-0.07848000000000001,0.63765,9.78057
7050504980,21.84,0.11611675513518273,-0.03621558197888234,0.001064650843716541,0.08829,0.7749900000000001,9.91791
7055555485,21.84,0.0852244273748831,-0.049008845396000776,0.0,0.02943,0.9810000000000001,10.03563
7060605990,21.84,0.06497860805174888,-0.10225884087434776,0.0,0.2943,1.0987200000000001,10.074869999999999
7065656495,21.84,0.021310470166850764,-0.07456046564519776,0.0,0.47088,1.1281500000000002,10.212209999999999
7070707000,21.84,-0.03728023282259888,-0.07349581480148122,0.001064650843716541,0.5493600000000001,0.9319500000000001,10.15335
7075757505,21.84,-0.09906488834319814,-0.04260348704118158,0.001064650843716541,0.6180300000000001,0.6278400000000001,10.03563
7080808010,21.84,-0.12037535851004891,-0.020245819323134222,0.0,0.51012,0.3924,10.025820000000001
7085858515,21.84,-0.12356931104119852,-0.002129301687433082,0.0,0.5591700000000001,0.14715,9.937529999999999
7090909020,21.84,-0.12144000935376545,0.03834488366631542,-0.001064650843716541,0.44145,-0.12753,9.888480000000001
7095959525,21.84,-0.11079350091660004,0.06178465552059926,-0.001064650843716541,0.3924,-0.44145,9.751140000000001
7101010030,21.84,-0.07349581480148122,0.11185815176031658,-0.002129301687433082,0.11772,-0.49050000000000005,9.73152
7106060535,21.84,0.0,0.09480628496833199,-0.003193952531149623,-0.08829,-0.3924,9.67266
7111111040,21.84,0.05007349623971732,0.09161233243718235,-0.004258603374866164,-0.07848000000000001,-0.21582,9.64323
7116161545,21.84,0.08415977653116657,0.10332349171806432,-0.004258603374866164,-0.12753,-0.039240000000000004,9.6138
7121212050,21.84,0.11185815176031658,0.13102186694721432,-0.005323254218582705,-0.26487,0.12753,9.67266
7126262555,21.84,0.14275047952061623,0.09587093581204853,-0.002129301687433082,-0.5395500000000001,0.51993,9.72171
7131313060,21.84,0.15339698795778162,0.04153883619746504,-0.002129301687433082,-0.3924,0.75537,9.908100000000001
7136363565,21.84,0.12463396188491506,0.02663372438543347,-0.001064650843716541,-0.40221,1.26549,9.99639
7141414070,21.84,0.10759954838545042,0.007452555906015787,0.001064650843716541,-0.5886,1.46169,10.51632
7146464575,21.84,-0.002129301687433082,-0.08735372906231618,0.0,-0.5493600000000001,0.86328,9.85905
7151515080,21.84,-0.08948303074974927,-0.13955652698946658,0.0,0.0,0.8142300000000001,10.08468
7156565585,21.84,-0.03408628029144926,-0.11931070766633237,0.005323254218582705,0.019620000000000002,0.9908100000000001,10.15335
7161616090,21.84,-0.11611675513518273,-0.15126768627034853,0.003193952531149623,0.1962,0.41202000000000005,9.94734
7166666595,21.84,-0.17364280728091586,-0.13102186694721432,0.002129301687433082,0.33354000000000006,0.16677000000000003,9.97677
7171717100,21.84,-0.10653489754173388,-0.12037535851004891,0.002129301687433082,0.3924,0.14715,9.96696
7176767605,21.84,-0.11611675513518273,-0.09587093581204853,0.003193952531149623,0.51012,-0.17658,9.82962
7181818110,21.84,-0.11185815176031658,-0.06923721142661506,0.003193952531149623,0.5591700000000001,-0.31392000000000003,9.760950000000001
7186868615,21.84,-0.049008845396000776,-0.01918116847941768,0.001064650843716541,0.60822,-0.32373,9.72171
7191919120,21.84,-0.008517206749732328,0.01918116847941768,-0.001064650843716541,0.46107000000000004,-0.31392000000000003,9.623610000000001
7196969625,21.84,0.028763026072866547,0.044732788728614664,-0.002129301687433082,0.50031,-0.18639,9.69228
7202020130,21.84,0.06923721142661506,0.10119419003063122,-0.005323254218582705,0.41202000000000005,0.0,9.70209
7207070635,21.84,0.09161233243718235,0.12356931104119852,-0.002129301687433082,0.28449,0.0981,9.70209
7212121140,21.84,0.10653489754173388,0.150203035426632,-0.004258603374866164,0.04905,0.30411,9.819809999999999
7217171645,21.84,0.13208651779093086,0.12144000935376545,-0.002129301687433082,-0.0981,0.5886,9.92772
7222222150,21.84,0.12676326357234816,0.10225884087434776,-0.002129301687433082,-0.15696000000000002,0.7651800000000001,9.96696
7227272655,21.84,0.10012953918691468,0.06604325889546543,-0.005323254218582705,-0.22563,0.90252,10.03563
7232323160,21.84,0.05965535383316618,0.0404741853537485,-0.002129301687433082,-0.22563,0.95157,10.06506
7237373665,21.84,0.022375121010567305,-0.006387905062299246,0.001064650843716541,-0.30411,0.9810000000000001,10.11411
7242424170,21.84,-0.008517206749732328,-0.05859070298944965,0.0,-0.13734000000000002,0.9319500000000001,10.025820000000001
7247474675,21.84,-0.05646140130201656,-0.06817256058289851,0.0,0.0,0.80442,10.006200000000002
7252525180,21.84,-0.09374163412461543,-0.07670722062515077,0.001064650843716541,0.08829,0.5591700000000001,10.006200000000002
7257575685,21.84,-0.11611675513518273,-0.05965535383316618,0.001064650843716541,0.13734000000000002,0.30411,9.91791
7262626190,21.84,-0.11505210429146619,-0.05646140130201656,0.0,0.08829,0.10791,9.92772
7267676695,21.84,-0.11185815176031658,-0.04581489286485115,0.0,0.20601000000000003,-0.13734000000000002,9.87867
7272727200,21.84,-0.09800023749948161,-0.014905111812031574,0.001064650843716541,0.11772,-0.27468000000000004,9.79038
7277777705,21.84,-0.05326744877086694,-0.011711159280881954,0.0,0.12753,-0.2943,9.760950000000001
7282828210,21.84,-0.006387905062299246,0.022375121010567305,0.0,0.12753,-0.24525000000000002,9.67266
7287878715,21.84,0.03089232776029963,0.0404741853537485,-0.001064650843716541,0.05886,-0.12753,9.65304
7292929220,21.84,0.06604325889546543,0.06178465552059926,-0.004258603374866164,0.02943,0.02943,9.69228
7297979725,21.84,0.09054768159346581,0.05965535383316618,-0.002129301687433082,-0.08829,0.24525000000000002,9.760950000000001
7303030230,21.84,0.10759954838545042,0.04366813788489812,-0.001064650843716541,-0.15696000000000002,0.49050000000000005,9.819809999999999
7308080735,21.84,0.11398745344774965,0.006387905062299246,-0.001064650843716541,-0.06867000000000001,0.73575,9.888480000000001
7313131240,21.84,0.09161233243718235,0.001064650843716541,0.0,-0.009810000000000001,0.8338500000000001,10.006200000000002
7318181745,21.84,0.05326744877086694,-0.02556907354171693,0.0,-0.02943,0.9221400000000001,10.01601
7323232250,21.84,0.02663372438543347,-0.04794419455228423,-0.001064650843716541,0.0981,0.94176,10.025820000000001
7328282755,21.84,-0.00958185759344887,-0.05752605214573309,0.0,0.12753,0.9319500000000001,10.09449
7333333260,21.84,-0.049008845396000776,-0.07136651311404815,0.002129301687433082,0.2943,0.73575,10.06506
7338383765,21.84,-0.08948303074974927,-0.05007349623971732,0.0,0.33354000000000006,0.52974,10.01601
7343434270,21.84,-0.11079350091660004,-0.04153883619746504,0.0,0.2943,0.27468000000000004,10.006200000000002
7348484775,21.84,-0.11292280260403312,-0.028763026072866547,0.0,0.28449,0.05886,9.908100000000001
7353535280,21.84,-0.09374163412461543,-0.01918116847941768,0.0,0.27468000000000004,-0.06867000000000001,9.85905
7358585785,21.84,-0.07243116395776468,-0.002129301687433082,0.001064650843716541,0.30411,-0.21582,9.79038
7363636290,21.84,-0.04366813788489812,0.024504422698000388,0.0,0.18639,-0.27468000000000004,9.751140000000001
7368686795,21.84,-0.001064650843716541,0.03515093113516579,0.0,0.12753,-0.1962,9.69228
