#timestamp [ns], temperature [degC], w_RS_S_x [rad s^-1], w_RS_S_y [rad s^-1], w_RS_S_z [rad s^-1], a_RS_S_x [m s^-2], a_RS_S_y [m s^-2], a_RS_S_z [m s^-2]
0.0,21.65,0.0,0.0,0.0,0.7749900000000001,0.47088,9.81
5000000.0,21.65,0.0,0.0,0.0,0.745854299708643,0.480591900097119,9.81
10000000.0,21.65,0.0,0.0,0.0,0.755173800194238,0.48069,9.829227600388476
15000000.0,21.65,0.0,0.0,0.0,0.764885700291357,0.48069,9.886714201748141
20000000.0,21.65,0.0,0.0,0.0,0.755762399611524,0.490107600388476,9.860227198834572
25000000.0,21.65,0.0,0.0,0.0,0.7460504995144049,0.47186099902881,9.803132997086431
30000000.0,21.65,0.0,0.0,0.0,0.736338599417286,0.49854420174814207,9.809411400582714
35000000.0,21.65,0.0,0.0,0.0,0.7631199020394991,0.50031,9.846493202719332
40000000.0,21.65,0.0,0.0,0.0,0.756154799223048,0.464209196892192,9.858265200776952
45000000.0,21.65,0.0,0.0,0.0,0.75537,0.487851302622213,9.832268697377787
50000000.0,21.65,0.0,0.0,0.0,0.7641990009711901,0.48167099902881,9.82079099902881
55000000.0,21.65,0.0,0.0,0.0,0.747718197863382,0.45449729679507295,9.784886395726765
60000000.0,21.65,0.0,0.0,0.0,0.754192801165428,0.48579120466171205,9.815101204661712
65000000.0,21.65,0.0,0.0,0.0,0.75537,0.49903470126254706,9.845414103787641
70000000.0,21.65,0.0,0.0,0.0,0.7806798040789981,0.47500019592100196,9.832366797280669
75000000.0,21.65,0.0,0.0,0.0,0.7597844956296449,0.48755700291357,9.82962
80000000.0,21.65,0.0,0.0,0.0,0.7471295984460959,0.47401919689219196,9.80489879533829
85000000.0,21.65,0.0,0.0,0.0,0.74556,0.479022301651023,9.80019
90000000.0,21.65,0.0,0.0,0.0,0.753604201748142,0.472645798251858,9.816278403496284
95000000.0,21.65,0.0,0.0,0.0,0.7633161018452611,0.47882610184526103,9.851594407381045
100000000.0,21.65,0.0,0.0,0.0,0.75733199805762,0.48853800194238,9.83550599417286
105000000.0,21.65,0.0,0.0,0.0,0.7708698040789981,0.482750097960501,9.806370293881503
110000000.0,21.65,0.0,0.0,0.0,0.7443827914535279,0.48069,9.792538197863383
115000000.0,21.65,0.0,0.0,0.0,0.720642595532526,0.473136297766263,9.813041106701212
120000000.0,21.65,0.0,0.0,0.0,0.723585602330856,0.47833560233085604,9.834721204661712
125000000.0,21.65,0.0,0.0,0.0,0.7553700097119002,0.488047502427975,9.824714995144051
130000000.0,21.65,0.0,0.0,0.0,0.7434017924247179,0.483240597474906,9.812550597474907
135000000.0,21.65,0.0,0.0,0.0,0.7572339078666391,0.4663673947555739,9.81
140000000.0,21.65,0.0,0.0,0.0,0.7298639864033399,0.46107,9.81
145000000.0,21.65,0.0,0.0,0.0,0.7509555140822552,0.4750002056329021,9.837860411265805
150000000.0,21.65,0.0,0.0,0.0,0.7308449854321499,0.47382299708643,9.82177198834572
155000000.0,21.65,0.0,0.0,0.0,0.7432056120427561,0.4505732909679329,9.81676890301069
160000000.0,21.65,0.0,0.0,0.0,0.7353575906765759,0.47480401553904017,9.81981
165000000.0,21.65,0.0,0.0,0.0,0.7390854064098541,0.4707818903852189,9.83952810961478
170000000.0,21.65,0.0,0.0,0.0,0.74556,0.4804938099061381,9.823341586791816
175000000.0,21.65,0.0,0.0,0.0,0.74556,0.46499398640333983,9.81
180000000.0,21.65,0.0,0.0,0.0,0.7581168069925681,0.46381680699256805,9.816278403496284
185000000.0,21.65,0.0,0.0,0.0,0.7466390892197909,0.48324060718680606,9.832170607186807
190000000.0,21.65,0.0,0.0,0.0,0.741832203690522,0.49658220369052203,9.827265592618955
195000000.0,21.65,0.0,0.0,0.0,0.739575896212359,0.47038948106179485,9.81981
200000000.0,21.65,0.0,0.0,0.0,0.74163600388476,0.4689180116542801,9.831582007769521
205000000.0,21.65,0.0,0.0,0.0,0.751347903981879,0.46911419203624194,9.83364209601812
210000000.0,21.65,0.0,0.0,0.0,0.7610598040789981,0.46107,9.82962
215000000.0,21.65,0.0,0.0,0.0,0.759588295823883,0.46107,9.835211704176118
220000000.0,21.65,0.0,0.0,0.0,0.7498763957267639,0.4720572085464721,9.828442791453528
225000000.0,21.65,0.0,0.0,0.0,0.74556,0.48069,9.81981
230000000.0,21.65,0.0,0.0,0.0,0.7508574044674741,0.48069,9.830404808934949
235000000.0,21.65,0.0,0.0,0.0,0.760569304564593,0.47549069543540695,9.834230695435407
240000000.0,21.65,0.0,0.0,0.0,0.7702812046617121,0.465778795338288,9.82962
245000000.0,21.65,0.0,0.0,0.0,0.7599806857235069,0.4710762095176621,9.819613790482338
250000000.0,21.65,0.0,0.0,0.0,0.7602750145678502,0.47578499514405,9.81
255000000.0,21.65,0.0,0.0,0.0,0.7653761900938619,0.4756869049530691,9.819613809906139
260000000.0,21.65,0.0,0.0,0.0,0.75537,0.48539880505018806,9.843746415150564
265000000.0,21.65,0.0,0.0,0.0,0.750759294852693,0.48588929485269294,9.845217884558078
270000000.0,21.65,0.0,0.0,0.0,0.7500726052444261,0.46715218426672184,9.820594789511148
275000000.0,21.65,0.0,0.0,0.0,0.7421264839753648,0.455674505341545,9.81
280000000.0,21.65,0.0,0.0,0.0,0.7388892163159921,0.4697028108773281,9.814316405438664
285000000.0,21.65,0.0,0.0,0.0,0.7511516944642169,0.4722533889284339,9.83246491660735
290000000.0,21.65,0.0,0.0,0.0,0.749680205632902,0.47343061689870614,9.840999588734196
295000000.0,21.65,0.0,0.0,0.0,0.7433036828099369,0.4945221057300211,9.82962
300000000.0,21.65,0.0,0.0,0.0,0.7416360233085603,0.4924619883457199,9.81392397669144
305000000.0,21.65,0.0,0.0,0.0,0.7651800000000001,0.47686409407574093,9.79038
310000000.0,21.65,0.0,0.0,0.0,0.761452193978622,0.4746078060213781,9.823930254192403
315000000.0,21.65,0.0,0.0,0.0,0.75537,0.48069,9.875040293881503
320000000.0,21.65,0.0,0.0,0.0,0.7518383937843839,0.4912848186468482,9.85120196892192
325000000.0,21.65,0.0,0.0,0.0,0.7489935063127351,0.48951896212358964,9.79920896212359
330000000.0,21.65,0.0,0.0,0.0,0.75537,0.46793703204927034,9.77762703204927
335000000.0,21.65,0.0,0.0,0.0,0.7521326934930269,0.49707269349302696,9.829423839041839
340000000.0,21.65,0.0,0.0,0.0,0.7549776198122762,0.4905,9.865720793395909
345000000.0,21.65,0.0,0.0,0.0,0.7597844664939447,0.48745889329878894,9.849926679896367
350000000.0,21.65,0.0,0.0,0.0,0.7377120271933203,0.48069,9.809018952411689
355000000.0,21.65,0.0,0.0,0.0,0.7594901862091019,0.47500018620910184,9.772329627581795
360000000.0,21.65,0.0,0.0,0.0,0.748306806992568,0.46381680699256805,9.80293680699257
365000000.0,21.65,0.0,0.0,0.0,0.7580187070896871,0.47617741417937415,9.820594828358749
370000000.0,21.65,0.0,0.0,0.0,0.762629392813194,0.48539878562638783,9.84924
375000000.0,21.65,0.0,0.0,0.0,0.7529174927160749,0.47088,9.836977463580375
380000000.0,21.65,0.0,0.0,0.0,0.74556,0.4732344073810441,9.802544407381045
385000000.0,21.65,0.0,0.0,0.0,0.7433036925218369,0.47843369252183693,9.81676892243449
390000000.0,21.65,0.0,0.0,0.0,0.733591792424718,0.47519641515056416,9.841588207575283
395000000.0,21.65,0.0,0.0,0.0,0.7300602153448021,0.4905,9.847179892327599
400000000.0,21.65,0.0,0.0,0.0,0.7494840155390402,0.4885379922304799,9.83158196892192
405000000.0,21.65,0.0,0.0,0.0,0.7595882764000829,0.4788260921333609,9.80019
410000000.0,21.65,0.0,0.0,0.0,0.7392816159275162,0.4744116159275162,9.807253231855032
415000000.0,21.65,0.0,0.0,0.0,0.7587054161217541,0.4888322919391229,9.83943
420000000.0,21.65,0.0,0.0,0.0,0.771850783684008,0.48225960815799607,9.837860391842003
425000000.0,21.65,0.0,0.0,0.0,0.7538984917448849,0.4890284917448849,9.825205475234656
430000000.0,21.65,0.0,0.0,0.0,0.74556,0.48481022505670224,9.801563408352235
435000000.0,21.65,0.0,0.0,0.0,0.7404587662025877,0.5088446915506469,9.813825925348059
440000000.0,21.65,0.0,0.0,0.0,0.7122060427323604,0.4979555829070559,9.83943
445000000.0,21.65,0.0,0.0,0.0,0.7542908913564089,0.48176910864359107,9.840509108643591
450000000.0,21.65,0.0,0.0,0.0,0.74556,0.4905,9.84924
455000000.0,21.65,0.0,0.0,0.0,0.74556,0.4887341823243418,9.847474182324342
460000000.0,21.65,0.0,0.0,0.0,0.7439903821301038,0.4716648089349481,9.827265573195156
465000000.0,21.65,0.0,0.0,0.0,0.7293735451603355,0.47931658193586585,9.801563418064134
470000000.0,21.65,0.0,0.0,0.0,0.7714583452248835,0.4622472182583722,9.821575827387559
475000000.0,21.65,0.0,0.0,0.0,0.7185825461315255,0.4801994907736949,9.84924
480000000.0,21.65,0.0,0.0,0.0,0.764787590676576,0.4712724093234241,9.84924
485000000.0,21.65,0.0,0.0,0.0,0.7556643094205431,0.48069,9.84835707173837
490000000.0,21.65,0.0,0.0,0.0,0.7643951619293518,0.48108241903532417,9.819221371447014
495000000.0,21.65,0.0,0.0,0.0,0.7262343288443434,0.500211890385219,9.790478109614781
500000000.0,21.65,0.0,0.0,0.0,0.7553700097119,0.4904999611523996,9.8001900194238
505000000.0,21.65,0.0,0.0,0.0,0.7650819098090191,0.4516523607639236,9.819613819618038
510000000.0,21.65,0.0,0.0,0.0,0.7844076198122762,0.4704876198122762,9.848651429718414
515000000.0,21.65,0.0,0.0,0.0,0.7467371599869717,0.4803957100032571,9.820692869990229
520000000.0,21.65,0.0,0.0,0.0,0.74556,0.4524371696988717,9.791557169698873
525000000.0,21.65,0.0,0.0,0.0,0.7548795101974951,0.4885380407899804,9.818338530592486
530000000.0,21.65,0.0,0.0,0.0,0.7645914102946142,0.4905,9.81981
535000000.0,21.65,0.0,0.0,0.0,0.7651800000000001,0.4631300688248007,9.838056620783467
540000000.0,21.65,0.0,0.0,0.0,0.7290791580445917,0.4700952104888521,9.83943
545000000.0,21.65,0.0,0.0,0.0,0.72594,0.47088,9.812648668242087
550000000.0,21.65,0.0,0.0,0.0,0.7524270320492703,0.47970901068309013,9.81
555000000.0,21.65,0.0,0.0,0.0,0.75537,0.48069,9.818730910780209
560000000.0,21.65,0.0,0.0,0.0,0.7726356217546563,0.4720571891226719,9.86297405438664
565000000.0,21.65,0.0,0.0,0.0,0.7579205780511058,0.4794147109744471,9.851790578051105
570000000.0,21.65,0.0,0.0,0.0,0.75537,0.48912661107156613,9.823930166785303
575000000.0,21.65,0.0,0.0,0.0,0.7470314888313149,0.49883851116868516,9.828148511168685
580000000.0,21.65,0.0,0.0,0.0,0.7373195887341959,0.48382917746839177,9.813139177468392
585000000.0,21.65,0.0,0.0,0.0,0.7520346227258462,0.46440537727415376,9.826284622725847
590000000.0,21.65,0.0,0.0,0.0,0.7473257885399579,0.47715842292008426,9.813531577079916
595000000.0,21.65,0.0,0.0,0.0,0.74556,0.48069,9.81
600000000.0,21.65,0.0,0.0,0.0,0.74556,0.48069,9.81784801165428
605000000.0,21.65,0.0,0.0,0.0,0.74556,0.48069,9.81981
610000000.0,21.65,0.0,0.0,0.0,0.74556,0.4730381881514819,9.842765435545555
615000000.0,21.65,0.0,0.0,0.0,0.7380062880543629,0.4784337119456371,9.841686288054364
620000000.0,21.65,0.0,0.0,0.0,0.7581168361282684,0.4732343879572439,9.854341224085513
625000000.0,21.65,0.0,0.0,0.0,0.7357499514404996,0.47088,9.822262439300625
630000000.0,21.65,0.0,0.0,0.0,0.7331994122369941,0.46362058776300585,9.81
635000000.0,21.65,0.0,0.0,0.0,0.7715565616705656,0.4897152493364525,9.81
640000000.0,21.65,0.0,0.0,0.0,0.777736787568768,0.48618357513753574,9.845316062156162
645000000.0,21.65,0.0,0.0,0.0,0.768024887471649,0.47372488747164887,9.86601511252835
650000000.0,21.65,0.0,0.0,0.0,0.7583129873745299,0.4914810378764104,9.834524936872649
655000000.0,21.65,0.0,0.0,0.0,0.75537,0.48677217455482175,9.813041087277412
660000000.0,21.65,0.0,0.0,0.0,0.75537,0.48069,9.816670812819709
665000000.0,21.65,0.0,0.0,0.0,0.7487972870831728,0.4609718612495186,9.832955425833655
670000000.0,21.65,0.0,0.0,0.0,0.7520346130139461,0.4771584520557845,9.826480773972108
675000000.0,21.65,0.0,0.0,0.0,0.7426169737778697,0.48412348688893486,9.81981
680000000.0,21.65,0.0,0.0,0.0,0.73575,0.48069,9.81981
685000000.0,21.65,0.0,0.0,0.0,0.7419303133053031,0.48069,9.813629686694698
690000000.0,21.65,0.0,0.0,0.0,0.7394777865975779,0.4746077865975779,9.803917786597578
695000000.0,21.65,0.0,0.0,0.0,0.7417341134995411,0.47088,9.80617411349954
700000000.0,21.65,0.0,0.0,0.0,0.74556,0.4826520271933203,9.82177202719332
705000000.0,21.65,0.0,0.0,0.0,0.7513479136937792,0.48471208630622087,9.841195827387558
710000000.0,21.65,0.0,0.0,0.0,0.7724394413726945,0.4920696275817963,9.826480744836408
715000000.0,21.65,0.0,0.0,0.0,0.7512497166718972,0.5059017138880172,9.815591713888018
720000000.0,21.65,0.0,0.0,0.0,0.7424208419554085,0.4881455440594555,9.808822772029728
725000000.0,21.65,0.0,0.0,0.0,0.7499744859177448,0.47627551408225516,9.81098102816451
730000000.0,21.65,0.0,0.0,0.0,0.7402625858206259,0.46479775746187757,9.835702242538122
735000000.0,21.65,0.0,0.0,0.0,0.7461486285529862,0.46685794282947946,9.83364205717052
740000000.0,21.65,0.0,0.0,0.0,0.75537,0.4704875712527757,9.81981
745000000.0,21.65,0.0,0.0,0.0,0.7503668855292689,0.47607934341219343,9.829816228941462
750000000.0,21.65,0.0,0.0,0.0,0.74556,0.4806899708642997,9.82471495629645
755000000.0,21.65,0.0,0.0,0.0,0.7503669146649692,0.47088,9.829227658659876
760000000.0,21.65,0.0,0.0,0.0,0.7459523704758237,0.47088,9.835113555713736
765000000.0,21.65,0.0,0.0,0.0,0.7403607148592072,0.47088,9.833642144577622
770000000.0,21.65,0.0,0.0,0.0,0.7545852299126523,0.4753926149563262,9.844727385043674
775000000.0,21.65,0.0,0.0,0.0,0.7563509698931098,0.48069,9.83060096989311
780000000.0,21.65,0.0,0.0,0.0,0.7498764151505641,0.48069,9.81981
785000000.0,21.65,0.0,0.0,0.0,0.7511516847523169,0.4764716847523169,9.824028315247684
790000000.0,21.65,0.0,0.0,0.0,0.7496802153448021,0.4750002153448022,9.821379569310396
795000000.0,21.65,0.0,0.0,0.0,0.75537,0.48069,9.81
800000000.0,21.65,0.0,0.0,0.0,0.75537,0.48069,9.81392401553904
805000000.0,21.65,0.0,0.0,0.0,0.7477181687276817,0.48069,9.81981
810000000.0,21.65,0.0,0.0,0.0,0.7394778157332782,0.48441781573327813,9.816082184266723
815000000.0,21.65,0.0,0.0,0.0,0.74556,0.4868702841696028,9.81
820000000.0,21.65,0.0,0.0,0.0,0.7490916159275162,0.47715838407248384,9.81
825000000.0,21.65,0.0,0.0,0.0,0.7416359359014594,0.46744648397536487,9.823734064098542
830000000.0,21.65,0.0,0.0,0.0,0.7294716644870167,0.47107624836526246,9.842569167756492
835000000.0,21.65,0.0,0.0,0.0,0.7521326837811269,0.4905,9.82962
840000000.0,21.65,0.0,0.0,0.0,0.7424207836840079,0.49363921631599217,9.820202351052023
845000000.0,21.65,0.0,0.0,0.0,0.73575,0.4942277671737777,9.803231116413112
850000000.0,21.65,0.0,0.0,0.0,0.7445790495306905,0.48363301651023016,9.81588603302046
855000000.0,21.65,0.0,0.0,0.0,0.7594901667853017,0.48481016678530164,9.835309833214698
860000000.0,21.65,0.0,0.0,0.0,0.7510536334089364,0.47362681670446816,9.846493183295532
865000000.0,21.65,0.0,0.0,0.0,0.7572338495952385,0.48069,9.836781283198412
870000000.0,21.65,0.0,0.0,0.0,0.7331993831012938,0.4832406168987062,9.824518766202589
875000000.0,21.65,0.0,0.0,0.0,0.7332975509874755,0.48804748300417483,9.812452516995826
880000000.0,21.65,0.0,0.0,0.0,0.7506611658141117,0.47833558290705586,9.826873251278833
885000000.0,21.65,0.0,0.0,0.0,0.7402626343801264,0.4686236828099368,9.842471048429811
890000000.0,21.65,0.0,0.0,0.0,0.7596864345743644,0.46322821728718216,9.817651782712819
895000000.0,21.65,0.0,0.0,0.0,0.7749900000000001,0.47088,9.807939882615699
900000000.0,21.65,0.0,0.0,0.0,0.7651799125928992,0.46891798251857986,9.808038069925681
905000000.0,21.65,0.0,0.0,0.0,0.7315317527356175,0.47038958789269586,9.835702164842921
910000000.0,21.65,0.0,0.0,0.0,0.7536041823243418,0.5083541823243418,9.821575817675658
915000000.0,21.65,0.0,0.0,0.0,0.74556,0.50031,9.832955435545555
920000000.0,21.65,0.0,0.0,0.0,0.7486992357397924,0.4940315285204153,9.842961528520416
925000000.0,21.65,0.0,0.0,0.0,0.7637084820329849,0.46107,9.81
930000000.0,21.65,0.0,0.0,0.0,0.7526231638717317,0.46381683612826835,9.814120254192403
935000000.0,21.65,0.0,0.0,0.0,0.7383006363225064,0.4794146818387468,9.840705318161254
940000000.0,21.65,0.0,0.0,0.0,0.7530155634832556,0.47558887303348873,9.844531126966512
945000000.0,21.65,0.0,0.0,0.0,0.7368291183554911,0.5068826449335264,9.808920881644509
950000000.0,21.65,0.0,0.0,0.0,0.74556,0.47970898154738983,9.80117101845261
955000000.0,21.65,0.0,0.0,0.0,0.7446770814502708,0.4699970814502708,9.81088291854973
960000000.0,21.65,0.0,0.0,0.0,0.7365348186468482,0.46263963729369634,9.823734093234242
965000000.0,21.65,0.0,0.0,0.0,0.7469334374879344,0.4800032812560328,9.866799843768097
970000000.0,21.65,0.0,0.0,0.0,0.7622369057945692,0.4720572376821724,9.836486905794569
975000000.0,21.65,0.0,0.0,0.0,0.7176015568146156,0.4900094810617948,9.79038
980000000.0,21.65,0.0,0.0,0.0,0.7471296761412968,0.4799051619293516,9.791949676141298
985000000.0,21.65,0.0,0.0,0.0,0.7836227234702273,0.46165863826488635,9.82962
990000000.0,21.65,0.0,0.0,0.0,0.7459524384591244,0.4802975615408756,9.829816219229562
995000000.0,21.65,0.0,0.0,0.0,0.7648856420199565,0.46116811932668117,9.839233761346637
1000000000.0,21.65,0.0,0.0,0.0,0.7357499805761998,0.4708800194238002,9.81981
1005000000.0,21.65,0.0,0.0,0.0,0.7260380804790808,0.4805919195209192,9.81981
1010000000.0,21.65,0.0,0.0,0.0,0.7355538196180382,0.4710761803819618,9.81981
1015000000.0,21.65,0.0,0.0,0.0,0.73575,0.4803957197151572,9.810294280284843
1020000000.0,21.65,0.0,0.0,0.0,0.7263323801877238,0.4712723801877238,9.838252859436828
1025000000.0,21.65,0.0,0.0,0.0,0.7725375995469761,0.4895190398187904,9.811471440271815
1030000000.0,21.65,0.0,0.0,0.0,0.7473257399804574,0.4905,9.837664260019542
1035000000.0,21.65,0.0,0.0,0.0,0.7638066402072665,0.47225335979273364,9.857676640207266
1040000000.0,21.65,0.0,0.0,0.0,0.7471295595984956,0.4799052202007522,9.81392389899624
1045000000.0,21.65,0.0,0.0,0.0,0.7277057594042576,0.48069,9.774291518808514
1050000000.0,21.65,0.0,0.0,0.0,0.7171109796050098,0.48069,9.806076081579961
1055000000.0,21.65,0.0,0.0,0.0,0.7510536819684368,0.48069,9.853654602460546
1060000000.0,21.65,0.0,0.0,0.0,0.75537,0.48069,9.833151538232316
1065000000.0,21.65,0.0,0.0,0.0,0.7468352793136528,0.46362055862730556,9.82962
1070000000.0,21.65,0.0,0.0,0.0,0.74556,0.4863798623503986,9.795873516866136
1075000000.0,21.65,0.0,0.0,0.0,0.74556,0.4738229582388296,9.80705704176117
1080000000.0,21.65,0.0,0.0,0.0,0.7702812629331127,0.47912042097770424,9.81
1085000000.0,21.65,0.0,0.0,0.0,0.7424207157007072,0.4725476789251768,9.826284642149647
1090000000.0,21.65,0.0,0.0,0.0,0.7437942211719422,0.47088,9.853752663515827
1095000000.0,21.65,0.0,0.0,0.0,0.7376138787309388,0.49471836380718365,9.819319393654695
1100000000.0,21.65,0.0,0.0,0.0,0.767142085464721,0.48461395726763956,9.81
1105000000.0,21.65,0.0,0.0,0.0,0.7517402356101024,0.4729400785367008,9.81
1110000000.0,21.65,0.0,0.0,0.0,0.74556,0.49383546468125467,9.840607286241672
1115000000.0,21.65,0.0,0.0,0.0,0.74556,0.47764883502738836,9.819025113369852
1120000000.0,21.65,0.0,0.0,0.0,0.74556,0.4559687564906876,9.817455621754657
1125000000.0,21.65,0.0,0.0,0.0,0.7602750437035505,0.48069008740710084,9.812452478148225
1130000000.0,21.65,0.0,0.0,0.0,0.7506611561022116,0.4687217341533173,9.817259421948895
1135000000.0,21.65,0.0,0.0,0.0,0.7527213220460132,0.4753926440920264,9.855616610230067
1140000000.0,21.65,0.0,0.0,0.0,0.7624332221431322,0.48069,9.826480667141206
1145000000.0,21.65,0.0,0.0,0.0,0.7651800000000001,0.4737248777597488,9.81
1150000000.0,21.65,0.0,0.0,0.0,0.7720470223373703,0.4914810670121107,9.78939893298789
1155000000.0,21.65,0.0,0.0,0.0,0.7682210775655108,0.4935410775655108,9.821183534606936
1160000000.0,21.65,0.0,0.0,0.0,0.7518383549367835,0.47715835493678355,9.832759177468391
1165000000.0,21.65,0.0,0.0,0.0,0.7521327226287272,0.48402544525745445,9.816474554742546
1170000000.0,21.65,0.0,0.0,0.0,0.75537,0.4905,9.829423868177539
1175000000.0,21.65,0.0,0.0,0.0,0.7362404315311043,0.47774695435406955,9.820300431531106
1180000000.0,21.65,0.0,0.0,0.0,0.7384968458401685,0.47715842292008426,9.816278422920085
1185000000.0,21.65,0.0,0.0,0.0,0.7579206460344066,0.4621490309483903,9.825990323017203
1190000000.0,21.65,0.0,0.0,0.0,0.7590977768856778,0.4755888924572889,9.82962
1195000000.0,21.65,0.0,0.0,0.0,0.7434017535771176,0.49648412321144125,9.805683507154235
1200000000.0,21.65,0.0,0.0,0.0,0.7475220466171205,0.48853795338287953,9.8198101165428
1205000000.0,21.65,0.0,0.0,0.0,0.7437941531886415,0.47490207659432077,9.822066229782962
1210000000.0,21.65,0.0,0.0,0.0,0.7414398235027982,0.4822596470055965,9.8156898235028
1215000000.0,21.65,0.0,0.0,0.0,0.7567434471998346,0.48490827640008277,9.825401723599917
1220000000.0,21.65,0.0,0.0,0.0,0.7486991289088913,0.46970275260592753,9.824126376302964
1225000000.0,21.65,0.0,0.0,0.0,0.73575,0.4718610475883105,9.825205523794155
1230000000.0,21.65,0.0,0.0,0.0,0.7304525761087258,0.48069,9.824322576108726
1235000000.0,21.65,0.0,0.0,0.0,0.72594,0.48069,9.814610676011608
1240000000.0,21.65,0.0,0.0,0.0,0.7361424481710245,0.48579122408551223,9.81
1245000000.0,21.65,0.0,0.0,0.0,0.7555662483652625,0.4854968758173688,9.81
1250000000.0,21.65,0.0,0.0,0.0,0.7602749757202498,0.4659749271607493,9.82471507283925
1255000000.0,21.65,0.0,0.0,0.0,0.7601769243768692,0.470487697507477,9.84904384875374
1260000000.0,21.65,0.0,0.0,0.0,0.7604711755260118,0.4905,9.835505877630059
1265000000.0,21.65,0.0,0.0,0.0,0.7507592754288928,0.47666782628667825,9.814610724571107
1270000000.0,21.65,0.0,0.0,0.0,0.7500726246682262,0.46558262466822625,9.828835249336453
1275000000.0,21.65,0.0,0.0,0.0,0.75537,0.4752945247653453,9.843844524765345
1280000000.0,21.65,0.0,0.0,0.0,0.7467371502750715,0.48069,9.853556424862465
1285000000.0,21.65,0.0,0.0,0.0,0.7441866499191665,0.47647167504041676,9.837958375202083
1290000000.0,21.65,0.0,0.0,0.0,0.75537,0.4791204501134045,9.814120225056703
1295000000.0,21.65,0.0,0.0,0.0,0.7674363754614638,0.4824557496923575,9.81578787484618
1300000000.0,21.65,0.0,0.0,0.0,0.769103898996239,0.46695597474905975,9.82569610100376
1305000000.0,21.65,0.0,0.0,0.0,0.7570377760441778,0.47254777604417775,9.84924
1310000000.0,21.65,0.0,0.0,0.0,0.7712621745548218,0.48677217455482175,9.845512174554822
1315000000.0,21.65,0.0,0.0,0.0,0.7615502744577027,0.47706027445770277,9.817651646746217
1320000000.0,21.65,0.0,0.0,0.0,0.7589016256394163,0.4779432512788325,9.794696502557665
1325000000.0,21.65,0.0,0.0,0.0,0.7617464742634648,0.4870664742634647,9.826677051473071
1330000000.0,21.65,0.0,0.0,0.0,0.7520345741663458,0.47735457416634575,9.849436277500963
1335000000.0,21.65,0.0,0.0,0.0,0.74556,0.47088,9.849436044415361
1340000000.0,21.65,0.0,0.0,0.0,0.74556,0.47088,9.806860773972108
1345000000.0,21.65,0.0,0.0,0.0,0.7516422522500226,0.47696225225002253,9.79714887387499
1350000000.0,21.65,0.0,0.0,0.0,0.7622369737778698,0.4875569737778697,9.805095131110653
1355000000.0,21.65,0.0,0.0,0.0,0.75537,0.47784507368075074,9.845119852638499
1360000000.0,21.65,0.0,0.0,0.0,0.7526231735836317,0.4763736528327365,9.848062694334526
1365000000.0,21.65,0.0,0.0,0.0,0.74556,0.4905,9.81981
1370000000.0,21.65,0.0,0.0,0.0,0.74556,0.4828481201681812,9.817259373389394
1375000000.0,21.65,0.0,0.0,0.0,0.7480125267077252,0.46107,9.814905053415451
1380000000.0,21.65,0.0,0.0,0.0,0.75537,0.47048770721937705,9.831974426804845
1385000000.0,21.65,0.0,0.0,0.0,0.7598826538039265,0.4980536730980368,9.841686326901963
1390000000.0,21.65,0.0,0.0,0.0,0.766357092003671,0.4840253190027532,9.842765319002753
1395000000.0,21.65,0.0,0.0,0.0,0.7419303812886039,0.46107,9.809509364518993
1400000000.0,21.65,0.0,0.0,0.0,0.757331891226719,0.46107,9.77860810877328
1405000000.0,21.65,0.0,0.0,0.0,0.7315317818713178,0.4592060727095607,9.819319636452196
1410000000.0,21.65,0.0,0.0,0.0,0.7571358273875582,0.45479165477511657,9.857284172612442
1415000000.0,21.65,0.0,0.0,0.0,0.7635122725153228,0.4742154549693546,9.84924
1420000000.0,21.65,0.0,0.0,0.0,0.7490914896728149,0.4905,9.846100744836408
1425000000.0,21.65,0.0,0.0,0.0,0.7220161107156612,0.4890284723210847,9.828148472321084
1430000000.0,21.65,0.0,0.0,0.0,0.75537,0.47794314444793146,9.818436572223966
1435000000.0,21.65,0.0,0.0,0.0,0.7540946721268467,0.4597946721268467,9.816376639365767
1440000000.0,21.65,0.0,0.0,0.0,0.7479144559405446,0.4571461398513614,9.860227227970272
1445000000.0,21.65,0.0,0.0,0.0,0.7619426157978262,0.4981517438652175,9.863464359663043
1450000000.0,21.65,0.0,0.0,0.0,0.73575,0.4846141126580411,9.81981
1455000000.0,21.65,0.0,0.0,0.0,0.7366329282616293,0.5163982869534829,9.81892707173837
1460000000.0,21.65,0.0,0.0,0.0,0.74556,0.48069,9.811569656717497
1465000000.0,21.65,0.0,0.0,0.0,0.7441865430882655,0.48000327154413275,9.831680185367603
1470000000.0,21.65,0.0,0.0,0.0,0.7271172571059726,0.47088,9.857284114341041
1475000000.0,21.65,0.0,0.0,0.0,0.7450694713498948,0.47088,9.828148414049684
1480000000.0,21.65,0.0,0.0,0.0,0.7369272862416729,0.47205728624167287,9.799405142505552
1485000000.0,21.65,0.0,0.0,0.0,0.7651800000000001,0.49972134231131343,9.781158657688687
1490000000.0,21.65,0.0,0.0,0.0,0.7649837710585378,0.4802975421170754,9.800778686824387
1495000000.0,21.65,0.0,0.0,0.0,0.75537,0.46126625807716254,9.829914387115744
1500000000.0,21.65,0.0,0.0,0.0,0.7553699125928991,0.4806899708642997,9.8590499417286
1505000000.0,21.65,0.0,0.0,0.0,0.7262342123015422,0.47097807076718073,9.839626141534362
1510000000.0,21.65,0.0,0.0,0.0,0.7451676586598766,0.47088,9.83943
1515000000.0,21.65,0.0,0.0,0.0,0.7550757294270573,0.4899114588541146,9.810882811718828
1520000000.0,21.65,0.0,0.0,0.0,0.75537,0.4622471114274711,9.81
1525000000.0,21.65,0.0,0.0,0.0,0.75537,0.46107,9.82863905924259
1530000000.0,21.65,0.0,0.0,0.0,0.7461485702815857,0.4702914297184143,9.848062859436828
1535000000.0,21.65,0.0,0.0,0.0,0.7638066596310666,0.4617566701844667,9.8218700105534
1540000000.0,21.65,0.0,0.0,0.0,0.7471295401746954,0.4700952299126523,9.837860459825304
1545000000.0,21.65,0.0,0.0,0.0,0.74556,0.48873426001954257,9.830502869990228
1550000000.0,21.65,0.0,0.0,0.0,0.7632180602137807,0.4551838795724388,9.83844903010689
1555000000.0,21.65,0.0,0.0,0.0,0.7215253489799536,0.4774527906120279,9.84816093020401
1560000000.0,21.65,0.0,0.0,0.0,0.7506613212045132,0.4547915090966151,9.814708678795487
1565000000.0,21.65,0.0,0.0,0.0,0.7297658088052581,0.47686419119474194,9.81
1570000000.0,21.65,0.0,0.0,0.0,0.7596865219814652,0.4891266304953663,9.8353098914861
1575000000.0,21.65,0.0,0.0,0.0,0.7651800000000001,0.4905,9.847768530592486
1580000000.0,21.65,0.0,0.0,0.0,0.7486991386207914,0.4740191386207914,9.832759138620792
1585000000.0,21.65,0.0,0.0,0.0,0.7537023307867233,0.4871646615734466,9.813335338426555
1590000000.0,21.65,0.0,0.0,0.0,0.7634142308838424,0.4824557691161577,9.785867307348473
1595000000.0,21.65,0.0,0.0,0.0,0.7651800000000001,0.4886361309809613,9.772623869019037
1600000000.0,21.65,0.0,0.0,0.0,0.7494839378438394,0.4826519689219197,9.825696217546563
1605000000.0,21.65,0.0,0.0,0.0,0.7610598623503987,0.4729400688248007,9.8549298623504
1610000000.0,21.65,0.0,0.0,0.0,0.7575281687276817,0.4632281687276817,9.874353662544637
1615000000.0,21.65,0.0,0.0,0.0,0.7327088058916881,0.48373119410831195,9.803132686305627
1620000000.0,21.65,0.0,0.0,0.0,0.7557625258662253,0.4830443685334437,9.80293689439967
1625000000.0,21.65,0.0,0.0,0.0,0.7504649368726494,0.49540506312735066,9.81
1630000000.0,21.65,0.0,0.0,0.0,0.7600788633215887,0.4857911366784114,9.839037726643177
1635000000.0,21.65,0.0,0.0,0.0,0.7723413317579134,0.48069,9.842078668242086
1640000000.0,21.65,0.0,0.0,0.0,0.7608635362899354,0.4736267681449677,9.832366768144968
1645000000.0,21.65,0.0,0.0,0.0,0.75537,0.47784513195215134,9.815689736095697
1650000000.0,21.65,0.0,0.0,0.0,0.7622370320492704,0.4738229679507297,9.80313296795073
1655000000.0,21.65,0.0,0.0,0.0,0.7516421357072214,0.4776489321463893,9.80695893214639
1660000000.0,21.65,0.0,0.0,0.0,0.7589016644870167,0.46067750326947504,9.81
1665000000.0,21.65,0.0,0.0,0.0,0.745461802978118,0.470978197021882,9.829718197021883
1670000000.0,21.65,0.0,0.0,0.0,0.755173897313239,0.4871646324377463,9.83943
1675000000.0,21.65,0.0,0.0,0.0,0.7524269349302694,0.4841234674651347,9.82667693493027
1680000000.0,21.65,0.0,0.0,0.0,0.74556,0.48069,9.813531567368017
1685000000.0,21.65,0.0,0.0,0.0,0.7517403327291033,0.48069,9.803819667270897
1690000000.0,21.65,0.0,0.0,0.0,0.7432055343475553,0.4746077671737777,9.818436698478667
1695000000.0,21.65,0.0,0.0,0.0,0.7537023987700241,0.46489586707665864,9.817651734153317
1700000000.0,21.65,0.0,0.0,0.0,0.7357498348976984,0.478728099061381,9.81588603302046
1705000000.0,21.65,0.0,0.0,0.0,0.7277058662351586,0.4847120668824207,9.814022066882421
1710000000.0,21.65,0.0,0.0,0.0,0.7471296664293967,0.47500016678530166,9.81
1715000000.0,21.65,0.0,0.0,0.0,0.7497782666881827,0.47088,9.804408266688183
1720000000.0,21.65,0.0,0.0,0.0,0.762040900226809,0.47088,9.822164533635746
1725000000.0,21.65,0.0,0.0,0.0,0.7695944664939447,0.46008893298788933,9.82863893298789
1730000000.0,21.65,0.0,0.0,0.0,0.749287699190477,0.467152300809523,9.830404867206349
1735000000.0,21.65,0.0,0.0,0.0,0.7409493337002934,0.47549066629970665,9.82383199889912
1740000000.0,21.65,0.0,0.0,0.0,0.74556,0.4810824675948247,9.81
1745000000.0,21.65,0.0,0.0,0.0,0.7405568661054687,0.4905,9.830012535578126
1750000000.0,21.65,0.0,0.0,0.0,0.7406550339916503,0.4659748300417483,9.83452489802505
1755000000.0,21.65,0.0,0.0,0.0,0.731139197733692,0.4510638681775387,9.81981
1760000000.0,21.65,0.0,0.0,0.0,0.730256502557665,0.4846141709294417,9.800974663256447
1765000000.0,21.65,0.0,0.0,0.0,0.7547814685660147,0.496287797150978,9.79901293713203
1770000000.0,21.65,0.0,0.0,0.0,0.7651800000000001,0.48069,9.83334790314038
1775000000.0,21.65,0.0,0.0,0.0,0.7563509310455093,0.4718609310455093,9.835996396568264
1780000000.0,21.65,0.0,0.0,0.0,0.74556,0.47401930372309303,9.815493565425635
1785000000.0,21.65,0.0,0.0,0.0,0.7413416653285166,0.48628166532851663,9.801563330657034
1790000000.0,21.65,0.0,0.0,0.0,0.73575,0.47656976523139766,9.80686093907441
1795000000.0,21.65,0.0,0.0,0.0,0.7478164045971641,0.4789242697314427,9.82962
1800000000.0,21.65,0.0,0.0,0.0,0.7573319300743193,0.4905,9.82569596503716
1805000000.0,21.65,0.0,0.0,0.0,0.7417340649400407,0.4866740649400407,9.82363593505996
1810000000.0,21.65,0.0,0.0,0.0,0.73575,0.47696216484292164,9.83334783515708
1815000000.0,21.65,0.0,0.0,0.0,0.73575,0.4745097352541974,9.835800264745803
1820000000.0,21.65,0.0,0.0,0.0,0.7428132707026327,0.48069,9.833151635351317
1825000000.0,21.65,0.0,0.0,0.0,0.75537,0.4772564645515647,9.83256292910313
1830000000.0,21.65,0.0,0.0,0.0,0.7486991289088912,0.47088,9.823145435545555
1835000000.0,21.65,0.0,0.0,0.0,0.7389873356426734,0.46764266435732665,9.82962
1840000000.0,21.65,0.0,0.0,0.0,0.7518384714795847,0.4673484714795847,9.823341528520416
1845000000.0,21.65,0.0,0.0,0.0,0.7621388641630887,0.47764886416308866,9.813041135836912
1850000000.0,21.65,0.0,0.0,0.0,0.7524269640659697,0.47676607186806075,9.81686696406597
1855000000.0,21.65,0.0,0.0,0.0,0.7484049360311493,0.4876550639688506,9.81284493603115
1860000000.0,21.65,0.0,0.0,0.0,0.75537,0.47519632774346326,9.82255683612827
1865000000.0,21.65,0.0,0.0,0.0,0.75537,0.4716649449015494,9.824322527549226
1870000000.0,21.65,0.0,0.0,0.0,0.7528193636774936,0.4901074547099746,9.815101272645013
1875000000.0,21.65,0.0,0.0,0.0,0.74556,0.47088014567850145,9.822262390741125
1880000000.0,21.65,0.0,0.0,0.0,0.7479144365167444,0.50031,9.807253309550234
1885000000.0,21.65,0.0,0.0,0.0,0.75537,0.49805366338613666,9.822850990158411
1890000000.0,21.65,0.0,0.0,0.0,0.75537,0.48618352657803526,9.80882294684393
1895000000.0,21.65,0.0,0.0,0.0,0.7594902736162027,0.47500027361620273,9.843550273616202
1900000000.0,21.65,0.0,0.0,0.0,0.7710659261895593,0.48853796309477965,9.847277778568678
1905000000.0,21.65,0.0,0.0,0.0,0.7516421259953212,0.4750981889929819,9.80578181100702
1910000000.0,21.65,0.0,0.0,0.0,0.7375158370994583,0.45655751129837513,9.822556651602167
1915000000.0,21.65,0.0,0.0,0.0,0.7472277371965774,0.47735452560684527,9.798718685982887
1920000000.0,21.65,0.0,0.0,0.0,0.7522307254126073,0.46263963729369634,9.83943
1925000000.0,21.65,0.0,0.0,0.0,0.7386930747816307,0.47088,9.837958462609185
1930000000.0,21.65,0.0,0.0,0.0,0.7526231250241312,0.47500031246380314,9.826873125024132
1935000000.0,21.65,0.0,0.0,0.0,0.73575,0.49775932482989327,9.81
1940000000.0,21.65,0.0,0.0,0.0,0.7381044753643448,0.4818672376821724,9.81
1945000000.0,21.65,0.0,0.0,0.0,0.7564491377792913,0.4883417244414172,9.813237413337875
1950000000.0,21.65,0.0,0.0,0.0,0.7671420757528208,0.4738231136292312,9.83943
1955000000.0,21.65,0.0,0.0,0.0,0.7812682481058826,0.4985441240529413,9.836781186079412
1960000000.0,21.65,0.0,0.0,0.0,0.7463448380706483,0.47833548578805485,9.808430323858703
1965000000.0,21.65,0.0,0.0,0.0,0.7539965236644652,0.45263347633553475,9.792440214503303
1970000000.0,21.65,0.0,0.0,0.0,0.7369272765297727,0.47029136173511366,9.820398638264887
1975000000.0,21.65,0.0,0.0,0.0,0.7558605383620054,0.46254161508601616,9.830110538362005
1980000000.0,21.65,0.0,0.0,0.0,0.7636102461635026,0.48971512308175125,9.83864512308175
1985000000.0,21.65,0.0,0.0,0.0,0.7265286771124868,0.4711743385562434,9.819515661443758
1990000000.0,21.65,0.0,0.0,0.0,0.7449712840399129,0.4808862386533624,9.810196238653363
1995000000.0,21.65,0.0,0.0,0.0,0.7164244162514442,0.4903037224990372,9.820104416251445
2000000000.0,21.65,0.0,0.0,0.0,0.74556,0.47088003884760044,9.84924
2005000000.0,21.65,0.0,0.0,0.0,0.74556,0.4805919389447194,9.84924
2010000000.0,21.65,0.0,0.0,0.0,0.74556,0.4999176780836768,9.810784643832648
2015000000.0,21.65,0.0,0.0,0.0,0.7645914782779148,0.48127852172208524,9.790968521722085
2020000000.0,21.65,0.0,0.0,0.0,0.7557623607639236,0.48069,9.809215278472154
2025000000.0,21.65,0.0,0.0,0.0,0.7460504606668046,0.48069,9.837958617999586
2030000000.0,21.65,0.0,0.0,0.0,0.7547814394303144,0.48069,9.85787287886063
2035000000.0,21.65,0.0,0.0,0.0,0.7462466604725666,0.48069,9.795186623307966
2040000000.0,21.65,0.0,0.0,0.0,0.7365347603754476,0.4897152396245524,9.781354760375448
2045000000.0,21.65,0.0,0.0,0.0,0.7446771397216714,0.4905,9.825205698608357
2050000000.0,21.65,0.0,0.0,0.0,0.7543890398187904,0.4905,9.83844903981879
2055000000.0,21.65,0.0,0.0,0.0,0.75537,0.4730381201681812,9.848160939915909
2060000000.0,21.65,0.0,0.0,0.0,0.75537,0.4795128400130284,9.814708639947886
2065000000.0,21.65,0.0,0.0,0.0,0.7297657796695578,0.48069,9.801465259889854
2070000000.0,21.65,0.0,0.0,0.0,0.7596865608290657,0.46381671958546716,9.808626640207267
2075000000.0,21.65,0.0,0.0,0.0,0.7401643790868438,0.4694085403043854,9.818338540304385
2080000000.0,21.65,0.0,0.0,0.0,0.7522308808030088,0.45439911919699116,9.852771761606018
2085000000.0,21.65,0.0,0.0,0.0,0.75537,0.46754468099724683,9.842765319002753
2090000000.0,21.65,0.0,0.0,0.0,0.7473257594042576,0.4789242405957424,9.823341518808515
2095000000.0,21.65,0.0,0.0,0.0,0.7376138593071386,0.49658228138572286,9.803917718614278
2100000000.0,21.65,0.0,0.0,0.0,0.7514460815799608,0.4846139184200392,9.808038040789981
2105000000.0,21.65,0.0,0.0,0.0,0.7631199408870994,0.46519011822580114,9.81
2110000000.0,21.65,0.0,0.0,0.0,0.7498763180315632,0.4763736819684368,9.817651840984219
2115000000.0,21.65,0.0,0.0,0.0,0.7304525178373252,0.4731362589186626,9.842471223244011
2120000000.0,21.65,0.0,0.0,0.0,0.7557625647138257,0.4783356411784564,9.819417435286175
2125000000.0,21.65,0.0,0.0,0.0,0.7431073761732738,0.4733324587244246,9.81
2130000000.0,21.65,0.0,0.0,0.0,0.7575283241180834,0.48539888274538884,9.817259441372695
2135000000.0,21.65,0.0,0.0,0.0,0.7580186585301866,0.4833386585301866,9.848455365879254
2140000000.0,21.65,0.0,0.0,0.0,0.7483067584330676,0.49481648313386484,9.844923516866135
2145000000.0,21.65,0.0,0.0,0.0,0.7525251416640514,0.47244943334379436,9.860325424992155
2150000000.0,21.65,0.0,0.0,0.0,0.7691040835223408,0.4748040835223408,9.827657749432978
2155000000.0,21.65,0.0,0.0,0.0,0.7546831744251318,0.4671521162834211,9.81676894185829
2160000000.0,21.65,0.0,0.0,0.0,0.7522308419554085,0.46774084195540844,9.826480841955409
2165000000.0,21.65,0.0,0.0,0.0,0.75537,0.47088,9.82962
2170000000.0,21.65,0.0,0.0,0.0,0.75537,0.47088,9.816670715700708
2175000000.0,21.65,0.0,0.0,0.0,0.75537,0.47725654224676545,9.803623457753234
2180000000.0,21.65,0.0,0.0,0.0,0.7616484423438845,0.4744115576561156,9.793911557656116
2185000000.0,21.65,0.0,0.0,0.0,0.7589996575589966,0.48324068488200683,9.815101369764013
2190000000.0,21.65,0.0,0.0,0.0,0.7432055149237552,0.4905,9.817455514923756
2195000000.0,21.65,0.0,0.0,0.0,0.7537024279057243,0.47853171472951717,9.821968285270483
2200000000.0,21.65,0.0,0.0,0.0,0.7592939572676396,0.4649939572676396,9.81784791453528
2205000000.0,21.65,0.0,0.0,0.0,0.75537,0.46685794282947946,9.792636171511562
2210000000.0,21.65,0.0,0.0,0.0,0.75537,0.46519015707340156,9.786259842926599
2215000000.0,21.65,0.0,0.0,0.0,0.7497782569762825,0.47225348604743483,9.83511394418974
2220000000.0,21.65,0.0,0.0,0.0,0.7400663568791636,0.48618364312083645,9.852379070637491
2225000000.0,21.65,0.0,0.0,0.0,0.7411455432179554,0.4905,9.82863891356409
2230000000.0,21.65,0.0,0.0,0.0,0.7402625566849256,0.48520255668492557,9.803917670054778
2235000000.0,21.65,0.0,0.0,0.0,0.73575,0.48069,9.779981313175613
2240000000.0,21.65,0.0,0.0,0.0,0.7561549740372497,0.47048751298137514,9.79116497403725
2245000000.0,21.65,0.0,0.0,0.0,0.7649837127871372,0.4710762872128629,9.85002514885145
2250000000.0,21.65,0.0,0.0,0.0,0.7504649562964496,0.47578495629644957,9.868859825185798
2255000000.0,21.65,0.0,0.0,0.0,0.74556,0.47568694380066945,9.830012224797322
2260000000.0,21.65,0.0,0.0,0.0,0.754977687795577,0.4853988438977884,9.800582312204424
2265000000.0,21.65,0.0,0.0,0.0,0.7651800000000001,0.4812785120101851,9.785769256005093
2270000000.0,21.65,0.0,0.0,0.0,0.7651800000000001,0.47088,9.812158508644185
2275000000.0,21.65,0.0,0.0,0.0,0.7695945441891455,0.47529454418914546,9.84924
2280000000.0,21.65,0.0,0.0,0.0,0.7534077785686778,0.48069,9.844923555713736
2285000000.0,21.65,0.0,0.0,0.0,0.7385950331501503,0.48069,9.818338278083083
2290000000.0,21.65,0.0,0.0,0.0,0.747129511038995,0.47244951103899513,9.786259755519499
2295000000.0,21.65,0.0,0.0,0.0,0.7478164337328643,0.46509214457762144,9.80872501204335
2300000000.0,21.65,0.0,0.0,0.0,0.7534078659757787,0.47088,9.84924
2305000000.0,21.65,0.0,0.0,0.0,0.73575,0.47088,9.837762165684422
2310000000.0,21.65,0.0,0.0,0.0,0.7432056897379569,0.47460784486897845,9.81981
2315000000.0,21.65,0.0,0.0,0.0,0.75537,0.4879494899321949,9.823439744966098
2320000000.0,21.65,0.0,0.0,0.0,0.7518383549367835,0.4932467098735671,9.833151645063216
2325000000.0,21.65,0.0,0.0,0.0,0.7489935451603354,0.48069,9.835996454839664
2330000000.0,21.65,0.0,0.0,0.0,0.75537,0.48402544525745445,9.82294910948509
2335000000.0,21.65,0.0,0.0,0.0,0.7521326546454266,0.48726265464542656,9.813237345354574
2340000000.0,21.65,0.0,0.0,0.0,0.751838490903385,0.4869684909033849,9.816670754548309
2345000000.0,21.65,0.0,0.0,0.0,0.7590977089023772,0.50031,9.816082291097624
2350000000.0,21.65,0.0,0.0,0.0,0.74556,0.4944239087081391,9.82667695435407
2355000000.0,21.65,0.0,0.0,0.0,0.7427150542569505,0.47784505425695056,9.828344837229148
2360000000.0,21.65,0.0,0.0,0.0,0.73575,0.47088,9.838252616639327
2365000000.0,21.65,0.0,0.0,0.0,0.7383987459372875,0.46823125406271254,9.807351254062713
2370000000.0,21.65,0.0,0.0,0.0,0.74556,0.4661712920688129,9.80784193810322
2375000000.0,21.65,0.0,0.0,0.0,0.7529176383945764,0.48069,9.827167453868475
2380000000.0,21.65,0.0,0.0,0.0,0.7679266613140666,0.48304444622864445,9.81981
2385000000.0,21.65,0.0,0.0,0.0,0.7433036536742366,0.48824365367423656,9.81981
2390000000.0,21.65,0.0,0.0,0.0,0.7379082464228824,0.48069,9.815493507154235
2395000000.0,21.65,0.0,0.0,0.0,0.7393795604399956,0.48069,9.802250146520002
2400000000.0,21.65,0.0,0.0,0.0,0.7239781864684819,0.4748038601486386,9.815886139851361
2405000000.0,21.65,0.0,0.0,0.0,0.7535060532857605,0.45126,9.83943
2410000000.0,21.65,0.0,0.0,0.0,0.749091693622717,0.46008923405679236,9.835898306377283
2415000000.0,21.65,0.0,0.0,0.0,0.7601767592745676,0.49530675927456763,9.823145493816956
2420000000.0,21.65,0.0,0.0,0.0,0.7373196470055965,0.47401929401119297,9.836290705988807
2425000000.0,21.65,0.0,0.0,0.0,0.7440884528972845,0.4890284528972845,9.822753094205432
2430000000.0,21.65,0.0,0.0,0.0,0.7412437887993379,0.47931655280016555,9.838056552800166
2435000000.0,21.65,0.0,0.0,0.0,0.7724393054060931,0.47088,9.82962
2440000000.0,21.65,0.0,0.0,0.0,0.7541927526059276,0.47323449478814494,9.828442752605929
2445000000.0,21.65,0.0,0.0,0.0,0.7444808525088086,0.48834170501761703,9.820889147491192
2450000000.0,21.65,0.0,0.0,0.0,0.737712095176621,0.47088,9.82863895241169
2455000000.0,21.65,0.0,0.0,0.0,0.7562529476854295,0.46999705231457056,9.82157589537086
2460000000.0,21.65,0.0,0.0,0.0,0.7643951522174516,0.46263969556509693,9.837860304434903
2465000000.0,21.65,0.0,0.0,0.0,0.75537,0.482063495759335,9.81981
2470000000.0,21.65,0.0,0.0,0.0,0.75537,0.50031,9.820398647976786
2475000000.0,21.65,0.0,0.0,0.0,0.7558605480739055,0.4993289038521891,9.830110548073906
2480000000.0,21.65,0.0,0.0,0.0,0.7643951036579512,0.48029755182897554,9.839037551828975
2485000000.0,21.65,0.0,0.0,0.0,0.7458543482681435,0.47088,9.83050304480443
2490000000.0,21.65,0.0,0.0,0.0,0.7551737516347375,0.4710762483652625,9.85826500653895
2495000000.0,21.65,0.0,0.0,0.0,0.7456581484623814,0.48069,9.819613703075238
2500000000.0,21.65,0.0,0.0,0.0,0.7553699514404995,0.48068995144049953,9.8001899514405
2505000000.0,21.65,0.0,0.0,0.0,0.7456580513433805,0.47097805134338055,9.790478051343381
2510000000.0,21.65,0.0,0.0,0.0,0.7551738487537385,0.46126615124626147,9.828835395014954
2515000000.0,21.65,0.0,0.0,0.0,0.7648857488508576,0.4705857488508575,9.82962
2520000000.0,21.65,0.0,0.0,0.0,0.7557623510520235,0.4802976489479765,9.820202351052023
2525000000.0,21.65,0.0,0.0,0.0,0.774009098090191,0.462050901909809,9.810490450954905
2530000000.0,21.65,0.0,0.0,0.0,0.7473256525733565,0.46107,9.782335652573357
2535000000.0,21.65,0.0,0.0,0.0,0.7546833492393334,0.4884400477180005,9.807940047718
2540000000.0,21.65,0.0,0.0,0.0,0.75537,0.4905,9.855126246682262
2545000000.0,21.65,0.0,0.0,0.0,0.75537,0.4994271494335715,9.85905
2550000000.0,21.65,0.0,0.0,0.0,0.7465409504693095,0.4914809504693095,9.806075702815857
2555000000.0,21.65,0.0,0.0,0.0,0.74556,0.48176905037219053,9.80019
2560000000.0,21.65,0.0,0.0,0.0,0.7628256994498571,0.4720571502750715,9.80882284972493
2565000000.0,21.65,0.0,0.0,0.0,0.748110500355905,0.4794147498220475,9.852673749110238
2570000000.0,21.65,0.0,0.0,0.0,0.7708699497574996,0.4722533500808335,9.850613350080833
2575000000.0,21.65,0.0,0.0,0.0,0.7666514499837146,0.49589565004885655,9.83256289996743
2580000000.0,21.65,0.0,0.0,0.0,0.748699099773191,0.47558864965978653,9.804898649659787
2585000000.0,21.65,0.0,0.0,0.0,0.7537023502105235,0.487164700421047,9.80019
2590000000.0,21.65,0.0,0.0,0.0,0.7473257496923575,0.474411499384715,9.808234250307644
2595000000.0,21.65,0.0,0.0,0.0,0.729667699190477,0.47088,9.833838451214286
2600000000.0,21.65,0.0,0.0,0.0,0.741636101003761,0.4787280505018805,9.862974151505641
2605000000.0,21.65,0.0,0.0,0.0,0.7533099505989995,0.47294004940100054,9.830110247005003
2610000000.0,21.65,0.0,0.0,0.0,0.7477181493038815,0.49383555208835556,9.796854447911645
2615000000.0,21.65,0.0,0.0,0.0,0.7531137507932375,0.47764874762028753,9.805487501586475
2620000000.0,21.65,0.0,0.0,0.0,0.75537,0.47088,9.839822603561426
2625000000.0,21.65,0.0,0.0,0.0,0.7627275509874756,0.47088,9.856597550987475
2630000000.0,21.65,0.0,0.0,0.0,0.7651800000000001,0.485398902169189,9.800974391323244
2635000000.0,21.65,0.0,0.0,0.0,0.7150505417280054,0.4905,9.78057
2640000000.0,21.65,0.0,0.0,0.0,0.6823834974423351,0.4905,9.794696502557665
2645000000.0,21.65,-0.0052913537230520735,0.007559076747217328,0.0,0.8022627247671272,0.46960454587214545,9.862876362383563
2650000000.0,21.65,-0.01566264624742782,0.14264325850951132,-0.007452611768246109,1.0388803897729038,0.5640757720960577,9.799208330850083
2655000000.0,21.65,0.0021347000730684816,0.12643685615445535,-0.003300361647890511,0.18422468331384667,0.20208290578862903,10.370155641317057
2660000000.0,21.65,-0.01219165902395673,0.2972953763025143,-0.013043295589383126,-0.36885703334617037,0.5799715400539154,9.996777388271074
2665000000.0,21.65,0.022236203462412153,0.23320544672764257,-0.006329684384935082,-1.4569892752506928,0.5544589223651892,9.501670198831603
2670000000.0,21.65,0.0032519142690198843,0.13336986397908263,-0.0028107007409444527,-1.2562629470914293,0.37317208883072084,9.103481362507313
2675000000.0,21.65,-0.02019260369771809,0.09896434009537654,0.0019696548111848714,-2.168020391733104,0.37228965587599655,10.381444190699742
2680000000.0,21.65,0.014825126273222664,-0.16119786914655265,0.00941154735523395,-1.7245886299587863,0.526994397283044,10.274986712190167
2685000000.0,21.65,0.0036153579654876825,-0.20980177415934914,0.013723366355516159,-0.8355155617309558,0.4969736612477366,9.94125915597549
2690000000.0,21.65,0.010189098680900694,-0.4247386489903807,0.010944576650145713,-0.6258774774997748,0.291748198249482,9.798422162249121
2695000000.0,21.65,-0.018624969574027022,-0.43183322394894424,0.01762005109180917,1.7033303489552036,1.474650297594003,9.09651383171584
2700000000.0,21.65,0.040687895741433375,-0.4201434304592715,0.017041337806932583,3.221604471998345,1.1556079307019793,10.524183890610939
2705000000.0,21.65,-0.056798617534475654,-0.14248823999096955,0.0046098640251669674,4.588149084517291,0.09544851530688514,10.7234001154241
2710000000.0,21.65,-0.09343728378655256,0.07122460376591797,-0.0010646508437165,3.8062642084504423,-0.453421305671413,9.244740483248705
2715000000.0,21.65,-0.012399765927127774,0.13843679871669023,-0.002885220956202565,2.2347148358629485,-0.38337184680541847,8.280617308506773
2720000000.0,21.65,-0.002342346531849218,0.3368868604034734,-0.009624495231250255,1.7289119696941198,0.056115154811251566,9.056602302383622
2725000000.0,21.65,0.06386495671878281,0.34637446548984585,-0.013254897259947185,0.5861382372752824,0.38308214082552144,10.77776512756645
2730000000.0,21.65,0.11937452341345431,0.3134912764373172,-0.01392564454553973,-0.43537029226780294,0.927833883077039,11.338396409190764
2735000000.0,21.65,0.08744822927769252,0.23962608330742347,-0.010390946111443207,-1.3753694373730943,1.2077084093867843,10.449113797006438
2740000000.0,21.65,0.0495106518196475,0.07422608820929581,-0.005834280847622805,-1.4342158795605588,0.9896311501424115,8.969470737827207
2745000000.0,21.65,-0.015936982654066623,-0.02203517547705156,0.00010652294921023944,-1.3329874920131748,0.9687388329582883,8.736104791788149
2750000000.0,21.65,-0.04793527071217836,-0.16565037676786612,0.009049572750757864,-0.9466561864506619,0.7700815279957153,9.14291903852189
2755000000.0,21.65,-0.05384227849897682,-0.25446145958284294,0.01329749484558348,-0.12772609297486093,0.388769604336596,9.963144213875642
2760000000.0,21.65,-0.07422880062900412,-0.2982761005469429,0.014870915090279171,0.4897221156498212,0.18717324531903246,10.904011146390314
2765000000.0,21.65,-0.047712164100374405,-0.3464893249913961,0.01297666245408724,1.7517787355917873,-0.08986110379061107,10.483942166387322
2770000000.0,21.65,-0.016085564834595008,-0.2541767169912979,0.006153641002393,2.617898805960988,0.12105965051019654,9.700124233725141
2775000000.0,21.65,0.019392681095253914,-0.13864503780237347,0.0016502029580364556,3.236814404995144,0.2967495354424954,9.16155695176027
2780000000.0,21.65,0.025485661642124874,0.03349867552958394,-0.002682967008278971,3.369534318152343,0.22445560790455607,9.215517239889873
2785000000.0,21.65,0.015761507155243108,0.21829818726944447,-0.0074525559060157,2.5254814232339142,0.48059152133301525,9.680117331049074
2790000000.0,21.65,0.04659538636589474,0.2745364909100546,-0.010135511320246905,1.5166194969116948,0.5568171173872712,10.007379150926491
2795000000.0,21.65,0.03905812313710964,0.32885023348386727,-0.012967435492698843,0.41956810817928114,0.8689718630018186,10.357007554422776
2800000000.0,21.65,0.027911264080922926,0.27632651049923196,-0.010007694321238074,-0.4983524597045246,0.9044794438278945,10.34562295434813
2805000000.0,21.65,0.004326049959614362,0.1683195530623331,-0.005791676937960401,-0.9044809103248092,0.7502705434803055,9.801756548909465
2810000000.0,21.65,-0.03326259752819857,0.10476175964642452,-0.0019802327987994816,-1.1314904760217048,0.6845380339193804,9.530023527874935
2815000000.0,21.65,-0.04975416032704697,-0.021008162575603943,-0.00039392674621957193,-1.2470404199283043,0.2975377921019779,9.44104300206613
2820000000.0,21.65,-0.05837780254362883,-0.07700072147444671,0.001618310894540725,-0.6431461196553612,0.2507420115216201,9.572605120765152
2825000000.0,21.65,-0.044258651750594125,-0.17161659639352533,0.007133172563149892,-0.5336576348206763,0.041201561022115606,10.206811591771515
2830000000.0,21.65,-0.008453274008127898,-0.26083519322841614,0.008879194002260508,0.4128082080999821,0.07024091926450918,9.962252739141928
2835000000.0,21.65,0.018259981450175006,-0.25029624336020645,0.0095818575934488,1.0214207242543074,0.2644782607976826,10.001096377075164
2840000000.0,21.65,0.0599960480899001,-0.2934164274355786,0.007537692053044951,1.8847049780665497,0.7859849780665498,9.592608303783482
2845000000.0,21.65,0.032979761077594885,-0.16465728328135534,0.0015437137369653554,3.1324366813318667,1.2825513319361135,9.81049906541029
2850000000.0,21.65,-0.032915242465083025,-0.036861065229553285,-0.0018099004264932788,3.448208080271181,0.2619263910638639,10.173938101625481
2855000000.0,21.65,-0.04662236051422796,0.06782815374272586,-0.0035346889480573837,2.481731692711917,0.20061477727474777,8.727567594567276
2860000000.0,21.65,-0.0376708065563705,0.22157692634647694,-0.009283749328303321,1.939627589241076,0.2299462888958629,9.38935297741513
2865000000.0,21.65,0.00690950546293663,0.21371446215464238,-0.00909213028422904,1.0858659505930595,0.32441898161668986,10.224572714669128
2870000000.0,21.65,0.007606380928784236,0.27010868033843966,-0.009539247359760408,0.3900386874579868,0.6154793442536935,10.537510491940905
2875000000.0,21.65,0.03701403980904479,0.18295384177522828,-0.0063879050622992,-0.5297404467474045,0.6425557818079578,10.415762083187722
2880000000.0,21.65,0.024840727804178217,0.12489391545192323,-0.005110293694514192,-0.6945505173245051,0.7125976168323762,9.586721658913316
2885000000.0,21.65,-0.0020441539463560273,0.044641875601044725,-0.0008197750680566296,-0.8991813498155135,0.6037072879246729,9.22816906811299
2890000000.0,21.65,-0.01141705526464002,-0.025782064631911378,0.0,-0.49128558588695587,0.5627009263826093,9.376008855817389
2895000000.0,21.65,-0.0312329672088076,-0.05243106411485097,0.0008943311194625301,-0.48098109478161094,0.4214362504343625,9.914577186667472
2900000000.0,21.65,-0.0245044226980003,-0.12186588191770242,0.004045667092897594,0.041204309489843105,0.25898467594824676,10.298538788606288
2905000000.0,21.65,-0.018634702733961575,-0.13389272248077627,0.004407691235577943,0.38160956426139564,0.3457041742954417,10.27979700659637
2910000000.0,21.65,0.007921051351693355,-0.17905127037282761,0.009390214307274537,0.5935092392443924,0.31921756956977565,9.627334465127745
2915000000.0,21.65,0.015089075760772211,-0.18193635747047826,0.008336209961455142,1.2601947515743475,0.4300733442596334,9.244456614120768
2920000000.0,21.65,0.019053521175108466,-0.17198200736318645,0.00728220561563568,1.6951725373997255,0.85347,9.764484209004843
2925000000.0,21.65,0.021568254489242655,-0.15030748027668378,0.005110274722435986,2.4309209543600097,0.7607619206792191,10.205345386213855
2930000000.0,21.65,-0.0474918267208409,0.015729157360122262,-0.002129301687433,2.784859499119395,0.23269308617653087,10.344047635592878
2935000000.0,21.65,-0.002951531289708544,0.01989986434064386,-0.002821355670876301,2.2330475065661752,0.23877642615936429,9.06267499812395
2940000000.0,21.65,-0.025481596260969214,0.15156815569529497,-0.007580320204807246,1.7595189160192892,0.3853364573641646,9.242200112404602
2945000000.0,21.65,0.008263709840558952,0.19491656284786207,-0.00804873554615463,1.2544975373155756,0.3605189300772893,9.770960890653509
2950000000.0,21.65,0.022479784696111477,0.20953710554709673,-0.004045660768871509,0.40907453609094535,0.5886005730021058,10.50160585950316
2955000000.0,21.65,0.014225331087159954,0.1795250967305837,-0.002225126492533178,-0.035908847402388464,0.6680604260267043,10.570467067392272
2960000000.0,21.65,0.01581530697552689,0.09173536482666018,-0.0029384176095404503,-0.6698248451887484,0.5811445724833457,9.871210260399703
2965000000.0,21.65,-0.009901190344106116,0.0061109833385089955,-0.00014906361861185142,-0.3574759392674594,0.6013524240843242,9.220713242408431
2970000000.0,21.65,-0.0013426388397719683,-0.01529083132014913,-0.0019376457532065874,-0.26977355778283557,0.5042334231131342,9.242200199811702
2975000000.0,21.65,-0.022694553891637406,-0.06976847594126294,0.0008516955896697645,-0.01373099513810995,0.41202,9.74623788929028
2980000000.0,21.65,-0.02786788921027848,-0.039579903772490155,-0.0029383986374622254,0.4638157581073576,0.40534821599028215,10.22162898919019
2985000000.0,21.65,-0.006419850880016639,-0.043444517160876016,0.003098115077997278,0.3025420234412202,0.24878229576052296,10.42056906583599
2990000000.0,21.65,-0.007239562707812514,-0.03636467721762453,0.00014909523874223003,0.5654473546110735,0.3633625161543252,9.545718774231489
2995000000.0,21.65,0.0033752251402689166,-0.0443824008630272,0.00742059744024611,0.3945594798341948,0.38445500531135,9.574952632697126
3000000000.0,21.65,0.021310451194772477,-0.1150522307719876,0.004258622346944324,0.6082224473988245,0.5689801165428012,9.613801573327816
3005000000.0,21.65,0.01814843815731424,-0.13613231768837605,0.007420635384402559,1.0161222514778225,0.5884039167370392,9.876022875950028
3010000000.0,21.65,0.02228997432349462,-0.16663689081367516,0.005365827562119036,1.4240220555568206,0.9827681970911819,10.253610480159905
3015000000.0,21.65,0.013063732146170699,-0.14245274824345136,0.0011923835223776645,2.507540717591607,0.5150220718621208,9.98530300168003
3020000000.0,21.65,-0.030167934539057674,-0.01895351121248999,4.257966756241122e-05,2.3147661921629616,0.3872980960814809,9.439963456387035
3025000000.0,21.65,-0.02083130714318908,0.07014094879187731,-0.0030342740347709964,2.2307935299440356,0.31735308870103085,9.268487059888072
3030000000.0,21.65,-0.02424893204457368,0.1727023521191785,-0.004194730711509446,1.5444820447955205,0.29547708229177083,9.675605648435157
3035000000.0,21.65,-0.0056756890642822196,0.2076961119578442,-0.005248735057328917,0.9808985397796854,0.3764102305611023,10.276861613927716
3040000000.0,21.65,0.010433674393618399,0.19417056917257464,-0.002384798664885708,0.0753351313581514,0.5089436266769363,10.329145259048351
3045000000.0,21.65,0.017540074002313815,0.12883140394484968,-0.006004656434107107,-0.2588876152186762,0.5110028408545284,9.93713499759925
3050000000.0,21.65,0.013309848623175687,0.057316175223690244,-0.0035133284959850317,-0.4080968293962683,0.5984105924259059,9.633418222722282
3055000000.0,21.65,0.0023528075249814265,-0.0011250381393253725,-0.002246406840275273,-0.3257894472631945,0.547103284622033,9.534142325282323
3060000000.0,21.65,-0.01205193785796357,-0.03182729392658522,-0.0011924024944558835,-0.06356707633197078,0.46185426506854266,9.680901469862915
3065000000.0,21.65,-0.021265666999366415,-0.04163470000072592,0.0017141072415234845,0.09005663347526636,0.365912404660524,9.932528507416585
3070000000.0,21.65,-0.009541624312347773,-0.044434699435547335,0.00029808929306725327,0.2766431926213319,0.3362866807378668,10.101946554097065
3075000000.0,21.65,0.002502000786127824,-0.0447327887286146,0.0036198387971430918,0.37081847782548477,0.458618395922784,9.91545600679536
3080000000.0,21.65,0.019476588670627362,-0.07785169892430302,0.006941542979032075,0.3661090803493908,0.5383732187771323,9.746822642795125
3085000000.0,21.65,0.014407634339741841,-0.12747393134165363,0.0056852224990326826,0.6316678774399789,0.5656447198448472,9.67285584046546
3090000000.0,21.65,0.005791648479843057,-0.16954851259168313,0.007069294629771475,1.0808687409575874,0.5528914799609148,9.69502704007817
3095000000.0,21.65,-0.006952254825198678,-0.18632287059673575,0.005727808490621169,1.7395135283996352,0.8989910451331105,9.837174721983247
3100000000.0,21.65,-0.02577863732079641,-0.12889908892464647,0.0019163453793819632,2.78408498479855,0.37669936353889366,10.269111070902811
3105000000.0,21.65,-0.024781192645164707,-0.03571179440719807,-0.0014585912919925675,2.5311724607242247,0.2488798809326988,9.60967388953184
3110000000.0,21.65,-0.018457166570248238,0.08314058014322627,-0.002959735901438979,2.380494418775944,0.25506,9.224145350207555
3115000000.0,21.65,0.000996902105296238,0.16000764216890268,-0.005653315679476014,1.7470578780735788,0.34570512606165127,9.542484264751744
3120000000.0,21.65,0.009624469935145983,0.23218301383793152,-0.008006187498722592,0.9782484730239848,0.5517158544541585,10.11529095733991
3125000000.0,21.65,0.017846050997378703,0.22796163236735661,-0.006920217309103152,0.15450221915432216,0.5935048786012488,10.39369609258876
3130000000.0,21.65,0.009990876887077602,0.18109957103146154,-0.004812208617464296,-0.41457357902823583,0.6394162255754623,10.096645342564754
3135000000.0,21.65,-0.005270120805505565,0.09336977434167634,-0.00270419992582544,-0.7185840223403404,0.5212041430213414,9.711799646936296
3140000000.0,21.65,-0.010348412820072043,0.024624143699562596,-0.0013627464608098282,-0.6505980411760804,0.49206978297219783,9.472534780185347
3145000000.0,21.65,-0.015950261484620493,-0.03610619213785142,0.00044716661373560046,-0.4939325836822258,0.4236932280336323,9.570833543932736
3150000000.0,21.65,-0.00990641568296242,-0.07893797064555914,0.0003193886128875713,-0.14224224667632246,0.38553293881502937,9.818830651994206
3155000000.0,21.65,-0.009326367994026566,-0.10198354109045818,0.002938462931727297,0.12556922564179224,0.4028968838462688,10.108127799744778
3160000000.0,21.65,-0.006302693026957082,-0.12207893308614466,0.0035346341398314143,0.5199330689604307,0.32529880207028805,10.022286742761368
3165000000.0,21.65,2.1333047959351016e-05,-0.13103253347119398,0.004620598005424795,0.7228993303342933,0.369935899192259,9.845511339331415
3170000000.0,21.65,0.007750711601356805,-0.13068116531244986,0.004620577979342191,1.0887170633926706,0.4638172925875729,9.716019399545194
3175000000.0,21.65,0.015502061376426903,-0.12718909713812435,0.003566573633522779,1.431280603434706,0.49687656167056565,9.647153753317737
3180000000.0,21.65,0.014698431201364263,-0.1072900949384778,0.001149802800810938,1.7654100089397002,0.7828407795458079,9.696204617676846
3185000000.0,21.65,0.004726969178009214,-0.058681600790759576,-0.0006707367455490779,2.2986831593474317,0.6389222686246228,9.947832665268127
3190000000.0,21.65,-0.01321262610464045,0.00671192642169819,-0.00040456059606454363,2.141715234436952,0.4245764282284643,9.880237617218476
3195000000.0,21.65,-0.02001158266734097,0.07525676641949543,-0.0019483312492645651,1.8014092449962924,0.39024167588191677,9.701108379409584
3200000000.0,21.65,-0.014060318378459712,0.10482450196787467,-0.0031939525311496,1.394978394942684,0.38847606215616065,9.686394248624643
3205000000.0,21.65,-0.009390206929244157,0.1279023207297384,-0.005078404793031434,0.9590233588819337,0.4039759245065593,9.771545547039356
3210000000.0,21.65,-0.0017246599330338966,0.14151547100848919,-0.005152896550172202,0.5468064695312647,0.4347794494015945,9.933607247007972
3215000000.0,21.65,0.004407668047482354,0.12665350090751773,-0.0042586033748661,0.1462647894418479,0.5015858620276586,9.948908850629788
3220000000.0,21.65,0.001745986656967226,0.10776002353632683,-0.0042586033748661,-0.07024028799100288,0.49560069964290704,9.93125197526782
3225000000.0,21.65,-0.002235780368460766,0.0742486115391793,-0.0030874738501218335,-0.28498244189442445,0.43409218679122186,9.838447621881377
3230000000.0,21.65,-0.007793298646949633,0.03782041642569363,-0.000979465158483032,-0.3052858197447582,0.4385073136943731,9.656570596178005
3235000000.0,21.65,-0.004375626315369476,0.0041174960549282096,0.0016928152997336401,-0.2943991682118917,0.45587063716400633,9.735151522243815
3240000000.0,21.65,0.004343802762156068,-0.05257885755455352,0.0031939525311496,-0.26055221547152213,0.4767663146655632,9.828049896535099
3245000000.0,21.65,0.002044074896030143,-0.1069098661018515,0.003736931301933219,0.018150706058107063,0.46528785878837864,9.950481216967413
3250000000.0,21.65,0.003194021041432128,-0.1629880521064036,0.005323267920639145,0.40221277760342783,0.45126025250940255,10.02091392683504
3255000000.0,21.65,0.004343720549817143,-0.19557280746562522,0.006909590837288576,0.9833592050596922,0.47088,9.793321103265912
3260000000.0,21.65,0.004088314216738182,-0.17943435668435045,0.004897359520554331,1.6508306626169067,0.6074370363260704,9.64793886332159
3265000000.0,21.65,0.009517992308122614,-0.1256976920644749,0.0016289089082378667,2.29397496614695,0.6401009145323091,9.777530612305107
3270000000.0,21.65,-0.006012893754529885,-0.017088347731220685,-0.0008943342814755923,2.4381741606928418,0.41535406616764065,9.944985981094959
3275000000.0,21.65,-0.014062824645285257,0.08559574500217691,-0.0031939525311496,2.0885478549669787,0.3659138905812389,9.782529201030393
3280000000.0,21.65,-0.0042160795695340494,0.14031356460868327,-0.0036624058166533683,1.5295683830230842,0.43281707257987073,9.614193419361035
3285000000.0,21.65,-0.0017991422041355428,0.15656955052473717,-0.003800796587259453,0.8067723581701236,0.45135854665028546,9.727400182843102
3290000000.0,21.65,0.0018098024040892075,0.1359930754204886,-0.002299631951730507,0.3682633740289338,0.4987405278086053,9.938121347885012
3295000000.0,21.65,-0.006143014530578447,0.08480465022175043,-0.000628137051904096,0.05405380401563804,0.47392052398720524,10.13451403198294
3300000000.0,21.65,-0.00255513419920493,0.015554054184014215,-0.0004258672939152824,0.07063123081751231,0.44929844868978447,9.963034333437944
3305000000.0,21.65,0.0012456623880545215,-0.02256690458299209,-0.0002342092516801783,0.18747224558732245,0.4866740358043404,9.718176859304169
3310000000.0,21.65,0.001980229636786444,-0.03338356189203491,0.0006600765455954606,0.4657785428288854,0.4695064071216641,9.57456
3315000000.0,21.65,-0.003939278002239326,-0.01496909523223832,0.0,0.5394536385272364,0.4367409424404094,9.687082696086827
3320000000.0,21.65,-0.006813695413897294,0.012739584375365369,0.0007665626046535924,0.6392183747466837,0.4226149934610499,9.963429947688399
3325000000.0,21.65,-0.001117904413289059,0.02807115021615765,0.0013840320785736505,0.47872722499037224,0.4586178229206782,10.096942177079322
3330000000.0,21.65,-0.0021079876115519067,0.03101392699760605,0.0,0.3321652416936524,0.4638162825499628,9.958325130199851
3335000000.0,21.65,-0.0007026836172708632,-0.004839541680195491,0.0003513418086354316,0.18325054088650541,0.4249694591134946,9.657256421427164
3340000000.0,21.65,-0.0014479110659563798,-0.04798082854677428,0.00140534615445481,0.23858088676280886,0.45439926487549265,9.535713827260839
3345000000.0,21.65,0.0029704393155707896,-0.10151417607391644,0.003449496938797816,0.5367077638770776,0.4732346598904466,9.785869609068797
3350000000.0,21.65,0.007346041388840241,-0.14711559741265776,0.0063879050622992,0.9702124486957246,0.5061961301394613,10.045440650697307
3355000000.0,21.65,0.0045993482238086796,-0.15140606966292414,0.00577039342820528,1.4764082583424827,0.6052789550054896,10.051520766329308
3360000000.0,21.65,0.007665415245667049,-0.13511747250683542,0.0042586033748661,2.0032062421579626,0.6988616589133166,9.870821347360312
3365000000.0,21.65,-0.0048915804665625555,-0.06886715459586391,0.0022463636260971294,2.4146322235004223,0.38631740783347407,9.702185681639758
3370000000.0,21.65,-0.015897449076342336,0.03355064829380984,-0.0031939525311496,2.2321660253776603,0.3484513309164133,9.457625323665653
3375000000.0,21.65,-0.008251008466156453,0.11185430103319345,-0.004524801658441946,1.9252083700144837,0.3752328277766283,9.596634663325748
3380000000.0,21.65,-0.0037475567197434003,0.18242008251868755,-0.009028253404855,1.329839923463099,0.419083396957334,9.919481832183118
3385000000.0,21.65,-0.0013946711984403515,0.22982478534397563,-0.0106465084371654,0.7205389112870891,0.4685263889947639,10.161688171252182
3390000000.0,21.65,0.0015331115072507112,0.2461164286417388,-0.009709587110096977,-0.05533248249432485,0.5419038732265388,10.069963353832934
3395000000.0,21.65,0.0007345303585798118,0.22154742395273574,-0.0063879050622992,-0.632748297190083,0.486870497831405,9.85394800867438
3400000000.0,21.65,-0.009794830765569449,0.16085220982092063,-0.005749093054380625,-1.0967605755959058,0.49442347167263473,9.747215537713554
3405000000.0,21.65,-0.01429823929780429,0.042000085069526245,-0.001980207502695182,-1.3506389481348895,0.426048101585881,9.690416033861961
3410000000.0,21.65,-0.010752937579988821,-0.07276409647465969,0.004152174232042678,-1.0840033441210337,0.407507598705476,9.716021458468015
3415000000.0,21.65,-0.004577926639484279,-0.20715692596122337,0.008879202434295292,-0.7111200677754007,0.42163340200633403,9.852182336677224
3420000000.0,21.65,0.005451062785556705,-0.2973284193560345,0.011157562470318513,0.2499639814929398,0.37748899928819,9.810001660734915
3425000000.0,21.65,0.011551454434394657,-0.35168923200149793,0.013521051275340498,1.085485214973552,0.5905705153940052,9.996879635155295
3430000000.0,21.65,0.0040854975197146875,-0.3523639819290694,0.010816809189341138,2.5390417220159174,1.4422557400893574,10.02994706223437
3435000000.0,21.65,-0.03732287678442634,-0.21738814393441128,0.004769606815810671,4.519356423219064,0.07180679805286798,10.609401754388918
3440000000.0,21.65,-0.04383843125904341,-0.040305052075533934,0.0005535894325329711,2.952811670446817,-0.2060083295531833,8.654380997731911
3445000000.0,21.65,-0.030717736985812427,0.17002039795723958,-0.0036624279507446417,3.022942466476125,0.027076670639866705,8.656548363628984
3450000000.0,21.65,0.023226899866580417,0.231906312591116,-0.008091390048025547,1.8001319844550199,0.20699374749653748,9.813930299138402
3455000000.0,21.65,0.03357702273094914,0.3502206468649222,-0.013744635109210476,1.2483107558848077,0.5831074737476748,10.675636815932268
3460000000.0,21.65,0.05918537979217895,0.3102828075881179,-0.012520272040976213,-0.3398206178095062,0.7384978753015787,10.918523279365132
3465000000.0,21.65,0.039599759901179664,0.2464210488221929,-0.009134660413587157,-0.6898443150635432,0.8774058615722586,9.972743659881536
3470000000.0,21.65,0.012243301832986195,0.15748006311632823,-0.003002293434910144,-1.3708479845876798,0.8002993281958933,9.38385198238592
3475000000.0,21.65,-0.013681760657084298,0.017474581351556377,0.0002661993375801522,-1.1747471625114716,0.7249575150504751,9.181181564912817
3480000000.0,21.65,-0.03136085482610759,-0.06072371466850743,0.005365847588201607,-1.104209476715695,0.5128655832931558,9.557298185310183
3485000000.0,21.65,-0.04279569199072077,-0.1897629476567924,0.006483745677464559,-0.510606100023661,0.3383457492369575,10.090567353838875
3490000000.0,21.65,-0.048283934313049816,-0.2298493211310092,0.009603157967273466,0.12105994186719943,0.17540239326562393,10.278721054320313
3495000000.0,21.65,-0.012679925241250516,-0.2694285120855439,0.010635854561237857,0.7739169418701695,0.11762183211381833,10.167079926829098
3500000000.0,21.65,-0.0031938196056507085,-0.26099612293162583,0.009581828081327117,1.63827401101474,0.10791482681434827,9.584370679833008
3505000000.0,21.65,0.015795537378866284,-0.20193732204620324,0.005365810698049504,2.211276116744761,0.7974597337097973,9.681489680804198
3510000000.0,21.65,0.06817258159387034,-0.14600861683863883,0.006366619444535378,3.3611103131271034,0.6602119773369198,9.82667802266308
3515000000.0,21.65,-0.013431076263474659,0.1082886755024979,-0.0070374384024234175,2.699314684224647,0.32421811038698106,9.896230377922603
3520000000.0,21.65,0.022885039362677096,0.13759702725097228,-0.00540841144569883,2.3861822804749226,0.39867901534599015,9.182547203744974
3525000000.0,21.65,0.00021362437401876988,0.22956993429839934,-0.009368957147628046,1.2090739413880396,0.6538383486601835,9.721223676602637
3530000000.0,21.65,0.005940803796833028,0.23236125348907002,-0.007580299124720323,0.6498106974352071,0.5933082514718826,10.147663148338632
3535000000.0,21.65,-0.0035134223023717773,0.20350342922861492,-0.004482157696614397,-0.17570307369263072,0.5794766313368663,10.236833580641935
3540000000.0,21.65,-0.01602849538915796,0.1464578388472427,-0.0032791171362961512,-0.4881475252870753,0.5246383874384839,10.070159893555198
3545000000.0,21.65,-0.012191785469920675,0.054442604160243185,-0.001256273049803855,-0.7065177148621772,0.4306583114262831,9.617818725988787
3550000000.0,21.65,-0.01747602682348351,-0.028013111086722414,0.001809928884610616,-0.5405295519556955,0.42183,9.57456
3555000000.0,21.65,-0.009573063378598796,-0.09783718750238204,0.0040243951771902564,-0.3016557737097577,0.3694441856903419,9.626945814309657
3560000000.0,21.65,-0.011327907490676775,-0.16358668577967717,0.00519550362184765,0.19149493403134937,0.2939070468101705,9.849241728718217
3565000000.0,21.65,0.003108900704468072,-0.17799728183707336,0.0053232542185827,0.784215693242557,0.34423338472093384,9.998156769441866
3570000000.0,21.65,0.014494336685392696,-0.16247012102319042,0.003492039716208176,1.2682401284624016,0.39534334671483345,10.049756677371866
3575000000.0,21.65,0.02051201971471866,-0.1235716274662905,0.0031939525311496,1.7260727636840278,0.485595694400857,9.888478611198286
3580000000.0,21.65,0.02220478442224376,-0.05542973968848353,0.0014053240203635636,1.8611537562976377,0.6074361039836611,9.59535497480945
3585000000.0,21.65,0.01617496035141576,0.0067298970057280486,-0.0007026846712752091,1.8818523696343237,0.6278400000000001,9.561414739268647
3590000000.0,21.65,0.0026828141776488283,0.07469989357335882,-0.0036837146225127803,1.6019705593995055,0.6841498881200989,9.773901013017511
3595000000.0,21.65,-0.0043118738085082195,0.10806486063433107,-0.003396228613164488,1.254107886171779,0.6249944715429447,9.96284105691411
3600000000.0,21.65,-0.01726141267026903,0.13337824369376466,-0.0031939525311496,0.8259987834186878,0.5846757902229579,10.067022629331127
3605000000.0,21.65,-0.026133391684486015,0.11492779847467216,-0.0031939525311496,0.3172516187688162,0.4392905395896054,10.007180299772003
3610000000.0,21.65,-0.02603750469312943,0.07126738478286797,-0.0015330819951290282,0.1754025195203252,0.3180394286808943,9.611638364123984
3615000000.0,21.65,-0.026388862311830026,0.035293113643209056,0.001394715466622876,-0.006966714991867129,0.2791924595659246,9.596535242604451
3620000000.0,21.65,-0.014483325674779543,-0.013594409908694472,0.0005110171430009925,0.12753175785391757,0.2448573187433732,9.750356395340665
3625000000.0,21.65,-0.002661550693976278,-0.0418182341921537,0.0,0.28939598575785985,0.31637327452403274,10.047894964394649
3630000000.0,21.65,0.014194202537500731,-0.07446718394523885,0.0007878492764217607,0.497957292201473,0.3723878820335788,10.024837942374079
3635000000.0,21.65,0.021512776814991662,-0.07871935708149382,0.00028744806519186085,0.8169793417984934,0.45420370605513705,9.800384364256644
3640000000.0,21.65,0.0223751210105673,-0.06826253504184396,0.0,0.961772894918429,0.5654492484315925,9.745646541405264
3645000000.0,21.65,0.0223751210105673,-0.05363996131079243,0.0,1.1899551239925512,0.6053751707997517,9.618801754804718
3650000000.0,21.65,0.008202901167835579,-0.00799492986837131,0.0,1.254698787309388,0.6494224253812243,9.798230410493604
3655000000.0,21.65,-7.454867337545893e-05,0.01914391872176567,-0.001469233573872306,1.1849492610540926,0.6264661740360618,9.979517651927877
3660000000.0,21.65,-0.010476264601224248,0.04372280831277155,-0.0014053313983939685,1.0508460625422607,0.5681947734533478,9.8625799649045
3665000000.0,21.65,-0.022763367347234484,0.0532674487708669,-0.0010646508437165,0.7902913219767133,0.4704867457412675,9.770661686435316
3670000000.0,21.65,-0.02522836979894376,0.042715770072305384,-0.0010646508437165,0.6349026297172263,0.3668932871465329,9.735051314858612
3675000000.0,21.65,-0.022428330311957238,0.025515709301688012,0.0003194107469788336,0.49981828649808285,0.32078685723506856,9.90025399870904
3680000000.0,21.65,-0.01312268836305943,-0.005371006697571738,0.0003832665462659547,0.4979562433162624,0.30764152852041526,9.895934456326644
3685000000.0,21.65,-0.00046835315509096385,-0.03326666227004006,-0.0006707377995534237,0.5853633441903335,0.3659137157670372,9.802347770539779
3690000000.0,21.65,0.01085951639142937,-0.056731757304440154,0.0009156230612524065,0.7822513351932134,0.41437454334764545,9.744076369957064
3695000000.0,21.65,0.011657887793235474,-0.05760047644659569,0.0008304120799146387,1.0384884660444846,0.46371920239659203,9.78753588948036
3700000000.0,21.65,0.014063917837858216,-0.03941635970653388,0.0006387983058620591,1.2380232217570324,0.5199303593403036,9.888480718680608
3705000000.0,21.65,0.013272658373572447,-0.010781172334798483,-0.0008198045801783124,1.2757901401741014,0.580065803756258,9.91035608410446
3710000000.0,21.65,0.009411497817029709,0.024199256111326096,-0.000894291067297368,1.215850895563909,0.60822,9.795872302878623
3715000000.0,21.65,0.0006280421915129866,0.05216351807073453,-0.0018205764365121402,1.0360321516957214,0.5746693670434937,9.716118227840582
3720000000.0,21.65,-0.013083788276504546,0.06715056634906158,-0.003790164845423173,0.8012792103561921,0.510904294204243,9.805292428361124
3725000000.0,21.65,-0.018010036846664697,0.07253764474680105,-0.002501905925736691,0.5552439740976397,0.4375254211707542,9.943416868243869
3730000000.0,21.65,-0.014167845292727493,0.05969775115797674,-0.0016395701621958298,0.33628549588605494,0.38631758264767585,9.969902637746127
3735000000.0,21.65,-0.01283970492204637,0.03721376058711394,-0.0010007560462685834,0.23946188235631882,0.3571818823563188,9.82255505885055
3740000000.0,21.65,-0.010518703032204323,0.013848641320666787,0.0,0.1542121829698218,0.34335,9.706798727354988
3745000000.0,21.65,-0.0036516971324998416,-0.01360470573416218,0.0,0.1933566275847663,0.34335,9.722102690968526
3750000000.0,21.65,0.004790999942017743,-0.03888610186970881,0.0010646666537816873,0.3433507283925073,0.397305801231758,9.839431456785015
3755000000.0,21.65,0.013763904468497009,-0.06416759286564658,0.002129301687433,0.5269952422183525,0.4801018376182184,9.94233697293637
3760000000.0,21.65,0.0181165176357011,-0.07729502360894813,0.0026403420185296487,0.7989284449376846,0.5430821112344212,9.886124650564646
3765000000.0,21.65,0.015105951458910673,-0.0761337134997072,0.002193164864750595,0.9970892775672928,0.57879,9.77831304182453
3770000000.0,21.65,0.00926242260437002,-0.06641449793895977,0.0005749035084141425,1.208398216514982,0.5923280196831802,9.681880594495006
3775000000.0,21.65,0.0015968966882467057,-0.045221329591794965,0.0009582016748104718,1.3832099999999998,0.5861471333757714,9.738388906445989
3780000000.0,21.65,-0.006132420732898646,-0.021898787884901565,0.0011923930084167711,1.4522735747514357,0.5160052657803527,9.861404106312142
3785000000.0,21.65,-0.011729366687593147,0.011016297965502943,0.0,1.4515841560992417,0.45263325296183254,9.868958614633586
3790000000.0,21.65,-0.014191240059581074,0.04214251499213058,-0.001788645374855527,1.28883699022177,0.4290891791513918,9.854536442989364
3795000000.0,21.65,-0.009965099897614819,0.06506050558899854,-0.0025125439915990597,1.089496093747061,0.42810869485328695,9.816769563419896
3800000000.0,21.65,-0.0057490825143371475,0.07861654661204971,-0.0008517366958392564,0.7906840809285408,0.43163963094779634,9.86493592618956
3805000000.0,21.65,-0.004024396231194652,0.07141970555136859,-0.0017140798374104932,0.5687824696639248,0.3983840260924403,9.836094156554642
3810000000.0,21.65,-0.004918678866457277,0.05805154439694174,-0.0010646508437165,0.3790567718970677,0.39985574800935747,9.837468740046788
3815000000.0,21.65,-0.0015011013952681805,0.030502370429003875,-0.0010646508437165,0.2561393223053932,0.4156497741017977,9.880141129491012
3820000000.0,21.65,0.0039605172438119205,0.0032789474415964876,-0.0010646508437165,0.2817433483978335,0.4324250225967502,9.85983502259675
3825000000.0,21.65,0.005695890077016721,-0.022151072101599372,-0.0006920149852824794,0.3801393574008936,0.44782642570396425,9.868369277111892
3830000000.0,21.65,0.006025915701762301,-0.04407869597303546,0.00036198936053689895,0.5695692695383928,0.45812737196577374,9.852575474393154
3835000000.0,21.65,0.0056745970812224775,-0.0490088453960007,0.0014159937063562774,0.6958248642957487,0.4969747489805475,9.813726757136168
3840000000.0,21.65,0.0053658159680712,-0.04355211837381074,0.0014479089579476881,0.871521295048713,0.51012,9.737406372936963
3845000000.0,21.65,0.0018737530637674316,-0.027336280468178462,0.00033004986684553433,0.9728582227915823,0.5040376506309765,9.801171746845117
3850000000.0,21.65,-0.002661667688458624,-0.012255580136955777,0.0010646508437165,1.0261261495632614,0.478727700873477,9.86886
3855000000.0,21.65,-0.0063879050622992,0.0029491884799504025,0.0001383802305626262,1.0085652763337527,0.45979492463624927,9.851790150727501
3860000000.0,21.65,-0.0048973531965282955,0.015463690538283665,-0.0018311913142788302,0.9154687501447875,0.4779431250241313,9.777037500289575
3865000000.0,21.65,-0.0010646508437165,0.022087657135310225,-0.0007771869684594518,0.8360071489781715,0.47352877507298774,9.724065300875854
3870000000.0,21.65,-0.0010646508437165,0.01936821053553836,0.0,0.73575,0.4755886496597865,9.827854726190747
3875000000.0,21.65,-0.0010646508437165,0.01117875217368685,0.0,0.7185819731294197,0.46842772580167724,9.893385451603354
3880000000.0,21.65,-0.0008091264621508164,0.000383184333926985,-0.0005110487631313671,0.6788523768217238,0.48814552463565525,9.909276295627864
3885000000.0,21.65,-0.000489755767337124,-0.010235366326947843,-0.0016395459200958759,0.7206427509229275,0.47392087361560875,9.80175899630829
3890000000.0,21.65,-0.002129301687433,-0.01786106703443959,0.00023423138577144048,0.7638075822615759,0.4491017244414172,9.739171724441416
3895000000.0,21.65,-0.001905716799558681,-0.021146984053854675,0.0010646508437165,0.8777012295899124,0.4435101756557018,9.762422634835525
3900000000.0,21.65,-0.0008517124537393026,-0.006813699629914661,0.0008517124537393026,0.9378362272584623,0.45714622725846227,9.896328681775387
3905000000.0,21.65,0.0004045837841601517,0.004049154102127564,-0.00020229189208007586,0.9576520483001205,0.47882602415006026,9.940864338100843
3910000000.0,21.65,0.0009794293223352563,0.023801860291229198,-0.0008730054495335456,0.9135059848470599,0.47088,9.826088248105883
3915000000.0,21.65,-0.004077604478580267,0.035512928927737386,-0.00018099889628583277,0.7631189114256891,0.46587667186746673,9.801661119779112
3920000000.0,21.65,-0.0031939525311496,0.03608776603387777,-0.0008942984453277887,0.6352945340218453,0.43988032385870324,9.782925465978154
3925000000.0,21.65,-0.002714834829674816,0.02679064667772643,-0.0001597059004915897,0.5096289663310897,0.4331115762384158,9.902704728715246
3930000000.0,21.65,0.00014905940259446815,0.0060019883344176,-0.0009155914411220318,0.45675390534213905,0.4387030473289305,9.911238283973583
3935000000.0,21.65,0.0010646508437165,-0.01861706113751769,0.0,0.5070798936244989,0.4243807528653075,9.803623117836732
3940000000.0,21.65,0.001320183657316962,-0.036854414012883446,0.0,0.6415755305954554,0.4438045530595455,9.758595446940454
3945000000.0,21.65,0.0035453122578589214,-0.04118747647075568,0.0003513597267093215,0.8304176494033766,0.46322835325378353,9.759676002657159
3950000000.0,21.65,0.006174958240287226,-0.03610894203518969,0.002874532298131644,0.9721718439641185,0.47970892327598924,9.906137846551978
3955000000.0,21.65,0.004162776461757239,-0.01358997218754462,-0.00028748073932659024,1.0648751158943512,0.47352893046338934,9.88318213907322
3960000000.0,21.65,0.0031939525311496,0.012095971896014386,-0.003279132946361339,1.013176107735761,0.5018797538364975,9.820201476981016
3965000000.0,21.65,0.003417554283093459,0.029582899163327327,-0.004109535540236858,0.9195880137233801,0.5206167770153678,9.71464710806147
3970000000.0,21.65,0.005876805706959222,0.040282523095496,-0.0020015268485980083,0.7430077806377778,0.5291513228875132,9.75467206267492
3975000000.0,21.65,-0.002289024451994133,0.03642837807827278,5.324092152037426e-05,0.547397691161577,0.5174771139519712,9.810981154419212
3980000000.0,21.65,-0.0054936319130757146,0.01930804373418288,0.0010220564200932472,0.5081576134663761,0.46931009077310093,9.82962
3985000000.0,21.65,-0.009517961741996534,-0.0038014868564334287,0.0,0.46489690624996904,0.43105124519231247,9.82962
3990000000.0,21.65,-0.0074951587616737215,-0.023482374709941824,2.1301427829009637e-05,0.590366497508665,0.41162744499807447,9.832171607512516
3995000000.0,21.65,-0.009485963224061804,-0.025728897490695228,0.0010646508437165,0.6783626639712268,0.3925963551961636,9.956168224019182
4000000000.0,21.65,1.6864069533110053e-08,-0.04153871814897827,0.0010646508437165,0.8240410100376102,0.4120203107808031,9.859048446095985
4005000000.0,21.65,0.00210802555570829,-0.026782657307506376,0.0010646508437165,0.9502957113001571,0.4508679111692791,9.664810444153606
4010000000.0,21.65,0.0031726679673901217,-0.0047059281410898705,2.1284563759476488e-05,1.0188671452260716,0.44164612211056126,9.768602656783825
4015000000.0,21.65,0.008357551441449304,0.018478161662945265,0.002065439564119804,0.9726611100672111,0.5366077798655778,9.884949335838693
4020000000.0,21.65,0.004428913613080986,0.03144604788937144,-0.000936918165055341,0.8205071506611716,0.5301323219163232,9.963821424669414
4025000000.0,21.65,-0.004844237701525115,0.022854137527624885,-5.322405745084111e-05,0.6651167491072675,0.4645029527344295,9.817846749107268
4030000000.0,21.65,-0.007324814795319775,-0.015687342415909637,0.0,0.4543974778858748,0.46107,9.81
4035000000.0,21.65,-0.0005216193727156032,-0.07854714225742608,0.00297040137141434,0.8155085133763851,0.41545310812483105,9.700519459499596
4040000000.0,21.65,0.003917949170297269,-0.10661887787796466,0.004173439823723894,1.0963677972202779,0.4661716708329167,9.764482227777222
4045000000.0,21.65,-0.0005856005985198547,-0.10186643103044814,0.0023209217855116636,1.6361163570177635,0.3905353928765539,10.127847142770872
4050000000.0,21.65,0.01811494319511111,-0.05422696138518094,0.00021291309387289764,1.890388809326988,0.5326843373286434,9.977749348005794
4055000000.0,21.65,0.006964616568299199,-0.003495483908671479,-0.0009475477988829296,1.8518331486554314,0.49697412741894126,9.485677146770472
4060000000.0,21.65,-0.001235054888318132,0.09869157183985927,-0.004812256047659909,1.8097484845574847,0.4991328788606288,9.461941515442515
4065000000.0,21.65,-0.004908066096699233,0.14429225437339047,-0.0053232542185827,1.0795837885914379,0.4917752210422522,9.85071505309865
4070000000.0,21.65,-0.0044076459133910485,0.20868294436480195,-0.008985687439349046,0.8362031351221315,0.5158100371646004,9.950283395274335
4075000000.0,21.65,-0.0015437179529826845,0.20480116890011324,-0.006866972171565384,-0.27812386891013874,0.5282685791519858,10.349063220143334
4080000000.0,21.65,-0.003747596771908549,0.15944937668928638,-0.0063879050622992,-0.4626395207508952,0.46381616600716163,9.742500701573407
4085000000.0,21.65,-0.010444285055367751,0.11235728581642015,-0.0010858921932978324,-0.93332800208098,0.4594023793462238,9.735935690193356
4090000000.0,21.65,-0.00821907002646942,-0.01614618408027503,0.0017460446272061577,-0.909385808349858,0.34845008779320086,9.455267381152975
4095000000.0,21.65,-0.01609045137152984,-0.06848889882081542,0.002129301687433,-0.5650528183815282,0.3316761795404618,9.682178642997085
4100000000.0,21.65,0.001487219449604591,-0.18791027879228617,0.00809140691209509,-0.31784224797322247,0.32569192036241923,10.14354398187904
4105000000.0,21.65,0.012275484801681436,-0.2271941592238994,0.008740774773537085,0.5933177302863775,0.41672975681639757,9.90064089167321
4110000000.0,21.65,0.021328001576643576,-0.25086511663329797,0.0085172067497323,1.130115193272752,0.479709399159094,9.878866918486368
4115000000.0,21.65,0.02425956167840127,-0.23375292542311127,0.005238047453262261,2.054909572112096,1.132571293959713,9.565923683126737
4120000000.0,21.65,-0.019215846207284462,-0.1184145384669632,0.0034494600486457503,3.200031603126816,0.6309717575767176,10.227129362657793
4125000000.0,21.65,-0.036215616761025686,-0.029024225041042517,0.0015969588745030688,2.695288926820189,0.18393501618155014,9.562287644849377
4130000000.0,21.65,-0.036492382492172695,0.10444421770098707,-0.002086750477988,2.3457662373564623,0.10791,9.209823638457936
4135000000.0,21.65,-0.009777910626460922,0.15265181953333942,-0.005525564028736628,1.6849585320675855,0.22965346539603465,9.707589382853794
4140000000.0,21.65,0.007665573346318922,0.20614420675828454,-0.007921019731562999,1.1481589421750893,0.37356592580345926,10.081935290777853
4145000000.0,21.65,0.02728893882626041,0.20995402434411606,-0.0085172067497323,0.32656676832316756,0.5304280686980807,10.30658397125634
4150000000.0,21.65,0.03110522293609858,0.17661653310298817,-0.005536149394381679,-0.1667724182631242,0.6680620479140205,9.977746405300065
4155000000.0,21.65,0.016592512864228318,0.1210069909513814,-0.003523985533925601,-0.5732020931768209,0.6386301929411019,9.78292407717644
4160000000.0,21.65,0.0019588523206446017,0.0490445165661603,-0.0010220385020194003,-0.649421191969912,0.5948782383939824,9.557291814303717
4165000000.0,21.65,-0.018547466975717953,-0.017605130865471198,0.0,-0.6114572190998722,0.5031538482983384,9.66059620790396
4170000000.0,21.65,-0.019606940912941795,-0.10444272557640862,0.0035133917362458024,-0.3168593551238935,0.41574723301927236,9.896918300942183
4175000000.0,21.65,-0.015283839314500343,-0.1661844949042472,0.004631222369230623,0.1775653790957538,0.34776393233943936,9.96696
4180000000.0,21.65,-0.006047102243117596,-0.20222947933369723,0.006984144780685792,0.7899067210209672,0.33000848119148485,9.948124556425546
4185000000.0,21.65,0.004971998838303615,-0.20405590983129737,0.007175729042616698,1.437955165047852,0.3088184748455848,9.80774199293932
4190000000.0,21.65,0.011817668528035664,-0.16182050804526238,0.005727812706638552,1.9816240692861409,0.555838099586081,9.737602281385723
4195000000.0,21.65,0.0183972286260658,-0.08497113497711034,0.002076024929764946,2.56296597786756,0.5246361925490619,9.819124359276943
4200000000.0,21.65,0.005330014049536456,0.025995988187655486,-0.0031939967993321445,2.368127799922978,0.44929865263968655,9.751138368400785
4205000000.0,21.65,0.007250100608704551,0.12949265620637485,-0.005951407080551983,1.9252104580730047,0.48647798167707984,9.591628256520883
4210000000.0,21.65,0.011654548344613994,0.18100307387526127,-0.008240424154515744,1.2442920590317206,0.5644684630645846,9.740155743871158
4215000000.0,21.65,0.004269187686506847,0.2002478582729442,-0.00897499772727376,0.5612262520480626,0.6292135637426357,9.983540291812401
4220000000.0,21.65,-0.000723989261117256,0.18220014064996512,-0.006132353276620513,-0.07103087550650877,0.5991942262209423,10.08821209181062
4225000000.0,21.65,-0.013264671681560104,0.12958233502574074,-0.0036730365044853027,-0.44978907445889077,0.4826506869511069,9.91986904563999
4230000000.0,21.65,-0.0183412534790423,0.07119429091194987,-0.0020441117861821944,-0.5495572681147727,0.39612755351197554,9.655000356746504
4235000000.0,21.65,-0.01547863607800475,-0.0009918958956713075,0.0011924446546297694,-0.5666249419216494,0.3877893822597938,9.653139498416495
4240000000.0,21.65,-0.009888238946049753,-0.07256012100934293,0.0020866977777706827,-0.3664989645787896,0.336285894073959,9.76722897649839
4245000000.0,21.65,-0.003172641617281427,-0.13161892189476543,0.0032365743588858463,-0.030702249200822485,0.3045027298161273,9.890247284172574
4250000000.0,21.65,0.005855714025995093,-0.18109570392407418,0.005855588599477889,0.5150311913363119,0.3629706604092066,9.903193761732737
4255000000.0,21.65,0.019065892058672873,-0.19715912718570405,0.006909592945297268,1.1568980109513802,0.4262449132413491,9.83923396529654
4260000000.0,21.65,0.022971298542697416,-0.18002211011266478,0.006430473135813807,1.6680963717786637,0.7479196129594962,9.835113351763834
4265000000.0,21.65,0.01629831809994009,-0.1341311189115897,0.004322464444175003,2.4016929813058296,0.801864595134546,9.96735505096025
4270000000.0,21.65,-0.003074475125542561,-0.047532067414529894,0.0017247073632294442,2.555693901312839,0.4371324388452244,9.903583170079031
4275000000.0,21.65,-0.01774386280518881,0.044792752176246446,-0.002395509457047999,2.116017498220475,0.3453116678530167,9.448007512456675
4280000000.0,21.65,-0.011763437810040743,0.1110048332112993,-0.004386343431557736,1.8332867312278673,0.33236296626772965,9.441540639827107
4285000000.0,21.65,-0.003183242792991743,0.16259280014842484,-0.00410957032238032,1.2466511378367116,0.40662574846475746,9.94106592801116
4290000000.0,21.65,0.0037476252300258873,0.18658894345379434,-0.00711190380945561,0.703959600376596,0.4698985833594858,10.330716799874468
4295000000.0,21.65,0.007016040006194605,0.17225133356880662,-0.007835793994164376,0.10525737901457383,0.4776496508269965,10.250072095038021
4300000000.0,21.65,0.005110296856527238,0.13081194672459945,-0.0044715154147347115,-0.28449250567022505,0.5101195823882958,9.745249907405299
4305000000.0,21.65,0.0019482838190690035,0.07741330323364927,-0.002363506723095856,-0.4725479508583795,0.46538606552216066,9.46831795085838
4310000000.0,21.65,-0.0008091528122594619,0.02380542375897112,-0.001469227249846231,-0.4644048139839481,0.4600894185828942,9.564555558048156
4315000000.0,21.65,-0.0017353717792003905,-0.03315594220640976,0.0002342777619626932,-0.35286410753974107,0.4614617294904173,9.841101136361612
4320000000.0,21.65,0.00046848279762548746,-0.07946446159180368,0.003875319964530612,-0.1082993792105938,0.433210103464901,10.158060310394703
4325000000.0,21.65,0.002076041793834466,-0.11488134480549736,0.0028213156187111986,0.23789544027775442,0.4605792479761925,10.061621375515914
4330000000.0,21.65,0.0,-0.13707503626397036,0.0028532825165155234,0.6145022688325227,0.4247725794747258,9.602614833793849
4335000000.0,21.65,0.0028107513331530848,-0.13532402115961437,0.0042586033748661,1.0159262944695628,0.4215364578195646,9.50873599462826
4340000000.0,21.65,0.009539299005973337,-0.12310070914108195,0.0032365111186250625,1.3549606562710066,0.4963864214964642,9.678940676080906
4345000000.0,21.65,0.013036773635115075,-0.09989099918688633,0.0010646508437165,1.6953660567210607,0.5996872411174724,9.965491453874415
4350000000.0,21.65,0.011190913465895262,-0.06348251227862778,0.0010646508437165,1.900198605377086,0.6729636341811364,10.13176597215526
4355000000.0,21.65,0.0,-0.021560520827388407,0.0007558929186608629,1.9737703081870033,0.4863799691812997,9.79057095537971
4360000000.0,21.65,-0.0029811142715852673,0.023645390512375714,-0.00029811142715851553,1.779532306244623,0.4920693459366935,9.40818392437984
4365000000.0,21.65,-0.009209183790858376,0.06727273397117059,-0.0016395807022393152,1.6011870130115702,0.4788263543546636,9.60948597397686
4370000000.0,21.65,-0.007537801669496958,0.10807656594006919,-0.003747589393878171,1.350439591961596,0.4850058907079589,9.937534244100343
4375000000.0,21.65,-0.012775773234446347,0.12889707629470873,-0.0058555980855170015,0.8632779605009796,0.43899741502087414,10.224469865647098
4380000000.0,21.65,-0.008048704980028576,0.13835980907292245,-0.006174928728165506,0.5218860446628605,0.43634897015248975,9.93752787309388
4385000000.0,21.65,-0.0029490735934766693,0.11998777400171702,-0.0023741806251059306,0.01128192586681926,0.43997807413318074,9.708268681706086
4390000000.0,21.65,-0.002363534127208808,0.09046237996775426,-0.003428184970925386,-0.05454769298317692,0.4216345674343457,9.633815128655451
4395000000.0,21.65,-0.0031939525311496,0.0633980962930269,-0.0038114314911087493,-0.3662049950747499,0.4595972194859722,9.895151482940815
4400000000.0,21.65,-0.0025551341992049504,0.004258556998674944,-0.002129301687433,-0.17658085464720855,0.3590466837177668,9.984619196506092
4405000000.0,21.65,0.001213757676506568,-0.013964845835434954,-0.0013201299030953133,-0.21405231763952318,0.41623804331448044,10.046026375392165
4410000000.0,21.65,0.007729430199610355,-0.07253758256054466,0.002320948135620318,0.022565998063559987,0.41005885658958857,9.793516972867069
4415000000.0,21.65,0.013297461117444447,-0.07668549267113689,0.003555952431729974,0.29743885697568856,0.48049328546353287,9.62272907238979
4420000000.0,21.65,0.0106465084371654,-0.11858676372740193,0.005152900766189627,0.3935842399621424,0.4441974868255749,9.794303141468031
4425000000.0,21.65,0.010806215391661336,-0.12405123661025055,0.004578017283857986,1.0575173123974733,0.5189495157018952,9.778121367764214
4430000000.0,21.65,0.011562098824283086,-0.14651944623063623,0.0063879050622992,1.1061828279845283,0.6019436651384367,10.09978404415004
4435000000.0,21.65,0.010784922395867093,-0.1514673549356782,0.0062494911035975076,1.8543869704811697,0.8056953861445539,9.793716950601969
4440000000.0,21.65,0.007237203604183976,-0.1109166113023995,0.004684416914559821,2.1684060221502603,0.7494792567079926,9.92261698892487
4445000000.0,21.65,-0.02615467835625417,-0.05349499363946224,-0.00035136288872235897,2.508317086885371,0.2703632546448325,9.701400105464701
4450000000.0,21.65,-0.028761092977060004,0.043246106216469765,-0.0033004269961599275,2.2867076289994763,0.23445891356408916,9.393076296538664
4455000000.0,21.65,-0.008719405889429916,0.08745520899814313,-0.004641915243318943,1.9300181885375818,0.23445986533029867,9.555531542123015
4460000000.0,21.65,0.0010221776305930485,0.1885070773403211,-0.008602388218948384,1.7045745113409452,0.3409975058632751,9.896724558247145
4465000000.0,21.65,0.013075171894649991,0.22603181746902787,-0.00965639256476777,0.5287563981819641,0.5464178672726787,10.299711384000213
4470000000.0,21.65,0.016923042493117598,0.24275224176068722,-0.010454843016899864,0.1903044493174445,0.6352952527024526,9.906531615541416
4475000000.0,21.65,0.014266208105734833,0.23600956274058482,-0.0074525559060157,-0.8274741084505411,0.59841,10.012081827767718
4480000000.0,21.652400532224004,0.0015329650006466044,0.1437280706420936,-0.007282173995505303,-0.9080169937263699,0.5921302077020021,9.574169688446997
4485000000.0,21.71,-0.012743861144867922,0.08639169545967326,-0.003066156612227689,-1.2726505159583053,0.44292193557871934,9.795185419032356
4490000000.0,21.71,-0.011818020911062344,-0.0495638816136466,0.0011711632528832812,-1.1779807882083078,0.48716311738133117,9.638130893108707
4495000000.0,21.71,-0.016923820296488534,-0.13017198208517433,0.006430528998044137,-0.7300551360210513,0.3241227492399275,9.870234622339746
4500000000.0,21.71,-0.004258584402787875,-0.25672092583070183,0.010646517923204512,-0.16676195854671957,0.3629696503715965,10.00619781482248
4505000000.0,21.71,-0.0021505757111490195,-0.3062936876037496,0.011700522269023891,0.7267328503882284,0.3241220499831205,9.763400312394502
4510000000.0,21.71,0.009347738986142357,-0.33811210031692945,0.0117111592808819,1.6586832097285327,0.9678604692897048,9.982069414830795
4515000000.0,21.71,0.05092455073556337,-0.32429286281467934,0.012743880116946148,3.0953623670702237,1.0095473630953735,9.929485273809254
4520000000.0,21.71,-0.07972856828150965,-0.047718218232221776,-0.002555304947908973,4.033880340579803,-0.044351033104610416,10.342098263005383
4525000000.0,21.71,-0.027539878910957098,-0.006867593826784344,-0.0021825246908795002,3.306943792798938,-0.20012505471235054,8.495442421460824
4530000000.0,21.71,-0.016498171959016955,0.15488379181865622,-0.008133989741670582,2.6765547686518483,0.06141315170463155,8.978313743358338
4535000000.0,21.71,0.026621045801715048,0.2721076373170974,-0.012477746127635438,2.0732399386100995,0.39779858304268584,10.128443346605934
4540000000.0,21.71,0.05139247772732344,0.3360232016571333,-0.014734786817755773,0.7581043660485438,0.6835633573375335,10.735676714675067
4545000000.0,21.71,0.0532674487708669,0.3476621491477833,-0.01393626996334998,-0.14705975702429752,0.8402278242175782,10.674063740625938
4550000000.0,21.71,0.035046028985458014,0.2764367445631864,-0.01096587491596172,-1.2586333402600336,0.8887863535131635,9.771732073792622
4555000000.0,21.71,-0.00015811399107539675,0.17838535046169646,-0.0059087641727288455,-1.4257859308524594,0.744283195918032,9.314689472508196
4560000000.0,21.71,-0.012690724569777836,0.05381292198980439,-0.0006387424436317549,-1.7948413200462132,0.7086742228549422,9.296348665717586
4565000000.0,21.71,-0.04071706534626138,-0.09511188236632341,0.004631279285465336,-1.3663318344997184,0.4502763399105634,9.547388871419788
4570000000.0,21.71,-0.039239132573438966,-0.2259008767121557,0.008985691655366428,-0.7127884750930847,0.2264128471311285,10.225558346274283
4575000000.0,21.71,-0.03743992080501653,-0.30641677789435146,0.0095818575934488,0.09075005343030051,0.2128771777277718,10.154819633858397
4580000000.0,21.71,-0.007753131906352434,-0.31654616798932694,0.0095818575934488,1.1222737857105378,0.042769731818897316,9.983831687662917
4585000000.0,21.71,0.01644225187940088,-0.28720024155612317,0.008698187727944253,1.8730296231267967,0.22151211551122113,9.582600103326302
4590000000.0,21.71,0.031595123102031136,-0.18776846646439216,0.0050251132793024365,2.667150289040403,0.8199259517117596,9.521978578310486
4595000000.0,21.71,0.006476083134985527,-0.01451523499975646,-0.0009156578433957988,3.44321895093659,0.4173115093441151,10.185043707946038
4600000000.0,21.71,0.009369034089945317,0.0758491395488575,-0.005536223174685886,2.4995755804221558,0.45910987633909883,9.311640295218002
4605000000.0,21.71,0.0024592366678049243,0.18542174541709633,-0.00554682118838314,1.6068708442720085,0.5700599050193991,9.511879377349393
4610000000.0,21.71,0.016622361247855082,0.1768614939592612,-0.004492816842563683,0.8911339528522395,0.6345113372623135,9.954799360836192
4615000000.0,21.71,0.0016220498972031247,0.14592690019272517,-0.0042586033748661,0.47136736257067363,0.6096910517958105,10.249392320302622
4620000000.0,21.71,-0.0026403146144166334,0.08530405952849719,-0.0042586033748661,0.1090837899576379,0.6058656897379568,10.243208792358388
4625000000.0,21.71,-0.005323293216743446,0.01065453279687402,-0.0026616076102108773,0.07112312884553129,0.5052137423089375,9.729061481049914
4630000000.0,21.71,-0.01349148311863961,-0.025075001419238505,-0.0013414503030025476,0.32785316776243173,0.4636205100678051,9.441338671152687
4635000000.0,21.71,-0.018318830607868066,-0.04021878639869994,0.0004897589293501616,0.49795668035176677,0.3536491495602915,9.577014750732848
4640000000.0,21.71,-0.013802693228002701,-0.010693560642578662,0.00029809245508029074,0.7769551544251516,0.29273012962070133,9.939888185310181
4645000000.0,21.71,-0.005663864154968986,0.03390238509489357,0.0,0.7546817661996177,0.34021152178841524,10.208484184918142
4650000000.0,21.71,0.01097830739830471,0.06327538235109148,-0.0014905307856839323,0.5277756516625565,0.3767041806413418,9.96205093556981
4655000000.0,21.71,0.016317247897039686,0.07472161857270476,-0.0013946827924881553,0.2008073545417735,0.46381788501347887,9.680702210808622
4660000000.0,21.71,0.010907540768982163,0.05134444992857623,-0.0010646508437165,-0.0317860292683603,0.4802973284552733,9.6138
4665000000.0,21.71,0.013522181910985875,0.005158197483602599,-0.0010646508437165,-0.06199883755188837,0.5168895342841954,9.73868302162853
4670000000.0,21.71,0.014570337811314225,-0.051084244419971864,0.00104338736004394,0.0027475256731752523,0.6042969070914691,10.000905411983554
4675000000.0,21.71,0.015927904480078543,-0.12399504817421642,0.006281499107571345,0.4056488575696886,0.5866372735498728,9.970391593068415
4680000000.0,21.71,0.006138514035694433,-0.1557392691413613,0.0051102747224359875,0.8154101998117019,0.5780054727101548,9.760163200125533
4685000000.0,21.71,-0.005365919260497111,-0.16235077068558268,0.004535432346273894,1.3769381520362813,0.47735296199092964,9.614485698994457
4690000000.0,21.71,-0.007197019930402251,-0.12152033979389797,0.0033429739895875945,1.8450678973191792,0.551912695245327,9.738781859635818
4695000000.0,21.71,-0.005738458150531328,-0.057117070744424465,0.0034281955109688052,2.187240883010709,0.42221911698929115,9.977066397479064
4700000000.0,21.71,-0.0053232542185827,0.018752620489596993,0.0017034017193830369,2.0954124396174243,0.36100918679419186,9.823730257033704
4705000000.0,21.71,-0.005951408134556329,0.08972097110769855,-0.0018844617479209463,1.6529804305510043,0.42359598277795985,9.63969803444408
4710000000.0,21.71,0.002257198790772196,0.1206096710541549,-0.0050464747853791805,1.3039428213614284,0.4202602170278022,9.680508914860988
4715000000.0,21.71,0.0073034849093734705,0.12706140556563267,-0.00517418322194037,0.7774356312586563,0.5182640400811404,9.878280164330102
4720000000.0,21.71,0.005195476217734614,0.12054556334782916,-0.00485481779714842,0.4281078499179785,0.5709415415983154,10.01287107504101
4725000000.0,21.71,0.003673035450480957,0.08937440167523215,-0.004737686294197502,0.16480396179193962,0.5439644082225442,10.02582
4730000000.0,21.71,-0.00428002601319495,0.06003846860280628,-0.0042586033748661,0.0023549512474495098,0.5183600325017004,9.798027849393279
4735000000.0,21.71,-0.007260858865619842,0.039779499089484624,-0.0020015036605024474,0.013831824084918242,0.4639142561981426,9.650784527745245
4740000000.0,21.71,-0.0053658602362537085,0.019895895305852694,-0.0011072568613875568,-0.025506460344064605,0.4520451682752517,9.74329292068813
4745000000.0,21.71,-0.01018877859187595,0.00030853869215169763,-0.0010433378218396862,-0.02403403917034039,0.40083530967695313,9.910456611982367
4750000000.0,21.71,-0.009049442054218981,-0.030892708584164878,0.0010646708697990706,0.08829166073491661,0.36787564584135646,9.996389446421695
4755000000.0,21.71,-0.0011284697528515688,-0.06313699263448981,0.0016076127504305862,0.21984293124152932,0.3974030076398301,9.890048122237282
4760000000.0,21.71,0.008781231140705432,-0.0955725271038282,0.002086735721927133,0.4296812360051123,0.40652667737186676,9.76291107542711
4765000000.0,21.71,0.013977428971284291,-0.12168496944977297,0.00369434847235777,0.7511545691866457,0.4725487180984872,9.702678414891185
4770000000.0,21.71,0.0117111592808819,-0.13607653167465694,0.005238102261488244,1.1289392472732924,0.49363845878778456,9.787046545682065
4775000000.0,21.71,0.012190262226295828,-0.1355027580589015,0.0035132873898155448,1.5730374881917748,0.6455020809404208,9.87621703625677
4780000000.0,21.71,0.00902815854446382,-0.09425417617000215,0.0,2.0812955421289554,0.6843413290948133,9.94420284260683
4785000000.0,21.71,-0.000319496121330874,-0.026212712267503976,-0.000915619899239369,2.2683626752275265,0.4485135717715357,9.837266781084269
4790000000.0,21.71,-0.009518049224357266,0.05525307577384193,-0.0039179554943233365,1.9349217948799178,0.45027853479998536,9.50647794871998
4795000000.0,21.71,-0.011221359245362229,0.1192010452183086,-0.005951388108473759,1.5584115705954156,0.4137856137257561,9.59133798725078
4800000000.0,21.71,-0.00830429681787238,0.15404315456612266,-0.007452606498224379,1.0378930585852306,0.4218304661712047,9.853165957919058
4805000000.0,21.71,-0.005844841971167898,0.17356134309496105,-0.009400836563071727,0.5193363601065636,0.4474340066686401,10.037985893301759
4810000000.0,21.71,0.00040457746013407677,0.14972757133618875,-0.007047978445881623,0.03962847600388475,0.4563615737139157,10.047988451144985
4815000000.0,21.71,0.0010646508437165,0.10768847262409845,-0.00441825025111435,-0.3138244251911443,0.4734304129488041,9.850023303590433
4820000000.0,21.71,0.002214504236736037,0.05659345667712376,-0.0018312197723962035,-0.4418413701501137,0.4751967744908677,9.708759676527396
4825000000.0,21.71,0.002768051509095216,0.0006435786302606376,-0.0017034006653787164,-0.3556120314008203,0.5071771874396719,9.660888749758687
4830000000.0,21.71,0.0003619914685455906,-0.042141321133503176,0.0014266423122620906,-0.22366518549135186,0.4932460494643605,9.741919444352595
4835000000.0,21.71,-0.0006920740095258783,-0.0713191932088098,0.0017779567167845308,0.05474224176592242,0.44468739391407397,9.871412666109627
4840000000.0,21.71,-0.0035772064293633724,-0.08884444429876064,0.0027681432074733014,0.30411235027982353,0.44812070598880704,10.00659211796642
4845000000.0,21.71,-0.0004790418131618392,-0.10992994190326143,0.006057853087444974,0.574280599682606,0.43536761178337613,9.916632535508825
4850000000.0,21.71,0.003832763485063839,-0.12750861117752907,0.0053232542185827,0.8927128261629282,0.4277161884108619,9.716803586918536
4855000000.0,21.71,0.0053232542185827,-0.13020195275058397,0.0047057362604627055,1.2267447436147474,0.4471399886050999,9.6479399316306
4860000000.0,21.71,0.006813816624397063,-0.11649989625493153,0.0028958400499867103,1.6170830431907306,0.5681988815870888,9.8111799375904
4865000000.0,21.71,0.008346780571039374,-0.09243963924750657,0.0015543697209015202,1.9923192312847924,0.7271130421413304,10.058390711948606
4870000000.0,21.71,-0.0009157126516218788,-0.03882113238523959,0.0,2.3165276297716764,0.40946930540609305,10.012276240583862
4875000000.0,21.71,-0.010912722530806333,0.023169934853967327,-0.0007985189624145152,1.8982359469102597,0.38504183716281837,9.508340700870507
4880000000.0,21.71,-0.013116426385010801,0.08974326055228983,-0.0039605319998727495,1.8352493022875933,0.34531247394072473,9.462729791525799
4885000000.0,21.71,-0.005003755989243095,0.14327389538326357,-0.006632785053976454,1.2945230455073304,0.40289755396737553,9.830898241443181
4890000000.0,21.71,0.005067820481390723,0.18616318366832232,-0.006984088918455436,0.7657612863565129,0.48598806487668067,10.101751014700511
4895000000.0,21.71,0.010369637305583795,0.18363579027602148,-0.00554684121446571,0.08181102634291025,0.5395500000000001,10.16796395253544
4900000000.0,21.71,0.003832670732681437,0.13869731852593475,-0.005962024066327402,-0.32765656976876567,0.5336637144701372,9.86297085917151
4905000000.0,21.71,-0.0023315956875217866,0.08479131406027166,-0.0036517213745997784,-0.54141399527374,0.5008000236313003,9.620765957463659
4910000000.0,21.71,-0.002235715020191352,0.022474733302529755,-0.0006813558393332081,-0.5228715694371158,0.4734312675960127,9.695811790741718
4915000000.0,21.71,0.0006812936530767707,-0.03299308194737128,0.0010646508437165,-0.365518499704485,0.5147298407881984,9.748591500295515
4920000000.0,21.71,-0.006047196049504378,-0.07554591355697152,0.0008942963373190971,-0.12517187296121873,0.4304621310443213,9.933998782260389
4925000000.0,21.71,-0.0036197713408649594,-0.11058069533117035,0.0004791240255008589,0.23593308287983084,0.38160957397329576,9.925755321457954
4930000000.0,21.71,0.0005962460424126531,-0.12322874748100338,0.0034920755523559334,0.5201303176514032,0.4288930084813301,9.690906504240665
4935000000.0,21.71,0.005089093451102368,-0.13449264950377599,0.0050464241931706105,0.9249880632629807,0.4247739585645396,9.70797791712908
4940000000.0,21.71,0.010263202892738627,-0.13596181562137025,0.003705026590385279,1.2443034705143348,0.5207156635821566,9.891620255489302
4945000000.0,21.71,0.008977062158933227,-0.1318628264486176,0.006984067838368508,1.5788265867373659,0.6221523131152231,9.972550451341004
4950000000.0,21.71,0.01779503253905463,-0.11387675650309985,0.0029810014931202426,2.0826661728777616,0.7759672502353726,9.872785346069353
4955000000.0,21.71,-0.013648802926079886,-0.04025209673735496,0.0009688218225989479,2.36607303379563,0.42545902628549026,9.931048277875183
4960000000.0,21.71,-0.011881524327322769,0.02382819738896859,-0.0005110951393225991,2.248839871923699,0.3590455182897552,9.29321199391942
4965000000.0,21.71,-0.013616852892345066,0.11831298672061065,-0.0063879050622992,1.7965013459941135,0.3187275750741757,9.578977875370878
4970000000.0,21.71,-0.010454839854886825,0.17890479055083636,-0.006515684117151581,1.3747655805607557,0.3861221792177218,9.92124916491519
4975000000.0,21.71,-0.0067603965221378235,0.22632262730699887,-0.008410720690674164,0.5900640592277406,0.4443935798004358,10.274992840399129
4980000000.0,21.71,0.006430501593931144,0.193828314332816,-0.006260115467403363,-0.1432298692209987,0.49874001307790017,10.1490301177011
4985000000.0,21.71,0.007356705804811229,0.16431340403083347,-0.003162002497414774,-0.5296450953122509,0.46224758731057586,9.806761634895917
4990000000.0,21.71,0.00413078215983989,0.06780917604890412,-0.0020866946157575973,-0.8383599830313998,0.5022729692476298,9.701501109225712
4995000000.0,21.71,-0.002086673535670681,-0.0029504177254777,0.0,-0.5778080297811803,0.5972316357374163,9.673838364262584
5000000000.0,21.71,0.002129248987215709,-0.08416010344530131,1.0540043458193785e-08,-0.48068465845494657,0.4806894172859942,9.790379417285996
5005000000.0,21.71,-0.0031407727418812817,-0.11685151692547091,0.0010540148858628367,0.05346984688659845,0.42241801670328016,9.73210801670328
5010000000.0,21.71,-0.013627636410807142,-0.12970182663448826,0.0031513876196480285,0.414574200589842,0.3641466161205662,9.981481330144213
5015000000.0,21.71,-0.0035132420676286767,-0.16095580267260703,0.006292118201355477,0.8405250860557507,0.372485797410358,9.84384303884463
5020000000.0,21.71,-0.0001277263546350881,-0.12510272525504162,0.0063879050622992,1.1360009252243095,0.4481215800598158,9.924189277567294
5025000000.0,21.71,0.024290874264130805,-0.1397687541511342,0.005376476168024849,1.5112343065792433,0.46057959760459594,9.74132804790808
5030000000.0,21.71,0.014544060912773884,-0.09655393985499719,0.002320907029450825,1.8070049310514493,0.8944803919806039,9.694634009193141
5035000000.0,21.71,0.018807372196756343,-0.08186000334285363,0.002129301687433,2.2717064921428647,0.6393146682361468,10.029845718556857
5040000000.0,21.71,-0.01611256434814759,0.01802683427202137,-0.003747634716065006,2.2060717231445173,0.4736252336647523,9.63106099889021
5045000000.0,21.71,-0.020150011382103556,0.07704532066617194,-0.0032897604721802355,1.8582064762632649,0.3628708220762082,9.567398406020784
5050000000.0,21.71,-0.013522736351829257,0.13476269338268318,-0.0031939525311496,1.4273505859414057,0.3884763923607639,9.723673765623438
5055000000.0,21.71,-0.011828260217706778,0.18043380752766366,-0.0041415024380412205,0.894274101510641,0.34001401087614014,9.94214295830813
5060000000.0,21.71,0.00702690889900871,0.17692183588084695,-0.0033216999658716,0.333141899503119,0.44576767769757675,10.03602318627543
5065000000.0,21.71,0.007729343771253957,0.1470429601848029,-0.005972723264441821,-0.2301483061297831,0.5634875805785758,9.96009201618452
5070000000.0,21.71,0.013861828798417755,0.07678149974987385,-0.002725463409498001,-0.4137870802226708,0.5366065076066651,9.83766291977733
5075000000.0,21.71,0.00585547265899981,0.017145536521051503,-0.00031937385682672976,-0.49001019003050195,0.5797715914547159,9.669715225635853
5080000000.0,21.71,-0.005578888216600301,-0.04427684275976233,0.0008943174174060136,-0.27781653583156535,0.4649925199064252,9.67619199469162
5085000000.0,21.71,-0.008336226825524675,-0.0764383590108231,0.00018097992420760796,0.0495439569508396,0.449592398770024,9.731324392620143
5090000000.0,21.71,-0.014642689576779033,-0.0975532880106412,0.001746048843223541,0.3251060694128607,0.3788613101957131,9.918304575077146
5095000000.0,21.71,-0.00045027597839207394,-0.09343278871719903,0.002129301687433,0.6747355606419556,0.386808596892786,9.893580408285905
5100000000.0,21.71,0.004045683956967127,-0.09076060101136477,0.004684495964885742,0.753408099061381,0.4473366934296669,9.870821900938619
5105000000.0,21.71,0.008464028014468286,-0.08970659666554531,0.0053232542185827,1.1273699596079996,0.476569998317,9.783610009256499
5110000000.0,21.71,0.008751419163425516,-0.08865259231972591,0.0044928157885593374,1.1573829066994292,0.518949496278095,9.852772791067428
5115000000.0,21.71,0.0085172067497323,-0.08759858797390646,0.0026190195106136974,1.5232037669896377,0.507078601941786,9.780470608414406
5120000000.0,21.71,0.004471479578586942,-0.05334309146619575,0.0013201562532039587,1.675548497249285,0.530132797799428,9.862975491747854
5125000000.0,21.71,0.000798455722153766,-0.02182942455005355,-0.0029278438379431735,1.8123991922985918,0.5395500000000001,9.795283606342336
5130000000.0,21.71,0.0007878524384347981,0.05208817668241854,-0.005046455813300972,1.69438100782991,0.5250310007118101,9.71739300213543
5135000000.0,21.71,-0.0028213788589719555,0.1020756006291811,-0.0053232542185827,1.3446526106102261,0.51993,9.752219798188497
5140000000.0,21.71,-0.005791722260147281,0.14329965545682052,-0.003790135333301518,0.9676546061433462,0.491676800646668,9.827266398706664
5145000000.0,21.71,-0.01471533946996489,0.14721124725303658,-0.0024380395864060955,0.37571600451836,0.487655199935452,10.065161197999013
5150000000.0,21.71,-0.011396902131348856,0.11547057041870142,-0.002129301687433,0.018636699250867,0.42182899967429,9.9404698989903
5155000000.0,21.71,-0.00998644664763075,0.07833437050380805,-0.0006600617895346191,-0.27242700427977007,0.43978300090783,9.81539499935155
5160000000.0,21.71,-0.004130747377696508,0.01640603133107451,0.0,-0.21934929478339296,0.40103189795871896,9.700126496597866
5165000000.0,21.71,0.0003620030625933947,-0.025297423619368042,-0.0007133269531549474,-0.048557995141079946,0.43193520291535203,9.679331201295712
5170000000.0,21.71,0.00036197038845867417,-0.05096213056936319,-0.00036197038845867417,0.11006990715779907,0.40927239663162396,9.815299307999894
5175000000.0,21.71,0.004844237701525061,-0.0658836594494127,0.0,0.4090808196903083,0.42084960310899605,9.859540198445503
5180000000.0,21.71,0.004727006068161305,-0.07264414872393303,0.0027255498378543947,0.495600495693005,0.5105135067681351,9.89946800492228
5185000000.0,21.71,0.008559880223681478,-0.0960461679222619,0.006270826259565546,0.7860804363326044,0.49991679430076796,9.828833588601535
5190000000.0,21.71,0.01039097035354316,-0.09479139427139434,0.005472272515007619,0.959025398380954,0.5621145121428451,9.843747609714276
5195000000.0,21.71,0.008932409627676581,-0.10253592405086918,0.0036091554090938818,1.2447958444254585,0.570156392746864,9.774780182773801
5200000000.0,21.71,0.007878405281857143,-0.07904538049622953,0.0025551510632744433,1.5617542220827423,0.5748666060225661,9.76095101003761
5205000000.0,21.71,0.001799161176213808,-0.042631694340041895,0.0008729917474770499,1.7233240143114401,0.5289539867894398,9.7712499944956
5210000000.0,21.71,-0.005834352519918295,0.0213494853645032,-0.001235016944161707,1.792679703593997,0.475000098802001,9.69424098802001
5215000000.0,21.71,-0.017023222945258695,0.08197012233026799,-0.002736163661616789,1.5142663326538632,0.4317373909341739,9.837569442738895
5220000000.0,21.71,-0.01746784306721602,0.12186840459934975,-0.0031939525311496,1.1575774651940747,0.4296785069611851,9.894364479116446
5225000000.0,21.71,-0.011604672167819421,0.1294857677523334,-0.0014372455959810787,0.5856482719153828,0.42967759404257594,9.959114435744544
5230000000.0,21.71,-0.003172516190764355,0.10369318161707297,-0.0017247674414771557,0.23249750793237509,0.43321000634590007,9.86375493971395
5235000000.0,21.71,0.00037257261817331836,0.060122178802906934,-0.002629676548554301,0.01068812087108123,0.4720576067343761,9.780669828621098
5240000000.0,21.71,0.0006388457360576726,0.014700172433822375,-0.0032365606568293005,0.059257692597076944,0.4905,9.75702396438574
5245000000.0,21.71,0.0026509695443485463,-0.011347598693604286,-0.003715620388065097,0.13900433803154338,0.4754903943665039,9.772920441312305
5250000000.0,21.71,-0.0026617267127020303,-0.026101542835168356,-0.0015969430644379068,0.2599708125722082,0.44635469407514694,9.800188368400784
5255000000.0,21.71,-0.003800725968968285,-0.02884810951967843,0.0,0.47705897306308975,0.42683299792793,9.8178500414414
5260000000.0,21.71,-0.0010220869862192761,-0.030636944615316197,0.0,0.4920713368762134,0.4406656086767561,9.899074391323243
5265000000.0,21.71,0.005877050235967499,-0.03377745385611104,0.0015011909856375962,0.6202872203967723,0.4795132090652321,9.874059197733692
5270000000.0,21.71,0.013925610817400664,-0.0464872225219844,0.0031939525311496,0.6354910834560109,0.5364116189074162,9.864347297636574
5275000000.0,21.71,0.00702656213157894,-0.06412684289779222,0.002235744532313008,0.8103109181062091,0.574375397539454,9.788416360631263
5280000000.0,21.71,-0.0014053725045634995,-0.07162994268371625,0.0010646508437165,1.039074482096345,0.5430809846540099,9.77978704603797
5285000000.0,21.71,-0.0041095745383977035,-0.0713335633312731,0.0006068398400924696,1.2115401327392015,0.4932463893808639,9.756336323011263
5290000000.0,21.71,-0.0053232542185827,-0.03867401134847337,0.0,1.4457966697290667,0.4543987889923879,9.7301499908128
5295000000.0,21.71,-0.0053232542185827,-0.005258724547664668,0.0,1.4435430427353304,0.4477288113960881,9.865621362962713
5300000000.0,21.71,-0.003193896668919292,0.03174108324804362,0.0004258715099326657,1.4047887057234871,0.4434112793770128,9.849241544192116
5305000000.0,21.71,0.002076125060177799,0.063860780580777,-0.00018102419239013237,1.094007902615679,0.47490405782194056,9.87248794826458
5310000000.0,21.71,0.004109518676167356,0.0683216452815972,-0.0013201446591561547,0.8316898403327984,0.5513209685962097,9.77076
5315000000.0,21.71,-0.0006282224262561813,0.06321108597798783,-0.0007878640324826021,0.6253849190625492,0.5267980323749804,9.82520704856247
5320000000.0,21.71,-0.006856396291959454,0.04844886508587127,-0.002129301687433,0.4744117033346171,0.5250293399768934,9.850807636642276
5325000000.0,21.71,-0.008836579552554649,0.047400636925769575,-0.0028745797283271507,0.4188851382287514,0.42918801715868016,9.769289637749097
5330000000.0,21.71,-0.006004585815815921,0.05252213700183365,-0.00281063328466632,0.2740904682403047,0.45773449647114495,9.816081475298015
5335000000.0,21.71,-0.0031939525311496,0.04373289525531235,-0.0010540380739584776,0.18668336736623367,0.44154778912207787,9.761047789122077
5340000000.0,21.71,-0.004556750638172406,0.025861354147719333,-0.0014904548973711013,0.05846531809195318,0.43438721489237214,9.804116074461861
5345000000.0,21.71,-0.005142184704005636,-0.007847282589697555,0.0027894077451501745,-0.009218700674487004,0.43065796179787963,9.92232398089894
5350000000.0,21.71,0.0009582195928843808,-0.056355195608114354,0.003939196843904649,0.18737172742131727,0.41005966267729665,9.91791103917331
5355000000.0,21.71,0.00504651272953563,-0.08740013956914912,0.0035027125642139285,0.3663101846647019,0.5113949879566498,9.9239899116821
5360000000.0,21.71,0.0095818575934488,-0.11875698753726041,0.003960489839698892,0.7965761644627618,0.4959938082231381,9.732303342438033
5365000000.0,21.71,0.007857055369828232,-0.10639156547780318,0.0031939525311496,1.1665105388867054,0.49687597895655977,9.65990804208688
5370000000.0,21.71,0.00291713199177661,-0.07776222938527544,0.0023634909130306817,1.464046903339369,0.47127281722322817,9.736621408611613
5375000000.0,21.71,0.0015969536044813147,-0.024495106491817756,0.0,1.6063861427619615,0.5125730220146303,9.802644692461447
5380000000.0,21.71,0.000255527543578721,0.024210826988313283,0.000511055087157442,1.4683589189991892,0.542296486499865,9.94302297299973
5385000000.0,21.71,-0.0018739217044627854,0.047124424754249224,0.002129301687433,1.2484166253077664,0.5109043816113438,9.893777190805672
5390000000.0,21.71,-0.010305751994174989,0.04419260187711299,0.001660832591864044,0.9462718671400187,0.4720567812228678,9.86356186714002
5395000000.0,21.71,-0.004876078118807966,0.027311253584234755,-0.00022358804988735639,0.8721079520859796,0.4620520479140205,9.791458156877383
5400000000.0,21.71,-0.0010645370112471915,0.013840460968315,-0.0012775923957067349,0.8161931537737316,0.5258152657803528,9.727596314665563
5405000000.0,21.71,0.005834195473270755,0.018091973416632726,-0.002736186849712378,0.8876079601148796,0.4783360199425602,9.75300400498564
5410000000.0,21.71,-0.0031727849618724815,0.046379239016489784,-0.0053232542185827,0.820508189834482,0.49599275933792764,9.77684314574483
5415000000.0,21.71,-0.011146791599908517,0.09611898963543483,-0.0053232542185827,0.7277009617256096,0.43664341553963415,9.852575610359755
5420000000.0,21.71,-0.0043864414539618885,0.1132635137248366,-0.004641831976975673,0.29665061002810605,0.46263970527699705,9.870429705276997
5425000000.0,21.71,-0.009528544999632965,0.10738083292853864,-0.0007452327187072457,-0.051506188094061885,0.46352197312941973,9.883084816122349
5430000000.0,21.71,-0.003939265354187156,0.054518128340558844,0.0012137134083240056,-0.3557115492411155,0.42320350547123503,9.903979483586294
5435000000.0,21.71,-0.006302549682366077,-0.013166716681840772,0.002267717754143397,-0.38700080510760804,0.4380170278417703,9.860814322043042
5440000000.0,21.71,0.0089005154561721,-0.08680491903840744,0.0028106438247098003,-0.05297083003580829,0.4842219169964192,9.742507305665473
5445000000.0,21.71,0.01089129778446888,-0.13859845601119494,0.00011712307091614097,0.2869504321944043,0.511199205762592,9.737110325086302
5450000000.0,21.71,0.0034067907907139243,-0.14530359732311382,0.0010646508437165,0.9800231285287313,0.5111000472626005,9.644213223053931
