#timestamp [ns], temperature [degC], w_RS_S_x [rad s^-1], w_RS_S_y [rad s^-1], w_RS_S_z [rad s^-1], a_RS_S_x [m s^-2], a_RS_S_y [m s^-2], a_RS_S_z [m s^-2]
0,22.35,0.0,0.0,0.0,0.05886,0.14715,9.80019
5050505,22.35,0.0,0.0,0.0,0.0,0.16677000000000003,9.81
10101010,22.35,0.0,0.0,0.0,0.04905,0.12753,9.81
15151515,22.35,0.0,0.0,0.0,0.0,0.15696000000000002,9.819809999999999
20202020,22.35,0.0,0.0,0.0,0.05886,0.16677000000000003,9.80019
25252525,22.35,0.0,0.0,0.0,0.0,0.14715,9.81
30303030,22.35,0.0,0.0,0.0,0.04905,0.16677000000000003,9.78057
35353535,22.35,0.0,0.0,0.0,0.009810000000000001,0.14715,9.81
40404040,22.35,0.0,0.0,0.0,0.039240000000000004,0.13734000000000002,9.79038
45454545,22.35,0.0,0.0,0.0,0.0,0.15696000000000002,9.80019
50505050,22.35,0.0,0.0,0.0,0.009810000000000001,0.14715,9.79038
55555555,22.35,0.0,0.0,0.0,0.009810000000000001,0.13734000000000002,9.80019
60606060,22.35,0.0,0.0,0.0,0.039240000000000004,0.14715,9.79038
65656565,22.35,0.0,0.0,0.0,0.02943,0.14715,9.81
70707070,22.35,0.0,0.0,0.0,0.04905,0.14715,9.81
75757575,22.35,0.0,0.0,0.0,0.02943,0.14715,9.81
80808080,22.35,0.0,0.0,0.0,0.039240000000000004,0.16677000000000003,9.81
85858585,22.35,0.0,0.0,0.0,0.039240000000000004,0.15696000000000002,9.819809999999999
90909090,22.35,0.0,0.0,0.0,0.019620000000000002,0.14715,9.81
95959595,22.35,0.0,0.0,0.0,0.039240000000000004,0.14715,9.78057
101010100,22.35,0.0,0.0,0.0,0.0,0.13734000000000002,9.79038
106060605,22.35,0.0,0.0,0.0,0.0,0.14715,9.770760000000001
111111110,22.35,0.0,0.0,0.0,0.019620000000000002,0.16677000000000003,9.81
116161615,22.35,0.0,0.0,0.0,0.019620000000000002,0.17658,9.81
121212120,22.35,0.0,0.0,0.0,0.04905,0.15696000000000002,9.819809999999999
126262625,22.35,0.0,0.0,0.0,0.02943,0.16677000000000003,9.79038
131313130,22.35,0.0,0.0,0.0,0.019620000000000002,0.14715,9.79038
136363635,22.35,0.0,0.0,0.0,0.019620000000000002,0.12753,9.80019
141414140,22.35,0.0,0.0,0.0,0.019620000000000002,0.18639,9.81
146464645,22.35,0.0,0.0,0.0,0.02943,0.14715,9.81
151515150,22.35,0.0,0.0,0.0,0.02943,0.15696000000000002,9.79038
156565655,22.35,0.0,0.0,0.0,0.039240000000000004,0.16677000000000003,9.819809999999999
161616160,22.35,0.0,0.0,0.0,0.039240000000000004,0.14715,9.78057
166666665,22.35,0.0,0.0,0.0,0.05886,0.13734000000000002,9.770760000000001
171717170,22.35,0.0,0.0,0.0,0.04905,0.13734000000000002,9.79038
176767675,22.35,0.0,0.0,0.0,0.009810000000000001,0.14715,9.80019
181818180,22.35,0.0,0.0,0.0,0.039240000000000004,0.16677000000000003,9.81
186868685,22.35,0.0,0.0,0.0,0.039240000000000004,0.17658,9.81
191919190,22.35,0.0,0.0,0.0,0.02943,0.15696000000000002,9.79038
196969695,22.35,0.0,0.0,0.0,0.019620000000000002,0.17658,9.78057
202020200,22.35,0.0,0.0,0.0,0.02943,0.13734000000000002,9.81
207070705,22.35,0.0,0.0,0.0,0.009810000000000001,0.11772,9.81
212121210,22.35,0.0,0.0,0.0,0.02943,0.15696000000000002,9.80019
217171715,22.35,0.0,0.0,0.0,0.039240000000000004,0.14715,9.79038
222222220,22.35,0.0,0.0,0.0,0.02943,0.15696000000000002,9.819809999999999
227272725,22.35,0.0,0.0,0.0,0.039240000000000004,0.14715,9.81
232323230,22.35,0.0,0.0,0.0,0.039240000000000004,0.13734000000000002,9.770760000000001
237373735,22.35,0.0,0.0,0.0,0.02943,0.11772,9.79038
242424240,22.35,0.0,0.0,0.0,0.019620000000000002,0.17658,9.819809999999999
247474745,22.35,0.0,0.0,0.0,0.02943,0.14715,9.819809999999999
252525250,22.35,0.0,0.0,0.0,0.04905,0.14715,9.81
257575755,22.35,0.0,0.0,0.0,0.019620000000000002,0.18639,9.819809999999999
262626260,22.35,0.0,0.0,0.0,0.009810000000000001,0.15696000000000002,9.79038
267676765,22.35,0.0,0.0,0.0,0.019620000000000002,0.15696000000000002,9.79038
272727270,22.35,0.0,0.0,0.0,0.02943,0.16677000000000003,9.80019
277777775,22.35,0.0,0.0,0.0,0.02943,0.14715,9.81
282828280,22.35,0.0,0.0,0.0,0.019620000000000002,0.15696000000000002,9.79038
287878785,22.35,0.0,0.0,0.0,0.05886,0.15696000000000002,9.81
292929290,22.35,0.0,0.0,0.0,0.04905,0.14715,9.82962
297979795,22.35,0.0,0.0,0.0,0.04905,0.15696000000000002,9.80019
303030300,22.35,0.0,0.0,0.0,0.02943,0.14715,9.80019
308080805,22.35,0.0,0.0,0.0,0.019620000000000002,0.15696000000000002,9.79038
313131310,22.35,0.0,0.0,0.0,0.04905,0.14715,9.79038
318181815,22.35,0.0,0.0,0.0,0.019620000000000002,0.11772,9.819809999999999
323232320,22.35,0.0,0.0,0.0,0.02943,0.14715,9.819809999999999
328282825,22.35,0.0,0.0,0.0,0.02943,0.14715,9.81
333333330,22.35,0.0,0.0,0.0,0.009810000000000001,0.12753,9.79038
338383835,22.35,0.0,0.0,0.0,0.02943,0.16677000000000003,9.80019
343434340,22.35,0.0,0.0,0.0,0.05886,0.17658,9.80019
348484845,22.35,0.0,0.0,0.0,0.009810000000000001,0.17658,9.770760000000001
353535350,22.35,0.0,0.0,0.0,0.02943,0.16677000000000003,9.81
358585855,22.35,0.0,0.0,0.0,0.02943,0.12753,9.80019
363636360,22.35,0.0,0.0,0.0,0.039240000000000004,0.12753,9.81
368686865,22.35,0.0,0.0,0.0,0.019620000000000002,0.12753,9.79038
373737370,22.35,0.0,0.0,0.0,0.0,0.13734000000000002,9.78057
378787875,22.35,0.0,0.0,0.0,0.019620000000000002,0.15696000000000002,9.80019
383838380,22.35,0.0,0.0,0.0,0.02943,0.17658,9.819809999999999
388888885,22.35,0.0,0.0,0.0,0.019620000000000002,0.17658,9.82962
393939390,22.35,0.0,0.0,0.0,0.019620000000000002,0.15696000000000002,9.81
398989895,22.35,0.0,0.0,0.0,0.039240000000000004,0.15696000000000002,9.79038
404040400,22.35,0.0,0.0,0.0,0.019620000000000002,0.14715,9.80019
409090905,22.35,0.0,0.0,0.0,0.009810000000000001,0.13734000000000002,9.82962
414141410,22.35,0.0,0.0,0.0,0.039240000000000004,0.17658,9.80019
419191915,22.35,0.0,0.0,0.0,0.009810000000000001,0.14715,9.81
424242420,22.35,0.0,0.0,0.0,0.04905,0.17658,9.819809999999999
429292925,22.35,0.0,0.0,0.0,0.019620000000000002,0.16677000000000003,9.79038
434343430,22.35,0.0,0.0,0.0,0.02943,0.12753,9.79038
439393935,22.35,0.0,0.0,0.0,0.0,0.13734000000000002,9.79038
444444440,22.35,0.0,0.0,0.0,0.02943,0.14715,9.81
449494945,22.35,0.0,0.0,0.0,0.02943,0.16677000000000003,9.81
454545450,22.35,0.0,0.0,0.0,0.019620000000000002,0.15696000000000002,9.82962
459595955,22.35,0.0,0.0,0.0,0.04905,0.15696000000000002,9.80019
464646460,22.35,0.0,0.0,0.0,0.039240000000000004,0.14715,9.770760000000001
469696965,22.35,0.0,0.0,0.0,0.019620000000000002,0.15696000000000002,9.78057
474747470,22.35,0.0,0.0,0.0,0.019620000000000002,0.17658,9.80019
479797975,22.35,0.0,0.0,0.0,0.019620000000000002,0.15696000000000002,9.81
484848480,22.35,0.0,0.0,0.0,0.02943,0.17658,9.81
489898985,22.35,0.0,0.0,0.0,0.019620000000000002,0.17658,9.819809999999999
494949490,22.35,0.0,0.0,0.0,0.02943,0.15696000000000002,9.751140000000001
499999995,22.35,0.0,0.0,0.0,0.019620000000000002,0.15696000000000002,9.81
505050500,22.35,0.0,0.0,0.0,0.019620000000000002,0.11772,9.770760000000001
510101005,22.35,0.0,0.0,0.0,0.039240000000000004,0.15696000000000002,9.78057
515151510,22.35,0.0,0.0,0.0,0.02943,0.16677000000000003,9.81
520202015,22.35,0.0,0.0,0.0,0.039240000000000004,0.16677000000000003,9.819809999999999
525252520,22.35,0.0,0.0,0.0,0.039240000000000004,0.14715,9.81
530303025,22.35,0.0,0.0,0.0,0.04905,0.14715,9.819809999999999
535353530,22.35,0.0,0.0,0.0,0.019620000000000002,0.13734000000000002,9.80019
540404035,22.35,0.0,0.0,0.0,0.02943,0.15696000000000002,9.80019
545454540,22.35,0.0,0.0,0.0,0.019620000000000002,0.16677000000000003,9.78057
550505045,22.35,0.0,0.0,0.0,0.019620000000000002,0.15696000000000002,9.79038
555555550,22.35,0.0,0.0,0.0,0.019620000000000002,0.18639,9.81
560606055,22.35,0.0,0.0,0.0,0.019620000000000002,0.17658,9.81
565656560,22.35,0.0,0.0,0.0,0.039240000000000004,0.14715,9.80019
570707065,22.35,0.0,0.0,0.0,0.02943,0.14715,9.80019
575757570,22.35,0.0,0.0,0.0,0.019620000000000002,0.15696000000000002,9.79038
580808075,22.35,0.0,0.0,0.0,0.009810000000000001,0.12753,9.81
585858580,22.35,0.0,0.0,0.0,0.02943,0.17658,9.80019
590909085,22.35,0.0,0.0,0.0,0.02943,0.16677000000000003,9.79038
595959590,22.35,0.0,0.0,0.0,0.02943,0.14715,9.819809999999999
601010095,22.35,0.0,0.0,0.0,0.02943,0.13734000000000002,9.819809999999999
606060600,22.35,0.0,0.0,0.0,0.009810000000000001,0.15696000000000002,9.80019
611111105,22.35,0.0,0.0,0.0,0.019620000000000002,0.13734000000000002,9.80019
616161610,22.35,0.0,0.0,0.0,0.019620000000000002,0.15696000000000002,9.81
621212115,22.35,0.0,0.0,0.0,0.02943,0.1962,9.819809999999999
626262620,22.35,0.0,0.0,0.0,0.019620000000000002,0.17658,9.80019
631313125,22.35,0.0,0.0,0.0,0.04905,0.16677000000000003,9.80019
636363630,22.35,0.0,0.0,0.0,0.02943,0.13734000000000002,9.78057
641414135,22.35,0.0,0.0,0.0,0.02943,0.18639,9.79038
646464640,22.35,0.0,0.0,0.0,0.02943,0.13734000000000002,9.770760000000001
651515145,22.35,0.0,0.0,0.0,0.019620000000000002,0.13734000000000002,9.819809999999999
656565650,22.35,0.0,0.0,0.0,0.019620000000000002,0.16677000000000003,9.819809999999999
661616155,22.35,0.0,0.0,0.0,0.019620000000000002,0.17658,9.80019
666666660,22.35,0.0,0.0,0.0,0.009810000000000001,0.17658,9.80019
671717165,22.35,0.0,0.0,0.0,0.02943,0.16677000000000003,9.79038
676767670,22.35,0.0,0.0,0.0,0.039240000000000004,0.15696000000000002,9.79038
681818175,22.35,0.0,0.0,0.0,0.039240000000000004,0.17658,9.80019
686868680,22.35,0.0,0.0,0.0,0.039240000000000004,0.13734000000000002,9.80019
691919185,22.35,0.0,0.0,0.0,0.019620000000000002,0.14715,9.81
696969690,22.35,0.0,0.0,0.0,0.0,0.13734000000000002,9.80019
702020195,22.35,0.0,0.0,0.0,0.009810000000000001,0.16677000000000003,9.79038
707070700,22.35,0.0,0.0,0.0,0.04905,0.17658,9.80019
712121205,22.35,0.0,0.0,0.0,0.019620000000000002,0.15696000000000002,9.81
717171710,22.35,0.0,0.0,0.0,0.02943,0.16677000000000003,9.80019
722222215,22.35,0.0,0.0,0.0,0.039240000000000004,0.17658,9.78057
727272720,22.35,0.0,0.0,0.0,0.009810000000000001,0.16677000000000003,9.81
732323225,22.35,0.0,0.0,0.0,0.009810000000000001,0.14715,9.80019
737373730,22.35,0.0,0.0,0.0,0.019620000000000002,0.13734000000000002,9.80019
742424235,22.35,0.0,0.0,0.0,0.0,0.14715,9.770760000000001
747474740,22.35,0.0,0.0,0.0,0.02943,0.15696000000000002,9.79038
752525245,22.35,0.0,0.0,0.0,0.019620000000000002,0.15696000000000002,9.79038
757575750,22.35,0.0,0.0,0.0,0.04905,0.1962,9.81
762626255,22.35,0.0,0.0,0.0,0.02943,0.14715,9.80019
767676760,22.35,0.0,0.0,0.0,0.039240000000000004,0.15696000000000002,9.78057
772727265,22.35,0.0,0.0,0.0,0.019620000000000002,0.12753,9.79038
777777770,22.35,0.0,0.0,0.0,0.02943,0.14715,9.770760000000001
782828275,22.35,0.0,0.0,0.0,0.009810000000000001,0.13734000000000002,9.79038
787878780,22.35,0.0,0.0,0.0,0.02943,0.13734000000000002,9.80019
792929285,22.35,0.0,0.0,0.0,0.04905,0.16677000000000003,9.819809999999999
797979790,22.35,0.0,0.0,0.0,0.039240000000000004,0.15696000000000002,9.819809999999999
803030295,22.35,0.0,0.0,0.0,0.039240000000000004,0.15696000000000002,9.81
808080800,22.35,0.0,0.0,0.0,0.019620000000000002,0.14715,9.79038
813131305,22.35,0.0,0.0,0.0,0.019620000000000002,0.14715,9.80019
818181810,22.35,0.0,0.0,0.0,0.019620000000000002,0.12753,9.81
823232315,22.35,0.0,0.0,0.0,0.009810000000000001,0.13734000000000002,9.78057
828282820,22.35,0.0,0.0,0.0,0.02943,0.15696000000000002,9.79038
833333325,22.35,0.0,0.0,0.0,0.019620000000000002,0.16677000000000003,9.78057
838383830,22.35,0.0,0.0,0.0,0.02943,0.17658,9.78057
843434335,22.35,0.0,0.0,0.0,0.039240000000000004,0.14715,9.80019
848484840,22.35,0.0,0.0,0.0,0.009810000000000001,0.13734000000000002,9.81
853535345,22.35,0.0,0.0,0.0,0.009810000000000001,0.14715,9.81
858585850,22.35,0.0,0.0,0.0,0.039240000000000004,0.16677000000000003,9.81
863636355,22.35,0.0,0.0,0.0,0.019620000000000002,0.15696000000000002,9.81
868686860,22.35,0.0,0.0,0.0,0.02943,0.16677000000000003,9.81
873737365,22.35,0.0,0.0,0.0,0.039240000000000004,0.17658,9.78057
878787870,22.35,0.0,0.0,0.0,0.02943,0.16677000000000003,9.78057
883838375,22.35,0.0,0.0,0.0,0.019620000000000002,0.13734000000000002,9.79038
888888880,22.35,0.0,0.0,0.0,0.039240000000000004,0.15696000000000002,9.81
893939385,22.35,0.0,0.0,0.0,0.02943,0.17658,9.819809999999999
898989890,22.35,0.0,0.0,0.0,0.0,0.14715,9.819809999999999
904040395,22.35,0.0,0.0,0.0,0.019620000000000002,0.13734000000000002,9.819809999999999
909090900,22.35,0.0,0.0,0.0,0.039240000000000004,0.15696000000000002,9.78057
914141405,22.35,0.0,0.0,0.0,0.019620000000000002,0.16677000000000003,9.80019
919191910,22.35,0.0,0.0,0.0,0.039240000000000004,0.18639,9.80019
924242415,22.35,0.0,0.0,0.0,0.019620000000000002,0.17658,9.80019
929292920,22.35,0.0,0.0,0.0,0.009810000000000001,0.14715,9.80019
934343425,22.35,0.0,0.0,0.0,0.02943,0.13734000000000002,9.80019
939393930,22.35,0.0,0.0,0.0,0.039240000000000004,0.14715,9.79038
944444435,22.35,0.0,0.0,0.0,0.019620000000000002,0.13734000000000002,9.81
949494940,22.35,0.0,0.0,0.0,0.02943,0.14715,9.80019
954545445,22.35,0.0,0.0,0.0,0.0,0.16677000000000003,9.81
959595950,22.35,0.0,0.0,0.0,0.019620000000000002,0.16677000000000003,9.80019
964646455,22.35,0.0,0.0,0.0,0.02943,0.15696000000000002,9.81
969696960,22.35,0.0,0.0,0.0,0.04905,0.18639,9.80019
974747465,22.35,0.0,0.0,0.0,0.009810000000000001,0.14715,9.80019
979797970,22.35,0.0,0.0,0.0,0.039240000000000004,0.12753,9.78057
984848475,22.35,0.0,0.0,0.0,0.0,0.15696000000000002,9.80019
989898980,22.35,0.0,0.0,0.0,0.009810000000000001,0.18639,9.80019
994949485,22.35,0.0,0.0,0.0,0.019620000000000002,0.1962,9.81
999999990,22.35,0.0,0.0,0.0,0.05886,0.16677000000000003,9.80019
1005050495,22.35,0.0,0.0,0.0,0.02943,0.18639,9.81
1010101000,22.35,0.0,0.0,0.0,0.039240000000000004,0.15696000000000002,9.79038
1015151505,22.35,0.0,0.0,0.0,0.039240000000000004,0.15696000000000002,9.79038
1020202010,22.35,0.0,0.0,0.0,0.02943,0.13734000000000002,9.81
1025252515,22.35,0.0,0.0,0.0,0.019620000000000002,0.15696000000000002,9.80019
1030303020,22.35,0.0,0.0,0.0,0.0,0.16677000000000003,9.80019
1035353525,22.35,0.0,0.0,0.0,0.04905,0.18639,9.80019
1040404030,22.35,0.0,0.0,0.0,0.019620000000000002,0.16677000000000003,9.78057
1045454535,22.35,0.0,0.0,0.0,0.02943,0.17658,9.80019
1050505040,22.35,0.0,0.0,0.0,0.02943,0.14715,9.81
1055555545,22.35,0.0,0.0,0.0,0.04905,0.17658,9.79038
1060606050,22.35,0.0,0.0,0.0,0.019620000000000002,0.13734000000000002,9.82962
1065656555,22.35,0.0,0.0,0.0,0.009810000000000001,0.15696000000000002,9.80019
1070707060,22.35,0.0,0.0,0.0,0.039240000000000004,0.16677000000000003,9.82962
1075757565,22.35,0.0,0.0,0.0,0.009810000000000001,0.15696000000000002,9.78057
1080808070,22.35,0.0,0.0,0.0,0.019620000000000002,0.15696000000000002,9.770760000000001
1085858575,22.35,0.0,0.0,0.0,0.009810000000000001,0.15696000000000002,9.81
1090909080,22.35,0.0,0.0,0.0,0.009810000000000001,0.16677000000000003,9.81
1095959585,22.35,0.0,0.0,0.0,0.019620000000000002,0.17658,9.82962
1101010090,22.35,0.0,0.0,0.0,0.02943,0.14715,9.80019
1106060595,22.35,0.0,0.0,0.0,0.02943,0.12753,9.80019
1111111100,22.35,0.0,0.0,0.0,0.0,0.13734000000000002,9.819809999999999
1116161605,22.35,0.0,0.0,0.0,0.02943,0.14715,9.78057
1121212110,22.35,0.0,0.0,0.0,0.009810000000000001,0.16677000000000003,9.81
1126262615,22.35,0.0,0.0,0.0,0.02943,0.16677000000000003,9.80019
1131313120,22.35,0.0,0.0,0.0,0.04905,0.16677000000000003,9.819809999999999
1136363625,22.35,0.0,0.0,0.0,0.039240000000000004,0.14715,9.80019
1141414130,22.35,0.0,0.0,0.0,0.019620000000000002,0.17658,9.819809999999999
1146464635,22.35,0.0,0.0,0.0,0.019620000000000002,0.13734000000000002,9.819809999999999
1151515140,22.35,0.0,0.0,0.0,0.019620000000000002,0.16677000000000003,9.78057
1156565645,22.35,0.0,0.0,0.0,0.02943,0.14715,9.80019
1161616150,22.35,0.0,0.0,0.0,0.04905,0.17658,9.78057
1166666655,22.35,0.0,0.0,0.0,0.02943,0.17658,9.81
1171717160,22.35,0.0,0.0,0.0,0.019620000000000002,0.15696000000000002,9.79038
1176767665,22.35,0.0,0.0,0.0,0.039240000000000004,0.14715,9.819809999999999
1181818170,22.35,0.0,0.0,0.0,0.02943,0.15696000000000002,9.80019
1186868675,22.35,0.0,0.0,0.0,0.02943,0.15696000000000002,9.78057
1191919180,22.35,0.0,0.0,0.0,0.02943,0.17658,9.819809999999999
1196969685,22.35,0.0,0.0,0.0,0.02943,0.16677000000000003,9.81
1202020190,22.35,0.0,0.0,0.0,0.039240000000000004,0.16677000000000003,9.819809999999999
1207070695,22.35,0.0,0.0,0.0,0.02943,0.14715,9.78057
1212121200,22.35,0.0,0.0,0.0,0.009810000000000001,0.15696000000000002,9.81
1217171705,22.35,0.0,0.0,0.0,0.019620000000000002,0.15696000000000002,9.79038
1222222210,22.35,0.0,0.0,0.0,0.0,0.14715,9.81
1227272715,22.35,0.0,0.0,0.0,0.009810000000000001,0.13734000000000002,9.819809999999999
1232323220,22.35,0.0,0.0,0.0,0.019620000000000002,0.12753,9.80019
1237373725,22.35,0.0,0.0,0.0,0.02943,0.16677000000000003,9.79038
1242424230,22.35,0.0,0.0,0.0,0.039240000000000004,0.15696000000000002,9.78057
1247474735,22.35,0.0,0.0,0.0,0.04905,0.15696000000000002,9.79038
1252525240,22.35,0.0,0.0,0.0,0.039240000000000004,0.15696000000000002,9.79038
1257575745,22.35,0.0,0.0,0.0,0.02943,0.15696000000000002,9.81
1262626250,22.35,0.0,0.0,0.0,0.019620000000000002,0.15696000000000002,9.819809999999999
1267676755,22.35,0.0,0.0,0.0,0.02943,0.14715,9.82962
1272727260,22.35,0.0,0.0,0.0,0.04905,0.14715,9.80019
1277777765,22.35,0.0,0.0,0.0,0.019620000000000002,0.16677000000000003,9.79038
1282828270,22.35,0.0,0.0,0.0,0.019620000000000002,0.16677000000000003,9.79038
1287878775,22.35,0.0,0.0,0.0,0.009810000000000001,0.17658,9.79038
1292929280,22.35,0.0,0.0,0.0,0.039240000000000004,0.14715,9.81
1297979785,22.35,0.0,0.0,0.0,0.019620000000000002,0.18639,9.81
1303030290,22.35,0.0,0.0,0.0,0.04905,0.14715,9.79038
1308080795,22.35,0.0,0.0,0.0,0.02943,0.13734000000000002,9.80019
1313131300,22.35,0.0,0.0,0.0,0.019620000000000002,0.14715,9.80019
1318181805,22.35,0.0,0.0,0.0,0.019620000000000002,0.14715,9.819809999999999
1323232310,22.35,0.0,0.0,0.0,0.039240000000000004,0.14715,9.81
1328282815,22.35,0.0,0.0,0.0,0.05886,0.14715,9.81
1333333320,22.35,0.0,0.0,0.0,0.02943,0.15696000000000002,9.79038
1338383825,22.35,0.0,0.0,0.0,0.04905,0.15696000000000002,9.79038
1343434330,22.35,0.0,0.0,0.0,0.039240000000000004,0.14715,9.79038
1348484835,22.35,0.0,0.0,0.0,0.0,0.13734000000000002,9.81
1353535340,22.35,0.0,0.0,0.0,0.02943,0.13734000000000002,9.80019
1358585845,22.35,0.0,0.0,0.0,0.0,0.16677000000000003,9.80019
1363636350,22.35,0.0,0.0,0.0,0.019620000000000002,0.14715,9.78057
1368686855,22.35,0.0,0.0,0.0,0.019620000000000002,0.18639,9.81
1373737360,22.35,0.0,0.0,0.0,0.039240000000000004,0.16677000000000003,9.80019
1378787865,22.35,0.0,0.0,0.0,0.04905,0.14715,9.80019
1383838370,22.35,0.0,0.0,0.0,0.02943,0.14715,9.79038
1388888875,22.35,0.0,0.0,0.0,0.039240000000000004,0.14715,9.80019
1393939380,22.35,0.0,0.0,0.0,0.019620000000000002,0.14715,9.81
1398989885,22.35,0.0,0.0,0.0,0.02943,0.17658,9.819809999999999
1404040390,22.35,0.0,0.0,0.0,0.039240000000000004,0.17658,9.79038
1409090895,22.35,0.0,0.0,0.0,0.039240000000000004,0.17658,9.79038
1414141400,22.35,0.0,0.0,0.0,0.04905,0.17658,9.80019
1419191905,22.35,0.0,0.0,0.0,0.02943,0.12753,9.79038
1424242410,22.35,0.0,0.0,0.0,0.02943,0.13734000000000002,9.78057
1429292915,22.35,0.0,0.0,0.0,0.0,0.12753,9.81
1434343420,22.35,0.0,0.0,0.0,0.009810000000000001,0.18639,9.80019
1439393925,22.35,0.0,0.0,0.0,0.009810000000000001,0.15696000000000002,9.80019
1444444430,22.35,0.0,0.0,0.0,0.02943,0.14715,9.80019
1449494935,22.35,0.0,0.0,0.0,0.04905,0.16677000000000003,9.79038
1454545440,22.35,0.0,0.0,0.0,0.02943,0.16677000000000003,9.81
1459595945,22.35,0.0,0.0,0.0,0.019620000000000002,0.16677000000000003,9.819809999999999
1464646450,22.35,0.0,0.0,0.0,0.039240000000000004,0.16677000000000003,9.80019
1469696955,22.35,0.0,0.0,0.0,0.02943,0.14715,9.819809999999999
1474747460,22.35,0.0,0.0,0.0,0.019620000000000002,0.13734000000000002,9.819809999999999
1479797965,22.35,0.0,0.0,0.0,0.039240000000000004,0.14715,9.79038
1484848470,22.35,0.0,0.0,0.0,0.019620000000000002,0.15696000000000002,9.78057
1489898975,22.35,0.0,0.0,0.0,0.019620000000000002,0.17658,9.819809999999999
1494949480,22.35,0.0,0.0,0.0,0.02943,0.16677000000000003,9.79038
1499999985,22.35,0.0,0.0,0.0,0.039240000000000004,0.18639,9.80019
1505050490,22.35,0.0,0.0,0.0,0.039240000000000004,0.14715,9.79038
1510100995,22.35,0.0,0.0,0.0,0.039240000000000004,0.14715,9.79038
1515151500,22.35,0.0,0.0,0.0,0.039240000000000004,0.13734000000000002,9.80019
1520202005,22.35,0.0,0.0,0.0,0.019620000000000002,0.13734000000000002,9.83943
1525252510,22.35,0.0,0.0,0.0,0.019620000000000002,0.17658,9.819809999999999
1530303015,22.35,0.0,0.0,0.0,0.02943,0.18639,9.80019
1535353520,22.35,0.0,0.0,0.0,0.039240000000000004,0.18639,9.80019
1540404025,22.35,0.0,0.0,0.0,0.009810000000000001,0.16677000000000003,9.81
1545454530,22.35,0.0,0.0,0.0,0.019620000000000002,0.15696000000000002,9.81
1550505035,22.35,0.0,0.0,0.0,0.02943,0.14715,9.81
1555555540,22.35,0.0,0.0,0.0,0.019620000000000002,0.13734000000000002,9.81
1560606045,22.35,0.0,0.0,0.0,0.04905,0.14715,9.81
1565656550,22.35,0.0,0.0,0.0,0.04905,0.18639,9.79038
1570707055,22.35,0.0,0.0,0.0,0.02943,0.15696000000000002,9.81
1575757560,22.35,0.0,0.0,0.0,0.05886,0.16677000000000003,9.80019
1580808065,22.35,0.0,0.0,0.0,0.009810000000000001,0.17658,9.80019
1585858570,22.35,0.0,0.0,0.0,0.02943,0.16677000000000003,9.80019
1590909075,22.35,0.0,0.0,0.0,0.02943,0.15696000000000002,9.79038
1595959580,22.35,0.0,0.0,0.0,0.0,0.12753,9.81
1601010085,22.35,0.0,0.0,0.0,0.019620000000000002,0.16677000000000003,9.81
1606060590,22.35,0.0,0.0,0.0,0.019620000000000002,0.14715,9.80019
1611111095,22.35,0.0,0.0,0.0,0.009810000000000001,0.17658,9.819809999999999
1616161600,22.35,0.0,0.0,0.0,0.009810000000000001,0.15696000000000002,9.80019
1621212105,22.35,0.0,0.0,0.0,0.019620000000000002,0.15696000000000002,9.80019
1626262610,22.35,0.0,0.0,0.0,0.009810000000000001,0.14715,9.82962
1631313115,22.35,0.0,0.0,0.0,0.019620000000000002,0.15696000000000002,9.81
1636363620,22.35,0.0,0.0,0.0,0.039240000000000004,0.15696000000000002,9.82962
1641414125,22.35,0.0,0.0,0.0,0.04905,0.13734000000000002,9.79038
1646464630,22.35,0.0,0.0,0.0,0.019620000000000002,0.16677000000000003,9.770760000000001
1651515135,22.35,0.0,0.0,0.0,0.02943,0.16677000000000003,9.78057
1656565640,22.35,0.0,0.0,0.0,0.02943,0.12753,9.78057
1661616145,22.35,0.0,0.0,0.0,0.019620000000000002,0.14715,9.79038
1666666650,22.35,0.0,0.0,0.0,0.039240000000000004,0.15696000000000002,9.80019
1671717155,22.35,0.0,0.0,0.0,0.02943,0.13734000000000002,9.81
1676767660,22.35,0.0,0.0,0.0,0.039240000000000004,0.15696000000000002,9.81
1681818165,22.35,0.0,0.0,0.0,0.02943,0.13734000000000002,9.78057
1686868670,22.35,0.0,0.0,0.0,0.019620000000000002,0.13734000000000002,9.80019
1691919175,22.35,0.0,0.0,0.0,0.019620000000000002,0.13734000000000002,9.80019
1696969680,22.35,0.0,0.0,0.0,0.009810000000000001,0.15696000000000002,9.81
1702020185,22.35,0.0,0.0,0.0,0.039240000000000004,0.17658,9.78057
1707070690,22.35,0.0,0.0,0.0,0.0,0.15696000000000002,9.79038
1712121195,22.35,0.0,0.0,0.0,0.02943,0.1962,9.79038
1717171700,22.35,0.0,0.0,0.0,0.019620000000000002,0.12753,9.81
1722222205,22.35,0.0,0.0,0.0,0.039240000000000004,0.14715,9.80019
1727272710,22.35,0.0,0.0,0.0,0.02943,0.16677000000000003,9.78057
1732323215,22.35,0.0,0.0,0.0,0.04905,0.16677000000000003,9.770760000000001
1737373720,22.35,0.0,0.0,0.0,0.02943,0.16677000000000003,9.79038
1742424225,22.35,0.0,0.0,0.0,0.02943,0.15696000000000002,9.770760000000001
1747474730,22.35,0.0,0.0,0.0,0.019620000000000002,0.14715,9.81
1752525235,22.35,0.0,0.0,0.0,0.02943,0.13734000000000002,9.81
1757575740,22.35,0.0,0.0,0.0,0.039240000000000004,0.13734000000000002,9.81
1762626245,22.35,0.0,0.0,0.0,0.039240000000000004,0.14715,9.81
1767676750,22.35,0.0,0.0,0.0,0.019620000000000002,0.18639,9.80019
1772727255,22.35,0.0,0.0,0.0,0.039240000000000004,0.15696000000000002,9.78057
1777777760,22.35,0.0,0.0,0.0,0.04905,0.12753,9.770760000000001
1782828265,22.35,0.0,0.0,0.0,0.039240000000000004,0.16677000000000003,9.79038
1787878770,22.35,0.0,0.0,0.0,0.02943,0.16677000000000003,9.79038
1792929275,22.35,0.0,0.0,0.0,0.009810000000000001,0.14715,9.81
1797979780,22.35,0.0,0.0,0.0,0.009810000000000001,0.16677000000000003,9.81
1803030285,22.35,0.0,0.0,0.0,0.04905,0.13734000000000002,9.81
1808080790,22.35,0.0,0.0,0.0,0.019620000000000002,0.14715,9.81
1813131295,22.35,0.0,0.0,0.0,0.019620000000000002,0.13734000000000002,9.78057
1818181800,22.35,0.0,0.0,0.0,0.04905,0.15696000000000002,9.80019
1823232305,22.35,0.0,0.0,0.0,0.039240000000000004,0.14715,9.80019
1828282810,22.35,0.0,0.0,0.0,0.039240000000000004,0.17658,9.80019
1833333315,22.35,0.0,0.0,0.0,0.019620000000000002,0.15696000000000002,9.80019
1838383820,22.35,0.0,0.0,0.0,0.019620000000000002,0.15696000000000002,9.81
1843434325,22.35,0.0,0.0,0.0,0.019620000000000002,0.14715,9.81
1848484830,22.35,0.0,0.0,0.0,0.02943,0.14715,9.78057
1853535335,22.35,0.0,0.0,0.0,0.039240000000000004,0.15696000000000002,9.81
1858585840,22.35,0.0,0.0,0.0,0.019620000000000002,0.13734000000000002,9.770760000000001
1863636345,22.35,0.0,0.0,0.0,0.019620000000000002,0.17658,9.79038
1868686850,22.35,0.0,0.0,0.0,0.0,0.17658,9.81
1873737355,22.35,0.0,0.0,0.0,0.02943,0.15696000000000002,9.81
1878787860,22.35,0.0,0.0,0.0,0.04905,0.14715,9.81
1883838365,22.35,0.0,0.0,0.0,0.039240000000000004,0.12753,9.81
1888888870,22.35,0.0,0.0,0.0,0.0,0.16677000000000003,9.81
1893939375,22.35,0.0,0.0,0.0,0.039240000000000004,0.13734000000000002,9.81
1898989880,22.35,0.0,0.0,0.0,0.02943,0.17658,9.80019
1904040385,22.35,0.0,0.0,0.0,0.019620000000000002,0.14715,9.80019
1909090890,22.35,0.0,0.0,0.0,0.039240000000000004,0.15696000000000002,9.80019
1914141395,22.35,0.0,0.0,0.0,0.019620000000000002,0.15696000000000002,9.81
1919191900,22.35,0.0,0.0,0.0,0.02943,0.15696000000000002,9.79038
1924242405,22.35,0.0,0.0,0.0,0.019620000000000002,0.15696000000000002,9.80019
1929292910,22.35,0.0,0.0,0.0,0.039240000000000004,0.16677000000000003,9.79038
1934343415,22.35,0.0,0.0,0.0,0.019620000000000002,0.15696000000000002,9.81
1939393920,22.35,0.0,0.0,0.0,0.04905,0.14715,9.81
1944444425,22.35,0.0,0.0,0.0,0.019620000000000002,0.13734000000000002,9.79038
1949494930,22.35,0.0,0.0,0.0,0.019620000000000002,0.14715,9.79038
1954545435,22.35,0.0,0.0,0.0,0.02943,0.15696000000000002,9.80019
1959595940,22.35,0.0,0.0,0.0,0.019620000000000002,0.17658,9.78057
1964646445,22.35,0.0,0.0,0.0,0.039240000000000004,0.16677000000000003,9.81
1969696950,22.35,0.0,0.0,0.0,0.019620000000000002,0.14715,9.79038
1974747455,22.35,0.0,0.0,0.0,0.04905,0.17658,9.80019
1979797960,22.35,0.0,0.0,0.0,0.019620000000000002,0.14715,9.78057
1984848465,22.35,0.0,0.0,0.0,0.039240000000000004,0.14715,9.78057
1989898970,22.35,0.0,0.0,0.0,0.02943,0.15696000000000002,9.81
1994949475,22.35,0.0,0.0,0.0,0.0,0.13734000000000002,9.81
1999999980,22.35,0.0,0.0,0.0,0.039240000000000004,0.16677000000000003,9.80019
2005050485,22.35,0.0,0.0,0.0,0.039240000000000004,0.15696000000000002,9.819809999999999
2010100990,22.35,0.0,0.0,0.0,0.039240000000000004,0.15696000000000002,9.80019
2015151495,22.35,0.0,0.0,0.0,0.019620000000000002,0.15696000000000002,9.80019
2020202000,22.35,0.0,0.0,0.0,0.04905,0.17658,9.770760000000001
2025252505,22.35,0.0,0.0,0.0,0.02943,0.16677000000000003,9.80019
2030303010,22.35,0.0,0.0,0.0,0.02943,0.14715,9.81
2035353515,22.35,0.0,0.0,0.0,0.02943,0.16677000000000003,9.82962
2040404020,22.35,0.0,0.0,0.0,0.04905,0.12753,9.81
2045454525,22.35,0.0,0.0,0.0,0.039240000000000004,0.13734000000000002,9.79038
2050505030,22.35,0.0,0.0,0.0,0.019620000000000002,0.12753,9.80019
2055555535,22.35,0.0,0.0,0.0,0.039240000000000004,0.15696000000000002,9.80019
2060606040,22.35,0.0,0.0,0.0,0.019620000000000002,0.16677000000000003,9.81
2065656545,22.35,0.0,0.0,0.0,0.039240000000000004,0.14715,9.81
2070707050,22.35,0.0,0.0,0.0,0.02943,0.15696000000000002,9.80019
2075757555,22.35,0.0,0.0,0.0,0.0,0.16677000000000003,9.79038
2080808060,22.35,0.0,0.0,0.0,0.019620000000000002,0.13734000000000002,9.819809999999999
2085858565,22.35,0.0,0.0,0.0,0.019620000000000002,0.14715,9.80019
2090909070,22.35,0.0,0.0,0.0,0.019620000000000002,0.16677000000000003,9.819809999999999
2095959575,22.35,0.0,0.0,0.0,0.019620000000000002,0.13734000000000002,9.81
2101010080,22.35,0.0,0.0,0.0,0.009810000000000001,0.16677000000000003,9.81
2106060585,22.35,0.0,0.0,0.0,0.019620000000000002,0.14715,9.78057
2111111090,22.35,0.0,0.0,0.0,0.02943,0.15696000000000002,9.79038
2116161595,22.35,0.0,0.0,0.0,0.019620000000000002,0.12753,9.80019
2121212100,22.35,0.0,0.0,0.0,0.039240000000000004,0.14715,9.81
2126262605,22.35,0.0,0.0,0.0,0.009810000000000001,0.14715,9.80019
2131313110,22.35,0.0,0.0,0.0,0.039240000000000004,0.13734000000000002,9.819809999999999
2136363615,22.35,0.0,0.0,0.0,0.02943,0.13734000000000002,9.81
2141414120,22.35,0.0,0.0,0.0,0.019620000000000002,0.13734000000000002,9.819809999999999
2146464625,22.35,0.0,0.0,0.0,0.019620000000000002,0.17658,9.80019
2151515130,22.35,0.0,0.0,0.0,0.02943,0.15696000000000002,9.78057
2156565635,22.35,0.0,0.0,0.0,0.009810000000000001,0.15696000000000002,9.79038
2161616140,22.35,0.0,0.0,0.0,0.019620000000000002,0.15696000000000002,9.81
2166666645,22.35,0.0,0.0,0.0,0.019620000000000002,0.15696000000000002,9.80019
2171717150,22.35,0.0,0.0,0.0,0.019620000000000002,0.16677000000000003,9.82962
2176767655,22.35,0.0,0.0,0.0,0.02943,0.14715,9.80019
2181818160,22.35,0.0,0.0,0.0,0.04905,0.17658,9.819809999999999
2186868665,22.35,0.0,0.0,0.0,0.02943,0.16677000000000003,9.79038
2191919170,22.35,0.0,0.0,0.0,0.019620000000000002,0.14715,9.78057
2196969675,22.35,0.0,0.0,0.0,0.02943,0.13734000000000002,9.81
2202020180,22.35,0.0,0.0,0.0,0.019620000000000002,0.16677000000000003,9.80019
2207070685,22.35,0.0,0.0,0.0,0.009810000000000001,0.17658,9.81
2212121190,22.35,0.0,0.0,0.0,0.04905,0.13734000000000002,9.81
2217171695,22.35,0.0,0.0,0.0,0.039240000000000004,0.13734000000000002,9.81
2222222200,22.35,0.0,0.0,0.0,0.019620000000000002,0.16677000000000003,9.79038
2227272705,22.35,0.0,0.0,0.0,0.02943,0.15696000000000002,9.79038
2232323210,22.35,0.0,0.0,0.0,0.02943,0.18639,9.81
2237373715,22.35,0.0,0.0,0.0,0.009810000000000001,0.15696000000000002,9.80019
2242424220,22.35,0.0,0.0,0.0,0.039240000000000004,0.15696000000000002,9.79038
2247474725,22.35,0.0,0.0,0.0,0.019620000000000002,0.14715,9.81
2252525230,22.35,0.0,0.0,0.0,0.039240000000000004,0.14715,9.81
2257575735,22.35,0.0,0.0,0.0,0.039240000000000004,0.15696000000000002,9.80019
2262626240,22.35,0.0,0.0,0.0,0.019620000000000002,0.15696000000000002,9.82962
2267676745,22.35,0.0,0.0,0.0,0.02943,0.15696000000000002,9.81
2272727250,22.35,0.0,0.0,0.0,0.02943,0.16677000000000003,9.81
2277777755,22.35,0.0,0.0,0.0,0.009810000000000001,0.16677000000000003,9.81
2282828260,22.35,0.0,0.0,0.0,0.009810000000000001,0.17658,9.80019
2287878765,22.35,0.0,0.0,0.0,0.0,0.13734000000000002,9.80019
2292929270,22.35,0.0,0.0,0.0,0.02943,0.14715,9.80019
2297979775,22.35,0.0,0.0,0.0,0.02943,0.14715,9.79038
2303030280,22.35,0.0,0.0,0.0,0.02943,0.15696000000000002,9.81
2308080785,22.35,0.0,0.0,0.0,0.039240000000000004,0.14715,9.80019
2313131290,22.35,0.0,0.0,0.0,0.02943,0.17658,9.81
2318181795,22.35,0.0,0.0,0.0,0.039240000000000004,0.14715,9.81
2323232300,22.35,0.0,0.0,0.0,0.02943,0.14715,9.78057
2328282805,22.35,0.0,0.0,0.0,0.02943,0.14715,9.80019
2333333310,22.35,0.0,0.0,0.0,0.039240000000000004,0.14715,9.80019
2338383815,22.35,0.0,0.0,0.0,0.02943,0.15696000000000002,9.79038
2343434320,22.35,0.0,0.0,0.0,0.04905,0.16677000000000003,9.78057
2348484825,22.35,0.0,0.0,0.0,0.02943,0.16677000000000003,9.819809999999999
2353535330,22.35,0.0,0.0,0.0,0.039240000000000004,0.17658,9.80019
2358585835,22.35,0.0,0.0,0.0,0.0,0.16677000000000003,9.81
2363636340,22.35,0.0,0.0,0.0,0.009810000000000001,0.14715,9.79038
2368686845,22.35,0.0,0.0,0.0,0.039240000000000004,0.15696000000000002,9.81
2373737350,22.35,0.0,0.0,0.0,0.019620000000000002,0.18639,9.81
2378787855,22.35,0.0,0.0,0.0,0.039240000000000004,0.16677000000000003,9.79038
2383838360,22.35,0.0,0.0,0.0,0.04905,0.14715,9.79038
2388888865,22.35,0.0,0.0,0.0,0.02943,0.15696000000000002,9.79038
2393939370,22.35,0.0,0.0,0.0,0.02943,0.12753,9.79038
2398989875,22.35,0.0,0.0,0.0,0.019620000000000002,0.16677000000000003,9.81
2404040380,22.35,0.0,0.0,0.0,0.019620000000000002,0.17658,9.80019
2409090885,22.35,0.0,0.0,0.0,0.019620000000000002,0.14715,9.81
2414141390,22.35,0.0,0.0,0.0,0.02943,0.14715,9.79038
2419191895,22.35,0.0,0.0,0.0,0.02943,0.15696000000000002,9.80019
2424242400,22.35,0.0,0.0,0.0,0.019620000000000002,0.14715,9.81
2429292905,22.35,0.0,0.0,0.0,0.02943,0.16677000000000003,9.79038
2434343410,22.35,0.0,0.0,0.0,0.039240000000000004,0.14715,9.78057
2439393915,22.35,0.0,0.0,0.0,0.04905,0.17658,9.81
2444444420,22.35,0.0,0.0,0.0,0.02943,0.15696000000000002,9.78057
2449494925,22.35,0.0,0.0,0.0,0.04905,0.15696000000000002,9.78057
2454545430,22.35,0.0,0.0,0.0,0.009810000000000001,0.15696000000000002,9.79038
2459595935,22.35,0.0,0.0,0.0,0.0,0.16677000000000003,9.81
2464646440,22.35,0.0,0.0,0.0,0.039240000000000004,0.13734000000000002,9.80019
2469696945,22.35,0.0,0.0,0.0,0.02943,0.15696000000000002,9.80019
2474747450,22.35,0.0,0.0,0.0,0.009810000000000001,0.14715,9.81
2479797955,22.35,0.0,0.0,0.0,0.039240000000000004,0.17658,9.81
2484848460,22.35,0.0,0.0,0.0,0.019620000000000002,0.17658,9.79038
2489898965,22.35,0.0,0.0,0.0,0.0,0.16677000000000003,9.770760000000001
2494949470,22.35,0.0,0.0,0.0,0.039240000000000004,0.16677000000000003,9.80019
2499999975,22.35,0.0,0.0,0.0,0.02943,0.13734000000000002,9.81
2505050480,22.35,0.0,0.0,0.0,0.02943,0.13734000000000002,9.80019
2510100985,22.35,0.0,0.0,0.0,0.009810000000000001,0.18639,9.819809999999999
2515151490,22.35,0.0,0.0,0.0,0.039240000000000004,0.17658,9.79038
2520201995,22.35,0.0,0.0,0.0,0.019620000000000002,0.15696000000000002,9.819809999999999
2525252500,22.35,0.0,0.0,0.0,0.04905,0.14715,9.79038
2530303005,22.35,0.0,0.0,0.0,0.04905,0.15696000000000002,9.819809999999999
2535353510,22.35,0.0,0.0,0.0,0.039240000000000004,0.15696000000000002,9.81
2540404015,22.35,0.0,0.0,0.0,0.039240000000000004,0.14715,9.81
2545454520,22.35,0.0,0.0,0.0,0.019620000000000002,0.14715,9.80019
2550505025,22.35,0.0,0.0,0.0,0.009810000000000001,0.12753,9.81
2555555530,22.35,0.0,0.0,0.0,0.009810000000000001,0.16677000000000003,9.79038
2560606035,22.35,0.0,0.0,0.0,0.019620000000000002,0.18639,9.79038
2565656540,22.35,0.0,0.0,0.0,0.009810000000000001,0.17658,9.80019
2570707045,22.35,0.0,0.0,0.0,0.02943,0.15696000000000002,9.81
2575757550,22.35,0.0,0.0,0.0,0.009810000000000001,0.13734000000000002,9.79038
2580808055,22.35,0.0,0.0,0.0,0.04905,0.15696000000000002,9.80019
2585858560,22.35,0.0,0.0,0.0,0.02943,0.12753,9.79038
2590909065,22.35,0.0,0.0,0.0,0.02943,0.15696000000000002,9.81
2595959570,22.35,0.0,0.0,0.0,0.019620000000000002,0.15696000000000002,9.81
2601010075,22.35,0.0,0.0,0.0,0.0,0.1962,9.80019
2606060580,22.35,0.0,0.0,0.0,0.019620000000000002,0.13734000000000002,9.80019
2611111085,22.35,0.0,0.0,0.0,0.02943,0.15696000000000002,9.81
2616161590,22.35,0.0,0.0,0.0,0.039240000000000004,0.15696000000000002,9.80019
2621212095,22.35,0.0,0.0,0.0,0.009810000000000001,0.16677000000000003,9.81
2626262600,22.35,0.0,0.0,0.0,0.039240000000000004,0.14715,9.80019
2631313105,22.35,0.0,0.0,0.0,0.019620000000000002,0.13734000000000002,9.80019
2636363610,22.35,0.0,0.0,0.0,0.02943,0.15696000000000002,9.819809999999999
2641414115,22.35,0.0,0.0,0.0,0.039240000000000004,0.15696000000000002,9.79038
2646464620,22.35,0.0,0.0,0.0,0.009810000000000001,0.14715,9.81
2651515125,22.35,0.0,0.0,0.0,0.019620000000000002,0.14715,9.79038
2656565630,22.35,0.0,0.0,0.0,0.02943,0.18639,9.79038
2661616135,22.35,0.0,0.0,0.0,0.019620000000000002,0.17658,9.79038
2666666640,22.35,0.0,0.0,0.0,0.02943,0.16677000000000003,9.80019
2671717145,22.35,0.0,0.0,0.0,0.019620000000000002,0.13734000000000002,9.81
2676767650,22.35,0.0,0.0,0.0,0.05886,0.14715,9.819809999999999
2681818155,22.35,0.0,0.0,0.0,0.019620000000000002,0.13734000000000002,9.80019
2686868660,22.35,0.0,0.0,0.0,0.019620000000000002,0.15696000000000002,9.78057
2691919165,22.35,0.0,0.0,0.0,0.02943,0.17658,9.819809999999999
2696969670,22.35,0.0,0.0,0.0,0.04905,0.16677000000000003,9.79038
2702020175,22.35,0.0,0.0,0.0,0.019620000000000002,0.14715,9.79038
2707070680,22.35,0.0,0.0,0.0,0.02943,0.16677000000000003,9.819809999999999
2712121185,22.35,0.0,0.0,0.0,0.019620000000000002,0.15696000000000002,9.81
2717171690,22.35,0.0,0.0,0.0,0.009810000000000001,0.15696000000000002,9.81
2722222195,22.35,0.0,0.0,0.0,0.02943,0.14715,9.79038
2727272700,22.35,0.0,0.0,0.0,0.009810000000000001,0.18639,9.79038
2732323205,22.35,0.0,0.0,0.0,0.05886,0.15696000000000002,9.80019
2737373710,22.35,0.0,0.0,0.0,0.019620000000000002,0.17658,9.78057
2742424215,22.35,0.0,0.0,0.0,0.02943,0.14715,9.79038
2747474720,22.35,0.0,0.0,0.0,0.02943,0.10791,9.81
2752525225,22.35,0.0,0.0,0.0,0.0,0.15696000000000002,9.81
2757575730,22.35,0.0,0.0,0.0,0.02943,0.13734000000000002,9.79038
2762626235,22.35,0.0,0.0,0.0,0.009810000000000001,0.15696000000000002,9.81
2767676740,22.35,0.0,0.0,0.0,0.02943,0.16677000000000003,9.79038
2772727245,22.35,0.0,0.0,0.0,0.039240000000000004,0.17658,9.81
2777777750,22.35,0.0,0.0,0.0,0.04905,0.16677000000000003,9.79038
2782828255,22.35,0.0,0.0,0.0,0.019620000000000002,0.14715,9.79038
2787878760,22.35,0.0,0.0,0.0,0.039240000000000004,0.16677000000000003,9.80019
2792929265,22.35,0.0,0.0,0.0,0.009810000000000001,0.16677000000000003,9.81
2797979770,22.35,0.0,0.0,0.0,0.02943,0.15696000000000002,9.79038
2803030275,22.35,0.0,0.0,0.0,0.04905,0.17658,9.81
2808080780,22.35,0.0,0.0,0.0,0.05886,0.18639,9.79038
2813131285,22.35,0.0,0.0,0.0,0.039240000000000004,0.14715,9.770760000000001
2818181790,22.35,0.0,0.0,0.0,0.02943,0.14715,9.80019
2823232295,22.35,0.0,0.0,0.0,0.039240000000000004,0.16677000000000003,9.79038
2828282800,22.35,0.0,0.0,0.0,0.039240000000000004,0.10791,9.79038
2833333305,22.35,0.0,0.0,0.0,0.039240000000000004,0.12753,9.819809999999999
2838383810,22.35,0.0,0.0,0.0,0.039240000000000004,0.15696000000000002,9.81
2843434315,22.35,0.0,0.0,0.0,0.039240000000000004,0.16677000000000003,9.819809999999999
2848484820,22.35,0.0,0.0,0.0,0.02943,0.15696000000000002,9.79038
2853535325,22.35,0.0,0.0,0.0,0.04905,0.17658,9.79038
2858585830,22.35,0.0,0.0,0.0,0.009810000000000001,0.15696000000000002,9.80019
2863636335,22.35,0.0,0.0,0.0,0.02943,0.12753,9.78057
2868686840,22.35,0.0,0.0,0.0,0.039240000000000004,0.12753,9.80019
2873737345,22.35,0.0,0.0,0.0,0.039240000000000004,0.14715,9.81
2878787850,22.35,0.0,0.0,0.0,0.019620000000000002,0.17658,9.80019
2883838355,22.35,0.0,0.0,0.0,0.039240000000000004,0.15696000000000002,9.79038
2888888860,22.35,0.0,0.0,0.0,0.04905,0.16677000000000003,9.80019
2893939365,22.35,0.0,0.0,0.0,0.02943,0.18639,9.81
2898989870,22.35,0.0,0.0,0.0,0.019620000000000002,0.15696000000000002,9.78057
2904040375,22.35,0.0,0.0,0.0,0.039240000000000004,0.15696000000000002,9.819809999999999
2909090880,22.35,0.0,0.0,0.0,0.009810000000000001,0.11772,9.80019
2914141385,22.35,0.0,0.0,0.0,0.02943,0.13734000000000002,9.81
2919191890,22.35,0.0,0.0,0.0,0.039240000000000004,0.16677000000000003,9.80019
2924242395,22.35,0.0,0.0,0.0,0.0,0.16677000000000003,9.81
2929292900,22.35,0.0,0.0,0.0,0.04905,0.15696000000000002,9.79038
2934343405,22.35,0.0,0.0,0.0,0.019620000000000002,0.15696000000000002,9.80019
2939393910,22.35,0.0,0.0,0.0,0.04905,0.17658,9.81
2944444415,22.35,0.0,0.0,0.0,0.039240000000000004,0.13734000000000002,9.81
2949494920,22.35,0.0,0.0,0.0,0.019620000000000002,0.14715,9.80019
2954545425,22.35,0.0,0.0,0.0,0.009810000000000001,0.14715,9.80019
2959595930,22.35,0.0,0.0,0.0,0.019620000000000002,0.14715,9.80019
2964646435,22.35,0.0,0.0,0.0,0.039240000000000004,0.13734000000000002,9.80019
2969696940,22.35,0.0,0.0,0.0,0.009810000000000001,0.14715,9.79038
2974747445,22.35,0.0,0.0,0.0,0.019620000000000002,0.17658,9.81
2979797950,22.35,0.0,0.0,0.0,0.019620000000000002,0.14715,9.80019
2984848455,22.35,0.0,0.0,0.0,0.02943,0.15696000000000002,9.78057
2989898960,22.35,0.0,0.0,0.0,0.02943,0.15696000000000002,9.79038
2994949465,22.35,0.0,0.0,0.0,0.039240000000000004,0.14715,9.82962
2999999970,22.35,0.0,0.0,0.0,0.019620000000000002,0.15696000000000002,9.80019
3005050475,22.35,0.0,0.0,0.0,0.019620000000000002,0.17658,9.78057
3010100980,22.35,0.0,0.0,0.0,0.009810000000000001,0.16677000000000003,9.80019
3015151485,22.35,0.0,0.0,0.0,0.02943,0.17658,9.81
3020201990,22.35,0.0,0.0,0.0,0.02943,0.16677000000000003,9.80019
3025252495,22.35,0.0,0.0,0.0,0.0,0.14715,9.81
3030303000,22.35,0.0,0.0,0.0,0.009810000000000001,0.13734000000000002,9.79038
3035353505,22.35,0.0,0.0,0.0,0.04905,0.15696000000000002,9.81
3040404010,22.35,0.0,0.0,0.0,0.02943,0.15696000000000002,9.81
3045454515,22.35,0.0,0.0,0.0,0.039240000000000004,0.17658,9.81
3050505020,22.35,0.0,0.0,0.0,0.05886,0.17658,9.81
3055555525,22.35,0.0,0.0,0.0,0.039240000000000004,0.15696000000000002,9.78057
3060606030,22.35,0.0,0.0,0.0,0.019620000000000002,0.15696000000000002,9.78057
3065656535,22.35,0.0,0.0,0.0,0.04905,0.13734000000000002,9.79038
3070707040,22.35,0.0,0.0,0.0,0.039240000000000004,0.15696000000000002,9.78057
3075757545,22.35,0.0,0.0,0.0,0.019620000000000002,0.15696000000000002,9.82962
3080808050,22.35,0.0,0.0,0.0,0.02943,0.14715,9.78057
3085858555,22.35,0.0,0.0,0.0,0.02943,0.15696000000000002,9.80019
3090909060,22.35,0.0,0.0,0.0,0.009810000000000001,0.15696000000000002,9.770760000000001
3095959565,22.35,0.0,0.0,0.0,0.039240000000000004,0.14715,9.770760000000001
3101010070,22.35,0.0,0.0,0.0,0.039240000000000004,0.16677000000000003,9.79038
3106060575,22.35,0.0,0.0,0.0,0.0,0.15696000000000002,9.80019
3111111080,22.35,0.0,0.0,0.0,0.039240000000000004,0.14715,9.819809999999999
3116161585,22.35,0.0,0.0,0.0,0.019620000000000002,0.14715,9.80019
3121212090,22.35,0.0,0.0,0.0,0.019620000000000002,0.13734000000000002,9.80019
3126262595,22.35,0.0,0.0,0.0,0.039240000000000004,0.17658,9.78057
3131313100,22.35,0.0,0.0,0.0,0.019620000000000002,0.18639,9.80019
3136363605,22.35,0.0,0.0,0.0,0.02943,0.16677000000000003,9.819809999999999
3141414110,22.35,0.0,0.0,0.0,0.02943,0.11772,9.80019
3146464615,22.35,0.0,0.0,0.0,0.039240000000000004,0.16677000000000003,9.80019
3151515120,22.35,0.0,0.0,0.0,0.039240000000000004,0.16677000000000003,9.79038
3156565625,22.35,0.0,0.0,0.0,0.039240000000000004,0.14715,9.81
3161616130,22.35,0.0,0.0,0.0,0.019620000000000002,0.16677000000000003,9.79038
3166666635,22.35,0.0,0.0,0.0,0.019620000000000002,0.15696000000000002,9.79038
3171717140,22.35,0.0,0.0,0.0,0.0,0.16677000000000003,9.80019
3176767645,22.35,0.0,0.0,0.0,0.019620000000000002,0.11772,9.79038
3181818150,22.35,0.0,0.0,0.0,0.039240000000000004,0.15696000000000002,9.80019
3186868655,22.35,0.0,0.0,0.0,0.02943,0.17658,9.80019
3191919160,22.35,0.0,0.0,0.0,0.019620000000000002,0.13734000000000002,9.819809999999999
3196969665,22.35,0.0,0.0,0.0,0.02943,0.12753,9.81
3202020170,22.35,0.0,0.0,0.0,0.0,0.14715,9.819809999999999
3207070675,22.35,0.0,0.0,0.0,0.02943,0.15696000000000002,9.82962
3212121180,22.35,0.0,0.0,0.0,0.02943,0.17658,9.80019
3217171685,22.35,0.0,0.0,0.0,0.04905,0.17658,9.78057
3222222190,22.35,0.0,0.0,0.0,0.019620000000000002,0.14715,9.81
3227272695,22.35,0.0,0.0,0.0,0.019620000000000002,0.16677000000000003,9.80019
3232323200,22.35,0.0,0.0,0.0,0.039240000000000004,0.16677000000000003,9.80019
3237373705,22.35,0.0,0.0,0.0,0.0,0.13734000000000002,9.81
3242424210,22.35,0.0,0.0,0.0,0.02943,0.17658,9.81
3247474715,22.35,0.0,0.0,0.0,0.039240000000000004,0.15696000000000002,9.80019
3252525220,22.35,0.0,0.0,0.0,0.009810000000000001,0.16677000000000003,9.819809999999999
3257575725,22.35,0.0,0.0,0.0,0.02943,0.15696000000000002,9.79038
3262626230,22.35,0.0,0.0,0.0,0.02943,0.17658,9.80019
3267676735,22.35,0.0,0.0,0.0,0.04905,0.13734000000000002,9.819809999999999
3272727240,22.35,0.0,0.0,0.0,0.019620000000000002,0.12753,9.81
3277777745,22.35,0.0,0.0,0.0,0.019620000000000002,0.16677000000000003,9.81
3282828250,22.35,0.0,0.0,0.0,0.009810000000000001,0.12753,9.81
3287878755,22.35,0.0,0.0,0.0,0.039240000000000004,0.16677000000000003,9.80019
3292929260,22.35,0.0,0.0,0.0,0.019620000000000002,0.15696000000000002,9.80019
3297979765,22.35,0.0,0.0,0.0,0.02943,0.14715,9.79038
3303030270,22.35,0.0,0.0,0.0,0.019620000000000002,0.14715,9.819809999999999
3308080775,22.35,0.0,0.0,0.0,0.05886,0.17658,9.80019
3313131280,22.35,0.0,0.0,0.0,0.02943,0.16677000000000003,9.81
3318181785,22.35,0.0,0.0,0.0,0.039240000000000004,0.15696000000000002,9.81
3323232290,22.35,0.0,0.0,0.0,0.02943,0.17658,9.79038
3328282795,22.35,0.0,0.0,0.0,0.019620000000000002,0.13734000000000002,9.80019
3333333300,22.35,0.0,0.0,0.0,0.039240000000000004,0.16677000000000003,9.81
3338383805,22.35,0.0,0.0,0.0,0.02943,0.14715,9.80019
3343434310,22.35,0.0,0.0,0.0,0.019620000000000002,0.17658,9.819809999999999
3348484815,22.35,0.0,0.0,0.0,0.02943,0.14715,9.80019
3353535320,22.35,0.0,0.0,0.0,0.039240000000000004,0.17658,9.80019
3358585825,22.35,0.0,0.0,0.0,0.019620000000000002,0.14715,9.79038
3363636330,22.35,0.0,0.0,0.0,0.019620000000000002,0.17658,9.80019
3368686835,22.35,0.0,0.0,0.0,0.009810000000000001,0.13734000000000002,9.79038
3373737340,22.35,0.0,0.0,0.0,0.02943,0.14715,9.819809999999999
3378787845,22.35,0.0,0.0,0.0,0.04905,0.16677000000000003,9.81
3383838350,22.35,0.0,0.0,0.0,0.019620000000000002,0.15696000000000002,9.80019
3388888855,22.35,0.0,0.0,0.0,0.02943,0.15696000000000002,9.80019
3393939360,22.35,0.0,0.0,0.0,0.039240000000000004,0.14715,9.79038
3398989865,22.35,0.0,0.0,0.0,0.02943,0.14715,9.80019
3404040370,22.35,0.0,0.0,0.0,0.019620000000000002,0.15696000000000002,9.81
3409090875,22.35,0.0,0.0,0.0,0.009810000000000001,0.16677000000000003,9.80019
3414141380,22.35,0.0,0.0,0.0,0.019620000000000002,0.16677000000000003,9.78057
3419191885,22.35,0.0,0.0,0.0,0.019620000000000002,0.15696000000000002,9.78057
3424242390,22.35,0.0,0.0,0.0,0.039240000000000004,0.17658,9.80019
3429292895,22.35,0.0,0.0,0.0,0.02943,0.16677000000000003,9.81
3434343400,22.35,0.0,0.0,0.0,0.02943,0.13734000000000002,9.81
3439393905,22.35,0.0,0.0,0.0,0.009810000000000001,0.14715,9.80019
3444444410,22.35,0.0,0.0,0.0,0.019620000000000002,0.15696000000000002,9.81
3449494915,22.35,0.0,0.0,0.0,0.009810000000000001,0.12753,9.80019
3454545420,22.35,0.0,0.0,0.0,0.04905,0.16677000000000003,9.81
3459595925,22.35,0.0,0.0,0.0,0.039240000000000004,0.16677000000000003,9.80019
3464646430,22.35,0.0,0.0,0.0,0.039240000000000004,0.14715,9.81
3469696935,22.35,0.0,0.0,0.0,0.039240000000000004,0.15696000000000002,9.80019
3474747440,22.35,0.0,0.0,0.0,0.04905,0.16677000000000003,9.79038
3479797945,22.35,0.0,0.0,0.0,0.039240000000000004,0.14715,9.80019
3484848450,22.35,0.0,0.0,0.0,0.02943,0.14715,9.81
3489898955,22.35,0.0,0.0,0.0,0.039240000000000004,0.15696000000000002,9.78057
3494949460,22.35,0.0,0.0,0.0,0.039240000000000004,0.14715,9.78057
3499999965,22.35,0.0,0.0,0.0,0.0,0.15696000000000002,9.80019
3505050470,22.35,0.0,0.0,0.0,0.019620000000000002,0.16677000000000003,9.78057
3510100975,22.35,0.0,0.0,0.0,0.039240000000000004,0.15696000000000002,9.81
3515151480,22.35,0.0,0.0,0.0,0.039240000000000004,0.15696000000000002,9.81
3520201985,22.35,0.0,0.0,0.0,0.009810000000000001,0.15696000000000002,9.79038
3525252490,22.35,0.0,0.0,0.0,0.019620000000000002,0.11772,9.80019
3530302995,22.35,0.0,0.0,0.0,0.04905,0.15696000000000002,9.81
3535353500,22.35,0.0,0.0,0.0,0.019620000000000002,0.17658,9.80019
3540404005,22.35,0.0,0.0,0.0,0.02943,0.16677000000000003,9.79038
3545454510,22.35,0.0,0.0,0.0,0.019620000000000002,0.16677000000000003,9.79038
3550505015,22.35,0.0,0.0,0.0,0.039240000000000004,0.15696000000000002,9.81
3555555520,22.35,0.0,0.0,0.0,0.009810000000000001,0.17658,9.80019
3560606025,22.35,0.0,0.0,0.0,0.019620000000000002,0.14715,9.80019
3565656530,22.35,0.0,0.0,0.0,0.019620000000000002,0.12753,9.81
3570707035,22.35,0.0,0.0,0.0,0.04905,0.14715,9.81
3575757540,22.35,0.0,0.0,0.0,0.009810000000000001,0.17658,9.81
3580808045,22.35,0.0,0.0,0.0,0.0,0.14715,9.78057
3585858550,22.35,0.0,0.0,0.0,0.019620000000000002,0.17658,9.80019
3590909055,22.35,0.0,0.0,0.0,0.02943,0.15696000000000002,9.81
3595959560,22.35,0.0,0.0,0.0,0.039240000000000004,0.17658,9.79038
3601010065,22.35,0.0,0.0,0.0,0.019620000000000002,0.12753,9.81
3606060570,22.35,0.0,0.0,0.0,0.019620000000000002,0.15696000000000002,9.819809999999999
3611111075,22.35,0.0,0.0,0.0,0.019620000000000002,0.14715,9.81
3616161580,22.35,0.0,0.0,0.0,0.02943,0.16677000000000003,9.81
3621212085,22.35,0.0,0.0,0.0,0.02943,0.15696000000000002,9.79038
3626262590,22.35,0.0,0.0,0.0,0.04905,0.14715,9.79038
3631313095,22.35,0.0,0.0,0.0,0.04905,0.15696000000000002,9.79038
3636363600,22.35,0.0,0.0,0.0,0.009810000000000001,0.15696000000000002,9.81
3641414105,22.35,0.0,0.0,0.0,0.019620000000000002,0.16677000000000003,9.81
3646464610,22.35,0.0,0.0,0.0,0.04905,0.13734000000000002,9.81
3651515115,22.35,0.0,0.0,0.0,0.009810000000000001,0.16677000000000003,9.81
3656565620,22.35,0.0,0.0,0.0,0.02943,0.17658,9.81
3661616125,22.35,0.0,0.0,0.0,0.0,0.13734000000000002,9.78057
3666666630,22.35,0.0,0.0,0.0,0.02943,0.15696000000000002,9.78057
3671717135,22.35,0.0,0.0,0.0,0.02943,0.15696000000000002,9.81
3676767640,22.35,0.0,0.0,0.0,0.039240000000000004,0.16677000000000003,9.81
3681818145,22.35,0.0,0.0,0.0,0.019620000000000002,0.13734000000000002,9.81
3686868650,22.35,0.0,0.0,0.0,0.02943,0.16677000000000003,9.81
3691919155,22.35,0.0,0.0,0.0,0.039240000000000004,0.14715,9.81
3696969660,22.35,0.0,0.0,0.0,0.039240000000000004,0.16677000000000003,9.81
3702020165,22.35,0.0,0.0,0.0,0.02943,0.15696000000000002,9.81
3707070670,22.35,0.0,0.0,0.0,0.009810000000000001,0.17658,9.80019
3712121175,22.35,0.0,0.0,0.0,0.039240000000000004,0.17658,9.79038
3717171680,22.35,0.0,0.0,0.0,0.019620000000000002,0.15696000000000002,9.80019
3722222185,22.35,0.0,0.0,0.0,0.02943,0.18639,9.81
3727272690,22.35,0.0,0.0,0.0,0.039240000000000004,0.14715,9.79038
3732323195,22.35,0.0,0.0,0.0,0.019620000000000002,0.14715,9.81
3737373700,22.35,0.0,0.0,0.0,0.05886,0.13734000000000002,9.79038
3742424205,22.35,0.0,0.0,0.0,0.019620000000000002,0.16677000000000003,9.80019
3747474710,22.35,0.0,0.0,0.0,0.039240000000000004,0.16677000000000003,9.79038
3752525215,22.35,0.0,0.0,0.0,0.04905,0.17658,9.79038
3757575720,22.35,0.0,0.0,0.0,0.02943,0.14715,9.81
3762626225,22.35,0.0,0.0,0.0,0.02943,0.14715,9.78057
3767676730,22.35,0.0,0.0,0.0,0.02943,0.14715,9.78057
3772727235,22.35,0.0,0.0,0.0,0.04905,0.15696000000000002,9.78057
3777777740,22.35,0.0,0.0,0.0,0.019620000000000002,0.1962,9.770760000000001
3782828245,22.35,0.0,0.0,0.0,0.019620000000000002,0.15696000000000002,9.760950000000001
3787878750,22.35,0.0,0.0,0.0,0.039240000000000004,0.18639,9.751140000000001
3792929255,22.35,0.0,0.0,0.0,0.039240000000000004,0.17658,9.74133
3797979760,22.35,0.0,0.0,0.0,0.039240000000000004,0.16677000000000003,9.74133
3803030265,22.35,0.0,0.0,0.0,0.009810000000000001,0.16677000000000003,9.760950000000001
3808080770,22.35,0.0,0.0,0.0,0.02943,0.14715,9.80019
3813131275,22.35,0.0,0.0,0.0,0.019620000000000002,0.15696000000000002,9.81
3818181780,22.35,0.0,0.0,0.0,0.02943,0.10791,9.81
3823232285,22.35,0.0,0.0,0.0,0.039240000000000004,0.14715,9.81
3828282790,22.35,0.0,0.0,0.0,0.009810000000000001,0.14715,9.81
3833333295,22.35,0.0,0.0,0.0,0.04905,0.12753,9.83943
3838383800,22.35,0.0,0.0,0.0,0.039240000000000004,0.11772,9.83943
3843434305,22.35,0.0,0.0,0.0,0.05886,0.13734000000000002,9.82962
3848484810,22.35,0.0,0.0,0.0,0.05886,0.13734000000000002,9.83943
3853535315,22.35,0.0,0.0,0.0,0.039240000000000004,0.14715,9.81
3858585820,22.35,0.0,0.0,0.0,0.05886,0.13734000000000002,9.819809999999999
3863636325,22.35,0.0,0.0,0.0,0.039240000000000004,0.14715,9.79038
3868686830,22.35,0.0,0.0,0.0,0.019620000000000002,0.14715,9.78057
3873737335,22.35,0.0,0.0,0.0,0.039240000000000004,0.1962,9.79038
3878787840,22.35,0.0,0.0,0.0,0.039240000000000004,0.18639,9.78057
3883838345,22.35,0.0,0.0,0.0,0.04905,0.16677000000000003,9.74133
3888888850,22.35,0.0,0.0,0.0,0.02943,0.17658,9.770760000000001
3893939355,22.35,0.0,0.0,0.0,0.019620000000000002,0.15696000000000002,9.72171
3898989860,22.35,0.0,0.0,0.0,0.009810000000000001,0.16677000000000003,9.74133
3904040365,22.35,0.0,0.0,0.0,0.009810000000000001,0.15696000000000002,9.751140000000001
3909090870,22.35,0.0,0.0,0.0,0.0,0.16677000000000003,9.79038
3914141375,22.35,0.0,0.0,0.0,0.019620000000000002,0.16677000000000003,9.78057
3919191880,22.35,0.0,0.0,0.0,0.019620000000000002,0.17658,9.79038
3924242385,22.35,0.0,0.0,0.0,0.039240000000000004,0.13734000000000002,9.80019
3929292890,22.35,0.0,0.0,0.0,0.04905,0.13734000000000002,9.770760000000001
3934343395,22.35,0.0,0.0,0.0,0.04905,0.15696000000000002,9.78057
3939393900,22.35,0.0,0.0,0.0,0.04905,0.16677000000000003,9.81
3944444405,22.35,0.0,0.0,0.0,0.06867000000000001,0.18639,9.80019
3949494910,22.35,0.0,0.0,0.0,0.08829,0.15696000000000002,9.78057
3954545415,22.35,0.0,0.0,0.0,0.07848000000000001,0.14715,9.74133
3959595920,22.35,-0.007452555906015787,0.006387905062299246,0.0,0.06867000000000001,0.0981,9.64323
3964646425,22.35,-0.006387905062299246,0.01064650843716541,0.0,0.009810000000000001,0.15696000000000002,9.70209
3969696930,22.35,-0.002129301687433082,0.01064650843716541,0.0,0.009810000000000001,0.18639,9.760950000000001
3974747435,22.35,0.0,0.008517206749732328,0.0,-0.009810000000000001,0.20601000000000003,9.81
3979797940,22.35,0.001064650843716541,0.001064650843716541,0.0,-0.009810000000000001,0.23544,9.79038
3984848445,22.35,-0.002129301687433082,-0.00958185759344887,0.0,0.02943,0.20601000000000003,9.78057
3989898950,22.35,-0.00958185759344887,-0.005323254218582705,0.0,0.019620000000000002,0.14715,9.74133
3994949455,22.35,-0.01064650843716541,0.002129301687433082,0.0,0.0,0.0981,9.69228
3999999960,22.35,-0.00958185759344887,-0.001064650843716541,0.0,0.0,0.14715,9.73152
4005050465,22.35,-0.01064650843716541,-0.006387905062299246,0.0,0.019620000000000002,0.16677000000000003,9.78057
4010100970,22.35,-0.007452555906015787,-0.006387905062299246,0.0,0.039240000000000004,0.13734000000000002,9.84924
4015151475,22.35,-0.006387905062299246,-0.001064650843716541,0.0,0.04905,0.15696000000000002,9.84924
4020201980,22.35,-0.007452555906015787,-0.005323254218582705,0.0,0.04905,0.14715,9.83943
4025252485,22.35,-0.005323254218582705,-0.002129301687433082,0.0,0.04905,0.13734000000000002,9.84924
4030302990,22.35,-0.01064650843716541,0.001064650843716541,0.0,0.04905,0.08829,9.85905
4035353495,22.35,-0.012775810124598492,0.0,0.0,0.019620000000000002,0.07848000000000001,9.87867
4040404000,22.35,-0.006387905062299246,0.004258603374866164,0.0,0.019620000000000002,0.0981,9.908100000000001
4045454505,22.35,0.0,0.001064650843716541,0.0,0.009810000000000001,0.11772,9.94734
4050505010,22.35,0.0,-0.001064650843716541,0.0,0.02943,0.11772,9.888480000000001
4055555515,22.35,0.001064650843716541,-0.001064650843716541,0.0,0.039240000000000004,0.13734000000000002,9.908100000000001
4060606020,22.35,0.001064650843716541,0.0,0.0,0.04905,0.15696000000000002,9.83943
4065656525,22.35,0.0,0.001064650843716541,0.0,0.009810000000000001,0.11772,9.80019
4070707030,22.35,0.001064650843716541,0.005323254218582705,0.0,0.02943,0.14715,9.80019
4075757535,22.35,0.0,0.007452555906015787,0.0,0.019620000000000002,0.13734000000000002,9.770760000000001
4080808040,22.35,0.001064650843716541,0.004258603374866164,0.0,0.039240000000000004,0.15696000000000002,9.74133
4085858545,22.35,0.003193952531149623,0.0,0.0,0.009810000000000001,0.22563,9.7119
4090909050,22.35,0.002129301687433082,-0.003193952531149623,0.0,0.009810000000000001,0.21582,9.67266
4095959555,22.35,-0.002129301687433082,0.0,0.0,0.04905,0.21582,9.633420000000001
4101010060,22.35,-0.005323254218582705,0.002129301687433082,0.0,0.039240000000000004,0.18639,9.60399
4106060565,22.35,-0.007452555906015787,0.003193952531149623,0.0,0.039240000000000004,0.1962,9.623610000000001
4111111070,22.35,-0.007452555906015787,0.005323254218582705,0.0,0.009810000000000001,0.18639,9.633420000000001
4116161575,22.35,-0.00958185759344887,0.004258603374866164,0.0,0.02943,0.16677000000000003,9.65304
4121212080,22.35,-0.007452555906015787,0.0,0.0,0.0,0.20601000000000003,9.623610000000001
4126262585,22.35,-0.00958185759344887,0.0,0.0,0.009810000000000001,0.21582,9.67266
4131313090,22.35,-0.014905111812031574,-0.005323254218582705,0.0,0.0,0.21582,9.67266
4136363595,22.35,-0.015987215948268057,-0.007452555906015787,0.0,0.019620000000000002,0.20601000000000003,9.751140000000001
4141414100,22.35,-0.01811651763570114,0.0,0.0,0.009810000000000001,0.11772,9.79038
4146464605,22.35,-0.0170518667919846,0.008517206749732328,0.0,-0.019620000000000002,0.04905,9.82962
4151515110,22.35,-0.01918116847941768,0.002129301687433082,0.0,-0.04905,0.05886,9.81
4156565615,22.35,-0.01811651763570114,-0.01811651763570114,0.0,-0.039240000000000004,0.10791,9.86886
4161616120,22.35,-0.011711159280881954,-0.0170518667919846,0.0,0.05886,0.10791,9.87867
4166666625,22.35,-0.01064650843716541,-0.005323254218582705,0.0,0.04905,0.14715,9.87867
4171717130,22.35,-0.008517206749732328,-0.012775810124598492,0.0,0.05886,0.20601000000000003,9.94734
4176767635,22.35,-0.011711159280881954,-0.020245819323134222,0.0,0.14715,0.08829,10.03563
4181818140,22.35,-0.0170518667919846,-0.004258603374866164,0.0,0.12753,-0.04905,9.96696
4186868645,22.35,-0.013840460968315033,0.012775810124598492,0.0,0.06867000000000001,-0.0981,9.89829
4191919150,22.35,-0.007452555906015787,0.013840460968315033,0.0,0.02943,-0.02943,9.97677
4196969655,22.35,0.006387905062299246,0.00958185759344887,0.0,0.009810000000000001,0.06867000000000001,9.89829
4202020160,22.35,0.013840460968315033,0.00958185759344887,0.0,0.05886,0.18639,9.86886
4207070665,22.35,0.03089232776029963,0.0,0.0,0.04905,0.38259000000000004,9.74133
4212121170,22.35,0.02663372438543347,-0.006387905062299246,0.0,0.0981,0.3924,9.66285
4217171675,22.35,0.005323254218582705,0.01064650843716541,0.0,0.12753,0.2943,9.56475
4222222180,22.35,-0.0170518667919846,0.02556907354171693,0.0,0.009810000000000001,0.17658,9.496080000000001
4227272685,22.35,-0.02769837522915001,0.015987215948268057,0.0,-0.04905,0.12753,9.57456
4232323190,22.35,-0.022375121010567305,0.006387905062299246,0.0,-0.08829,0.12753,9.69228
4237373695,22.35,-0.01918116847941768,-0.001064650843716541,0.0,-0.0981,0.08829,9.79038
4242424200,22.35,-0.007452555906015787,-0.004258603374866164,0.0,-0.10791,0.15696000000000002,9.84924
4247474705,22.35,-0.001064650843716541,-0.015987215948268057,0.0,-0.039240000000000004,0.16677000000000003,9.79038
4252525210,22.35,-0.00958185759344887,-0.020245819323134222,0.0,-0.009810000000000001,0.14715,9.74133
4257575715,22.35,-0.01811651763570114,-0.022375121010567305,0.0,0.039240000000000004,0.0981,9.70209
4262626220,22.35,-0.022375121010567305,-0.012775810124598492,0.0,0.07848000000000001,0.08829,9.74133
4267676725,22.35,-0.014905111812031574,-0.00958185759344887,0.0,0.06867000000000001,0.10791,9.760950000000001
4272727230,22.35,-0.01811651763570114,-0.011711159280881954,0.0,0.11772,0.15696000000000002,9.83943
4277777735,22.35,-0.011711159280881954,-0.013840460968315033,0.0,0.14715,0.14715,9.84924
4282828240,22.35,-0.006387905062299246,-0.004258603374866164,0.0,0.16677000000000003,0.08829,9.770760000000001
4287878745,22.35,-0.01064650843716541,0.008517206749732328,0.0,0.11772,0.08829,9.69228
4292929250,22.35,-0.008517206749732328,0.01918116847941768,0.0,0.08829,0.11772,9.68247
4297979755,22.35,-0.012775810124598492,0.024504422698000388,0.0,0.039240000000000004,0.12753,9.74133
4303030260,22.35,-0.012775810124598492,0.023439771854283843,0.0,-0.02943,0.13734000000000002,9.819809999999999
4308080765,22.35,-0.005323254218582705,0.012775810124598492,0.0,-0.039240000000000004,0.16677000000000003,9.85905
4313131270,22.35,-0.006387905062299246,0.001064650843716541,0.0,-0.05886,0.14715,9.82962
4318181775,22.35,-0.012775810124598492,-0.002129301687433082,0.0,-0.06867000000000001,0.12753,9.84924
4323232280,22.35,-0.01811651763570114,-0.005323254218582705,0.0,-0.019620000000000002,0.06867000000000001,9.82962
4328282785,22.35,-0.0170518667919846,-0.00958185759344887,0.0,-0.019620000000000002,0.02943,9.819809999999999
4333333290,22.35,-0.012775810124598492,-0.015987215948268057,0.0,0.0,0.07848000000000001,9.81
4338383795,22.35,-0.011711159280881954,-0.011711159280881954,0.0,0.02943,0.12753,9.770760000000001
4343434300,22.35,-0.007452555906015787,-0.008517206749732328,0.0,0.07848000000000001,0.18639,9.80019
4348484805,22.35,-0.003193952531149623,-0.003193952531149623,0.0,0.0981,0.20601000000000003,9.79038
4353535310,22.35,-0.008517206749732328,0.0,0.0,0.12753,0.16677000000000003,9.74133
4358585815,22.35,-0.015987215948268057,0.0,0.0,0.08829,0.0981,9.7119
4363636320,22.35,-0.024504422698000388,0.003193952531149623,0.0,0.0981,0.04905,9.72171
4368686825,22.35,-0.022375121010567305,0.004258603374866164,0.0,0.04905,0.02943,9.74133
4373737330,22.35,-0.015987215948268057,0.00958185759344887,0.0,0.019620000000000002,0.07848000000000001,9.81
4378787835,22.35,-0.01064650843716541,0.006387905062299246,0.0,0.009810000000000001,0.08829,9.86886
4383838340,22.35,-0.00958185759344887,0.0,0.0,0.009810000000000001,0.10791,9.86886
4388888845,22.35,-0.004258603374866164,0.0,0.0,0.009810000000000001,0.0981,9.81
4393939350,22.35,-0.004258603374866164,0.001064650843716541,0.0,0.0,0.15696000000000002,9.7119
4398989855,22.35,-0.005323254218582705,0.002129301687433082,0.0,0.009810000000000001,0.15696000000000002,9.7119
4404040360,22.35,-0.008517206749732328,0.0,0.0,0.009810000000000001,0.20601000000000003,9.68247
4409090865,22.35,-0.012775810124598492,-0.001064650843716541,0.0,0.039240000000000004,0.20601000000000003,9.69228
4414141370,22.35,-0.01918116847941768,-0.003193952531149623,0.0,0.039240000000000004,0.17658,9.74133
4419191875,22.35,-0.022375121010567305,-0.006387905062299246,0.0,0.0,0.08829,9.74133
4424242380,22.35,-0.02663372438543347,-0.004258603374866164,0.0,0.019620000000000002,0.039240000000000004,9.78057
4429292885,22.35,-0.02663372438543347,-0.001064650843716541,0.0,0.009810000000000001,-0.009810000000000001,9.81
4434343390,22.35,-0.024504422698000388,0.0,0.0,0.0,0.0,9.85905
4439393895,22.35,-0.015987215948268057,-0.005323254218582705,0.0,-0.009810000000000001,0.039240000000000004,9.819809999999999
4444444400,22.35,-0.00958185759344887,-0.002129301687433082,0.0,0.019620000000000002,0.14715,9.80019
4449494905,22.35,0.003193952531149623,-0.007452555906015787,0.0,0.06867000000000001,0.24525000000000002,9.760950000000001
4454545410,22.35,-0.001064650843716541,-0.002129301687433082,0.0,0.0981,0.28449,9.74133
4459595915,22.35,-0.011711159280881954,0.002129301687433082,0.0,0.10791,0.17658,9.66285
4464646420,22.35,-0.031956978604016174,0.01064650843716541,0.0,0.02943,0.05886,9.66285
4469696925,22.35,-0.03834488366631542,0.006387905062299246,0.0,0.0,0.0,9.760950000000001
4474747430,22.35,-0.031956978604016174,0.007452555906015787,0.0,-0.02943,-0.039240000000000004,9.87867
4479797935,22.35,-0.021310470166850764,0.003193952531149623,0.0,-0.02943,0.009810000000000001,9.94734
4484848440,22.35,-0.001064650843716541,-0.003193952531149623,0.0,-0.009810000000000001,0.10791,9.92772
4489898945,22.35,0.002129301687433082,-0.008517206749732328,0.0,0.0,0.13734000000000002,9.82962
4494949450,22.35,-0.001064650843716541,-0.008517206749732328,0.0,0.06867000000000001,0.20601000000000003,9.74133
4499999955,22.35,-0.01064650843716541,0.0,0.0,0.06867000000000001,0.18639,9.67266
4505050460,22.35,-0.021310470166850764,0.002129301687433082,0.0,0.04905,0.10791,9.67266
4510100965,22.35,-0.033021629447732716,0.007452555906015787,0.0,0.019620000000000002,0.0981,9.73152
4515151470,22.35,-0.02982767691658309,-0.001064650843716541,0.0,0.0,0.05886,9.82962
4520201975,22.35,-0.021310470166850764,-0.006387905062299246,0.0,0.02943,0.04905,9.908100000000001
4525252480,22.35,-0.014905111812031574,-0.006387905062299246,0.0,0.009810000000000001,0.06867000000000001,9.91791
4530302985,22.35,-0.008517206749732328,-0.007452555906015787,0.0,0.039240000000000004,0.04905,9.84924
4535353490,22.35,-0.00958185759344887,0.0,0.0,0.039240000000000004,0.06867000000000001,9.79038
4540403995,22.35,-0.014905111812031574,0.004258603374866164,0.0,0.039240000000000004,0.06867000000000001,9.70209
4545454500,22.35,-0.0170518667919846,0.005323254218582705,0.0,0.02943,0.0981,9.751140000000001
4550505005,22.35,-0.01918116847941768,0.001064650843716541,0.0,0.02943,0.10791,9.819809999999999
4555555510,22.35,-0.0170518667919846,0.0,0.0,0.019620000000000002,0.10791,9.888480000000001
4560606015,22.35,-0.014905111812031574,-0.007452555906015787,0.0,0.009810000000000001,0.0981,9.89829
4565656520,22.35,-0.00958185759344887,-0.005323254218582705,0.0,0.04905,0.06867000000000001,9.80019
4570707025,22.35,-0.01064650843716541,-0.002129301687433082,0.0,0.04905,0.06867000000000001,9.70209
4575757530,22.35,-0.014905111812031574,0.003193952531149623,0.0,0.07848000000000001,0.08829,9.68247
4580808035,22.35,-0.014905111812031574,0.008517206749732328,0.0,0.039240000000000004,0.07848000000000001,9.67266
4585858540,22.35,-0.013840460968315033,0.00958185759344887,0.0,0.009810000000000001,0.12753,9.68247
4590909045,22.35,-0.01918116847941768,0.003193952531149623,0.0,-0.009810000000000001,0.14715,9.74133
4595959550,22.35,-0.01811651763570114,-0.003193952531149623,0.0,-0.02943,0.12753,9.78057
4601010055,22.35,-0.012775810124598492,-0.007452555906015787,0.0,0.02943,0.15696000000000002,9.78057
4606060560,22.35,-0.020245819323134222,-0.005323254218582705,0.0,0.019620000000000002,0.12753,9.751140000000001
4611111065,22.35,-0.020245819323134222,-0.002129301687433082,0.0,0.039240000000000004,0.0981,9.69228
4616161570,22.35,-0.02663372438543347,0.0,0.0,0.019620000000000002,0.06867000000000001,9.68247
4621212075,22.35,-0.02982767691658309,0.007452555906015787,0.0,0.009810000000000001,0.039240000000000004,9.67266
4626262580,22.35,-0.02982767691658309,0.004258603374866164,0.0,-0.009810000000000001,0.039240000000000004,9.751140000000001
4631313085,22.35,-0.02769837522915001,-0.001064650843716541,0.0,0.019620000000000002,0.05886,9.81
4636363590,22.35,-0.023439771854283843,-0.012775810124598492,0.0,0.009810000000000001,0.07848000000000001,9.92772
4641414095,22.35,-0.014905111812031574,-0.012775810124598492,0.0,0.039240000000000004,0.08829,9.908100000000001
4646464600,22.35,-0.012775810124598492,-0.012775810124598492,0.0,0.08829,0.07848000000000001,9.85905
4651515105,22.35,-0.015987215948268057,-0.006387905062299246,0.0,0.08829,0.019620000000000002,9.78057
4656565610,22.35,-0.02556907354171693,0.001064650843716541,0.0,0.10791,0.039240000000000004,9.70209
4661616115,22.35,-0.024504422698000388,0.008517206749732328,0.0,0.05886,0.0,9.67266
4666666620,22.35,-0.02769837522915001,0.013840460968315033,0.0,0.009810000000000001,0.039240000000000004,9.70209
4671717125,22.35,-0.01811651763570114,0.008517206749732328,0.0,0.019620000000000002,0.12753,9.81
4676767630,22.35,-0.012775810124598492,-0.002129301687433082,0.0,0.02943,0.17658,9.937529999999999
4681818135,22.35,-0.012775810124598492,-0.01064650843716541,0.0,0.039240000000000004,0.11772,9.91791
4686868640,22.35,-0.01811651763570114,-0.008517206749732328,0.0,0.039240000000000004,0.009810000000000001,9.819809999999999
4691919145,22.35,-0.028763026072866547,0.002129301687433082,0.0,0.02943,-0.06867000000000001,9.67266
4696969650,22.35,-0.03728023282259888,0.013840460968315033,0.0,-0.009810000000000001,0.0,9.64323
4702020155,22.35,-0.03834488366631542,0.015987215948268057,0.0,0.009810000000000001,0.02943,9.751140000000001
4707070660,22.35,-0.01811651763570114,0.002129301687433082,0.0,-0.019620000000000002,0.02943,9.69228
4712121165,22.35,-0.015987215948268057,-0.01064650843716541,0.0,-0.009810000000000001,0.23544,9.86886
4717171670,22.35,0.001064650843716541,-0.022375121010567305,0.0,0.05886,0.12753,9.92772
4722222175,22.35,-0.014905111812031574,-0.013840460968315033,0.0,0.06867000000000001,0.05886,9.82962
4727272680,22.35,-0.03621558197888234,0.001064650843716541,0.0,0.06867000000000001,-0.019620000000000002,9.6138
4732323185,22.35,-0.03728023282259888,0.00958185759344887,0.0,0.02943,0.02943,9.6138
4737373690,22.35,-0.04366813788489812,0.015987215948268057,0.0,0.019620000000000002,0.019620000000000002,9.73152
4742424195,22.35,-0.020245819323134222,0.005323254218582705,0.0,0.0,0.019620000000000002,9.73152
4747474700,22.35,-0.01918116847941768,-0.004258603374866164,0.0,0.0,0.16677000000000003,9.888480000000001
4752525205,22.35,-0.011711159280881954,-0.014905111812031574,0.0,0.039240000000000004,0.04905,9.95715
4757575710,22.35,-0.024504422698000388,-0.00958185759344887,0.0,0.02943,-0.009810000000000001,9.91791
4762626215,22.35,-0.03621558197888234,0.002129301687433082,0.0,0.039240000000000004,0.0,9.78057
4767676720,22.35,-0.03408628029144926,0.001064650843716541,0.0,0.039240000000000004,-0.07848000000000001,9.82962
4772727225,22.35,-0.03408628029144926,0.006387905062299246,0.005323254218582705,0.019620000000000002,0.009810000000000001,9.80019
4777777730,22.35,-0.020245819323134222,0.001064650843716541,0.001064650843716541,0.0,0.0,9.770760000000001
4782828235,22.35,-0.006387905062299246,-0.004258603374866164,0.0,0.02943,0.039240000000000004,9.80019
4787878740,22.35,-0.011711159280881954,-0.005323254218582705,0.0,0.04905,0.05886,9.80019
4792929245,22.35,-0.011711159280881954,-0.005323254218582705,-0.001064650843716541,0.04905,0.06867000000000001,9.80019
4797979750,22.35,-0.022375121010567305,0.002129301687433082,0.001064650843716541,0.02943,0.02943,9.80019
4803030255,22.35,-0.02556907354171693,0.001064650843716541,0.0,0.019620000000000002,0.019620000000000002,9.73152
4808080760,22.35,-0.02556907354171693,-0.002129301687433082,0.001064650843716541,0.039240000000000004,0.04905,9.78057
4813131265,22.35,-0.015987215948268057,0.001064650843716541,0.0,0.039240000000000004,0.04905,9.751140000000001
4818181770,22.35,-0.014905111812031574,0.005323254218582705,0.0,0.039240000000000004,0.05886,9.70209
4823232275,22.35,-0.01918116847941768,0.01064650843716541,0.002129301687433082,0.0,0.0981,9.66285
4828282780,22.35,-0.024504422698000388,0.006387905062299246,0.002129301687433082,0.0,0.0981,9.66285
4833333285,22.35,-0.03515093113516579,0.0,0.002129301687433082,0.009810000000000001,0.039240000000000004,9.69228
4838383790,22.35,-0.04153883619746504,-0.007452555906015787,0.0,0.0,0.009810000000000001,9.73152
4843434295,22.35,-0.03621558197888234,-0.007452555906015787,0.0,0.0,0.02943,9.78057
4848484800,22.35,-0.02663372438543347,-0.007452555906015787,-0.001064650843716541,0.009810000000000001,0.04905,9.770760000000001
4853535305,22.35,-0.021310470166850764,-0.001064650843716541,0.002129301687433082,0.02943,0.04905,9.760950000000001
4858585810,22.35,-0.031956978604016174,-0.001064650843716541,0.0,0.02943,0.0,9.770760000000001
4863636315,22.35,-0.03515093113516579,-0.005323254218582705,-0.002129301687433082,0.019620000000000002,0.0,9.7119
4868686820,22.35,-0.03834488366631542,-0.002129301687433082,0.001064650843716541,0.04905,0.0,9.751140000000001
4873737325,22.35,-0.0404741853537485,0.0,0.001064650843716541,0.04905,0.009810000000000001,9.82962
4878787830,22.35,-0.028763026072866547,0.0,0.001064650843716541,0.019620000000000002,0.0,9.83943
4883838335,22.35,-0.02769837522915001,-0.011711159280881954,0.0,0.04905,0.019620000000000002,9.94734
4888888840,22.35,-0.023439771854283843,-0.0170518667919846,0.0,0.039240000000000004,-0.019620000000000002,9.96696
4893939345,22.35,-0.02663372438543347,-0.006387905062299246,0.002129301687433082,0.08829,-0.019620000000000002,9.86886
4898989850,22.35,-0.031956978604016174,0.014905111812031574,0.003193952531149623,0.05886,-0.019620000000000002,9.74133
4904040355,22.35,-0.031956978604016174,0.021310470166850764,0.004258603374866164,0.019620000000000002,-0.039240000000000004,9.7119
4909090860,22.35,-0.03515093113516579,0.011711159280881954,0.0,0.0,-0.009810000000000001,9.78057
4914141365,22.35,-0.02556907354171693,-0.006387905062299246,0.0,-0.019620000000000002,-0.039240000000000004,9.87867
4919191870,22.35,-0.020245819323134222,-0.014905111812031574,0.0,0.009810000000000001,-0.009810000000000001,9.92772
4924242375,22.35,-0.021310470166850764,-0.007452555906015787,-0.003193952531149623,0.019620000000000002,0.0,9.91791
4929292880,22.35,-0.0170518667919846,0.004258603374866164,0.003193952531149623,0.039240000000000004,-0.019620000000000002,9.84924
4934343385,22.35,-0.021310470166850764,0.006387905062299246,0.003193952531149623,0.009810000000000001,-0.019620000000000002,9.79038
4939393890,22.35,-0.03089232776029963,0.0,0.001064650843716541,0.019620000000000002,0.0,9.7119
4944444395,22.35,-0.02982767691658309,-0.002129301687433082,0.0,0.04905,0.019620000000000002,9.64323
4949494900,22.35,-0.023439771854283843,0.004258603374866164,0.0,0.04905,0.0,9.623610000000001
4954545405,22.35,-0.012775810124598492,0.006387905062299246,0.0,0.02943,0.04905,9.70209
4959595910,22.35,-0.014905111812031574,-0.001064650843716541,0.0,0.039240000000000004,0.06867000000000001,9.770760000000001
4964646415,22.35,-0.02663372438543347,-0.011711159280881954,-0.002129301687433082,0.009810000000000001,-0.009810000000000001,9.82962
4969696920,22.35,-0.03728023282259888,-0.004258603374866164,-0.001064650843716541,0.05886,0.019620000000000002,9.68247
4974747425,22.35,-0.0404741853537485,0.012775810124598492,0.001064650843716541,0.039240000000000004,0.0,9.64323
4979797930,22.35,-0.031956978604016174,0.021310470166850764,0.004258603374866164,0.0,0.0,9.59418
4984848435,22.35,-0.031956978604016174,0.007452555906015787,0.001064650843716541,-0.039240000000000004,0.039240000000000004,9.70209
4989898940,22.35,-0.028763026072866547,-0.013840460968315033,0.002129301687433082,-0.009810000000000001,0.019620000000000002,9.751140000000001
4994949445,22.35,-0.033021629447732716,-0.020245819323134222,0.0,0.009810000000000001,0.0,9.751140000000001
4999999950,22.35,-0.03408628029144926,-0.007452555906015787,0.001064650843716541,0.07848000000000001,0.0,9.78057
5005050455,22.35,-0.04260348704118158,0.007452555906015787,0.0,0.009810000000000001,-0.05886,9.81
5010100960,22.35,-0.046879543708567686,0.006387905062299246,0.001064650843716541,0.009810000000000001,-0.02943,9.85905
5015151465,22.35,-0.04794419455228423,-0.006387905062299246,0.001064650843716541,0.009810000000000001,-0.06867000000000001,9.84924
5020201970,22.35,-0.039409534510031964,-0.011711159280881954,0.0,0.039240000000000004,-0.05886,9.81
5025252475,22.35,-0.031956978604016174,-0.003193952531149623,0.001064650843716541,0.07848000000000001,-0.04905,9.760950000000001
5030302980,22.35,-0.02982767691658309,0.003193952531149623,0.002129301687433082,0.05886,-0.08829,9.819809999999999
5035353485,22.35,-0.028763026072866547,-0.001064650843716541,0.002129301687433082,0.039240000000000004,-0.04905,9.89829
5040403990,22.35,-0.03834488366631542,-0.00958185759344887,-0.002129301687433082,0.05886,-0.07848000000000001,9.89829
5045454495,22.35,-0.03621558197888234,-0.008517206749732328,0.0,0.08829,-0.05886,9.908100000000001
5050505000,22.35,-0.03515093113516579,0.005323254218582705,0.0,0.04905,-0.10791,9.87867
5055555505,22.35,-0.03089232776029963,0.014905111812031574,0.0,0.039240000000000004,-0.08829,9.89829
5060606010,22.35,-0.02663372438543347,0.007452555906015787,0.003193952531149623,0.019620000000000002,-0.07848000000000001,9.87867
5065656515,22.35,-0.023439771854283843,-0.0,-0.001064650843716541,0.0,-0.05886,9.81
5070707020,22.35,-0.021310470166850764,-0.006387905062299246,0.0,0.019620000000000002,-0.02943,9.770760000000001
5075757525,22.35,-0.022375121010567305,-0.001064650843716541,0.0,0.04905,-0.04905,9.74133
5080808030,22.35,-0.02556907354171693,0.006387905062299246,0.003193952531149623,0.039240000000000004,-0.009810000000000001,9.74133
5085858535,22.35,-0.028763026072866547,0.008517206749732328,0.0,0.02943,-0.019620000000000002,9.74133
5090909040,22.35,-0.023439771854283843,0.005323254218582705,0.002129301687433082,0.019620000000000002,-0.009810000000000001,9.72171
5095959545,22.35,-0.020245819323134222,0.0,0.004258603374866164,0.02943,-0.019620000000000002,9.73152
5101010050,22.35,-0.024504422698000388,-0.001064650843716541,0.0,0.02943,0.019620000000000002,9.69228
5106060555,22.35,-0.031956978604016174,0.003193952531149623,0.001064650843716541,0.019620000000000002,-0.019620000000000002,9.66285
5111111060,22.35,-0.03515093113516579,0.005323254218582705,-0.001064650843716541,0.0,0.0,9.633420000000001
5116161565,22.35,-0.03728023282259888,0.0,0.001064650843716541,0.0,-0.02943,9.633420000000001
5121212070,22.35,-0.03728023282259888,-0.011711159280881954,0.0,0.0,-0.019620000000000002,9.72171
5126262575,22.35,-0.04153883619746504,-0.012775810124598492,0.0,0.05886,-0.02943,9.770760000000001
5131313080,22.35,-0.04153883619746504,-0.006387905062299246,0.001064650843716541,0.04905,-0.05886,9.73152
5136363585,22.35,-0.03834488366631542,0.007452555906015787,0.001064650843716541,0.04905,-0.05886,9.760950000000001
5141414090,22.35,-0.04581489286485115,0.008517206749732328,0.001064650843716541,0.009810000000000001,-0.08829,9.760950000000001
5146464595,22.35,-0.04581489286485115,-0.002129301687433082,0.001064650843716541,-0.009810000000000001,-0.05886,9.760950000000001
5151515100,22.35,-0.04366813788489812,-0.01064650843716541,0.001064650843716541,0.039240000000000004,-0.06867000000000001,9.73152
5156565605,22.35,-0.04366813788489812,-0.007452555906015787,0.002129301687433082,0.05886,-0.0981,9.78057
5161616110,22.35,-0.0404741853537485,-0.002129301687433082,0.0,0.019620000000000002,-0.12753,9.85905
5166666615,22.35,-0.03728023282259888,0.0,0.0,0.04905,-0.0981,9.96696
5171717120,22.35,-0.03621558197888234,-0.005323254218582705,0.002129301687433082,0.039240000000000004,-0.10791,9.92772
5176767625,22.35,-0.0404741853537485,-0.005323254218582705,0.0,0.039240000000000004,-0.15696000000000002,9.89829
5181818130,22.35,-0.04260348704118158,0.0,0.001064650843716541,0.05886,-0.13734000000000002,9.91791
5186868635,22.35,-0.039409534510031964,0.005323254218582705,0.003193952531149623,0.039240000000000004,-0.14715,9.92772
5191919140,22.35,-0.03515093113516579,0.004258603374866164,0.002129301687433082,0.009810000000000001,-0.14715,9.91791
5196969645,22.35,-0.02663372438543347,-0.004258603374866164,0.001064650843716541,0.019620000000000002,-0.11772,9.87867
5202020150,22.35,-0.02769837522915001,-0.014905111812031574,0.0,0.039240000000000004,-0.13734000000000002,9.91791
5207070655,22.35,-0.02556907354171693,-0.00958185759344887,0.0,0.07848000000000001,-0.11772,9.86886
5212121160,22.35,-0.028763026072866547,0.006387905062299246,-0.001064650843716541,0.07848000000000001,-0.10791,9.83943
5217171665,22.35,-0.02769837522915001,0.01811651763570114,0.0,0.05886,-0.10791,9.751140000000001
5222222170,22.35,-0.02982767691658309,0.00958185759344887,0.001064650843716541,0.019620000000000002,-0.08829,9.69228
5227272675,22.35,-0.02663372438543347,0.002129301687433082,0.0,0.039240000000000004,-0.06867000000000001,9.66285
5232323180,22.35,-0.01811651763570114,-0.006387905062299246,0.001064650843716541,0.04905,-0.02943,9.59418
5237373685,22.35,-0.01811651763570114,0.002129301687433082,0.0,0.04905,-0.02943,9.60399
5242424190,22.35,-0.024504422698000388,0.01064650843716541,0.0,0.039240000000000004,-0.019620000000000002,9.68247
5247474695,22.35,-0.02982767691658309,0.004258603374866164,0.002129301687433082,0.0,-0.019620000000000002,9.67266
5252525200,22.35,-0.02982767691658309,0.0,0.001064650843716541,0.0,-0.019620000000000002,9.6138
5257575705,22.35,-0.04366813788489812,0.001064650843716541,0.002129301687433082,0.009810000000000001,-0.009810000000000001,9.58437
5262626210,22.35,-0.044732788728614664,0.0,0.001064650843716541,-0.009810000000000001,-0.04905,9.633420000000001
5267676715,22.35,-0.04366813788489812,-0.002129301687433082,0.002129301687433082,-0.039240000000000004,-0.05886,9.74133
5272727220,22.35,-0.04260348704118158,-0.007452555906015787,0.0,0.0,-0.039240000000000004,9.7119
5277777725,22.35,-0.046879543708567686,-0.014905111812031574,0.0,0.0,-0.0981,9.72171
5282828230,22.35,-0.05752605214573309,-0.01811651763570114,0.0,0.05886,-0.10791,9.81
5287878735,22.35,-0.05965535383316618,-0.012775810124598492,0.0,0.04905,-0.15696000000000002,9.908100000000001
5292929240,22.35,-0.05539675045830002,0.001064650843716541,0.0,0.04905,-0.17658,9.937529999999999
5297979745,22.35,-0.05752605214573309,0.004258603374866164,0.0,0.02943,-0.20601000000000003,9.94734
5303030250,22.35,-0.05646140130201656,-0.008517206749732328,0.0,0.02943,-0.20601000000000003,9.95715
5308080755,22.35,-0.05752605214573309,-0.014905111812031574,0.0,0.07848000000000001,-0.24525000000000002,10.006200000000002
5313131260,22.35,-0.04260348704118158,-0.008517206749732328,0.0,0.11772,-0.27468000000000004,9.95715
5318181765,22.35,-0.04260348704118158,0.001064650843716541,0.0,0.08829,-0.25506,9.937529999999999
5323232270,22.35,-0.03621558197888234,0.003193952531149623,0.0,0.0981,-0.23544,9.95715
5328282775,22.35,-0.02982767691658309,0.002129301687433082,0.0,0.0981,-0.22563,9.908100000000001
5333333280,22.35,-0.024504422698000388,0.01064650843716541,0.0,0.07848000000000001,-0.20601000000000003,9.819809999999999
5338383785,22.35,-0.022375121010567305,0.013840460968315033,0.0,0.04905,-0.17658,9.760950000000001
5343434290,22.35,-0.01918116847941768,0.012775810124598492,0.0,0.039240000000000004,-0.14715,9.751140000000001
5348484795,22.35,-0.00958185759344887,0.008517206749732328,0.0,0.009810000000000001,-0.13734000000000002,9.73152
5353535300,22.35,-0.00958185759344887,0.01064650843716541,0.0,0.0,-0.08829,9.66285
5358585805,22.35,-0.011711159280881954,0.0,0.0,-0.009810000000000001,-0.06867000000000001,9.6138
5363636310,22.35,-0.020245819323134222,-0.005323254218582705,0.0,0.0,-0.04905,9.65304
5368686815,22.35,-0.020245819323134222,0.001064650843716541,0.0,0.019620000000000002,0.0,9.65304
5373737320,22.35,-0.02556907354171693,0.00958185759344887,0.0,0.009810000000000001,0.0,9.633420000000001
5378787825,22.35,-0.04153883619746504,0.003193952531149623,0.0,-0.019620000000000002,-0.039240000000000004,9.6138
5383838330,22.35,-0.04366813788489812,-0.00958185759344887,0.0,-0.009810000000000001,-0.04905,9.65304
5388888835,22.35,-0.046879543708567686,-0.01064650843716541,0.0,0.009810000000000001,-0.05886,9.623610000000001
5393939340,22.35,-0.05220279792715039,-0.004258603374866164,0.0,0.02943,-0.07848000000000001,9.623610000000001
5398989845,22.35,-0.05859070298944965,-0.007452555906015787,0.0,0.02943,-0.11772,9.69228
5404040350,22.35,-0.05965535383316618,-0.012775810124598492,0.0,0.05886,-0.16677000000000003,9.79038
5409090855,22.35,-0.06284930636431581,-0.006387905062299246,0.0,0.05886,-0.17658,9.819809999999999
5414141360,22.35,-0.06710790973918197,-0.001064650843716541,0.0,0.04905,-0.21582,9.85905
5419191865,22.35,-0.06710790973918197,-0.002129301687433082,0.0,0.039240000000000004,-0.24525000000000002,9.908100000000001
5424242370,22.35,-0.06817256058289851,0.0,0.0,0.04905,-0.2943,9.937529999999999
5429292875,22.35,-0.06284930636431581,0.002129301687433082,0.0,0.04905,-0.27468000000000004,9.94734
5434343380,22.35,-0.05539675045830002,-0.004258603374866164,0.0,0.039240000000000004,-0.2943,9.97677
5439393885,22.35,-0.04794419455228423,-0.011711159280881954,0.0,0.039240000000000004,-0.2943,9.97677
5444444390,22.35,-0.03621558197888234,-0.004258603374866164,0.0,0.08829,-0.33354000000000006,9.97677
5449494895,22.35,-0.03728023282259888,0.006387905062299246,0.0,0.08829,-0.28449,9.96696
5454545400,22.35,-0.03834488366631542,0.011711159280881954,0.0,0.04905,-0.26487,9.937529999999999
5459595905,22.35,-0.02556907354171693,0.008517206749732328,0.0,0.0,-0.26487,9.87867
5464646410,22.35,-0.022375121010567305,0.001064650843716541,0.0,0.04905,-0.21582,9.80019
5469696915,22.35,-0.01918116847941768,0.001064650843716541,0.0,0.02943,-0.21582,9.751140000000001
5474747420,22.35,-0.011711159280881954,-0.001064650843716541,0.0,0.039240000000000004,-0.17658,9.73152
5479797925,22.35,-0.006387905062299246,-0.001064650843716541,0.0,0.05886,-0.13734000000000002,9.69228
5484848430,22.35,-0.011711159280881954,0.008517206749732328,0.0,0.04905,-0.11772,9.623610000000001
5489898935,22.35,-0.022375121010567305,0.013840460968315033,0.0,0.009810000000000001,-0.06867000000000001,9.57456
5494949440,22.35,-0.028763026072866547,0.005323254218582705,0.0,0.009810000000000001,-0.07848000000000001,9.53532
5499999945,22.35,-0.028763026072866547,0.007452555906015787,0.0,0.0,-0.05886,9.55494
5505050450,22.35,-0.03621558197888234,0.007452555906015787,0.0,-0.009810000000000001,-0.05886,9.58437
5510100955,22.35,-0.039409534510031964,0.0,0.0,-0.02943,-0.04905,9.66285
5515151460,22.35,-0.044732788728614664,-0.014905111812031574,0.0,-0.019620000000000002,-0.08829,9.68247
5520201965,22.35,-0.05859070298944965,-0.014905111812031574,0.0,0.009810000000000001,-0.10791,9.72171
5525252470,22.35,-0.07136651311404815,-0.006387905062299246,0.0,0.009810000000000001,-0.16677000000000003,9.79038
5530302975,22.35,-0.07456046564519776,-0.002129301687433082,0.0,0.039240000000000004,-0.21582,9.85905
5535353480,22.35,-0.08096582400001695,0.0,0.0,0.02943,-0.25506,9.84924
5540403985,22.35,-0.07777187146886733,-0.006387905062299246,0.0,0.019620000000000002,-0.31392000000000003,9.89829
5545454490,22.35,-0.06604325889546543,-0.015987215948268057,0.0,0.04905,-0.32373,9.95715
5550504995,22.35,-0.05859070298944965,-0.020245819323134222,0.0,0.07848000000000001,-0.35316,9.95715
5555555500,22.35,-0.06178465552059926,-0.011711159280881954,0.0,0.13734000000000002,-0.41202000000000005,9.99639
5560606005,22.35,-0.05646140130201656,0.001064650843716541,0.0,0.11772,-0.40221,9.98658
5565656510,22.35,-0.05220279792715039,0.01064650843716541,0.005323254218582705,0.08829,-0.40221,9.89829
5570707015,22.35,-0.0404741853537485,0.01064650843716541,0.002129301687433082,0.08829,-0.37278,9.84924
5575757520,22.35,-0.033021629447732716,0.008517206749732328,0.002129301687433082,0.05886,-0.35316,9.84924
5580808025,22.35,-0.015987215948268057,0.01064650843716541,0.0,0.05886,-0.31392000000000003,9.84924
5585858530,22.35,-0.008517206749732328,0.01064650843716541,0.0,0.0,-0.26487,9.78057
5590909035,22.35,-0.012775810124598492,0.004258603374866164,0.0,0.0,-0.22563,9.70209
5595959540,22.35,-0.014905111812031574,0.005323254218582705,-0.001064650843716541,0.0,-0.20601000000000003,9.66285
5601010045,22.35,-0.014905111812031574,0.006387905062299246,0.003193952531149623,0.019620000000000002,-0.14715,9.60399
5606060550,22.35,-0.021310470166850764,0.005323254218582705,0.0,-0.019620000000000002,-0.12753,9.60399
5611111055,22.35,-0.01811651763570114,0.005323254218582705,0.002129301687433082,-0.02943,-0.0981,9.64323
5616161560,22.35,-0.0170518667919846,-0.002129301687433082,0.002129301687433082,-0.02943,-0.0981,9.68247
5621212065,22.35,-0.02663372438543347,-0.011711159280881954,0.002129301687433082,-0.04905,-0.0981,9.70209
5626262570,22.35,-0.044732788728614664,-0.020245819323134222,0.002129301687433082,0.0,-0.0981,9.74133
5631313075,22.35,-0.06178465552059926,-0.01811651763570114,0.001064650843716541,0.02943,-0.14715,9.760950000000001
5636363580,22.35,-0.06710790973918197,-0.005323254218582705,0.004258603374866164,0.05886,-0.20601000000000003,9.751140000000001
5641414085,22.35,-0.07243116395776468,-0.003193952531149623,0.002129301687433082,0.04905,-0.23544,9.79038
5646464590,22.35,-0.07243116395776468,-0.008517206749732328,0.002129301687433082,0.06867000000000001,-0.25506,9.84924
5651515095,22.35,-0.06923721142661506,-0.013840460968315033,0.0,0.06867000000000001,-0.31392000000000003,9.888480000000001
5656565600,22.35,-0.07030186227033158,-0.006387905062299246,0.002129301687433082,0.11772,-0.35316,9.89829
5661616105,22.35,-0.07136651311404815,0.006387905062299246,0.0,0.10791,-0.41202000000000005,9.86886
5666666610,22.35,-0.06604325889546543,0.01064650843716541,0.002129301687433082,0.07848000000000001,-0.3924,9.819809999999999
5671717115,22.35,-0.06497860805174888,0.006387905062299246,0.002129301687433082,0.06867000000000001,-0.42183,9.81
5676767620,22.35,-0.054332099614583476,-0.001064650843716541,0.0,0.08829,-0.42183,9.82962
5681818125,22.35,-0.03834488366631542,0.004258603374866164,0.0,0.04905,-0.3924,9.86886
5686868630,22.35,-0.02769837522915001,0.01064650843716541,0.001064650843716541,0.02943,-0.36297,9.819809999999999
5691919135,22.35,-0.02556907354171693,0.012775810124598492,0.002129301687433082,0.0,-0.35316,9.81
5696969640,22.35,-0.02556907354171693,0.014905111812031574,0.003193952531149623,-0.02943,-0.33354000000000006,9.79038
5702020145,22.35,-0.02556907354171693,0.005323254218582705,0.001064650843716541,-0.019620000000000002,-0.2943,9.74133
5707070650,22.35,-0.024504422698000388,-0.002129301687433082,0.0,-0.009810000000000001,-0.25506,9.7119
5712121155,22.35,-0.020245819323134222,-0.005323254218582705,0.0,0.0,-0.24525000000000002,9.74133
5717171660,22.35,-0.0170518667919846,-0.005323254218582705,0.0,0.009810000000000001,-0.20601000000000003,9.81
5722222165,22.35,-0.021310470166850764,-0.011711159280881954,0.0,0.019620000000000002,-0.1962,9.83943
5727272670,22.35,-0.03728023282259888,-0.013840460968315033,0.0,0.04905,-0.22563,9.81
5732323175,22.35,-0.044732788728614664,-0.007452555906015787,0.002129301687433082,0.08829,-0.21582,9.819809999999999
5737373680,22.35,-0.05326744877086694,0.001064650843716541,0.003193952531149623,0.06867000000000001,-0.24525000000000002,9.78057
5742424185,22.35,-0.05752605214573309,0.003193952531149623,0.0,0.04905,-0.25506,9.760950000000001
5747474690,22.35,-0.05326744877086694,-0.005323254218582705,0.0,0.039240000000000004,-0.2943,9.760950000000001
5752525195,22.35,-0.04794419455228423,-0.012775810124598492,0.0,0.07848000000000001,-0.2943,9.81
5757575700,22.35,-0.05326744877086694,-0.006387905062299246,-0.001064650843716541,0.13734000000000002,-0.31392000000000003,9.80019
5762626205,22.35,-0.05752605214573309,0.003193952531149623,0.0,0.08829,-0.35316,9.81
5767676710,22.35,-0.06284930636431581,0.01811651763570114,0.0,0.08829,-0.36297,9.72171
5772727215,22.35,-0.06923721142661506,0.022375121010567305,0.003193952531149623,0.0,-0.36297,9.70209
5777777720,22.35,-0.060720004676882725,0.013840460968315033,0.003193952531149623,-0.009810000000000001,-0.38259000000000004,9.70209
5782828225,22.35,-0.049008845396000776,-0.0,-0.001064650843716541,-0.02943,-0.38259000000000004,9.78057
5787878730,22.35,-0.03834488366631542,-0.008517206749732328,0.0,-0.02943,-0.37278,9.80019
5792929235,22.35,-0.033021629447732716,-0.005323254218582705,0.0,0.0,-0.34335000000000004,9.78057
5797979740,22.35,-0.031956978604016174,-0.003193952531149623,0.004258603374866164,0.019620000000000002,-0.34335000000000004,9.770760000000001
5803030245,22.35,-0.04366813788489812,-0.001064650843716541,0.001064650843716541,0.039240000000000004,-0.34335000000000004,9.72171
5808080750,22.35,-0.046879543708567686,0.001064650843716541,0.003193952531149623,0.0,-0.35316,9.751140000000001
5813131255,22.35,-0.04260348704118158,0.0,0.0,-0.009810000000000001,-0.33354000000000006,9.81
5818181760,22.35,-0.03621558197888234,-0.008517206749732328,0.001064650843716541,0.039240000000000004,-0.31392000000000003,9.87867
5823232265,22.35,-0.03515093113516579,-0.013840460968315033,0.0,0.02943,-0.32373,9.937529999999999
5828282770,22.35,-0.03728023282259888,-0.01918116847941768,-0.002129301687433082,0.04905,-0.34335000000000004,9.937529999999999
5833333275,22.35,-0.04581489286485115,-0.015987215948268057,0.003193952531149623,0.08829,-0.34335000000000004,9.87867
5838383780,22.35,-0.05965535383316618,-0.002129301687433082,0.0,0.10791,-0.37278,9.819809999999999
5843434285,22.35,-0.05646140130201656,0.008517206749732328,0.0,0.08829,-0.37278,9.819809999999999
5848484790,22.35,-0.05326744877086694,0.01064650843716541,0.001064650843716541,0.08829,-0.38259000000000004,9.770760000000001
5853535295,22.35,-0.04794419455228423,0.004258603374866164,0.0,0.07848000000000001,-0.40221,9.819809999999999
5858585800,22.35,-0.04260348704118158,0.004258603374866164,0.0,0.05886,-0.37278,9.83943
5863636305,22.35,-0.04153883619746504,0.004258603374866164,0.0,0.039240000000000004,-0.3924,9.81
5868686810,22.35,-0.049008845396000776,0.007452555906015787,-0.001064650843716541,0.019620000000000002,-0.40221,9.770760000000001
5873737315,22.35,-0.049008845396000776,0.011711159280881954,0.0,0.019620000000000002,-0.40221,9.7119
5878787820,22.35,-0.04366813788489812,0.007452555906015787,0.002129301687433082,0.009810000000000001,-0.37278,9.72171
5883838325,22.35,-0.04260348704118158,0.0,0.0,0.009810000000000001,-0.40221,9.70209
5888888830,22.35,-0.03834488366631542,-0.004258603374866164,0.003193952531149623,-0.009810000000000001,-0.37278,9.760950000000001
5893939335,22.35,-0.03621558197888234,0.001064650843716541,0.002129301687433082,-0.009810000000000001,-0.37278,9.770760000000001
5898989840,22.35,-0.03515093113516579,-0.001064650843716541,-0.002129301687433082,-0.019620000000000002,-0.36297,9.72171
5904040345,22.35,-0.044732788728614664,-0.004258603374866164,0.002129301687433082,0.0,-0.33354000000000006,9.72171
5909090850,22.35,-0.04581489286485115,-0.006387905062299246,0.002129301687433082,0.009810000000000001,-0.34335000000000004,9.73152
5914141355,22.35,-0.05007349623971732,-0.013840460968315033,0.0,0.04905,-0.36297,9.770760000000001
5919191860,22.35,-0.046879543708567686,-0.008517206749732328,0.002129301687433082,0.06867000000000001,-0.36297,9.79038
5924242365,22.35,-0.04794419455228423,-0.003193952531149623,0.001064650843716541,0.05886,-0.35316,9.82962
5929292870,22.35,-0.049008845396000776,-0.002129301687433082,0.002129301687433082,0.06867000000000001,-0.3924,9.85905
5934343375,22.35,-0.05326744877086694,0.0,0.0,0.04905,-0.38259000000000004,9.84924
5939393880,22.35,-0.05859070298944965,0.0,0.0,0.07848000000000001,-0.43164,9.83943
5944444385,22.35,-0.05646140130201656,0.005323254218582705,0.002129301687433082,0.06867000000000001,-0.41202000000000005,9.819809999999999
5949494890,22.35,-0.05859070298944965,0.003193952531149623,0.0,0.05886,-0.42183,9.80019
5954545395,22.35,-0.049008845396000776,0.004258603374866164,0.001064650843716541,0.04905,-0.46107000000000004,9.83943
5959595900,22.35,-0.049008845396000776,0.002129301687433082,0.001064650843716541,0.04905,-0.43164,9.85905
5964646405,22.35,-0.049008845396000776,0.0,0.0,0.02943,-0.46107000000000004,9.86886
5969696910,22.35,-0.04794419455228423,0.004258603374866164,0.001064650843716541,0.019620000000000002,-0.44145,9.819809999999999
5974747415,22.35,-0.044732788728614664,0.00958185759344887,0.0,0.039240000000000004,-0.48069000000000006,9.760950000000001
5979797920,22.35,-0.04581489286485115,0.006387905062299246,0.001064650843716541,0.009810000000000001,-0.46107000000000004,9.74133
5984848425,22.35,-0.04153883619746504,0.0,0.001064650843716541,0.0,-0.44145,9.73152
5989898930,22.35,-0.031956978604016174,-0.007452555906015787,0.0,0.039240000000000004,-0.42183,9.74133
5994949435,22.35,-0.033021629447732716,-0.007452555906015787,0.0,0.0,-0.43164,9.73152
5999999940,22.35,-0.03408628029144926,-0.002129301687433082,-0.001064650843716541,0.02943,-0.41202000000000005,9.74133
6005050445,22.35,-0.03515093113516579,0.001064650843716541,0.0,0.039240000000000004,-0.40221,9.78057
6010100950,22.35,-0.04581489286485115,0.0,0.0,0.02943,-0.41202000000000005,9.770760000000001
6015151455,22.35,-0.049008845396000776,0.0,0.0,0.02943,-0.3924,9.770760000000001
6020201960,22.35,-0.049008845396000776,-0.001064650843716541,0.0,0.02943,-0.40221,9.78057
6025252465,22.35,-0.04581489286485115,-0.003193952531149623,0.0,0.039240000000000004,-0.42183,9.760950000000001
6030302970,22.35,-0.049008845396000776,-0.004258603374866164,-0.001064650843716541,0.039240000000000004,-0.41202000000000005,9.80019
6035353475,22.35,-0.044732788728614664,-0.006387905062299246,0.0,0.07848000000000001,-0.42183,9.81
6040403980,22.35,-0.05220279792715039,-0.005323254218582705,-0.001064650843716541,0.05886,-0.44145,9.80019
6045454485,22.35,-0.06284930636431581,0.001064650843716541,-0.002129301687433082,0.06867000000000001,-0.47088,9.760950000000001
6050504990,22.35,-0.05859070298944965,0.008517206749732328,0.002129301687433082,0.039240000000000004,-0.46107000000000004,9.81
6055555495,22.35,-0.05859070298944965,0.005323254218582705,0.001064650843716541,0.02943,-0.47088,9.81
6060606000,22.35,-0.05326744877086694,0.002129301687433082,0.001064650843716541,0.019620000000000002,-0.49050000000000005,9.82962
6065656505,22.35,-0.04794419455228423,-0.006387905062299246,0.0,0.04905,-0.50031,9.82962
6070707010,22.35,-0.04153883619746504,-0.003193952531149623,0.0,0.05886,-0.51012,9.80019
6075757515,22.35,-0.04581489286485115,0.0,0.0,0.04905,-0.52974,9.80019
6080808020,22.35,-0.04794419455228423,0.003193952531149623,0.0,0.039240000000000004,-0.49050000000000005,9.80019
6085858525,22.35,-0.04260348704118158,0.005323254218582705,0.0,0.02943,-0.51012,9.80019
6090909030,22.35,-0.04260348704118158,0.002129301687433082,0.0,0.009810000000000001,-0.50031,9.770760000000001
6095959535,22.35,-0.0404741853537485,0.0,0.0,0.02943,-0.47088,9.770760000000001
6101010040,22.35,-0.028763026072866547,-0.005323254218582705,0.0,0.04905,-0.48069000000000006,9.81
6106060545,22.35,-0.02982767691658309,-0.005323254218582705,0.0,0.019620000000000002,-0.46107000000000004,9.79038
6111111050,22.35,-0.039409534510031964,-0.005323254218582705,0.0,0.02943,-0.45126,9.770760000000001
6116161555,22.35,-0.04366813788489812,-0.003193952531149623,0.0,0.07848000000000001,-0.45126,9.78057
6121212060,22.35,-0.04794419455228423,0.0,0.0,0.02943,-0.47088,9.751140000000001
6126262565,22.35,-0.04794419455228423,0.004258603374866164,0.0,0.04905,-0.45126,9.760950000000001
6131313070,22.35,-0.04153883619746504,0.001064650843716541,0.0,0.009810000000000001,-0.48069000000000006,9.82962
6136363575,22.35,-0.044732788728614664,-0.003193952531149623,0.0,0.02943,-0.48069000000000006,9.86886
6141414080,22.35,-0.04153883619746504,-0.008517206749732328,0.0,0.02943,-0.48069000000000006,9.83943
6146464585,22.35,-0.046879543708567686,-0.004258603374866164,0.0,0.04905,-0.48069000000000006,9.81
6151515090,22.35,-0.05646140130201656,0.002129301687433082,0.0,0.02943,-0.51012,9.74133
6156565595,22.35,-0.05646140130201656,0.005323254218582705,0.0,0.05886,-0.48069000000000006,9.73152
6161616100,22.35,-0.05326744877086694,0.002129301687433082,0.0,0.06867000000000001,-0.52974,9.78057
6166666605,22.35,-0.04794419455228423,0.0,0.0,0.04905,-0.51012,9.80019
6171717110,22.35,-0.046879543708567686,-0.003193952531149623,0.0,0.039240000000000004,-0.5395500000000001,9.81
6176767615,22.35,-0.04366813788489812,-0.003193952531149623,0.0,0.02943,-0.52974,9.81
6181818120,22.35,-0.04366813788489812,0.0,0.0,0.039240000000000004,-0.52974,9.751140000000001
6186868625,22.35,-0.049008845396000776,0.005323254218582705,0.0,0.039240000000000004,-0.51012,9.7119
6191919130,22.35,-0.046879543708567686,0.007452555906015787,0.0,0.039240000000000004,-0.51993,9.7119
6196969635,22.35,-0.04260348704118158,0.001064650843716541,0.0,0.009810000000000001,-0.50031,9.73152
6202020140,22.35,-0.03834488366631542,0.0,0.0,0.02943,-0.52974,9.78057
6207070645,22.35,-0.039409534510031964,-0.002129301687433082,0.0,0.009810000000000001,-0.50031,9.84924
6212121150,22.35,-0.04366813788489812,0.0,0.0,0.019620000000000002,-0.5395500000000001,9.888480000000001
6217171655,22.35,-0.05113814708343386,-0.002129301687433082,0.0,0.019620000000000002,-0.52974,9.86886
6222222160,22.35,-0.05326744877086694,-0.004258603374866164,0.0,0.02943,-0.5493600000000001,9.86886
6227272665,22.35,-0.046879543708567686,-0.004258603374866164,0.0,0.039240000000000004,-0.5395500000000001,9.83943
6232323170,22.35,-0.04581489286485115,-0.003193952531149623,0.0,0.04905,-0.5395500000000001,9.80019
6237373675,22.35,-0.046879543708567686,-0.005323254218582705,0.0,0.06867000000000001,-0.5493600000000001,9.84924
6242424180,22.35,-0.044732788728614664,0.001064650843716541,0.0,0.05886,-0.56898,9.84924
6247474685,22.35,-0.05220279792715039,0.003193952531149623,0.0,0.05886,-0.56898,9.81
6252525190,22.35,-0.05539675045830002,0.005323254218582705,0.0,0.04905,-0.5886,9.82962
6257575695,22.35,-0.05113814708343386,0.003193952531149623,0.0,0.04905,-0.5886,9.819809999999999
6262626200,22.35,-0.044732788728614664,0.003193952531149623,0.0,0.02943,-0.5591700000000001,9.770760000000001
6267676705,22.35,-0.0404741853537485,0.005323254218582705,0.0,0.039240000000000004,-0.57879,9.70209
6272727210,22.35,-0.03515093113516579,0.0,0.0,0.04905,-0.57879,9.70209
6277777715,22.35,-0.03089232776029963,0.001064650843716541,0.0,0.02943,-0.5395500000000001,9.67266
6282828220,22.35,-0.03834488366631542,0.007452555906015787,0.0,0.02943,-0.5395500000000001,9.65304
6287878725,22.35,-0.04366813788489812,0.01064650843716541,0.0,0.009810000000000001,-0.51993,9.7119
6292929230,22.35,-0.04260348704118158,0.006387905062299246,0.0,-0.019620000000000002,-0.5591700000000001,9.70209
6297979735,22.35,-0.04260348704118158,-0.002129301687433082,0.0,-0.019620000000000002,-0.51993,9.81
6303030240,22.35,-0.04581489286485115,-0.013840460968315033,0.0,-0.009810000000000001,-0.51993,9.84924
6308080745,22.35,-0.04366813788489812,-0.014905111812031574,0.0,0.009810000000000001,-0.5493600000000001,9.83943
6313131250,22.35,-0.046879543708567686,-0.014905111812031574,0.0,0.039240000000000004,-0.56898,9.84924
6318181755,22.35,-0.054332099614583476,-0.005323254218582705,0.0,0.07848000000000001,-0.5591700000000001,9.819809999999999
6323232260,22.35,-0.05752605214573309,-0.002129301687433082,0.0,0.06867000000000001,-0.6180300000000001,9.81
6328282765,22.35,-0.06284930636431581,-0.002129301687433082,0.0,0.039240000000000004,-0.6180300000000001,9.819809999999999
6333333270,22.35,-0.06178465552059926,-0.004258603374866164,0.0,0.06867000000000001,-0.64746,9.85905
6338383775,22.35,-0.05646140130201656,-0.004258603374866164,0.0,0.0981,-0.65727,9.908100000000001
6343434280,22.35,-0.046879543708567686,0.0,0.0,0.08829,-0.64746,9.86886
6348484785,22.35,-0.044732788728614664,0.001064650843716541,0.0,0.07848000000000001,-0.64746,9.81
6353535290,22.35,-0.04366813788489812,0.003193952531149623,0.0,0.06867000000000001,-0.65727,9.760950000000001
6358585795,22.35,-0.04153883619746504,0.011711159280881954,0.0,0.04905,-0.63765,9.70209
6363636300,22.35,-0.044732788728614664,0.014905111812031574,0.005323254218582705,0.04905,-0.5886,9.67266
6368686805,22.35,-0.039409534510031964,0.015987215948268057,0.002129301687433082,0.0,-0.60822,9.7119
6373737310,22.35,-0.033021629447732716,0.01064650843716541,0.0,-0.019620000000000002,-0.6180300000000001,9.7119
6378787815,22.35,-0.03089232776029963,0.005323254218582705,0.002129301687433082,-0.039240000000000004,-0.5591700000000001,9.770760000000001
6383838320,22.35,-0.03089232776029963,-0.006387905062299246,0.0,-0.02943,-0.56898,9.79038
6388888825,22.35,-0.03408628029144926,-0.007452555906015787,0.0,0.0,-0.56898,9.80019
6393939330,22.35,-0.03728023282259888,-0.00958185759344887,0.003193952531149623,0.009810000000000001,-0.5591700000000001,9.760950000000001
6398989835,22.35,-0.044732788728614664,0.0,0.001064650843716541,0.0,-0.5886,9.760950000000001
6404040340,22.35,-0.05007349623971732,-0.001064650843716541,0.001064650843716541,-0.009810000000000001,-0.59841,9.79038
6409090845,22.35,-0.05326744877086694,-0.00958185759344887,0.0,0.02943,-0.59841,9.82962
6414141350,22.35,-0.05007349623971732,-0.015987215948268057,0.001064650843716541,0.05886,-0.6180300000000001,9.84924
6419191855,22.35,-0.05113814708343386,-0.013840460968315033,0.003193952531149623,0.07848000000000001,-0.6278400000000001,9.908100000000001
6424242360,22.35,-0.05113814708343386,-0.006387905062299246,0.0,0.0981,-0.6768900000000001,9.908100000000001
6429292865,22.35,-0.05539675045830002,-0.004258603374866164,0.0,0.12753,-0.6768900000000001,9.84924
6434343370,22.35,-0.054332099614583476,0.005323254218582705,0.002129301687433082,0.12753,-0.6867000000000001,9.78057
6439393875,22.35,-0.054332099614583476,0.011711159280881954,0.0,0.10791,-0.6670800000000001,9.74133
6444444380,22.35,-0.05220279792715039,0.012775810124598492,0.0,0.08829,-0.6768900000000001,9.72171
6449494885,22.35,-0.03834488366631542,0.012775810124598492,0.002129301687433082,0.04905,-0.6670800000000001,9.74133
6454545390,22.35,-0.03728023282259888,0.01064650843716541,-0.001064650843716541,0.0,-0.65727,9.770760000000001
6459595895,22.35,-0.03515093113516579,0.008517206749732328,0.0,-0.02943,-0.6670800000000001,9.760950000000001
6464646400,22.35,-0.0404741853537485,0.001064650843716541,0.002129301687433082,0.0,-0.64746,9.760950000000001
6469696905,22.35,-0.03621558197888234,0.004258603374866164,0.004258603374866164,0.0,-0.6278400000000001,9.72171
6474747410,22.35,-0.03515093113516579,0.004258603374866164,0.003193952531149623,-0.019620000000000002,-0.6180300000000001,9.66285
6479797915,22.35,-0.03515093113516579,0.002129301687433082,0.002129301687433082,-0.02943,-0.6278400000000001,9.69228
6484848420,22.35,-0.028763026072866547,-0.006387905062299246,0.004258603374866164,-0.019620000000000002,-0.6278400000000001,9.74133
6489898925,22.35,-0.03515093113516579,-0.011711159280881954,0.0,0.0,-0.6278400000000001,9.81
6494949430,22.35,-0.03834488366631542,-0.012775810124598492,0.0,0.019620000000000002,-0.60822,9.85905
6499999935,22.35,-0.05220279792715039,-0.014905111812031574,0.0,0.019620000000000002,-0.63765,9.89829
6505050440,22.35,-0.05539675045830002,-0.01064650843716541,0.0,0.04905,-0.63765,9.89829
6510100945,22.35,-0.05326744877086694,-0.01064650843716541,0.003193952531149623,0.07848000000000001,-0.64746,9.86886
6515151450,22.35,-0.05752605214573309,-0.005323254218582705,0.0,0.10791,-0.6768900000000001,9.85905
6520201955,22.35,-0.05326744877086694,-0.005323254218582705,-0.001064650843716541,0.12753,-0.71613,9.81
6525252460,22.35,-0.049008845396000776,0.004258603374866164,0.002129301687433082,0.13734000000000002,-0.71613,9.80019
6530302965,22.35,-0.049008845396000776,0.012775810124598492,0.002129301687433082,0.0981,-0.73575,9.80019
6535353470,22.35,-0.05326744877086694,0.01064650843716541,-0.002129301687433082,0.04905,-0.73575,9.79038
6540403975,22.35,-0.046879543708567686,0.01064650843716541,0.0,0.019620000000000002,-0.72594,9.80019
6545454480,22.35,-0.04794419455228423,0.00958185759344887,0.001064650843716541,0.0,-0.69651,9.79038
6550504985,22.35,-0.039409534510031964,0.01064650843716541,0.0,0.009810000000000001,-0.73575,9.770760000000001
6555555490,22.35,-0.02769837522915001,0.00958185759344887,0.003193952531149623,-0.009810000000000001,-0.6867000000000001,9.751140000000001
6560605995,22.35,-0.031956978604016174,0.006387905062299246,0.0,-0.019620000000000002,-0.6768900000000001,9.70209
6565656500,22.35,-0.031956978604016174,0.0,0.0,-0.009810000000000001,-0.6867000000000001,9.73152
6570707005,22.35,-0.03834488366631542,-0.003193952531149623,0.001064650843716541,-0.009810000000000001,-0.6670800000000001,9.68247
6575757510,22.35,-0.0404741853537485,-0.001064650843716541,-0.002129301687433082,0.0,-0.64746,9.69228
6580808015,22.35,-0.0404741853537485,-0.004258603374866164,0.0,0.0,-0.6180300000000001,9.72171
6585858520,22.35,-0.03621558197888234,-0.008517206749732328,0.0,0.0,-0.63765,9.81
6590909025,22.35,-0.033021629447732716,-0.01811651763570114,0.001064650843716541,0.02943,-0.64746,9.85905
6595959530,22.35,-0.04366813788489812,-0.01811651763570114,0.001064650843716541,0.05886,-0.65727,9.84924
6601010035,22.35,-0.05007349623971732,-0.011711159280881954,0.001064650843716541,0.07848000000000001,-0.6867000000000001,9.84924
6606060540,22.35,-0.05539675045830002,-0.001064650843716541,0.002129301687433082,0.07848000000000001,-0.71613,9.82962
6611111045,22.35,-0.05859070298944965,0.002129301687433082,0.002129301687433082,0.07848000000000001,-0.70632,9.81
6616161550,22.35,-0.05752605214573309,-0.003193952531149623,0.003193952531149623,0.05886,-0.73575,9.82962
6621212055,22.35,-0.04794419455228423,-0.006387905062299246,0.0,0.06867000000000001,-0.7651800000000001,9.83943
6626262560,22.35,-0.04366813788489812,-0.004258603374866164,0.0,0.07848000000000001,-0.7749900000000001,9.888480000000001
6631313065,22.35,-0.0404741853537485,0.002129301687433082,0.002129301687433082,0.0981,-0.7749900000000001,9.85905
6636363570,22.35,-0.046879543708567686,0.011711159280881954,0.0,0.05886,-0.79461,9.81
6641414075,22.35,-0.046879543708567686,0.01918116847941768,0.0,0.019620000000000002,-0.7749900000000001,9.73152
6646464580,22.35,-0.04581489286485115,0.014905111812031574,0.002129301687433082,0.0,-0.7651800000000001,9.70209
6651515085,22.35,-0.03834488366631542,0.004258603374866164,0.002129301687433082,0.0,-0.73575,9.73152
6656565590,22.35,-0.02769837522915001,0.0,0.0,0.0,-0.74556,9.770760000000001
6661616095,22.35,-0.023439771854283843,-0.007452555906015787,0.0,0.0,-0.72594,9.79038
6666666600,22.35,-0.03089232776029963,-0.005323254218582705,-0.001064650843716541,0.0,-0.72594,9.79038
6671717105,22.35,-0.03515093113516579,-0.007452555906015787,0.001064650843716541,0.039240000000000004,-0.69651,9.770760000000001
6676767610,22.35,-0.039409534510031964,-0.001064650843716541,0.002129301687433082,0.04905,-0.69651,9.72171
6681818115,22.35,-0.04153883619746504,0.003193952531149623,0.002129301687433082,0.009810000000000001,-0.69651,9.66285
6686868620,22.35,-0.04153883619746504,0.0,0.001064650843716541,0.009810000000000001,-0.6768900000000001,9.70209
6691919125,22.35,-0.03515093113516579,-0.007452555906015787,0.002129301687433082,0.02943,-0.69651,9.79038
6696969630,22.35,-0.02769837522915001,-0.011711159280881954,0.0,0.05886,-0.69651,9.79038
6702020135,22.35,-0.04260348704118158,-0.00958185759344887,0.0,0.06867000000000001,-0.71613,9.84924
6707070640,22.35,-0.05113814708343386,-0.004258603374866164,0.0,0.08829,-0.7651800000000001,9.84924
6712121145,22.35,-0.05752605214573309,0.006387905062299246,0.0,0.07848000000000001,-0.73575,9.82962
6717171650,22.35,-0.05859070298944965,0.01064650843716541,0.003193952531149623,0.05886,-0.7651800000000001,9.78057
6722222155,22.35,-0.05859070298944965,0.007452555906015787,0.002129301687433082,0.039240000000000004,-0.7848,9.81
6727272660,22.35,-0.046879543708567686,-0.003193952531149623,0.0,0.009810000000000001,-0.8142300000000001,9.85905
6732323165,22.35,-0.03834488366631542,-0.006387905062299246,0.002129301687433082,0.05886,-0.80442,9.87867
6737373670,22.35,-0.0404741853537485,-0.002129301687433082,0.0,0.039240000000000004,-0.8240400000000001,9.84924
6742424175,22.35,-0.049008845396000776,0.002129301687433082,0.0,0.039240000000000004,-0.8338500000000001,9.86886
6747474680,22.35,-0.04366813788489812,0.005323254218582705,0.001064650843716541,0.039240000000000004,-0.8240400000000001,9.82962
6752525185,22.35,-0.04581489286485115,0.007452555906015787,0.0,0.06867000000000001,-0.8240400000000001,9.760950000000001
6757575690,22.35,-0.03834488366631542,0.001064650843716541,0.004258603374866164,0.05886,-0.8240400000000001,9.78057
6762626195,22.35,-0.028763026072866547,-0.004258603374866164,0.0,0.039240000000000004,-0.79461,9.770760000000001
6767676700,22.35,-0.0170518667919846,-0.004258603374866164,0.003193952531149623,0.04905,-0.7848,9.760950000000001
6772727205,22.35,-0.02663372438543347,-0.001064650843716541,0.002129301687433082,0.039240000000000004,-0.7848,9.751140000000001
6777777710,22.35,-0.033021629447732716,-0.001064650843716541,0.0,0.039240000000000004,-0.7651800000000001,9.73152
6782828215,22.35,-0.03408628029144926,0.002129301687433082,0.002129301687433082,0.05886,-0.73575,9.67266
6787878720,22.35,-0.031956978604016174,0.003193952531149623,0.002129301687433082,0.05886,-0.74556,9.65304
6792929225,22.35,-0.03089232776029963,0.005323254218582705,0.004258603374866164,0.04905,-0.73575,9.7119
6797979730,22.35,-0.02663372438543347,0.001064650843716541,-0.001064650843716541,0.019620000000000002,-0.70632,9.74133
6803030235,22.35,-0.02556907354171693,-0.005323254218582705,0.001064650843716541,0.02943,-0.70632,9.770760000000001
6808080740,22.35,-0.04153883619746504,0.0,0.0,0.0,-0.73575,9.770760000000001
6813131245,22.35,-0.05326744877086694,0.0,0.002129301687433082,0.019620000000000002,-0.74556,9.819809999999999
6818181750,22.35,-0.05646140130201656,0.0,0.002129301687433082,0.039240000000000004,-0.7651800000000001,9.82962
6823232255,22.35,-0.05752605214573309,-0.001064650843716541,0.002129301687433082,0.019620000000000002,-0.8142300000000001,9.82962
6828282760,22.35,-0.05539675045830002,-0.004258603374866164,0.0,0.019620000000000002,-0.8142300000000001,9.888480000000001
6833333265,22.35,-0.05113814708343386,-0.011711159280881954,0.0,0.05886,-0.84366,9.92772
6838383770,22.35,-0.04260348704118158,-0.013840460968315033,0.001064650843716541,0.05886,-0.84366,9.91791
6843434275,22.35,-0.04794419455228423,-0.001064650843716541,0.0,0.0981,-0.8829,9.84924
6848484780,22.35,-0.054332099614583476,0.008517206749732328,0.0,0.07848000000000001,-0.8829,9.84924
6853535285,22.35,-0.05220279792715039,0.004258603374866164,0.002129301687433082,0.06867000000000001,-0.87309,9.81
6858585790,22.35,-0.04366813788489812,0.003193952531149623,0.0,0.04905,-0.8829,9.80019
6863636295,22.35,-0.03515093113516579,0.002129301687433082,0.0,0.04905,-0.8829,9.80019
6868686800,22.35,-0.021310470166850764,-0.001064650843716541,0.0,0.07848000000000001,-0.87309,9.81
6873737305,22.35,-0.0170518667919846,-0.001064650843716541,0.0,0.04905,-0.8338500000000001,9.83943
6878787810,22.35,-0.015987215948268057,0.007452555906015787,0.0,0.039240000000000004,-0.8240400000000001,9.72171
6883838315,22.35,-0.02769837522915001,0.0170518667919846,0.0,0.02943,-0.79461,9.64323
6888888820,22.35,-0.028763026072866547,0.013840460968315033,0.0,0.0,-0.7848,9.633420000000001
6893939325,22.35,-0.02769837522915001,0.003193952531149623,0.0,0.0,-0.7749900000000001,9.65304
6898989830,22.35,-0.024504422698000388,0.0,0.0,0.0,-0.75537,9.65304
6904040335,22.35,-0.01918116847941768,-0.003193952531149623,0.0,-0.009810000000000001,-0.73575,9.69228
6909090840,22.35,-0.023439771854283843,-0.012775810124598492,0.0,-0.009810000000000001,-0.72594,9.80019
6914141345,22.35,-0.02982767691658309,-0.015987215948268057,0.0,0.009810000000000001,-0.73575,9.80019
6919191850,22.35,-0.0404741853537485,0.0,0.0,0.0,-0.7848,9.73152
6924242355,22.35,-0.05646140130201656,0.002129301687433082,0.0,0.019620000000000002,-0.79461,9.751140000000001
6929292860,22.35,-0.060720004676882725,-0.004258603374866164,0.0,0.019620000000000002,-0.8338500000000001,9.80019
6934343365,22.35,-0.05646140130201656,-0.012775810124598492,0.0,0.039240000000000004,-0.84366,9.85905
6939393870,22.35,-0.05326744877086694,-0.011711159280881954,0.0,0.0981,-0.86328,9.89829
6944444375,22.35,-0.05007349623971732,-0.00958185759344887,0.0,0.08829,-0.9221400000000001,9.94734
6949494880,22.35,-0.046879543708567686,-0.008517206749732328,0.0,0.0981,-0.9711900000000001,9.96696
6954545385,22.35,-0.049008845396000776,0.002129301687433082,0.0,0.11772,-0.94176,9.86886
6959595890,22.35,-0.049008845396000776,0.015987215948268057,0.0,0.12753,-0.9221400000000001,9.78057
6964646395,22.35,-0.046879543708567686,0.013840460968315033,0.0,0.07848000000000001,-0.95157,9.770760000000001
6969696900,22.35,-0.03834488366631542,0.008517206749732328,0.0,0.02943,-0.9221400000000001,9.80019
6974747405,22.35,-0.021310470166850764,0.004258603374866164,0.0,0.039240000000000004,-0.8829,9.81
6979797910,22.35,-0.01811651763570114,0.004258603374866164,0.0,0.009810000000000001,-0.8829,9.82962
6984848415,22.35,-0.01811651763570114,0.004258603374866164,0.0,0.019620000000000002,-0.89271,9.819809999999999
6989898920,22.35,-0.01918116847941768,0.0,0.0,-0.009810000000000001,-0.86328,9.819809999999999
6994949425,22.35,-0.021310470166850764,0.003193952531149623,0.0,0.019620000000000002,-0.8240400000000001,9.73152
6999999930,22.35,-0.020245819323134222,0.007452555906015787,0.0,0.0,-0.8142300000000001,9.633420000000001
7005050435,22.35,-0.01811651763570114,0.004258603374866164,0.0,0.009810000000000001,-0.7848,9.6138
7010100940,22.35,-0.0170518667919846,-0.002129301687433082,0.0,0.009810000000000001,-0.79461,9.67266
7015151445,22.35,-0.020245819323134222,-0.013840460968315033,0.0,0.039240000000000004,-0.7749900000000001,9.74133
7020201950,22.35,-0.02556907354171693,-0.011711159280881954,0.0,0.039240000000000004,-0.79461,9.73152
7025252455,22.35,-0.033021629447732716,-0.006387905062299246,0.0,0.05886,-0.7848,9.70209
7030302960,22.35,-0.044732788728614664,-0.001064650843716541,0.0,0.07848000000000001,-0.8142300000000001,9.7119
7035353465,22.35,-0.04581489286485115,0.0,0.0,0.04905,-0.80442,9.74133
7040403970,22.35,-0.04366813788489812,-0.002129301687433082,0.0,0.02943,-0.8240400000000001,9.73152
7045454475,22.35,-0.0404741853537485,-0.005323254218582705,0.0,0.06867000000000001,-0.85347,9.73152
7050504980,22.35,-0.044732788728614664,-0.003193952531149623,0.0,0.05886,-0.8829,9.79038
7055555485,22.35,-0.05220279792715039,0.001064650843716541,0.0,0.05886,-0.9123300000000001,9.888480000000001
7060605990,22.35,-0.05539675045830002,0.003193952531149623,0.0,0.019620000000000002,-0.94176,9.89829
7065656495,22.35,-0.05965535383316618,0.002129301687433082,0.0,0.05886,-0.9711900000000001,9.87867
7070707000,22.35,-0.054332099614583476,0.001064650843716541,0.0,0.05886,-0.9908100000000001,9.92772
7075757505,22.35,-0.046879543708567686,-0.002129301687433082,0.0,0.019620000000000002,-0.9908100000000001,9.94734
7080808010,22.35,-0.033021629447732716,-0.001064650843716541,0.0,0.019620000000000002,-0.9810000000000001,9.87867
7085858515,22.35,-0.02663372438543347,-0.001064650843716541,0.0,0.04905,-1.01043,9.819809999999999
7090909020,22.35,-0.02556907354171693,0.002129301687433082,0.0,0.039240000000000004,-0.9810000000000001,9.80019
7095959525,22.35,-0.03089232776029963,0.002129301687433082,0.0,0.04905,-0.94176,9.83943
7101010030,22.35,-0.024504422698000388,-0.001064650843716541,0.0,0.07848000000000001,-0.9319500000000001,9.819809999999999
7106060535,22.35,-0.021310470166850764,0.001064650843716541,0.0,0.06867000000000001,-0.9221400000000001,9.80019
7111111040,22.35,-0.013840460968315033,0.004258603374866164,0.0,0.04905,-0.9221400000000001,9.78057
7116161545,22.35,-0.01064650843716541,0.004258603374866164,0.0,0.04905,-0.84366,9.751140000000001
7121212050,22.35,-0.007452555906015787,0.0,0.0,0.06867000000000001,-0.85347,9.751140000000001
7126262555,22.35,-0.01064650843716541,0.001064650843716541,0.0,0.039240000000000004,-0.8338500000000001,9.6138
7131313060,22.35,-0.01811651763570114,0.007452555906015787,0.0,0.039240000000000004,-0.80442,9.54513
7136363565,22.35,-0.02663372438543347,0.011711159280881954,0.0,0.0,-0.8142300000000001,9.57456
7141414070,22.35,-0.02556907354171693,0.005323254218582705,0.0,0.019620000000000002,-0.80442,9.633420000000001
7146464575,22.35,-0.02982767691658309,-0.004258603374866164,0.0,0.0,-0.8142300000000001,9.69228
7151515080,22.35,-0.031956978604016174,-0.007452555906015787,0.0,0.02943,-0.8142300000000001,9.72171
7156565585,22.35,-0.033021629447732716,-0.003193952531149623,0.0,0.019620000000000002,-0.8142300000000001,9.72171
7161616090,22.35,-0.0404741853537485,0.005323254218582705,0.0,0.019620000000000002,-0.85347,9.73152
7166666595,22.35,-0.04260348704118158,0.0,0.005323254218582705,0.019620000000000002,-0.89271,9.73152
7171717100,22.35,-0.054332099614583476,-0.008517206749732328,0.003193952531149623,0.009810000000000001,-0.90252,9.751140000000001
7176767605,22.35,-0.05539675045830002,-0.00958185759344887,0.002129301687433082,0.039240000000000004,-0.94176,9.81
7181818110,22.35,-0.05007349623971732,-0.004258603374866164,0.001064650843716541,0.06867000000000001,-0.9810000000000001,9.87867
7186868615,22.35,-0.04794419455228423,-0.004258603374866164,0.0,0.04905,-1.00062,9.99639
7191919120,22.35,-0.05007349623971732,-0.00958185759344887,-0.001064650843716541,0.06867000000000001,-1.03005,10.045440000000001
7196969625,22.35,-0.049008845396000776,-0.011711159280881954,0.001064650843716541,0.08829,-1.05948,10.025820000000001
7202020130,22.35,-0.04794419455228423,0.0,0.0,0.11772,-1.03986,9.96696
7207070635,22.35,-0.039409534510031964,0.007452555906015787,0.001064650843716541,0.0981,-1.03986,9.819809999999999
7212121140,22.35,-0.031956978604016174,0.008517206749732328,0.003193952531149623,0.07848000000000001,-1.05948,9.82962
7217171645,22.35,-0.023439771854283843,0.001064650843716541,0.001064650843716541,0.06867000000000001,-1.04967,9.83943
7222222150,22.35,-0.012775810124598492,-0.002129301687433082,0.0,0.06867000000000001,-1.01043,9.85905
7227272655,22.35,-0.005323254218582705,0.004258603374866164,0.0,0.08829,-0.9810000000000001,9.80019
