#timestamp [ns], temperature [degC], w_RS_S_x [rad s^-1], w_RS_S_y [rad s^-1], w_RS_S_z [rad s^-1], a_RS_S_x [m s^-2], a_RS_S_y [m s^-2], a_RS_S_z [m s^-2]
0.0,22.28,0.0,0.0,0.0,-0.32373,-0.23544,9.81981
5000000.0,22.28,0.0,0.0,0.0,-0.275170499514405,-0.264575700291357,9.839233800194238
10000000.0,22.28,0.0,0.0,0.0,-0.284293800194238,-0.27448380019423796,9.810588599417287
15000000.0,22.28,0.0,0.0,0.0,-0.313037100874071,-0.26516429970864297,9.848062801165428
20000000.0,22.28,0.0,0.0,0.0,-0.304502399611524,-0.255452399611524,9.820987198834572
25000000.0,22.28,0.0,0.0,0.0,-0.27615149854321497,-0.245740499514405,9.810490499514405
30000000.0,22.28,0.0,0.0,0.0,-0.293122801165428,-0.272914201748142,9.81
35000000.0,22.28,0.0,0.0,0.0,-0.303423300679833,-0.24731009796050096,9.8373699020395
40000000.0,22.28,0.0,0.0,0.0,-0.286059598446096,-0.25427520077695204,9.830404799223048
45000000.0,22.28,0.0,0.0,0.0,-0.32912550437035504,-0.263987100874071,9.811765798251859
50000000.0,22.28,0.0,0.0,0.0,-0.30705299708642997,-0.25604099902881,9.81882900097119
55000000.0,22.28,0.0,0.0,0.0,-0.295379098931691,-0.25506,9.82854090106831
60000000.0,22.28,0.0,0.0,0.0,-0.27703439766914395,-0.272325602330856,9.820987198834572
65000000.0,22.28,0.0,0.0,0.0,-0.28321470126254705,-0.24907589621235895,9.836879402525094
70000000.0,22.28,0.0,0.0,0.0,-0.30136320271933204,-0.21994019592100197,9.814120195921003
75000000.0,22.28,0.0,0.0,0.0,-0.28743299708643,-0.24917400582714005,9.81
80000000.0,22.28,0.0,0.0,0.0,-0.30921120466171204,-0.27154080310780804,9.81
85000000.0,22.28,0.0,0.0,0.0,-0.31392,-0.25025309504693094,9.818142301651024
90000000.0,22.28,0.0,0.0,0.0,-0.2736989912592899,-0.22916159650371595,9.81981
95000000.0,22.28,0.0,0.0,0.0,-0.2966544073810441,-0.25741440738104404,9.81981
100000000.0,22.28,0.0,0.0,0.0,-0.31980600388476005,-0.24132599417285994,9.81981
105000000.0,22.28,0.0,0.0,0.0,-0.30048029388150294,-0.227690097960501,9.81981
110000000.0,22.28,0.0,0.0,0.0,-0.28664819786338197,-0.27154081281970815,9.835113604273236
115000000.0,22.28,0.0,0.0,0.0,-0.30715110670121104,-0.23916778659757787,9.81676889329879
120000000.0,22.28,0.0,0.0,0.0,-0.30646439766914396,-0.23308560233085604,9.839822409323425
125000000.0,22.28,0.0,0.0,0.0,-0.296752497572025,-0.25751250728392505,9.83452499514405
130000000.0,22.28,0.0,0.0,0.0,-0.301559402525094,-0.25035119494981195,9.836879402525094
135000000.0,22.28,0.0,0.0,0.0,-0.28262609213336093,-0.23808869737778698,9.83943
140000000.0,22.28,0.0,0.0,0.0,-0.28174320271933206,-0.23544,9.825303594561337
145000000.0,22.28,0.0,0.0,0.0,-0.29842020563290206,-0.2633004112658041,9.812844897183549
150000000.0,22.28,0.0,0.0,0.0,-0.29037599417286,-0.2472119883457199,9.81686700291357
155000000.0,22.28,0.0,0.0,0.0,-0.27772109698931097,-0.24897780602137806,9.833347806021377
160000000.0,22.28,0.0,0.0,0.0,-0.27468,-0.26173080310780805,9.819417590676576
165000000.0,22.28,0.0,0.0,0.0,-0.2943981096147811,-0.271442703204927,9.823145406409854
170000000.0,22.28,0.0,0.0,0.0,-0.30411,-0.26173079339590793,9.836094603302046
175000000.0,22.28,0.0,0.0,0.0,-0.297733496600835,-0.24868349660083497,9.83943
180000000.0,22.28,0.0,0.0,0.0,-0.3194136139851361,-0.23269319300743194,9.845708403496284
185000000.0,22.28,0.0,0.0,0.0,-0.31499908921979086,-0.23181030359340304,9.830699089219792
190000000.0,22.28,0.0,0.0,0.0,-0.30411,-0.24760440738104408,9.844138814762088
195000000.0,22.28,0.0,0.0,0.0,-0.30411,-0.26104410378764104,9.829129481061795
200000000.0,22.28,0.0,0.0,0.0,-0.29822399611524,-0.25898399611524,9.81588600388476
205000000.0,22.28,0.0,0.0,0.0,-0.300087903981879,-0.25506,9.842961615927516
210000000.0,22.28,0.0,0.0,0.0,-0.29842019592100194,-0.24368039184200393,9.841980587763006
215000000.0,22.28,0.0,0.0,0.0,-0.3054834083522341,-0.2466234083522341,9.835211704176118
220000000.0,22.28,0.0,0.0,0.0,-0.2974391871802919,-0.24407279145352792,9.844923604273236
225000000.0,22.28,0.0,0.0,0.0,-0.2952810087407101,-0.2570220174814202,9.843844495629645
230000000.0,22.28,0.0,0.0,0.0,-0.309407404467474,-0.24819297766262977,9.834132595532527
235000000.0,22.28,0.0,0.0,0.0,-0.3035213908708139,-0.23602860912918608,9.824420695435407
240000000.0,22.28,0.0,0.0,0.0,-0.2943,-0.2554524093234241,9.830012409323425
245000000.0,22.28,0.0,0.0,0.0,-0.28929689524116897,-0.2748762095176621,9.834426895241169
250000000.0,22.28,0.0,0.0,0.0,-0.29920501456785015,-0.2697749854321499,9.8394300097119
255000000.0,22.28,0.0,0.0,0.0,-0.3091130950469309,-0.2454461900938619,9.839626190093862
260000000.0,22.342400066924,0.0,0.0,0.0,-0.30411,-0.2448576101003761,9.839037610100377
265000000.0,22.41,0.0,0.0,0.0,-0.30411,-0.25044929485269296,9.835407884558078
270000000.0,22.41,0.0,0.0,0.0,-0.29959739475557395,-0.24976260524442606,9.828835210488853
275000000.0,22.41,0.0,0.0,0.0,-0.28105648397536487,-0.2506454946584549,9.83060098931691
280000000.0,22.41,0.0,0.0,0.0,-0.28213562175465623,-0.25819921631599213,9.828442810877329
285000000.0,22.41,0.0,0.0,0.0,-0.29989169446421693,-0.26624338892843386,9.847866611071566
290000000.0,22.41,0.0,0.0,0.0,-0.28193938310129385,-0.25093979436709796,9.850809588734196
295000000.0,22.41,0.0,0.0,0.0,-0.2809584229200842,-0.24927210573002107,9.831385788539958
300000000.0,22.41,0.0,0.0,0.0,-0.3119580116542801,-0.25506,9.82373400582714
305000000.0,22.41,0.0,0.0,0.0,-0.30842637630296377,-0.24740818815148188,9.837271811848519
310000000.0,22.41,0.0,0.0,0.0,-0.29194561204275615,-0.24289561204275614,9.838056581935867
315000000.0,22.41,0.0,0.0,0.0,-0.2968505877630059,-0.25506,9.816180293881503
320000000.0,22.41,0.0,0.0,0.0,-0.2915532124312321,-0.24446518135315182,9.813531606215616
325000000.0,22.41,0.0,0.0,0.0,-0.29724298737452987,-0.23249701262547012,9.81981
330000000.0,22.41,0.0,0.0,0.0,-0.28449,-0.25192081281970813,9.81981
335000000.0,22.41,0.0,0.0,0.0,-0.2877273065069731,-0.26810730650697306,9.823047306506973
340000000.0,22.41,0.0,0.0,0.0,-0.29743920660409207,-0.26840158679181586,9.832759206604091
345000000.0,22.41,0.0,0.0,0.0,-0.30411,-0.25201889329878896,9.842471106701211
350000000.0,22.41,0.0,0.0,0.0,-0.30116699320166995,-0.24525,9.83746797280668
355000000.0,22.41,0.0,0.0,0.0,-0.2999898137908981,-0.25093981379089814,9.804310186209102
360000000.0,22.41,0.0,0.0,0.0,-0.31392,-0.2621231930074319,9.804114034962842
365000000.0,22.41,0.0,0.0,0.0,-0.3059738787309388,-0.25506,9.847376121269061
370000000.0,22.41,0.0,0.0,0.0,-0.28449,-0.24995878562638787,9.86120817843958
375000000.0,22.41,0.0,0.0,0.0,-0.2918475218517752,-0.23789250728392508,9.83943
380000000.0,22.41,0.0,0.0,0.0,-0.31392,-0.24995881476208814,9.834721185237912
385000000.0,22.41,0.0,0.0,0.0,-0.3094073850436738,-0.26035738504367384,9.822066307478163
390000000.0,22.41,0.0,0.0,0.0,-0.2964582075752821,-0.24525,9.82962
395000000.0,22.41,0.0,0.0,0.0,-0.30204989232759893,-0.2431898923275989,9.8275598923276
400000000.0,22.41,0.0,0.0,0.0,-0.30018602330856026,-0.23740200776952008,9.821772007769521
405000000.0,22.41,0.0,0.0,0.0,-0.3218660921333609,-0.24525,9.82962
410000000.0,22.41,0.0,0.0,0.0,-0.30509096018120957,-0.24701580796375808,9.82962
415000000.0,22.41,0.0,0.0,0.0,-0.27154083224350833,-0.25506,9.826284583878246
420000000.0,22.41,0.0,0.0,0.0,-0.30254039184200393,-0.25035117552601177,9.811569608157997
425000000.0,22.41,0.0,0.0,0.0,-0.29724301651023016,-0.23151603302046034,9.824224524765345
430000000.0,22.41,0.0,0.0,0.0,-0.3125465916477659,-0.26487,9.846493183295532
435000000.0,22.41,0.0,0.0,0.0,-0.30411,-0.25849345775323457,9.833445925348059
440000000.0,22.41,0.0,0.0,0.0,-0.30175558290705584,-0.22052883418588837,9.857872791453527
445000000.0,22.41,0.0,0.0,0.0,-0.28772732593077327,-0.2572182172871822,9.847081782712818
450000000.0,22.41,0.0,0.0,0.0,-0.31392,-0.2727179825185798,9.830601008740711
455000000.0,22.41,0.0,0.0,0.0,-0.30950545581085454,-0.25506,9.838547091162171
460000000.0,22.41,0.0,0.0,0.0,-0.26879404467474044,-0.2566296178698962,9.82962
465000000.0,22.41,0.0,0.0,0.0,-0.3125465819358658,-0.2733065819358658,9.82962
470000000.0,22.41,0.0,0.0,0.0,-0.2931227817416278,-0.2538827817416278,9.82962
475000000.0,22.41,0.0,0.0,0.0,-0.27566101845261015,-0.2369115276789153,9.82962
480000000.0,22.41,0.0,0.0,0.0,-0.29547722797027226,-0.2644775906765759,9.830012409323425
485000000.0,22.41,0.0,0.0,0.0,-0.32284707173837074,-0.2544713811589138,9.839135690579457
490000000.0,22.41,0.0,0.0,0.0,-0.29390758096467584,-0.23544,9.82962
495000000.0,22.41,0.0,0.0,0.0,-0.27477810961478105,-0.23583243845912438,9.829718109614781
500000000.0,22.41,0.0,0.0,0.0,-0.2844900194238002,-0.27467999028809986,9.8394299902881
505000000.0,22.41,0.0,0.0,0.0,-0.3039138196180382,-0.2649680901909809,9.829718090190982
510000000.0,22.41,0.0,0.0,0.0,-0.3137238099061381,-0.2456423801877238,9.839233809906139
515000000.0,22.41,0.0,0.0,0.0,-0.29488857999348583,-0.24525,9.820398579993487
520000000.0,22.41,0.0,0.0,0.0,-0.30371761010037607,-0.27350283030112826,9.829227610100377
525000000.0,22.41,0.0,0.0,0.0,-0.2947904898025049,-0.2467214694075147,9.82962
530000000.0,22.41,0.0,0.0,0.0,-0.3127428205892282,-0.2636928205892282,9.82962
535000000.0,22.41,0.0,0.0,0.0,-0.3047966896082669,-0.2557466896082669,9.820496689608268
540000000.0,22.41,0.0,0.0,0.0,-0.2860595790222958,-0.24603478951114788,9.81981
545000000.0,22.41,0.0,0.0,0.0,-0.3023442211719422,-0.24525,9.81088288941403
550000000.0,22.41,0.0,0.0,0.0,-0.3217680213661802,-0.25407901068309013,9.81882901068309
555000000.0,22.41,0.0,0.0,0.0,-0.28007544609895446,-0.21140544609895445,9.828540910780209
560000000.0,22.41,0.0,0.0,0.0,-0.3005784326319843,-0.24917405438664056,9.82962
565000000.0,22.41,0.0,0.0,0.0,-0.31264471097444707,-0.24652528902555287,9.804015867076659
570000000.0,22.41,0.0,0.0,0.0,-0.2970467778568678,-0.2536866110715661,9.825499833214698
575000000.0,22.41,0.0,0.0,0.0,-0.2943,-0.25506,9.82962
580000000.0,22.41,0.0,0.0,0.0,-0.3025404112658041,-0.2633004112658041,9.82962
585000000.0,22.41,0.0,0.0,0.0,-0.30411,-0.24044306591123066,9.845904622725847
590000000.0,22.41,0.0,0.0,0.0,-0.30411,-0.23544,9.84924
595000000.0,22.41,0.0,0.0,0.0,-0.28027166532851666,-0.2433861115571611,9.833347776885677
600000000.0,22.41,0.0,0.0,0.0,-0.2903760233085602,-0.2374019883457199,9.82177198834572
605000000.0,22.41,0.0,0.0,0.0,-0.3020499117513991,-0.26643964700559647,9.827559911751399
610000000.0,22.41,0.0,0.0,0.0,-0.28115456445444564,-0.2364209407574094,9.82962
615000000.0,22.41,0.0,0.0,0.0,-0.2897874238912742,-0.24829113583691137,9.82962
620000000.0,22.41,0.0,0.0,0.0,-0.3166668361282684,-0.24014877591448777,9.822164387957244
625000000.0,22.41,0.0,0.0,0.0,-0.29429995144049953,-0.23544,9.83452502427975
630000000.0,22.41,0.0,0.0,0.0,-0.30626823671098236,-0.24269941223699412,9.817651763289017
635000000.0,22.41,0.0,0.0,0.0,-0.2995973753317738,-0.2380886876658869,9.83148393700234
640000000.0,22.41,0.0,0.0,0.0,-0.2872367875687679,-0.25662963729369637,9.825303575137536
645000000.0,22.41,0.0,0.0,0.0,-0.29145511252835116,-0.27183511252835113,9.82677511252835
650000000.0,22.41,0.0,0.0,0.0,-0.30116701262547013,-0.26094597474905973,9.82962
655000000.0,22.41,0.0,0.0,0.0,-0.2973410872774109,-0.2347532618322326,9.836388912722589
660000000.0,22.41,0.0,0.0,0.0,-0.3009708128197081,-0.23897162563941626,9.826088374360584
665000000.0,22.41,0.0,0.0,0.0,-0.3106827129168271,-0.25839542583365427,9.826382712916827
670000000.0,22.41,0.0,0.0,0.0,-0.30744538698605384,-0.24544616095816163,9.82962
675000000.0,22.41,0.0,0.0,0.0,-0.29135697377786973,-0.25456953933319537,9.835996513111064
680000000.0,22.41,0.0,0.0,0.0,-0.28449,-0.26487,9.833151586791816
685000000.0,22.41,0.0,0.0,0.0,-0.29067031330530313,-0.2586896866946969,9.835800313305302
690000000.0,22.41,0.0,0.0,0.0,-0.2882177865975779,-0.24289557319515573,9.833347786597578
695000000.0,22.41,0.0,0.0,0.0,-0.28449,-0.25937645399816456,9.83560411349954
700000000.0,22.41,0.0,0.0,0.0,-0.29037601359666015,-0.2629079728066797,9.83354398640334
705000000.0,22.41,0.0,0.0,0.0,-0.30008791369377913,-0.23769625891866258,9.82962
710000000.0,22.41,0.0,0.0,0.0,-0.2984201862091019,-0.23700962758179628,9.823930186209102
715000000.0,22.41,0.0,0.0,0.0,-0.28870828611198285,-0.2620251416640514,9.808626572223966
720000000.0,22.41,0.0,0.0,0.0,-0.28998361398513617,-0.2581991580445916,9.816670841955409
725000000.0,22.41,0.0,0.0,0.0,-0.3050910281645103,-0.23985448591774486,9.82962
730000000.0,22.41,0.0,0.0,0.0,-0.3033251716412517,-0.2513322425381224,9.819025171641252
735000000.0,22.41,0.0,0.0,0.0,-0.27870205717052055,-0.2544713714470137,9.82559794282948
740000000.0,22.41,0.0,0.0,0.0,-0.2852748574944486,-0.24014878562638786,9.83943
745000000.0,22.41,0.0,0.0,0.0,-0.2941037710585377,-0.23544,9.829423771058538
750000000.0,22.41,0.0,0.0,0.0,-0.28449,-0.2452500291357003,9.8296200291357
755000000.0,22.41,0.0,0.0,0.0,-0.2941038293299383,-0.24544617067006172,9.83462308533503
760000000.0,22.41,0.0,0.0,0.0,-0.2899835557137355,-0.2542752590483526,9.82962
765000000.0,22.41,0.0,0.0,0.0,-0.27929071485920715,-0.2654585702815857,9.820398570281586
770000000.0,22.41,0.0,0.0,0.0,-0.28449,-0.2460347700873477,9.814512614956326
775000000.0,22.41,0.0,0.0,0.0,-0.29773354516033546,-0.24868354516033545,9.81981
780000000.0,22.41,0.0,0.0,0.0,-0.30960358484943584,-0.25192075454830754,9.824126415150564
785000000.0,22.41,0.0,0.0,0.0,-0.30411,-0.23965831524768316,9.821183369504634
790000000.0,22.41,0.0,0.0,0.0,-0.2999897846551978,-0.24112978465519785,9.818240430689604
795000000.0,22.41,0.0,0.0,0.0,-0.2862557691161577,-0.2515284617676846,9.825597884558078
800000000.0,22.41,0.0,0.0,0.0,-0.2825280310780803,-0.26290795338287953,9.82765803107808
805000000.0,22.41,0.0,0.0,0.0,-0.29047408436384087,-0.24142408436384086,9.83560408436384
810000000.0,22.41,0.0,0.0,0.0,-0.28076218426672184,-0.24289563146655632,9.825892184266722
815000000.0,22.41,0.0,0.0,0.0,-0.2928285791519858,-0.2478005683392057,9.827069431660794
820000000.0,22.41,0.0,0.0,0.0,-0.3060719203624192,-0.22484515221745152,9.835898384072484
825000000.0,22.41,0.0,0.0,0.0,-0.2849805480739055,-0.21974406409854064,9.819319451926095
830000000.0,22.41,0.0,0.0,0.0,-0.30077458387824585,-0.24525,9.803525416121754
835000000.0,22.41,0.0,0.0,0.0,-0.3007746324377463,-0.24525,9.822949264875493
840000000.0,22.41,0.0,0.0,0.0,-0.3045023510520235,-0.24211078368400785,9.846100783684008
845000000.0,22.41,0.0,0.0,0.0,-0.2784077671737777,-0.24152223282622234,9.830306650760667
850000000.0,22.41,0.0,0.0,0.0,-0.2766420660409207,-0.25800301651023017,9.81588603302046
855000000.0,22.41,0.0,0.0,0.0,-0.30411,-0.25918016678530165,9.82677508339265
860000000.0,22.41,0.0,0.0,0.0,-0.30136318329553186,-0.24799681670446816,9.828050450113405
865000000.0,22.41,0.0,0.0,0.0,-0.2969487168015872,-0.25506,9.843942566396827
870000000.0,22.41,0.0,0.0,0.0,-0.30411,-0.2576106168987062,9.824518766202589
875000000.0,22.41,0.0,0.0,0.0,-0.30656251699582515,-0.2575124490125245,9.819810067983301
880000000.0,22.41,0.0,0.0,0.0,-0.3092111658141116,-0.24014883418588834,9.846885582907056
885000000.0,22.41,0.0,0.0,0.0,-0.2943,-0.25506,9.832661048429811
890000000.0,22.41,0.0,0.0,0.0,-0.2921417827128178,-0.2529017827128178,9.814316434574366
895000000.0,22.41,0.0,0.0,0.0,-0.28861023476860237,-0.24731011738430117,9.831680117384302
900000000.0,22.41,0.0,0.0,0.0,-0.30411,-0.25309798251857984,9.83354394755574
905000000.0,22.41,0.0,0.0,0.0,-0.30411,-0.24711391757853918,9.81372783515708
910000000.0,22.41,0.0,0.0,0.0,-0.30057836464868365,-0.25506,9.831385817675658
915000000.0,22.41,0.0,0.0,0.0,-0.28949315331833153,-0.2600631533183315,9.83943
920000000.0,22.41,0.0,0.0,0.0,-0.31392,-0.2797811463903115,9.83943
925000000.0,22.41,0.0,0.0,0.0,-0.31097696406596964,-0.25800303593403034,9.83648696406597
930000000.0,22.41,0.0,0.0,0.0,-0.2970468361282684,-0.2719331638717316,9.821183418064134
935000000.0,22.41,0.0,0.0,0.0,-0.31392,-0.25506,9.830895318161254
940000000.0,22.41,0.0,0.0,0.0,-0.30921112696651126,-0.25506,9.838252781741629
945000000.0,22.41,0.0,0.0,0.0,-0.27683823671098234,-0.2539808816445088,9.828540881644509
950000000.0,22.41,0.0,0.0,0.0,-0.29626203690522035,-0.24525,9.82079101845261
955000000.0,22.41,0.0,0.0,0.0,-0.31127124435081244,-0.2443670814502708,9.82962
960000000.0,22.41,0.0,0.0,0.0,-0.28449,-0.23544,9.82962
965000000.0,22.41,0.0,0.0,0.0,-0.2851767187439672,-0.23750015623190157,9.830306718743968
970000000.0,22.41,0.0,0.0,0.0,-0.2943,-0.26310414347674144,9.83943
975000000.0,22.41,0.0,0.0,0.0,-0.2943,-0.2364210378764104,9.83943
980000000.0,22.41,0.0,0.0,0.0,-0.2935151619293516,-0.25466758096467584,9.838645161929351
985000000.0,22.41,0.0,0.0,0.0,-0.27526863826488635,-0.24554431913244318,9.81981
990000000.0,22.41,0.0,0.0,0.0,-0.2941037807704378,-0.25506,9.820791096147811
995000000.0,22.41,0.0,0.0,0.0,-0.2845881193266812,-0.25486376134663763,9.868467522693274
1000000000.0,22.41,0.0,0.0,0.0,-0.2943,-0.2354400388476004,9.82962
1005000000.0,22.41,0.0,0.0,0.0,-0.2943,-0.2548638390418384,9.82962
1010000000.0,22.41,0.0,0.0,0.0,-0.2750723607639236,-0.25506,9.839233819618038
1015000000.0,22.41,0.004130853832135405,0.008261707664270907,0.0,-0.33177431829094317,-1.0543804560732046,9.820398560569686
1020000000.0,22.41,0.014479272976233538,0.14453588842825846,0.008176535681093932,-0.7008271726787718,-0.27860231595652307,9.951656677371867
1025000000.0,22.41,0.11813632161373469,0.15627155820006972,0.00346010443853419,-1.9463066280401664,0.6307848714831488,10.068984238912742
1030000000.0,22.41,0.044458949466451916,0.00939513707776865,-0.007814561076617862,-2.01105,0.6215614799609148,9.466256279570063
1035000000.0,22.41,-0.057671651995046855,-0.19021809474218676,-0.012477716615513756,-1.1717045504657455,0.12537071440380715,9.336176798963667
1040000000.0,22.41,-0.203165709942344,-0.2829417837202505,-0.0068989243133089,0.182076488707565,-2.6373265006271653,10.502588626097786
1045000000.0,22.41,-0.08624724622025112,-0.13465075191808237,0.006206943056165435,0.6781661728084618,-0.7318211285109113,10.702808323276583
1050000000.0,22.41,0.07893461286417357,0.09353268628148532,0.011285307797031786,0.7867621631599216,-0.6258782447398825,10.527110571705206
1055000000.0,22.41,0.09681847728690536,0.17501250287877146,0.007920993381454303,0.6374534311420343,0.47117690249786914,9.31910481307315
1060000000.0,22.41,0.12412089992164688,0.20840843231957015,0.0027680810212168585,-0.9013464237041642,-0.056507185370571866,9.819811544192115
1065000000.0,22.41,0.0175436078024252,0.09985088737546648,0.0012030532083703884,-2.013210392752804,0.08328745853137459,9.626454217350542
1070000000.0,22.41,0.009305068674206255,-0.02042793765842904,0.0010646508437165,-2.0049674466810745,0.41300172742131724,9.727792553318926
1075000000.0,22.41,-0.07265390203090148,-0.17673238926068066,-0.0025551710893570584,-0.9726589734491897,0.04414395597073956,10.16806604402926
1080000000.0,22.41,-0.1437245167467846,-0.23891682069869852,-0.00945411542874858,0.4826552515441527,-1.825841773139518,10.101552843379029
1085000000.0,22.41,-0.07488855611796438,-0.0745420447766883,-0.006228195999794607,0.9702096322446964,-0.8001000594297005,10.172577852897877
1090000000.0,22.41,0.05759198231196659,0.11432715008073094,-0.0009581742706975165,0.4732329603079296,-0.6405933175791333,10.232811105859712
1095000000.0,22.41,0.14780111197300697,0.2153809657045772,0.004311847458399573,-0.6559974011707743,0.6042994030497941,9.343728296596083
1100000000.0,22.41,0.0888370570760397,0.1246336718436536,0.007026700206148222,-1.4813116024635162,0.6199912308175124,9.82373588022386
1105000000.0,22.41,-0.046676711354160835,-0.05431733709148577,0.0015650204348160671,-1.0937154190323541,0.07661479073874788,10.011889842926598
1110000000.0,22.41,-0.1184765549768306,-0.15463808564308068,-0.004152149989942745,-0.3776833829686338,-0.615284795470948,9.92418814127498
1115000000.0,22.41,-0.10698983902716572,-0.14361398844283021,-0.0036836872183998305,0.23740329945223299,-0.9411718764658188,9.43751297889023
1120000000.0,22.41,-0.0054074517661026195,-0.032467012879325324,-0.0015756785267609745,0.7604723312421233,-0.6627626427951265,9.463903678602437
1125000000.0,22.41,0.058852604391046365,0.09986367307021665,0.001330820669174959,0.5518115166701152,-0.24279656037366565,9.729068133701482
1130000000.0,22.41,0.09001087790584783,0.17414488791848012,0.0037049897002331368,-0.3643458363272585,-0.08652404635774046,10.061529190160192
1135000000.0,22.41,0.06272615533887334,0.14033619168024036,0.00348140586636319,-1.4352054250614543,0.16765362751843632,9.917026372481564
1140000000.0,22.41,0.012487363900012427,0.005159523524742166,0.0008942994993321627,-1.6841806671412067,0.3892612207195122,9.815493555713736
1145000000.0,22.41,-0.0596152202850665,-0.14258325395571003,-0.0022677135381260717,-0.8876063090918631,0.190705599350956,9.80303487775975
1150000000.0,22.41,-0.13379710538364728,-0.21710510305880065,-0.008410758634830626,0.1520573454238735,-1.3194495791608958,9.855126178698962
1155000000.0,22.41,-0.08423284406925469,-0.1576595364881929,-0.005504227818764226,1.0838108639730089,-0.9751108591715086,9.838056465393064
1160000000.0,22.41,0.0347204774709304,0.04197293872107315,0.00042587256393697946,1.1768069691149698,-0.9429385293648854,10.113326191390762
1165000000.0,22.41,0.10703451891069915,0.22529164984595887,0.005695894293034038,0.2936105619240056,0.008931014769810064,9.80450486124655
1170000000.0,22.41,0.1288287084064897,0.24110698738761177,0.006749883882792641,-1.3671260542658605,0.5754546227258462,9.998745854454159
1175000000.0,22.41,0.056621701488171555,0.07238524762346105,0.0015437263850175062,-2.078248705406687,0.5469073858851738,9.702088174162782
1180000000.0,22.41,-0.048107093222005654,-0.11215383980686018,-0.004471545980860709,-1.5252566684321667,0.05257985807359855,9.540421612561516
1185000000.0,22.41,-0.1378513657394188,-0.20533794190065385,-0.004375707473704053,-0.6220499594000997,-1.0810652224084523,9.869743889739738
1190000000.0,22.41,-0.12974657876051626,-0.1994138895676765,-0.0031939525311496,0.8772146148355461,-0.9870799116820992,10.092724454257544
1195000000.0,22.41,-0.011880267798633756,-0.09549709507113834,-0.0018950734636746357,1.667013601748736,-0.34874445548514454,10.073888767885586
1200000000.0,22.41,0.033880275746815375,0.06029453916596829,0.0008517282638044899,1.416562811263428,-0.476767188736572,9.605950298475102
1205000000.0,22.41,0.053409460927617614,0.19024725384152896,0.004641887839205952,0.27300848487428486,-0.6074349191318492,9.608896170283963
1210000000.0,22.41,0.10624356282687736,0.2306578117175219,0.00824040518243752,-1.3214108779617089,0.06671058530780583,9.969315058078351
1215000000.0,22.41,0.09838093507430279,0.1435725224431711,0.005333882798405872,-2.3870689283942896,0.6876817079975172,10.04553793480058
1220000000.0,22.41,0.001187903658332795,-0.050150153578377224,-0.0008517335338262748,-2.0573505222349056,0.7812682578177826,9.669911707086717
1225000000.0,22.41,-0.13086598810194483,-0.2431422185651451,-0.006707315809278043,-0.8573908591715086,-1.0251528520712285,9.721711427649314
1230000000.0,22.41,-0.19635060883222452,-0.2800522215620501,-0.008432029496533544,1.5370389708157897,-1.8303468613732687,10.320317705150277
1235000000.0,22.41,-0.03202304843446485,-0.10253899229207747,-0.00519548570377373,2.794377180638372,-0.8437561089633612,10.39663704046427
1240000000.0,22.41,0.08062426499319285,0.15459279359036748,0.002895879048147542,1.775606387173164,-0.2876283810925838,9.533747196626873
1245000000.0,22.41,0.1169588661622519,0.2971593530330141,0.01014613041403106,-0.1914972940230728,0.2877293071583932,9.407792418263124
1250000000.0,22.41,0.11291372265033274,0.20932551277509404,0.0058555506553214405,-1.9767178407307786,0.47578395597073964,9.8982900485595
1255000000.0,22.41,0.014402842974215894,0.015010108839409245,-0.002086726235888021,-2.151625276719853,0.35620156316051566,9.811961512462615
1260000000.0,22.41,-0.061400232144088074,-0.11943731935089605,-0.006302743619165682,-1.4585493560346936,-0.07612834108668354,9.839038260797683
1265000000.0,22.41,-0.12293057386758847,-0.1930384169013264,-0.006015263933843456,-0.7841113097403132,-0.854942605699826,9.907609131433391
1270000000.0,22.41,-0.11363862417812948,-0.20359013877950854,-0.004173436661710903,0.5621180569863805,-0.849740892584009,9.978536614051466
1275000000.0,22.41,-0.03243924212833051,-0.11797514085014561,-0.0053232542185827,1.8555626639712268,-0.48951855422378554,10.06947402945844
1280000000.0,22.41,0.026966673800955545,0.055100552066307935,-0.0006387635237186714,1.6343432651289327,-0.6254869425730694,9.729556632564467
1285000000.0,22.41,0.05094498414761674,0.20619063568427548,0.0066966619333505345,0.2960614570325145,-0.49187085412250847,9.579269698544998
1290000000.0,22.41,0.1099743032355797,0.21708205939634553,0.006728582454963647,-1.1507158815207588,0.27625080272170804,9.904176751701069
1295000000.0,22.41,0.08862707729354001,0.09970242377906624,0.0020760554958909553,-1.8130842503076425,0.5212051239232512,9.958228370539185
1300000000.0,22.41,-0.00724340975455981,-0.03387713413999327,-0.0014905139216143991,-1.6127626364492262,0.22955238393982386,9.707975469730256
1305000000.0,22.41,-0.10097374835650372,-0.1396555603911405,-0.0037901680074361884,-1.0309311509839116,-0.41113884901608855,9.722103312530134
1310000000.0,22.41,-0.1252342501203877,-0.19409489686145154,-0.0059833349801955435,-0.2228805028111051,-0.8575904290066043,9.907707396438575
1315000000.0,22.41,-0.05756641880158075,-0.1323016776419363,-0.004535407050169594,0.7739133776028339,-0.6364708587854085,9.757417684815676
1320000000.0,22.41,0.022193659682833725,0.009589885046055457,-0.0012775670996024993,1.165034087274441,-0.2727187691824877,9.580838374360583
1325000000.0,22.41,0.044100173955231754,0.11419529296211321,0.0025019322758453263,0.5027603123945033,-0.3683648051135481,9.650097566203776
1330000000.0,22.41,0.0607200046768827,0.1346258512036425,0.0035559366216647696,-0.2593781050211811,-0.13949776082787763,9.857088516673086
1335000000.0,22.41,0.056503953565465954,0.09911807867250988,0.0028532530043938733,-0.7935317557155176,-0.0618032593077326,9.95744406662304
1340000000.0,22.41,0.035668144942503435,0.07375749263320536,0.001362764378883739,-1.1705305274225053,-0.09613773972107739,9.848062383553723
1345000000.0,22.41,5.153718397073528e-06,0.015529008967306378,0.002938424987570848,-1.4955343693749437,0.07092716212537163,9.74437112612501
1350000000.0,22.41,-0.03153644536691362,-0.08372553696971467,-0.0006387961978533674,-1.1968176400082764,0.2560406591123066,9.768798157332782
1355000000.0,22.41,-0.07918580824254587,-0.1920076707856009,-0.004599314495669613,-0.19188002058210019,-0.4363543796808439,9.804310147361502
1360000000.0,22.41,-0.11624710207291795,-0.19857065170628907,-0.008559772715238232,1.0218121623877217,-1.51740699604297,9.826088743412788
1365000000.0,22.41,-0.024683645700636032,-0.03865225478083334,-0.0011817422945023122,1.5241778705693787,-0.6671797703496977,10.018561607512515
1370000000.0,22.41,0.08892117344794626,0.17949944623892117,0.005919476018895363,0.7214241801166417,-0.6898347294181473,10.056032351824223
1375000000.0,22.41,0.12969544864684662,0.26578296843776006,0.010114177218283223,-0.6352027080064271,0.5542652670772527,9.618707510526175
1380000000.0,22.41,0.10678656212482762,0.17253632338484642,0.006728572968924547,-2.0887454144387543,0.5736881834885819,10.131373562831834
1385000000.0,22.41,-0.011985569571497465,-0.04313886863503432,-0.0006494574518113765,-1.963371194039012,0.37964673098036733,9.585056942117669
1390000000.0,22.41,-0.09529420265576255,-0.1896107687469095,-0.0075590356410478,-1.1087232571000327,-0.19444043678800432,9.726419717968797
1395000000.0,22.41,-0.166090682279837,-0.25749695113086335,-0.010816840809471498,0.2959752056477521,-1.7250853839368538,10.048383812886039
1400000000.0,22.41,-0.0960902153513516,-0.15191278778138,-0.005749090946371914,2.3190822868208225,-0.7847993201669933,10.27499391842004
1405000000.0,22.41,0.07859887040625002,0.07169943992895245,0.002480657198124984,1.6494508346987082,-0.49540363547803634,10.065057270956073
1410000000.0,22.41,0.060002545335541696,0.2056455967842435,0.008133926501409832,0.6023293441150934,-0.030998559272785595,9.374633815865938
1415000000.0,22.41,0.11014557045790431,0.20674119525172563,0.005482936930978647,-0.9169432011056321,0.2546672701838727,9.857578637423387
1420000000.0,22.41,0.032422509671110517,0.07324624034356264,0.0005536094586155536,-1.5935352691463527,0.12713707594587076,9.86846707594587
1425000000.0,22.41,-0.009531342223494159,-0.033077561138675354,-0.0018099004264932788,-1.2424362508897624,-0.05886055357830554,9.732501387504813
1430000000.0,22.41,-0.04328738546729331,-0.06528175406025584,-0.0005962165302909701,-1.1220668833908687,-0.23249713888017137,9.836879150015692
1435000000.0,22.41,-0.06655427920047942,-0.11790774642997316,-0.0038433804708392343,-0.7199531963041319,-0.2683033606342336,9.767326639365766
1440000000.0,22.41,-0.0636158731849868,-0.14832708567957775,-0.0010646508437165,0.20915160544341607,-0.3080359579190596,9.824126735643269
1445000000.0,22.41,-0.06220649326950665,-0.1127018272581314,-0.0008304215659537511,0.99365599462826,-0.8637692369673924,9.905058310584783
1450000000.0,22.41,-0.0004239743539464838,0.015446576773393174,0.0017034596896220373,1.246848493358585,-0.49050056329020564,9.712880746519406
1455000000.0,22.41,0.04903729159099364,0.15053639984340614,0.007260912619841437,0.3533527520812275,-0.5937969542847696,9.644015139139551
1460000000.0,22.41,0.10323831657287429,0.20295648681401313,0.00540842936377271,-0.8095238657223387,0.17461899255618993,9.766051738816216
1465000000.0,22.41,0.0969648633543461,0.13897635164505354,0.006164319120420528,-1.6620103707352039,0.48363271544132713,9.918988331691583
1470000000.0,22.41,0.021200599941740776,0.009614955524310053,0.003002306082962294,-1.697913886304439,0.3776842861753429,9.677369028423891
1475000000.0,22.41,-0.06780277791422856,-0.1292690166139471,-5.323565149864517e-05,-1.3483813198383132,0.07847598898525988,9.760950573002106
1480000000.0,22.41,-0.14223948767371952,-0.2377697102569558,-0.0012350074581226026,-0.23307967807179675,-1.2242878562638786,9.94734
1485000000.0,22.41,-0.14935769154361025,-0.23594427321892725,-0.005163540940060683,1.7087059730660596,-1.1613062424054625,9.945279698089598
1490000000.0,22.41,0.05003090392410273,-0.007108745373121407,0.00021296157807281342,1.7475507084440072,-0.6415731317561314,9.867877408219574
1495000000.0,22.41,0.048977735317335735,0.21881258123502442,0.01063585877725524,0.8337460632451605,-0.3433470961418709,9.34451709712197
1500000000.0,22.41,0.15126745844990097,0.262060684115858,0.009581838621370575,-1.1183427387558273,0.6278393590145936,9.878669737778697
1505000000.0,22.41,0.07532730927160017,0.09437032057196501,0.0032578125464541065,-2.0312613478850134,0.41417755687797553,9.791262636904627
1510000000.0,22.41,-0.03400039222463121,-0.09731734620044036,-0.005152935548333048,-1.2713736536049365,0.31588170670061705,9.617331072061111
1515000000.0,22.41,-0.13439117960690847,-0.17973128218383227,-0.0022251106824679877,-0.4087800809919009,-0.8279675312468753,10.003944906509348
1520000000.0,22.41,-0.13127806200384037,-0.169895197860955,-0.002129301687433,0.10712673525716737,-1.5978551028857513,9.94066896380659
1525000000.0,22.41,0.003563517435610175,-0.05300440681561654,-0.00010645865494514047,0.7332994253841943,-0.3703235011251349,9.77909799643798
1530000000.0,22.41,0.06572194674192544,0.0853047894524248,0.0010007750183468082,0.8112871485920716,-0.10123854619488545,10.001295742960357
1535000000.0,22.41,0.07915472824620162,0.14625090893862952,0.0010646508437165,0.02962363586413641,-0.006180031660200314,9.870036722951467
1540000000.0,22.41,0.029915475841443787,0.09140199990880193,0.0010646508437165,-0.9319529912652298,0.10830275895182759,9.714646321397563
1545000000.0,22.41,-0.00932488789546482,-0.03197238598770706,9.58153190610564e-05,-0.9122315698925156,0.0641572199413722,9.844924080156341
1550000000.0,22.41,-0.054967543335630406,-0.09544176136351369,-0.002874567080275056,-0.2050266215556662,-0.5238559870547599,9.87670806021378
1555000000.0,22.41,-0.06344552394861107,-0.05759170021893455,-0.0012988674734271098,0.06455046448820465,-0.9552990685683908,9.87867
1560000000.0,22.41,-0.004858789354638557,0.02466875346588881,-0.00012775481275242103,-0.1706949090338491,-0.5258143334379434,9.904568490903385
1565000000.0,22.41,0.07085572170076468,0.0703635978102864,0.0018524990661339148,-0.39377406876144067,0.22170843185978428,9.805683235221032
1570000000.0,22.41,0.05806073823494763,0.053650643644837376,0.002129301687433,-0.5736893489165935,0.3321666304953663,9.714450325541703
1575000000.0,22.41,-0.019013885963719286,-0.009698141279494248,0.0003193886128875713,-0.6401026529624265,-0.04169387666183877,9.70209
1580000000.0,22.41,-0.07759611225280838,-0.09809477520976667,-0.0017886200787511856,-0.41672794069107943,-0.4704889503425896,9.916341197929713
1585000000.0,22.41,-0.07213597526737829,-0.12352676510177515,-0.003012965228911554,0.25417947057769474,-0.8163892467485925,9.88386902291949
1590000000.0,22.41,-0.03081014975422136,-0.047957160585450034,-0.0023209354875681682,0.7687130824244308,-0.6639399970201001,9.884948461767683
1595000000.0,22.41,0.02853301562892491,0.0735110571557376,0.0030449215866724497,0.4561634509519345,-0.7769526196192263,9.912318392942883
1600000000.0,22.41,0.0916055535995928,0.1755490139160352,0.008517223613801791,-0.43752916996419167,-0.029426892191969034,9.847277720297278
1605000000.0,22.41,0.11449486131701664,0.1713718646017705,0.0070586249437787655,-1.4978923604471237,0.538766696409567,9.891619449401594
1610000000.0,22.41,0.044062632532114954,0.033831972904770274,0.0038966119063205316,-1.7495154938169548,0.5840871810937719,9.647937736741177
1615000000.0,22.41,-0.06351114724407111,-0.1360796848409694,-0.0017247547934250056,-1.106369102228391,0.1308635805726358,9.65765104506381
1620000000.0,22.41,-0.15101731669574178,-0.23486571618744717,-0.005621366699745537,-0.1220330645450306,-1.6849727114417272,9.868860786663909
1625000000.0,22.41,-0.09693527128384173,-0.16804866032979476,-0.0039924303873946285,0.9589310666953108,-0.7381961557012615,9.993937784073077
1630000000.0,22.41,0.03397958116800441,0.011800133057734252,0.0007452727708723607,1.4248052231806523,-0.7897073745595737,10.21927408650224
1635000000.0,22.41,0.05970853467643882,0.18162209722804723,0.0029065002499403286,0.7964708194824083,-0.465384113430241,9.767912781672328
1640000000.0,22.41,0.105247767512538,0.2470060773728132,0.007793264918810549,-0.8801596028614959,0.11379775202677755,10.090175925417359
1645000000.0,22.41,0.09211763062171793,0.15431491531443664,0.00731414089330969,-2.0939475354543755,0.48078909051669094,10.060840645579006
1650000000.0,22.41,0.031103289823013358,-0.0034109163019535593,0.0004258325117719305,-1.9933902693394028,0.6170492243448923,9.630475429585754
1655000000.0,22.41,-0.07755517138921618,-0.1480806417355177,-0.0028639142583518386,-1.2591107675569078,-0.0527810789317108,9.723182625123627
1660000000.0,22.41,-0.15123154800347616,-0.2297951253161091,-0.0024699864581278837,-0.2868409499446095,-1.470328152422382,9.876315825704557
1665000000.0,22.41,-0.09230957177643188,-0.1746962753977046,-0.002129301687433,0.7720505574690056,-0.7754745169839452,9.944299126384392
1670000000.0,22.41,0.0184299995736772,-0.008416722243255598,0.0013840636987040912,1.3806606650721067,-0.6233296382044964,10.096452648754926
1675000000.0,22.41,0.058537481040007416,0.15414709442714145,0.005270032269140515,0.7965683560950836,-0.4198657876291579,9.761438450303485
1680000000.0,22.41,0.08215206668573072,0.1974120547424643,0.005025144899432812,-0.567415490589555,-0.023150751568407513,10.034847745294778
1685000000.0,22.41,0.08138061766509364,0.11629891141463403,0.002917136207793956,-1.3964549728096496,0.2911619782477198,10.06927702356497
1690000000.0,22.41,0.018686944493919735,0.01060603793597157,-0.0005110466551226755,-1.3834052480395527,0.25760971369199714,9.74525301521333
1695000000.0,22.41,-0.059099011479511895,-0.0760231487548484,-0.0034281828629166553,-1.1017601452231014,-0.1781514437071145,9.765070924313509
1700000000.0,22.41,-0.09374166996076316,-0.13954972491194512,-0.0029810151951766882,-0.6376480187723801,-0.533664792491048,9.931644462286444
1705000000.0,22.41,-0.07474847909591384,-0.14703029684095062,-0.004641892055223335,0.20552297734582986,-0.6509917324703174,9.859245471413255
1710000000.0,22.41,-0.024607896879164662,-0.05957147260790134,-0.0026828984979964878,0.8725028282320284,-0.6044918346383185,9.685412501779524
1715000000.0,22.41,0.01639502253214252,0.0563076431998847,0.0012137091923066223,0.730941201226412,-0.5591700000000001,9.707485999677258
1720000000.0,22.41,0.06276643547997081,0.12744689416040478,0.003321717883945435,0.012553893422538986,-0.22955199546382,9.820202700680426
1725000000.0,22.41,0.08245629154544011,0.1293261631572103,0.004844164975225223,-0.7028886108814861,0.16971387115743872,9.826676798963668
1730000000.0,22.41,0.046217870519175835,0.07486495196709991,0.0030235938087348055,-1.1558153089047531,0.15735159352381595,9.784297699190477
1735000000.0,22.41,-0.017587928097689092,-0.018865655405952135,0.000500382239151675,-1.2267399944956001,-0.0497373403055734,9.807155335902053
1740000000.0,22.41,-0.06720226394903825,-0.11231918295456216,-0.0016608663200031622,-0.7698862313966623,-0.2597696111378961,9.880239870379299
1745000000.0,22.41,-0.0804015480174216,-0.1491383845829154,-0.0031939525311496,0.00824324714063246,-0.7480150420898504,9.862875527160154
1750000000.0,22.41,-0.057525904464173314,-0.09480590844687786,-0.0026616234202760897,0.6817968695407687,-0.7995128585260286,9.878670475883105
1755000000.0,22.41,0.0034494009552873683,0.020075206447442,-4.2571235527644625e-05,0.7833273068930731,-0.5626040113315401,10.01944401133154
1760000000.0,22.41,0.0626358080388495,0.11275197564450733,0.0026403378025122654,0.30685461210314613,-0.3315757779172578,9.863757124891471
1765000000.0,22.41,0.0820304748437334,0.14538017082523133,0.0021931732967853616,-0.4207538826216388,0.07377174852811749,9.742900559924205
1770000000.0,22.41,0.06144520668231172,0.11065884173606834,0.0015543939630014742,-1.1077469877665698,0.12988419371924192,9.883967365619872
1775000000.0,22.41,0.012830597045870265,0.024657663508622335,0.0011711084446572946,-1.3258210517958104,0.06719825865928258,9.799208379409583
1780000000.0,22.41,-0.03158150013041897,-0.06873207569697869,-0.0009369002469814623,-1.0959719207485192,0.02943,9.710722869148729
1785000000.0,22.41,-0.0683931462409311,-0.1420668553084219,-0.0035027125642139146,-0.454003194165732,-0.2574167576608676,9.72171
1790000000.0,22.41,-0.08775825487623726,-0.1463515616019963,-0.004428939963189682,0.40770596426495964,-0.7777379821324799,9.729950469537204
1795000000.0,22.41,-0.03946869052121981,-0.05406459094442442,-0.0018844206417514596,0.7463443816113439,-0.8223710099683101,9.777529213791492
1800000000.0,22.41,0.03515804531892483,0.06668591589395872,0.0021293206595113046,0.6062573706688738,-0.40809421689514214,9.786455615408757
1805000000.0,22.41,0.07372634671839257,0.1436662048721264,0.004908036584577538,0.12154242906402435,-0.07347658446036584,9.859443662158537
1810000000.0,22.41,0.0751819266854117,0.14446838698344794,0.003044889966542056,-0.8175686696082867,0.02511402188494022,10.015224637486746
1815000000.0,22.41,0.029124938491086192,0.06507241176031905,0.0010646508437165,-1.415877617287776,0.13802708779617087,9.859834235932842
1820000000.0,22.41,-0.004424275561990421,-0.04959564458752812,0.0002980945630889824,-1.2454753375157535,0.1600987404328874,9.764481635351316
1825000000.0,22.41,-0.06460097137466285,-0.13332327220078097,-0.0021825457709664466,-0.5655436286767364,-0.20993697766856978,9.774193535448434
1830000000.0,22.41,-0.10400485282741921,-0.15059171720532416,-0.003896618230346584,0.1710887460065875,-0.838952195275522,9.790576306636664
1835000000.0,22.41,-0.05760515924967414,-0.07219189586535726,-0.0024912752379047786,0.6145966782133668,-0.8227625257969252,9.771151972287921
1840000000.0,22.41,0.037711755851997514,0.04994536601135137,-4.25743975406821e-05,0.6097891711224918,-0.31195674910726745,9.682862292780623
1845000000.0,22.41,0.060789395433122395,0.12301060058168187,0.002789392989089333,0.27732572553635726,-0.06631545665235455,9.775372025965721
1850000000.0,22.41,0.06583713832395977,0.13038981584153259,0.0045780025277971596,-0.5258189465904894,-0.018638748461787483,9.999332676593726
1855000000.0,22.41,0.025297751552949714,0.05851812160654625,0.00408824359844701,-1.13442897649839,0.06925910443609104,9.946064808093448
1860000000.0,22.41,-0.004348803580808061,-0.026035013804400053,0.0001703323723061407,-1.0975408490735086,0.040415538099655396,9.936744802589049
1865000000.0,22.41,-0.041735319471595256,-0.08404269245841113,-0.0015543823689536701,-0.6048830785337308,-0.39838565769165657,9.840508846422289
1870000000.0,22.41,-0.0626362973560474,-0.07868277953671185,0.0,-0.23524281929232818,-0.698668091032481,9.831190181160103
1875000000.0,22.41,-0.031162620401511142,-0.03489330126760738,0.00026616666344542184,-0.012262099384120994,-0.5395479605009796,9.920362099384121
1880000000.0,22.41,0.02186417975587915,0.011161836699843409,0.0010646508437165,0.05689781741627817,-0.101631198315812,9.794695706181857
1885000000.0,22.41,0.03287908733414113,0.033511376783035056,0.0010646508437165,-0.01648138582181386,-0.07151574211885742,9.659809009841592
1890000000.0,22.41,0.003470694020196596,0.030934842079592517,0.0012988780134705572,-0.19777062790750627,-0.2927312076416121,9.73642591777456
1895000000.0,22.41,-0.009081443734166788,0.011959098597927334,0.0023528823592899564,-0.41202,-0.4198672638379726,9.931840273616203
1900000000.0,22.41,0.001281155846169924,-0.0008516766175915647,0.0027680841832299517,-0.3943616678530167,-0.23347740951647408,9.919871483326915
1905000000.0,22.41,0.015536674118878147,0.008314919073669588,0.0014692261958419042,-0.33864149601871496,-0.14705267704912678,9.819319685011697
1910000000.0,22.41,-0.0013414882471590333,0.004003014699035314,0.002619028996652869,-0.41810253389512536,-0.2891982806075828,9.867879185497292
1915000000.0,22.41,-0.008176534627089532,-0.017870912661821503,0.0,-0.43546467251294674,-0.19826058355550583,9.906432262803422
1920000000.0,22.41,-0.0122222038279959,-0.041295030253494895,-0.0005110445471139998,-0.11654160660171606,-0.34649020692980204,9.868466891419768
1925000000.0,22.41,-0.012828989913866742,0.0024009237045849036,-0.002714847477726966,0.07357313045923132,-0.5483784765285848,9.726615373908153
1930000000.0,22.41,0.004750944960438833,0.05026263697399933,0.0005962207463083534,-0.37905937468629375,-0.3396196883083969,9.81961406241554
1935000000.0,22.41,0.038259646334868995,0.03156058892610055,0.00356655993146627,-0.5639758852035588,0.21160128656441288,9.853163248298932
1940000000.0,22.41,0.01576985148302504,-0.015120177338287442,-0.0009368886529336582,-0.314704197085242,0.03295888688358886,9.680115524635656
1945000000.0,22.41,-0.04153014651911159,-0.022979998761094318,-0.00023423138577144048,-0.20355844448228444,-0.6047870666893707,9.697382408937324
1950000000.0,22.41,-0.04325423157052925,-0.010007693267233778,-0.0020228324924444012,-0.42771622725846226,-0.671001500156915,9.981675189382052
1955000000.0,22.41,0.019841326183347753,-0.00454607146614054,-0.0009688281466250228,-0.4462554190323542,-0.06974830255588302,10.006395364582353
1960000000.0,22.41,0.03327555512932961,-0.006515617714877765,-0.00017035239838871123,-0.09260613350546135,0.0769084203262842,9.809215161929352
1965000000.0,22.41,-0.014118566546330587,0.0042586033748661,-0.0019802422848385318,-0.05140562136855621,-0.39446021450330215,9.809117596180977
1970000000.0,22.41,-0.029656136015982455,0.0022132936004329194,0.0,-0.3421727234702272,-0.39946174593431744,9.923599532145795
1975000000.0,22.41,0.005695827890760297,-0.031212703992537918,0.0,-0.287920699573607,-0.05738915215409152,9.851201386207913
1980000000.0,22.41,-0.008390238673469552,-0.05454264301294797,0.0,0.3920075615408756,-0.24054362292483625,9.70287487691825
1985000000.0,22.41,-0.02983766167253861,0.018873705580127846,0.0,0.36257497817544976,-0.8312009529938096,9.725242062674921
1990000000.0,22.41,0.00598472493546749,0.07828300455234635,6.389163543488108e-05,-0.2988154216954542,-0.722207600249876,9.838448806733188
1995000000.0,22.41,0.09029188985765021,0.10282273356221511,0.0031620003894060845,-0.9997367512456676,0.4217318612495186,9.791263248754333
2000000000.0,22.41,0.06497827477903041,0.05326720410362859,-4.216017383277513e-09,-0.9123298057619981,0.41201673680156736,9.878669805761998
2005000000.0,22.41,-0.018339904820006123,-0.007899605473432707,-0.0010540085618367617,-0.8637703052764031,-0.4037828713564287,9.830110305276403
2010000000.0,22.41,-0.07345310010041115,-0.065936328858675,0.003108797412042159,-0.9305768732928686,-0.48893071233470714,10.041124458920445
2015000000.0,22.41,-0.05906973215455934,-0.13013741879453347,9.580583302194745e-05,-0.3990686082183861,-0.043260260469002665,9.988345565166256
2020000000.0,22.41,-0.04222084266849728,-0.13413065592722168,-0.004088276272581684,0.7098561513848616,-0.6698294680531947,9.600456791320868
2025000000.0,22.41,-0.039515991056968354,-0.02998955264916868,-0.00021291309387290284,1.2213469666597696,-0.7803858539987586,9.658926314665564
2030000000.0,22.41,0.02767527466773889,0.09565433064462478,0.002001552144702308,0.4620476484232765,-0.904678712594087,10.022486137782261
2035000000.0,22.41,0.09931825293162913,0.1597933407266825,0.005099690410795284,-0.30872382266723836,0.34669085478580863,9.753493135122131
2040000000.0,22.41,0.10734264889106736,0.1395564194810233,0.0014053219123548715,-1.0398629718414296,0.4233995207508952,9.99325194911202
2045000000.0,22.41,0.005808177358715569,0.050168402955195965,9.581426505671058e-05,-1.5272227066402273,0.02010871252478713,9.855321485009915
2050000000.0,22.41,-0.042617622673596006,-0.06775766514592675,0.0,-1.34887400453024,-0.0107909601812096,9.874746159275162
2055000000.0,22.41,-0.07437384111302801,-0.16712178328400937,-0.004737717914327909,-0.5996819869795199,-0.24554537772955376,9.896131879831819
2060000000.0,22.41,-0.08995153357345725,-0.17040623397603424,-0.00251256296367725,0.543086481589465,-1.13796400130284,9.622039119583091
2065000000.0,22.41,-0.04156443186362274,-0.055379459517006846,-0.002129301687433,0.9256727230841273,-0.6923871527302715,9.789203762643538
2070000000.0,22.41,0.04103828473014016,0.0834904998062603,0.0015331146692637268,0.5058014288076143,-0.5997833597927336,10.157275608290657
2075000000.0,22.41,0.1030697870318047,0.15674566034411053,0.00484417446126435,-0.0019640958280409127,0.2854752722648528,9.636850718997408
2080000000.0,22.41,0.08680278030808085,0.13485724897648466,0.002640320938442716,-0.9107644805519448,0.19423678795486787,9.807254533249646
2085000000.0,22.41,0.007759189908642106,0.03959898220148127,0.0003619724964673658,-1.264706171966962,-0.1459742579504426,9.850907659501377
2090000000.0,22.41,-0.03453042870326494,-0.05381202154179658,-0.0026190542927571683,-1.087535503914955,-0.13361183463831833,9.913593924765939
2095000000.0,22.41,-0.053423896588416724,-0.10741211553561997,-0.004056324130838174,-0.5789838398140383,-0.3561042207858422,9.895935437228554
2100000000.0,22.41,-0.0564614013020165,-0.08884758917126839,-0.002555153171283115,-0.007845593391155925,-0.5218925710597258,9.69227898025049
2105000000.0,22.41,-0.03289741221913999,-0.04331328271692408,-0.00044714447964433815,0.21640917241939173,-0.6733590541935905,9.79047887685489
2110000000.0,22.41,0.0107629476666062,0.018492388406260087,0.0016608642119944187,0.24525,-0.3084242688206427,9.87553104590531
2115000000.0,22.41,0.04919661995058425,0.05434949436666531,0.0029490872955331648,0.026191508641215056,-0.04512517837325178,9.79783510702395
2120000000.0,22.41,0.02838377960284801,0.05424689179525867,0.0007665352005406254,-0.13616333531993335,-0.15656846474758465,9.711114870572349
2125000000.0,22.41,0.007190689252004825,0.04101081131204337,0.0,-0.5125744399520444,-0.27222787148017874,9.846788366787083
2130000000.0,22.41,-0.00547235472734665,-0.0005492961790935641,0.0,-0.6350994413726945,-0.25074335176383356,9.96362497235425
2135000000.0,22.41,-0.0007452105846160644,-0.020070798877727936,0.0,-0.46577780472447805,-0.12085853648298538,9.814707804724478
2140000000.0,22.41,-0.011681220892195563,-0.020075461654723716,0.0,-0.2962613764960138,-0.3186302132757022,9.786456207834663
2145000000.0,22.41,-0.020075493274854105,-0.016145150084733016,0.0,-0.24112971667189717,-0.4747062749764628,9.904667124960772
2150000000.0,22.41,-0.0019214895944612426,-0.0022356897240870515,0.000745260122820237,-0.2697752088058521,-0.2874317054037171,9.95420704176117
2155000000.0,22.41,0.018153765907379715,0.0017247252813032998,0.0010646508437165,-0.18972481398394814,-0.10143481398394813,9.821771162834212
2160000000.0,22.41,0.0075006267461535485,0.008304322113976711,0.001788617970742494,-0.14715,-0.1922768391081684,9.694241580445915
2165000000.0,22.41,-0.009986488807804549,0.00029802921481954063,0.0007026604291752551,-0.2391683887353839,-0.39966032515560324,9.814023067208131
2170000000.0,22.41,-0.0008516291873960219,-0.004620580087350883,0.0,-0.28449,-0.34138715700707156,9.86905607355106
2175000000.0,22.41,0.009848043228972477,0.010285321640462176,0.0006920276333346293,-0.2526072887661729,-0.21091457753234577,9.814414204272643
2180000000.0,22.41,0.0117111592808819,0.026293091260951515,0.0003832697082789922,-0.40495794328487944,-0.17030155765611557,9.79038
2185000000.0,22.41,0.00030867044269495755,0.004051946608887431,0.0006707346375403862,-0.48794931511799317,-0.18531102732301027,9.833642397087024
2190000000.0,22.41,-0.005067728783012608,-0.027564095749364175,-0.0002555254355700294,-0.395538604466286,-0.1718710298475103,9.852967757461878
2195000000.0,22.41,-0.017258082794080407,-0.03922855774783735,0.00023423243977578633,-0.16980986357799865,-0.28861113797531135,9.843255857364758
2200000000.0,22.41,-0.024291483254018798,-0.03280864362755994,-0.00021293944398154325,0.005886470055964703,-0.4316404273236043,9.85708812819708
2205000000.0,22.41,-0.009610204124555396,-0.011984361561565775,-0.0016927994896684,0.02011028585260286,-0.5345473711242738,9.86307205717052
2210000000.0,22.41,0.017300183131568097,0.0267431917908169,0.00034070690478611417,-0.017069528779795288,-0.4251642409818424,9.864739842926598
2215000000.0,22.41,0.04076102707270253,0.0778391303198906,0.004556724288063742,-0.3257923802570239,-0.1853099104544991,9.885635229071152
2220000000.0,22.41,0.04841263624374016,0.08508676899906722,0.005791695910038665,-0.8130548698001487,0.08750657986676581,9.821378996308288
2225000000.0,22.41,0.02450248960219386,0.020287289556089452,0.0023954409467655206,-1.0364266296538664,0.17167456782044568,9.70159902460249
2230000000.0,22.41,-0.026315984097112652,-0.06608759861205528,0.0,-0.7530131743558318,-0.02079841282208414,9.684824659890447
2235000000.0,22.41,-0.07302613714306028,-0.11800375316313493,-0.003949887609984302,-0.1519539913830399,-0.4799079783803798,9.779491464358514
2240000000.0,22.41,-0.0800197657511772,-0.11661858898022126,-0.003577193781311251,0.4630346105587461,-0.8004962175465623,9.83943
2245000000.0,22.41,-0.018692375536411038,-0.04628423835639431,0.0,0.7605694308192943,-0.7589991331163913,9.854439430819294
2250000000.0,22.41,0.04474163877113748,0.07882842213367736,0.002661650824389131,0.6131235577828356,-0.5444536451899364,9.839429737778698
2255000000.0,22.41,0.08573535805497019,0.18306492731918517,0.007931672553486221,-0.2024843568910436,-0.14243892236518926,9.959015257820752
2260000000.0,22.41,0.10018107222398333,0.17184608064739576,0.007580285422663877,-1.405581672654517,0.32490913150269135,9.96342699527077
2265000000.0,22.41,0.04817090832981352,0.038325939182269994,0.0022570406901202865,-1.801212472188425,0.4986418160560182,9.652646192162962
2270000000.0,22.41,-0.042610598045648866,-0.12007509570451172,-0.00097948834657864,-1.1846514553495147,0.1526407781103078,9.662263119589031
2275000000.0,22.41,-0.1308153525927735,-0.21661738316133317,-0.0035665947136096854,-0.24083103689631047,-1.0074952191810522,9.935078162837181
2280000000.0,22.41,-0.11019320941544172,-0.19447108082681003,-0.0029809983311072275,0.8177668700654688,-1.2470393613311936,9.925364669988447
2285000000.0,22.41,0.014630757435482686,-0.03069192193124197,0.002289023397989863,1.3618230460320304,-0.5573090736866908,9.966078742185188
2290000000.0,22.41,0.08918500575094704,0.16022320119381633,0.0066647287636852435,0.8208965298717653,-0.4952040850667408,9.896913619806336
2295000000.0,22.41,0.1086753013161228,0.23392630027399483,0.007644183382124834,-0.5377932046795322,0.1762864578195646,9.845515855364958
2300000000.0,22.41,0.09011796187910895,0.16426611261827,0.004684444318672757,-1.9855471719065716,0.4198696529653966,10.1553101236609
2305000000.0,22.41,0.013290351685344315,-0.009908013467156931,-0.0003620104406238541,-2.05911497053265,0.5458273254753733,9.778017877756778
2310000000.0,22.41,-0.06934658281393045,-0.1632865399859012,-0.005876892135315567,-1.1291262887572628,0.029425513102155132,9.682667501200376
2315000000.0,22.41,-0.1439107463556211,-0.2380252694206649,-0.007335429673086585,-0.06944958393269579,-0.9889511811690119,9.87356897986439
2320000000.0,22.41,-0.09693193779639238,-0.16093572397621297,-0.0053232542185827,0.9405865402469654,-1.076345404063554,9.767619132660991
2325000000.0,22.41,0.039894966475082366,0.04783412131902581,-0.0008516618615307635,1.1904399323334993,-0.2339717063838171,9.514718729037988
2330000000.0,22.41,0.08909439748981449,0.18959803685821724,0.007814542104539596,0.26309845230328455,-0.31313013116510136,9.519820788346907
2335000000.0,22.41,0.1087860204639789,0.2208888765773797,0.007814527348478787,-0.9735502053854022,0.4184946907091469,9.739958504892085
2340000000.0,22.41,0.061274005309340636,0.08083293438910936,0.0036623594404621884,-1.711254900094149,0.4347792454516925,9.871604709222147
2345000000.0,22.41,-0.01910593059087264,-0.0928626919696858,-0.0034494885067630496,-1.2143757550581575,0.201199501643895,9.598202601036926
2350000000.0,22.41,-0.11110616765996899,-0.17758210952525508,-0.0063879050622992,-0.4218272612441726,-0.777939892535499,9.73740700421047
2355000000.0,22.41,-0.12102661245179198,-0.15559744152176494,-0.006079151353260946,0.23201038815920388,-1.405177813000878,9.973828372291484
2360000000.0,22.41,-0.015511175939483014,-0.02326171468412716,-0.0035346109517358504,0.7800904665573047,-0.4736279918443799,10.19926107504101
2365000000.0,22.41,0.08544811871719632,0.12370970550862348,0.002214493696692597,0.43399035751870363,-0.3526642172119422,9.99265788189498
2370000000.0,22.41,0.09917127848786078,0.19686022337190143,0.004769625787888896,-0.5456385067136852,0.5065890444816905,9.469988116029981
2375000000.0,22.41,0.0625870411238745,0.09241425711226212,0.002395449378800272,-1.466593616054236,0.5321910699227107,9.886027269342373
2380000000.0,22.41,-0.030376774925580826,-0.08326531887934621,-0.001788648536868571,-1.0104253771355538,0.06866537713555376,9.84924
2385000000.0,22.41,-0.10051042190364678,-0.16367350016080634,-0.006228182297738032,-0.17010345431793455,-0.9025246325763464,9.883085194886451
2390000000.0,22.41,-0.10531875961239676,-0.10648990073118882,-0.0011923887923993878,0.16225772496017726,-1.4658060683634608,9.968332796502528
2395000000.0,22.41,0.027979812722247876,0.03227790326408955,0.0025764651391555838,0.1560757509199575,-0.6096875457998755,9.920363663000037
2400000000.0,22.41,0.1060951910152491,0.1470127001174459,0.004471538602830279,-0.21778554290115548,0.17462098349570984,10.07094497442335
2405000000.0,22.41,0.10566207982592514,0.14321916949057126,0.005525542948649738,-0.965209683853397,0.620971598572816,9.844235545287054
2410000000.0,22.41,0.005096657953898567,0.003809194686541846,0.004471482740599978,-1.4746356423367564,0.3331462892819629,9.631458468113584
2415000000.0,22.41,-0.07713554723950128,-0.15812269480143848,-0.004439599109138912,-0.6965053091522531,-0.28734601730916015,9.76526790107128
2420000000.0,22.41,-0.13367382934637792,-0.20632659082362595,-0.005493603454958374,0.3327616397667164,-1.9690557731157579,10.061921881128718
2425000000.0,22.41,-0.06300983378344051,-0.057840841671133285,-0.005269985892949304,1.386641097761511,-0.7377142609303428,10.276466300746163
2430000000.0,22.41,0.10443580009398494,0.15939078116650782,0.0024061570089494323,0.7581098144244982,-0.8948598456292985,10.265767360818375
2435000000.0,22.41,0.13784245453008642,0.2744405559701397,0.010369688951796768,-0.7251639026394391,0.6264676405329764,9.437714520241045
2440000000.0,22.41,0.12259608792107526,0.19516135307638238,0.007367337546647576,-2.2590453307837537,0.8012802786652029,10.080752682414927
2445000000.0,22.41,-0.020598511587796756,-0.07295458192842072,-0.0016502345781668523,-1.858694858583449,0.5908512184425121,9.51315101470051
2450000000.0,22.41,-0.11739819882821162,-0.23159294336248978,-0.006707315809278043,-0.7004299074052991,-0.5425026604270266,9.822753618648036
2455000000.0,22.41,-0.17232467158860024,-0.21480213701486411,-0.009006915086873844,0.13655939631779396,-2.1228725554969254,9.926051680089417
2460000000.0,22.41,-0.02113401169666276,-0.0898585039706035,-0.0028532435183547863,0.9229248477825485,-0.012558759084487586,9.847672693562327
2465000000.0,22.41,0.07853717747571679,0.07228750933394665,0.0013627738649228335,0.9017330932946309,-0.35168634541496346,10.214952203551924
2470000000.0,22.41,0.07277065915496451,0.16727392884588585,0.0053232542185827,0.41672198729631993,0.04061191271961913,9.380914006351839
2475000000.0,22.41,0.0440406978550192,0.13000829097697242,0.005057065421046006,-0.9054642499215425,-0.2295524616350246,10.035139451926094
2480000000.0,22.41,0.030082395572302034,0.04832585807889151,-4.259126161021526e-05,-1.1481624481710246,0.061605932921559324,10.023072862802827
2485000000.0,22.41,0.009815420895973898,0.005460983229968416,-0.0010646508437165,-1.1569913034637131,-0.10614391039113912,9.951263034637131
2490000000.0,22.41,-0.01749913037412003,-0.025761718684939955,-0.0011285456411644185,-1.1303063137547633,-0.04806875817368759,9.76173499346105
2495000000.0,22.41,-0.03962274448755514,-0.08797188083990189,-0.0042586033748661,-0.7470273806975738,-0.003238899258588993,9.79950296076333
2500000000.0,22.41,-0.06072009962366762,-0.1491382053157828,-0.004258592834822642,0.0784833506055335,-0.3237337390815374,9.731520388476003
2505000000.0,22.41,-0.07970945660818471,-0.11328477879815507,-0.0021505841431837857,0.7486044573067446,-1.0715500465597005,9.809215589252956
2510000000.0,22.41,-0.003684352606159652,-0.0033012579662746455,-4.257545154502792e-05,1.0630131601196315,-0.5407244697906447,9.733089209970093
2515000000.0,22.41,0.05263853873636578,0.11053646324397509,0.00309814986014069,0.4317348269925483,-0.4631297580439976,9.826677488508576
2520000000.0,22.41,0.11057946682862968,0.17125689078394563,0.004216022653299342,-0.454403703213837,0.21700072425430728,9.716608212624282
2525000000.0,22.41,0.06737557808235997,0.11899277014096879,0.006281450623371438,-1.366537610238976,0.18933270572942706,9.833054137586242
2530000000.0,22.41,0.010903830863751185,-0.012064747950322516,0.00038324230416601334,-1.4403043474266435,0.167947101715571,9.793322754288928
2535000000.0,22.41,-0.05990879012845019,-0.10049509517720646,-0.003960522513833606,-0.9129157441186575,-0.24378071577000718,9.863366793914668
2540000000.0,22.41,-0.08360486364930791,-0.12416561189183714,-0.0013201509831822378,-0.4579285305231853,-0.6447152227945523,9.932036745355168
2545000000.0,22.41,-0.060018766341472504,-0.11213488587133315,-9.581321105236475e-05,0.14058041431500418,-0.5519099079299992,9.88396710339857
2550000000.0,22.41,-0.019166990652271752,-0.08490663222649997,0.0,0.8495496652710967,-0.33648186079411857,9.905157148592071
2555000000.0,22.41,0.0030982362884970707,0.00045250911986194353,-0.0009475446368698921,1.131682791067428,-0.6806198843679989,9.846983352605333
2560000000.0,22.41,0.023139677844950808,0.12408797818229894,0.0026829417121746702,0.5619133689799337,-0.8985969944985699,9.796265751375358
2565000000.0,22.41,0.09321581224650669,0.20812951733533203,0.007825210736528018,-0.7909877234850771,-0.04306076832910766,9.986679245907093
2570000000.0,22.41,0.12348181478837261,0.16524047786441387,0.004854786177018018,-1.740298492724985,0.8475884927249849,9.864150301455004
2575000000.0,22.41,0.04255760339829144,-0.0018658347610862047,0.0006387687937403912,-1.7971915998697159,0.687679299446293,9.480872349299723
2580000000.0,22.41,-0.09489569323687742,-0.16136486685645368,-0.005365872884305874,-1.0190581394533815,-0.07102870975278708,9.697775303855753
2585000000.0,22.41,-0.16952763713711874,-0.23681653207053,-0.008155236361273608,-0.1321361308423613,-1.9321882446309826,10.0279799071578
2590000000.0,22.41,-0.04813326150626204,-0.1431920958856968,-0.0032790918401918055,0.9205760344559603,-0.4114196783192967,9.89161799261658
2595000000.0,22.41,0.05761240946910892,0.038386033309161946,0.003907306888417601,0.9435246910952468,-0.3814152194285522,10.16708601619046
2600000000.0,22.41,0.06966303339834347,0.13784301403360646,0.0044715280627868215,0.6670784849435848,-0.08632552540785526,9.543163505332636
2605000000.0,22.41,0.06228500297760752,0.1533969879577816,0.0042586033748661,-0.5465226392509264,-0.28468812276198124,9.942046344325965
2610000000.0,22.41,0.040775995178483876,0.1027133378809634,0.0042586033748661,-1.228410684109807,-0.0875033749397337,10.010319642342697
2615000000.0,22.41,0.04336223688181866,0.04330323523907053,0.0026190300506571556,-1.4550200126918003,0.2847862809362628,9.7448599746164
2620000000.0,22.41,-0.00924643207981573,-0.051139397875574616,-0.0011072589693962485,-1.3345513313025135,0.20130002952180032,9.67266
2625000000.0,22.41,-0.07377103081794334,-0.1406128940501753,-0.003726289020053456,-0.6008577581647776,-0.22808510036125101,9.746235509874754
2630000000.0,22.41,-0.10682858398218846,-0.17216912342423524,-0.005834297711692311,0.1716788313445884,-1.1516996193053963,9.83609505976135
2635000000.0,22.41,-0.04604532195586314,-0.09489227525629272,-0.0025019017097193167,0.8212964756296648,-0.5585751558309516,9.808920541728005
2640000000.0,22.41,0.030086358784151186,0.036256808581324906,0.002001565846758875,0.8001022154715222,-0.482653794759138,9.966961281970812
2645000000.0,22.41,0.06670346508359543,0.13311127555504743,0.006973490904758264,0.28713546331505463,-0.15391576606695767,9.722198188082182
2650000000.0,22.41,0.07498633715513044,0.14317623930608822,0.0062814232192584816,-0.5993963017262629,0.03335410294614103,9.841393853030539
2655000000.0,22.41,0.04475925711037074,0.08302961047063231,0.003119410181800178,-1.1326643533864436,0.025702096859620965,9.913495242149052
2660000000.0,22.41,0.014229191265764572,0.023092525457288453,0.002853269868463408,-1.2627434066692342,-0.05375936834039367,9.771543818321138
2665000000.0,22.41,-0.02500994279364773,-0.042141356986929765,0.0003406657986166602,-1.2292907376490074,-0.08171724823557247,9.79077302117313
2670000000.0,22.41,-0.04821513165667754,-0.11244285965171305,-0.0017673260289525967,-0.695132502937825,-0.026682785107627845,9.82962
2675000000.0,22.41,-0.07228297459256072,-0.1557332691438684,-0.003513359062111015,0.12949657236256573,-0.7460565791638659,9.810490344124004
2680000000.0,22.41,-0.0796882147402406,-0.11504679347458527,-0.0042586033748661,1.1473835343594354,-0.8903534657128347,9.988543561673536
2685000000.0,22.41,0.004112861234965612,0.019753135047919063,-0.00023418922559764483,1.3645694354128943,-0.9618723253516233,10.106850704305808
2690000000.0,22.41,0.07333647325819677,0.17845760278789877,0.0047696584620235665,0.4345759462469594,-0.4016154957474549,9.828244144248941
2695000000.0,22.41,0.12332860507951826,0.23820620718469868,0.007686790453800239,-1.0321185278897853,0.47441557838275583,9.868469484497096
2700000000.0,22.41,0.08820841648651843,0.13315721027395142,0.004045633364758548,-2.018901303988413,0.5709402693394028,9.847276584004966
2705000000.0,22.41,-0.009450266844191785,-0.04211347874477038,-0.0008197982561522377,-1.7914978916068791,0.18099213563792138,9.63714685425517
2710000000.0,22.41,-0.09949399841107405,-0.1508875360175216,-0.0027468048894921824,-1.0463307573896075,-0.36984042150240426,9.854932484563426
2715000000.0,22.41,-0.12314333623883993,-0.19383869599916217,-0.005014522643635665,-0.23671050105880498,-0.9955221750795218,9.95322494528765
2720000000.0,22.41,-0.0519424962449691,-0.16251555965162276,-0.0028106438247098007,0.9437296607467967,-0.6172389657370896,9.758986943345269
2725000000.0,22.41,0.01672481295841019,-0.038774233718885776,-0.0011711274167355195,1.5749955529298556,-0.3884787523524876,9.904668775983788
2730000000.0,22.41,0.0301470433953794,0.11289706248744369,0.0030449532068028517,1.1344239457341394,-0.7716561377822614,9.94086386221774
2735000000.0,22.41,0.07907476109199311,0.22237876680488164,0.006888285193442183,-0.3468928623078288,-0.3825846875906469,9.872392237489123
2740000000.0,22.41,0.12297308924088576,0.2056404092340348,0.006941529276975595,-1.7681590302454904,0.5171877770242778,9.861403708124238
2745000000.0,22.41,0.07417424417183009,0.0593658261310062,0.0031087341717814096,-1.9927033272217334,0.7870548604050486,9.655098553768386
2750000000.0,22.41,-0.0346192959392846,-0.10013899673335219,-0.002129313281480854,-1.4028255131021552,0.15204949820859504,9.623611175139912
2755000000.0,22.41,-0.1355871940360274,-0.1886525279875444,-0.00423732197311971,-0.668744114657841,-1.0069056777094567,9.83246602376396
2760000000.0,22.41,-0.13839861125802438,-0.19251728639656096,-0.0037901395493188774,0.45283855281798563,-1.1034221523986214,9.975200828877508
2765000000.0,22.41,-0.022463938673825165,-0.11098895852355048,-0.0016289099622422126,1.4015558278429583,-0.2587853294868533,10.029842261120422
2770000000.0,22.41,0.04136961953195578,0.01628321506432376,-8.516038912916826e-05,1.4159742701175428,-0.25427799780418,9.725041579921214
2775000000.0,22.41,0.024974039206890404,0.127781323138847,0.0020228483025096335,0.6690342382494424,-0.6268601858230018,9.59614501845855
2780000000.0,22.41,0.05931284679262987,0.1810953631869316,0.00413085699414849,-0.6215680257815803,-0.3613955941633559,9.941454539981645
2785000000.0,22.41,0.09697515447999111,0.14673741813067886,0.004865448484980356,-1.4819993506688935,0.42281478666984795,9.949988104951881
2790000000.0,22.41,0.06051201222821644,0.043928485943270625,0.0024699664320453393,-1.6529836451899365,0.6452995781114959,9.690707798764677
2795000000.0,22.41,-0.047196682886114866,-0.08275944334233168,-0.0026190764268484304,-1.273432896918229,0.06209257681162578,9.562397554422775
2800000000.0,22.41,-0.11930742378620225,-0.164902387361268,-0.0063879050622992,-0.6690383560950834,-0.8024630035709301,9.884557577212576
2805000000.0,22.41,-0.11384568531892311,-0.16582502492511444,-0.005142245836257716,0.2533017187588173,-1.0034600509454006,10.05525
2810000000.0,22.41,-0.02699262810505105,-0.08751429812325195,-0.0023848060429161747,1.0791000000000002,-0.35904436257364364,9.991876472125064
2815000000.0,22.41,0.03144995093657911,0.0195816372578242,-0.000670724097496928,1.0355429438640296,-0.23102632016996322,9.732400548846105
2820000000.0,22.41,0.020234797927986388,0.09109675214651428,0.0007665604966449008,0.6505943797897438,-0.4579328814544288,9.639701083980711
2825000000.0,22.41,0.04585691783238867,0.13778863361243687,0.002501935437858364,-0.24182193235131927,-0.5351329210049292,9.950773554872235
2830000000.0,22.41,0.07409815632381331,0.14689659410888714,0.0035559397836778073,-1.1465973074870732,0.048073672395136685,9.930466360245164
2835000000.0,22.41,0.07234084304240704,0.08924242130722113,0.0028532403563417234,-1.716358260797683,0.5757485145346851,9.804210833471108
2840000000.0,22.41,-0.013845946957262458,-0.052068861223400854,-0.0010220827702019247,-1.5252540559310406,0.3225491592028915,9.668736275817963
2845000000.0,22.41,-0.10412247843378444,-0.16763188031577395,-0.004844191325333876,-0.6869894923180949,-0.5647698233245982,9.790283502560635
2850000000.0,22.41,-0.13550546149365472,-0.1947296107622435,-0.0075590029669131064,0.38750413404204137,-1.2595983535012836,10.03661194108312
2855000000.0,22.41,-0.06236305704481331,-0.12021205548279135,-0.004396989929454843,1.5006353118153533,-0.4852011581713116,10.116365579085656
2860000000.0,22.41,0.05641366900461886,0.021258208467203936,-0.0006387603617055817,1.372221188990012,-0.3343254110727541,9.822552689146926
2865000000.0,22.41,0.03782228519267753,0.14609066257581108,0.004056337832894696,0.772725408271054,-0.435858800842688,9.477346628495566
2870000000.0,22.41,0.07892174277996068,0.20431754591753795,0.005557459254245469,-0.6488411487366115,-0.275852294325023,9.962251311492613
2875000000.0,22.41,0.08575676491779133,0.1624502892229947,0.0034601213026037134,-1.802590794762108,0.46352478958044796,9.935076550661766
2880000000.0,22.41,0.05871847886501017,0.04171794578232159,0.002980992007081116,-2.1001215554484154,0.6827740420809405,9.711112850497129
2885000000.0,22.41,-0.05646061359791621,-0.12404115435025358,-0.0015544023950362638,-1.4352953281206535,0.20070710830897104,9.510797801883179
2890000000.0,22.41,-0.14669374069167215,-0.23560181734079866,-0.0031939525311496,-0.42202008130870083,-0.7920659677695597,9.925170354291303
2895000000.0,22.41,-0.13416005487302818,-0.20987328353343904,-0.0027467869714183244,0.6819004663791046,-1.2794090660834907,9.941941407245414
2900000000.0,22.41,0.029831381638186067,0.0017042243438568465,3.056612604863951e-08,1.5499757753234578,0.0627784797559848,9.531396450632165
2905000000.0,22.41,0.06512049422906208,0.13285303605828688,0.004663182943008887,0.8103995294826953,-0.5516116166304161,9.59418
2910000000.0,22.41,0.08899330976455551,0.21826571318820467,0.0061962617761249375,-0.13165975243069752,0.08848557824415579,9.712492387058324
2915000000.0,22.41,0.08382650338080137,0.1615814683435016,0.005142257430305542,-1.556162508194725,0.08005231777812317,10.191410761666408
2920000000.0,22.41,0.03848424512308769,0.05897961991478341,0.0035772022133460056,-1.8564437761075379,0.45047446267254465,9.84335201488762
2925000000.0,22.41,-0.014381195608337583,-0.053420911561715564,-0.0006388151699316071,-1.6745634774938347,0.2697721592692216,9.582899579477695
2930000000.0,22.41,-0.10094132739017142,-0.17222772850216794,-0.0047057752586234436,-0.9900182567683826,-0.3339401399959014,9.766052224411222
2935000000.0,22.41,-0.12820874645419442,-0.22142242586243166,-0.0071757343126383905,0.2892099737352997,-1.3818321533094216,9.962547495309874
2940000000.0,22.41,-0.08372254506606716,-0.14756438378917033,-0.004812197023416542,1.9773043423776433,-0.7125982286820823,10.24360114341041
2945000000.0,22.41,0.05161720892267822,0.04204125007319018,-1.0590635666760106e-05,1.9492395635980955,-0.6823833711876338,10.029935738158857
2950000000.0,22.41,0.057212496392895204,0.226153237421923,0.00873014935572689,0.5993784512538846,-0.5228657228732573,9.398963922310738
2955000000.0,22.41,0.14598360220533588,0.28080607327170465,0.010263209216764707,-1.4374660154875605,0.6125373183572732,9.836878596437385
2960000000.0,22.41,0.09352240092694608,0.10848282011377242,0.005791656911877853,-2.4199262579385628,0.7435971375832714,9.68992399015544
2965000000.0,22.41,-0.027831745690663087,-0.09776094891446503,-0.0015118416995520683,-1.6471920895336207,0.5141342099552421,9.473618152353081
2970000000.0,22.41,-0.14422088898320579,-0.2077929728837738,-0.007260899971789282,-0.8122639617919396,-0.8022683188215832,9.964213892264238
2975000000.0,22.41,-0.1593170824007679,-0.20495792554093645,-0.004045648120819364,-0.11673310584783106,-1.7471495584104955,10.0660399598555
2980000000.0,22.41,-0.0060880482903378184,-0.12641894687546515,4.2592315614561085e-05,0.8558276414437765,0.07651481643914818,9.905746699775566
2985000000.0,22.41,0.05127584551141473,0.012970209079216697,0.0012243799323037037,1.3708469648381696,-0.4467484436407844,10.070845174937952
2990000000.0,22.41,0.02190720029099701,0.12365552180613387,0.006345306422658562,0.9419475465027755,-0.6199925807716259,9.634207936166778
2995000000.0,22.41,0.05171374874013637,0.17997744823359912,0.0042799090187124935,-0.49992318473103187,-0.7024860137748602,10.150208938422988
3000000000.0,22.41,0.10866409794107713,0.17470697718763292,0.006387886090220975,-1.4322635545554356,0.6474597669143977,9.83942895111479
3005000000.0,22.41,0.09178274964819891,0.09455081062605453,0.003225873052762741,-2.024689460479695,0.6086121665259216,9.664614749366647
3010000000.0,22.41,-0.0409633347230116,-0.0837329010907338,6.386001530450658e-05,-1.5595909351837092,0.3582596798933968,9.422503538359036
3015000000.0,22.41,-0.13668044774125163,-0.21238028681425852,-0.006196306044307455,-0.6269514194125142,-0.731636476154365,9.979029755202697
3020000000.0,22.41,-0.1569317369840867,-0.21215800961748085,-0.005365833886145111,0.29626757268827575,-1.5091750341302503,10.071731269279013
3025000000.0,22.41,0.005266685528882403,-0.051071682709784544,-0.0033004048620686706,1.5171239621384398,-0.021081922609719417,9.59025294463623
3030000000.0,22.41,0.0629114042053054,0.08155863212215612,0.003811494731369508,0.841693291670833,-0.37454856614338566,9.739957718228176
3035000000.0,22.41,0.07099391730777921,0.1776534454897119,0.0042586033748661,0.2928252576821526,-0.15587930831669305,9.65078305153643
3040000000.0,22.41,0.063530631637523,0.16272458452346386,0.0042586033748661,-0.9723752305759523,-0.13734,10.031316139079163
3045000000.0,22.41,0.05800511293097312,0.09106139322082242,0.002320926001529047,-1.516530798128108,0.300090798128108,9.779390907344908
3050000000.0,22.41,0.023973617470065815,0.0026663162795927536,0.00021291730989028094,-1.5686190592425906,0.21091411136114113,9.662849407574095
3055000000.0,22.41,-0.049919162409309964,-0.0917136178487318,-0.0037901827634970403,-1.2378235450910355,0.056504650564646514,9.67050191867942
3060000000.0,22.41,-0.10171878387272576,-0.17538305493605624,-0.005195502567843305,-0.45439408843274076,-0.3924029718414297,9.862582907610228
3065000000.0,22.41,-0.11037830647069047,-0.19461649351259808,-0.004397001523502618,0.5941983082681832,-1.0913669650460696,9.845806202330262
3070000000.0,22.41,-0.022835266236405846,-0.06316252671914771,-0.0024273909805002675,1.6553458997862591,-0.4867672506214725,9.721316765165067
3075000000.0,22.41,0.045810046017227504,0.11691812360698546,0.0033004565082815954,0.9628454674532547,-0.7730308669529087,9.827168395922785
3080000000.0,22.41,0.110873490688705,0.25315032206469334,0.007835856180420788,-0.2735106969402069,0.08751196025941965,9.63498804454208
3085000000.0,22.41,0.1170216758363077,0.202151884466811,0.0085172067497323,-1.7264710681308106,0.5009984377502844,10.017582715966027
3090000000.0,22.41,0.03750200121173758,0.01889018592296407,0.0006600248993825688,-1.9896642600195429,0.509138699902287,9.79861811925738
3095000000.0,22.41,-0.06949759537297155,-0.1337311435627258,-0.003651771966808378,-1.2524371091504714,-0.07181352839963528,9.771250800583308
3100000000.0,22.41,-0.1340136947755633,-0.1889705045283475,-0.006813785004266612,-0.42771100225620995,-0.8730951181713512,9.89829090320671
3105000000.0,22.41,-0.11120897631514332,-0.15309157048351557,-0.004929313770306553,0.3318769439392694,-0.8616109128493092,9.811470595336507
3110000000.0,22.41,0.0040911932209693885,-0.05775751835974263,-0.003428169160860199,0.7659669746886697,-0.10260698205426988,9.711703256327834
3115000000.0,22.41,0.02342903998203468,0.019226799541397457,-0.000734589382823185,1.0702728151541283,-0.3400181092979811,9.59408111343321
3120000000.0,22.41,0.03319207881452118,0.12016381748793156,0.0016182824364233159,0.5787854548307545,-0.6349045332496455,9.758597175658672
3125000000.0,22.41,0.05486020674690152,0.1789619617854472,0.004524785848376759,-0.5910606944157069,-0.35560976852809767,9.989033896085639
3130000000.0,22.41,0.0993503986645971,0.1612371183850061,0.003747557773747796,-1.5609725500915255,0.45165823646348235,9.914769705663097
3135000000.0,22.41,0.05459445022937671,0.043172941502636675,0.0031939525311496,-1.9787767441275674,0.567605503914955,9.725632782127729
3140000000.0,22.41,-0.05518248753043526,-0.11568493999107139,-0.00293848928183599,-1.3651536838989369,0.21620977739849778,9.623217173064871
3145000000.0,22.41,-0.14923699615822716,-0.23528690917943387,-0.007590980404760922,-0.4022038912148389,-1.5387128556451286,9.889561604601917
3150000000.0,22.41,-0.13859104760471452,-0.20410698454926327,-0.007026682288074373,1.3380969712137698,-1.0879190268497902,10.294616569768767
3155000000.0,22.41,0.019030441313651697,-0.016189606363836373,-0.003449442130571833,2.158299877180599,-0.8586715674373157,10.397913116153731
3160000000.0,22.41,0.06860387263864039,0.21074992680121774,0.006558329132983499,1.3125694069107938,-0.5909509013851091,9.721703862079139
3165000000.0,22.41,0.13958360913004836,0.33332187710699945,0.0106465084371654,-1.0395835896113357,0.646194597688746,9.769291881198019
3170000000.0,22.41,0.10829038584053347,0.18778079955930888,0.006430451001722547,-2.7197314193729145,0.9019288754886888,9.817846768531068
3175000000.0,22.41,0.005962274539229068,-0.07851623682839175,-0.000585604814537277,-2.16898199609742,0.7524268766588688,9.432311916471718
3180000000.0,22.41,-0.13549793073627636,-0.2524298287459248,-0.005919485504934462,-0.9017276643424766,-0.8554477507595777,9.806866173788562
3185000000.0,22.41,-0.21238597522387656,-0.28406321037416066,-0.008794029397113918,0.5550600695574008,-1.6941863813519638,9.97814203897432
3190000000.0,22.41,-0.02779936481105355,-0.11713788985439369,-0.004301135612232963,1.0724283325330835,-0.7029748719781488,9.87396095215231
3195000000.0,22.41,0.06757226707740402,0.08414426744469569,0.004780342904077197,1.1877965376531654,-0.02795756911437569,9.398269521453795
3200000000.0,22.41,0.08671879369966026,0.1879130174584306,0.0085172067497323,0.3472639928581398,0.08240455940544561,9.745260775021508
3205000000.0,22.41,0.058189595588082135,0.1457990209037874,0.004748302225968572,-0.9558936213804363,0.0077487171876871735,10.074574641694246
3210000000.0,22.41,0.011867425636896663,0.028011406813531523,0.0002767889192425894,-1.348481789444818,0.010988072905580723,9.795675093035252
3215000000.0,22.41,-0.018205082165128367,-0.045296599636111975,-0.00045779308555015134,-1.0824330269943303,-0.12704168566311685,9.671188812237588
3220000000.0,22.41,-0.04231524021348312,-0.0617846555205992,0.0005962112602692271,-0.7793047738394479,-0.42300888870518893,9.686786337455363
3225000000.0,22.41,-0.04090781798148466,-0.05064932561319481,-0.0006920434433998167,-0.5645643098066432,-0.4154520592396206,9.763403439626334
3230000000.0,22.41,-0.019043794840284022,-0.04614760720284662,-0.0004045468940080479,-0.3270635805726358,-0.1232113414005134,9.834917462738876
3235000000.0,22.41,-0.017182211673547408,-0.06079465980469705,-0.0011924362225950028,0.07416686747166865,-0.08034534522785344,9.860227451343974
3240000000.0,22.41,-0.03877995642684195,-0.0664264853895662,-0.0031939525311496,0.47716041385960417,-0.5893897717158978,9.873568737066886
3245000000.0,22.41,-0.032710580981167206,-0.021556215910786193,-0.00210799498958231,0.6278400000000001,-0.9413673478790735,9.858853673939537
3250000000.0,22.41,0.021302237131560407,0.0799019683248249,1.3702056495716944e-08,0.3237260861042609,-0.681791906759819,9.917910883782909
3255000000.0,22.41,0.08888686168421131,0.17248239385291303,0.004716451268642281,-0.45146239599802396,-0.03766508914455091,9.914475551632956
3260000000.0,22.41,0.1019269945521279,0.17129244895101634,0.006473049641363185,-1.4408995120883952,0.4767672664317727,9.797050230105702
3265000000.0,22.41,0.02501675065955363,0.04466015832586989,0.00225703225808552,-1.8847939682071395,0.5326823658129237,9.631260151113601
3270000000.0,22.41,-0.0762497497711915,-0.13151788375954698,-0.0019589851251920923,-1.2972676673223766,0.16480355389213552,9.649510559538106
3275000000.0,22.41,-0.14604955244948822,-0.2428253931525965,-0.005695902725068815,-0.19275867560768678,-1.031533395620834,9.851692818064729
3280000000.0,22.41,-0.10831896185084855,-0.19677218600015584,-0.007921009191519513,1.3859703065337032,-1.1642378668568787,9.706011451597414
3285000000.0,22.41,0.029674445661115278,0.011635357223551732,-0.003481332086059011,1.9389372479583726,-0.5088516549830165,9.73093510081665
3290000000.0,22.41,0.10682311278385939,0.23316316351176153,0.008112715717954548,0.6254778036750781,-0.4879396226416962,9.779192318411724
3295000000.0,22.41,0.13307323588161393,0.3082872117083676,0.013159056644781843,-1.130521296375313,0.45901111602701117,9.812262892146428
3300000000.0,22.41,0.09417371707222433,0.15467267568124177,0.006387835498012416,-2.59572497442335,0.6867019229562192,10.023851718343018
3305000000.0,22.41,-0.013716311230558068,-0.10019006509273438,-0.003321766368145404,-1.9850448335859485,0.6566779334343793,9.466159820978298
3310000000.0,22.41,-0.12936022976990164,-0.2608969408980603,-0.00892178104785334,-0.7149448276954482,-0.9563010453014107,9.634010978832809
3315000000.0,22.41,-0.18503202217843795,-0.2544968797099018,-0.008794001993000927,0.5873344228745443,-2.05890502838825,10.040538219494882
3320000000.0,22.41,-0.03987852767038466,-0.06476623167071184,-0.00361974288274763,1.6123732766624328,-0.632161494474315,10.48728491499365
3325000000.0,22.41,0.10407996566957985,0.15382588399366026,0.006175030966587102,1.3017780873892808,-0.6234160061320602,10.234273135300331
3330000000.0,22.41,0.11044759284594242,0.2837647547541076,0.011349170974349346,-0.3486623413698234,0.34727464681254644,9.619888215356681
3335000000.0,22.41,0.10974381237300149,0.21311034510151405,0.008538457585352712,-2.11945600616176,0.4379189182269892,10.063389125859691
3340000000.0,22.41,0.012611305376877865,-0.0030660943568563276,0.0015330408889595551,-2.3453679231977795,0.4685251458715515,9.631455729357757
3345000000.0,22.41,-0.06769839734116315,-0.16739135211797423,-0.005248749813389696,-1.3189476778757767,0.0994665129031651,9.568285238466252
3350000000.0,22.41,-0.1541476844449512,-0.23904733216478422,-0.008091360535903864,-0.22856460600474598,-0.9682547432979475,9.962055325348654
3355000000.0,22.41,-0.11923436345335692,-0.1795176561856101,-0.007111811057073149,0.9673712031866121,-1.253411513799115,9.882591393326013
3360000000.0,22.41,0.035288845789546414,0.02854564481266913,0.0013202237094821479,1.4408860125472602,-0.16795235585352358,9.628711787375718
3365000000.0,22.41,0.08792298315927298,0.1820450581654546,0.008027481548521133,0.3725755645029556,-0.3921955645029557,9.649899754222599
3370000000.0,22.41,0.10882976385601165,0.23146085840614594,0.007920959653315263,-0.8689785059414851,0.45655602537766027,9.667954603826747
3375000000.0,22.41,0.06152230796414642,0.09107446209716649,0.0015969335783987944,-1.748630205563602,0.296752303334023,9.964505336674252
3380000000.0,22.41,-0.018665769633005976,-0.06250431577852311,-0.0024273825484655625,-1.3522065265057652,0.13341206085332058,9.735836793914668
3385000000.0,22.41,-0.08806071268902155,-0.1374672686722859,-0.0007346304889926716,-0.8040244440209444,-0.4402764819755648,9.818928217742583
3390000000.0,22.41,-0.10961431226728244,-0.15773666629726,-0.0034281828629166944,-0.23209821287178214,-0.8309060122997601,9.923599075686491
3395000000.0,22.41,-0.04668700607378782,-0.10187752845213893,-0.0033642680393861863,0.5925266377520664,-0.6852275108429752,9.82706900433719
3400000000.0,22.41,0.022801139027104015,0.020030216030038125,0.0008517493438914262,0.8318856225268563,-0.5258145470997455,9.794304462286446
3405000000.0,22.41,0.05004168388314027,0.12588322825940318,0.004460894212941849,0.3666913184721132,-0.2748734222023342,9.875335525932556
3410000000.0,22.41,0.08398620442596148,0.1518571903998813,0.0053232542185827,-0.5603527637533277,0.13302638187666382,9.9353698791804
3415000000.0,22.41,0.06100102932857348,0.0816375215310029,0.004418265007175231,-1.217714570344946,0.38248838438928384,9.70876106532911
3420000000.0,22.41,-0.009204557886735886,-0.02475132494388452,-0.0001703513443843654,-1.073211674971117,-0.1024186585994866,9.757026664293967
3425000000.0,22.41,-0.060882472034202766,-0.08410663784806766,-0.0012243556902037439,-0.7318236050454361,-0.41937916316289164,9.857088798318188
3430000000.0,22.41,-0.07318866031077445,-0.09288732526076085,-0.0022783600360231364,-0.36434013544190136,-0.611358400516384,9.940668400516385
3435000000.0,22.41,-0.027248706633721236,-0.06514392170460793,-0.002501893277684583,0.07200660097356601,-0.487163399026434,9.830502432954724
3440000000.0,22.41,0.0069437702975599265,0.0037520935691381717,0.0017460056290453624,0.2103255313676553,-0.32765366591063666,9.782532668178726
3445000000.0,22.41,0.02792203178931979,0.049104801951644086,-0.0004790565692227005,0.05385415648534157,-0.2639858286151583,9.866701666170016
3450000000.0,22.41,0.03642838124028587,0.06380552122365563,0.003939186303861181,-0.3276556082906561,-0.08927039689100397,9.84825893298789
3455000000.0,22.41,0.017167254522499703,0.0299641974342319,0.0009688249846119853,-0.5430818684369187,-0.024820440856904408,9.834132197344623
3460000000.0,22.41,-0.00515447422189033,-0.014267936500074406,0.00017035872241478612,-0.5599531870476319,-0.19541681295236812,9.782139734412699
3465000000.0,22.41,-0.02754930950252945,-0.04269921066186453,0.001980235960812457,-0.3337352577514526,-0.42094797494507974,9.800876767303468
3470000000.0,22.41,-0.023970867088922303,-0.027143402251764818,0.00012777273082629996,-0.20954200440352005,-0.5301313215906133,9.807645330397653
3475000000.0,22.41,0.0022368007137825462,0.016183741417129614,0.0020760618199169717,-0.2722285124655851,-0.3722880825481808,9.773703404986234
3480000000.0,22.41,0.024845169654951572,0.04055937209298631,0.001022057474097593,-0.4214392222757922,-0.16951558329315583,9.830797402784475
3485000000.0,22.41,0.03203075270514876,0.04116535409449255,6.389374344357072e-05,-0.64746,-0.0011774707677747076,9.859344367691943
3490000000.0,22.41,-0.0005967596535467501,-0.006282469413604892,0.0020441001921343445,-0.6445159831640599,-0.044146694726566946,9.868271196632811
3495000000.0,22.41,-0.029987659709199872,-0.053448564661635126,-0.002118647811505458,-0.4970704597560046,-0.28615885406508856,9.839724503658545
3500000000.0,22.41,-0.04581485585374768,-0.0713665131140481,-0.0010646582217469207,-0.1765772126846721,-0.4512610877328109,9.868860407899804
3505000000.0,22.41,-0.040527555364883096,-0.0713665131140481,-0.002118662567566299,0.22161069129720687,-0.6066514892867149,9.92713180848252
3510000000.0,22.41,0.00023416280637388737,0.012136913658102128,-0.0010859364614803223,0.3698380226630802,-0.5120813182246132,9.79312584551446
3515000000.0,22.41,0.04032489232504317,0.08308340519368203,0.00513166152461703,0.0016650372883503795,-0.3959307807041078,9.771348463450684
3520000000.0,22.41,0.06301910831325455,0.10977091618114805,0.004301181988424169,-0.6502114492808145,0.1161540920759409,9.74250699488467
3525000000.0,22.41,0.053799699885418786,0.06828045866220482,0.0032471776426047866,-1.0589923072247234,0.2678139585645396,9.769288705406685
3530000000.0,22.41,-0.0038097800218076724,-0.02007297391072871,0.00019161482805693172,-1.0053282514718827,-0.0019640569804406094,9.733874125735941
3535000000.0,22.41,-0.06293245251658253,-0.08996016478048764,-0.00198026547293414,-0.65393199080092,-0.4301715898410159,9.859247161283871
3540000000.0,22.41,-0.07494379964774187,-0.11343258065261358,-0.006047246641712979,-0.1314502181861022,-0.6415753752050538,9.941062150082022
3545000000.0,22.41,-0.03588680450262724,-0.07045371098311531,-0.0015437063589348833,0.3045054297243543,-0.6037069868557698,9.929485662285257
3550000000.0,22.41,0.0015954929790819514,0.003936263999057998,-0.00010645760094079464,0.4669569653628697,-0.5101193104550932,9.874745586273056
3555000000.0,22.41,0.03945047058740775,0.07240075161269782,0.0009475467448785838,0.19256802129688017,-0.3693454642258546,9.807743216638732
3560000000.0,22.41,0.058673900857044395,0.11270804082109517,0.005749152078623987,-0.37827788722117894,-0.1200725329843253,9.843354345743643
3565000000.0,22.41,0.05608873593146082,0.0949361315131843,0.003609143815046091,-1.0060200009801001,0.1592183081295831,9.81510092301661
3570000000.0,22.41,0.01050197524024954,0.010993864467891551,0.0013627380287750755,-1.1901500321156004,0.12870664525626646,9.691886629198466
3575000000.0,22.41,-0.04027383447114688,-0.07276074671061865,-0.002555192169443975,-0.881425791836658,-0.1908070692831707,9.7310299860806
3580000000.0,22.41,-0.07478828310350721,-0.11206851592610612,-0.005876895297328611,-0.30489041915610426,-0.6160711291742114,9.889658451669684
3585000000.0,22.41,-0.05602765734723111,-0.0835875448373752,-0.0028532340323156155,0.11154241573862414,-0.6215610429254105,9.942337108902972
3590000000.0,22.41,-0.00745846045563988,-0.027789406439764144,-0.00038325916823553395,0.2650669670458697,-0.46342314483403146,9.915162921074229
3595000000.0,22.41,0.02370280802114958,0.029544644922255083,0.0,0.34011318879993185,-0.3045012827430128,9.828638301714383
3600000000.0,22.41,0.039835493502325264,0.07201605663136187,0.004258641319022609,0.023541063121410633,-0.27468,9.81
3605000000.0,22.41,0.038398078211644496,0.0799011731563004,0.004482172452675253,-0.46185844118558445,-0.15068047963520476,9.81
3610000000.0,22.41,0.032297621214537164,0.05080871139010418,0.0009368623028250347,-0.775580493237805,0.00470992191869922,9.779392519520325
3615000000.0,22.41,0.007105014266852287,0.00815891953626325,0.0008197887701131253,-0.8111886893488869,-0.11938917455779174,9.763206229782961
3620000000.0,22.41,-0.0202418214328142,-0.02479854993689536,0.0010646508437165,-0.7596859781150598,-0.27114938439819386,9.798228351570783
3625000000.0,22.41,-0.0322231948056658,-0.05193246305664991,-0.0005323407049212644,-0.6131237325970373,-0.2526070071210701,9.890933274524032
3630000000.0,22.41,-0.0340862802914492,-0.07829985046190295,-0.004216047949403691,-0.14793071051310708,-0.32981311660913115,9.896131588474816
3635000000.0,22.41,-0.03564068584849855,-0.056455183540314174,-0.0022144431044839974,0.27213208300952085,-0.6709089360370895,9.895641370605514
3640000000.0,22.41,-0.009373545660514477,0.018613534197073983,0.0012350179981660528,0.20326150313681504,-0.6576611273526113,9.912416541405264
3645000000.0,22.41,0.044176292386653354,0.08224432073145244,0.002129301687433,-0.2248488815870888,-0.14155355641663547,9.883084146001242
3650000000.0,22.41,0.06923728836893223,0.07488485823875024,0.0058556181115995126,-0.5513238433186385,0.29626455228734555,9.752119794753199
3655000000.0,22.41,0.02098390307593903,0.020142898252348822,0.00010638803665396438,-0.6143020580120205,0.05699247930652479,9.681783087018031
3660000000.0,22.41,-0.041971404315369464,-0.03115445915946768,-0.001746011953071469,-0.5415112890889129,-0.4583270389198705,9.746039582002197
3665000000.0,22.41,-0.045728511230260345,-0.0458148928648511,-0.0003513270525745901,-0.4969744576235446,-0.5292484321765843,9.859443254258732
3670000000.0,22.41,-0.012334304516368012,-0.03947927792575851,0.0007026772932447883,-0.2574118337275183,-0.2605511762982118,9.852967301002574
3675000000.0,22.41,0.003832774025107297,-0.021671590509443894,0.0003726200483688332,0.041203998709039985,-0.23642199935452002,9.804113714470137
3680000000.0,22.41,-0.0021719730533735528,0.00797500678448769,0.0013627685949010905,0.030605984847059828,-0.4665656729079568,9.878278600714188
3685000000.0,22.41,0.0036731619310024707,0.032989837514649754,0.002129301687433,-0.24574300518463008,-0.4021099674289997,9.940080743153407
3690000000.0,22.41,0.02675505260539292,0.033873272337185165,0.0014692103857766978,-0.47009634678116347,-0.07906594806855946,9.898681826609419
3695000000.0,22.41,0.023631245307528283,0.016178689401512486,0.00041520603995731935,-0.46989828229058284,0.016970797603407972,9.7970499387487
3700000000.0,22.41,-0.010657292525826582,-0.0072502772321869574,-0.001916394917586237,-0.43164,-0.23936680285436807,9.774684287472244
3705000000.0,22.41,-0.034608045116764546,-0.028986751143318824,-0.0019376489152196658,-0.4027001401741014,-0.4155518878607189,9.79616797196518
3710000000.0,22.41,-0.021491757480194603,-0.0341927062722596,-0.000447145533648684,-0.22327358225563582,-0.3633615352524153,9.783120383813104
3715000000.0,22.41,-0.0012349010036837391,-0.011313830485094222,0.0,-0.06876759488407594,-0.3306953164782531,9.776351772159417
3720000000.0,22.41,0.007835877260507705,0.02096232214689193,0.002384849257094347,-0.1326324283611243,-0.3158816387173164,9.851987739334977
3725000000.0,22.41,0.012988771702671261,0.027645056311308015,0.0019163401093602395,-0.3193170194267702,-0.1809929805732298,9.935077861768278
3730000000.0,22.41,0.012030515219634743,0.009142551778681935,0.0005749193184793298,-0.40142505509845056,-0.18894197656471978,9.872390440787605
3735000000.0,22.41,-0.0011393259976135266,0.005770517800718128,-6.389479744791661e-05,-0.3924,-0.45145866662838663,9.846984352931043
3740000000.0,22.41,0.0020868969845920637,0.037153520005454146,-0.0005110245210314132,-0.6372610869606109,-0.45008054800460545,9.908885090580052
3745000000.0,22.41,0.023080019298313825,0.039013219182619546,0.0021719192991519116,-0.9533371093583711,-0.08397039934620398,9.912710481773605
3750000000.0,22.41,0.021301585290348177,-0.005855951436154295,0.002661603394193519,-0.8632773777869738,0.2648720394990204,9.854144344446743
3755000000.0,22.41,-0.029540481881549237,-0.07630473861204995,-0.0015437833012521592,-0.4175095155632952,-0.025610591336905908,9.858069729363697
3760000000.0,22.41,-0.08363985877071282,-0.125613472365585,-0.004769643705962749,0.1263568898753689,-0.819336604478166,9.818631412363713
3765000000.0,22.41,-0.05687947046702484,-0.08476943522812752,-0.004822860385383174,0.5595647401794475,-0.8556227883350278,9.749374638783646
3770000000.0,22.41,0.013273983464380253,0.018178486819045506,-0.002299614033656624,0.6627625748118258,-0.4528293070890931,9.816671385821815
3775000000.0,22.41,0.06417873294859519,0.11462504001146792,0.003353705861836742,0.23984870733718705,-0.16676560050925604,9.73544194690432
3780000000.0,22.41,0.07929709786593439,0.14180569205544236,0.006515647226999472,-0.6223538156184382,0.15696,9.687965362127153
3785000000.0,22.41,0.046658789340724635,0.08722023889355535,0.0034920228521386426,-1.2826593379770934,0.11477626480916264,9.832465120557252
3790000000.0,22.41,-0.005363543327356529,-0.005392414528003445,-0.000723994531139027,-1.3400445276759454,0.046499179151391797,9.799796716605567
3795000000.0,22.41,-0.058523954604826095,-0.10041105104779459,-0.0027574376853328093,-0.9607865349207654,-0.1676565119527651,9.795874779413147
3800000000.0,22.41,-0.0850115933313361,-0.1544616388014981,-0.0029810383832722964,-0.20600298800812988,-0.7534136834039369,9.927720738104407
3805000000.0,22.41,-0.06442828364821901,-0.11457992045261349,-0.003428159674821047,0.5253288258401883,-0.9082040352103404,10.032491686890717
3810000000.0,22.41,0.00323281586578247,0.004066337932388989,0.0002981504253193484,0.679045905854959,-0.47872874004678745,10.063293385948533
3815000000.0,22.41,0.059278550337876164,0.12148922703702524,0.003864674520637836,0.1892287495507875,-0.2854658128741582,9.811271520808315
3820000000.0,22.41,0.0879499013244246,0.15322011087508072,0.004343799600143062,-0.6027322617144226,0.20012511298375113,9.594966877569668
3825000000.0,22.41,0.06322669415814605,0.09554987731070193,0.0052699974869971035,-1.1708250602167507,0.2599642570396426,9.74672497992775
3830000000.0,22.41,-0.0033439263429897483,-0.007070406137829863,0.001384005728465071,-1.2080012425985125,0.09613576820535769,9.685412628034227
3835000000.0,22.41,-0.0638134943691203,-0.09600965942340393,-0.0024806445500728104,-0.8648460244668603,-0.25996872451368724,9.708075366334654
3840000000.0,22.41,-0.08318024918642707,-0.1358032817909899,-0.002853256166406912,-0.30449658218336584,-0.7204495326704954,9.870038393398284
3845000000.0,22.41,-0.059352758861586835,-0.09579684537138206,-0.0014692019537419312,0.3465905114340051,-0.8759318379350184,9.985893524053536
3850000000.0,22.41,0.001909844954448646,0.007456858680051887,0.0009582101068452683,0.5729023548041235,-0.5572069530571695,10.009143074781631
3855000000.0,22.41,0.05664604964515287,0.10056601028291165,0.0038114662732522116,0.1828521101850211,-0.2704566831237668,9.959110502425006
3860000000.0,22.41,0.08066262314872638,0.12774992517876552,0.0050251438454285025,-0.5944912483108126,0.20444062492760626,9.839038124831081
3865000000.0,22.41,0.044037674866882884,0.054787761261443746,0.0028212839985808317,-1.057124699124147,0.18854714897817149,9.859343474197134
3870000000.0,22.41,-0.016575499955458567,-0.03953030699324102,-0.0013414682210764267,-0.8334535408142354,-0.05199713435587135,9.800975401360855
3875000000.0,22.41,-0.0681771527588819,-0.10839809369797351,-0.002661643446358635,-0.31391608610426086,-0.5420052848873529,9.846787123663871
3880000000.0,22.41,-0.07495231646938258,-0.09915866146836345,-0.003492030230169025,0.1345953102016531,-0.7742039188061393,9.81941790145738
3885000000.0,22.41,-0.01209276115687438,-0.029906867338703687,-0.0008197729600479379,0.3681701300761013,-0.6091016171551162,9.815394368078044
3890000000.0,22.41,0.04427241568232854,0.06840551812666355,0.0009369255430857838,0.30665553757495534,-0.374934497629445,9.691298622207086
3895000000.0,22.41,0.08192026232639252,0.14920214868382442,0.0042586033748661,-0.40584703860307036,0.047384040081140395,9.681882459179825
3900000000.0,22.41,0.06369715806925141,0.1137771008414504,0.003832726594911685,-1.2125181210789813,0.23544037876410379,9.802152454516925
3905000000.0,22.41,0.009322582010416339,-0.004908147980741847,0.0015224260111927723,-1.3260133765534339,0.21316879695198795,9.841784096600241
3910000000.0,22.41,-0.06402393492430677,-0.11718495982237195,-0.002214523208814262,-0.7459469318117693,-0.18678832387058328,9.838254015152941
3915000000.0,22.41,-0.10187550054777758,-0.15414961750620015,-0.006909559217158185,-0.061700109216801094,-0.8375788646184887,9.961956671867467
3920000000.0,22.41,-0.07435282651261112,-0.10115690329643331,-0.004088250976477388,0.4873625512498255,-0.8762255452177554,9.917124210163143
3925000000.0,22.41,0.03701689508953884,0.02274166989023166,-0.0020760112277084424,0.6533447801853479,-0.42771325541703253,9.792341085139011
3930000000.0,22.41,0.06263898548181943,0.1274048290543082,0.0038114251670826813,0.38670279545312797,-0.12066261832232619,9.734857766401579
3935000000.0,22.41,0.07833370974675578,0.15739740790546267,0.0014798895578085527,-0.5553515139674151,-0.03129107199181071,9.964505589183656
3940000000.0,22.41,0.05432749527435315,0.09937118535817265,0.0037475377476651876,-1.3961600418275002,0.2656535755236358,9.741721787761817
3945000000.0,22.41,0.0010071209193315573,-0.01160063097692751,-0.0003513597267093215,-1.4285277556402776,0.11026317396973175,9.671580823373109
3950000000.0,22.41,-0.0557182492224454,-0.11014111442126909,-0.003087479120143608,-0.8583700129393002,-0.09614321723273217,9.683452611204226
3955000000.0,22.41,-0.09549818295913204,-0.14888099730914411,-0.00232095551365073,-0.22003269205752693,-0.7274141887395419,9.875040837747909
3960000000.0,22.41,-0.07329539743021199,-0.10520828507994266,-0.003917881714019136,0.4465526614467266,-1.0021859079240591,9.935960246163503
3965000000.0,22.41,0.01751624265303713,0.002825784372513695,0.0001490678346292347,0.6022341286465414,-0.539448588339186,9.924090993138309
3970000000.0,22.41,0.0542482426832548,0.099044918831287,0.002320963945685499,0.35178127923841285,-0.1347877806377778,10.00266793732508
3975000000.0,22.41,0.08378500930315765,0.12963656259900136,0.005376495140103074,-0.31784925025319255,0.05395422790394228,9.94145307348473
3980000000.0,22.41,0.03493705100094494,0.08015401564972628,0.006132338520559675,-0.9586345915210459,-0.03688513615965136,9.827265136159651
3985000000.0,22.41,0.0032676939408686845,0.007312507393918774,0.0,-1.1187299230769994,0.013438074519280745,9.771937509615375
3990000000.0,22.41,-0.029189403833181613,-0.06655484236709655,-6.39042834870309e-05,-0.8026496274431963,-0.1909043825221438,9.808233502491335
3995000000.0,22.41,-0.05004153144992163,-0.0913351295879707,-0.0031939525311496,-0.2322983168613832,-0.41417990715779907,9.722986308775063
4000000000.0,22.41,-0.046879206150716786,-0.06391351003372951,-0.0031939188030105335,0.07848046617120466,-0.6278388345719884,9.849239689219196
4005000000.0,22.41,-0.004684474798404982,-0.008016722185765206,0.0010220985802670791,0.13675186675391865,-0.48216033311520334,9.81039208883072
4010000000.0,22.41,0.03227632078887625,0.04474996682232775,2.1284563759476488e-05,0.012359587437295885,-0.19227366331683665,9.781158366331685
4015000000.0,22.41,0.0402506679221523,0.06543656872399002,0.0,-0.23760022765050226,-0.024621774228517718,9.799601555973116
4020000000.0,22.41,0.00979523152912351,0.03638637835500319,0.0,-0.4806919520919195,-0.2268089178408892,9.88494910275309
4025000000.0,22.41,0.0044714996046694745,0.011871534284066773,0.0030342803587970714,-0.620974094531141,-0.17020295273442954,9.90711915636159
4030000000.0,22.41,-0.010753100950662429,-0.021394867024864525,0.0011923919544124311,-0.6093970434441704,-0.3050921741687217,9.880435565166255
4035000000.0,22.41,-0.017668193725193772,-0.034331243549469745,7.45170532450842e-05,-0.36188878387408785,-0.2500563513747635,9.796559594624696
4040000000.0,22.41,-0.01615754305055242,-0.03123298196486843,-0.0019589745851485885,-0.19894554444555543,-0.40770501249875013,9.862582227777223
4045000000.0,22.41,-0.008220606954871978,-0.006655425257391004,-0.0011604608927558273,-0.0703366785994668,-0.4129028214307282,9.877787178569271
4050000000.0,22.41,0.013643426726372011,0.022586545038202187,-0.00010645654693644882,-0.2442706519942065,-0.2001221120066211,9.816866449335265
4055000000.0,22.41,0.0197774071437999,0.017041143351770177,0.0009475477988829296,-0.3085248938175489,-0.06307727607437276,9.731421191128412
4060000000.0,22.41,0.005240039469639614,-0.0008923665071982022,0.002001552144702308,-0.3052871211393712,-0.14401166746691665,9.782140152024402
4065000000.0,22.41,-0.02368262126339198,-0.022660487900981432,-0.0015757175249217462,-0.18462309459153095,-0.5324902741409028,9.918401684366218
4070000000.0,22.41,-0.006624374237526924,0.009239052027780078,-0.00029808507704987,-0.20895339527433396,-0.43673977701239775,9.853163209451333
4075000000.0,22.41,0.025779660741737504,0.04570348413897146,0.0009049618072944435,-0.4826545328635453,-0.2869413127202131,9.789398525088085
4080000000.0,22.41,0.0362582196166837,0.04845520115524175,0.00017033553431917807,-0.7110305434803055,0.09771108696061087,9.722886645256267
4085000000.0,22.41,0.015174026161133974,0.0037317812293544694,-0.0008836688115002004,-0.7781295173848952,0.07720382719153827,9.850320448885805
4090000000.0,22.41,-0.03652532017981581,-0.0664777516944204,-0.0019376731573195788,-0.4871616605963166,-0.22268978051699787,9.975201353320113
4095000000.0,22.41,-0.06671418746980542,-0.10578658493593425,-0.0004045500560210854,-0.024521022976910223,-0.5387677452947774,9.988443820459539
4100000000.0,22.41,-0.060294031982532754,-0.09566133194624622,-0.002555187953426587,0.5160105393421054,-0.7632196723891967,9.90025112398661
4105000000.0,22.41,0.010643020995966465,0.006849510464289485,-0.0031939525311496,0.6045900607959006,-0.7346701823877019,9.770170283714203
4110000000.0,22.41,0.06448540162969231,0.13023713396423156,0.002619101722952704,0.13164533025905328,-0.4330104462227044,9.649507442018173
4115000000.0,22.41,0.11721641485419693,0.21508119655320654,0.0075377626713361385,-0.9668838309040383,0.43998689253846907,9.820008278152383
4120000000.0,22.41,0.0830003738933314,0.12293283800715336,0.00528063344485075,-2.0087036826317366,0.5575991195830912,9.826480239817602
4125000000.0,22.41,-0.01891595415209557,-0.08176616542233918,-0.0005323775950733427,-1.7020290708849908,0.5640754807390548,9.589272596304726
4130000000.0,22.41,-0.13228292664544275,-0.24964335063177193,-0.006856403669989861,-0.5187417295993173,-1.2360800550737006,9.900452451675624
4135000000.0,22.41,-0.19302783010154428,-0.279355724535599,-0.009294410582261284,2.0819034196679342,-1.5084796038118962,10.386537635553276
4140000000.0,22.41,0.02173751032570037,-0.0511746839712941,-0.0034493989163936773,2.5392161380297615,-0.836590688495507,10.360927830880279
4145000000.0,22.41,0.07493216762122384,0.2131978536222593,0.006494457523631131,1.39065400632214,-0.43281494567374945,9.48557388013674
4150000000.0,22.41,0.160646513322016,0.3354528687953679,0.00883659325461118,-0.8799788449768887,0.6150983658366835,9.633425642613958
4155000000.0,22.41,0.10129838972963938,0.17971618624978614,0.005578735385970167,-2.6387052602363528,0.5629903312936032,9.873274903529449
4160000000.0,22.41,-0.004728476162321131,-0.06213498871619082,-0.002257138712524499,-2.250011661229917,0.626666112923361,9.661670052697701
4165000000.0,22.41,-0.1258123285663516,-0.23769080502076512,-0.0060365790637289555,-1.075166291984663,-0.36200275302172746,9.969025196708051
4170000000.0,22.41,-0.18909198359187976,-0.29077574599309197,-0.0063879050622992,0.3039261925787621,-1.5080006517467064,9.920457441107375
4175000000.0,22.41,-0.03264951492403842,-0.11776735400144178,-0.005003841363595109,1.1394356358126565,-0.6606888219197882,9.656471797018318
4180000000.0,22.41,0.05305447454474192,0.10337609527797309,0.0025552501396830024,1.176413413787334,-0.34688557838275574,9.295559865191699
4185000000.0,22.41,0.10617172023190538,0.22705807585887272,0.007729382769414802,-0.007568250660082487,0.1475511791692119,9.516293639893437
4190000000.0,22.41,0.0889524859127244,0.15608343392338844,0.0032364679044469304,-1.2837449827294498,0.40573980951409816,9.905551597414517
4195000000.0,22.41,0.013097552985783183,-0.0017801402336564132,-0.0025977834310541665,-1.3026649295466495,0.0903469221691692,9.84462709996327
4200000000.0,22.41,-0.0498540541418423,-0.07244176888296575,-0.0017034059354004202,-0.8985936341811364,-0.44145530269745303,9.835507305279373
4205000000.0,22.41,-0.07054670537185669,-0.07568546041483615,0.0,-0.8253158717395587,-0.6386301832292018,9.869350091614601
4210000000.0,22.41,-0.033401596200130765,-0.07287830843740897,-0.0006175063640721618,-0.477937802902878,-0.21149803935448036,9.854929881774199
4215000000.0,22.41,-0.0032045368427903037,-0.07182430409158956,-0.0016715107098915403,0.1462722578930226,-0.043165637426356374,9.836682872514729
4220000000.0,22.41,-0.031618856498018676,-0.059442245748489275,-0.0009368749508771625,0.565843095116231,-0.5670245574749455,9.869253137715932
4225000000.0,22.41,-0.03478582764103472,-0.011397284423908749,0.0011711337407615944,0.594975104885551,-0.8529785972788859,9.951264656524446
4230000000.0,22.41,0.019196391446905586,0.06625829897010814,0.002129301687433,0.3239231599810316,-0.6772804280958044,10.018364892976049
4235000000.0,22.41,0.08620552499603147,0.1438511680515445,0.002129301687433,-0.30058563886185635,-0.054241156280411595,9.873860385426804
4240000000.0,22.41,0.0971991406497823,0.1485410079739724,0.003236556440811917,-1.1654354121221542,0.37160230585852305,9.716608717643087
4245000000.0,22.41,0.03973650597575854,0.05026500760256075,0.002629660738489116,-1.614235912270159,0.35335636490806366,9.65686499300565
4250000000.0,22.41,-0.04527465650970276,-0.08948423184817692,-0.0021293554416547365,-1.3145345516240454,0.07357012948210129,9.765857724187978
4255000000.0,22.41,-0.1167130054972853,-0.19374153727380794,-0.005844942101580768,-0.5053047525247475,-0.9272534319439344,9.975789826482698
4260000000.0,22.41,-0.10380106492303971,-0.16609701066015936,-0.004854780906996313,0.7204590600444907,-1.1450140152618402,10.10116212392622
4265000000.0,22.41,-0.0068361272873053575,-0.02146266485224131,-0.0006919780951304289,1.3533849490397496,-0.7125027024327271,10.196612348527523
4270000000.0,22.41,0.06340303281741368,0.11749895442115037,0.004088295244659906,0.6906148766410487,-0.40298634015806345,9.878271462467614
4275000000.0,22.41,0.08180816179352932,0.1692697224810418,0.003992395605251201,-0.30706080545410813,0.10643791874277918,9.737901233094512
4280000000.0,22.41,0.07384585272034705,0.1235707284696985,0.0024700170242539245,-1.0689025048980252,0.14205021327570214,9.92889495538565
4285000000.0,22.41,0.021993820165127527,0.041273677680536976,0.0024273677924047023,-1.3466177844591778,0.05826790429867906,9.713075868304259
4290000000.0,22.41,-0.018532436078923638,-0.02462971412980898,-0.0004471623977182171,-1.289230283328103,-0.11065546675035465,9.693654816577748
4295000000.0,22.41,-0.04050283355472178,-0.08181512769097206,-0.0015011667435375956,-1.057611177911912,-0.09201930165399302,9.818535283976553
4300000000.0,22.41,-0.06498581612828848,-0.14658004038755712,-0.002555171089357014,-0.2805567290201673,-0.44341726190747266,9.835505498865956
4305000000.0,22.41,-0.07888290254702968,-0.14629912528320324,-0.0027787296271227085,0.8510279524324795,-0.8754457379113575,9.922621475822716
4310000000.0,22.41,-0.03150639102047047,-0.04627697956669467,-0.0005109960629140762,1.4461867676202678,-0.9562784651336846,10.102926348850264
4315000000.0,22.41,0.05506250769305176,0.11865999052381887,0.004492881136828768,0.7793948614247486,-0.5798609700713098,9.939488647452087
4320000000.0,22.41,0.09523879290431614,0.20657272634182416,0.006984073108390276,-0.36219543711965446,0.1997358794516588,9.81588893687859
4325000000.0,22.41,0.09827104328530067,0.14199712972437534,0.0023954188126742333,-1.258626192301562,0.41348889575398895,9.908587391706373
4330000000.0,22.41,0.022118470313046142,0.02529110244428852,-0.0010646508437165,-1.4442267702140679,0.0857361199028612,9.65931806357978
4335000000.0,22.41,-0.05241015980475772,-0.05942641904385629,-0.0007133069270723767,-1.2499880107434804,-0.2606541418630414,9.73377891026739
4340000000.0,22.41,-0.07653117235271968,-0.12143418390630356,-0.0003406974187470017,-0.8844643734438439,-0.3853350297148503,9.896719304109194
4345000000.0,22.41,-0.0628172477681333,-0.15567528580754836,-0.002384854527116083,-0.12114379441263795,-0.43380343257753434,9.806958815603588
4350000000.0,22.41,-0.04974876398030523,-0.1241026019051194,-0.005003849795629911,0.8691720835342209,-0.7828359721552597,9.850222436390025
4355000000.0,22.41,-0.01898938445774509,-0.013454734116724529,-0.0024060558245322487,1.2241857550581579,-0.711914491491445,9.99825483049715
4360000000.0,22.41,0.05441015318070519,0.1311951975990303,0.0030236359689086024,0.5999708771598088,-0.6588308771598088,9.954007073738172
4365000000.0,22.41,0.10924792058977449,0.20531232095567056,0.0053232542185827,-0.5274965025180651,0.23554344144793443,9.75447896096529
4370000000.0,22.41,0.10609459410321416,0.16187786856868655,0.004492798924489831,-1.710867395280274,0.6101794535397946,10.004236302359862
4375000000.0,22.41,0.015445481109957537,0.005055864305339532,0.0010646139535643963,-1.8442745613359457,0.3310853755218538,9.795282790542728
4380000000.0,22.41,-0.06488931586191152,-0.12394852062106486,-0.003406928865283195,-1.1968136192816363,-0.06004468670954688,9.688751462744815
4385000000.0,22.41,-0.13135188097791206,-0.1960004749989632,-0.006962798030669884,-0.39170401610334016,-0.837974799361648,9.930073377919634
4390000000.0,22.41,-0.09608082431086037,-0.1653006658840864,-0.0046205568992552975,0.6539433828597339,-0.9804009117306092,9.79410600931986
4395000000.0,22.41,0.02494112410258633,-0.029169255019580426,-0.0007877860361609906,1.3349403608847035,-0.15255019521810195,9.680804263454842
4400000000.0,22.41,0.04771752450729582,0.09416490410991997,0.0042586033748661,0.8024523593284235,-0.4904961540875616,9.809997863381978
4405000000.0,22.41,0.06797026763681406,0.17218070577431885,0.003449431590528394,0.04403586252265862,-0.14665992780919926,9.706999278091992
4410000000.0,22.41,0.0671079097391819,0.14063562028453475,0.0003832928963746002,-1.0481036550404366,-0.08396863178038631,10.051323430231234
4415000000.0,22.41,0.058416944912953156,0.07413183105423304,0.0019483017371428213,-1.367122286048623,0.3225497127811971,9.779979856390598
4420000000.0,22.41,0.006271483802768542,-0.0030298832427327425,0.0008942973913234429,-1.4134237697616379,0.04669654438516545,9.63812905755959
4425000000.0,22.41,-0.05144571711103418,-0.08617662119036487,-0.0006388278179837569,-1.1923983661237838,0.04463008513010083,9.69522489090695
4430000000.0,22.41,-0.09067551440253976,-0.18171283266085164,-0.0042586033748661,-0.33961213245012134,-0.5768340233204402,9.87042908371539
4435000000.0,22.41,-0.08692031355947519,-0.1635930357584493,-0.003704947540059317,0.7290847132514472,-1.075562197592122,9.824911544578216
4440000000.0,22.41,-0.005874272692613545,-0.04154441281350743,0.00012776746080457086,1.2046628254996283,-0.46931100369171,9.877886579866766
4445000000.0,22.41,0.05035843497974313,0.1057446232604937,0.0018844975840686784,0.6219488196724883,-0.45635532896215325,9.957733937705239
4450000000.0,22.41,0.09310085423874692,0.1572277603767999,0.007878359959670303,0.0019535292807353055,0.11869935771769356,9.538267581103275
4455000000.0,22.41,0.06481701078365561,0.12903953830397,0.0019376457532065874,-0.9065463401184635,-0.04640104040091041,9.990306242405463
4460000000.0,22.41,0.02782439845099231,0.0717625061580332,0.0,-1.3541735261919354,-0.012556020328660203,9.823340906958808
4465000000.0,22.41,-0.008348197446619018,0.008716265423005885,7.453497131896317e-05,-1.4639453460000535,0.07897180090901801,9.746332492909124
4470000000.0,22.41,-0.02401733395906962,-0.07931385529096224,0.0006174315297635966,-1.3053100043857004,0.18932909290259095,9.687768181419482
4475000000.0,22.41,-0.08421320717346917,-0.1713539683336865,-0.006281421111249755,-0.34088837324188376,-0.28548160442371606,9.775665869215057
4480000000.0,22.41,-0.10208635409987993,-0.18364664601969943,-0.0041308169419833,0.6741512927321129,-1.3847712462120125,9.86650507788825
4485000000.0,22.41,-0.018752980527114226,-0.060129555122730494,-0.0009049059450641119,1.5228963853515638,-0.48333948404169486,9.81824283924083
4490000000.0,22.41,0.06470249825688014,0.13227941181740963,0.004301208338532813,0.6315607357581073,-0.5530807357581073,10.071725043951052
4495000000.0,22.41,0.10322758786263819,0.19357263107305428,0.006355937110490497,-0.15834335333793353,0.22435356497023565,9.443307613218876
4500000000.0,22.41,0.09374108362332921,0.1640427182287221,0.0031939715032278247,-1.2654962059041621,0.09809991259289913,10.045438776300587
4505000000.0,22.41,0.0325742740462678,0.07757980435199463,0.005301980194866681,-1.955041112799611,0.08838801249578011,9.909472174940921
4510000000.0,22.41,-0.02859253553079341,-0.03604486897277727,0.00010641754877565787,-1.731266697567867,0.2805677520267776,9.677366697567868
4515000000.0,22.41,-0.06908799853679748,-0.18094500829204474,-0.0020654416721284955,-1.0985180119017803,0.30352157539691577,9.767817876984578
4520000000.0,22.41,-0.14802977792209354,-0.28558427297025646,-0.010305896392770394,0.616083803203838,-1.9938058221207582,9.855519190160193
4525000000.0,22.41,-0.07738371157783516,-0.15717961141938927,-0.0035665135552750823,1.8423288986942892,-0.6729526403102262,9.970885054712351
4530000000.0,22.41,0.05967372874017461,0.12617667758343742,0.001809954180714909,1.4881730404583302,-1.3914579671240797,10.364072495572225
4535000000.0,22.41,0.11375122686630912,0.3072847700154111,0.00906024559876361,0.029318070351380898,0.4647181101691813,9.658918953045289
4540000000.0,22.41,0.17108537941274551,0.2539133485538818,0.00860236924687016,-2.000866383203264,0.6533464409202644,10.28991190198802
4545000000.0,22.41,0.010973698772941992,0.01555416801648371,-0.0011712117370831568,-2.1858643765623436,0.45194466953304674,9.430049607039296
4550000000.0,22.41,-0.06284639150665802,-0.12443092930424002,-0.005003887739786371,-1.5519356367630563,-0.00981441891454421,9.577505386213854
4555000000.0,22.41,-0.14603526927374405,-0.20757690759119907,-0.00153305880703342,-0.8177548758688488,-0.7311461126065613,10.023077446819675
4560000000.0,22.41,-0.12271934816555818,-0.2256153178719993,-0.0038753579086870495,0.44695573443645753,-0.8832931085802311,9.867680674259306
4565000000.0,22.41,-0.0024033365969926834,-0.09065726915534461,-0.0042586033748661,1.5129075989826761,-0.11604423106204231,9.626060283258802
4570000000.0,22.41,0.03414791834464138,0.06803020091573134,0.00031944342111353986,1.4793462246646623,-0.8436688766766887,9.476066357265264
4575000000.0,22.41,0.05720425122791557,0.2245563623494048,0.006494428011509405,0.23444602587266017,-0.5223776124862761,9.748690610236007
4580000000.0,22.41,0.11709125741917034,0.2168875392830638,0.008346872269417452,-1.2988582337607824,0.36611791817847916,10.22045493701125
4585000000.0,22.41,0.10837269098372612,0.11631241892957346,0.004098857422209403,-1.9489570638480709,0.5606419452906195,9.950377270500672
4590000000.0,22.41,0.0021871611177667755,-0.02361319736649102,0.0014479057959346684,-1.7571641687217419,0.4644042409818424,9.51667698801407
4595000000.0,22.41,-0.10911304888049765,-0.15534002364731017,-0.003247233504835096,-1.2283048341106482,-0.27370703271257035,9.81863708411337
4600000000.0,22.41,-0.15126443819180863,-0.2431006482363346,-0.008517255233932167,-0.2707463502560634,-1.5637267769757677,9.939492357397924
4605000000.0,22.41,-0.05981114194766804,-0.173021526475445,-0.0036942704760361423,1.181138311455983,-0.5577817518644175,9.9395900105534
4610000000.0,22.41,0.034880863100552405,0.02511454700570076,0.001192447816642754,1.518391889543719,-0.7055409307980094,10.197694244486442
4615000000.0,22.41,0.05679147224894893,0.178741103140289,0.005408465199920422,0.719848298071183,-0.3602174629863746,9.76496609406386
4620000000.0,22.41,0.09477322296001224,0.21714068868182068,0.003960471921625039,-0.704764668335147,-0.029427756551077572,10.105875522705155
4625000000.0,22.41,0.09214884553061842,0.1403496861151587,0.002395454648821951,-1.6971375461463756,0.29430323406273234,9.915453277751434
4630000000.0,22.41,0.029013979825062222,0.02884784154339326,0.0005535989185720953,-1.8160261208136612,0.4842228590507286,9.625962241627322
4635000000.0,22.41,-0.044358207661963495,-0.0967118161421745,-0.0007772048865333308,-1.441673278592933,0.18334466862224674,9.65784807038108
4640000000.0,22.41,-0.1268094446690876,-0.20955918116703598,-0.00489744278689769,-0.5446413762188137,-0.9653170683327709,9.833545802528658
4645000000.0,22.41,-0.1444644792536965,-0.22757908392634651,-0.0056319931715601125,1.0154494304628945,-1.1058779617285799,9.930271141341311
4650000000.0,22.41,-0.0014904125644096822,-0.07424086395064469,-0.0015969272543727296,1.4891574580759745,-0.5885945807597459,9.974808361282683
4655000000.0,22.41,0.0438862821578481,0.11210710461485247,0.005142332264614051,1.200740383288404,-0.2631022108086221,9.499212689919126
4660000000.0,22.41,0.08726993341874845,0.19260580451523943,0.006004611111920254,-0.06829316856433154,0.03061027750690279,9.693855211924351
4665000000.0,22.41,0.07011053693061578,0.12816248836330138,0.0017566247228295588,-1.0617425522299255,0.09790325632783256,9.908198371836082
4670000000.0,22.41,0.03390035067643985,0.05257995525688286,0.0,-1.2786353092908531,-0.005690979218909792,9.788416185817061
4675000000.0,22.41,-0.004211030905996359,0.007405067221852125,0.0,-1.5112338598318384,0.014715908062659079,9.759969544837595
4680000000.0,22.41,-0.0413799681613133,-0.08888034119863789,-0.0013627728109184738,-1.3180669639273697,0.16834132716431327,9.724063581869537
4685000000.0,22.41,-0.0814495206246664,-0.19837400457767992,-0.0034707815025572936,-0.1861797859223978,-0.5618304390650045,9.778805474007054
4690000000.0,22.41,-0.12508570970262167,-0.20438143014038487,-0.0049186967845311555,1.546662181841222,-1.17602498634295,9.993841859635818
4695000000.0,22.41,-0.026659198599188874,-0.03654545040147156,-0.001426572747975345,1.9190269107049693,-0.990217205041872,10.016695514468356
4700000000.0,22.41,0.062210753641466214,0.16469440451959216,0.0036198524991996233,0.9966851362685513,-0.38454533569415333,9.70208589186626
4705000000.0,22.41,0.12397067788314386,0.2366837706334624,0.005951408134556329,-0.3905506308478064,0.37651529389635285,9.785969612504097
4710000000.0,22.41,0.08934855506964631,0.1498200957599433,0.004535382808069619,-1.6843875209013754,0.4502748831255488,9.841782387305823
4715000000.0,22.41,-0.003548416905413923,0.007954276817080469,0.00015964793025261253,-1.8059171302572714,0.09152446092024458,9.779098957916089
4720000000.0,22.41,-0.062000128151714004,-0.08871920370106325,-0.002129301687433,-1.3643718662292188,-0.24800028385280284,9.926544908647749
4725000000.0,22.41,-0.09304978040199782,-0.15164262746091073,-0.001543733763047857,-0.8107894331358942,-0.3256905315607053,9.944886123338161
