#timestamp [ns], temperature [degC], w_RS_S_x [rad s^-1], w_RS_S_y [rad s^-1], w_RS_S_z [rad s^-1], a_RS_S_x [m s^-2], a_RS_S_y [m s^-2], a_RS_S_z [m s^-2]
0,,0.0,0.0,0.0,0.08829,0.36297,9.888480000000001
5050505,,0.0,0.0,0.0,0.06867000000000001,0.36297,9.888480000000001
10101010,,0.0,0.0,0.0,0.06867000000000001,0.37278,9.87867
15151515,,0.0,0.0,0.0,0.08829,0.34335000000000004,9.86886
20202020,,0.0,0.0,0.0,0.06867000000000001,0.33354000000000006,9.89829
25252525,,0.0,0.0,0.0,0.07848000000000001,0.34335000000000004,9.89829
30303030,,0.0,0.0,0.0,0.06867000000000001,0.35316,9.91791
35353535,,0.0,0.0,0.0,0.0981,0.36297,9.89829
40404040,,0.0,0.0,0.0,0.05886,0.34335000000000004,9.89829
45454545,,0.0,0.0,0.0,0.05886,0.35316,9.86886
50505050,,0.0,0.0,0.0,0.0981,0.34335000000000004,9.86886
55555555,,0.0,0.0,0.0,0.08829,0.35316,9.85905
60606060,,0.0,0.0,0.0,0.07848000000000001,0.32373,9.908100000000001
65656565,,0.0,0.0,0.0,0.10791,0.32373,9.89829
70707070,,0.0,0.0,0.0,0.05886,0.37278,9.888480000000001
75757575,,0.0,0.0,0.0,0.07848000000000001,0.33354000000000006,9.87867
80808080,,0.0,0.0,0.0,0.08829,0.34335000000000004,9.84924
85858585,,0.0,0.0,0.0,0.07848000000000001,0.3924,9.85905
90909090,,0.0,0.0,0.0,0.05886,0.36297,9.87867
95959595,,0.0,0.0,0.0,0.07848000000000001,0.35316,9.89829
101010100,,0.0,0.0,0.0,0.05886,0.33354000000000006,9.89829
106060605,,0.0,0.0,0.0,0.07848000000000001,0.35316,9.91791
111111110,,0.0,0.0,0.0,0.06867000000000001,0.36297,9.908100000000001
116161615,,0.0,0.0,0.0,0.07848000000000001,0.34335000000000004,9.89829
121212120,,0.0,0.0,0.0,0.039240000000000004,0.36297,9.86886
126262625,,0.0,0.0,0.0,0.05886,0.3924,9.85905
131313130,,0.0,0.0,0.0,0.05886,0.35316,9.87867
136363635,,0.0,0.0,0.0,0.06867000000000001,0.36297,9.888480000000001
141414140,,0.0,0.0,0.0,0.05886,0.36297,9.888480000000001
146464645,,0.0,0.0,0.0,0.06867000000000001,0.35316,9.92772
151515150,,0.0,0.0,0.0,0.07848000000000001,0.37278,9.89829
156565655,,0.0,0.0,0.0,0.07848000000000001,0.36297,9.86886
161616160,,0.0,0.0,0.0,0.06867000000000001,0.37278,9.86886
166666665,,0.0,0.0,0.0,0.06867000000000001,0.33354000000000006,9.86886
171717170,,0.0,0.0,0.0,0.08829,0.37278,9.87867
176767675,,0.0,0.0,0.0,0.05886,0.32373,9.91791
181818180,,0.0,0.0,0.0,0.07848000000000001,0.33354000000000006,9.908100000000001
186868685,,0.0,0.0,0.0,0.07848000000000001,0.36297,9.92772
191919190,,0.0,0.0,0.0,0.08829,0.36297,9.84924
196969695,,0.0,0.0,0.0,0.06867000000000001,0.36297,9.87867
202020200,,0.0,0.0,0.0,0.0981,0.36297,9.87867
207070705,,0.0,0.0,0.0,0.06867000000000001,0.35316,9.83943
212121210,,0.0,0.0,0.0,0.06867000000000001,0.34335000000000004,9.84924
217171715,,0.0,0.0,0.0,0.07848000000000001,0.35316,9.908100000000001
222222220,,0.0,0.0,0.0,0.06867000000000001,0.34335000000000004,9.888480000000001
227272725,,0.0,0.0,0.0,0.06867000000000001,0.35316,9.908100000000001
232323230,,0.0,0.0,0.0,0.04905,0.36297,9.91791
237373735,,0.0,0.0,0.0,0.05886,0.3924,9.888480000000001
242424240,,0.0,0.0,0.0,0.07848000000000001,0.38259000000000004,9.86886
247474745,,0.0,0.0,0.0,0.08829,0.35316,9.85905
252525250,,0.0,0.0,0.0,0.0981,0.36297,9.888480000000001
257575755,,0.0,0.0,0.0,0.06867000000000001,0.37278,9.87867
262626260,,0.0,0.0,0.0,0.08829,0.36297,9.888480000000001
267676765,,0.0,0.0,0.0,0.08829,0.35316,9.92772
272727270,,0.0,0.0,0.0,0.05886,0.34335000000000004,9.92772
277777775,,0.0,0.0,0.0,0.04905,0.33354000000000006,9.888480000000001
282828280,,0.0,0.0,0.0,0.08829,0.34335000000000004,9.85905
287878785,,0.0,0.0,0.0,0.08829,0.37278,9.86886
292929290,,0.0,0.0,0.0,0.08829,0.37278,9.87867
297979795,,0.0,0.0,0.0,0.07848000000000001,0.35316,9.89829
303030300,,0.0,0.0,0.0,0.07848000000000001,0.33354000000000006,9.91791
308080805,,0.0,0.0,0.0,0.04905,0.33354000000000006,9.87867
313131310,,0.0,0.0,0.0,0.05886,0.33354000000000006,9.908100000000001
318181815,,0.0,0.0,0.0,0.07848000000000001,0.37278,9.86886
323232320,,0.0,0.0,0.0,0.07848000000000001,0.36297,9.888480000000001
328282825,,0.0,0.0,0.0,0.04905,0.34335000000000004,9.86886
333333330,,0.0,0.0,0.0,0.06867000000000001,0.37278,9.85905
338383835,,0.0,0.0,0.0,0.0981,0.35316,9.888480000000001
343434340,,0.0,0.0,0.0,0.06867000000000001,0.35316,9.87867
348484845,,0.0,0.0,0.0,0.07848000000000001,0.34335000000000004,9.89829
353535350,,0.0,0.0,0.0,0.05886,0.35316,9.937529999999999
358585855,,0.0,0.0,0.0,0.04905,0.33354000000000006,9.888480000000001
363636360,,0.0,0.0,0.0,0.05886,0.35316,9.86886
368686865,,0.0,0.0,0.0,0.07848000000000001,0.35316,9.87867
373737370,,0.0,0.0,0.0,0.08829,0.35316,9.86886
378787875,,0.0,0.0,0.0,0.08829,0.33354000000000006,9.908100000000001
383838380,,0.0,0.0,0.0,0.05886,0.36297,9.908100000000001
388888885,,0.0,0.0,0.0,0.08829,0.32373,9.908100000000001
393939390,,0.0,0.0,0.0,0.08829,0.37278,9.908100000000001
398989895,,0.0,0.0,0.0,0.06867000000000001,0.34335000000000004,9.89829
404040400,,0.0,0.0,0.0,0.07848000000000001,0.36297,9.888480000000001
409090905,,0.0,0.0,0.0,0.06867000000000001,0.37278,9.87867
414141410,,0.0,0.0,0.0,0.08829,0.35316,9.89829
419191915,,0.0,0.0,0.0,0.07848000000000001,0.35316,9.86886
424242420,,0.0,0.0,0.0,0.0981,0.33354000000000006,9.87867
429292925,,0.0,0.0,0.0,0.06867000000000001,0.35316,9.91791
434343430,,0.0,0.0,0.0,0.07848000000000001,0.33354000000000006,9.89829
439393935,,0.0,0.0,0.0,0.07848000000000001,0.35316,9.888480000000001
444444440,,0.0,0.0,0.0,0.08829,0.37278,9.86886
449494945,,0.0,0.0,0.0,0.08829,0.37278,9.84924
454545450,,0.0,0.0,0.0,0.05886,0.33354000000000006,9.85905
459595955,,0.0,0.0,0.0,0.06867000000000001,0.36297,9.86886
464646460,,0.0,0.0,0.0,0.06867000000000001,0.34335000000000004,9.87867
469696965,,0.0,0.0,0.0,0.05886,0.35316,9.92772
474747470,,0.0,0.0,0.0,0.06867000000000001,0.34335000000000004,9.888480000000001
479797975,,0.0,0.0,0.0,0.08829,0.37278,9.888480000000001
484848480,,0.0,0.0,0.0,0.07848000000000001,0.33354000000000006,9.89829
489898985,,0.0,0.0,0.0,0.05886,0.36297,9.888480000000001
494949490,,0.0,0.0,0.0,0.07848000000000001,0.35316,9.85905
499999995,,0.0,0.0,0.0,0.08829,0.34335000000000004,9.87867
505050500,,0.0,0.0,0.0,0.04905,0.34335000000000004,9.908100000000001
510101005,,0.0,0.0,0.0,0.039240000000000004,0.34335000000000004,9.908100000000001
515151510,,0.0,0.0,0.0,0.05886,0.35316,9.888480000000001
520202015,,0.0,0.0,0.0,0.05886,0.35316,9.908100000000001
525252520,,0.0,0.0,0.0,0.07848000000000001,0.33354000000000006,9.89829
530303025,,0.0,0.0,0.0,0.0981,0.38259000000000004,9.89829
535353530,,0.0,0.0,0.0,0.08829,0.37278,9.83943
540404035,,0.0,0.0,0.0,0.05886,0.33354000000000006,9.86886
545454540,,0.0,0.0,0.0,0.04905,0.34335000000000004,9.888480000000001
550505045,,0.0,0.0,0.0,0.05886,0.34335000000000004,9.89829
555555550,,0.0,0.0,0.0,0.08829,0.36297,9.908100000000001
560606055,,0.0,0.0,0.0,0.06867000000000001,0.38259000000000004,9.908100000000001
565656560,,0.0,0.0,0.0,0.06867000000000001,0.35316,9.888480000000001
570707065,,0.0,0.0,0.0,0.08829,0.36297,9.84924
575757570,,0.0,0.0,0.0,0.08829,0.34335000000000004,9.85905
580808075,,0.0,0.0,0.0,0.07848000000000001,0.35316,9.86886
585858580,,0.0,0.0,0.0,0.08829,0.35316,9.87867
590909085,,0.0,0.0,0.0,0.07848000000000001,0.34335000000000004,9.89829
595959590,,0.0,0.0,0.0,0.06867000000000001,0.35316,9.89829
601010095,,0.0,0.0,0.0,0.06867000000000001,0.35316,9.888480000000001
606060600,,0.0,0.0,0.0,0.07848000000000001,0.35316,9.888480000000001
611111105,,0.0,0.0,0.0,0.07848000000000001,0.35316,9.86886
616161610,,0.0,0.0,0.0,0.04905,0.35316,9.86886
621212115,,0.0,0.0,0.0,0.07848000000000001,0.34335000000000004,9.908100000000001
626262620,,0.0,0.0,0.0,0.05886,0.37278,9.87867
631313125,,0.0,0.0,0.0,0.06867000000000001,0.36297,9.908100000000001
636363630,,0.0,0.0,0.0,0.07848000000000001,0.34335000000000004,9.908100000000001
641414135,,0.0,0.0,0.0,0.06867000000000001,0.31392000000000003,9.89829
646464640,,0.0,0.0,0.0,0.06867000000000001,0.33354000000000006,9.87867
651515145,,0.0,0.0,0.0,0.06867000000000001,0.36297,9.86886
656565650,,0.0,0.0,0.0,0.06867000000000001,0.35316,9.84924
661616155,,0.0,0.0,0.0,0.08829,0.36297,9.87867
666666660,,0.0,0.0,0.0,0.08829,0.34335000000000004,9.908100000000001
671717165,,0.0,0.0,0.0,0.08829,0.35316,9.89829
676767670,,0.0,0.0,0.0,0.07848000000000001,0.34335000000000004,9.937529999999999
681818175,,0.0,0.0,0.0,0.07848000000000001,0.33354000000000006,9.888480000000001
686868680,,0.0,0.0,0.0,0.06867000000000001,0.37278,9.908100000000001
691919185,,0.0,0.0,0.0,0.08829,0.36297,9.87867
696969690,,0.0,0.0,0.0,0.06867000000000001,0.37278,9.85905
702020195,,0.0,0.0,0.0,0.06867000000000001,0.36297,9.87867
707070700,,0.0,0.0,0.0,0.08829,0.35316,9.86886
712121205,,0.0,0.0,0.0,0.07848000000000001,0.35316,9.89829
717171710,,0.0,0.0,0.0,0.08829,0.35316,9.91791
722222215,,0.0,0.0,0.0,0.05886,0.33354000000000006,9.91791
727272720,,0.0,0.0,0.0,0.039240000000000004,0.37278,9.888480000000001
732323225,,0.0,0.0,0.0,0.07848000000000001,0.37278,9.85905
737373730,,0.0,0.0,0.0,0.06867000000000001,0.34335000000000004,9.87867
742424235,,0.0,0.0,0.0,0.07848000000000001,0.35316,9.87867
747474740,,0.0,0.0,0.0,0.07848000000000001,0.34335000000000004,9.908100000000001
752525245,,0.0,0.0,0.0,0.07848000000000001,0.34335000000000004,9.91791
757575750,,0.0,0.0,0.0,0.07848000000000001,0.35316,9.92772
762626255,,0.0,0.0,0.0,0.0981,0.34335000000000004,9.89829
767676760,,0.0,0.0,0.0,0.06867000000000001,0.35316,9.86886
772727265,,0.0,0.0,0.0,0.08829,0.37278,9.85905
777777770,,0.0,0.0,0.0,0.08829,0.36297,9.85905
782828275,,0.0,0.0,0.0,0.06867000000000001,0.36297,9.87867
787878780,,0.0,0.0,0.0,0.05886,0.33354000000000006,9.89829
792929285,,0.0,0.0,0.0,0.05886,0.36297,9.86886
797979790,,0.0,0.0,0.0,0.02943,0.33354000000000006,9.87867
803030295,,0.0,0.0,0.0,0.10791,0.37278,9.908100000000001
808080800,,0.0,0.0,0.0,0.06867000000000001,0.34335000000000004,9.89829
813131305,,0.0,0.0,0.0,0.0981,0.37278,9.86886
818181810,,0.0,0.0,0.0,0.07848000000000001,0.36297,9.86886
823232315,,0.0,0.0,0.0,0.07848000000000001,0.36297,9.87867
828282820,,0.0,0.0,0.0,0.07848000000000001,0.33354000000000006,9.86886
833333325,,0.0,0.0,0.0,0.05886,0.32373,9.888480000000001
838383830,,0.0,0.0,0.0,0.07848000000000001,0.31392000000000003,9.89829
843434335,,0.0,0.0,0.0,0.07848000000000001,0.32373,9.92772
848484840,,0.0,0.0,0.0,0.05886,0.33354000000000006,9.888480000000001
853535345,,0.0,0.0,0.0,0.0981,0.38259000000000004,9.888480000000001
858585850,,0.0,0.0,0.0,0.08829,0.37278,9.86886
863636355,,0.0,0.0,0.0,0.08829,0.37278,9.89829
868686860,,0.0,0.0,0.0,0.0981,0.36297,9.87867
873737365,,0.0,0.0,0.0,0.05886,0.33354000000000006,9.89829
878787870,,0.0,0.0,0.0,0.04905,0.32373,9.89829
883838375,,0.0,0.0,0.0,0.06867000000000001,0.33354000000000006,9.908100000000001
888888880,,0.0,0.0,0.0,0.07848000000000001,0.35316,9.888480000000001
893939385,,0.0,0.0,0.0,0.05886,0.38259000000000004,9.87867
898989890,,0.0,0.0,0.0,0.08829,0.35316,9.89829
904040395,,0.0,0.0,0.0,0.06867000000000001,0.38259000000000004,9.86886
909090900,,0.0,0.0,0.0,0.08829,0.35316,9.89829
914141405,,0.0,0.0,0.0,0.10791,0.35316,9.888480000000001
919191910,,0.0,0.0,0.0,0.0981,0.34335000000000004,9.87867
924242415,,0.0,0.0,0.0,0.06867000000000001,0.34335000000000004,9.89829
929292920,,0.0,0.0,0.0,0.07848000000000001,0.33354000000000006,9.908100000000001
934343425,,0.0,0.0,0.0,0.08829,0.34335000000000004,9.91791
939393930,,0.0,0.0,0.0,0.07848000000000001,0.3924,9.87867
944444435,,0.0,0.0,0.0,0.0981,0.35316,9.85905
949494940,,0.0,0.0,0.0,0.08829,0.37278,9.87867
954545445,,0.0,0.0,0.0,0.06867000000000001,0.33354000000000006,9.888480000000001
959595950,,0.0,0.0,0.0,0.08829,0.33354000000000006,9.908100000000001
964646455,,0.0,0.0,0.0,0.08829,0.33354000000000006,9.89829
969696960,,0.0,0.0,0.0,0.06867000000000001,0.37278,9.908100000000001
974747465,,0.0,0.0,0.0,0.08829,0.36297,9.888480000000001
979797970,,0.0,0.0,0.0,0.06867000000000001,0.36297,9.87867
984848475,,0.0,0.0,0.0,0.04905,0.37278,9.84924
989898980,,0.0,0.0,0.0,0.06867000000000001,0.3924,9.85905
994949485,,0.0,0.0,0.0,0.07848000000000001,0.34335000000000004,9.87867
999999990,,0.0,0.0,0.0,0.07848000000000001,0.36297,9.87867
1005050495,,0.0,0.0,0.0,0.08829,0.32373,9.91791
1010101000,,0.0,0.0,0.0,0.07848000000000001,0.34335000000000004,9.92772
1015151505,,0.0,0.0,0.0,0.06867000000000001,0.37278,9.908100000000001
1020202010,,0.0,0.0,0.0,0.08829,0.37278,9.87867
1025252515,,0.0,0.0,0.0,0.08829,0.35316,9.86886
1030303020,,0.0,0.0,0.0,0.05886,0.37278,9.888480000000001
1035353525,,0.0,0.0,0.0,0.08829,0.34335000000000004,9.86886
1040404030,,0.0,0.0,0.0,0.07848000000000001,0.35316,9.91791
1045454535,,0.0,0.0,0.0,0.07848000000000001,0.34335000000000004,9.91791
1050505040,,0.0,0.0,0.0,0.11772,0.32373,9.89829
1055555545,,0.0,0.0,0.0,0.06867000000000001,0.34335000000000004,9.87867
1060606050,,0.0,0.0,0.0,0.05886,0.38259000000000004,9.84924
1065656555,,0.0,0.0,0.0,0.08829,0.36297,9.84924
1070707060,,0.0,0.0,0.0,0.05886,0.32373,9.87867
1075757565,,0.0,0.0,0.0,0.08829,0.32373,9.888480000000001
1080808070,,0.0,0.0,0.0,0.07848000000000001,0.33354000000000006,9.908100000000001
1085858575,,0.0,0.0,0.0,0.07848000000000001,0.31392000000000003,9.91791
1090909080,,0.0,0.0,0.0,0.06867000000000001,0.35316,9.888480000000001
1095959585,,0.0,0.0,0.0,0.06867000000000001,0.35316,9.87867
1101010090,,0.0,0.0,0.0,0.05886,0.36297,9.87867
1106060595,,0.0,0.0,0.0,0.06867000000000001,0.37278,9.84924
1111111100,,0.0,0.0,0.0,0.04905,0.36297,9.87867
1116161605,,0.0,0.0,0.0,0.04905,0.36297,9.86886
1121212110,,0.0,0.0,0.0,0.05886,0.32373,9.888480000000001
1126262615,,0.0,0.0,0.0,0.06867000000000001,0.32373,9.89829
1131313120,,0.0,0.0,0.0,0.06867000000000001,0.35316,9.91791
1136363625,,0.0,0.0,0.0,0.05886,0.35316,9.908100000000001
1141414130,,0.0,0.0,0.0,0.07848000000000001,0.36297,9.888480000000001
1146464635,,0.0,0.0,0.0,0.06867000000000001,0.37278,9.888480000000001
1151515140,,0.0,0.0,0.0,0.0981,0.37278,9.888480000000001
1156565645,,0.0,0.0,0.0,0.0981,0.34335000000000004,9.87867
1161616150,,0.0,0.0,0.0,0.07848000000000001,0.35316,9.91791
1166666655,,0.0,0.0,0.0,0.039240000000000004,0.32373,9.91791
1171717160,,0.0,0.0,0.0,0.07848000000000001,0.34335000000000004,9.91791
1176767665,,0.0,0.0,0.0,0.05886,0.35316,9.87867
1181818170,,0.0,0.0,0.0,0.08829,0.36297,9.87867
1186868675,,0.0,0.0,0.0,0.08829,0.38259000000000004,9.86886
1191919180,,0.0,0.0,0.0,0.07848000000000001,0.36297,9.86886
1196969685,,0.0,0.0,0.0,0.06867000000000001,0.36297,9.86886
1202020190,,0.0,0.0,0.0,0.05886,0.36297,9.87867
1207070695,,0.0,0.0,0.0,0.05886,0.32373,9.908100000000001
1212121200,,0.0,0.0,0.0,0.07848000000000001,0.31392000000000003,9.89829
1217171705,,0.0,0.0,0.0,0.06867000000000001,0.34335000000000004,9.888480000000001
1222222210,,0.0,0.0,0.0,0.07848000000000001,0.35316,9.888480000000001
1227272715,,0.0,0.0,0.0,0.07848000000000001,0.3924,9.86886
1232323220,,0.0,0.0,0.0,0.07848000000000001,0.38259000000000004,9.86886
1237373725,,0.0,0.0,0.0,0.07848000000000001,0.37278,9.87867
1242424230,,0.0,0.0,0.0,0.06867000000000001,0.35316,9.87867
1247474735,,0.0,0.0,0.0,0.06867000000000001,0.33354000000000006,9.908100000000001
1252525240,,0.0,0.0,0.0,0.07848000000000001,0.37278,9.89829
1257575745,,0.0,0.0,0.0,0.0981,0.35316,9.89829
1262626250,,0.0,0.0,0.0,0.06867000000000001,0.3924,9.908100000000001
1267676755,,0.0,0.0,0.0,0.06867000000000001,0.36297,9.87867
1272727260,,0.0,0.0,0.0,0.07848000000000001,0.35316,9.888480000000001
1277777765,,0.0,0.0,0.0,0.07848000000000001,0.3924,9.86886
1282828270,,0.0,0.0,0.0,0.10791,0.37278,9.87867
1287878775,,0.0,0.0,0.0,0.07848000000000001,0.33354000000000006,9.908100000000001
1292929280,,0.0,0.0,0.0,0.04905,0.34335000000000004,9.91791
1297979785,,0.0,0.0,0.0,0.07848000000000001,0.34335000000000004,9.89829
1303030290,,0.0,0.0,0.0,0.04905,0.35316,9.89829
1308080795,,0.0,0.0,0.0,0.07848000000000001,0.35316,9.86886
1313131300,,0.0,0.0,0.0,0.08829,0.36297,9.87867
1318181805,,0.0,0.0,0.0,0.0981,0.34335000000000004,9.87867
1323232310,,0.0,0.0,0.0,0.08829,0.33354000000000006,9.888480000000001
1328282815,,0.0,0.0,0.0,0.05886,0.34335000000000004,9.89829
1333333320,,0.0,0.0,0.0,0.06867000000000001,0.36297,9.908100000000001
1338383825,,0.0,0.0,0.0,0.05886,0.34335000000000004,9.908100000000001
1343434330,,0.0,0.0,0.0,0.06867000000000001,0.35316,9.86886
1348484835,,0.0,0.0,0.0,0.06867000000000001,0.35316,9.888480000000001
1353535340,,0.0,0.0,0.0,0.08829,0.34335000000000004,9.86886
1358585845,,0.0,0.0,0.0,0.06867000000000001,0.32373,9.85905
1363636350,,0.0,0.0,0.0,0.07848000000000001,0.37278,9.888480000000001
1368686855,,0.0,0.0,0.0,0.05886,0.34335000000000004,9.908100000000001
1373737360,,0.0,0.0,0.0,0.0981,0.37278,9.908100000000001
1378787865,,0.0,0.0,0.0,0.04905,0.36297,9.87867
1383838370,,0.0,0.0,0.0,0.07848000000000001,0.37278,9.888480000000001
1388888875,,0.0,0.0,0.0,0.05886,0.37278,9.87867
1393939380,,0.0,0.0,0.0,0.06867000000000001,0.35316,9.85905
1398989885,,0.0,0.0,0.0,0.05886,0.37278,9.86886
1404040390,,0.0,0.0,0.0,0.06867000000000001,0.36297,9.87867
1409090895,,0.0,0.0,0.0,0.08829,0.33354000000000006,9.87867
1414141400,,0.0,0.0,0.0,0.08829,0.36297,9.888480000000001
1419191905,,0.0,0.0,0.0,0.06867000000000001,0.34335000000000004,9.87867
1424242410,,0.0,0.0,0.0,0.039240000000000004,0.35316,9.87867
1429292915,,0.0,0.0,0.0,0.06867000000000001,0.37278,9.89829
1434343420,,0.0,0.0,0.0,0.07848000000000001,0.36297,9.85905
1439393925,,0.0,0.0,0.0,0.08829,0.34335000000000004,9.87867
1444444430,,0.0,0.0,0.0,0.07848000000000001,0.33354000000000006,9.87867
1449494935,,0.0,0.0,0.0,0.06867000000000001,0.34335000000000004,9.908100000000001
1454545440,,0.0,0.0,0.0,0.039240000000000004,0.34335000000000004,9.91791
1459595945,,0.0,0.0,0.0,0.05886,0.38259000000000004,9.908100000000001
1464646450,,0.0,0.0,0.0,0.07848000000000001,0.35316,9.87867
1469696955,,0.0,0.0,0.0,0.06867000000000001,0.33354000000000006,9.888480000000001
1474747460,,0.0,0.0,0.0,0.05886,0.37278,9.86886
1479797965,,0.0,0.0,0.0,0.08829,0.35316,9.87867
1484848470,,0.0,0.0,0.0,0.0981,0.35316,9.888480000000001
1489898975,,0.0,0.0,0.0,0.08829,0.33354000000000006,9.888480000000001
1494949480,,0.0,0.0,0.0,0.06867000000000001,0.34335000000000004,9.89829
1499999985,,0.0,0.0,0.0,0.05886,0.34335000000000004,9.89829
1505050490,,0.0,0.0,0.0,0.06867000000000001,0.35316,9.888480000000001
1510100995,,0.0,0.0,0.0,0.06867000000000001,0.37278,9.888480000000001
1515151500,,0.0,0.0,0.0,0.06867000000000001,0.36297,9.888480000000001
1520202005,,0.0,0.0,0.0,0.07848000000000001,0.35316,9.86886
1525252510,,0.0,0.0,0.0,0.05886,0.32373,9.888480000000001
1530303015,,0.0,0.0,0.0,0.04905,0.34335000000000004,9.888480000000001
1535353520,,0.0,0.0,0.0,0.06867000000000001,0.33354000000000006,9.888480000000001
1540404025,,0.0,0.0,0.0,0.039240000000000004,0.34335000000000004,9.89829
1545454530,,0.0,0.0,0.0,0.07848000000000001,0.36297,9.908100000000001
1550505035,,0.0,0.0,0.0,0.08829,0.36297,9.888480000000001
1555555540,,0.0,0.0,0.0,0.06867000000000001,0.36297,9.888480000000001
1560606045,,0.0,0.0,0.0,0.04905,0.36297,9.89829
1565656550,,0.0,0.0,0.0,0.07848000000000001,0.38259000000000004,9.86886
1570707055,,0.0,0.0,0.0,0.07848000000000001,0.33354000000000006,9.89829
1575757560,,0.0,0.0,0.0,0.04905,0.35316,9.888480000000001
1580808065,,0.0,0.0,0.0,0.05886,0.34335000000000004,9.89829
1585858570,,0.0,0.0,0.0,0.08829,0.34335000000000004,9.89829
1590909075,,0.0,0.0,0.0,0.05886,0.36297,9.89829
1595959580,,0.0,0.0,0.0,0.08829,0.36297,9.84924
1601010085,,0.0,0.0,0.0,0.08829,0.35316,9.87867
1606060590,,0.0,0.0,0.0,0.06867000000000001,0.35316,9.85905
1611111095,,0.0,0.0,0.0,0.06867000000000001,0.33354000000000006,9.908100000000001
1616161600,,0.0,0.0,0.0,0.05886,0.34335000000000004,9.89829
1621212105,,0.0,0.0,0.0,0.07848000000000001,0.33354000000000006,9.92772
1626262610,,0.0,0.0,0.0,0.06867000000000001,0.33354000000000006,9.89829
1631313115,,0.0,0.0,0.0,0.04905,0.36297,9.888480000000001
1636363620,,0.0,0.0,0.0,0.06867000000000001,0.34335000000000004,9.86886
1641414125,,0.0,0.0,0.0,0.0981,0.35316,9.84924
1646464630,,0.0,0.0,0.0,0.07848000000000001,0.37278,9.87867
1651515135,,0.0,0.0,0.0,0.07848000000000001,0.34335000000000004,9.86886
1656565640,,0.0,0.0,0.0,0.08829,0.37278,9.92772
1661616145,,0.0,0.0,0.0,0.06867000000000001,0.35316,9.908100000000001
1666666650,,0.0,0.0,0.0,0.06867000000000001,0.34335000000000004,9.908100000000001
1671717155,,0.0,0.0,0.0,0.06867000000000001,0.37278,9.89829
1676767660,,0.0,0.0,0.0,0.07848000000000001,0.37278,9.888480000000001
1681818165,,0.0,0.0,0.0,0.06867000000000001,0.38259000000000004,9.86886
1686868670,,0.0,0.0,0.0,0.06867000000000001,0.35316,9.86886
1691919175,,0.0,0.0,0.0,0.06867000000000001,0.35316,9.89829
1696969680,,0.0,0.0,0.0,0.08829,0.37278,9.87867
1702020185,,0.0,0.0,0.0,0.07848000000000001,0.33354000000000006,9.87867
1707070690,,0.0,0.0,0.0,0.07848000000000001,0.34335000000000004,9.888480000000001
1712121195,,0.0,0.0,0.0,0.039240000000000004,0.36297,9.89829
1717171700,,0.0,0.0,0.0,0.07848000000000001,0.35316,9.86886
1722222205,,0.0,0.0,0.0,0.08829,0.36297,9.85905
1727272710,,0.0,0.0,0.0,0.07848000000000001,0.35316,9.86886
1732323215,,0.0,0.0,0.0,0.07848000000000001,0.35316,9.89829
1737373720,,0.0,0.0,0.0,0.06867000000000001,0.34335000000000004,9.908100000000001
1742424225,,0.0,0.0,0.0,0.06867000000000001,0.34335000000000004,9.89829
1747474730,,0.0,0.0,0.0,0.05886,0.37278,9.908100000000001
1752525235,,0.0,0.0,0.0,0.06867000000000001,0.36297,9.888480000000001
1757575740,,0.0,0.0,0.0,0.06867000000000001,0.37278,9.888480000000001
1762626245,,0.0,0.0,0.0,0.06867000000000001,0.36297,9.86886
1767676750,,0.0,0.0,0.0,0.05886,0.36297,9.86886
1772727255,,0.0,0.0,0.0,0.039240000000000004,0.37278,9.908100000000001
1777777760,,0.0,0.0,0.0,0.08829,0.33354000000000006,9.888480000000001
1782828265,,0.0,0.0,0.0,0.08829,0.33354000000000006,9.91791
1787878770,,0.0,0.0,0.0,0.06867000000000001,0.36297,9.908100000000001
1792929275,,0.0,0.0,0.0,0.0981,0.36297,9.888480000000001
1797979780,,0.0,0.0,0.0,0.07848000000000001,0.36297,9.87867
1803030285,,0.0,0.0,0.0,0.05886,0.38259000000000004,9.87867
1808080790,,0.0,0.0,0.0,0.06867000000000001,0.36297,9.85905
1813131295,,0.0,0.0,0.0,0.05886,0.34335000000000004,9.85905
1818181800,,0.0,0.0,0.0,0.06867000000000001,0.37278,9.87867
1823232305,,0.0,0.0,0.0,0.08829,0.36297,9.908100000000001
1828282810,,0.0,0.0,0.0,0.06867000000000001,0.34335000000000004,9.908100000000001
1833333315,,0.0,0.0,0.0,0.07848000000000001,0.36297,9.888480000000001
1838383820,,0.0,0.0,0.0,0.07848000000000001,0.35316,9.888480000000001
1843434325,,0.0,0.0,0.0,0.06867000000000001,0.37278,9.888480000000001
1848484830,,0.0,0.0,0.0,0.0981,0.36297,9.87867
1853535335,,0.0,0.0,0.0,0.07848000000000001,0.35316,9.87867
1858585840,,0.0,0.0,0.0,0.05886,0.34335000000000004,9.908100000000001
1863636345,,0.0,0.0,0.0,0.06867000000000001,0.35316,9.89829
1868686850,,0.0,0.0,0.0,0.04905,0.34335000000000004,9.89829
1873737355,,0.0,0.0,0.0,0.07848000000000001,0.33354000000000006,9.908100000000001
1878787860,,0.0,0.0,0.0,0.08829,0.38259000000000004,9.85905
1883838365,,0.0,0.0,0.0,0.07848000000000001,0.35316,9.84924
1888888870,,0.0,0.0,0.0,0.07848000000000001,0.35316,9.85905
1893939375,,0.0,0.0,0.0,0.05886,0.35316,9.888480000000001
1898989880,,0.0,0.0,0.0,0.05886,0.34335000000000004,9.85905
1904040385,,0.0,0.0,0.0,0.05886,0.34335000000000004,9.91791
1909090890,,0.0,0.0,0.0,0.06867000000000001,0.33354000000000006,9.89829
1914141395,,0.0,0.0,0.0,0.05886,0.36297,9.89829
1919191900,,0.0,0.0,0.0,0.06867000000000001,0.36297,9.888480000000001
1924242405,,0.0,0.0,0.0,0.08829,0.36297,9.87867
1929292910,,0.0,0.0,0.0,0.07848000000000001,0.37278,9.85905
1934343415,,0.0,0.0,0.0,0.07848000000000001,0.37278,9.888480000000001
1939393920,,0.0,0.0,0.0,0.05886,0.34335000000000004,9.888480000000001
1944444425,,0.0,0.0,0.0,0.04905,0.34335000000000004,9.91791
1949494930,,0.0,0.0,0.0,0.07848000000000001,0.35316,9.888480000000001
1954545435,,0.0,0.0,0.0,0.06867000000000001,0.35316,9.89829
1959595940,,0.0,0.0,0.0,0.07848000000000001,0.36297,9.87867
1964646445,,0.0,0.0,0.0,0.07848000000000001,0.33354000000000006,9.888480000000001
1969696950,,0.0,0.0,0.0,0.07848000000000001,0.35316,9.85905
1974747455,,0.0,0.0,0.0,0.07848000000000001,0.33354000000000006,9.86886
1979797960,,0.0,0.0,0.0,0.07848000000000001,0.36297,9.888480000000001
1984848465,,0.0,0.0,0.0,0.10791,0.38259000000000004,9.888480000000001
1989898970,,0.0,0.0,0.0,0.05886,0.33354000000000006,9.91791
1994949475,,0.0,0.0,0.0,0.04905,0.34335000000000004,9.89829
1999999980,,0.0,0.0,0.0,0.05886,0.35316,9.92772
2005050485,,0.0,0.0,0.0,0.06867000000000001,0.36297,9.87867
2010100990,,0.0,0.0,0.0,0.06867000000000001,0.36297,9.86886
2015151495,,0.0,0.0,0.0,0.06867000000000001,0.36297,9.87867
2020202000,,0.0,0.0,0.0,0.05886,0.35316,9.87867
2025252505,,0.0,0.0,0.0,0.07848000000000001,0.36297,9.888480000000001
2030303010,,0.0,0.0,0.0,0.06867000000000001,0.37278,9.908100000000001
2035353515,,0.0,0.0,0.0,0.07848000000000001,0.3924,9.908100000000001
2040404020,,0.0,0.0,0.0,0.06867000000000001,0.36297,9.888480000000001
2045454525,,0.0,0.0,0.0,0.06867000000000001,0.34335000000000004,9.888480000000001
2050505030,,0.0,0.0,0.0,0.05886,0.32373,9.86886
2055555535,,0.0,0.0,0.0,0.07848000000000001,0.35316,9.86886
2060606040,,0.0,0.0,0.0,0.07848000000000001,0.33354000000000006,9.89829
2065656545,,0.0,0.0,0.0,0.05886,0.35316,9.888480000000001
2070707050,,0.0,0.0,0.0,0.08829,0.35316,9.888480000000001
2075757555,,0.0,0.0,0.0,0.05886,0.35316,9.87867
2080808060,,0.0,0.0,0.0,0.06867000000000001,0.37278,9.89829
2085858565,,0.0,0.0,0.0,0.07848000000000001,0.35316,9.83943
2090909070,,0.0,0.0,0.0,0.07848000000000001,0.33354000000000006,9.86886
2095959575,,0.0,0.0,0.0,0.08829,0.35316,9.85905
2101010080,,0.0,0.0,0.0,0.05886,0.36297,9.888480000000001
2106060585,,0.0,0.0,0.0,0.06867000000000001,0.34335000000000004,9.908100000000001
2111111090,,0.0,0.0,0.0,0.06867000000000001,0.33354000000000006,9.87867
2116161595,,0.0,0.0,0.0,0.06867000000000001,0.35316,9.87867
2121212100,,0.0,0.0,0.0,0.07848000000000001,0.33354000000000006,9.888480000000001
2126262605,,0.0,0.0,0.0,0.05886,0.36297,9.84924
2131313110,,0.0,0.0,0.0,0.08829,0.38259000000000004,9.89829
2136363615,,0.0,0.0,0.0,0.07848000000000001,0.36297,9.86886
2141414120,,0.0,0.0,0.0,0.07848000000000001,0.35316,9.89829
2146464625,,0.0,0.0,0.0,0.07848000000000001,0.33354000000000006,9.87867
2151515130,,0.0,0.0,0.0,0.06867000000000001,0.36297,9.89829
2156565635,,0.0,0.0,0.0,0.05886,0.35316,9.91791
2161616140,,0.0,0.0,0.0,0.07848000000000001,0.37278,9.91791
2166666645,,0.0,0.0,0.0,0.07848000000000001,0.36297,9.89829
2171717150,,0.0,0.0,0.0,0.07848000000000001,0.35316,9.87867
2176767655,,0.0,0.0,0.0,0.07848000000000001,0.34335000000000004,9.87867
2181818160,,0.0,0.0,0.0,0.06867000000000001,0.37278,9.87867
2186868665,,0.0,0.0,0.0,0.06867000000000001,0.37278,9.89829
2191919170,,0.0,0.0,0.0,0.05886,0.34335000000000004,9.888480000000001
2196969675,,0.0,0.0,0.0,0.04905,0.34335000000000004,9.89829
2202020180,,0.0,0.0,0.0,0.06867000000000001,0.34335000000000004,9.908100000000001
2207070685,,0.0,0.0,0.0,0.0981,0.35316,9.888480000000001
2212121190,,0.0,0.0,0.0,0.05886,0.35316,9.85905
2217171695,,0.0,0.0,0.0,0.07848000000000001,0.36297,9.87867
2222222200,,0.0,0.0,0.0,0.08829,0.35316,9.86886
2227272705,,0.0,0.0,0.0,0.06867000000000001,0.32373,9.89829
2232323210,,0.0,0.0,0.0,0.06867000000000001,0.34335000000000004,9.888480000000001
2237373715,,0.0,0.0,0.0,0.07848000000000001,0.35316,9.91791
2242424220,,0.0,0.0,0.0,0.06867000000000001,0.36297,9.908100000000001
2247474725,,0.0,0.0,0.0,0.07848000000000001,0.35316,9.87867
2252525230,,0.0,0.0,0.0,0.06867000000000001,0.3924,9.87867
2257575735,,0.0,0.0,0.0,0.06867000000000001,0.37278,9.888480000000001
2262626240,,0.0,0.0,0.0,0.07848000000000001,0.37278,9.888480000000001
2267676745,,0.0,0.0,0.0,0.08829,0.36297,9.87867
2272727250,,0.0,0.0,0.0,0.06867000000000001,0.34335000000000004,9.89829
2277777755,,0.0,0.0,0.0,0.06867000000000001,0.33354000000000006,9.908100000000001
2282828260,,0.0,0.0,0.0,0.05886,0.36297,9.908100000000001
2287878765,,0.0,0.0,0.0,0.05886,0.36297,9.89829
2292929270,,0.0,0.0,0.0,0.06867000000000001,0.34335000000000004,9.908100000000001
2297979775,,0.0,0.0,0.0,0.06867000000000001,0.33354000000000006,9.86886
2303030280,,0.0,0.0,0.0,0.05886,0.38259000000000004,9.908100000000001
2308080785,,0.0,0.0,0.0,0.07848000000000001,0.34335000000000004,9.888480000000001
2313131290,,0.0,0.0,0.0,0.06867000000000001,0.33354000000000006,9.89829
2318181795,,0.0,0.0,0.0,0.0981,0.36297,9.908100000000001
2323232300,,0.0,0.0,0.0,0.08829,0.34335000000000004,9.908100000000001
2328282805,,0.0,0.0,0.0,0.07848000000000001,0.32373,9.85905
2333333310,,0.0,0.0,0.0,0.05886,0.37278,9.888480000000001
2338383815,,0.0,0.0,0.0,0.05886,0.34335000000000004,9.87867
2343434320,,0.0,0.0,0.0,0.08829,0.36297,9.87867
2348484825,,0.0,0.0,0.0,0.07848000000000001,0.35316,9.87867
2353535330,,0.0,0.0,0.0,0.08829,0.38259000000000004,9.908100000000001
2358585835,,0.0,0.0,0.0,0.08829,0.33354000000000006,9.908100000000001
2363636340,,0.0,0.0,0.0,0.05886,0.33354000000000006,9.91791
2368686845,,0.0,0.0,0.0,0.06867000000000001,0.34335000000000004,9.888480000000001
2373737350,,0.0,0.0,0.0,0.08829,0.37278,9.85905
2378787855,,0.0,0.0,0.0,0.05886,0.33354000000000006,9.888480000000001
2383838360,,0.0,0.0,0.0,0.08829,0.35316,9.888480000000001
2388888865,,0.0,0.0,0.0,0.04905,0.33354000000000006,9.89829
2393939370,,0.0,0.0,0.0,0.06867000000000001,0.35316,9.86886
2398989875,,0.0,0.0,0.0,0.0981,0.37278,9.89829
2404040380,,0.0,0.0,0.0,0.0981,0.34335000000000004,9.888480000000001
2409090885,,0.0,0.0,0.0,0.05886,0.35316,9.91791
2414141390,,0.0,0.0,0.0,0.06867000000000001,0.36297,9.86886
2419191895,,0.0,0.0,0.0,0.06867000000000001,0.37278,9.87867
2424242400,,0.0,0.0,0.0,0.06867000000000001,0.37278,9.87867
2429292905,,0.0,0.0,0.0,0.07848000000000001,0.35316,9.86886
2434343410,,0.0,0.0,0.0,0.06867000000000001,0.35316,9.91791
2439393915,,0.0,0.0,0.0,0.05886,0.36297,9.89829
2444444420,,0.0,0.0,0.0,0.07848000000000001,0.37278,9.888480000000001
2449494925,,0.0,0.0,0.0,0.07848000000000001,0.34335000000000004,9.908100000000001
2454545430,,0.0,0.0,0.0,0.02943,0.37278,9.888480000000001
2459595935,,0.0,0.0,0.0,0.07848000000000001,0.36297,9.86886
2464646440,,0.0,0.0,0.0,0.039240000000000004,0.36297,9.888480000000001
2469696945,,0.0,0.0,0.0,0.08829,0.37278,9.84924
2474747450,,0.0,0.0,0.0,0.06867000000000001,0.36297,9.888480000000001
2479797955,,0.0,0.0,0.0,0.08829,0.34335000000000004,9.888480000000001
2484848460,,0.0,0.0,0.0,0.02943,0.32373,9.89829
2489898965,,0.0,0.0,0.0,0.05886,0.37278,9.908100000000001
2494949470,,0.0,0.0,0.0,0.07848000000000001,0.36297,9.86886
2499999975,,0.0,0.0,0.0,0.07848000000000001,0.36297,9.89829
2505050480,,0.0,0.0,0.0,0.08829,0.36297,9.87867
2510100985,,0.0,0.0,0.0,0.0981,0.34335000000000004,9.89829
2515151490,,0.0,0.0,0.0,0.06867000000000001,0.34335000000000004,9.888480000000001
2520201995,,0.0,0.0,0.0,0.05886,0.36297,9.888480000000001
2525252500,,0.0,0.0,0.0,0.07848000000000001,0.35316,9.89829
2530303005,,0.0,0.0,0.0,0.06867000000000001,0.35316,9.87867
2535353510,,0.0,0.0,0.0,0.08829,0.35316,9.87867
2540404015,,0.0,0.0,0.0,0.06867000000000001,0.36297,9.888480000000001
2545454520,,0.0,0.0,0.0,0.06867000000000001,0.36297,9.87867
2550505025,,0.0,0.0,0.0,0.08829,0.35316,9.85905
2555555530,,0.0,0.0,0.0,0.0981,0.37278,9.91791
2560606035,,0.0,0.0,0.0,0.07848000000000001,0.34335000000000004,9.86886
2565656540,,0.0,0.0,0.0,0.04905,0.32373,9.888480000000001
2570707045,,0.0,0.0,0.0,0.05886,0.35316,9.89829
2575757550,,0.0,0.0,0.0,0.05886,0.35316,9.91791
2580808055,,0.0,0.0,0.0,0.08829,0.37278,9.87867
2585858560,,0.0,0.0,0.0,0.08829,0.36297,9.87867
2590909065,,0.0,0.0,0.0,0.06867000000000001,0.37278,9.89829
2595959570,,0.0,0.0,0.0,0.06867000000000001,0.36297,9.87867
2601010075,,0.0,0.0,0.0,0.08829,0.35316,9.91791
2606060580,,0.0,0.0,0.0,0.05886,0.34335000000000004,9.89829
2611111085,,0.0,0.0,0.0,0.06867000000000001,0.34335000000000004,9.908100000000001
2616161590,,0.0,0.0,0.0,0.05886,0.37278,9.888480000000001
2621212095,,0.0,0.0,0.0,0.06867000000000001,0.35316,9.89829
2626262600,,0.0,0.0,0.0,0.08829,0.37278,9.86886
2631313105,,0.0,0.0,0.0,0.06867000000000001,0.35316,9.86886
2636363610,,0.0,0.0,0.0,0.06867000000000001,0.37278,9.86886
2641414115,,0.0,0.0,0.0,0.07848000000000001,0.34335000000000004,9.888480000000001
2646464620,,0.0,0.0,0.0,0.06867000000000001,0.34335000000000004,9.908100000000001
2651515125,,0.0,0.0,0.0,0.07848000000000001,0.36297,9.91791
2656565630,,0.0,0.0,0.0,0.06867000000000001,0.35316,9.86886
2661616135,,0.0,0.0,0.0,0.06867000000000001,0.35316,9.87867
2666666640,,0.0,0.0,0.0,0.06867000000000001,0.37278,9.86886
2671717145,,0.0,0.0,0.0,0.07848000000000001,0.34335000000000004,9.87867
2676767650,,0.0,0.0,0.0,0.07848000000000001,0.33354000000000006,9.908100000000001
2681818155,,0.0,0.0,0.0,0.06867000000000001,0.34335000000000004,9.908100000000001
2686868660,,0.0,0.0,0.0,0.06867000000000001,0.35316,9.888480000000001
2691919165,,0.0,0.0,0.0,0.06867000000000001,0.37278,9.87867
2696969670,,0.0,0.0,0.0,0.08829,0.35316,9.89829
2702020175,,0.0,0.0,0.0,0.08829,0.35316,9.888480000000001
2707070680,,0.0,0.0,0.0,0.06867000000000001,0.35316,9.87867
2712121185,,0.0,0.0,0.0,0.06867000000000001,0.3924,9.87867
2717171690,,0.0,0.0,0.0,0.07848000000000001,0.37278,9.86886
2722222195,,0.0,0.0,0.0,0.06867000000000001,0.34335000000000004,9.86886
2727272700,,0.0,0.0,0.0,0.08829,0.34335000000000004,9.86886
2732323205,,0.0,0.0,0.0,0.05886,0.36297,9.86886
2737373710,,0.0,0.0,0.0,0.07848000000000001,0.36297,9.91791
2742424215,,0.0,0.0,0.0,0.07848000000000001,0.34335000000000004,9.888480000000001
2747474720,,0.0,0.0,0.0,0.07848000000000001,0.35316,9.908100000000001
2752525225,,0.0,0.0,0.0,0.07848000000000001,0.34335000000000004,9.87867
2757575730,,0.0,0.0,0.0,0.08829,0.34335000000000004,9.85905
2762626235,,0.0,0.0,0.0,0.11772,0.37278,9.89829
2767676740,,0.0,0.0,0.0,0.05886,0.35316,9.888480000000001
2772727245,,0.0,0.0,0.0,0.05886,0.35316,9.91791
2777777750,,0.0,0.0,0.0,0.05886,0.36297,9.888480000000001
2782828255,,0.0,0.0,0.0,0.06867000000000001,0.32373,9.87867
2787878760,,0.0,0.0,0.0,0.08829,0.35316,9.89829
2792929265,,0.0,0.0,0.0,0.08829,0.36297,9.87867
2797979770,,0.0,0.0,0.0,0.05886,0.36297,9.888480000000001
2803030275,,0.0,0.0,0.0,0.07848000000000001,0.34335000000000004,9.86886
2808080780,,0.0,0.0,0.0,0.08829,0.34335000000000004,9.89829
2813131285,,0.0,0.0,0.0,0.08829,0.37278,9.888480000000001
2818181790,,0.0,0.0,0.0,0.06867000000000001,0.33354000000000006,9.888480000000001
2823232295,,0.0,0.0,0.0,0.06867000000000001,0.35316,9.888480000000001
2828282800,,0.0,0.0,0.0,0.06867000000000001,0.34335000000000004,9.87867
2833333305,,0.0,0.0,0.0,0.06867000000000001,0.33354000000000006,9.87867
2838383810,,0.0,0.0,0.0,0.07848000000000001,0.35316,9.888480000000001
2843434315,,0.0,0.0,0.0,0.06867000000000001,0.36297,9.888480000000001
2848484820,,0.0,0.0,0.0,0.06867000000000001,0.36297,9.89829
2853535325,,0.0,0.0,0.0,0.08829,0.33354000000000006,9.87867
2858585830,,0.0,0.0,0.0,0.08829,0.36297,9.87867
2863636335,,0.0,0.0,0.0,0.06867000000000001,0.35316,9.87867
2868686840,,0.0,0.0,0.0,0.07848000000000001,0.35316,9.86886
2873737345,,0.0,0.0,0.0,0.0981,0.34335000000000004,9.89829
2878787850,,0.0,0.0,0.0,0.06867000000000001,0.36297,9.89829
2883838355,,0.0,0.0,0.0,0.05886,0.33354000000000006,9.908100000000001
2888888860,,0.0,0.0,0.0,0.07848000000000001,0.34335000000000004,9.87867
2893939365,,0.0,0.0,0.0,0.10791,0.33354000000000006,9.91791
2898989870,,0.0,0.0,0.0,0.05886,0.36297,9.908100000000001
2904040375,,0.0,0.0,0.0,0.06867000000000001,0.34335000000000004,9.908100000000001
2909090880,,0.0,0.0,0.0,0.07848000000000001,0.36297,9.87867
2914141385,,0.0,0.0,0.0,0.08829,0.37278,9.87867
2919191890,,0.0,0.0,0.0,0.05886,0.35316,9.888480000000001
2924242395,,0.0,0.0,0.0,0.07848000000000001,0.34335000000000004,9.888480000000001
2929292900,,0.0,0.0,0.0,0.05886,0.35316,9.86886
2934343405,,0.0,0.0,0.0,0.06867000000000001,0.35316,9.89829
2939393910,,0.0,0.0,0.0,0.06867000000000001,0.36297,9.908100000000001
2944444415,,0.0,0.0,0.0,0.07848000000000001,0.34335000000000004,9.89829
2949494920,,0.0,0.0,0.0,0.07848000000000001,0.37278,9.86886
2954545425,,0.0,0.0,0.0,0.06867000000000001,0.30411,9.87867
2959595930,,0.0,0.0,0.0,0.08829,0.34335000000000004,9.86886
2964646435,,0.0,0.0,0.0,0.07848000000000001,0.34335000000000004,9.86886
2969696940,,0.0,0.0,0.0,0.08829,0.35316,9.86886
2974747445,,0.0,0.0,0.0,0.07848000000000001,0.34335000000000004,9.888480000000001
2979797950,,0.0,0.0,0.0,0.04905,0.35316,9.89829
2984848455,,0.0,0.0,0.0,0.06867000000000001,0.36297,9.91791
2989898960,,0.0,0.0,0.0,0.0981,0.33354000000000006,9.86886
2994949465,,0.0,0.0,0.0,0.08829,0.34335000000000004,9.86886
2999999970,,0.0,0.0,0.0,0.07848000000000001,0.37278,9.85905
3005050475,,0.0,0.0,0.0,0.07848000000000001,0.36297,9.888480000000001
3010100980,,0.0,0.0,0.0,0.06867000000000001,0.34335000000000004,9.91791
3015151485,,0.0,0.0,0.0,0.04905,0.34335000000000004,9.908100000000001
3020201990,,0.0,0.0,0.0,0.05886,0.34335000000000004,9.89829
3025252495,,0.0,0.0,0.0,0.06867000000000001,0.34335000000000004,9.87867
3030303000,,0.0,0.0,0.0,0.06867000000000001,0.34335000000000004,9.87867
3035353505,,0.0,0.0,0.0,0.07848000000000001,0.36297,9.888480000000001
3040404010,,0.0,0.0,0.0,0.07848000000000001,0.33354000000000006,9.86886
3045454515,,0.0,0.0,0.0,0.07848000000000001,0.35316,9.888480000000001
3050505020,,0.0,0.0,0.0,0.06867000000000001,0.33354000000000006,9.888480000000001
3055555525,,0.0,0.0,0.0,0.04905,0.35316,9.89829
3060606030,,0.0,0.0,0.0,0.06867000000000001,0.34335000000000004,9.888480000000001
3065656535,,0.0,0.0,0.0,0.07848000000000001,0.36297,9.86886
3070707040,,0.0,0.0,0.0,0.0981,0.32373,9.89829
3075757545,,0.0,0.0,0.0,0.05886,0.36297,9.908100000000001
3080808050,,0.0,0.0,0.0,0.08829,0.36297,9.87867
3085858555,,0.0,0.0,0.0,0.06867000000000001,0.37278,9.87867
3090909060,,0.0,0.0,0.0,0.05886,0.34335000000000004,9.87867
3095959565,,0.0,0.0,0.0,0.07848000000000001,0.34335000000000004,9.89829
3101010070,,0.0,0.0,0.0,0.08829,0.35316,9.92772
3106060575,,0.0,0.0,0.0,0.06867000000000001,0.34335000000000004,9.908100000000001
3111111080,,0.0,0.0,0.0,0.08829,0.36297,9.87867
3116161585,,0.0,0.0,0.0,0.04905,0.36297,9.87867
3121212090,,0.0,0.0,0.0,0.06867000000000001,0.37278,9.86886
3126262595,,0.0,0.0,0.0,0.08829,0.35316,9.87867
3131313100,,0.0,0.0,0.0,0.08829,0.34335000000000004,9.87867
3136363605,,0.0,0.0,0.0,0.05886,0.35316,9.87867
3141414110,,0.0,0.0,0.0,0.04905,0.36297,9.888480000000001
3146464615,,0.0,0.0,0.0,0.06867000000000001,0.36297,9.89829
3151515120,,0.0,0.0,0.0,0.07848000000000001,0.36297,9.888480000000001
3156565625,,0.0,0.0,0.0,0.04905,0.33354000000000006,9.888480000000001
3161616130,,0.0,0.0,0.0,0.06867000000000001,0.35316,9.888480000000001
3166666635,,0.0,0.0,0.0,0.04905,0.35316,9.888480000000001
3171717140,,0.0,0.0,0.0,0.0981,0.32373,9.888480000000001
3176767645,,0.0,0.0,0.0,0.04905,0.34335000000000004,9.91791
3181818150,,0.0,0.0,0.0,0.07848000000000001,0.37278,9.87867
3186868655,,0.0,0.0,0.0,0.06867000000000001,0.37278,9.908100000000001
3191919160,,0.0,0.0,0.0,0.08829,0.33354000000000006,9.908100000000001
3196969665,,0.0,0.0,0.0,0.05886,0.35316,9.89829
3202020170,,0.0,0.0,0.0,0.07848000000000001,0.35316,9.888480000000001
3207070675,,0.0,0.0,0.0,0.05886,0.33354000000000006,9.87867
3212121180,,0.0,0.0,0.0,0.08829,0.35316,9.89829
3217171685,,0.0,0.0,0.0,0.05886,0.36297,9.89829
3222222190,,0.0,0.0,0.0,0.0981,0.37278,9.908100000000001
3227272695,,0.0,0.0,0.0,0.08829,0.34335000000000004,9.91791
3232323200,,0.0,0.0,0.0,0.08829,0.35316,9.87867
3237373705,,0.0,0.0,0.0,0.05886,0.34335000000000004,9.87867
3242424210,,0.0,0.0,0.0,0.04905,0.36297,9.87867
3247474715,,0.0,0.0,0.0,0.06867000000000001,0.36297,9.87867
3252525220,,0.0,0.0,0.0,0.07848000000000001,0.34335000000000004,9.89829
3257575725,,0.0,0.0,0.0,0.08829,0.34335000000000004,9.908100000000001
3262626230,,0.0,0.0,0.0,0.07848000000000001,0.36297,9.888480000000001
3267676735,,0.0,0.0,0.0,0.07848000000000001,0.34335000000000004,9.89829
3272727240,,0.0,0.0,0.0,0.06867000000000001,0.35316,9.888480000000001
3277777745,,0.0,0.0,0.0,0.08829,0.33354000000000006,9.888480000000001
3282828250,,0.0,0.0,0.0,0.08829,0.34335000000000004,9.908100000000001
3287878755,,0.0,0.0,0.0,0.06867000000000001,0.36297,9.87867
3292929260,,0.0,0.0,0.0,0.07848000000000001,0.35316,9.86886
3297979765,,0.0,0.0,0.0,0.07848000000000001,0.36297,9.92772
3303030270,,0.0,0.0,0.0,0.06867000000000001,0.35316,9.888480000000001
3308080775,,0.0,0.0,0.0,0.05886,0.33354000000000006,9.87867
3313131280,,0.0,0.0,0.0,0.04905,0.33354000000000006,9.908100000000001
3318181785,,0.0,0.0,0.0,0.10791,0.34335000000000004,9.888480000000001
3323232290,,0.0,0.0,0.0,0.06867000000000001,0.33354000000000006,9.86886
3328282795,,0.0,0.0,0.0,0.07848000000000001,0.35316,9.87867
3333333300,,0.0,0.0,0.0,0.08829,0.35316,9.87867
3338383805,,0.0,0.0,0.0,0.0981,0.37278,9.86886
3343434310,,0.0,0.0,0.0,0.05886,0.37278,9.908100000000001
3348484815,,0.0,0.0,0.0,0.05886,0.35316,9.888480000000001
3353535320,,0.0,0.0,0.0,0.06867000000000001,0.36297,9.87867
3358585825,,0.0,0.0,0.0,0.05886,0.35316,9.87867
3363636330,,0.0,0.0,0.0,0.06867000000000001,0.34335000000000004,9.86886
3368686835,,0.0,0.0,0.0,0.06867000000000001,0.35316,9.86886
3373737340,,0.0,0.0,0.0,0.08829,0.35316,9.888480000000001
3378787845,,0.0,0.0,0.0,0.07848000000000001,0.33354000000000006,9.86886
3383838350,,0.0,0.0,0.0,0.08829,0.36297,9.888480000000001
3388888855,,0.0,0.0,0.0,0.06867000000000001,0.37278,9.91791
3393939360,,0.0,0.0,0.0,0.07848000000000001,0.35316,9.888480000000001
3398989865,,0.0,0.0,0.0,0.05886,0.36297,9.87867
3404040370,,0.0,0.0,0.0,0.07848000000000001,0.37278,9.87867
3409090875,,0.0,0.0,0.0,0.08829,0.35316,9.89829
3414141380,,0.0,0.0,0.0,0.06867000000000001,0.35316,9.86886
3419191885,,0.0,0.0,0.0,0.08829,0.36297,9.85905
3424242390,,0.0,0.0,0.0,0.07848000000000001,0.37278,9.888480000000001
3429292895,,0.0,0.0,0.0,0.0981,0.35316,9.89829
3434343400,,0.0,0.0,0.0,0.05886,0.36297,9.888480000000001
3439393905,,0.0,0.0,0.0,0.0981,0.34335000000000004,9.908100000000001
3444444410,,0.0,0.0,0.0,0.06867000000000001,0.34335000000000004,9.87867
3449494915,,0.0,0.0,0.0,0.039240000000000004,0.35316,9.91791
3454545420,,0.0,0.0,0.0,0.06867000000000001,0.35316,9.888480000000001
3459595925,,0.0,0.0,0.0,0.08829,0.35316,9.888480000000001
3464646430,,0.0,0.0,0.0,0.08829,0.34335000000000004,9.87867
3469696935,,0.0,0.0,0.0,0.06867000000000001,0.36297,9.908100000000001
3474747440,,0.0,0.0,0.0,0.08829,0.35316,9.87867
3479797945,,0.0,0.0,0.0,0.07848000000000001,0.35316,9.92772
3484848450,,0.0,0.0,0.0,0.04905,0.35316,9.888480000000001
3489898955,,0.0,0.0,0.0,0.05886,0.37278,9.87867
3494949460,,0.0,0.0,0.0,0.0981,0.36297,9.888480000000001
3499999965,,0.0,0.0,0.0,0.07848000000000001,0.33354000000000006,9.86886
3505050470,,0.0,0.0,0.0,0.07848000000000001,0.33354000000000006,9.908100000000001
3510100975,,0.0,0.0,0.0,0.06867000000000001,0.35316,9.87867
3515151480,,0.0,0.0,0.0,0.05886,0.36297,9.85905
3520201985,,0.0,0.0,0.0,0.04905,0.36297,9.91791
3525252490,,0.0,0.0,0.0,0.07848000000000001,0.36297,9.888480000000001
3530302995,,0.0,0.0,0.0,0.06867000000000001,0.36297,9.87867
3535353500,,0.0,0.0,0.0,0.08829,0.36297,9.85905
3540404005,,0.0,0.0,0.0,0.07848000000000001,0.36297,9.84924
3545454510,,0.0,0.0,0.0,0.07848000000000001,0.37278,9.85905
3550505015,,0.0,0.0,0.0,0.06867000000000001,0.34335000000000004,9.87867
3555555520,,0.0,0.0,0.0,0.07848000000000001,0.37278,9.86886
3560606025,,0.0,0.0,0.0,0.05886,0.36297,9.819809999999999
3565656530,,0.0,0.0,0.0,0.04905,0.36297,9.85905
3570707035,,0.0,0.0,0.0,0.07848000000000001,0.37278,9.82962
3575757540,,0.0,0.0,0.0,0.08829,0.37278,9.85905
3580808045,,0.0,0.0,0.0,0.08829,0.33354000000000006,9.87867
3585858550,,0.0,0.0,0.0,0.06867000000000001,0.35316,9.87867
3590909055,,0.0,0.0,0.0,0.07848000000000001,0.32373,9.91791
3595959560,,0.0,0.0,0.0,0.06867000000000001,0.34335000000000004,9.91791
3601010065,,0.0,0.0,0.0,0.06867000000000001,0.33354000000000006,9.92772
3606060570,,0.0,0.0,0.0,0.05886,0.34335000000000004,9.908100000000001
3611111075,,0.0,0.0,0.0,0.05886,0.36297,9.91791
3616161580,,0.0,0.0,0.0,0.08829,0.36297,9.91791
3621212085,,0.0,0.0,0.0,0.0981,0.38259000000000004,9.888480000000001
3626262590,,0.0,0.0,0.0,0.04905,0.38259000000000004,9.86886
3631313095,,0.0,0.0,0.0,0.07848000000000001,0.36297,9.89829
3636363600,,0.0,0.0,0.0,0.0981,0.37278,9.86886
3641414105,,0.0,0.0,0.0,0.039240000000000004,0.37278,9.86886
3646464610,,0.0,0.0,0.0,0.08829,0.36297,9.85905
3651515115,,0.0,0.0,0.0,0.06867000000000001,0.33354000000000006,9.86886
3656565620,,0.0,0.0,0.0,0.06867000000000001,0.35316,9.83943
3661616125,,0.0,0.0,0.0,0.039240000000000004,0.32373,9.83943
3666666630,,0.0,0.0,0.0,0.04905,0.36297,9.84924
3671717135,,0.0,0.0,0.0,0.05886,0.33354000000000006,9.83943
3676767640,,0.0,0.0,0.0,0.06867000000000001,0.35316,9.86886
3681818145,,0.0,0.0,0.0,0.06867000000000001,0.35316,9.87867
3686868650,,0.0,0.0,0.0,0.08829,0.33354000000000006,9.87867
3691919155,,0.0,0.0,0.0,0.08829,0.34335000000000004,9.89829
3696969660,,0.0,0.0,0.0,0.10791,0.37278,9.89829
3702020165,,0.0,0.0,0.0,0.10791,0.35316,9.908100000000001
3707070670,,0.0,0.0,0.0,0.07848000000000001,0.33354000000000006,9.908100000000001
3712121175,,0.0,0.0,0.0,0.08829,0.35316,9.888480000000001
3717171680,,0.0,0.0,0.0,0.08829,0.37278,9.908100000000001
3722222185,,0.0,0.0,0.0,0.08829,0.35316,9.87867
3727272690,,0.0,0.0,0.0,0.07848000000000001,0.40221,9.888480000000001
3732323195,,0.0,0.0,0.0,0.07848000000000001,0.37278,9.87867
3737373700,,0.0,0.0,0.0,0.04905,0.34335000000000004,9.84924
3742424205,,0.0,0.0,0.0,0.039240000000000004,0.36297,9.83943
3747474710,,0.0,0.0,0.0,0.05886,0.36297,9.85905
3752525215,,0.0,0.0,0.0,0.05886,0.36297,9.84924
3757575720,,0.0,0.0,0.0,0.06867000000000001,0.36297,9.85905
3762626225,,0.0,0.0,0.0,0.04905,0.32373,9.85905
3767676730,,0.0,0.0,0.0,0.04905,0.37278,9.81
3772727235,,0.004258603374866164,-0.012775810124598492,0.0,0.019620000000000002,0.41202000000000005,9.86886
3777777740,,0.0,-0.024504422698000388,0.0,0.17658,0.41202000000000005,9.751140000000001
3782828245,,-0.007452555906015787,0.014905111812031574,0.0,0.1962,0.37278,9.770760000000001
3787878750,,-0.007452555906015787,0.012775810124598492,0.0,-0.04905,0.37278,9.81
3792929255,,-0.011711159280881954,-0.0170518667919846,0.0,0.08829,0.35316,9.82962
3797979760,,-0.015987215948268057,0.01064650843716541,0.0,0.16677000000000003,0.30411,9.80019
3803030265,,-0.007452555906015787,0.003193952531149623,0.0,0.04905,0.32373,9.86886
3808080770,,-0.005323254218582705,0.003193952531149623,0.0,0.05886,0.26487,9.98658
3813131275,,-0.005323254218582705,-0.01064650843716541,0.0,0.04905,0.28449,9.94734
3818181780,,0.001064650843716541,-0.004258603374866164,0.0,0.14715,0.24525000000000002,10.01601
3823232285,,0.004258603374866164,0.015987215948268057,0.0,0.05886,0.33354000000000006,10.045440000000001
3828282790,,0.015987215948268057,-0.013840460968315033,0.0,0.07848000000000001,0.40221,9.87867
3833333295,,0.02769837522915001,0.02663372438543347,0.0,0.28449,0.47088,9.937529999999999
3838383800,,0.01811651763570114,0.06284930636431581,0.0,-0.039240000000000004,0.48069000000000006,9.937529999999999
3843434305,,-0.0170518667919846,-0.012775810124598492,0.0,-0.20601000000000003,0.41202000000000005,9.82962
3848484810,,-0.03515093113516579,-0.03621558197888234,0.0,0.16677000000000003,0.32373,9.937529999999999
3853535315,,-0.02663372438543347,0.001064650843716541,0.0,0.009810000000000001,0.2943,9.89829
3858585820,,-0.011711159280881954,-0.04581489286485115,0.0,0.06867000000000001,0.2943,9.87867
3863636325,,-0.008517206749732328,0.003193952531149623,0.0,0.31392000000000003,0.26487,9.97677
3868686830,,-0.002129301687433082,0.04366813788489812,0.0,0.05886,0.25506,10.006200000000002
3873737335,,-0.004258603374866164,0.028763026072866547,0.0,-0.04905,0.22563,9.98658
3878787840,,0.006387905062299246,-0.033021629447732716,0.0,-0.1962,0.37278,10.006200000000002
3883838345,,0.0,-0.04794419455228423,0.0,0.28449,0.27468000000000004,10.006200000000002
3888888850,,-0.014905111812031574,0.0170518667919846,0.0,0.11772,0.28449,9.82962
3893939355,,0.00958185759344887,-0.01064650843716541,0.0,0.039240000000000004,0.36297,9.86886
3898989860,,0.013840460968315033,0.005323254218582705,0.0,0.17658,0.42183,9.96696
3904040365,,0.023439771854283843,0.004258603374866164,0.0,0.15696000000000002,0.46107000000000004,9.79038
3909090870,,0.005323254218582705,0.020245819323134222,0.0,0.06867000000000001,0.43164,9.85905
3914141375,,-0.01064650843716541,-0.008517206749732328,0.0,0.0,0.41202000000000005,9.87867
3919191880,,-0.023439771854283843,-0.00958185759344887,0.0,0.16677000000000003,0.31392000000000003,9.760950000000001
3924242385,,-0.020245819323134222,0.011711159280881954,0.0,0.07848000000000001,0.33354000000000006,9.82962
3929292890,,-0.012775810124598492,-0.008517206749732328,0.0,0.07848000000000001,0.26487,9.79038
3934343395,,-0.01064650843716541,0.006387905062299246,0.0,0.12753,0.32373,9.81
3939393900,,0.006387905062299246,0.011711159280881954,0.0,0.0981,0.36297,9.84924
3944444405,,-0.00958185759344887,0.02556907354171693,0.0,0.04905,0.27468000000000004,9.819809999999999
3949494910,,-0.007452555906015787,0.008517206749732328,0.0,-0.10791,0.31392000000000003,9.80019
3954545415,,0.001064650843716541,-0.01918116847941768,0.0,-0.02943,0.33354000000000006,9.82962
3959595920,,0.004258603374866164,-0.022375121010567305,0.0,0.05886,0.41202000000000005,9.78057
3964646425,,0.008517206749732328,-0.023439771854283843,0.0,0.18639,0.38259000000000004,9.78057
3969696930,,-0.004258603374866164,0.0170518667919846,0.0,0.15696000000000002,0.41202000000000005,9.81
3974747435,,0.0,0.008517206749732328,0.0,0.039240000000000004,0.42183,9.85905
3979797940,,-0.01064650843716541,0.0,0.0,0.05886,0.36297,9.81
3984848445,,-0.013840460968315033,-0.002129301687433082,0.0,0.07848000000000001,0.35316,9.86886
3989898950,,-0.013840460968315033,-0.011711159280881954,0.0,0.11772,0.32373,9.81
3994949455,,-0.014905111812031574,0.006387905062299246,0.0,0.11772,0.27468000000000004,9.87867
3999999960,,-0.00958185759344887,0.006387905062299246,0.0,0.06867000000000001,0.2943,9.937529999999999
4005050465,,-0.007452555906015787,0.002129301687433082,0.0,0.019620000000000002,0.31392000000000003,9.908100000000001
4010100970,,-0.002129301687433082,-0.014905111812031574,0.0,0.06867000000000001,0.32373,9.98658
4015151475,,-0.011711159280881954,-0.004258603374866164,0.0,0.16677000000000003,0.25506,9.94734
4020201980,,-0.01064650843716541,0.003193952531149623,0.0,0.12753,0.26487,9.95715
4025252485,,-0.003193952531149623,0.0170518667919846,0.0,0.0981,0.26487,9.99639
4030302990,,0.003193952531149623,0.01918116847941768,0.0,0.039240000000000004,0.27468000000000004,10.006200000000002
4035353495,,0.01064650843716541,0.002129301687433082,0.0,0.0,0.35316,10.03563
4040404000,,0.005323254218582705,-0.005323254218582705,0.0,0.06867000000000001,0.34335000000000004,10.06506
4045454505,,0.004258603374866164,-0.01064650843716541,0.0,0.11772,0.36297,10.025820000000001
4050505010,,-0.005323254218582705,0.004258603374866164,0.0,0.11772,0.2943,10.045440000000001
4055555515,,-0.001064650843716541,0.003193952531149623,0.0,0.04905,0.34335000000000004,10.006200000000002
4060606020,,0.0,0.004258603374866164,0.0,0.039240000000000004,0.35316,9.908100000000001
4065656525,,0.003193952531149623,0.0,0.0,0.07848000000000001,0.43164,9.908100000000001
4070707030,,0.0,0.002129301687433082,0.0,0.11772,0.41202000000000005,9.85905
4075757535,,-0.013840460968315033,0.012775810124598492,0.0,0.05886,0.37278,9.81
4080808040,,-0.020245819323134222,0.0,0.0,-0.019620000000000002,0.34335000000000004,9.78057
4085858545,,-0.01811651763570114,-0.013840460968315033,0.0,0.0,0.33354000000000006,9.760950000000001
4090909050,,-0.012775810124598492,-0.023439771854283843,0.0,0.08829,0.33354000000000006,9.69228
4095959555,,-0.007452555906015787,-0.003193952531149623,0.0,0.08829,0.32373,9.67266
4101010060,,-0.00958185759344887,-0.002129301687433082,0.0,0.05886,0.31392000000000003,9.68247
4106060565,,-0.007452555906015787,-0.004258603374866164,0.0,0.0,0.35316,9.69228
4111111070,,-0.004258603374866164,-0.0170518667919846,0.0,0.04905,0.3924,9.70209
4116161575,,-0.00958185759344887,-0.022375121010567305,0.0,0.13734000000000002,0.36297,9.73152
4121212080,,-0.00958185759344887,-0.003193952531149623,0.0,0.1962,0.36297,9.751140000000001
4126262585,,-0.001064650843716541,0.0170518667919846,0.0,0.17658,0.36297,9.751140000000001
4131313090,,-0.001064650843716541,0.024504422698000388,0.0,0.07848000000000001,0.33354000000000006,9.82962
4136363595,,-0.005323254218582705,0.00958185759344887,0.0,0.02943,0.32373,9.908100000000001
4141414100,,-0.00958185759344887,0.0,0.0,0.05886,0.2943,9.99639
4146464605,,-0.011711159280881954,-0.007452555906015787,0.0,0.07848000000000001,0.2943,10.01601
4151515110,,-0.01064650843716541,-0.005323254218582705,0.0,0.12753,0.25506,10.11411
4156565615,,-0.007452555906015787,0.00958185759344887,0.0,0.13734000000000002,0.21582,10.11411
4161616120,,-0.005323254218582705,0.020245819323134222,0.0,0.05886,0.20601000000000003,10.15335
4166666625,,0.007452555906015787,0.012775810124598492,0.0,-0.02943,0.27468000000000004,10.15335
4171717130,,0.01918116847941768,-0.002129301687433082,0.0,0.0981,0.35316,10.1043
4176767635,,0.008517206749732328,0.015987215948268057,0.0,0.15696000000000002,0.32373,10.09449
4181818140,,-0.002129301687433082,0.021310470166850764,0.0,-0.009810000000000001,0.32373,10.08468
4186868645,,0.002129301687433082,0.0,0.0,-0.04905,0.37278,10.01601
4191919150,,0.003193952531149623,-0.015987215948268057,0.0,0.019620000000000002,0.41202000000000005,9.94734
4196969655,,0.002129301687433082,-0.012775810124598492,0.0,0.10791,0.43164,9.83943
4202020160,,-0.003193952531149623,0.0,0.0,0.08829,0.48069000000000006,9.74133
4207070665,,-0.008517206749732328,0.0,0.0,0.02943,0.43164,9.64323
4212121170,,-0.015987215948268057,0.002129301687433082,0.0,0.039240000000000004,0.44145,9.60399
4217171675,,-0.02663372438543347,-0.00958185759344887,0.0,-0.009810000000000001,0.41202000000000005,9.55494
4222222180,,-0.03515093113516579,-0.022375121010567305,0.0,0.02943,0.35316,9.52551
4227272685,,-0.03621558197888234,-0.021310470166850764,0.0,0.08829,0.30411,9.58437
4232323190,,-0.02769837522915001,-0.015987215948268057,0.0,0.11772,0.24525000000000002,9.57456
4237373695,,-0.022375121010567305,-0.006387905062299246,0.0,0.10791,0.21582,9.68247
4242424200,,-0.008517206749732328,-0.014905111812031574,0.0,0.11772,0.24525000000000002,9.68247
4247474705,,0.004258603374866164,-0.004258603374866164,0.0,0.20601000000000003,0.28449,9.770760000000001
4252525210,,0.005323254218582705,0.013840460968315033,0.0,0.17658,0.2943,9.86886
4257575715,,-0.001064650843716541,0.00958185759344887,0.0,0.05886,0.30411,9.95715
4262626220,,-0.00958185759344887,0.003193952531149623,0.0,0.14715,0.21582,10.025820000000001
4267676725,,-0.00958185759344887,0.01064650843716541,0.0,0.07848000000000001,0.23544,10.09449
4272727230,,0.003193952531149623,-0.00958185759344887,0.0,0.08829,0.30411,10.15335
4277777735,,0.006387905062299246,0.0,0.0,0.23544,0.33354000000000006,10.163160000000001
4282828240,,0.002129301687433082,0.02663372438543347,0.0,0.1962,0.28449,10.13373
4287878745,,0.001064650843716541,0.039409534510031964,0.0,0.06867000000000001,0.31392000000000003,10.11411
4292929250,,0.005323254218582705,0.02556907354171693,0.0,-0.06867000000000001,0.40221,10.12392
4297979755,,0.004258603374866164,-0.003193952531149623,0.0,0.05886,0.40221,9.98658
4303030260,,-0.01064650843716541,0.013840460968315033,0.0,0.08829,0.36297,9.94734
4308080765,,-0.013840460968315033,0.011711159280881954,0.0,-0.04905,0.35316,9.92772
4313131270,,-0.014905111812031574,0.003193952531149623,0.0,-0.02943,0.3924,9.80019
4318181775,,-0.005323254218582705,-0.007452555906015787,0.0,-0.019620000000000002,0.42183,9.760950000000001
4323232280,,-0.0170518667919846,-0.004258603374866164,0.0,-0.019620000000000002,0.34335000000000004,9.74133
4328282785,,-0.023439771854283843,-0.0170518667919846,0.0,-0.02943,0.31392000000000003,9.78057
4333333290,,-0.023439771854283843,-0.023439771854283843,0.0,0.02943,0.28449,9.770760000000001
4338383795,,-0.021310470166850764,-0.0170518667919846,0.0,0.02943,0.23544,9.82962
4343434300,,-0.0170518667919846,-0.022375121010567305,0.0,0.04905,0.23544,9.84924
4348484805,,-0.011711159280881954,-0.023439771854283843,0.0,0.11772,0.27468000000000004,9.85905
4353535310,,-0.005323254218582705,-0.020245819323134222,0.0,0.14715,0.28449,9.86886
4358585815,,-0.006387905062299246,-0.011711159280881954,0.0,0.15696000000000002,0.2943,9.81
4363636320,,-0.002129301687433082,-0.005323254218582705,0.0,0.15696000000000002,0.35316,9.81
4368686825,,-0.002129301687433082,0.0,0.0,0.13734000000000002,0.36297,9.78057
4373737330,,-0.005323254218582705,0.0,0.0,0.14715,0.38259000000000004,9.78057
4378787835,,0.0,-0.006387905062299246,0.0,0.15696000000000002,0.42183,9.78057
4383838340,,-0.007452555906015787,0.01064650843716541,0.0,0.20601000000000003,0.36297,9.770760000000001
4388888845,,-0.01811651763570114,0.021310470166850764,0.0,0.14715,0.33354000000000006,9.80019
4393939350,,-0.0170518667919846,0.021310470166850764,0.0,0.0981,0.2943,9.78057
4398989855,,-0.015987215948268057,0.02556907354171693,0.0,0.07848000000000001,0.28449,9.81
4404040360,,-0.01811651763570114,0.022375121010567305,0.0,0.009810000000000001,0.23544,9.85905
4409090865,,-0.014905111812031574,0.0170518667919846,0.0,0.0,0.21582,9.89829
4414141370,,-0.006387905062299246,0.015987215948268057,0.0,0.0,0.21582,9.96696
4419191875,,-0.005323254218582705,0.00958185759344887,0.0,-0.04905,0.21582,10.03563
4424242380,,0.0,-0.00958185759344887,0.0,-0.039240000000000004,0.23544,10.09449
4429292885,,0.0,-0.014905111812031574,0.0,0.009810000000000001,0.28449,10.074869999999999
4434343390,,0.001064650843716541,-0.020245819323134222,0.0,0.0981,0.34335000000000004,10.01601
4439393895,,0.002129301687433082,-0.005323254218582705,0.0,0.10791,0.37278,10.006200000000002
4444444400,,0.002129301687433082,-0.002129301687433082,0.0,0.0981,0.41202000000000005,9.937529999999999
4449494905,,0.0,-0.006387905062299246,0.0,0.07848000000000001,0.47088,9.86886
4454545410,,-0.006387905062299246,-0.01064650843716541,0.0,0.08829,0.47088,9.84924
4459595915,,-0.021310470166850764,-0.014905111812031574,0.0,0.10791,0.41202000000000005,9.79038
4464646420,,-0.03089232776029963,-0.01064650843716541,0.0,0.12753,0.37278,9.81
4469696925,,-0.03515093113516579,-0.002129301687433082,0.0,0.12753,0.2943,9.770760000000001
4474747430,,-0.03621558197888234,-0.001064650843716541,0.0,0.0981,0.22563,9.819809999999999
4479797935,,-0.02982767691658309,-0.001064650843716541,0.0,0.04905,0.1962,9.84924
4484848440,,-0.021310470166850764,-0.007452555906015787,0.0,0.0981,0.21582,9.819809999999999
4489898945,,-0.014905111812031574,0.001064650843716541,0.0,0.08829,0.14715,9.84924
4494949450,,-0.008517206749732328,0.006387905062299246,0.0,0.08829,0.16677000000000003,9.89829
4499999955,,-0.002129301687433082,0.006387905062299246,0.0,0.04905,0.18639,9.908100000000001
4505050460,,0.003193952531149623,-0.006387905062299246,0.0,0.06867000000000001,0.25506,9.86886
4510100965,,0.01064650843716541,-0.006387905062299246,0.0,0.11772,0.33354000000000006,9.87867
4515151470,,0.015987215948268057,-0.003193952531149623,0.0,0.11772,0.42183,9.819809999999999
4520201975,,0.014905111812031574,0.001064650843716541,0.0,0.17658,0.46107000000000004,9.78057
4525252480,,0.006387905062299246,0.013840460968315033,0.0,0.12753,0.49050000000000005,9.79038
4530302985,,-0.008517206749732328,0.01811651763570114,0.0,0.0981,0.44145,9.80019
4535353490,,-0.020245819323134222,0.00958185759344887,0.0,0.06867000000000001,0.3924,9.84924
4540403995,,-0.03515093113516579,0.006387905062299246,0.0,0.08829,0.26487,9.908100000000001
4545454500,,-0.04260348704118158,0.013840460968315033,0.0,0.05886,0.17658,9.95715
4550505005,,-0.03515093113516579,0.011711159280881954,0.0,0.019620000000000002,0.14715,9.99639
4555555510,,-0.02556907354171693,-0.001064650843716541,0.0,-0.02943,0.11772,10.01601
4560606015,,-0.01064650843716541,-0.008517206749732328,0.0,-0.009810000000000001,0.14715,10.01601
4565656520,,0.0,-0.012775810124598492,0.0,0.02943,0.20601000000000003,9.97677
4570707025,,0.0,-0.014905111812031574,0.0,0.04905,0.27468000000000004,9.92772
4575757530,,0.004258603374866164,-0.014905111812031574,0.0,0.07848000000000001,0.2943,9.84924
4580808035,,0.006387905062299246,-0.011711159280881954,0.0,0.08829,0.35316,9.84924
4585858540,,0.002129301687433082,-0.00958185759344887,0.0,0.12753,0.41202000000000005,9.84924
4590909045,,-0.001064650843716541,-0.004258603374866164,0.0,0.15696000000000002,0.42183,9.82962
4595959550,,-0.011711159280881954,-0.003193952531149623,0.0,0.12753,0.35316,9.91791
4601010055,,-0.01811651763570114,0.0,0.0,0.12753,0.31392000000000003,9.92772
4606060560,,-0.028763026072866547,0.002129301687433082,0.0,0.12753,0.23544,9.97677
4611111065,,-0.03089232776029963,-0.002129301687433082,0.0,0.11772,0.1962,9.97677
4616161570,,-0.02556907354171693,-0.001064650843716541,0.0,0.11772,0.16677000000000003,9.96696
4621212075,,-0.014905111812031574,0.007452555906015787,0.0,0.08829,0.17658,9.96696
4626262580,,-0.006387905062299246,0.00958185759344887,0.0,0.04905,0.20601000000000003,9.89829
4631313085,,-0.003193952531149623,0.008517206749732328,0.0,0.05886,0.23544,9.83943
4636363590,,0.001064650843716541,0.002129301687433082,0.0,0.019620000000000002,0.31392000000000003,9.760950000000001
4641414095,,0.008517206749732328,-0.001064650843716541,0.0,0.04905,0.40221,9.69228
4646464600,,0.006387905062299246,0.002129301687433082,0.0,0.0981,0.41202000000000005,9.65304
4651515105,,-0.003193952531149623,0.003193952531149623,0.0,0.05886,0.41202000000000005,9.623610000000001
4656565610,,-0.00958185759344887,0.002129301687433082,0.0,0.05886,0.38259000000000004,9.69228
4661616115,,-0.020245819323134222,-0.002129301687433082,0.0,0.039240000000000004,0.36297,9.79038
4666666620,,-0.02769837522915001,-0.006387905062299246,0.0,0.06867000000000001,0.25506,9.89829
4671717125,,-0.03621558197888234,0.0,0.0,0.0981,0.18639,9.98658
4676767630,,-0.03089232776029963,0.0,0.0,0.05886,0.14715,9.96696
4681818135,,-0.022375121010567305,0.0,0.0,0.04905,0.14715,9.97677
4686868640,,-0.01064650843716541,-0.003193952531149623,0.0,0.019620000000000002,0.20601000000000003,9.95715
4691919145,,0.0,-0.005323254218582705,0.0,0.04905,0.26487,9.89829
4696969650,,0.004258603374866164,-0.00958185759344887,0.0,0.08829,0.33354000000000006,9.86886
4702020155,,0.001064650843716541,-0.005323254218582705,0.0,0.12753,0.37278,9.83943
4707070660,,-0.008517206749732328,-0.001064650843716541,0.0,0.0981,0.33354000000000006,9.84924
4712121165,,-0.01811651763570114,-0.001064650843716541,0.0,0.11772,0.30411,9.91791
4717171670,,-0.022375121010567305,-0.003193952531149623,0.0,0.11772,0.25506,9.95715
4722222175,,-0.023439771854283843,0.0,0.0,0.11772,0.20601000000000003,10.025820000000001
4727272680,,-0.020245819323134222,0.007452555906015787,0.0,0.08829,0.18639,10.05525
4732323185,,-0.015987215948268057,0.00958185759344887,0.0,0.11772,0.16677000000000003,10.045440000000001
4737373690,,-0.01064650843716541,0.008517206749732328,0.0,0.02943,0.20601000000000003,10.025820000000001
4742424195,,-0.003193952531149623,0.0,0.0,0.039240000000000004,0.23544,9.97677
4747474700,,0.001064650843716541,-0.003193952531149623,0.0,0.06867000000000001,0.31392000000000003,9.89829
4752525205,,0.005323254218582705,-0.003193952531149623,0.0,0.07848000000000001,0.37278,9.79038
4757575710,,0.001064650843716541,0.004258603374866164,0.0,0.11772,0.40221,9.760950000000001
4762626215,,-0.00958185759344887,0.004258603374866164,0.0,0.05886,0.41202000000000005,9.760950000000001
4767676720,,-0.015987215948268057,0.001064650843716541,0.0,0.039240000000000004,0.37278,9.73152
4772727225,,-0.02556907354171693,0.002129301687433082,0.0,0.05886,0.30411,9.80019
4777777730,,-0.03408628029144926,0.0,0.0,0.05886,0.20601000000000003,9.85905
4782828235,,-0.039409534510031964,-0.001064650843716541,0.0,0.04905,0.15696000000000002,9.86886
4787878740,,-0.031956978604016174,0.0,0.0,0.02943,0.14715,9.87867
4792929245,,-0.0170518667919846,-0.00958185759344887,0.0,0.02943,0.15696000000000002,9.87867
4797979750,,0.0,-0.021310470166850764,0.0,0.04905,0.27468000000000004,9.819809999999999
4803030255,,0.008517206749732328,-0.015987215948268057,0.0,0.12753,0.34335000000000004,9.751140000000001
4808080760,,0.006387905062299246,-0.004258603374866164,0.0,0.17658,0.38259000000000004,9.74133
4813131265,,-0.006387905062299246,0.006387905062299246,0.0,0.12753,0.35316,9.73152
4818181770,,-0.020245819323134222,0.005323254218582705,0.0,0.0981,0.2943,9.819809999999999
4823232275,,-0.02769837522915001,-0.003193952531149623,0.0,0.08829,0.22563,9.91791
4828282780,,-0.031956978604016174,-0.002129301687433082,0.0,0.11772,0.17658,10.006200000000002
4833333285,,-0.02982767691658309,0.0,0.0,0.11772,0.12753,10.06506
4838383790,,-0.021310470166850764,0.003193952531149623,0.0,0.06867000000000001,0.0981,10.09449
4843434295,,-0.00958185759344887,0.003193952531149623,0.0,0.05886,0.13734000000000002,10.03563
4848484800,,0.003193952531149623,0.002129301687433082,0.0,0.04905,0.26487,9.99639
4853535305,,0.008517206749732328,-0.001064650843716541,0.0,0.0981,0.34335000000000004,9.888480000000001
4858585810,,0.005323254218582705,0.005323254218582705,0.0,0.12753,0.38259000000000004,9.83943
4863636315,,-0.006387905062299246,0.01918116847941768,0.0,0.0981,0.34335000000000004,9.84924
4868686820,,-0.020245819323134222,0.021310470166850764,0.0,0.019620000000000002,0.28449,9.85905
4873737325,,-0.024504422698000388,0.0,0.0,-0.009810000000000001,0.24525000000000002,9.94734
4878787830,,-0.02663372438543347,-0.006387905062299246,0.0,0.039240000000000004,0.1962,9.94734
4883838335,,-0.024504422698000388,-0.00958185759344887,0.0,0.06867000000000001,0.1962,9.94734
4888888840,,-0.014905111812031574,-0.007452555906015787,0.0,0.05886,0.20601000000000003,9.94734
4893939345,,-0.00958185759344887,0.0,0.0,0.08829,0.22563,9.84924
4898989850,,0.0,-0.007452555906015787,0.0,0.039240000000000004,0.28449,9.819809999999999
4904040355,,-0.004258603374866164,-0.008517206749732328,0.0,0.07848000000000001,0.32373,9.78057
4909090860,,-0.011711159280881954,-0.003193952531149623,0.0,0.0981,0.2943,9.81
4914141365,,-0.02556907354171693,0.0,0.0,0.10791,0.23544,9.85905
4919191870,,-0.031956978604016174,-0.002129301687433082,0.0,0.07848000000000001,0.16677000000000003,9.91791
4924242375,,-0.02982767691658309,-0.008517206749732328,0.0,0.039240000000000004,0.14715,9.91791
4929292880,,-0.01918116847941768,-0.013840460968315033,0.0,0.07848000000000001,0.13734000000000002,9.96696
4934343385,,-0.007452555906015787,-0.012775810124598492,0.0,0.11772,0.18639,9.937529999999999
4939393890,,-0.004258603374866164,0.0,0.0,0.14715,0.23544,9.89829
4944444395,,-0.002129301687433082,0.001064650843716541,0.0,0.12753,0.27468000000000004,9.81
4949494900,,-0.001064650843716541,0.006387905062299246,0.0,0.12753,0.32373,9.78057
4954545405,,-0.005323254218582705,0.004258603374866164,0.0,0.11772,0.33354000000000006,9.79038
4959595910,,-0.015987215948268057,0.011711159280881954,0.0,0.12753,0.28449,9.80019
4964646415,,-0.02556907354171693,0.013840460968315033,0.0,0.06867000000000001,0.21582,9.84924
4969696920,,-0.02663372438543347,0.01064650843716541,0.0,0.0,0.17658,9.85905
4974747425,,-0.01811651763570114,0.001064650843716541,0.0,0.019620000000000002,0.17658,9.888480000000001
4979797930,,-0.01811651763570114,-0.001064650843716541,0.0,0.019620000000000002,0.1962,9.908100000000001
4984848435,,-0.011711159280881954,-0.003193952531149623,0.0,0.04905,0.23544,9.86886
4989898940,,-0.006387905062299246,-0.003193952531149623,0.0,0.07848000000000001,0.28449,9.80019
4994949445,,-0.00958185759344887,0.001064650843716541,0.0,0.07848000000000001,0.26487,9.80019
4999999950,,-0.00958185759344887,0.004258603374866164,0.0,0.04905,0.25506,9.82962
5005050455,,-0.015987215948268057,0.0,0.0,0.04905,0.2943,9.87867
5010100960,,-0.022375121010567305,-0.003193952531149623,0.0,0.06867000000000001,0.20601000000000003,9.94734
5015151465,,-0.02556907354171693,-0.003193952531149623,0.0,0.0981,0.17658,10.006200000000002
5020201970,,-0.02556907354171693,-0.001064650843716541,0.0,0.05886,0.13734000000000002,10.006200000000002
5025252475,,-0.01918116847941768,-0.00958185759344887,0.0,0.05886,0.13734000000000002,10.006200000000002
5030302980,,-0.008517206749732328,-0.013840460968315033,0.0,0.0981,0.20601000000000003,9.98658
5035353485,,0.0,-0.011711159280881954,0.0,0.13734000000000002,0.25506,9.92772
5040403990,,-0.003193952531149623,-0.005323254218582705,0.0,0.15696000000000002,0.28449,9.89829
5045454495,,-0.008517206749732328,0.004258603374866164,0.0,0.14715,0.27468000000000004,9.888480000000001
5050505000,,-0.01811651763570114,0.011711159280881954,0.0,0.10791,0.23544,9.87867
5055555505,,-0.022375121010567305,0.005323254218582705,0.0,0.07848000000000001,0.20601000000000003,9.84924
5060606010,,-0.02769837522915001,0.001064650843716541,0.0,0.05886,0.1962,9.84924
5065656515,,-0.023439771854283843,0.0,0.0,0.06867000000000001,0.16677000000000003,9.85905
5070707020,,-0.01918116847941768,0.005323254218582705,0.0,0.07848000000000001,0.17658,9.85905
5075757525,,-0.008517206749732328,-0.003193952531149623,0.0,0.039240000000000004,0.22563,9.81
5080808030,,-0.003193952531149623,-0.007452555906015787,0.0,0.05886,0.26487,9.80019
5085858535,,-0.008517206749732328,-0.005323254218582705,0.0,0.0981,0.25506,9.78057
5090909040,,-0.014905111812031574,0.002129301687433082,0.0,0.13734000000000002,0.24525000000000002,9.80019
5095959545,,-0.02556907354171693,0.00958185759344887,0.0,0.0981,0.1962,9.82962
5101010050,,-0.03089232776029963,0.006387905062299246,0.0,0.05886,0.14715,9.87867
5106060555,,-0.02663372438543347,-0.002129301687433082,0.0,0.02943,0.10791,9.91791
5111111060,,-0.0170518667919846,-0.013840460968315033,0.0,0.05886,0.16677000000000003,9.937529999999999
5116161565,,-0.00958185759344887,-0.00958185759344887,0.0,0.0981,0.20601000000000003,9.91791
5121212070,,-0.002129301687433082,-0.005323254218582705,0.0,0.11772,0.25506,9.908100000000001
5126262575,,-0.001064650843716541,0.0,0.0,0.10791,0.28449,9.86886
5131313080,,-0.011711159280881954,0.0,0.0,0.11772,0.30411,9.84924
5136363585,,-0.022375121010567305,-0.002129301687433082,0.0,0.11772,0.23544,9.89829
5141414090,,-0.028763026072866547,0.001064650843716541,0.0,0.10791,0.17658,9.92772
5146464595,,-0.033021629447732716,0.004258603374866164,0.0,0.08829,0.0981,9.94734
5151515100,,-0.02769837522915001,0.002129301687433082,0.0,0.06867000000000001,0.08829,10.01601
5156565605,,-0.011711159280881954,0.002129301687433082,0.0,0.06867000000000001,0.14715,9.99639
5161616110,,-0.002129301687433082,0.0,0.0,0.06867000000000001,0.20601000000000003,9.96696
5166666615,,-0.002129301687433082,-0.001064650843716541,0.0,0.0981,0.23544,9.908100000000001
5171717120,,-0.006387905062299246,-0.002129301687433082,0.0,0.08829,0.23544,9.888480000000001
5176767625,,-0.015987215948268057,0.004258603374866164,0.0,0.08829,0.1962,9.908100000000001
5181818130,,-0.024504422698000388,0.0,0.0,0.02943,0.16677000000000003,9.94734
5186868635,,-0.022375121010567305,-0.006387905062299246,0.0,0.08829,0.12753,10.006200000000002
5191919140,,-0.020245819323134222,-0.005323254218582705,0.0,0.07848000000000001,0.13734000000000002,9.98658
5196969645,,-0.006387905062299246,0.0,0.0,0.08829,0.1962,9.937529999999999
5202020150,,0.0,0.002129301687433082,0.0,0.08829,0.27468000000000004,9.87867
5207070655,,0.0,0.003193952531149623,0.0,0.07848000000000001,0.2943,9.819809999999999
5212121160,,-0.006387905062299246,0.001064650843716541,0.0,0.08829,0.32373,9.751140000000001
5217171665,,-0.014905111812031574,-0.002129301687433082,0.0,0.0981,0.28449,9.751140000000001
5222222170,,-0.03408628029144926,-0.003193952531149623,0.0,0.08829,0.21582,9.751140000000001
5227272675,,-0.0404741853537485,-0.002129301687433082,0.0,0.08829,0.11772,9.819809999999999
5232323180,,-0.03834488366631542,-0.004258603374866164,0.0,0.07848000000000001,0.10791,9.819809999999999
5237373685,,-0.02556907354171693,-0.002129301687433082,0.0,0.05886,0.11772,9.819809999999999
5242424190,,-0.012775810124598492,-0.005323254218582705,0.0,0.11772,0.18639,9.78057
5247474695,,-0.006387905062299246,0.005323254218582705,0.0,0.0981,0.22563,9.74133
5252525200,,-0.004258603374866164,0.008517206749732328,0.0,0.07848000000000001,0.22563,9.72171
5257575705,,-0.014905111812031574,0.002129301687433082,0.0,0.04905,0.22563,9.78057
5262626210,,-0.02663372438543347,-0.01064650843716541,0.0,0.039240000000000004,0.15696000000000002,9.83943
5267676715,,-0.031956978604016174,-0.01811651763570114,0.0,0.0981,0.06867000000000001,9.94734
5272727220,,-0.031956978604016174,-0.01064650843716541,0.0,0.12753,0.039240000000000004,10.03563
5277777725,,-0.012775810124598492,-0.004258603374866164,0.0,0.14715,0.10791,10.074869999999999
5282828230,,0.0,0.006387905062299246,0.0,0.14715,0.16677000000000003,10.045440000000001
5287878735,,0.008517206749732328,0.015987215948268057,0.0,0.12753,0.26487,9.98658
5292929240,,0.007452555906015787,0.013840460968315033,0.0,0.10791,0.31392000000000003,9.95715
5297979745,,-0.006387905062299246,0.01064650843716541,0.0,0.07848000000000001,0.28449,9.91791
5303030250,,-0.02769837522915001,0.006387905062299246,0.0,0.06867000000000001,0.17658,9.89829
5308080755,,-0.03621558197888234,0.0,0.0,0.02943,0.10791,9.96696
5313131260,,-0.03089232776029963,-0.01064650843716541,0.0,0.06867000000000001,0.10791,9.96696
5318181765,,-0.020245819323134222,-0.008517206749732328,0.0,0.07848000000000001,0.14715,9.96696
5323232270,,-0.005323254218582705,0.0,0.0,0.13734000000000002,0.21582,9.89829
5328282775,,-0.001064650843716541,0.00958185759344887,0.0,0.12753,0.25506,9.819809999999999
5333333280,,-0.008517206749732328,0.013840460968315033,0.0,0.05886,0.24525000000000002,9.79038
5338383785,,-0.023439771854283843,0.005323254218582705,0.0,0.0,0.21582,9.751140000000001
5343434290,,-0.039409534510031964,-0.013840460968315033,0.0,0.0,0.12753,9.760950000000001
5348484795,,-0.04260348704118158,-0.02769837522915001,0.0,0.04905,0.05886,9.84924
5353535300,,-0.03515093113516579,-0.024504422698000388,0.0,0.11772,0.05886,9.85905
5358585805,,-0.013840460968315033,-0.015987215948268057,0.0,0.13734000000000002,0.11772,9.89829
5363636310,,0.0,-0.008517206749732328,0.0,0.16677000000000003,0.23544,9.83943
5368686815,,0.004258603374866164,0.0,0.0,0.15696000000000002,0.28449,9.81
5373737320,,-0.006387905062299246,0.008517206749732328,0.0,0.14715,0.27468000000000004,9.760950000000001
5378787825,,-0.031956978604016174,0.008517206749732328,0.0,0.10791,0.22563,9.81
5383838330,,-0.04366813788489812,0.0,0.0,0.04905,0.10791,9.819809999999999
5388888835,,-0.04366813788489812,-0.007452555906015787,0.0,0.07848000000000001,0.039240000000000004,9.937529999999999
5393939340,,-0.03408628029144926,-0.005323254218582705,0.0,0.08829,0.009810000000000001,10.006200000000002
5398989845,,-0.011711159280881954,-0.007452555906015787,0.0,0.13734000000000002,0.0981,10.074869999999999
5404040350,,0.004258603374866164,0.006387905062299246,0.0,0.1962,0.15696000000000002,10.03563
5409090855,,0.004258603374866164,0.024504422698000388,0.0,0.13734000000000002,0.20601000000000003,9.98658
5414141360,,-0.003193952531149623,0.022375121010567305,0.0,0.04905,0.20601000000000003,9.95715
5419191865,,-0.012775810124598492,0.007452555906015787,0.0,0.019620000000000002,0.1962,9.94734
5424242370,,-0.02663372438543347,0.0,0.0,0.0,0.10791,9.97677
5429292875,,-0.02556907354171693,-0.008517206749732328,0.0,0.039240000000000004,0.0981,10.006200000000002
5434343380,,-0.0170518667919846,-0.007452555906015787,0.0,0.06867000000000001,0.07848000000000001,9.98658
5439393885,,-0.008517206749732328,-0.001064650843716541,0.0,0.0981,0.17658,9.99639
5444444390,,0.005323254218582705,0.002129301687433082,0.0,0.07848000000000001,0.26487,9.91791
5449494895,,0.0,0.006387905062299246,0.0,0.0981,0.25506,9.83943
5454545400,,-0.014905111812031574,0.004258603374866164,0.0,0.06867000000000001,0.27468000000000004,9.73152
5459595905,,-0.02769837522915001,-0.002129301687433082,0.0,0.02943,0.22563,9.7119
5464646410,,-0.039409534510031964,-0.006387905062299246,0.0,0.019620000000000002,0.15696000000000002,9.770760000000001
5469696915,,-0.04153883619746504,-0.01811651763570114,0.0,0.019620000000000002,0.08829,9.770760000000001
5474747420,,-0.033021629447732716,-0.023439771854283843,0.0,0.07848000000000001,0.08829,9.84924
5479797925,,-0.02556907354171693,-0.013840460968315033,0.0,0.11772,0.10791,9.83943
5484848430,,-0.013840460968315033,0.001064650843716541,0.0,0.16677000000000003,0.15696000000000002,9.80019
5489898935,,-0.007452555906015787,0.00958185759344887,0.0,0.12753,0.1962,9.78057
5494949440,,-0.011711159280881954,0.008517206749732328,0.0,0.07848000000000001,0.15696000000000002,9.7119
5499999945,,-0.024504422698000388,-0.004258603374866164,0.0,0.02943,0.15696000000000002,9.760950000000001
5505050450,,-0.02556907354171693,-0.014905111812031574,0.0,0.06867000000000001,0.0981,9.84924
5510100955,,-0.02982767691658309,-0.015987215948268057,0.0,0.12753,0.04905,9.91791
5515151460,,-0.021310470166850764,-0.00958185759344887,0.0,0.17658,0.07848000000000001,9.99639
5520201965,,-0.008517206749732328,0.002129301687433082,0.0,0.1962,0.0981,9.99639
5525252470,,-0.003193952531149623,0.01811651763570114,0.0,0.16677000000000003,0.16677000000000003,9.96696
5530302975,,0.0,0.02556907354171693,0.0,0.0981,0.20601000000000003,9.92772
5535353480,,-0.006387905062299246,0.021310470166850764,0.0,0.05886,0.17658,9.908100000000001
5540403985,,-0.023439771854283843,0.013840460968315033,0.0,0.009810000000000001,0.14715,9.94734
5545454490,,-0.03089232776029963,-0.003193952531149623,0.0,0.0,0.08829,9.96696
5550504995,,-0.021310470166850764,-0.01811651763570114,0.0,0.039240000000000004,0.0981,10.006200000000002
5555555500,,-0.020245819323134222,-0.011711159280881954,0.0,0.12753,0.0981,10.006200000000002
5560606005,,-0.0170518667919846,0.007452555906015787,0.0,0.14715,0.10791,9.97677
5565656510,,-0.006387905062299246,0.020245819323134222,0.0,0.12753,0.15696000000000002,9.91791
5570707015,,-0.008517206749732328,0.021310470166850764,0.0,0.0,0.16677000000000003,9.888480000000001
5575757520,,-0.020245819323134222,0.008517206749732328,0.0,-0.039240000000000004,0.12753,9.85905
5580808025,,-0.023439771854283843,-0.014905111812031574,0.0,-0.039240000000000004,0.13734000000000002,9.86886
5585858530,,-0.02556907354171693,-0.03089232776029963,0.0,0.019620000000000002,0.12753,9.85905
5590909035,,-0.02556907354171693,-0.02982767691658309,0.0,0.11772,0.13734000000000002,9.83943
5595959540,,-0.020245819323134222,-0.015987215948268057,0.0,0.16677000000000003,0.11772,9.85905
5601010045,,-0.01918116847941768,-0.003193952531149623,0.0,0.14715,0.14715,9.84924
5606060550,,-0.015987215948268057,0.001064650843716541,0.0,0.12753,0.17658,9.80019
5611111055,,-0.01918116847941768,0.007452555906015787,0.0,0.13734000000000002,0.15696000000000002,9.79038
5616161560,,-0.02663372438543347,0.008517206749732328,0.0,0.06867000000000001,0.12753,9.78057
5621212065,,-0.03089232776029963,-0.003193952531149623,0.0,0.05886,0.05886,9.81
5626262570,,-0.02556907354171693,-0.014905111812031574,0.0,0.08829,0.04905,9.89829
5631313075,,-0.023439771854283843,-0.00958185759344887,0.0,0.12753,0.039240000000000004,9.95715
5636363580,,-0.021310470166850764,-0.008517206749732328,0.0,0.13734000000000002,0.039240000000000004,9.97677
5641414085,,-0.012775810124598492,0.003193952531149623,0.0,0.1962,0.04905,10.01601
5646464590,,-0.00958185759344887,0.022375121010567305,0.0,0.13734000000000002,0.04905,9.94734
5651515095,,-0.008517206749732328,0.02556907354171693,0.0,0.07848000000000001,0.06867000000000001,9.97677
5656565600,,0.0,0.011711159280881954,0.0,0.009810000000000001,0.11772,9.97677
5661616105,,0.0,-0.005323254218582705,0.0,0.02943,0.17658,9.97677
5666666610,,-0.004258603374866164,-0.007452555906015787,0.0,0.0981,0.1962,9.94734
5671717115,,-0.015987215948268057,0.0,0.0,0.11772,0.18639,9.94734
5676767620,,-0.022375121010567305,0.001064650843716541,0.0,0.0981,0.14715,9.888480000000001
5681818125,,-0.023439771854283843,0.005323254218582705,0.0,0.0981,0.11772,9.83943
5686868630,,-0.023439771854283843,0.00958185759344887,0.0,0.06867000000000001,0.15696000000000002,9.81
5691919135,,-0.020245819323134222,0.003193952531149623,0.0,0.0,0.12753,9.751140000000001
5696969640,,-0.020245819323134222,0.0,0.0,0.05886,0.12753,9.80019
5702020145,,-0.02556907354171693,-0.003193952531149623,0.0,0.009810000000000001,0.12753,9.819809999999999
5707070650,,-0.033021629447732716,-0.01918116847941768,0.0,0.019620000000000002,0.05886,9.86886
5712121155,,-0.0404741853537485,-0.023439771854283843,0.0,0.07848000000000001,0.02943,9.87867
5717171660,,-0.03408628029144926,-0.014905111812031574,0.0,0.10791,0.009810000000000001,9.83943
5722222165,,-0.024504422698000388,-0.006387905062299246,0.0,0.13734000000000002,0.0,9.82962
5727272670,,-0.014905111812031574,0.0,0.0,0.10791,0.039240000000000004,9.83943
5732323175,,-0.003193952531149623,0.0,0.0,0.07848000000000001,0.06867000000000001,9.84924
5737373680,,0.001064650843716541,-0.007452555906015787,0.0,0.10791,0.15696000000000002,9.908100000000001
5742424185,,-0.006387905062299246,-0.012775810124598492,0.0,0.11772,0.13734000000000002,9.97677
5747474690,,-0.022375121010567305,-0.011711159280881954,0.0,0.20601000000000003,0.12753,9.96696
5752525195,,-0.03089232776029963,-0.002129301687433082,0.0,0.20601000000000003,0.08829,9.92772
5757575700,,-0.03089232776029963,0.007452555906015787,0.0,0.15696000000000002,0.039240000000000004,9.89829
5762626205,,-0.020245819323134222,0.0170518667919846,0.0,0.13734000000000002,0.07848000000000001,9.86886
5767676710,,-0.006387905062299246,0.01811651763570114,0.0,0.13734000000000002,0.12753,9.82962
5772727215,,-0.001064650843716541,0.022375121010567305,0.0,0.10791,0.13734000000000002,9.85905
5777777720,,-0.011711159280881954,0.022375121010567305,0.0,0.05886,0.12753,9.91791
5782828225,,-0.021310470166850764,0.004258603374866164,0.0,-0.019620000000000002,0.06867000000000001,9.95715
5787878730,,-0.03728023282259888,-0.005323254218582705,0.0,0.05886,0.0,9.95715
5792929235,,-0.03621558197888234,-0.00958185759344887,0.0,0.05886,-0.019620000000000002,9.937529999999999
5797979740,,-0.02663372438543347,-0.005323254218582705,0.0,0.06867000000000001,0.009810000000000001,9.91791
5803030245,,-0.008517206749732328,-0.001064650843716541,0.0,0.04905,0.039240000000000004,9.85905
5808080750,,0.004258603374866164,0.002129301687433082,0.0,0.04905,0.12753,9.85905
5813131255,,0.006387905062299246,0.0,0.0,0.08829,0.17658,9.888480000000001
5818181760,,-0.003193952531149623,-0.006387905062299246,0.0,0.06867000000000001,0.18639,9.94734
5823232265,,-0.02556907354171693,-0.014905111812031574,0.0,0.06867000000000001,0.12753,9.92772
5828282770,,-0.04153883619746504,-0.01918116847941768,0.0,0.12753,0.06867000000000001,9.92772
5833333275,,-0.0404741853537485,-0.012775810124598492,0.0,0.10791,0.009810000000000001,9.888480000000001
5838383780,,-0.028763026072866547,-0.012775810124598492,0.0,0.13734000000000002,0.039240000000000004,9.84924
5843434285,,-0.012775810124598492,-0.007452555906015787,0.0,0.13734000000000002,0.08829,9.81
5848484790,,-0.003193952531149623,0.006387905062299246,0.0,0.16677000000000003,0.11772,9.84924
5853535295,,-0.014905111812031574,0.011711159280881954,0.0,0.12753,0.07848000000000001,9.89829
5858585800,,-0.031956978604016174,0.01064650843716541,0.0,0.04905,0.02943,9.92772
5863636305,,-0.039409534510031964,-0.004258603374866164,0.0,0.05886,-0.05886,9.98658
5868686810,,-0.03621558197888234,-0.00958185759344887,0.0,0.0981,-0.06867000000000001,9.96696
5873737315,,-0.022375121010567305,-0.01064650843716541,0.0,0.08829,-0.04905,9.937529999999999
5878787820,,0.0,-0.005323254218582705,0.0,0.13734000000000002,0.04905,9.89829
5883838325,,0.012775810124598492,0.00958185759344887,0.0,0.13734000000000002,0.11772,9.86886
5888888830,,0.012775810124598492,0.013840460968315033,0.0,0.07848000000000001,0.1962,9.86886
5893939335,,-0.002129301687433082,0.008517206749732328,0.0,0.0981,0.17658,9.908100000000001
5898989840,,-0.01918116847941768,0.01064650843716541,0.0,0.07848000000000001,0.13734000000000002,9.85905
5904040345,,-0.03089232776029963,0.003193952531149623,0.0,0.05886,0.0981,9.89829
5909090850,,-0.03515093113516579,0.0,0.0,0.06867000000000001,0.009810000000000001,9.87867
5914141355,,-0.03089232776029963,-0.002129301687433082,0.0,0.04905,0.0,9.86886
5919191860,,-0.014905111812031574,-0.00958185759344887,0.0,0.06867000000000001,0.07848000000000001,9.82962
5924242365,,-0.006387905062299246,-0.003193952531149623,0.0,0.10791,0.14715,9.819809999999999
5929292870,,-0.012775810124598492,0.002129301687433082,0.0,0.0981,0.11772,9.78057
5934343375,,-0.028763026072866547,0.007452555906015787,0.0,0.06867000000000001,0.07848000000000001,9.80019
5939393880,,-0.03408628029144926,0.007452555906015787,0.0,0.02943,-0.009810000000000001,9.819809999999999
5944444385,,-0.03621558197888234,-0.008517206749732328,0.0,0.0,-0.019620000000000002,9.908100000000001
5949494890,,-0.02769837522915001,-0.020245819323134222,0.0,0.04905,-0.05886,9.888480000000001
5954545395,,-0.014905111812031574,-0.021310470166850764,0.0,0.10791,0.0,9.91791
5959595900,,-0.002129301687433082,-0.014905111812031574,0.0,0.15696000000000002,0.02943,9.94734
5964646405,,-0.002129301687433082,-0.006387905062299246,0.0,0.18639,0.10791,9.91791
5969696910,,-0.004258603374866164,0.002129301687433082,0.0,0.15696000000000002,0.07848000000000001,9.908100000000001
5974747415,,-0.012775810124598492,0.008517206749732328,0.0,0.15696000000000002,0.07848000000000001,9.87867
5979797920,,-0.024504422698000388,0.007452555906015787,0.0,0.13734000000000002,0.06867000000000001,9.908100000000001
5984848425,,-0.02556907354171693,0.003193952531149623,0.0,0.10791,0.019620000000000002,9.95715
5989898930,,-0.024504422698000388,0.002129301687433082,0.0,0.10791,-0.009810000000000001,9.98658
5994949435,,-0.021310470166850764,-0.002129301687433082,0.0,0.10791,0.009810000000000001,9.97677
5999999940,,-0.01064650843716541,0.001064650843716541,0.0,0.11772,0.07848000000000001,9.908100000000001
6005050445,,-0.007452555906015787,0.006387905062299246,0.0,0.13734000000000002,0.10791,9.83943
6010100950,,-0.015987215948268057,0.01811651763570114,0.0,0.11772,0.08829,9.80019
6015151455,,-0.023439771854283843,0.022375121010567305,0.0,0.05886,0.039240000000000004,9.80019
6020201960,,-0.02556907354171693,0.01064650843716541,0.0,0.0,0.009810000000000001,9.83943
6025252465,,-0.024504422698000388,-0.006387905062299246,0.0,-0.019620000000000002,-0.019620000000000002,9.91791
6030302970,,-0.021310470166850764,-0.01918116847941768,0.0,0.02943,-0.02943,9.95715
6035353475,,-0.015987215948268057,-0.0170518667919846,0.0,0.0981,0.009810000000000001,9.937529999999999
6040403980,,-0.01064650843716541,-0.01064650843716541,0.0,0.12753,0.06867000000000001,9.91791
6045454485,,-0.006387905062299246,0.0,0.0,0.12753,0.07848000000000001,9.83943
6050504990,,-0.008517206749732328,0.003193952531149623,0.0,0.0981,0.10791,9.78057
6055555495,,-0.015987215948268057,0.0,0.0,0.06867000000000001,0.0981,9.81
6060606000,,-0.02556907354171693,-0.003193952531149623,0.0,0.0981,0.04905,9.87867
6065656505,,-0.031956978604016174,-0.012775810124598492,0.0,0.06867000000000001,-0.009810000000000001,9.94734
6070707010,,-0.03089232776029963,-0.014905111812031574,0.0,0.13734000000000002,-0.009810000000000001,10.006200000000002
6075757515,,-0.02769837522915001,-0.011711159280881954,0.0,0.15696000000000002,-0.05886,10.01601
6080808020,,-0.021310470166850764,-0.006387905062299246,0.0,0.16677000000000003,-0.009810000000000001,9.99639
6085858525,,-0.015987215948268057,0.005323254218582705,0.0,0.16677000000000003,-0.009810000000000001,9.97677
6090909030,,-0.013840460968315033,0.0170518667919846,0.0,0.13734000000000002,-0.02943,9.95715
6095959535,,-0.01064650843716541,0.013840460968315033,0.0,0.05886,-0.02943,9.937529999999999
6101010040,,-0.01064650843716541,0.004258603374866164,0.0,0.04905,0.0,9.95715
6106060545,,-0.00958185759344887,-0.007452555906015787,0.0,0.07848000000000001,0.0,9.96696
6111111050,,-0.007452555906015787,-0.00958185759344887,0.0,0.12753,0.039240000000000004,9.937529999999999
6116161555,,-0.006387905062299246,-0.003193952531149623,0.0,0.15696000000000002,0.07848000000000001,9.91791
6121212060,,-0.008517206749732328,0.006387905062299246,0.0,0.13734000000000002,0.10791,9.819809999999999
6126262565,,-0.00958185759344887,0.014905111812031574,0.0,0.0981,0.11772,9.760950000000001
6131313070,,-0.015987215948268057,0.0170518667919846,0.0,0.0981,0.10791,9.751140000000001
6136363575,,-0.02769837522915001,0.006387905062299246,0.0,0.039240000000000004,0.04905,9.760950000000001
6141414080,,-0.02663372438543347,-0.002129301687433082,0.0,0.02943,0.019620000000000002,9.81
6146464585,,-0.03089232776029963,-0.00958185759344887,0.0,0.02943,-0.019620000000000002,9.84924
6151515090,,-0.02663372438543347,-0.0170518667919846,0.0,0.06867000000000001,-0.039240000000000004,9.86886
6156565595,,-0.02556907354171693,-0.01064650843716541,0.0,0.0981,-0.019620000000000002,9.86886
6161616100,,-0.0170518667919846,-0.007452555906015787,0.0,0.10791,-0.009810000000000001,9.80019
6166666605,,-0.014905111812031574,-0.002129301687433082,0.0,0.14715,0.009810000000000001,9.770760000000001
6171717110,,-0.014905111812031574,0.001064650843716541,0.0,0.08829,0.0,9.770760000000001
6176767615,,-0.021310470166850764,-0.003193952531149623,0.0,0.05886,-0.019620000000000002,9.84924
6181818120,,-0.021310470166850764,-0.011711159280881954,0.0,0.06867000000000001,-0.039240000000000004,9.91791
6186868625,,-0.021310470166850764,-0.01811651763570114,0.0,0.11772,-0.019620000000000002,10.006200000000002
6191919130,,-0.012775810124598492,-0.011711159280881954,0.0,0.17658,-0.039240000000000004,10.025820000000001
6196969635,,-0.011711159280881954,0.0,0.0,0.15696000000000002,0.0,10.01601
6202020140,,-0.007452555906015787,0.006387905062299246,0.0,0.1962,0.02943,9.99639
6207070645,,-0.00958185759344887,0.0170518667919846,0.0,0.16677000000000003,0.05886,9.91791
6212121150,,-0.015987215948268057,0.01811651763570114,0.0,0.0981,0.019620000000000002,9.91791
6217171655,,-0.022375121010567305,0.011711159280881954,0.0,0.039240000000000004,-0.009810000000000001,9.92772
6222222160,,-0.01918116847941768,0.001064650843716541,0.0,0.05886,-0.019620000000000002,9.96696
6227272665,,-0.01811651763570114,0.0,0.0,0.07848000000000001,-0.04905,10.01601
6232323170,,-0.014905111812031574,0.002129301687433082,0.0,0.07848000000000001,0.0,9.96696
6237373675,,-0.01064650843716541,0.006387905062299246,0.0,0.0981,0.009810000000000001,9.908100000000001
6242424180,,-0.013840460968315033,0.007452555906015787,0.0,0.08829,0.019620000000000002,9.888480000000001
6247474685,,-0.014905111812031574,0.008517206749732328,0.0,0.04905,0.009810000000000001,9.819809999999999
6252525190,,-0.01918116847941768,0.0,0.0,0.0,0.0,9.82962
6257575695,,-0.021310470166850764,-0.008517206749732328,0.0,0.009810000000000001,0.0,9.819809999999999
6262626200,,-0.01918116847941768,-0.01811651763570114,0.0,0.04905,-0.009810000000000001,9.87867
6267676705,,-0.013840460968315033,-0.021310470166850764,0.0,0.08829,0.009810000000000001,9.85905
6272727210,,-0.012775810124598492,-0.014905111812031574,0.0,0.13734000000000002,0.019620000000000002,9.87867
6277777715,,-0.014905111812031574,-0.003193952531149623,0.0,0.15696000000000002,0.06867000000000001,9.84924
6282828220,,-0.01811651763570114,0.0,0.0,0.12753,0.04905,9.79038
6287878725,,-0.024504422698000388,-0.002129301687433082,0.0,0.12753,0.02943,9.770760000000001
6292929230,,-0.028763026072866547,0.001064650843716541,0.0,0.0981,-0.039240000000000004,9.81
6297979735,,-0.031956978604016174,-0.003193952531149623,0.0,0.0981,-0.10791,9.888480000000001
6303030240,,-0.024504422698000388,-0.012775810124598492,0.0,0.10791,-0.0981,9.97677
6308080745,,-0.0170518667919846,-0.00958185759344887,0.0,0.14715,-0.11772,9.97677
6313131250,,-0.008517206749732328,-0.001064650843716541,0.0,0.17658,-0.05886,10.045440000000001
6318181755,,-0.004258603374866164,0.007452555906015787,0.0,0.16677000000000003,-0.02943,9.97677
6323232260,,-0.005323254218582705,0.011711159280881954,0.0,0.10791,-0.009810000000000001,9.94734
6328282765,,-0.01064650843716541,0.015987215948268057,0.0,0.11772,-0.019620000000000002,9.98658
6333333270,,-0.011711159280881954,0.01064650843716541,0.0,0.05886,-0.02943,9.98658
6338383775,,-0.00958185759344887,0.0,0.0,0.06867000000000001,-0.039240000000000004,10.025820000000001
6343434280,,-0.011711159280881954,-0.004258603374866164,0.0,0.11772,-0.009810000000000001,10.06506
6348484785,,-0.007452555906015787,-0.001064650843716541,0.0,0.11772,0.0,9.96696
6353535290,,-0.002129301687433082,0.003193952531149623,0.0,0.11772,0.04905,9.937529999999999
6358585795,,-0.005323254218582705,0.01064650843716541,0.0,0.10791,0.06867000000000001,9.85905
6363636300,,-0.012775810124598492,0.013840460968315033,0.0,0.07848000000000001,0.08829,9.760950000000001
6368686805,,-0.024504422698000388,0.008517206749732328,0.0,0.019620000000000002,0.019620000000000002,9.74133
6373737310,,-0.03089232776029963,0.0,0.0,0.019620000000000002,-0.02943,9.760950000000001
6378787815,,-0.03728023282259888,-0.011711159280881954,0.0,0.009810000000000001,-0.08829,9.819809999999999
6383838320,,-0.03728023282259888,-0.020245819323134222,0.0,0.04905,-0.10791,9.87867
6388888825,,-0.02556907354171693,-0.01811651763570114,0.0,0.08829,-0.0981,9.83943
6393939330,,-0.011711159280881954,-0.01064650843716541,0.0,0.12753,-0.02943,9.819809999999999
6398989835,,-0.004258603374866164,-0.007452555906015787,0.0,0.15696000000000002,0.019620000000000002,9.78057
6404040340,,-0.004258603374866164,0.002129301687433082,0.0,0.13734000000000002,0.06867000000000001,9.79038
6409090845,,-0.00958185759344887,0.0,0.0,0.08829,0.02943,9.81
6414141350,,-0.02556907354171693,-0.00958185759344887,0.0,0.0981,-0.06867000000000001,9.87867
6419191855,,-0.03408628029144926,-0.015987215948268057,0.0,0.12753,-0.12753,10.006200000000002
6424242360,,-0.02982767691658309,-0.013840460968315033,0.0,0.14715,-0.13734000000000002,10.05525
6429292865,,-0.00958185759344887,-0.003193952531149623,0.0,0.20601000000000003,-0.0981,10.03563
6434343370,,0.004258603374866164,0.004258603374866164,0.0,0.20601000000000003,0.0,9.99639
6439393875,,0.008517206749732328,0.021310470166850764,0.0,0.16677000000000003,0.04905,9.908100000000001
6444444380,,0.004258603374866164,0.022375121010567305,0.0,0.12753,0.06867000000000001,9.86886
6449494885,,-0.01064650843716541,0.01918116847941768,0.0,0.07848000000000001,0.039240000000000004,9.85905
6454545390,,-0.03408628029144926,0.007452555906015787,0.0,0.05886,-0.06867000000000001,9.937529999999999
6459595895,,-0.04153883619746504,0.002129301687433082,0.0,0.05886,-0.14715,10.006200000000002
6464646400,,-0.03408628029144926,-0.001064650843716541,0.0,0.039240000000000004,-0.15696000000000002,10.01601
6469696905,,-0.012775810124598492,-0.003193952531149623,0.0,0.04905,-0.10791,9.99639
6474747410,,0.003193952531149623,0.0,0.0,0.0981,-0.009810000000000001,9.908100000000001
6479797915,,0.00958185759344887,0.008517206749732328,0.0,0.07848000000000001,0.04905,9.82962
6484848420,,0.001064650843716541,0.00958185759344887,0.0,0.05886,0.0981,9.78057
6489898925,,-0.011711159280881954,0.001064650843716541,0.0,0.02943,0.039240000000000004,9.751140000000001
6494949430,,-0.03089232776029963,-0.014905111812031574,0.0,0.019620000000000002,-0.019620000000000002,9.84924
6499999935,,-0.04366813788489812,-0.021310470166850764,0.0,0.06867000000000001,-0.13734000000000002,9.908100000000001
6505050440,,-0.04153883619746504,-0.022375121010567305,0.0,0.0981,-0.18639,10.01601
6510100945,,-0.021310470166850764,-0.0170518667919846,0.0,0.12753,-0.13734000000000002,10.006200000000002
6515151450,,-0.003193952531149623,-0.012775810124598492,0.0,0.16677000000000003,-0.039240000000000004,9.89829
6520201955,,0.004258603374866164,-0.002129301687433082,0.0,0.17658,0.04905,9.81
6525252460,,0.004258603374866164,0.003193952531149623,0.0,0.16677000000000003,0.0981,9.73152
6530302965,,-0.013840460968315033,0.007452555906015787,0.0,0.11772,0.06867000000000001,9.72171
6535353470,,-0.02982767691658309,0.0,0.0,0.08829,-0.039240000000000004,9.80019
6540403975,,-0.04260348704118158,-0.006387905062299246,0.0,0.14715,-0.16677000000000003,9.89829
6545454480,,-0.044732788728614664,-0.004258603374866164,0.0,0.11772,-0.22563,10.01601
6550504985,,-0.02663372438543347,0.0,0.0,0.11772,-0.20601000000000003,10.05525
6555555490,,-0.003193952531149623,0.003193952531149623,0.0,0.15696000000000002,-0.12753,10.03563
6560605995,,0.012775810124598492,0.013840460968315033,0.0,0.13734000000000002,-0.04905,9.937529999999999
6565656500,,0.015987215948268057,0.01918116847941768,0.0,0.11772,0.019620000000000002,9.84924
6570707005,,0.006387905062299246,0.013840460968315033,0.0,0.04905,0.04905,9.86886
6575757510,,-0.01064650843716541,0.004258603374866164,0.0,0.05886,0.039240000000000004,9.92772
6580808015,,-0.023439771854283843,-0.004258603374866164,0.0,0.06867000000000001,-0.08829,9.98658
6585858520,,-0.033021629447732716,-0.005323254218582705,0.0,0.10791,-0.15696000000000002,10.08468
6590909025,,-0.02556907354171693,-0.001064650843716541,0.0,0.10791,-0.14715,10.163160000000001
6595959530,,-0.008517206749732328,0.002129301687433082,0.0,0.08829,-0.08829,10.08468
6601010035,,0.003193952531149623,0.002129301687433082,0.0,0.07848000000000001,0.0,9.94734
6606060540,,0.007452555906015787,0.0,0.0,0.06867000000000001,0.07848000000000001,9.83943
6611111045,,-0.003193952531149623,-0.004258603374866164,0.0,0.08829,0.0981,9.70209
6616161550,,-0.013840460968315033,-0.006387905062299246,0.0,0.07848000000000001,0.07848000000000001,9.73152
6621212055,,-0.02769837522915001,-0.008517206749732328,0.0,0.08829,-0.009810000000000001,9.7119
6626262560,,-0.039409534510031964,-0.012775810124598492,0.0,0.0981,-0.0981,9.80019
6631313065,,-0.04153883619746504,-0.008517206749732328,0.0,0.10791,-0.15696000000000002,9.87867
6636363570,,-0.03089232776029963,-0.005323254218582705,0.0,0.08829,-0.13734000000000002,9.908100000000001
6641414075,,-0.01811651763570114,-0.001064650843716541,0.0,0.0981,-0.11772,9.82962
6646464580,,-0.005323254218582705,0.0,0.0,0.07848000000000001,-0.02943,9.760950000000001
6651515085,,0.0,-0.007452555906015787,0.0,0.11772,-0.02943,9.7119
6656565590,,-0.002129301687433082,-0.00958185759344887,0.0,0.06867000000000001,0.0,9.70209
6661616095,,-0.00958185759344887,-0.011711159280881954,0.0,0.13734000000000002,0.0,9.770760000000001
6666666600,,-0.020245819323134222,-0.002129301687433082,0.0,0.17658,-0.07848000000000001,9.84924
6671717105,,-0.02556907354171693,0.006387905062299246,0.0,0.17658,-0.12753,9.96696
6676767610,,-0.01918116847941768,0.00958185759344887,0.0,0.15696000000000002,-0.15696000000000002,10.045440000000001
6681818115,,-0.012775810124598492,0.012775810124598492,0.0,0.13734000000000002,-0.13734000000000002,10.074869999999999
6686868620,,-0.005323254218582705,0.012775810124598492,0.0,0.11772,-0.13734000000000002,10.11411
6691919125,,-0.005323254218582705,0.00958185759344887,0.0,0.10791,-0.11772,10.025820000000001
6696969630,,-0.006387905062299246,0.006387905062299246,0.0,0.06867000000000001,-0.04905,10.025820000000001
6702020135,,-0.004258603374866164,-0.006387905062299246,0.0,0.039240000000000004,-0.02943,10.006200000000002
6707070640,,-0.004258603374866164,-0.005323254218582705,0.0,0.11772,-0.039240000000000004,9.95715
6712121145,,-0.003193952531149623,0.003193952531149623,0.0,0.12753,-0.02943,9.92772
6717171650,,-0.007452555906015787,0.011711159280881954,0.0,0.10791,-0.039240000000000004,9.92772
6722222155,,-0.013840460968315033,0.01811651763570114,0.0,0.07848000000000001,-0.04905,9.91791
6727272660,,-0.015987215948268057,0.00958185759344887,0.0,0.009810000000000001,-0.04905,9.89829
6732323165,,-0.021310470166850764,-0.005323254218582705,0.0,0.039240000000000004,-0.019620000000000002,9.908100000000001
6737373670,,-0.02663372438543347,-0.012775810124598492,0.0,0.02943,-0.10791,9.888480000000001
6742424175,,-0.02663372438543347,-0.01918116847941768,0.0,0.04905,-0.15696000000000002,9.85905
6747474680,,-0.020245819323134222,-0.015987215948268057,0.0,0.0981,-0.13734000000000002,9.819809999999999
6752525185,,-0.012775810124598492,-0.015987215948268057,0.0,0.10791,-0.08829,9.79038
6757575690,,-0.003193952531149623,-0.012775810124598492,0.0,0.14715,-0.02943,9.80019
6762626195,,-0.001064650843716541,-0.001064650843716541,0.0,0.16677000000000003,-0.02943,9.751140000000001
6767676700,,-0.007452555906015787,0.002129301687433082,0.0,0.16677000000000003,0.0,9.751140000000001
6772727205,,-0.015987215948268057,0.003193952531149623,0.0,0.12753,-0.019620000000000002,9.79038
6777777710,,-0.02982767691658309,-0.004258603374866164,0.0,0.0981,-0.11772,9.84924
6782828215,,-0.031956978604016174,-0.012775810124598492,0.0,0.12753,-0.20601000000000003,9.937529999999999
6787878720,,-0.028763026072866547,-0.00958185759344887,0.0,0.17658,-0.21582,9.99639
6792929225,,-0.0170518667919846,-0.001064650843716541,0.0,0.15696000000000002,-0.18639,9.98658
6797979730,,-0.003193952531149623,0.006387905062299246,0.0,0.16677000000000003,-0.13734000000000002,9.97677
6803030235,,0.007452555906015787,0.012775810124598492,0.0,0.16677000000000003,-0.04905,9.94734
6808080740,,0.011711159280881954,0.013840460968315033,0.0,0.13734000000000002,-0.009810000000000001,9.86886
6813131245,,0.006387905062299246,0.014905111812031574,0.0,0.11772,0.019620000000000002,9.84924
6818181750,,-0.004258603374866164,0.00958185759344887,0.0,0.11772,0.0,9.86886
6823232255,,-0.021310470166850764,0.008517206749732328,0.0,0.08829,-0.05886,9.888480000000001
6828282760,,-0.02982767691658309,0.006387905062299246,0.0,0.05886,-0.13734000000000002,10.01601
6833333265,,-0.02556907354171693,0.003193952531149623,0.0,0.06867000000000001,-0.18639,10.08468
6838383770,,-0.0170518667919846,-0.003193952531149623,0.0,0.039240000000000004,-0.18639,10.074869999999999
6843434275,,-0.00958185759344887,0.001064650843716541,0.0,0.08829,-0.15696000000000002,10.06506
6848484780,,-0.003193952531149623,0.0,0.0,0.05886,-0.07848000000000001,10.01601
6853535285,,-0.002129301687433082,-0.004258603374866164,0.0,0.039240000000000004,-0.07848000000000001,9.937529999999999
6858585790,,-0.002129301687433082,-0.011711159280881954,0.0,0.0981,-0.02943,9.84924
6863636295,,-0.004258603374866164,-0.012775810124598492,0.0,0.08829,0.009810000000000001,9.84924
6868686800,,-0.011711159280881954,-0.00958185759344887,0.0,0.12753,-0.009810000000000001,9.81
6873737305,,-0.014905111812031574,-0.003193952531149623,0.0,0.14715,-0.04905,9.819809999999999
6878787810,,-0.020245819323134222,0.0,0.0,0.0981,-0.07848000000000001,9.86886
6883838315,,-0.01811651763570114,-0.005323254218582705,0.0,0.0981,-0.13734000000000002,9.937529999999999
6888888820,,-0.01918116847941768,-0.008517206749732328,0.0,0.10791,-0.14715,9.94734
6893939325,,-0.022375121010567305,-0.00958185759344887,0.0,0.13734000000000002,-0.18639,9.94734
6898989830,,-0.01918116847941768,-0.003193952531149623,0.0,0.12753,-0.20601000000000003,9.95715
6904040335,,-0.012775810124598492,-0.002129301687433082,0.0,0.10791,-0.16677000000000003,9.908100000000001
6909090840,,-0.005323254218582705,-0.001064650843716541,0.0,0.13734000000000002,-0.13734000000000002,9.86886
6914141345,,0.001064650843716541,0.004258603374866164,0.0,0.13734000000000002,-0.07848000000000001,9.81
6919191850,,0.007452555906015787,0.004258603374866164,0.0,0.15696000000000002,-0.009810000000000001,9.770760000000001
6924242355,,0.006387905062299246,0.01064650843716541,0.0,0.13734000000000002,0.02943,9.73152
6929292860,,0.0,0.00958185759344887,0.0,0.10791,0.009810000000000001,9.69228
6934343365,,-0.01064650843716541,0.007452555906015787,0.0,0.07848000000000001,0.009810000000000001,9.760950000000001
6939393870,,-0.021310470166850764,0.002129301687433082,0.0,0.08829,-0.04905,9.819809999999999
6944444375,,-0.02982767691658309,-0.002129301687433082,0.0,0.0981,-0.15696000000000002,9.908100000000001
6949494880,,-0.03621558197888234,0.005323254218582705,0.0,0.11772,-0.24525000000000002,9.96696
6954545385,,-0.02663372438543347,0.004258603374866164,0.0,0.08829,-0.25506,10.03563
6959595890,,-0.011711159280881954,0.002129301687433082,0.0,0.039240000000000004,-0.22563,10.045440000000001
6964646395,,0.002129301687433082,0.001064650843716541,0.0,0.04905,-0.16677000000000003,10.03563
6969696900,,0.006387905062299246,-0.002129301687433082,0.0,0.06867000000000001,-0.08829,9.95715
6974747405,,0.007452555906015787,-0.008517206749732328,0.0,0.06867000000000001,-0.039240000000000004,9.908100000000001
6979797910,,0.003193952531149623,-0.011711159280881954,0.0,0.08829,-0.009810000000000001,9.87867
6984848415,,-0.002129301687433082,-0.0170518667919846,0.0,0.13734000000000002,-0.009810000000000001,9.84924
6989898920,,-0.012775810124598492,-0.008517206749732328,0.0,0.16677000000000003,-0.02943,9.87867
6994949425,,-0.015987215948268057,-0.006387905062299246,0.0,0.16677000000000003,-0.039240000000000004,9.85905
6999999930,,-0.023439771854283843,0.004258603374866164,0.0,0.16677000000000003,-0.13734000000000002,9.95715
7005050435,,-0.02769837522915001,0.015987215948268057,0.0,0.0981,-0.18639,9.99639
7010100940,,-0.02556907354171693,0.004258603374866164,0.0,0.07848000000000001,-0.24525000000000002,10.045440000000001
7015151445,,-0.01918116847941768,0.001064650843716541,0.0,0.0981,-0.26487,10.03563
7020201950,,-0.0170518667919846,-0.003193952531149623,0.0,0.07848000000000001,-0.22563,10.025820000000001
7025252455,,-0.005323254218582705,-0.00958185759344887,0.0,0.06867000000000001,-0.21582,9.96696
7030302960,,0.002129301687433082,-0.006387905062299246,0.0,0.12753,-0.10791,9.89829
7035353465,,0.008517206749732328,-0.002129301687433082,0.0,0.11772,-0.05886,9.84924
7040403970,,0.012775810124598492,-0.001064650843716541,0.0,0.11772,0.019620000000000002,9.81
7045454475,,0.006387905062299246,0.002129301687433082,0.0,0.12753,0.039240000000000004,9.74133
7050504980,,-0.001064650843716541,0.003193952531149623,0.0,0.11772,0.009810000000000001,9.7119
7055555485,,-0.014905111812031574,0.005323254218582705,0.0,0.12753,-0.02943,9.73152
7060605990,,-0.021310470166850764,0.005323254218582705,0.0,0.08829,-0.039240000000000004,9.760950000000001
7065656495,,-0.024504422698000388,0.002129301687433082,0.0,0.07848000000000001,-0.15696000000000002,9.82962
7070707000,,-0.02663372438543347,0.002129301687433082,0.0,0.10791,-0.17658,9.908100000000001
7075757505,,-0.024504422698000388,0.0,0.0,0.10791,-0.1962,9.937529999999999
7080808010,,-0.01918116847941768,-0.004258603374866164,0.0,0.08829,-0.21582,9.96696
7085858515,,-0.00958185759344887,-0.002129301687433082,0.0,0.06867000000000001,-0.22563,9.98658
7090909020,,-0.004258603374866164,-0.003193952531149623,0.0,0.06867000000000001,-0.18639,9.96696
7095959525,,0.0,-0.004258603374866164,0.0,0.0981,-0.14715,9.937529999999999
7101010030,,0.004258603374866164,-0.006387905062299246,0.0,0.11772,-0.0981,9.908100000000001
7106060535,,0.002129301687433082,-0.006387905062299246,0.0,0.15696000000000002,-0.039240000000000004,9.86886
7111111040,,-0.001064650843716541,-0.004258603374866164,0.0,0.15696000000000002,-0.039240000000000004,9.91791
7116161545,,-0.005323254218582705,-0.004258603374866164,0.0,0.13734000000000002,-0.039240000000000004,9.87867
7121212050,,-0.004258603374866164,0.0,0.0,0.16677000000000003,-0.039240000000000004,9.89829
7126262555,,-0.011711159280881954,0.0,0.0,0.16677000000000003,-0.04905,9.87867
7131313060,,-0.013840460968315033,0.003193952531149623,0.0,0.14715,-0.12753,9.92772
7136363565,,-0.021310470166850764,0.00958185759344887,0.0,0.13734000000000002,-0.17658,9.94734
7141414070,,-0.021310470166850764,0.008517206749732328,0.0,0.07848000000000001,-0.20601000000000003,9.98658
7146464575,,-0.020245819323134222,0.003193952531149623,0.0,0.06867000000000001,-0.20601000000000003,10.01601
7151515080,,-0.014905111812031574,0.003193952531149623,0.0,0.08829,-0.25506,10.025820000000001
7156565585,,-0.00958185759344887,0.002129301687433082,0.0,0.08829,-0.21582,10.01601
7161616090,,0.0,0.001064650843716541,0.0,0.0981,-0.18639,9.98658
7166666595,,0.006387905062299246,-0.002129301687433082,0.0,0.06867000000000001,-0.13734000000000002,9.96696
7171717100,,0.00958185759344887,-0.007452555906015787,0.0,0.07848000000000001,-0.07848000000000001,9.87867
7176767605,,0.01064650843716541,-0.007452555906015787,0.0,0.12753,-0.019620000000000002,9.87867
7181818110,,0.003193952531149623,-0.006387905062299246,0.0,0.13734000000000002,0.0,9.81
7186868615,,-0.004258603374866164,-0.003193952531149623,0.0,0.14715,0.0,9.770760000000001
7191919120,,-0.012775810124598492,0.003193952531149623,0.0,0.10791,-0.05886,9.770760000000001
7196969625,,-0.01811651763570114,0.004258603374866164,0.0,0.12753,-0.06867000000000001,9.79038
7202020130,,-0.020245819323134222,0.004258603374866164,0.0,0.08829,-0.10791,9.819809999999999
7207070635,,-0.01918116847941768,0.0,0.0,0.08829,-0.15696000000000002,9.84924
7212121140,,-0.021310470166850764,0.0,0.0,0.07848000000000001,-0.1962,9.82962
7217171645,,-0.020245819323134222,0.0,0.0,0.0981,-0.1962,9.87867
7222222150,,-0.015987215948268057,-0.005323254218582705,0.0,0.10791,-0.23544,9.89829
7227272655,,-0.012775810124598492,-0.003193952531149623,0.0,0.0981,-0.25506,9.937529999999999
7232323160,,-0.006387905062299246,-0.003193952531149623,0.0,0.0981,-0.22563,9.937529999999999
7237373665,,0.003193952531149623,-0.003193952531149623,0.0,0.0981,-0.20601000000000003,9.98658
7242424170,,0.003193952531149623,-0.002129301687433082,0.0,0.12753,-0.18639,10.045440000000001
7247474675,,0.00958185759344887,-0.003193952531149623,0.0,0.10791,-0.13734000000000002,10.025820000000001
7252525180,,0.00958185759344887,0.0,0.0,0.13734000000000002,-0.11772,10.025820000000001
7257575685,,0.008517206749732328,0.002129301687433082,0.0,0.13734000000000002,-0.08829,9.99639
7262626190,,0.001064650843716541,0.001064650843716541,0.0,0.13734000000000002,-0.02943,9.99639
7267676695,,-0.002129301687433082,0.001064650843716541,0.0,0.15696000000000002,-0.04905,9.94734
7272727200,,-0.006387905062299246,0.008517206749732328,0.0,0.16677000000000003,-0.05886,9.908100000000001
7277777705,,-0.012775810124598492,0.007452555906015787,0.0,0.11772,-0.10791,9.91791
7282828210,,-0.015987215948268057,0.007452555906015787,0.0,0.08829,-0.11772,9.85905
7287878715,,-0.0170518667919846,0.008517206749732328,0.0,0.07848000000000001,-0.12753,9.86886
7292929220,,-0.015987215948268057,0.004258603374866164,0.0,0.04905,-0.1962,9.85905
7297979725,,-0.01811651763570114,0.001064650843716541,0.0,0.05886,-0.1962,9.84924
7303030230,,-0.014905111812031574,0.0,0.0,0.039240000000000004,-0.20601000000000003,9.86886
7308080735,,-0.006387905062299246,-0.006387905062299246,0.0,0.04905,-0.20601000000000003,9.87867
7313131240,,-0.002129301687433082,-0.011711159280881954,0.0,0.039240000000000004,-0.18639,9.87867
7318181745,,0.001064650843716541,-0.011711159280881954,0.0,0.11772,-0.17658,9.937529999999999
7323232250,,0.001064650843716541,-0.008517206749732328,0.0,0.12753,-0.14715,9.937529999999999
7328282755,,0.003193952531149623,-0.008517206749732328,0.0,0.12753,-0.11772,9.937529999999999
7333333260,,0.004258603374866164,-0.008517206749732328,0.0,0.18639,-0.10791,9.97677
7338383765,,0.002129301687433082,-0.004258603374866164,0.0,0.16677000000000003,-0.0981,9.94734
7343434270,,0.002129301687433082,-0.002129301687433082,0.0,0.14715,-0.07848000000000001,9.94734
7348484775,,-0.003193952531149623,0.006387905062299246,0.0,0.17658,-0.08829,9.92772
7353535280,,-0.006387905062299246,0.006387905062299246,0.0,0.12753,-0.0981,9.92772
7358585785,,-0.012775810124598492,0.005323254218582705,0.0,0.12753,-0.15696000000000002,9.908100000000001
7363636290,,-0.013840460968315033,0.008517206749732328,0.0,0.13734000000000002,-0.15696000000000002,9.86886
7368686795,,-0.011711159280881954,0.007452555906015787,0.0,0.08829,-0.15696000000000002,9.81
7373737300,,-0.00958185759344887,0.00958185759344887,0.0,0.0981,-0.15696000000000002,9.82962
7378787805,,-0.007452555906015787,0.008517206749732328,0.0,0.06867000000000001,-0.15696000000000002,9.78057
7383838310,,-0.002129301687433082,0.001064650843716541,0.0,0.02943,-0.13734000000000002,9.73152
7388888815,,-0.002129301687433082,0.0,0.0,0.08829,-0.08829,9.7119
7393939320,,-0.004258603374866164,-0.002129301687433082,0.0,0.07848000000000001,-0.10791,9.72171
7398989825,,-0.005323254218582705,-0.003193952531149623,0.0,0.08829,-0.12753,9.760950000000001
7404040330,,-0.007452555906015787,0.0,0.0,0.08829,-0.13734000000000002,9.81
7409090835,,-0.004258603374866164,-0.003193952531149623,0.0,0.08829,-0.10791,9.85905
7414141340,,-0.005323254218582705,-0.001064650843716541,0.0,0.0981,-0.11772,9.86886
7419191845,,-0.006387905062299246,-0.003193952531149623,0.0,0.11772,-0.10791,9.94734
7424242350,,-0.00958185759344887,-0.004258603374866164,0.0,0.15696000000000002,-0.18639,9.94734
7429292855,,-0.011711159280881954,-0.005323254218582705,0.0,0.12753,-0.17658,9.98658
7434343360,,-0.011711159280881954,-0.002129301687433082,0.0,0.12753,-0.1962,10.01601
7439393865,,-0.008517206749732328,-0.005323254218582705,0.0,0.15696000000000002,-0.20601000000000003,10.03563
7444444370,,-0.004258603374866164,0.0,0.0,0.12753,-0.1962,10.05525
7449494875,,-0.003193952531149623,0.004258603374866164,0.0,0.13734000000000002,-0.21582,10.045440000000001
7454545380,,0.0,0.005323254218582705,0.0,0.15696000000000002,-0.18639,10.045440000000001
7459595885,,0.0,0.001064650843716541,0.0,0.10791,-0.20601000000000003,10.03563
7464646390,,0.002129301687433082,0.001064650843716541,0.0,0.10791,-0.14715,9.99639
7469696895,,0.002129301687433082,0.004258603374866164,0.0,0.12753,-0.10791,9.94734
7474747400,,0.0,0.006387905062299246,0.0,0.0981,-0.08829,9.888480000000001
7479797905,,0.0,0.005323254218582705,0.0,0.08829,-0.07848000000000001,9.82962
7484848410,,-0.002129301687433082,0.002129301687433082,0.0,0.05886,-0.06867000000000001,9.78057
7489898915,,-0.005323254218582705,0.0,0.0,0.07848000000000001,-0.06867000000000001,9.78057
7494949420,,-0.01064650843716541,-0.002129301687433082,0.0,0.08829,-0.08829,9.74133
7499999925,,-0.011711159280881954,-0.002129301687433082,0.0,0.06867000000000001,-0.10791,9.70209
7505050430,,-0.0170518667919846,-0.005323254218582705,0.0,0.10791,-0.0981,9.70209
7510100935,,-0.0170518667919846,-0.004258603374866164,0.0,0.10791,-0.14715,9.7119
7515151440,,-0.013840460968315033,-0.006387905062299246,0.0,0.07848000000000001,-0.1962,9.72171
7520201945,,-0.012775810124598492,-0.007452555906015787,0.0,0.11772,-0.1962,9.819809999999999
7525252450,,-0.011711159280881954,0.004258603374866164,0.0,0.12753,-0.20601000000000003,9.85905
7530302955,,-0.007452555906015787,0.001064650843716541,0.0,0.11772,-0.21582,9.89829
7535353460,,-0.001064650843716541,0.0,0.0,0.0981,-0.20601000000000003,9.96696
7540403965,,-0.003193952531149623,-0.008517206749732328,0.0,0.08829,-0.1962,10.006200000000002
7545454470,,0.0,-0.01064650843716541,0.0,0.14715,-0.18639,9.99639
7550504975,,0.002129301687433082,-0.008517206749732328,0.0,0.16677000000000003,-0.18639,10.03563
7555555480,,0.004258603374866164,0.0,0.0,0.1962,-0.1962,10.03563
7560605985,,0.002129301687433082,0.008517206749732328,0.0,0.1962,-0.15696000000000002,10.06506
7565656490,,0.0,0.012775810124598492,0.0,0.13734000000000002,-0.14715,10.08468
7570706995,,0.0,0.013840460968315033,0.0,0.11772,-0.14715,10.074869999999999
7575757500,,0.0,0.00958185759344887,0.0,0.0981,-0.14715,10.045440000000001
7580808005,,-0.001064650843716541,0.013840460968315033,0.0,0.11772,-0.14715,9.99639
7585858510,,-0.003193952531149623,0.006387905062299246,0.0,0.07848000000000001,-0.14715,9.937529999999999
7590909015,,-0.002129301687433082,0.004258603374866164,0.0,0.05886,-0.11772,9.83943
7595959520,,-0.004258603374866164,0.002129301687433082,0.0,0.04905,-0.06867000000000001,9.80019
7601010025,,-0.006387905062299246,0.0,0.0,0.05886,-0.12753,9.7119
7606060530,,-0.011711159280881954,0.0,0.0,0.04905,-0.0981,9.68247
7611111035,,-0.015987215948268057,-0.003193952531149623,0.0,0.06867000000000001,-0.10791,9.69228
7616161540,,-0.015987215948268057,-0.011711159280881954,0.0,0.039240000000000004,-0.14715,9.68247
7621212045,,-0.014905111812031574,-0.015987215948268057,0.0,0.04905,-0.14715,9.7119
7626262550,,-0.014905111812031574,-0.020245819323134222,0.0,0.12753,-0.16677000000000003,9.72171
7631313055,,-0.011711159280881954,-0.015987215948268057,0.0,0.14715,-0.14715,9.72171
7636363560,,-0.00958185759344887,-0.00958185759344887,0.0,0.15696000000000002,-0.18639,9.80019
7641414065,,-0.006387905062299246,-0.002129301687433082,0.0,0.15696000000000002,-0.16677000000000003,9.86886
7646464570,,-0.002129301687433082,0.003193952531149623,0.0,0.15696000000000002,-0.18639,9.89829
7651515075,,-0.006387905062299246,0.001064650843716541,0.0,0.13734000000000002,-0.1962,9.96696
7656565580,,-0.006387905062299246,-0.001064650843716541,0.0,0.15696000000000002,-0.20601000000000003,10.006200000000002
7661616085,,-0.007452555906015787,0.0,0.0,0.15696000000000002,-0.22563,10.03563
7666666590,,-0.002129301687433082,0.0,0.0,0.15696000000000002,-0.1962,10.08468
7671717095,,0.0,0.003193952531149623,0.0,0.18639,-0.20601000000000003,10.05525
7676767600,,0.0,0.00958185759344887,0.0,0.16677000000000003,-0.15696000000000002,10.06506
7681818105,,0.0,0.015987215948268057,0.0,0.14715,-0.17658,10.08468
7686868610,,0.002129301687433082,0.01918116847941768,0.0,0.07848000000000001,-0.20601000000000003,10.045440000000001
7691919115,,0.0,0.015987215948268057,0.0,0.04905,-0.18639,10.03563
7696969620,,0.003193952531149623,0.01064650843716541,0.0,0.04905,-0.13734000000000002,10.01601
7702020125,,0.002129301687433082,0.003193952531149623,0.0,0.02943,-0.10791,9.95715
7707070630,,0.0,0.0,0.0,0.05886,-0.05886,9.84924
7712121135,,-0.001064650843716541,0.0,0.0,0.06867000000000001,-0.02943,9.751140000000001
7717171640,,-0.003193952531149623,-0.001064650843716541,0.0,0.04905,-0.039240000000000004,9.69228
7722222145,,-0.011711159280881954,-0.006387905062299246,0.0,0.07848000000000001,-0.05886,9.65304
7727272650,,-0.015987215948268057,-0.008517206749732328,0.0,0.02943,-0.0981,9.66285
7732323155,,-0.023439771854283843,-0.013840460968315033,0.0,0.06867000000000001,-0.16677000000000003,9.70209
7737373660,,-0.028763026072866547,-0.01918116847941768,0.0,0.07848000000000001,-0.1962,9.760950000000001
7742424165,,-0.024504422698000388,-0.023439771854283843,0.0,0.11772,-0.24525000000000002,9.81
7747474670,,-0.015987215948268057,-0.013840460968315033,0.0,0.15696000000000002,-0.26487,9.82962
7752525175,,-0.006387905062299246,-0.004258603374866164,0.0,0.15696000000000002,-0.25506,9.85905
7757575680,,-0.002129301687433082,0.0,0.0,0.15696000000000002,-0.21582,9.89829
7762626185,,-0.001064650843716541,0.001064650843716541,0.0,0.12753,-0.24525000000000002,9.92772
7767676690,,0.001064650843716541,-0.001064650843716541,0.0,0.13734000000000002,-0.21582,9.97677
7772727195,,0.002129301687433082,-0.003193952531149623,0.0,0.13734000000000002,-0.1962,9.98658
7777777700,,0.0,-0.003193952531149623,0.0,0.17658,-0.18639,10.074869999999999
7782828205,,0.0,0.004258603374866164,0.0,0.1962,-0.17658,10.06506
7787878710,,0.003193952531149623,0.00958185759344887,0.0,0.18639,-0.1962,10.074869999999999
7792929215,,0.006387905062299246,0.020245819323134222,0.0,0.16677000000000003,-0.15696000000000002,10.045440000000001
7797979720,,0.004258603374866164,0.023439771854283843,0.0,0.10791,-0.10791,9.98658
7803030225,,0.0,0.021310470166850764,0.0,0.0981,-0.13734000000000002,9.95715
7808080730,,-0.004258603374866164,0.01918116847941768,0.0,0.04905,-0.15696000000000002,9.96696
7813131235,,-0.008517206749732328,0.006387905062299246,0.0,0.0,-0.16677000000000003,9.91791
7818181740,,-0.008517206749732328,0.004258603374866164,0.0,0.019620000000000002,-0.14715,9.82962
