#timestamp [ns], temperature [degC], w_RS_S_x [rad s^-1], w_RS_S_y [rad s^-1], w_RS_S_z [rad s^-1], a_RS_S_x [m s^-2], a_RS_S_y [m s^-2], a_RS_S_z [m s^-2]
0,21.27,0.0,0.0,0.0,0.04905,0.34335000000000004,9.908100000000001
5050505,21.27,0.0,0.0,0.0,0.06867000000000001,0.32373,9.888480000000001
10101010,21.27,0.0,0.0,0.0,0.0981,0.33354000000000006,9.908100000000001
15151515,21.27,0.0,0.0,0.0,0.04905,0.33354000000000006,9.86886
20202020,21.27,0.0,0.0,0.0,0.06867000000000001,0.32373,9.82962
25252525,21.27,0.0,0.0,0.0,0.08829,0.36297,9.89829
30303030,21.27,0.0,0.0,0.0,0.07848000000000001,0.32373,9.89829
35353535,21.27,0.0,0.0,0.0,0.06867000000000001,0.31392000000000003,9.89829
40404040,21.27,0.0,0.0,0.0,0.07848000000000001,0.33354000000000006,9.908100000000001
45454545,21.27,0.0,0.0,0.0,0.06867000000000001,0.33354000000000006,9.87867
50505050,21.27,0.0,0.0,0.0,0.07848000000000001,0.31392000000000003,9.87867
55555555,21.27,0.0,0.0,0.0,0.06867000000000001,0.34335000000000004,9.86886
60606060,21.27,0.0,0.0,0.0,0.08829,0.30411,9.89829
65656565,21.27,0.0,0.0,0.0,0.08829,0.33354000000000006,9.888480000000001
70707070,21.27,0.0,0.0,0.0,0.08829,0.32373,9.87867
75757575,21.27,0.0,0.0,0.0,0.07848000000000001,0.35316,9.89829
80808080,21.27,0.0,0.0,0.0,0.08829,0.31392000000000003,9.908100000000001
85858585,21.27,0.0,0.0,0.0,0.05886,0.35316,9.89829
90909090,21.27,0.0,0.0,0.0,0.06867000000000001,0.31392000000000003,9.87867
95959595,21.27,0.0,0.0,0.0,0.07848000000000001,0.30411,9.888480000000001
101010100,21.27,0.0,0.0,0.0,0.06867000000000001,0.34335000000000004,9.888480000000001
106060605,21.27,0.0,0.0,0.0,0.07848000000000001,0.35316,9.87867
111111110,21.27,0.0,0.0,0.0,0.06867000000000001,0.34335000000000004,9.888480000000001
116161615,21.27,0.0,0.0,0.0,0.039240000000000004,0.34335000000000004,9.89829
121212120,21.27,0.0,0.0,0.0,0.07848000000000001,0.32373,9.89829
126262625,21.27,0.0,0.0,0.0,0.06867000000000001,0.31392000000000003,9.86886
131313130,21.27,0.0,0.0,0.0,0.06867000000000001,0.32373,9.89829
136363635,21.27,0.0,0.0,0.0,0.06867000000000001,0.34335000000000004,9.89829
141414140,21.27,0.0,0.0,0.0,0.04905,0.34335000000000004,9.89829
146464645,21.27,0.0,0.0,0.0,0.06867000000000001,0.34335000000000004,9.908100000000001
151515150,21.27,0.0,0.0,0.0,0.07848000000000001,0.33354000000000006,9.908100000000001
156565655,21.27,0.0,0.0,0.0,0.05886,0.32373,9.888480000000001
161616160,21.27,0.0,0.0,0.0,0.0981,0.35316,9.908100000000001
166666665,21.27,0.0,0.0,0.0,0.06867000000000001,0.33354000000000006,9.86886
171717170,21.27,0.0,0.0,0.0,0.08829,0.31392000000000003,9.908100000000001
176767675,21.27,0.0,0.0,0.0,0.07848000000000001,0.35316,9.89829
181818180,21.27,0.0,0.0,0.0,0.07848000000000001,0.31392000000000003,9.86886
186868685,21.27,0.0,0.0,0.0,0.05886,0.34335000000000004,9.888480000000001
191919190,21.27,0.0,0.0,0.0,0.0981,0.32373,9.86886
196969695,21.27,0.0,0.0,0.0,0.07848000000000001,0.37278,9.888480000000001
202020200,21.27,0.0,0.0,0.0,0.07848000000000001,0.33354000000000006,9.908100000000001
207070705,21.27,0.0,0.0,0.0,0.07848000000000001,0.36297,9.87867
212121210,21.27,0.0,0.0,0.0,0.06867000000000001,0.32373,9.908100000000001
217171715,21.27,0.0,0.0,0.0,0.06867000000000001,0.34335000000000004,9.85905
222222220,21.27,0.0,0.0,0.0,0.07848000000000001,0.34335000000000004,9.888480000000001
227272725,21.27,0.0,0.0,0.0,0.08829,0.33354000000000006,9.87867
232323230,21.27,0.0,0.0,0.0,0.07848000000000001,0.36297,9.87867
237373735,21.27,0.0,0.0,0.0,0.05886,0.32373,9.87867
242424240,21.27,0.0,0.0,0.0,0.05886,0.31392000000000003,9.89829
247474745,21.27,0.0,0.0,0.0,0.07848000000000001,0.32373,9.908100000000001
252525250,21.27,0.0,0.0,0.0,0.06867000000000001,0.35316,9.87867
257575755,21.27,0.0,0.0,0.0,0.05886,0.32373,9.89829
262626260,21.27,0.0,0.0,0.0,0.0981,0.32373,9.87867
267676765,21.27,0.0,0.0,0.0,0.07848000000000001,0.33354000000000006,9.87867
272727270,21.27,0.0,0.0,0.0,0.07848000000000001,0.34335000000000004,9.888480000000001
277777775,21.27,0.0,0.0,0.0,0.08829,0.32373,9.87867
282828280,21.27,0.0,0.0,0.0,0.06867000000000001,0.31392000000000003,9.86886
287878785,21.27,0.0,0.0,0.0,0.07848000000000001,0.33354000000000006,9.89829
292929290,21.27,0.0,0.0,0.0,0.07848000000000001,0.34335000000000004,9.89829
297979795,21.27,0.0,0.0,0.0,0.08829,0.32373,9.89829
303030300,21.27,0.0,0.0,0.0,0.06867000000000001,0.35316,9.87867
308080805,21.27,0.0,0.0,0.0,0.06867000000000001,0.33354000000000006,9.87867
313131310,21.27,0.0,0.0,0.0,0.05886,0.35316,9.908100000000001
318181815,21.27,0.0,0.0,0.0,0.07848000000000001,0.35316,9.86886
323232320,21.27,0.0,0.0,0.0,0.06867000000000001,0.32373,9.87867
328282825,21.27,0.0,0.0,0.0,0.07848000000000001,0.33354000000000006,9.908100000000001
333333330,21.27,0.0,0.0,0.0,0.07848000000000001,0.33354000000000006,9.87867
338383835,21.27,0.0,0.0,0.0,0.06867000000000001,0.35316,9.888480000000001
343434340,21.27,0.0,0.0,0.0,0.07848000000000001,0.35316,9.86886
348484845,21.27,0.0,0.0,0.0,0.07848000000000001,0.33354000000000006,9.85905
353535350,21.27,0.0,0.0,0.0,0.04905,0.32373,9.888480000000001
358585855,21.27,0.0,0.0,0.0,0.06867000000000001,0.33354000000000006,9.86886
363636360,21.27,0.0,0.0,0.0,0.04905,0.35316,9.888480000000001
368686865,21.27,0.0,0.0,0.0,0.08829,0.32373,9.908100000000001
373737370,21.27,0.0,0.0,0.0,0.06867000000000001,0.33354000000000006,9.888480000000001
378787875,21.27,0.0,0.0,0.0,0.05886,0.31392000000000003,9.888480000000001
383838380,21.27,0.0,0.0,0.0,0.08829,0.31392000000000003,9.89829
388888885,21.27,0.0,0.0,0.0,0.07848000000000001,0.32373,9.87867
393939390,21.27,0.0,0.0,0.0,0.10791,0.33354000000000006,9.84924
398989895,21.27,0.0,0.0,0.0,0.06867000000000001,0.32373,9.89829
404040400,21.27,0.0,0.0,0.0,0.06867000000000001,0.33354000000000006,9.89829
409090905,21.27,0.0,0.0,0.0,0.05886,0.34335000000000004,9.89829
414141410,21.27,0.0,0.0,0.0,0.07848000000000001,0.34335000000000004,9.87867
419191915,21.27,0.0,0.0,0.0,0.07848000000000001,0.33354000000000006,9.89829
424242420,21.27,0.0,0.0,0.0,0.06867000000000001,0.35316,9.888480000000001
429292925,21.27,0.0,0.0,0.0,0.05886,0.36297,9.87867
434343430,21.27,0.0,0.0,0.0,0.07848000000000001,0.34335000000000004,9.86886
439393935,21.27,0.0,0.0,0.0,0.0981,0.34335000000000004,9.908100000000001
444444440,21.27,0.0,0.0,0.0,0.07848000000000001,0.33354000000000006,9.89829
449494945,21.27,0.0,0.0,0.0,0.06867000000000001,0.36297,9.89829
454545450,21.27,0.0,0.0,0.0,0.06867000000000001,0.33354000000000006,9.91791
459595955,21.27,0.0,0.0,0.0,0.0981,0.34335000000000004,9.888480000000001
464646460,21.27,0.0,0.0,0.0,0.07848000000000001,0.33354000000000006,9.87867
469696965,21.27,0.0,0.0,0.0,0.05886,0.34335000000000004,9.908100000000001
474747470,21.27,0.0,0.0,0.0,0.06867000000000001,0.34335000000000004,9.888480000000001
479797975,21.27,0.0,0.0,0.0,0.039240000000000004,0.34335000000000004,9.89829
484848480,21.27,0.0,0.0,0.0,0.07848000000000001,0.33354000000000006,9.91791
489898985,21.27,0.0,0.0,0.0,0.08829,0.33354000000000006,9.908100000000001
494949490,21.27,0.0,0.0,0.0,0.06867000000000001,0.35316,9.89829
499999995,21.27,0.0,0.0,0.0,0.04905,0.34335000000000004,9.87867
505050500,21.27,0.0,0.0,0.0,0.06867000000000001,0.34335000000000004,9.91791
510101005,21.27,0.0,0.0,0.0,0.05886,0.32373,9.908100000000001
515151510,21.27,0.0,0.0,0.0,0.07848000000000001,0.32373,9.888480000000001
520202015,21.27,0.0,0.0,0.0,0.039240000000000004,0.33354000000000006,9.888480000000001
525252520,21.27,0.0,0.0,0.0,0.05886,0.32373,9.888480000000001
530303025,21.27,0.0,0.0,0.0,0.07848000000000001,0.34335000000000004,9.86886
535353530,21.27,0.0,0.0,0.0,0.0981,0.31392000000000003,9.89829
540404035,21.27,0.0,0.0,0.0,0.07848000000000001,0.35316,9.908100000000001
545454540,21.27,0.0,0.0,0.0,0.05886,0.35316,9.888480000000001
550505045,21.27,0.0,0.0,0.0,0.05886,0.33354000000000006,9.87867
555555550,21.27,0.0,0.0,0.0,0.07848000000000001,0.33354000000000006,9.908100000000001
560606055,21.27,0.0,0.0,0.0,0.07848000000000001,0.31392000000000003,9.87867
565656560,21.27,0.0,0.0,0.0,0.08829,0.33354000000000006,9.908100000000001
570707065,21.27,0.0,0.0,0.0,0.08829,0.31392000000000003,9.89829
575757570,21.27,0.0,0.0,0.0,0.08829,0.34335000000000004,9.908100000000001
580808075,21.27,0.0,0.0,0.0,0.06867000000000001,0.34335000000000004,9.89829
585858580,21.27,0.0,0.0,0.0,0.06867000000000001,0.35316,9.89829
590909085,21.27,0.0,0.0,0.0,0.06867000000000001,0.36297,9.87867
595959590,21.27,0.0,0.0,0.0,0.05886,0.32373,9.86886
601010095,21.27,0.0,0.0,0.0,0.05886,0.31392000000000003,9.908100000000001
606060600,21.27,0.0,0.0,0.0,0.05886,0.30411,9.87867
611111105,21.27,0.0,0.0,0.0,0.08829,0.32373,9.908100000000001
616161610,21.27,0.0,0.0,0.0,0.08829,0.33354000000000006,9.89829
621212115,21.27,0.0,0.0,0.0,0.06867000000000001,0.34335000000000004,9.89829
626262620,21.27,0.0,0.0,0.0,0.07848000000000001,0.36297,9.888480000000001
631313125,21.27,0.0,0.0,0.0,0.08829,0.33354000000000006,9.89829
636363630,21.27,0.0,0.0,0.0,0.10791,0.33354000000000006,9.888480000000001
641414135,21.27,0.0,0.0,0.0,0.0981,0.34335000000000004,9.87867
646464640,21.27,0.0,0.0,0.0,0.07848000000000001,0.34335000000000004,9.86886
651515145,21.27,0.0,0.0,0.0,0.06867000000000001,0.34335000000000004,9.89829
656565650,21.27,0.0,0.0,0.0,0.06867000000000001,0.35316,9.888480000000001
661616155,21.27,0.0,0.0,0.0,0.08829,0.34335000000000004,9.888480000000001
666666660,21.27,0.0,0.0,0.0,0.08829,0.32373,9.888480000000001
671717165,21.27,0.0,0.0,0.0,0.07848000000000001,0.32373,9.87867
676767670,21.27,0.0,0.0,0.0,0.05886,0.34335000000000004,9.89829
681818175,21.27,0.0,0.0,0.0,0.04905,0.34335000000000004,9.888480000000001
686868680,21.27,0.0,0.0,0.0,0.08829,0.31392000000000003,9.87867
691919185,21.27,0.0,0.0,0.0,0.06867000000000001,0.37278,9.91791
696969690,21.27,0.0,0.0,0.0,0.0981,0.31392000000000003,9.89829
702020195,21.27,0.0,0.0,0.0,0.08829,0.31392000000000003,9.87867
707070700,21.27,0.0,0.0,0.0,0.07848000000000001,0.33354000000000006,9.888480000000001
712121205,21.27,0.0,0.0,0.0,0.07848000000000001,0.32373,9.85905
717171710,21.27,0.0,0.0,0.0,0.07848000000000001,0.32373,9.87867
722222215,21.27,0.0,0.0,0.0,0.05886,0.31392000000000003,9.89829
727272720,21.27,0.0,0.0,0.0,0.05886,0.31392000000000003,9.87867
732323225,21.27,0.0,0.0,0.0,0.05886,0.33354000000000006,9.87867
737373730,21.27,0.0,0.0,0.0,0.07848000000000001,0.32373,9.888480000000001
742424235,21.27,0.0,0.0,0.0,0.05886,0.32373,9.888480000000001
747474740,21.27,0.0,0.0,0.0,0.04905,0.33354000000000006,9.908100000000001
752525245,21.27,0.0,0.0,0.0,0.04905,0.36297,9.86886
757575750,21.27,0.0,0.0,0.0,0.05886,0.33354000000000006,9.888480000000001
762626255,21.27,0.0,0.0,0.0,0.07848000000000001,0.33354000000000006,9.888480000000001
767676760,21.27,0.0,0.0,0.0,0.08829,0.31392000000000003,9.888480000000001
772727265,21.27,0.0,0.0,0.0,0.05886,0.33354000000000006,9.86886
777777770,21.27,0.0,0.0,0.0,0.07848000000000001,0.32373,9.908100000000001
782828275,21.27,0.0,0.0,0.0,0.06867000000000001,0.31392000000000003,9.89829
787878780,21.27,0.0,0.0,0.0,0.07848000000000001,0.33354000000000006,9.89829
792929285,21.27,0.0,0.0,0.0,0.07848000000000001,0.32373,9.86886
797979790,21.27,0.0,0.0,0.0,0.05886,0.32373,9.85905
803030295,21.27,0.0,0.0,0.0,0.04905,0.31392000000000003,9.89829
808080800,21.27,0.0,0.0,0.0,0.06867000000000001,0.31392000000000003,9.888480000000001
813131305,21.27,0.0,0.0,0.0,0.0981,0.33354000000000006,9.908100000000001
818181810,21.27,0.0,0.0,0.0,0.04905,0.33354000000000006,9.89829
823232315,21.27,0.0,0.0,0.0,0.05886,0.31392000000000003,9.908100000000001
828282820,21.27,0.0,0.0,0.0,0.06867000000000001,0.32373,9.86886
833333325,21.27,0.0,0.0,0.0,0.07848000000000001,0.32373,9.888480000000001
838383830,21.27,0.0,0.0,0.0,0.07848000000000001,0.33354000000000006,9.84924
843434335,21.27,0.0,0.0,0.0,0.07848000000000001,0.32373,9.87867
848484840,21.27,0.0,0.0,0.0,0.05886,0.31392000000000003,9.91791
853535345,21.27,0.0,0.0,0.0,0.07848000000000001,0.32373,9.89829
858585850,21.27,0.0,0.0,0.0,0.06867000000000001,0.32373,9.91791
863636355,21.27,0.0,0.0,0.0,0.08829,0.31392000000000003,9.888480000000001
868686860,21.27,0.0,0.0,0.0,0.06867000000000001,0.35316,9.888480000000001
873737365,21.27,0.0,0.0,0.0,0.07848000000000001,0.34335000000000004,9.888480000000001
878787870,21.27,0.0,0.0,0.0,0.07848000000000001,0.32373,9.89829
883838375,21.27,0.0,0.0,0.0,0.08829,0.33354000000000006,9.91791
888888880,21.27,0.0,0.0,0.0,0.04905,0.31392000000000003,9.888480000000001
893939385,21.27,0.0,0.0,0.0,0.06867000000000001,0.33354000000000006,9.888480000000001
898989890,21.27,0.0,0.0,0.0,0.05886,0.31392000000000003,9.888480000000001
904040395,21.27,0.0,0.0,0.0,0.08829,0.30411,9.908100000000001
909090900,21.27,0.0,0.0,0.0,0.08829,0.32373,9.89829
914141405,21.27,0.0,0.0,0.0,0.05886,0.32373,9.86886
919191910,21.27,0.0,0.0,0.0,0.06867000000000001,0.35316,9.908100000000001
924242415,21.27,0.0,0.0,0.0,0.05886,0.34335000000000004,9.84924
929292920,21.27,0.0,0.0,0.0,0.0981,0.33354000000000006,9.888480000000001
934343425,21.27,0.0,0.0,0.0,0.07848000000000001,0.33354000000000006,9.89829
939393930,21.27,0.0,0.0,0.0,0.06867000000000001,0.34335000000000004,9.888480000000001
944444435,21.27,0.0,0.0,0.0,0.04905,0.33354000000000006,9.89829
949494940,21.27,0.0,0.0,0.0,0.08829,0.33354000000000006,9.908100000000001
954545445,21.27,0.0,0.0,0.0,0.07848000000000001,0.31392000000000003,9.89829
959595950,21.27,0.0,0.0,0.0,0.06867000000000001,0.33354000000000006,9.89829
964646455,21.27,0.0,0.0,0.0,0.07848000000000001,0.34335000000000004,9.888480000000001
969696960,21.27,0.0,0.0,0.0,0.04905,0.37278,9.888480000000001
974747465,21.27,0.0,0.0,0.0,0.06867000000000001,0.34335000000000004,9.89829
979797970,21.27,0.0,0.0,0.0,0.08829,0.31392000000000003,9.86886
984848475,21.27,0.0,0.0,0.0,0.05886,0.36297,9.908100000000001
989898980,21.27,0.0,0.0,0.0,0.05886,0.33354000000000006,9.89829
994949485,21.27,0.0,0.0,0.0,0.05886,0.32373,9.89829
999999990,21.27,0.0,0.0,0.0,0.05886,0.32373,9.86886
1005050495,21.27,0.0,0.0,0.0,0.05886,0.35316,9.89829
1010101000,21.27,0.0,0.0,0.0,0.10791,0.33354000000000006,9.888480000000001
1015151505,21.27,0.0,0.0,0.0,0.06867000000000001,0.34335000000000004,9.908100000000001
1020202010,21.27,0.0,0.0,0.0,0.06867000000000001,0.34335000000000004,9.888480000000001
1025252515,21.27,0.0,0.0,0.0,0.06867000000000001,0.34335000000000004,9.888480000000001
1030303020,21.27,0.0,0.0,0.0,0.039240000000000004,0.35316,9.89829
1035353525,21.27,0.0,0.0,0.0,0.05886,0.33354000000000006,9.89829
1040404030,21.27,0.0,0.0,0.0,0.06867000000000001,0.37278,9.89829
1045454535,21.27,0.0,0.0,0.0,0.05886,0.33354000000000006,9.87867
1050505040,21.27,0.0,0.0,0.0,0.07848000000000001,0.31392000000000003,9.87867
1055555545,21.27,0.0,0.0,0.0,0.04905,0.32373,9.86886
1060606050,21.27,0.0,0.0,0.0,0.06867000000000001,0.32373,9.908100000000001
1065656555,21.27,0.0,0.0,0.0,0.07848000000000001,0.33354000000000006,9.89829
1070707060,21.27,0.0,0.0,0.0,0.08829,0.33354000000000006,9.91791
1075757565,21.27,0.0,0.0,0.0,0.06867000000000001,0.30411,9.89829
1080808070,21.27,0.0,0.0,0.0,0.04905,0.32373,9.89829
1085858575,21.27,0.0,0.0,0.0,0.06867000000000001,0.32373,9.87867
1090909080,21.27,0.0,0.0,0.0,0.08829,0.34335000000000004,9.888480000000001
1095959585,21.27,0.0,0.0,0.0,0.05886,0.30411,9.87867
1101010090,21.27,0.0,0.0,0.0,0.07848000000000001,0.32373,9.87867
1106060595,21.27,0.0,0.0,0.0,0.039240000000000004,0.31392000000000003,9.908100000000001
1111111100,21.27,0.0,0.0,0.0,0.06867000000000001,0.33354000000000006,9.908100000000001
1116161605,21.27,0.0,0.0,0.0,0.08829,0.35316,9.888480000000001
1121212110,21.27,0.0,0.0,0.0,0.06867000000000001,0.35316,9.908100000000001
1126262615,21.27,0.0,0.0,0.0,0.06867000000000001,0.34335000000000004,9.888480000000001
1131313120,21.27,0.0,0.0,0.0,0.06867000000000001,0.32373,9.87867
1136363625,21.27,0.0,0.0,0.0,0.08829,0.35316,9.87867
1141414130,21.27,0.0,0.0,0.0,0.07848000000000001,0.32373,9.888480000000001
1146464635,21.27,0.0,0.0,0.0,0.07848000000000001,0.33354000000000006,9.89829
1151515140,21.27,0.0,0.0,0.0,0.06867000000000001,0.33354000000000006,9.89829
1156565645,21.27,0.0,0.0,0.0,0.05886,0.34335000000000004,9.89829
1161616150,21.27,0.0,0.0,0.0,0.05886,0.36297,9.87867
1166666655,21.27,0.0,0.0,0.0,0.07848000000000001,0.34335000000000004,9.87867
1171717160,21.27,0.0,0.0,0.0,0.08829,0.32373,9.908100000000001
1176767665,21.27,0.0,0.0,0.0,0.07848000000000001,0.31392000000000003,9.89829
1181818170,21.27,0.0,0.0,0.0,0.07848000000000001,0.32373,9.89829
1186868675,21.27,0.0,0.0,0.0,0.06867000000000001,0.33354000000000006,9.89829
1191919180,21.27,0.0,0.0,0.0,0.05886,0.32373,9.908100000000001
1196969685,21.27,0.0,0.0,0.0,0.07848000000000001,0.31392000000000003,9.888480000000001
1202020190,21.27,0.0,0.0,0.0,0.06867000000000001,0.34335000000000004,9.87867
1207070695,21.27,0.0,0.0,0.0,0.0981,0.32373,9.87867
1212121200,21.27,0.0,0.0,0.0,0.0981,0.33354000000000006,9.89829
1217171705,21.27,0.0,0.0,0.0,0.07848000000000001,0.33354000000000006,9.89829
1222222210,21.27,0.0,0.0,0.0,0.04905,0.35316,9.888480000000001
1227272715,21.27,0.0,0.0,0.0,0.06867000000000001,0.31392000000000003,9.908100000000001
1232323220,21.27,0.0,0.0,0.0,0.08829,0.32373,9.89829
1237373725,21.27,0.0,0.0,0.0,0.08829,0.32373,9.87867
1242424230,21.27,0.0,0.0,0.0,0.08829,0.31392000000000003,9.888480000000001
1247474735,21.27,0.0,0.0,0.0,0.06867000000000001,0.34335000000000004,9.888480000000001
1252525240,21.27,0.0,0.0,0.0,0.04905,0.33354000000000006,9.85905
1257575745,21.27,0.0,0.0,0.0,0.06867000000000001,0.2943,9.86886
1262626250,21.27,0.0,0.0,0.0,0.06867000000000001,0.33354000000000006,9.908100000000001
1267676755,21.27,0.0,0.0,0.0,0.07848000000000001,0.33354000000000006,9.888480000000001
1272727260,21.27,0.0,0.0,0.0,0.05886,0.33354000000000006,9.888480000000001
1277777765,21.27,0.0,0.0,0.0,0.06867000000000001,0.32373,9.888480000000001
1282828270,21.27,0.0,0.0,0.0,0.05886,0.32373,9.888480000000001
1287878775,21.27,0.0,0.0,0.0,0.08829,0.33354000000000006,9.85905
1292929280,21.27,0.0,0.0,0.0,0.08829,0.31392000000000003,9.908100000000001
1297979785,21.27,0.0,0.0,0.0,0.06867000000000001,0.35316,9.888480000000001
1303030290,21.27,0.0,0.0,0.0,0.05886,0.32373,9.84924
1308080795,21.27,0.0,0.0,0.0,0.06867000000000001,0.34335000000000004,9.908100000000001
1313131300,21.27,0.0,0.0,0.0,0.05886,0.33354000000000006,9.888480000000001
1318181805,21.27,0.0,0.0,0.0,0.07848000000000001,0.32373,9.89829
1323232310,21.27,0.0,0.0,0.0,0.06867000000000001,0.34335000000000004,9.89829
1328282815,21.27,0.0,0.0,0.0,0.08829,0.34335000000000004,9.888480000000001
1333333320,21.27,0.0,0.0,0.0,0.0981,0.32373,9.87867
1338383825,21.27,0.0,0.0,0.0,0.08829,0.31392000000000003,9.888480000000001
1343434330,21.27,0.0,0.0,0.0,0.05886,0.28449,9.89829
1348484835,21.27,0.0,0.0,0.0,0.05886,0.32373,9.888480000000001
1353535340,21.27,0.0,0.0,0.0,0.07848000000000001,0.33354000000000006,9.89829
1358585845,21.27,0.0,0.0,0.0,0.06867000000000001,0.35316,9.89829
1363636350,21.27,0.0,0.0,0.0,0.08829,0.33354000000000006,9.87867
1368686855,21.27,0.0,0.0,0.0,0.05886,0.31392000000000003,9.888480000000001
1373737360,21.27,0.0,0.0,0.0,0.05886,0.35316,9.888480000000001
1378787865,21.27,0.0,0.0,0.0,0.08829,0.32373,9.86886
1383838370,21.27,0.0,0.0,0.0,0.08829,0.32373,9.888480000000001
1388888875,21.27,0.0,0.0,0.0,0.08829,0.32373,9.87867
1393939380,21.27,0.0,0.0,0.0,0.06867000000000001,0.31392000000000003,9.888480000000001
1398989885,21.27,0.0,0.0,0.0,0.06867000000000001,0.34335000000000004,9.908100000000001
1404040390,21.27,0.0,0.0,0.0,0.05886,0.32373,9.86886
1409090895,21.27,0.0,0.0,0.0,0.07848000000000001,0.33354000000000006,9.908100000000001
1414141400,21.27,0.0,0.0,0.0,0.0981,0.32373,9.89829
1419191905,21.27,0.0,0.0,0.0,0.08829,0.31392000000000003,9.89829
1424242410,21.27,0.0,0.0,0.0,0.10791,0.32373,9.87867
1429292915,21.27,0.0,0.0,0.0,0.07848000000000001,0.34335000000000004,9.86886
1434343420,21.27,0.0,0.0,0.0,0.07848000000000001,0.32373,9.87867
1439393925,21.27,0.0,0.0,0.0,0.04905,0.34335000000000004,9.86886
1444444430,21.27,0.0,0.0,0.0,0.07848000000000001,0.32373,9.87867
1449494935,21.27,0.0,0.0,0.0,0.04905,0.30411,9.888480000000001
1454545440,21.27,0.0,0.0,0.0,0.05886,0.36297,9.908100000000001
1459595945,21.27,0.0,0.0,0.0,0.06867000000000001,0.35316,9.908100000000001
1464646450,21.27,0.0,0.0,0.0,0.07848000000000001,0.34335000000000004,9.888480000000001
1469696955,21.27,0.0,0.0,0.0,0.06867000000000001,0.35316,9.87867
1474747460,21.27,0.0,0.0,0.0,0.08829,0.32373,9.89829
1479797965,21.27,0.0,0.0,0.0,0.07848000000000001,0.34335000000000004,9.87867
1484848470,21.27,0.0,0.0,0.0,0.07848000000000001,0.32373,9.87867
1489898975,21.27,0.0,0.0,0.0,0.08829,0.33354000000000006,9.92772
1494949480,21.27,0.0,0.0,0.0,0.06867000000000001,0.31392000000000003,9.87867
1499999985,21.27,0.0,0.0,0.0,0.07848000000000001,0.33354000000000006,9.888480000000001
1505050490,21.27,0.0,0.0,0.0,0.07848000000000001,0.31392000000000003,9.92772
1510100995,21.27,0.0,0.0,0.0,0.08829,0.32373,9.888480000000001
1515151500,21.27,0.0,0.0,0.0,0.06867000000000001,0.34335000000000004,9.888480000000001
1520202005,21.27,0.0,0.0,0.0,0.07848000000000001,0.33354000000000006,9.908100000000001
1525252510,21.27,0.0,0.0,0.0,0.05886,0.35316,9.92772
1530303015,21.27,0.0,0.0,0.0,0.07848000000000001,0.32373,9.87867
1535353520,21.27,0.0,0.0,0.0,0.07848000000000001,0.34335000000000004,9.87867
1540404025,21.27,0.0,0.0,0.0,0.07848000000000001,0.35316,9.87867
1545454530,21.27,0.0,0.0,0.0,0.06867000000000001,0.31392000000000003,9.89829
1550505035,21.27,0.0,0.0,0.0,0.07848000000000001,0.33354000000000006,9.87867
1555555540,21.27,0.0,0.0,0.0,0.07848000000000001,0.34335000000000004,9.87867
1560606045,21.27,0.0,0.0,0.0,0.07848000000000001,0.33354000000000006,9.908100000000001
1565656550,21.27,0.0,0.0,0.0,0.08829,0.32373,9.85905
1570707055,21.27,0.0,0.0,0.0,0.08829,0.33354000000000006,9.87867
1575757560,21.27,0.0,0.0,0.0,0.05886,0.33354000000000006,9.89829
1580808065,21.27,0.0,0.0,0.0,0.0981,0.35316,9.87867
1585858570,21.27,0.0,0.0,0.0,0.07848000000000001,0.35316,9.908100000000001
1590909075,21.27,0.0,0.0,0.0,0.05886,0.33354000000000006,9.91791
1595959580,21.27,0.0,0.0,0.0,0.04905,0.32373,9.89829
1601010085,21.27,0.0,0.0,0.0,0.0981,0.31392000000000003,9.86886
1606060590,21.27,0.0,0.0,0.0,0.08829,0.30411,9.888480000000001
1611111095,21.27,0.0,0.0,0.0,0.06867000000000001,0.31392000000000003,9.908100000000001
1616161600,21.27,0.0,0.0,0.0,0.07848000000000001,0.32373,9.87867
1621212105,21.27,0.0,0.0,0.0,0.06867000000000001,0.33354000000000006,9.87867
1626262610,21.27,0.0,0.0,0.0,0.05886,0.33354000000000006,9.84924
1631313115,21.27,0.0,0.0,0.0,0.04905,0.33354000000000006,9.888480000000001
1636363620,21.27,0.0,0.0,0.0,0.08829,0.31392000000000003,9.85905
1641414125,21.27,0.0,0.0,0.0,0.05886,0.34335000000000004,9.89829
1646464630,21.27,0.0,0.0,0.0,0.05886,0.31392000000000003,9.89829
1651515135,21.27,0.0,0.0,0.0,0.07848000000000001,0.32373,9.87867
1656565640,21.27,0.0,0.0,0.0,0.06867000000000001,0.33354000000000006,9.888480000000001
1661616145,21.27,0.0,0.0,0.0,0.08829,0.34335000000000004,9.888480000000001
1666666650,21.27,0.0,0.0,0.0,0.0981,0.34335000000000004,9.888480000000001
1671717155,21.27,0.0,0.0,0.0,0.07848000000000001,0.33354000000000006,9.87867
1676767660,21.27,0.0,0.0,0.0,0.06867000000000001,0.32373,9.87867
1681818165,21.27,0.0,0.0,0.0,0.06867000000000001,0.32373,9.89829
1686868670,21.27,0.0,0.0,0.0,0.07848000000000001,0.33354000000000006,9.89829
1691919175,21.27,0.0,0.0,0.0,0.06867000000000001,0.31392000000000003,9.888480000000001
1696969680,21.27,0.0,0.0,0.0,0.06867000000000001,0.30411,9.91791
1702020185,21.27,0.0,0.0,0.0,0.039240000000000004,0.34335000000000004,9.888480000000001
1707070690,21.27,0.0,0.0,0.0,0.05886,0.33354000000000006,9.89829
1712121195,21.27,0.0,0.0,0.0,0.0981,0.33354000000000006,9.87867
1717171700,21.27,0.0,0.0,0.0,0.06867000000000001,0.33354000000000006,9.89829
1722222205,21.27,0.0,0.0,0.0,0.08829,0.37278,9.908100000000001
1727272710,21.27,0.0,0.0,0.0,0.07848000000000001,0.31392000000000003,9.87867
1732323215,21.27,0.0,0.0,0.0,0.039240000000000004,0.32373,9.888480000000001
1737373720,21.27,0.0,0.0,0.0,0.07848000000000001,0.35316,9.908100000000001
1742424225,21.27,0.0,0.0,0.0,0.07848000000000001,0.35316,9.85905
1747474730,21.27,0.0,0.0,0.0,0.0981,0.32373,9.89829
1752525235,21.27,0.0,0.0,0.0,0.04905,0.35316,9.89829
1757575740,21.27,0.0,0.0,0.0,0.05886,0.33354000000000006,9.86886
1762626245,21.27,0.0,0.0,0.0,0.06867000000000001,0.33354000000000006,9.888480000000001
1767676750,21.27,0.0,0.0,0.0,0.07848000000000001,0.34335000000000004,9.86886
1772727255,21.27,0.0,0.0,0.0,0.08829,0.33354000000000006,9.86886
1777777760,21.27,0.0,0.0,0.0,0.05886,0.34335000000000004,9.87867
1782828265,21.27,0.0,0.0,0.0,0.05886,0.32373,9.87867
1787878770,21.27,0.0,0.0,0.0,0.07848000000000001,0.33354000000000006,9.89829
1792929275,21.27,0.0,0.0,0.0,0.06867000000000001,0.34335000000000004,9.89829
1797979780,21.27,0.0,0.0,0.0,0.07848000000000001,0.33354000000000006,9.888480000000001
1803030285,21.27,0.0,0.0,0.0,0.05886,0.32373,9.888480000000001
1808080790,21.27,0.0,0.0,0.0,0.06867000000000001,0.35316,9.89829
1813131295,21.27,0.0,0.0,0.0,0.039240000000000004,0.33354000000000006,9.86886
1818181800,21.27,0.0,0.0,0.0,0.06867000000000001,0.32373,9.89829
1823232305,21.27,0.0,0.0,0.0,0.08829,0.32373,9.908100000000001
1828282810,21.27,0.0,0.0,0.0,0.04905,0.30411,9.908100000000001
1833333315,21.27,0.0,0.0,0.0,0.05886,0.30411,9.908100000000001
1838383820,21.27,0.0,0.0,0.0,0.05886,0.33354000000000006,9.91791
1843434325,21.27,0.0,0.0,0.0,0.0981,0.35316,9.87867
1848484830,21.27,0.0,0.0,0.0,0.06867000000000001,0.33354000000000006,9.89829
1853535335,21.27,0.0,0.0,0.0,0.06867000000000001,0.33354000000000006,9.888480000000001
1858585840,21.27,0.0,0.0,0.0,0.06867000000000001,0.37278,9.888480000000001
1863636345,21.27,0.0,0.0,0.0,0.0981,0.33354000000000006,9.908100000000001
1868686850,21.27,0.0,0.0,0.0,0.06867000000000001,0.32373,9.888480000000001
1873737355,21.27,0.0,0.0,0.0,0.07848000000000001,0.34335000000000004,9.89829
1878787860,21.27,0.0,0.0,0.0,0.08829,0.33354000000000006,9.888480000000001
1883838365,21.27,0.0,0.0,0.0,0.07848000000000001,0.2943,9.888480000000001
1888888870,21.27,0.0,0.0,0.0,0.07848000000000001,0.33354000000000006,9.89829
1893939375,21.27,0.0,0.0,0.0,0.0981,0.34335000000000004,9.908100000000001
1898989880,21.27,0.0,0.0,0.0,0.10791,0.32373,9.87867
1904040385,21.27,0.0,0.0,0.0,0.05886,0.32373,9.86886
1909090890,21.27,0.0,0.0,0.0,0.06867000000000001,0.32373,9.89829
1914141395,21.27,0.0,0.0,0.0,0.04905,0.31392000000000003,9.888480000000001
1919191900,21.27,0.0,0.0,0.0,0.07848000000000001,0.32373,9.85905
1924242405,21.27,0.0,0.0,0.0,0.06867000000000001,0.33354000000000006,9.908100000000001
1929292910,21.27,0.0,0.0,0.0,0.04905,0.36297,9.89829
1934343415,21.27,0.0,0.0,0.0,0.08829,0.36297,9.87867
1939393920,21.27,0.0,0.0,0.0,0.05886,0.34335000000000004,9.91791
1944444425,21.27,0.0,0.0,0.0,0.06867000000000001,0.31392000000000003,9.888480000000001
1949494930,21.27,0.0,0.0,0.0,0.07848000000000001,0.30411,9.89829
1954545435,21.27,0.0,0.0,0.0,0.06867000000000001,0.31392000000000003,9.89829
1959595940,21.27,0.0,0.0,0.0,0.05886,0.34335000000000004,9.89829
1964646445,21.27,0.0,0.0,0.0,0.04905,0.32373,9.89829
1969696950,21.27,0.0,0.0,0.0,0.04905,0.33354000000000006,9.89829
1974747455,21.27,0.0,0.0,0.0,0.07848000000000001,0.36297,9.86886
1979797960,21.27,0.0,0.0,0.0,0.0981,0.36297,9.86886
1984848465,21.27,0.0,0.0,0.0,0.07848000000000001,0.32373,9.85905
1989898970,21.27,0.0,0.0,0.0,0.06867000000000001,0.35316,9.89829
1994949475,21.27,0.0,0.0,0.0,0.07848000000000001,0.32373,9.89829
1999999980,21.27,0.0,0.0,0.0,0.07848000000000001,0.33354000000000006,9.87867
2005050485,21.27,0.0,0.0,0.0,0.07848000000000001,0.36297,9.89829
2010100990,21.27,0.0,0.0,0.0,0.04905,0.32373,9.87867
2015151495,21.27,0.0,0.0,0.0,0.06867000000000001,0.32373,9.87867
2020202000,21.27,0.0,0.0,0.0,0.06867000000000001,0.32373,9.87867
2025252505,21.27,0.0,0.0,0.0,0.07848000000000001,0.33354000000000006,9.89829
2030303010,21.27,0.0,0.0,0.0,0.05886,0.34335000000000004,9.89829
2035353515,21.27,0.0,0.0,0.0,0.07848000000000001,0.33354000000000006,9.908100000000001
2040404020,21.27,0.0,0.0,0.0,0.039240000000000004,0.31392000000000003,9.87867
2045454525,21.27,0.0,0.0,0.0,0.07848000000000001,0.30411,9.888480000000001
2050505030,21.27,0.0,0.0,0.0,0.039240000000000004,0.33354000000000006,9.86886
2055555535,21.27,0.0,0.0,0.0,0.05886,0.34335000000000004,9.87867
2060606040,21.27,0.0,0.0,0.0,0.05886,0.36297,9.87867
2065656545,21.27,0.0,0.0,0.0,0.06867000000000001,0.33354000000000006,9.908100000000001
2070707050,21.27,0.0,0.0,0.0,0.08829,0.34335000000000004,9.888480000000001
2075757555,21.27,0.0,0.0,0.0,0.08829,0.33354000000000006,9.908100000000001
2080808060,21.27,0.0,0.0,0.0,0.07848000000000001,0.34335000000000004,9.87867
2085858565,21.27,0.0,0.0,0.0,0.06867000000000001,0.33354000000000006,9.89829
2090909070,21.27,0.0,0.0,0.0,0.08829,0.32373,9.91791
2095959575,21.27,0.0,0.0,0.0,0.04905,0.34335000000000004,9.89829
2101010080,21.27,0.0,0.0,0.0,0.05886,0.32373,9.87867
2106060585,21.27,0.0,0.0,0.0,0.07848000000000001,0.35316,9.908100000000001
2111111090,21.27,0.0,0.0,0.0,0.06867000000000001,0.35316,9.888480000000001
2116161595,21.27,0.0,0.0,0.0,0.08829,0.32373,9.92772
2121212100,21.27,0.0,0.0,0.0,0.07848000000000001,0.31392000000000003,9.888480000000001
2126262605,21.27,0.0,0.0,0.0,0.06867000000000001,0.34335000000000004,9.888480000000001
2131313110,21.27,0.0,0.0,0.0,0.06867000000000001,0.33354000000000006,9.89829
2136363615,21.27,0.0,0.0,0.0,0.06867000000000001,0.32373,9.888480000000001
2141414120,21.27,0.0,0.0,0.0,0.07848000000000001,0.33354000000000006,9.89829
2146464625,21.27,0.0,0.0,0.0,0.08829,0.33354000000000006,9.89829
2151515130,21.27,0.0,0.0,0.0,0.04905,0.37278,9.888480000000001
2156565635,21.27,0.0,0.0,0.0,0.06867000000000001,0.32373,9.908100000000001
2161616140,21.27,0.0,0.0,0.0,0.06867000000000001,0.34335000000000004,9.908100000000001
2166666645,21.27,0.0,0.0,0.0,0.06867000000000001,0.31392000000000003,9.84924
2171717150,21.27,0.0,0.0,0.0,0.06867000000000001,0.34335000000000004,9.888480000000001
2176767655,21.27,0.0,0.0,0.0,0.06867000000000001,0.34335000000000004,9.908100000000001
2181818160,21.27,0.0,0.0,0.0,0.06867000000000001,0.33354000000000006,9.86886
2186868665,21.27,0.0,0.0,0.0,0.04905,0.2943,9.91791
2191919170,21.27,0.0,0.0,0.0,0.06867000000000001,0.31392000000000003,9.908100000000001
2196969675,21.27,0.0,0.0,0.0,0.08829,0.31392000000000003,9.91791
2202020180,21.27,0.0,0.0,0.0,0.05886,0.32373,9.908100000000001
2207070685,21.27,0.0,0.0,0.0,0.07848000000000001,0.33354000000000006,9.89829
2212121190,21.27,0.0,0.0,0.0,0.05886,0.34335000000000004,9.89829
2217171695,21.27,0.0,0.0,0.0,0.07848000000000001,0.33354000000000006,9.89829
2222222200,21.27,0.0,0.0,0.0,0.04905,0.35316,9.86886
2227272705,21.27,0.0,0.0,0.0,0.0981,0.33354000000000006,9.86886
2232323210,21.27,0.0,0.0,0.0,0.07848000000000001,0.33354000000000006,9.908100000000001
2237373715,21.27,0.0,0.0,0.0,0.07848000000000001,0.33354000000000006,9.85905
2242424220,21.27,0.0,0.0,0.0,0.08829,0.32373,9.908100000000001
2247474725,21.27,0.0,0.0,0.0,0.04905,0.33354000000000006,9.89829
2252525230,21.27,0.0,0.0,0.0,0.07848000000000001,0.33354000000000006,9.87867
2257575735,21.27,0.0,0.0,0.0,0.0981,0.35316,9.87867
2262626240,21.27,0.0,0.0,0.0,0.07848000000000001,0.31392000000000003,9.86886
2267676745,21.27,0.0,0.0,0.0,0.06867000000000001,0.32373,9.888480000000001
2272727250,21.27,0.0,0.0,0.0,0.05886,0.34335000000000004,9.888480000000001
2277777755,21.27,0.0,0.0,0.0,0.07848000000000001,0.31392000000000003,9.888480000000001
2282828260,21.27,0.0,0.0,0.0,0.08829,0.34335000000000004,9.86886
2287878765,21.27,0.0,0.0,0.0,0.07848000000000001,0.32373,9.908100000000001
2292929270,21.27,0.0,0.0,0.0,0.08829,0.33354000000000006,9.87867
2297979775,21.27,0.0,0.0,0.0,0.0981,0.33354000000000006,9.87867
2303030280,21.27,0.0,0.0,0.0,0.08829,0.34335000000000004,9.908100000000001
2308080785,21.27,0.0,0.0,0.0,0.06867000000000001,0.32373,9.89829
2313131290,21.27,0.0,0.0,0.0,0.08829,0.34335000000000004,9.888480000000001
2318181795,21.27,0.0,0.0,0.0,0.06867000000000001,0.32373,9.86886
2323232300,21.27,0.0,0.0,0.0,0.08829,0.33354000000000006,9.89829
2328282805,21.27,0.0,0.0,0.0,0.07848000000000001,0.32373,9.908100000000001
2333333310,21.27,0.0,0.0,0.0,0.05886,0.33354000000000006,9.89829
2338383815,21.27,0.0,0.0,0.0,0.08829,0.34335000000000004,9.89829
2343434320,21.27,0.0,0.0,0.0,0.06867000000000001,0.32373,9.87867
2348484825,21.27,0.0,0.0,0.0,0.0981,0.35316,9.888480000000001
2353535330,21.27,0.0,0.0,0.0,0.07848000000000001,0.33354000000000006,9.89829
2358585835,21.27,0.0,0.0,0.0,0.07848000000000001,0.35316,9.89829
2363636340,21.27,0.0,0.0,0.0,0.08829,0.31392000000000003,9.888480000000001
2368686845,21.27,0.0,0.0,0.0,0.05886,0.32373,9.89829
2373737350,21.27,0.0,0.0,0.0,0.07848000000000001,0.34335000000000004,9.91791
2378787855,21.27,0.0,0.0,0.0,0.07848000000000001,0.35316,9.888480000000001
2383838360,21.27,0.0,0.0,0.0,0.06867000000000001,0.32373,9.86886
2388888865,21.27,0.0,0.0,0.0,0.07848000000000001,0.34335000000000004,9.85905
2393939370,21.27,0.0,0.0,0.0,0.07848000000000001,0.31392000000000003,9.89829
2398989875,21.27,0.0,0.0,0.0,0.06867000000000001,0.34335000000000004,9.87867
2404040380,21.27,0.0,0.0,0.0,0.05886,0.32373,9.888480000000001
2409090885,21.27,0.0,0.0,0.0,0.05886,0.34335000000000004,9.89829
2414141390,21.27,0.0,0.0,0.0,0.05886,0.32373,9.888480000000001
2419191895,21.27,0.0,0.0,0.0,0.06867000000000001,0.34335000000000004,9.87867
2424242400,21.27,0.0,0.0,0.0,0.10791,0.31392000000000003,9.87867
2429292905,21.27,0.0,0.0,0.0,0.05886,0.34335000000000004,9.87867
2434343410,21.27,0.0,0.0,0.0,0.08829,0.35316,9.888480000000001
2439393915,21.27,0.0,0.0,0.0,0.05886,0.32373,9.87867
2444444420,21.27,0.0,0.0,0.0,0.07848000000000001,0.33354000000000006,9.888480000000001
2449494925,21.27,0.0,0.0,0.0,0.08829,0.31392000000000003,9.888480000000001
2454545430,21.27,0.0,0.0,0.0,0.07848000000000001,0.34335000000000004,9.91791
2459595935,21.27,0.0,0.0,0.0,0.06867000000000001,0.32373,9.91791
2464646440,21.27,0.0,0.0,0.0,0.06867000000000001,0.34335000000000004,9.888480000000001
2469696945,21.27,0.0,0.0,0.0,0.07848000000000001,0.32373,9.87867
2474747450,21.27,0.0,0.0,0.0,0.08829,0.35316,9.86886
2479797955,21.27,0.0,0.0,0.0,0.07848000000000001,0.32373,9.908100000000001
2484848460,21.27,0.0,0.0,0.0,0.06867000000000001,0.33354000000000006,9.908100000000001
2489898965,21.27,0.0,0.0,0.0,0.08829,0.33354000000000006,9.888480000000001
2494949470,21.27,0.0,0.0,0.0,0.08829,0.34335000000000004,9.91791
2499999975,21.27,0.0,0.0,0.0,0.05886,0.33354000000000006,9.91791
2505050480,21.27,0.0,0.0,0.0,0.07848000000000001,0.34335000000000004,9.89829
2510100985,21.27,0.0,0.0,0.0,0.06867000000000001,0.35316,9.908100000000001
2515151490,21.27,0.0,0.0,0.0,0.06867000000000001,0.34335000000000004,9.888480000000001
2520201995,21.27,0.0,0.0,0.0,0.10791,0.33354000000000006,9.86886
2525252500,21.27,0.0,0.0,0.0,0.06867000000000001,0.31392000000000003,9.87867
2530303005,21.27,0.0,0.0,0.0,0.06867000000000001,0.30411,9.908100000000001
2535353510,21.27,0.0,0.0,0.0,0.07848000000000001,0.35316,9.87867
2540404015,21.27,0.0,0.0,0.0,0.039240000000000004,0.35316,9.908100000000001
2545454520,21.27,0.0,0.0,0.0,0.05886,0.37278,9.888480000000001
2550505025,21.27,0.0,0.0,0.0,0.08829,0.32373,9.89829
2555555530,21.27,0.0,0.0,0.0,0.07848000000000001,0.33354000000000006,9.888480000000001
2560606035,21.27,0.0,0.0,0.0,0.08829,0.33354000000000006,9.89829
2565656540,21.27,0.0,0.0,0.0,0.05886,0.2943,9.86886
2570707045,21.27,0.0,0.0,0.0,0.0981,0.35316,9.86886
2575757550,21.27,0.0,0.0,0.0,0.07848000000000001,0.34335000000000004,9.91791
2580808055,21.27,0.0,0.0,0.0,0.05886,0.34335000000000004,9.888480000000001
2585858560,21.27,0.0,0.0,0.0,0.07848000000000001,0.31392000000000003,9.908100000000001
2590909065,21.27,0.0,0.0,0.0,0.06867000000000001,0.34335000000000004,9.87867
2595959570,21.27,0.0,0.0,0.0,0.06867000000000001,0.31392000000000003,9.86886
2601010075,21.27,0.0,0.0,0.0,0.07848000000000001,0.33354000000000006,9.908100000000001
2606060580,21.27,0.0,0.0,0.0,0.039240000000000004,0.32373,9.908100000000001
2611111085,21.27,0.0,0.0,0.0,0.07848000000000001,0.34335000000000004,9.87867
2616161590,21.27,0.0,0.0,0.0,0.07848000000000001,0.30411,9.92772
2621212095,21.27,0.0,0.0,0.0,0.05886,0.31392000000000003,9.888480000000001
2626262600,21.27,0.0,0.0,0.0,0.07848000000000001,0.32373,9.87867
2631313105,21.27,0.0,0.0,0.0,0.07848000000000001,0.34335000000000004,9.89829
2636363610,21.27,0.0,0.0,0.0,0.04905,0.35316,9.86886
2641414115,21.27,0.0,0.0,0.0,0.06867000000000001,0.37278,9.89829
2646464620,21.27,0.0,0.0,0.0,0.06867000000000001,0.34335000000000004,9.87867
2651515125,21.27,0.0,0.0,0.0,0.06867000000000001,0.32373,9.888480000000001
2656565630,21.27,0.0,0.0,0.0,0.06867000000000001,0.34335000000000004,9.937529999999999
2661616135,21.27,0.0,0.0,0.0,0.07848000000000001,0.30411,9.908100000000001
2666666640,21.27,0.0,0.0,0.0,0.07848000000000001,0.34335000000000004,9.86886
2671717145,21.27,0.0,0.0,0.0,0.0981,0.34335000000000004,9.908100000000001
2676767650,21.27,0.0,0.0,0.0,0.05886,0.32373,9.87867
2681818155,21.27,0.0,0.0,0.0,0.07848000000000001,0.32373,9.87867
2686868660,21.27,0.0,0.0,0.0,0.07848000000000001,0.34335000000000004,9.89829
2691919165,21.27,0.0,0.0,0.0,0.08829,0.32373,9.87867
2696969670,21.27,0.0,0.0,0.0,0.06867000000000001,0.31392000000000003,9.89829
2702020175,21.27,0.0,0.0,0.0,0.06867000000000001,0.31392000000000003,9.91791
2707070680,21.27,0.0,0.0,0.0,0.05886,0.30411,9.888480000000001
2712121185,21.27,0.0,0.0,0.0,0.06867000000000001,0.34335000000000004,9.86886
2717171690,21.27,0.0,0.0,0.0,0.07848000000000001,0.32373,9.87867
2722222195,21.27,0.0,0.0,0.0,0.06867000000000001,0.36297,9.85905
2727272700,21.27,0.0,0.0,0.0,0.07848000000000001,0.32373,9.888480000000001
2732323205,21.27,0.0,0.0,0.0,0.05886,0.31392000000000003,9.888480000000001
2737373710,21.27,0.0,0.0,0.0,0.05886,0.33354000000000006,9.91791
2742424215,21.27,0.0,0.0,0.0,0.07848000000000001,0.34335000000000004,9.908100000000001
2747474720,21.27,0.0,0.0,0.0,0.06867000000000001,0.33354000000000006,9.888480000000001
2752525225,21.27,0.0,0.0,0.0,0.06867000000000001,0.33354000000000006,9.888480000000001
2757575730,21.27,0.0,0.0,0.0,0.04905,0.36297,9.86886
2762626235,21.27,0.0,0.0,0.0,0.05886,0.36297,9.86886
2767676740,21.27,0.0,0.0,0.0,0.07848000000000001,0.32373,9.92772
2772727245,21.27,0.0,0.0,0.0,0.07848000000000001,0.32373,9.888480000000001
2777777750,21.27,0.0,0.0,0.0,0.06867000000000001,0.2943,9.908100000000001
2782828255,21.27,0.0,0.0,0.0,0.06867000000000001,0.34335000000000004,9.89829
2787878760,21.27,0.0,0.0,0.0,0.04905,0.34335000000000004,9.908100000000001
2792929265,21.27,0.0,0.0,0.0,0.06867000000000001,0.34335000000000004,9.89829
2797979770,21.27,0.0,0.0,0.0,0.07848000000000001,0.35316,9.908100000000001
2803030275,21.27,0.0,0.0,0.0,0.05886,0.35316,9.888480000000001
2808080780,21.27,0.0,0.0,0.0,0.07848000000000001,0.35316,9.87867
2813131285,21.27,0.0,0.0,0.0,0.06867000000000001,0.30411,9.87867
2818181790,21.27,0.0,0.0,0.0,0.06867000000000001,0.31392000000000003,9.89829
2823232295,21.27,0.0,0.0,0.0,0.06867000000000001,0.32373,9.87867
2828282800,21.27,0.0,0.0,0.0,0.0981,0.32373,9.87867
2833333305,21.27,0.0,0.0,0.0,0.039240000000000004,0.32373,9.86886
2838383810,21.27,0.0,0.0,0.0,0.05886,0.34335000000000004,9.85905
2843434315,21.27,0.0,0.0,0.0,0.06867000000000001,0.35316,9.86886
2848484820,21.27,0.0,0.0,0.0,0.08829,0.32373,9.87867
2853535325,21.27,0.0,0.0,0.0,0.06867000000000001,0.32373,9.888480000000001
2858585830,21.27,0.0,0.0,0.0,0.05886,0.34335000000000004,9.888480000000001
2863636335,21.27,0.0,0.0,0.0,0.05886,0.34335000000000004,9.91791
2868686840,21.27,0.0,0.0,0.0,0.08829,0.31392000000000003,9.888480000000001
2873737345,21.27,0.0,0.0,0.0,0.06867000000000001,0.33354000000000006,9.89829
2878787850,21.27,0.0,0.0,0.0,0.06867000000000001,0.32373,9.86886
2883838355,21.27,0.0,0.0,0.0,0.04905,0.34335000000000004,9.86886
2888888860,21.27,0.0,0.0,0.0,0.06867000000000001,0.33354000000000006,9.84924
2893939365,21.27,0.0,0.0,0.0,0.07848000000000001,0.36297,9.87867
2898989870,21.27,0.0,0.0,0.0,0.06867000000000001,0.34335000000000004,9.91791
2904040375,21.27,0.0,0.0,0.0,0.06867000000000001,0.31392000000000003,9.888480000000001
2909090880,21.27,0.0,0.0,0.0,0.06867000000000001,0.34335000000000004,9.908100000000001
2914141385,21.27,0.0,0.0,0.0,0.07848000000000001,0.33354000000000006,9.908100000000001
2919191890,21.27,0.0,0.0,0.0,0.08829,0.32373,9.888480000000001
2924242395,21.27,0.0,0.0,0.0,0.07848000000000001,0.31392000000000003,9.87867
2929292900,21.27,0.0,0.0,0.0,0.06867000000000001,0.33354000000000006,9.85905
2934343405,21.27,0.0,0.0,0.0,0.08829,0.34335000000000004,9.86886
2939393910,21.27,0.0,0.0,0.0,0.08829,0.32373,9.86886
2944444415,21.27,0.0,0.0,0.0,0.07848000000000001,0.33354000000000006,9.888480000000001
2949494920,21.27,0.0,0.0,0.0,0.07848000000000001,0.33354000000000006,9.86886
2954545425,21.27,0.0,0.0,0.0,0.07848000000000001,0.32373,9.888480000000001
2959595930,21.27,0.0,0.0,0.0,0.07848000000000001,0.34335000000000004,9.91791
2964646435,21.27,0.0,0.0,0.0,0.06867000000000001,0.35316,9.87867
2969696940,21.27,0.0,0.0,0.0,0.05886,0.33354000000000006,9.888480000000001
2974747445,21.27,0.0,0.0,0.0,0.07848000000000001,0.33354000000000006,9.86886
2979797950,21.27,0.0,0.0,0.0,0.05886,0.30411,9.89829
2984848455,21.27,0.0,0.0,0.0,0.08829,0.32373,9.87867
2989898960,21.27,0.0,0.0,0.0,0.05886,0.32373,9.888480000000001
2994949465,21.27,0.0,0.0,0.0,0.07848000000000001,0.34335000000000004,9.89829
2999999970,21.27,0.0,0.0,0.0,0.05886,0.32373,9.91791
3005050475,21.27,0.0,0.0,0.0,0.06867000000000001,0.34335000000000004,9.888480000000001
3010100980,21.27,0.0,0.0,0.0,0.05886,0.37278,9.87867
3015151485,21.27,0.0,0.0,0.0,0.07848000000000001,0.32373,9.89829
3020201990,21.27,0.0,0.0,0.0,0.06867000000000001,0.31392000000000003,9.89829
3025252495,21.27,0.0,0.0,0.0,0.06867000000000001,0.31392000000000003,9.89829
3030303000,21.27,0.0,0.0,0.0,0.08829,0.33354000000000006,9.888480000000001
3035353505,21.27,0.0,0.0,0.0,0.07848000000000001,0.30411,9.91791
3040404010,21.27,0.0,0.0,0.0,0.05886,0.30411,9.888480000000001
3045454515,21.27,0.0,0.0,0.0,0.0981,0.32373,9.86886
3050505020,21.27,0.0,0.0,0.0,0.07848000000000001,0.33354000000000006,9.87867
3055555525,21.27,0.0,0.0,0.0,0.06867000000000001,0.34335000000000004,9.89829
3060606030,21.27,0.0,0.0,0.0,0.10791,0.33354000000000006,9.888480000000001
3065656535,21.27,0.0,0.0,0.0,0.06867000000000001,0.32373,9.89829
3070707040,21.27,0.0,0.0,0.0,0.07848000000000001,0.32373,9.888480000000001
3075757545,21.27,0.0,0.0,0.0,0.07848000000000001,0.33354000000000006,9.888480000000001
3080808050,21.27,0.0,0.0,0.0,0.06867000000000001,0.33354000000000006,9.89829
3085858555,21.27,0.0,0.0,0.0,0.07848000000000001,0.34335000000000004,9.87867
3090909060,21.27,0.0,0.0,0.0,0.05886,0.33354000000000006,9.87867
3095959565,21.27,0.0,0.0,0.0,0.07848000000000001,0.32373,9.85905
3101010070,21.27,0.0,0.0,0.0,0.06867000000000001,0.33354000000000006,9.87867
3106060575,21.27,0.0,0.0,0.0,0.07848000000000001,0.32373,9.89829
3111111080,21.27,0.0,0.0,0.0,0.05886,0.33354000000000006,9.89829
3116161585,21.27,0.0,0.0,0.0,0.07848000000000001,0.30411,9.91791
3121212090,21.27,0.0,0.0,0.0,0.06867000000000001,0.33354000000000006,9.908100000000001
3126262595,21.27,0.0,0.0,0.0,0.08829,0.32373,9.87867
3131313100,21.27,0.0,0.0,0.0,0.05886,0.34335000000000004,9.89829
3136363605,21.27,0.0,0.0,0.0,0.0981,0.35316,9.888480000000001
3141414110,21.27,0.0,0.0,0.0,0.08829,0.34335000000000004,9.888480000000001
3146464615,21.27,0.0,0.0,0.0,0.08829,0.32373,9.89829
3151515120,21.27,0.0,0.0,0.0,0.04905,0.31392000000000003,9.89829
3156565625,21.27,0.0,0.0,0.0,0.08829,0.30411,9.908100000000001
3161616130,21.27,0.0,0.0,0.0,0.039240000000000004,0.35316,9.89829
3166666635,21.27,0.0,0.0,0.0,0.05886,0.36297,9.89829
3171717140,21.27,0.0,0.0,0.0,0.0981,0.33354000000000006,9.888480000000001
3176767645,21.27,0.0,0.0,0.0,0.04905,0.33354000000000006,9.888480000000001
3181818150,21.27,0.0,0.0,0.0,0.06867000000000001,0.34335000000000004,9.86886
3186868655,21.27,0.0,0.0,0.0,0.06867000000000001,0.30411,9.89829
3191919160,21.27,0.0,0.0,0.0,0.06867000000000001,0.31392000000000003,9.89829
3196969665,21.27,0.0,0.0,0.0,0.07848000000000001,0.33354000000000006,9.87867
3202020170,21.27,0.0,0.0,0.0,0.05886,0.32373,9.89829
3207070675,21.27,0.0,0.0,0.0,0.06867000000000001,0.33354000000000006,9.89829
3212121180,21.27,0.0,0.0,0.0,0.07848000000000001,0.31392000000000003,9.87867
3217171685,21.27,0.0,0.0,0.0,0.07848000000000001,0.33354000000000006,9.888480000000001
3222222190,21.27,0.0,0.0,0.0,0.06867000000000001,0.34335000000000004,9.87867
3227272695,21.27,0.0,0.0,0.0,0.07848000000000001,0.33354000000000006,9.86886
3232323200,21.27,0.0,0.0,0.0,0.06867000000000001,0.34335000000000004,9.908100000000001
3237373705,21.27,0.0,0.0,0.0,0.07848000000000001,0.31392000000000003,9.888480000000001
3242424210,21.27,0.0,0.0,0.0,0.06867000000000001,0.33354000000000006,9.87867
3247474715,21.27,0.0,0.0,0.0,0.05886,0.34335000000000004,9.888480000000001
3252525220,21.27,0.0,0.0,0.0,0.08829,0.35316,9.85905
3257575725,21.27,0.0,0.0,0.0,0.07848000000000001,0.33354000000000006,9.908100000000001
3262626230,21.27,0.0,0.0,0.0,0.07848000000000001,0.34335000000000004,9.89829
3267676735,21.27,0.0,0.0,0.0,0.07848000000000001,0.32373,9.908100000000001
3272727240,21.27,0.0,0.0,0.0,0.07848000000000001,0.30411,9.89829
3277777745,21.27,0.0,0.0,0.0,0.0981,0.33354000000000006,9.888480000000001
3282828250,21.27,0.0,0.0,0.0,0.04905,0.33354000000000006,9.908100000000001
3287878755,21.27,0.0,0.0,0.0,0.0981,0.31392000000000003,9.85905
3292929260,21.27,0.0,0.0,0.0,0.08829,0.32373,9.888480000000001
3297979765,21.27,0.0,0.0,0.0,0.04905,0.36297,9.888480000000001
3303030270,21.27,0.0,0.0,0.0,0.06867000000000001,0.33354000000000006,9.89829
3308080775,21.27,0.0,0.0,0.0,0.07848000000000001,0.31392000000000003,9.89829
3313131280,21.27,0.0,0.0,0.0,0.06867000000000001,0.35316,9.91791
3318181785,21.27,0.0,0.0,0.0,0.07848000000000001,0.33354000000000006,9.908100000000001
3323232290,21.27,0.0,0.0,0.0,0.05886,0.32373,9.888480000000001
3328282795,21.27,0.0,0.0,0.0,0.05886,0.35316,9.85905
3333333300,21.27,0.0,0.0,0.0,0.06867000000000001,0.36297,9.87867
3338383805,21.27,0.0,0.0,0.0,0.06867000000000001,0.33354000000000006,9.888480000000001
3343434310,21.27,0.0,0.0,0.0,0.07848000000000001,0.2943,9.86886
3348484815,21.27,0.0,0.0,0.0,0.07848000000000001,0.30411,9.87867
3353535320,21.27,0.0,0.0,0.0,0.07848000000000001,0.32373,9.888480000000001
3358585825,21.27,0.0,0.0,0.0,0.06867000000000001,0.33354000000000006,9.92772
3363636330,21.27,0.0,0.0,0.0,0.06867000000000001,0.34335000000000004,9.888480000000001
3368686835,21.27,0.0,0.0,0.0,0.08829,0.32373,9.888480000000001
3373737340,21.27,0.0,0.0,0.0,0.06867000000000001,0.34335000000000004,9.888480000000001
3378787845,21.27,0.0,0.0,0.0,0.04905,0.33354000000000006,9.87867
3383838350,21.27,0.0,0.0,0.0,0.05886,0.32373,9.86886
3388888855,21.27,0.0,0.0,0.0,0.04905,0.34335000000000004,9.87867
3393939360,21.27,0.0,0.0,0.0,0.05886,0.32373,9.908100000000001
3398989865,21.27,0.0,0.0,0.0,0.07848000000000001,0.34335000000000004,9.908100000000001
3404040370,21.27,0.0,0.0,0.0,0.06867000000000001,0.32373,9.91791
3409090875,21.27,0.0,0.0,0.0,0.06867000000000001,0.33354000000000006,9.86886
3414141380,21.27,0.0,0.0,0.0,0.07848000000000001,0.34335000000000004,9.888480000000001
3419191885,21.27,0.0,0.0,0.0,0.06867000000000001,0.33354000000000006,9.85905
3424242390,21.27,0.0,0.0,0.0,0.06867000000000001,0.33354000000000006,9.888480000000001
3429292895,21.27,0.0,0.0,0.0,0.07848000000000001,0.32373,9.87867
3434343400,21.27,0.0,0.0,0.0,0.05886,0.33354000000000006,9.89829
3439393905,21.27,0.0,0.0,0.0,0.06867000000000001,0.32373,9.89829
3444444410,21.27,0.0,0.0,0.0,0.05886,0.31392000000000003,9.908100000000001
3449494915,21.27,0.0,0.0,0.0,0.07848000000000001,0.36297,9.89829
3454545420,21.27,0.0,0.0,0.0,0.07848000000000001,0.32373,9.86886
3459595925,21.27,0.0,0.0,0.0,0.0981,0.32373,9.888480000000001
3464646430,21.27,0.0,0.0,0.0,0.05886,0.34335000000000004,9.89829
3469696935,21.27,0.0,0.0,0.0,0.07848000000000001,0.33354000000000006,9.86886
3474747440,21.27,0.0,0.0,0.0,0.07848000000000001,0.30411,9.85905
3479797945,21.27,0.0,0.0,0.0,0.05886,0.33354000000000006,9.91791
3484848450,21.27,0.0,0.0,0.0,0.04905,0.32373,9.908100000000001
3489898955,21.27,0.0,0.0,0.0,0.05886,0.34335000000000004,9.89829
3494949460,21.27,0.0,0.0,0.0,0.05886,0.33354000000000006,9.86886
3499999965,21.27,0.0,0.0,0.0,0.06867000000000001,0.33354000000000006,9.888480000000001
3505050470,21.27,0.0,0.0,0.0,0.05886,0.34335000000000004,9.87867
3510100975,21.27,0.0,0.0,0.0,0.06867000000000001,0.33354000000000006,9.888480000000001
3515151480,21.27,0.0,0.0,0.0,0.07848000000000001,0.33354000000000006,9.908100000000001
3520201985,21.27,0.0,0.0,0.0,0.06867000000000001,0.32373,9.89829
3525252490,21.27,0.0,0.0,0.0,0.04905,0.34335000000000004,9.89829
3530302995,21.27,0.0,0.0,0.0,0.06867000000000001,0.34335000000000004,9.89829
3535353500,21.27,0.0,0.0,0.0,0.07848000000000001,0.33354000000000006,9.888480000000001
3540404005,21.27,0.0,0.0,0.0,0.04905,0.34335000000000004,9.84924
3545454510,21.27,0.0,0.0,0.0,0.06867000000000001,0.35316,9.888480000000001
3550505015,21.27,0.0,0.0,0.0,0.05886,0.34335000000000004,9.87867
3555555520,21.27,0.0,0.0,0.0,0.05886,0.33354000000000006,9.89829
3560606025,21.27,0.0,0.0,0.0,0.0981,0.33354000000000006,9.92772
3565656530,21.27,0.0,0.0,0.0,0.0981,0.32373,9.91791
3570707035,21.27,0.0,0.0,0.0,0.06867000000000001,0.33354000000000006,9.888480000000001
3575757540,21.27,0.0,0.0,0.0,0.07848000000000001,0.34335000000000004,9.89829
3580808045,21.27,0.0,0.0,0.0,0.0981,0.35316,9.87867
3585858550,21.27,0.0,0.0,0.0,0.06867000000000001,0.34335000000000004,9.87867
3590909055,21.27,0.0,0.0,0.0,0.07848000000000001,0.33354000000000006,9.86886
3595959560,21.27,0.0,0.0,0.0,0.06867000000000001,0.31392000000000003,9.89829
3601010065,21.27,0.0,0.0,0.0,0.07848000000000001,0.32373,9.92772
3606060570,21.27,0.0,0.0,0.0,0.05886,0.30411,9.87867
3611111075,21.27,0.0,0.0,0.0,0.05886,0.32373,9.91791
3616161580,21.27,0.0,0.0,0.0,0.08829,0.33354000000000006,9.89829
3621212085,21.27,0.0,0.0,0.0,0.02943,0.30411,9.89829
3626262590,21.27,0.0,0.0,0.0,0.06867000000000001,0.33354000000000006,9.888480000000001
3631313095,21.27,0.0,0.0,0.0,0.06867000000000001,0.35316,9.87867
3636363600,21.27,0.0,0.0,0.0,0.10791,0.30411,9.888480000000001
3641414105,21.27,0.0,0.0,0.0,0.07848000000000001,0.32373,9.89829
3646464610,21.27,0.0,0.0,0.0,0.05886,0.32373,9.87867
3651515115,21.27,0.0,0.0,0.0,0.06867000000000001,0.30411,9.86886
3656565620,21.27,0.0,0.0,0.0,0.06867000000000001,0.31392000000000003,9.888480000000001
3661616125,21.27,0.0,0.0,0.0,0.07848000000000001,0.35316,9.87867
3666666630,21.27,0.0,0.0,0.0,0.07848000000000001,0.36297,9.888480000000001
3671717135,21.27,0.0,0.0,0.0,0.05886,0.33354000000000006,9.86886
3676767640,21.27,0.0,0.0,0.0,0.06867000000000001,0.34335000000000004,9.87867
3681818145,21.27,0.0,0.0,0.0,0.06867000000000001,0.31392000000000003,9.888480000000001
3686868650,21.27,0.0,0.0,0.0,0.0981,0.33354000000000006,9.87867
3691919155,21.27,0.0,0.0,0.0,0.06867000000000001,0.33354000000000006,9.888480000000001
3696969660,21.27,0.0,0.0,0.0,0.05886,0.32373,9.888480000000001
3702020165,21.27,0.0,0.0,0.0,0.06867000000000001,0.35316,9.908100000000001
3707070670,21.27,0.0,0.0,0.0,0.04905,0.34335000000000004,9.84924
3712121175,21.27,0.0,0.0,0.0,0.06867000000000001,0.33354000000000006,9.86886
3717171680,21.27,0.0,0.0,0.0,0.039240000000000004,0.31392000000000003,9.89829
3722222185,21.27,0.0,0.0,0.0,0.06867000000000001,0.34335000000000004,9.888480000000001
3727272690,21.27,0.0,0.0,0.0,0.06867000000000001,0.33354000000000006,9.89829
3732323195,21.27,0.0,0.0,0.0,0.06867000000000001,0.32373,9.91791
3737373700,21.27,0.0,0.0,0.0,0.05886,0.32373,9.91791
3742424205,21.27,0.0,0.0,0.0,0.0981,0.32373,9.89829
3747474710,21.27,0.0,0.0,0.0,0.0981,0.33354000000000006,9.87867
3752525215,21.27,0.0,0.0,0.0,0.07848000000000001,0.32373,9.908100000000001
3757575720,21.27,0.0,0.0,0.0,0.06867000000000001,0.31392000000000003,9.86886
3762626225,21.27,0.0,0.0,0.0,0.05886,0.33354000000000006,9.888480000000001
3767676730,21.27,0.0,0.0,0.0,0.08829,0.31392000000000003,9.89829
3772727235,21.27,0.0,0.0,0.0,0.04905,0.34335000000000004,9.89829
3777777740,21.27,0.0,0.0,0.0,0.04905,0.33354000000000006,9.89829
3782828245,21.27,0.0,0.0,0.0,0.05886,0.34335000000000004,9.908100000000001
3787878750,21.27,0.0,0.0,0.0,0.06867000000000001,0.32373,9.85905
3792929255,21.27,0.0,0.0,0.0,0.07848000000000001,0.32373,9.89829
3797979760,21.27,0.0,0.0,0.0,0.05886,0.33354000000000006,9.84924
3803030265,21.27,0.0,0.0,0.0,0.07848000000000001,0.32373,9.908100000000001
3808080770,21.27,0.0,0.0,0.0,0.06867000000000001,0.32373,9.92772
3813131275,21.27,0.0,0.0,0.0,0.05886,0.31392000000000003,9.89829
3818181780,21.27,0.0,0.0,0.0,0.06867000000000001,0.33354000000000006,9.908100000000001
3823232285,21.27,0.0,0.0,0.0,0.06867000000000001,0.34335000000000004,9.89829
3828282790,21.27,0.0,0.0,0.0,0.06867000000000001,0.31392000000000003,9.85905
3833333295,21.27,0.0,0.0,0.0,0.06867000000000001,0.35316,9.85905
3838383800,21.27,0.0,0.0,0.0,0.07848000000000001,0.34335000000000004,9.908100000000001
3843434305,21.27,0.0,0.0,0.0,0.04905,0.34335000000000004,9.908100000000001
3848484810,21.27,0.0,0.0,0.0,0.06867000000000001,0.32373,9.908100000000001
3853535315,21.27,0.0,0.0,0.0,0.06867000000000001,0.32373,9.937529999999999
3858585820,21.27,0.0,0.0,0.0,0.08829,0.31392000000000003,9.87867
3863636325,21.27,0.0,0.0,0.0,0.06867000000000001,0.34335000000000004,9.888480000000001
3868686830,21.27,0.0,0.0,0.0,0.039240000000000004,0.33354000000000006,9.89829
3873737335,21.27,0.0,0.0,0.0,0.06867000000000001,0.35316,9.86886
3878787840,21.27,0.0,0.0,0.0,0.06867000000000001,0.33354000000000006,9.86886
3883838345,21.27,0.0,0.0,0.0,0.07848000000000001,0.31392000000000003,9.888480000000001
3888888850,21.27,0.0,0.0,0.0,0.06867000000000001,0.32373,9.908100000000001
3893939355,21.27,0.0,0.0,0.0,0.05886,0.31392000000000003,9.888480000000001
3898989860,21.27,0.0,0.0,0.0,0.06867000000000001,0.33354000000000006,9.908100000000001
3904040365,21.27,0.0,0.0,0.0,0.07848000000000001,0.32373,9.908100000000001
3909090870,21.27,0.0,0.0,0.0,0.07848000000000001,0.33354000000000006,9.87867
3914141375,21.27,0.0,0.0,0.0,0.06867000000000001,0.31392000000000003,9.908100000000001
3919191880,21.27,0.0,0.0,0.0,0.08829,0.34335000000000004,9.85905
3924242385,21.27,0.0,0.0,0.0,0.07848000000000001,0.33354000000000006,9.87867
3929292890,21.27,0.0,0.0,0.0,0.10791,0.31392000000000003,9.908100000000001
3934343395,21.27,0.0,0.0,0.0,0.06867000000000001,0.35316,9.888480000000001
3939393900,21.27,0.0,0.0,0.0,0.07848000000000001,0.34335000000000004,9.908100000000001
3944444405,21.27,0.0,0.0,0.0,0.08829,0.32373,9.86886
3949494910,21.27,0.0,0.0,0.0,0.08829,0.37278,9.86886
3954545415,21.27,0.0,0.0,0.0,0.07848000000000001,0.31392000000000003,9.888480000000001
3959595920,21.27,0.0,0.0,0.0,0.05886,0.33354000000000006,9.888480000000001
3964646425,21.27,0.0,0.0,0.0,0.06867000000000001,0.31392000000000003,9.89829
3969696930,21.27,0.0,0.0,0.0,0.04905,0.31392000000000003,9.908100000000001
3974747435,21.27,0.0,0.0,0.0,0.07848000000000001,0.33354000000000006,9.87867
3979797940,21.27,0.0,0.0,0.0,0.05886,0.33354000000000006,9.888480000000001
3984848445,21.27,0.0,0.0,0.0,0.07848000000000001,0.35316,9.87867
3989898950,21.27,0.0,0.0,0.0,0.05886,0.34335000000000004,9.82962
3994949455,21.27,0.0,0.0,0.0,0.05886,0.34335000000000004,9.89829
3999999960,21.27,0.0,0.0,0.0,0.06867000000000001,0.32373,9.888480000000001
4005050465,21.27,0.0,0.0,0.0,0.05886,0.33354000000000006,9.89829
4010100970,21.27,0.0,0.0,0.0,0.07848000000000001,0.31392000000000003,9.888480000000001
4015151475,21.27,0.0,0.0,0.0,0.06867000000000001,0.33354000000000006,9.908100000000001
4020201980,21.27,0.0,0.0,0.0,0.04905,0.34335000000000004,9.908100000000001
4025252485,21.27,0.0,0.0,0.0,0.07848000000000001,0.34335000000000004,9.908100000000001
4030302990,21.27,0.0,0.0,0.0,0.10791,0.35316,9.86886
4035353495,21.27,0.0,0.0,0.0,0.06867000000000001,0.34335000000000004,9.888480000000001
4040404000,21.27,0.0,0.0,0.0,0.06867000000000001,0.34335000000000004,9.888480000000001
4045454505,21.27,0.0,0.0,0.0,0.06867000000000001,0.32373,9.87867
4050505010,21.27,0.0,0.0,0.0,0.07848000000000001,0.31392000000000003,9.89829
4055555515,21.27,0.0,0.0,0.0,0.06867000000000001,0.33354000000000006,9.89829
4060606020,21.27,0.0,0.0,0.0,0.06867000000000001,0.31392000000000003,9.92772
4065656525,21.27,0.0,0.0,0.0,0.07848000000000001,0.33354000000000006,9.888480000000001
4070707030,21.27,0.0,0.0,0.0,0.06867000000000001,0.34335000000000004,9.87867
4075757535,21.27,0.0,0.0,0.0,0.06867000000000001,0.32373,9.908100000000001
4080808040,21.27,0.0,0.0,0.0,0.04905,0.35316,9.87867
4085858545,21.27,0.0,0.0,0.0,0.04905,0.32373,9.86886
4090909050,21.27,0.0,0.0,0.0,0.05886,0.32373,9.87867
4095959555,21.27,0.0,0.0,0.0,0.06867000000000001,0.33354000000000006,9.89829
4101010060,21.27,0.0,0.0,0.0,0.06867000000000001,0.31392000000000003,9.908100000000001
4106060565,21.27,0.0,0.0,0.0,0.07848000000000001,0.32373,9.908100000000001
4111111070,21.27,0.0,0.0,0.0,0.06867000000000001,0.34335000000000004,9.888480000000001
4116161575,21.27,0.0,0.0,0.0,0.0981,0.31392000000000003,9.86886
4121212080,21.27,0.0,0.0,0.0,0.06867000000000001,0.36297,9.86886
4126262585,21.27,0.0,0.0,0.0,0.0981,0.31392000000000003,9.85905
4131313090,21.27,0.0,0.0,0.0,0.07848000000000001,0.31392000000000003,9.888480000000001
4136363595,21.27,0.0,0.0,0.0,0.07848000000000001,0.33354000000000006,9.89829
4141414100,21.27,0.0,0.0,0.0,0.04905,0.33354000000000006,9.888480000000001
4146464605,21.27,0.0,0.0,0.0,0.06867000000000001,0.34335000000000004,9.908100000000001
4151515110,21.27,0.0,0.0,0.0,0.06867000000000001,0.31392000000000003,9.86886
4156565615,21.27,0.0,0.0,0.0,0.08829,0.34335000000000004,9.888480000000001
4161616120,21.27,0.0,0.0,0.0,0.07848000000000001,0.32373,9.87867
4166666625,21.27,0.0,0.0,0.0,0.06867000000000001,0.32373,9.87867
4171717130,21.27,0.0,0.0,0.0,0.08829,0.33354000000000006,9.89829
4176767635,21.27,0.0,0.0,0.0,0.039240000000000004,0.30411,9.89829
4181818140,21.27,0.0,0.0,0.0,0.06867000000000001,0.32373,9.908100000000001
4186868645,21.27,0.0,0.0,0.0,0.08829,0.32373,9.908100000000001
4191919150,21.27,0.0,0.0,0.0,0.07848000000000001,0.33354000000000006,9.89829
4196969655,21.27,0.0,0.0,0.0,0.05886,0.34335000000000004,9.908100000000001
4202020160,21.27,0.0,0.0,0.0,0.05886,0.35316,9.89829
4207070665,21.27,0.0,0.0,0.0,0.07848000000000001,0.35316,9.89829
4212121170,21.27,0.0,0.0,0.0,0.07848000000000001,0.31392000000000003,9.908100000000001
4217171675,21.27,0.0,0.0,0.0,0.04905,0.34335000000000004,9.888480000000001
4222222180,21.27,0.0,0.0,0.0,0.07848000000000001,0.30411,9.888480000000001
4227272685,21.27,0.0,0.0,0.0,0.06867000000000001,0.34335000000000004,9.91791
4232323190,21.27,0.0,0.0,0.0,0.05886,0.33354000000000006,9.888480000000001
4237373695,21.27,0.0,0.0,0.0,0.06867000000000001,0.31392000000000003,9.87867
4242424200,21.27,0.0,0.0,0.0,0.05886,0.34335000000000004,9.888480000000001
4247474705,21.27,0.0,0.0,0.0,0.0981,0.36297,9.86886
4252525210,21.27,0.0,0.0,0.0,0.06867000000000001,0.32373,9.91791
4257575715,21.27,0.0,0.0,0.0,0.0981,0.32373,9.908100000000001
4262626220,21.27,0.0,0.0,0.0,0.05886,0.33354000000000006,9.937529999999999
4267676725,21.27,0.0,0.0,0.0,0.08829,0.32373,9.87867
4272727230,21.27,0.0,0.0,0.0,0.07848000000000001,0.30411,9.89829
4277777735,21.27,0.0,0.0,0.0,0.05886,0.36297,9.87867
4282828240,21.27,0.0,0.0,0.0,0.06867000000000001,0.32373,9.888480000000001
4287878745,21.27,0.0,0.0,0.0,0.08829,0.33354000000000006,9.86886
4292929250,21.27,0.0,0.0,0.0,0.06867000000000001,0.33354000000000006,9.87867
4297979755,21.27,0.0,0.0,0.0,0.05886,0.31392000000000003,9.87867
4303030260,21.27,0.0,0.0,0.0,0.05886,0.32373,9.89829
4308080765,21.27,0.0,0.0,0.0,0.039240000000000004,0.31392000000000003,9.89829
4313131270,21.27,0.0,0.0,0.0,0.08829,0.31392000000000003,9.908100000000001
4318181775,21.27,0.0,0.0,0.0,0.06867000000000001,0.32373,9.84924
4323232280,21.27,0.0,0.0,0.0,0.07848000000000001,0.32373,9.87867
4328282785,21.27,0.0,0.0,0.0,0.04905,0.34335000000000004,9.87867
4333333290,21.27,0.0,0.0,0.0,0.07848000000000001,0.34335000000000004,9.87867
4338383795,21.27,0.0,0.0,0.0,0.06867000000000001,0.35316,9.87867
4343434300,21.27,0.0,0.0,0.0,0.06867000000000001,0.36297,9.89829
4348484805,21.27,0.0,0.0,0.0,0.08829,0.32373,9.89829
4353535310,21.27,0.0,0.0,0.0,0.06867000000000001,0.34335000000000004,9.908100000000001
4358585815,21.27,0.0,0.0,0.0,0.06867000000000001,0.32373,9.85905
4363636320,21.27,0.0,0.0,0.0,0.06867000000000001,0.31392000000000003,9.89829
4368686825,21.27,0.0,0.0,0.0,0.05886,0.30411,9.888480000000001
4373737330,21.27,0.0,0.0,0.0,0.08829,0.34335000000000004,9.86886
4378787835,21.27,0.0,0.0,0.0,0.07848000000000001,0.34335000000000004,9.89829
4383838340,21.27,0.0,0.0,0.0,0.05886,0.31392000000000003,9.908100000000001
4388888845,21.27,0.0,0.0,0.0,0.08829,0.32373,9.908100000000001
4393939350,21.27,0.0,0.0,0.0,0.06867000000000001,0.31392000000000003,9.89829
4398989855,21.27,0.0,0.0,0.0,0.08829,0.33354000000000006,9.888480000000001
4404040360,21.27,0.0,0.0,0.0,0.05886,0.32373,9.89829
4409090865,21.27,0.0,0.0,0.0,0.07848000000000001,0.33354000000000006,9.89829
4414141370,21.27,0.0,0.0,0.0,0.06867000000000001,0.33354000000000006,9.87867
4419191875,21.27,0.0,0.0,0.0,0.08829,0.33354000000000006,9.888480000000001
4424242380,21.27,0.0,0.0,0.0,0.05886,0.34335000000000004,9.89829
4429292885,21.27,0.0,0.0,0.0,0.06867000000000001,0.33354000000000006,9.87867
4434343390,21.27,0.0,0.0,0.0,0.07848000000000001,0.32373,9.89829
4439393895,21.27,0.0,0.0,0.0,0.05886,0.32373,9.888480000000001
4444444400,21.27,0.0,0.0,0.0,0.06867000000000001,0.35316,9.87867
4449494905,21.27,0.0,0.0,0.0,0.04905,0.36297,9.888480000000001
4454545410,21.27,0.0,0.0,0.0,0.08829,0.31392000000000003,9.888480000000001
4459595915,21.27,0.0,0.0,0.0,0.08829,0.32373,9.888480000000001
4464646420,21.27,0.0,0.0,0.0,0.05886,0.32373,9.888480000000001
4469696925,21.27,0.0,0.0,0.0,0.07848000000000001,0.32373,9.89829
4474747430,21.27,0.0,0.0,0.0,0.06867000000000001,0.34335000000000004,9.89829
4479797935,21.27,0.0,0.0,0.0,0.07848000000000001,0.31392000000000003,9.87867
4484848440,21.27,0.0,0.0,0.0,0.08829,0.34335000000000004,9.87867
4489898945,21.27,0.0,0.0,0.0,0.08829,0.33354000000000006,9.89829
4494949450,21.27,0.0,0.0,0.0,0.08829,0.33354000000000006,9.888480000000001
4499999955,21.27,0.0,0.0,0.0,0.05886,0.31392000000000003,9.86886
4505050460,21.27,0.0,0.0,0.0,0.08829,0.34335000000000004,9.91791
4510100965,21.27,0.0,0.0,0.0,0.07848000000000001,0.33354000000000006,9.908100000000001
4515151470,21.27,0.0,0.0,0.0,0.07848000000000001,0.31392000000000003,9.87867
4520201975,21.27,0.0,0.0,0.0,0.04905,0.34335000000000004,9.908100000000001
4525252480,21.27,0.0,0.0,0.0,0.06867000000000001,0.30411,9.86886
4530302985,21.27,0.0,0.0,0.0,0.07848000000000001,0.33354000000000006,9.86886
4535353490,21.27,0.0,0.0,0.0,0.08829,0.37278,9.87867
4540403995,21.27,0.0,0.0,0.0,0.08829,0.30411,9.888480000000001
4545454500,21.27,0.0,0.0,0.0,0.05886,0.33354000000000006,9.888480000000001
4550505005,21.27,0.0,0.0,0.0,0.06867000000000001,0.30411,9.91791
4555555510,21.27,0.0,0.0,0.0,0.08829,0.35316,9.89829
4560606015,21.27,0.0,0.0,0.0,0.06867000000000001,0.30411,9.908100000000001
4565656520,21.27,0.0,0.0,0.0,0.08829,0.35316,9.87867
4570707025,21.27,0.0,0.0,0.0,0.0981,0.35316,9.888480000000001
4575757530,21.27,0.0,0.0,0.0,0.08829,0.34335000000000004,9.888480000000001
4580808035,21.27,0.0,0.0,0.0,0.06867000000000001,0.35316,9.89829
4585858540,21.27,0.0,0.0,0.0,0.07848000000000001,0.33354000000000006,9.89829
4590909045,21.27,0.0,0.0,0.0,0.08829,0.34335000000000004,9.89829
4595959550,21.27,0.0,0.0,0.0,0.05886,0.32373,9.908100000000001
4601010055,21.27,0.0,0.0,0.0,0.06867000000000001,0.32373,9.888480000000001
4606060560,21.27,0.0,0.0,0.0,0.0981,0.37278,9.86886
4611111065,21.27,0.0,0.0,0.0,0.08829,0.33354000000000006,9.888480000000001
4616161570,21.27,0.0,0.0,0.0,0.06867000000000001,0.33354000000000006,9.87867
4621212075,21.27,0.0,0.0,0.0,0.08829,0.31392000000000003,9.89829
4626262580,21.27,0.0,0.0,0.0,0.07848000000000001,0.33354000000000006,9.888480000000001
4631313085,21.27,0.0,0.0,0.0,0.06867000000000001,0.31392000000000003,9.908100000000001
4636363590,21.27,0.0,0.0,0.0,0.07848000000000001,0.34335000000000004,9.91791
4641414095,21.27,0.0,0.0,0.0,0.07848000000000001,0.34335000000000004,9.888480000000001
4646464600,21.27,0.0,0.0,0.0,0.05886,0.36297,9.84924
4651515105,21.27,0.0,0.0,0.0,0.039240000000000004,0.32373,9.888480000000001
4656565610,21.27,0.0,0.0,0.0,0.06867000000000001,0.31392000000000003,9.86886
4661616115,21.27,0.0,0.0,0.0,0.06867000000000001,0.32373,9.888480000000001
4666666620,21.27,0.0,0.0,0.0,0.06867000000000001,0.33354000000000006,9.87867
4671717125,21.27,0.0,0.0,0.0,0.05886,0.32373,9.888480000000001
4676767630,21.27,0.0,0.0,0.0,0.06867000000000001,0.31392000000000003,9.91791
4681818135,21.27,0.0,0.0,0.0,0.08829,0.30411,9.89829
4686868640,21.27,0.0,0.0,0.0,0.05886,0.35316,9.908100000000001
4691919145,21.27,0.0,0.0,0.0,0.06867000000000001,0.31392000000000003,9.888480000000001
4696969650,21.27,0.0,0.0,0.0,0.05886,0.34335000000000004,9.888480000000001
4702020155,21.27,0.0,0.0,0.0,0.07848000000000001,0.34335000000000004,9.888480000000001
4707070660,21.27,0.0,0.0,0.0,0.08829,0.30411,9.87867
4712121165,21.27,0.0,0.0,0.0,0.10791,0.32373,9.89829
4717171670,21.27,0.0,0.0,0.0,0.05886,0.33354000000000006,9.908100000000001
4722222175,21.27,0.0,0.0,0.0,0.06867000000000001,0.31392000000000003,9.888480000000001
4727272680,21.27,0.0,0.0,0.0,0.07848000000000001,0.33354000000000006,9.87867
4732323185,21.27,0.0,0.0,0.0,0.0981,0.33354000000000006,9.87867
4737373690,21.27,0.0,0.0,0.0,0.07848000000000001,0.36297,9.908100000000001
4742424195,21.27,0.0,0.0,0.0,0.08829,0.31392000000000003,9.86886
4747474700,21.27,0.0,0.0,0.0,0.06867000000000001,0.33354000000000006,9.888480000000001
4752525205,21.27,0.0,0.0,0.0,0.07848000000000001,0.30411,9.888480000000001
4757575710,21.27,0.0,0.0,0.0,0.04905,0.33354000000000006,9.87867
4762626215,21.27,0.0,0.0,0.0,0.07848000000000001,0.32373,9.89829
4767676720,21.27,0.0,0.0,0.0,0.05886,0.34335000000000004,9.888480000000001
4772727225,21.27,0.0,0.0,0.0,0.07848000000000001,0.34335000000000004,9.89829
4777777730,21.27,0.0,0.0,0.0,0.08829,0.34335000000000004,9.888480000000001
4782828235,21.27,0.0,0.0,0.0,0.039240000000000004,0.30411,9.86886
4787878740,21.27,0.0,0.0,0.0,0.08829,0.32373,9.908100000000001
4792929245,21.27,0.0,0.0,0.0,0.0981,0.33354000000000006,9.908100000000001
4797979750,21.27,0.0,0.0,0.0,0.07848000000000001,0.34335000000000004,9.888480000000001
4803030255,21.27,0.0,0.0,0.0,0.05886,0.34335000000000004,9.888480000000001
4808080760,21.27,0.0,0.0,0.0,0.05886,0.34335000000000004,9.87867
4813131265,21.27,0.0,0.0,0.0,0.07848000000000001,0.33354000000000006,9.89829
4818181770,21.27,0.0,0.0,0.0,0.06867000000000001,0.31392000000000003,9.908100000000001
4823232275,21.27,0.0,0.0,0.0,0.04905,0.33354000000000006,9.908100000000001
4828282780,21.27,0.0,0.0,0.0,0.08829,0.32373,9.87867
4833333285,21.27,0.0,0.0,0.0,0.07848000000000001,0.30411,9.888480000000001
4838383790,21.27,0.0,0.0,0.0,0.07848000000000001,0.36297,9.888480000000001
4843434295,21.27,0.0,0.0,0.0,0.07848000000000001,0.33354000000000006,9.89829
4848484800,21.27,0.0,0.0,0.0,0.06867000000000001,0.32373,9.91791
4853535305,21.27,0.0,0.0,0.0,0.07848000000000001,0.33354000000000006,9.83943
4858585810,21.27,0.0,0.0,0.0,0.07848000000000001,0.34335000000000004,9.87867
4863636315,21.27,0.0,0.0,0.0,0.08829,0.30411,9.908100000000001
4868686820,21.27,0.0,0.0,0.0,0.06867000000000001,0.30411,9.89829
4873737325,21.27,0.0,0.0,0.0,0.07848000000000001,0.32373,9.86886
4878787830,21.27,0.0,0.0,0.0,0.04905,0.35316,9.888480000000001
4883838335,21.27,0.0,0.0,0.0,0.06867000000000001,0.32373,9.888480000000001
4888888840,21.27,0.0,0.0,0.0,0.06867000000000001,0.34335000000000004,9.888480000000001
4893939345,21.27,0.0,0.0,0.0,0.06867000000000001,0.35316,9.87867
4898989850,21.27,0.0,0.0,0.0,0.07848000000000001,0.35316,9.89829
4904040355,21.27,0.0,0.0,0.0,0.08829,0.31392000000000003,9.87867
4909090860,21.27,0.0,0.0,0.0,0.07848000000000001,0.33354000000000006,9.89829
4914141365,21.27,0.0,0.0,0.0,0.07848000000000001,0.33354000000000006,9.89829
4919191870,21.27,0.0,0.0,0.0,0.05886,0.33354000000000006,9.908100000000001
4924242375,21.27,0.0,0.0,0.0,0.04905,0.32373,9.908100000000001
4929292880,21.27,0.0,0.0,0.0,0.07848000000000001,0.32373,9.87867
4934343385,21.27,0.0,0.0,0.0,0.04905,0.35316,9.85905
4939393890,21.27,0.0,0.0,0.0,0.04905,0.35316,9.888480000000001
4944444395,21.27,0.0,0.0,0.0,0.05886,0.35316,9.87867
4949494900,21.27,0.0,0.0,0.0,0.05886,0.33354000000000006,9.89829
4954545405,21.27,0.0,0.0,0.0,0.07848000000000001,0.31392000000000003,9.87867
4959595910,21.27,0.0,0.0,0.0,0.07848000000000001,0.30411,9.908100000000001
4964646415,21.27,0.0,0.0,0.0,0.07848000000000001,0.32373,9.89829
4969696920,21.27,0.0,0.0,0.0,0.07848000000000001,0.35316,9.91791
4974747425,21.27,0.0,0.0,0.0,0.05886,0.31392000000000003,9.86886
4979797930,21.27,0.0,0.0,0.0,0.07848000000000001,0.36297,9.84924
4984848435,21.27,0.0,0.0,0.0,0.08829,0.32373,9.888480000000001
4989898940,21.27,0.0,0.0,0.0,0.05886,0.33354000000000006,9.85905
4994949445,21.27,0.0,0.0,0.0,0.05886,0.35316,9.888480000000001
4999999950,21.27,0.0,0.0,0.0,0.04905,0.31392000000000003,9.908100000000001
5005050455,21.27,0.0,0.0,0.0,0.06867000000000001,0.31392000000000003,9.888480000000001
5010100960,21.27,0.0,0.0,0.0,0.07848000000000001,0.34335000000000004,9.89829
5015151465,21.27,0.0,0.0,0.0,0.07848000000000001,0.32373,9.87867
5020201970,21.27,0.0,0.0,0.0,0.07848000000000001,0.33354000000000006,9.908100000000001
5025252475,21.27,0.0,0.0,0.0,0.07848000000000001,0.32373,9.87867
5030302980,21.27,0.0,0.0,0.0,0.06867000000000001,0.35316,9.87867
5035353485,21.27,0.0,0.0,0.0,0.04905,0.32373,9.888480000000001
5040403990,21.27,0.0,0.0,0.0,0.08829,0.32373,9.89829
5045454495,21.27,0.0,0.0,0.0,0.06867000000000001,0.32373,9.908100000000001
5050505000,21.27,0.0,0.0,0.0,0.08829,0.35316,9.908100000000001
5055555505,21.27,0.0,0.0,0.0,0.08829,0.33354000000000006,9.888480000000001
5060606010,21.27,0.0,0.0,0.0,0.05886,0.32373,9.87867
5065656515,21.27,0.0,0.0,0.0,0.05886,0.35316,9.85905
5070707020,21.27,0.0,0.0,0.0,0.039240000000000004,0.36297,9.91791
5075757525,21.27,0.0,0.0,0.0,0.08829,0.32373,9.888480000000001
5080808030,21.27,0.0,0.0,0.0,0.06867000000000001,0.31392000000000003,9.908100000000001
5085858535,21.27,0.0,0.0,0.0,0.06867000000000001,0.35316,9.91791
5090909040,21.27,0.0,0.0,0.0,0.05886,0.34335000000000004,9.87867
5095959545,21.27,0.0,0.0,0.0,0.05886,0.35316,9.89829
5101010050,21.27,0.0,0.0,0.0,0.06867000000000001,0.32373,9.86886
5106060555,21.27,0.0,0.0,0.0,0.05886,0.31392000000000003,9.85905
5111111060,21.27,0.0,0.0,0.0,0.06867000000000001,0.32373,9.908100000000001
5116161565,21.27,0.0,0.0,0.0,0.0981,0.32373,9.87867
5121212070,21.27,0.0,0.0,0.0,0.06867000000000001,0.33354000000000006,9.908100000000001
5126262575,21.27,0.0,0.0,0.0,0.10791,0.33354000000000006,9.92772
5131313080,21.27,0.0,0.0,0.0,0.07848000000000001,0.34335000000000004,9.89829
5136363585,21.27,0.0,0.0,0.0,0.0981,0.35316,9.888480000000001
5141414090,21.27,0.0,0.0,0.0,0.08829,0.38259000000000004,9.86886
5146464595,21.27,0.0,0.0,0.0,0.08829,0.35316,9.87867
5151515100,21.27,0.0,0.0,0.0,0.08829,0.32373,9.87867
5156565605,21.27,0.0,0.0,0.0,0.06867000000000001,0.34335000000000004,9.87867
5161616110,21.27,0.0,0.0,0.0,0.0981,0.33354000000000006,9.91791
5166666615,21.27,0.0,0.0,0.0,0.04905,0.32373,9.888480000000001
5171717120,21.27,0.0,0.0,0.0,0.05886,0.34335000000000004,9.91791
5176767625,21.27,0.0,0.0,0.0,0.07848000000000001,0.33354000000000006,9.86886
5181818130,21.27,0.0,0.0,0.0,0.06867000000000001,0.32373,9.86886
5186868635,21.27,0.0,0.0,0.0,0.08829,0.33354000000000006,9.888480000000001
5191919140,21.27,0.0,0.0,0.0,0.04905,0.31392000000000003,9.87867
5196969645,21.27,0.0,0.0,0.0,0.019620000000000002,0.33354000000000006,9.87867
5202020150,21.27,0.0,0.0,0.0,0.05886,0.33354000000000006,9.908100000000001
5207070655,21.27,0.0,0.0,0.0,0.06867000000000001,0.31392000000000003,9.908100000000001
5212121160,21.27,0.0,0.0,0.0,0.039240000000000004,0.35316,9.908100000000001
5217171665,21.27,0.0,0.0,0.0,0.10791,0.42183,9.908100000000001
5222222170,21.27,-0.004258603374866164,0.014905111812031574,0.0,0.21582,0.38259000000000004,9.84924
5227272675,21.27,-0.03728023282259888,0.033021629447732716,0.0,0.25506,0.0981,9.85905
5232323180,21.27,-0.054332099614583476,0.1480737337391989,0.0,0.2943,-0.1962,10.074869999999999
5237373685,21.27,0.012775810124598492,0.20453513504121545,-0.005323254218582705,-0.51993,0.0,10.06506
5242424190,21.27,0.07030186227033158,0.1672549022186166,0.0,-0.37278,-0.019620000000000002,9.888480000000001
5247474695,21.27,0.06923721142661506,0.18216001403064813,-0.001064650843716541,-1.2753,0.6768900000000001,9.937529999999999
5252525200,21.27,0.14594443205176583,-0.03728023282259888,0.003193952531149623,-0.9908100000000001,0.8338500000000001,10.212209999999999
5257575705,21.27,0.02556907354171693,-0.039409534510031964,0.001064650843716541,-1.6382700000000001,0.52974,9.79038
5262626210,21.27,-0.01811651763570114,-0.5102644601130623,0.006387905062299246,-0.60822,0.7749900000000001,9.937529999999999
5267676715,21.27,0.03728023282259888,-0.31211723013414594,0.012775810124598492,0.72594,1.19682,9.819809999999999
5272727220,21.27,-0.01064650843716541,-0.4005356100401787,0.005323254218582705,0.25506,1.08891,9.68247
5277777725,21.27,-0.11931070766633237,-0.35047956709298134,0.00958185759344887,2.00124,0.6670800000000001,9.6138
5282828230,21.27,-0.08841837990603273,-0.12995721610349775,0.002129301687433082,1.06929,1.00062,9.937529999999999
5287878735,21.27,-0.12463396188491506,-0.14487978120804929,0.00958185759344887,2.31516,0.0981,9.908100000000001
5292929240,21.27,-0.2482032729261136,0.30253537254069707,0.002129301687433082,1.26549,-0.44145,9.55494
5297979745,21.27,-0.1352804703220805,0.09693558665576507,-0.01064650843716541,0.6278400000000001,-0.6768900000000001,9.67266
5303030250,21.27,-0.12356931104119852,0.32171654102011477,0.0,0.86328,-1.15758,9.819809999999999
5308080755,21.27,-0.022375121010567305,0.2236988502281132,-0.006387905062299246,-0.8142300000000001,-0.89271,9.79038
5313131260,21.27,0.11931070766633237,0.03834488366631542,-0.003193952531149623,0.25506,-0.45126,9.56475
5318181765,21.27,0.18109536318693162,0.16084954386379738,-0.006387905062299246,-0.28449,0.12753,9.60399
5323232270,21.27,0.19493582415524666,0.0,-0.001064650843716541,0.07848000000000001,0.30411,9.73152
5328282775,21.27,0.17683675981206545,0.18109536318693162,-0.002129301687433082,0.1962,0.6867000000000001,9.95715
5333333280,21.27,0.18854791909294744,0.10438814256178083,-0.006387905062299246,-0.32373,1.39302,10.006200000000002
5338383785,21.27,0.177901410655782,0.18535396656179778,0.0,-0.31392000000000003,2.38383,10.712520000000001
5343434290,21.27,0.12569861272863161,0.1171814059788993,-0.003193952531149623,-1.5303600000000002,1.85409,10.4967
5348484795,21.27,-0.20453513504121545,-0.05326744877086694,0.001064650843716541,-0.52974,0.18639,10.418220000000002
5353535300,21.27,-0.23329816111408203,0.023439771854283843,-0.002129301687433082,-0.37278,0.07848000000000001,9.760950000000001
5358585805,21.27,-0.0852244273748831,0.033021629447732716,0.003193952531149623,-0.49050000000000005,-0.11772,10.03563
5363636310,21.27,-0.14062117783318315,-0.05965535383316618,0.001064650843716541,-1.05948,-0.41202000000000005,9.96696
5368686815,21.27,-0.08309512568745003,-0.1352804703220805,0.003193952531149623,-0.17658,-0.45126,9.84924
5373737320,21.27,0.013840460968315033,-0.05113814708343386,0.005323254218582705,-0.65727,0.0,9.73152
5378787825,21.27,0.05326744877086694,-0.20240583335378237,0.004258603374866164,-0.1962,0.039240000000000004,9.78057
5383838330,21.27,0.031956978604016174,-0.13421581947836395,0.004258603374866164,-0.08829,0.42183,9.36855
5388888835,21.27,0.10866419922916695,-0.25672047967584594,0.004258603374866164,0.33354000000000006,0.72594,9.623610000000001
5393939340,21.27,0.028763026072866547,-0.1629788455512305,0.003193952531149623,0.6180300000000001,0.6867000000000001,9.5157
5398989845,21.27,0.023439771854283843,-0.20666443672864854,0.004258603374866164,0.7848,0.79461,9.73152
5404040350,21.27,0.001064650843716541,-0.10438814256178083,0.003193952531149623,1.16739,0.73575,9.80019
5409090855,21.27,-0.02556907354171693,-0.11505210429146619,-0.002129301687433082,0.9613800000000001,0.6867000000000001,9.89829
5414141360,21.27,-0.05220279792715039,-0.004258603374866164,0.004258603374866164,1.54017,0.41202000000000005,10.143540000000002
5419191865,21.27,-0.07883652231258387,0.06391395720803235,-0.004258603374866164,0.8240400000000001,0.28449,9.96696
5424242370,21.27,-0.07777187146886733,0.07777187146886733,0.0,1.44207,-0.07848000000000001,10.212209999999999
5429292875,21.27,-0.08415977653116657,0.27377234646783055,-0.007452555906015787,0.51012,-0.23544,9.92772
5434343380,21.27,-0.024504422698000388,0.16938420390604966,-0.002129301687433082,0.40221,-0.36297,9.86886
5439393885,21.27,0.002129301687433082,0.34088025620701246,-0.005323254218582705,0.23544,-0.36297,9.69228
5444444390,21.27,0.06284930636431581,0.26844909224924784,-0.00958185759344887,-0.70632,-0.1962,9.68247
5449494895,21.27,0.10119419003063122,0.23649211364523165,-0.004258603374866164,-0.45126,-0.12753,9.83943
5454545400,21.27,0.12250466019748199,0.25672047967584594,-0.006387905062299246,-1.13796,0.6768900000000001,9.81
5459595905,21.27,0.19174187162409706,0.1278279144160647,-0.004258603374866164,-1.52055,1.7658,10.34955
5464646410,21.27,0.14913838458291545,0.05539675045830002,0.002129301687433082,-2.06991,1.3341600000000002,10.143540000000002
5469696915,21.27,-0.10438814256178083,-0.22156954854068012,0.004258603374866164,-1.4813100000000001,0.1962,10.01601
5474747420,21.27,-0.09906488834319814,-0.22156954854068012,0.007452555906015787,-0.2943,0.41202000000000005,9.78057
5479797925,21.27,0.03408628029144926,-0.18216001403064813,0.006387905062299246,-0.46107000000000004,0.64746,9.937529999999999
5484848430,21.27,-0.06178465552059926,-0.30253537254069707,0.007452555906015787,-0.17658,0.24525000000000002,9.92772
5489898935,21.27,-0.08309512568745003,-0.28548350574871245,0.00958185759344887,0.35316,0.42183,10.19259
5494949440,21.27,-0.01811651763570114,-0.28548350574871245,0.007452555906015787,0.59841,0.5591700000000001,10.05525
5499999945,21.27,-0.07136651311404815,-0.25672047967584594,0.008517206749732328,1.04967,0.30411,9.98658
5505050450,21.27,-0.08841837990603273,-0.16831955306233315,0.006387905062299246,1.2556800000000001,0.26487,9.87867
5510100955,21.27,-0.046879543708567686,-0.1097288500728835,0.001064650843716541,1.2851100000000002,0.34335000000000004,9.68247
5515151460,21.27,-0.05646140130201656,-0.033021629447732716,0.002129301687433082,1.42245,0.0981,9.64323
5520201965,21.27,-0.0756251164889143,0.07136651311404815,-0.001064650843716541,1.26549,-0.05886,9.5157
5525252470,21.27,-0.03834488366631542,0.1288925652597812,-0.004258603374866164,1.1183400000000001,-0.18639,9.5157
5530302975,21.27,-0.03089232776029963,0.23755676448894822,-0.004258603374866164,0.87309,-0.3924,9.60399
5535353480,21.27,0.013840460968315033,0.28761280743614553,-0.00958185759344887,0.42183,-0.40221,9.68247
5540403985,21.27,0.08415977653116657,0.30998792844671286,-0.006387905062299246,0.02943,-0.33354000000000006,9.74133
5545454490,21.27,0.12144000935376545,0.31852258848896514,-0.005323254218582705,-0.42183,-0.11772,9.98658
5550504995,21.27,0.17151350559348277,0.26631979056181476,-0.006387905062299246,-0.75537,0.40221,9.937529999999999
5555555500,21.27,0.19387117331153014,0.19814722997891623,-0.006387905062299246,-1.08891,1.9914300000000003,10.006200000000002
5560606005,21.27,0.25672047967584594,0.1480737337391989,0.0,-2.03067,2.36421,11.19321
5565656510,21.27,-0.05646140130201656,-0.11292280260403312,0.002129301687433082,-1.74618,0.6670800000000001,9.57456
5570707015,21.27,-0.23010420858293237,-0.19067722078038052,0.004258603374866164,-0.71613,0.04905,9.751140000000001
5575757520,21.27,-0.046879543708567686,-0.17683675981206545,0.004258603374866164,-0.44145,0.5591700000000001,10.045440000000001
5580808025,21.27,-0.0404741853537485,-0.23862141533266473,0.003193952531149623,-0.36297,0.16677000000000003,9.82962
5585858530,21.27,-0.14275047952061623,-0.27164304478039747,0.008517206749732328,0.07848000000000001,-0.0981,10.182780000000001
5590909035,21.27,-0.04366813788489812,-0.26312583803066514,0.006387905062299246,0.30411,0.36297,10.22202
5595959540,21.27,-0.006387905062299246,-0.27270769562411395,0.005323254218582705,0.80442,0.25506,9.83943
5601010045,21.27,-0.08309512568745003,-0.17151350559348277,0.005323254218582705,1.1281500000000002,0.05886,9.86886
5606060550,21.27,-0.03728023282259888,-0.10866419922916695,0.002129301687433082,1.1281500000000002,0.22563,9.67266
5611111055,21.27,-0.00958185759344887,-0.004258603374866164,0.001064650843716541,1.26549,0.14715,9.56475
5616161560,21.27,-0.031956978604016174,0.07456046564519776,-0.001064650843716541,0.9319500000000001,-0.02943,9.64323
5621212065,21.27,0.0,0.11185815176031658,-0.003193952531149623,0.94176,0.0,9.65304
5626262570,21.27,0.022375121010567305,0.20240583335378237,-0.003193952531149623,0.6867000000000001,-0.07848000000000001,9.760950000000001
5631313075,21.27,0.023439771854283843,0.2151816434783809,-0.005323254218582705,0.31392000000000003,-0.10791,9.74133
5636363580,21.27,0.06710790973918197,0.2279749068954993,-0.005323254218582705,0.12753,0.02943,9.80019
5641414085,21.27,0.09906488834319814,0.24075071702009782,-0.007452555906015787,-0.23544,0.18639,9.82962
5646464590,21.27,0.11185815176031658,0.18535396656179778,-0.004258603374866164,-0.46107000000000004,0.35316,9.80019
5651515095,21.27,0.1171814059788993,0.16191419470751395,-0.003193952531149623,-0.57879,0.90252,9.908100000000001
5656565600,21.27,0.14381513036433274,0.12569861272863161,-0.002129301687433082,-1.08891,1.69713,10.32993
5661616105,21.27,0.08948303074974927,-0.002129301687433082,0.002129301687433082,-1.3635900000000003,1.1477700000000002,10.05525
5666666610,21.27,-0.12569861272863161,-0.12995721610349775,0.002129301687433082,-0.72594,0.22563,10.143540000000002
5671717115,21.27,-0.10759954838545042,-0.13634512116579703,0.003193952531149623,-0.34335000000000004,0.49050000000000005,9.888480000000001
5676767620,21.27,-0.006387905062299246,-0.16084954386379738,0.003193952531149623,-0.27468000000000004,0.5493600000000001,9.97677
5681818125,21.27,-0.10438814256178083,-0.19280652246781357,0.003193952531149623,-0.039240000000000004,0.0981,10.06506
5686868630,21.27,-0.09054768159346581,-0.19280652246781357,0.004258603374866164,0.23544,0.23544,9.91791
5691919135,21.27,-0.02769837522915001,-0.17257815643719931,0.003193952531149623,0.47088,0.2943,9.937529999999999
5696969640,21.78,-0.07136651311404815,-0.150203035426632,0.005323254218582705,0.64746,0.02943,9.92772
5702020145,21.78,-0.06710790973918197,-0.09587093581204853,0.003193952531149623,0.84366,0.019620000000000002,9.760950000000001
5707070650,21.78,-0.01811651763570114,-0.020245819323134222,0.0,0.8142300000000001,0.0,9.85905
5712121155,21.78,-0.01918116847941768,0.021310470166850764,-0.001064650843716541,0.71613,-0.06867000000000001,9.78057
5717171660,21.78,0.006387905062299246,0.07883652231258387,-0.001064650843716541,0.70632,0.019620000000000002,9.70209
5722222165,21.78,0.04260348704118158,0.13849187614575004,0.0,0.50031,0.08829,9.73152
5727272670,21.78,0.05113814708343386,0.1480737337391989,-0.005323254218582705,0.25506,0.08829,9.64323
5732323175,21.78,0.06497860805174888,0.16510814723866357,-0.002129301687433082,0.12753,0.22563,9.74133
5737373680,21.78,0.08096582400001695,0.16510814723866357,-0.005323254218582705,-0.17658,0.31392000000000003,9.81
5742424185,21.78,0.08203047484373349,0.12463396188491506,-0.002129301687433082,-0.32373,0.43164,9.85905
5747474690,21.78,0.08203047484373349,0.09161233243718235,-0.003193952531149623,-0.3924,0.60822,10.006200000000002
5752525195,21.78,0.0756251164889143,0.033021629447732716,-0.003193952531149623,-0.43164,0.80442,10.03563
5757575700,21.78,0.05752605214573309,0.001064650843716541,0.002129301687433082,-0.36297,0.95157,10.08468
5762626205,21.78,0.02663372438543347,-0.03408628029144926,0.001064650843716541,-0.42183,0.86328,10.01601
5767676710,21.78,-0.03834488366631542,-0.08841837990603273,0.0,-0.10791,0.71613,9.94734
5772727215,21.78,-0.04794419455228423,-0.05539675045830002,0.003193952531149623,-0.009810000000000001,0.69651,9.94734
5777777720,21.78,-0.07349581480148122,-0.08203047484373349,0.001064650843716541,-0.08829,0.46107000000000004,9.937529999999999
5782828225,21.78,-0.1097288500728835,-0.08096582400001695,0.002129301687433082,0.13734000000000002,0.1962,10.03563
5787878730,21.78,-0.08735372906231618,-0.05326744877086694,0.001064650843716541,0.12753,0.07848000000000001,9.98658
5792929235,21.78,-0.08096582400001695,-0.03834488366631542,0.0,0.15696000000000002,-0.08829,9.937529999999999
5797979740,21.78,-0.06817256058289851,-0.014905111812031574,0.0,0.16677000000000003,-0.15696000000000002,9.91791
5803030245,21.78,-0.022375121010567305,-0.0,-0.001064650843716541,0.08829,-0.11772,9.80019
5808080750,21.78,0.007452555906015787,0.005323254218582705,0.0,0.08829,-0.07848000000000001,9.70209
5813131255,21.78,0.02769837522915001,0.021310470166850764,-0.002129301687433082,0.0,0.05886,9.68247
5818181760,21.78,0.060720004676882725,0.006387905062299246,-0.001064650843716541,0.05886,0.23544,9.68247
5823232265,21.78,0.07030186227033158,0.024504422698000388,0.0,0.07848000000000001,0.33354000000000006,9.78057
5828282770,21.78,0.06604325889546543,0.021310470166850764,0.0,-0.009810000000000001,0.45126,9.89829
5833333275,21.78,0.06817256058289851,0.002129301687433082,0.001064650843716541,0.04905,0.5886,9.99639
5838383780,21.78,0.05965535383316618,-0.007452555906015787,0.0,0.06867000000000001,0.74556,10.01601
5843434285,21.78,0.03728023282259888,-0.02663372438543347,0.002129301687433082,0.17658,0.75537,10.025820000000001
5848484790,21.78,0.008517206749732328,-0.01918116847941768,0.002129301687433082,0.20601000000000003,0.74556,9.94734
5853535295,21.78,-0.020245819323134222,-0.024504422698000388,-0.001064650843716541,0.21582,0.6670800000000001,9.96696
5858585800,21.78,-0.04581489286485115,-0.022375121010567305,0.002129301687433082,0.23544,0.51993,9.94734
5863636305,21.78,-0.06284930636431581,-0.015987215948268057,0.002129301687433082,0.23544,0.37278,9.96696
5868686810,21.78,-0.07136651311404815,-0.0170518667919846,0.001064650843716541,0.22563,0.20601000000000003,9.937529999999999
5873737315,21.78,-0.07243116395776468,-0.0,-0.001064650843716541,0.24525000000000002,0.039240000000000004,9.91791
5878787820,21.78,-0.060720004676882725,0.01918116847941768,0.001064650843716541,0.17658,-0.039240000000000004,9.83943
5883838325,21.78,-0.02769837522915001,0.023439771854283843,0.0,0.05886,-0.04905,9.81
5888888830,21.78,0.0,0.01811651763570114,0.0,0.0981,0.0,9.7119
5893939335,21.78,0.020245819323134222,0.03515093113516579,0.0,0.0981,0.06867000000000001,9.66285
5898989840,21.78,0.03621558197888234,0.060720004676882725,0.0,0.05886,0.08829,9.74133
5904040345,21.78,0.046879543708567686,0.07990117315630041,-0.002129301687433082,-0.06867000000000001,0.16677000000000003,9.819809999999999
5909090850,21.78,0.06497860805174888,0.06284930636431581,0.0,-0.16677000000000003,0.32373,9.89829
5914141355,21.78,0.06923721142661506,0.054332099614583476,-0.001064650843716541,-0.21582,0.42183,9.97677
5919191860,21.78,0.06923721142661506,0.024504422698000388,0.0,-0.20601000000000003,0.5886,9.97677
5924242365,21.78,0.060720004676882725,0.008517206749732328,0.002129301687433082,-0.22563,0.70632,10.025820000000001
5929292870,21.78,0.03728023282259888,-0.022375121010567305,0.0,-0.15696000000000002,0.7749900000000001,10.01601
5934343375,21.78,0.004258603374866164,-0.04260348704118158,0.001064650843716541,-0.10791,0.75537,9.97677
5939393880,21.78,-0.022375121010567305,-0.07349581480148122,0.001064650843716541,-0.02943,0.72594,10.006200000000002
5944444385,21.78,-0.049008845396000776,-0.08096582400001695,0.001064650843716541,0.17658,0.5886,9.97677
5949494890,21.78,-0.07777187146886733,-0.05752605214573309,0.001064650843716541,0.18639,0.3924,9.94734
5954545395,21.78,-0.0852244273748831,-0.05113814708343386,0.002129301687433082,0.24525000000000002,0.1962,9.98658
5959595900,21.78,-0.08309512568745003,-0.021310470166850764,0.002129301687433082,0.17658,0.07848000000000001,9.92772
5964646405,21.78,-0.060720004676882725,-0.03408628029144926,0.002129301687433082,0.16677000000000003,-0.009810000000000001,9.85905
5969696910,21.78,-0.04260348704118158,-0.0170518667919846,-0.001064650843716541,0.26487,-0.019620000000000002,9.770760000000001
5974747415,21.78,-0.020245819323134222,0.003193952531149623,0.0,0.22563,-0.039240000000000004,9.72171
5979797920,21.78,-0.003193952531149623,0.033021629447732716,0.0,0.27468000000000004,-0.06867000000000001,9.65304
5984848425,21.78,0.021310470166850764,0.06604325889546543,-0.002129301687433082,0.05886,0.019620000000000002,9.7119
5989898930,21.78,0.054332099614583476,0.05326744877086694,-0.001064650843716541,0.009810000000000001,0.12753,9.78057
5994949435,21.78,0.06923721142661506,0.06497860805174888,-0.002129301687433082,-0.019620000000000002,0.27468000000000004,9.819809999999999
5999999940,21.78,0.08096582400001695,0.044732788728614664,0.0,-0.12753,0.45126,9.87867
6005050445,21.78,0.08203047484373349,0.02556907354171693,0.0,-0.06867000000000001,0.59841,9.95715
6010100950,21.78,0.06710790973918197,0.001064650843716541,0.0,-0.12753,0.73575,9.98658
6015151455,21.78,0.04581489286485115,-0.033021629447732716,0.002129301687433082,-0.039240000000000004,0.80442,10.006200000000002
6020201960,21.78,0.013840460968315033,-0.05859070298944965,0.001064650843716541,0.0,0.84366,10.01601
6025252465,21.78,-0.014905111812031574,-0.08841837990603273,0.0,0.21582,0.7651800000000001,9.99639
6030302970,21.78,-0.05220279792715039,-0.05646140130201656,0.002129301687433082,0.34335000000000004,0.60822,10.006200000000002
6035353475,21.78,-0.0756251164889143,-0.03728023282259888,0.001064650843716541,0.33354000000000006,0.40221,10.03563
6040403980,21.78,-0.08948303074974927,-0.02556907354171693,0.003193952531149623,0.31392000000000003,0.21582,9.99639
6045454485,21.78,-0.08628907821859966,-0.0170518667919846,0.002129301687433082,0.28449,0.08829,9.94734
6050504990,21.78,-0.07670722062515077,0.0,0.001064650843716541,0.33354000000000006,-0.04905,9.86886
6055555495,21.78,-0.05220279792715039,0.02982767691658309,-0.002129301687433082,0.25506,-0.10791,9.79038
6060606000,21.78,-0.028763026072866547,0.05859070298944965,-0.001064650843716541,0.22563,-0.20601000000000003,9.70209
6065656505,21.78,-0.001064650843716541,0.09800023749948161,-0.002129301687433082,0.06867000000000001,-0.1962,9.68247
6070707010,21.78,0.044732788728614664,0.10225884087434776,-0.001064650843716541,-0.08829,-0.04905,9.74133
6075757515,21.78,0.07670722062515077,0.10225884087434776,-0.005323254218582705,-0.21582,0.12753,9.751140000000001
6080808020,21.78,0.09693558665576507,0.09161233243718235,-0.002129301687433082,-0.28449,0.28449,9.81
6085858525,21.78,0.09800023749948161,0.07883652231258387,-0.002129301687433082,-0.42183,0.50031,9.87867
6090909030,21.78,0.10012953918691468,0.021310470166850764,-0.002129301687433082,-0.51012,0.7651800000000001,9.937529999999999
6095959535,21.78,0.09161233243718235,-0.02663372438543347,0.001064650843716541,-0.41202000000000005,1.1477700000000002,9.99639
6101010040,21.78,0.06284930636431581,-0.06284930636431581,0.0,-0.38259000000000004,1.01043,10.15335
6106060545,21.78,-0.0404741853537485,-0.11824605682261582,0.0,-0.05886,0.74556,9.92772
6111111050,21.78,-0.04794419455228423,-0.10866419922916695,0.003193952531149623,0.02943,0.8240400000000001,10.074869999999999
6116161555,21.78,-0.05113814708343386,-0.13102186694721432,0.004258603374866164,0.22563,0.63765,10.025820000000001
6121212060,21.78,-0.12144000935376545,-0.10653489754173388,0.003193952531149623,0.37278,0.2943,10.01601
6126262565,21.78,-0.11611675513518273,-0.09480628496833199,0.006387905062299246,0.37278,0.18639,10.006200000000002
6131313070,21.78,-0.10225884087434776,-0.08203047484373349,0.004258603374866164,0.49050000000000005,0.009810000000000001,9.89829
6136363575,21.78,-0.10012953918691468,-0.05007349623971732,0.001064650843716541,0.46107000000000004,-0.1962,9.79038
6141414080,21.78,-0.06178465552059926,-0.021310470166850764,0.001064650843716541,0.51012,-0.18639,9.770760000000001
6146464585,21.78,-0.024504422698000388,0.008517206749732328,0.0,0.45126,-0.20601000000000003,9.66285
6151515090,21.78,-0.004258603374866164,0.03515093113516579,-0.001064650843716541,0.41202000000000005,-0.23544,9.68247
6156565595,21.78,0.04153883619746504,0.07243116395776468,0.0,0.38259000000000004,-0.06867000000000001,9.69228
6161616100,21.78,0.08203047484373349,0.09906488834319814,-0.003193952531149623,0.26487,0.08829,9.7119
6166666605,21.78,0.09161233243718235,0.11292280260403312,-0.002129301687433082,0.15696000000000002,0.26487,9.81
6171717110,21.78,0.09800023749948161,0.12356931104119852,-0.002129301687433082,0.039240000000000004,0.42183,9.86886
6176767615,21.78,0.10438814256178083,0.11611675513518273,-0.005323254218582705,-0.12753,0.57879,9.937529999999999
6181818120,21.78,0.09480628496833199,0.08735372906231618,-0.001064650843716541,-0.18639,0.72594,10.006200000000002
6186868625,21.78,0.07243116395776468,0.07349581480148122,-0.001064650843716541,-0.25506,0.9711900000000001,10.01601
6191919130,21.78,0.049008845396000776,0.05539675045830002,0.0,-0.3924,1.08891,10.26126
6196969635,21.78,-0.006387905062299246,0.0,0.001064650843716541,-0.50031,0.6768900000000001,9.937529999999999
6202020140,21.78,-0.08203047484373349,-0.05326744877086694,0.001064650843716541,-0.22563,0.51012,10.025820000000001
6207070645,21.78,-0.04366813788489812,-0.04581489286485115,0.002129301687433082,-0.20601000000000003,0.5886,10.05525
6212121150,21.78,-0.07030186227033158,-0.0756251164889143,0.0,-0.14715,0.27468000000000004,9.86886
6217171655,21.78,-0.11505210429146619,-0.07883652231258387,0.001064650843716541,-0.05886,0.05886,9.91791
6222222160,21.78,-0.05859070298944965,-0.07883652231258387,0.002129301687433082,-0.009810000000000001,0.16677000000000003,9.86886
6227272665,21.78,-0.049008845396000776,-0.08203047484373349,0.002129301687433082,0.05886,0.009810000000000001,9.80019
6232323170,21.78,-0.05646140130201656,-0.07883652231258387,0.001064650843716541,0.14715,-0.039240000000000004,9.78057
6237373675,21.78,-0.011711159280881954,-0.05859070298944965,0.001064650843716541,0.30411,0.04905,9.770760000000001
6242424180,21.78,0.01064650843716541,-0.028763026072866547,0.002129301687433082,0.27468000000000004,0.05886,9.760950000000001
6247474685,21.78,0.01918116847941768,-0.024504422698000388,0.0,0.28449,0.15696000000000002,9.79038
6252525190,21.78,0.04366813788489812,0.003193952531149623,-0.001064650843716541,0.43164,0.27468000000000004,9.81
6257575695,21.78,0.039409534510031964,0.046879543708567686,-0.001064650843716541,0.30411,0.26487,9.84924
6262626200,21.78,0.03621558197888234,0.05113814708343386,-0.001064650843716541,0.1962,0.37278,9.87867
6267676705,21.78,0.05326744877086694,0.04581489286485115,-0.001064650843716541,0.15696000000000002,0.52974,9.92772
6272727210,21.78,0.04366813788489812,0.05220279792715039,0.0,0.1962,0.51012,9.95715
6277777715,21.78,0.01918116847941768,0.04260348704118158,0.0,0.0,0.50031,9.94734
6282828220,21.78,0.01918116847941768,0.004258603374866164,0.001064650843716541,-0.019620000000000002,0.5886,10.074869999999999
6287878725,21.78,0.00958185759344887,-0.01811651763570114,-0.001064650843716541,0.08829,0.5886,9.97677
6292929230,21.78,-0.01064650843716541,-0.020245819323134222,0.0,0.16677000000000003,0.52974,9.94734
6297979735,21.78,-0.02663372438543347,-0.01064650843716541,-0.001064650843716541,0.17658,0.47088,9.95715
6303030240,21.78,-0.04366813788489812,-0.001064650843716541,0.001064650843716541,0.1962,0.33354000000000006,9.83943
6308080745,21.78,-0.05326744877086694,0.015987215948268057,0.001064650843716541,0.16677000000000003,0.22563,9.85905
6313131250,21.78,-0.03621558197888234,0.028763026072866547,0.0,0.08829,0.13734000000000002,9.86886
6318181755,21.78,-0.03089232776029963,0.04153883619746504,-0.001064650843716541,0.019620000000000002,0.039240000000000004,9.82962
6323232260,21.78,-0.021310470166850764,0.05326744877086694,0.0,-0.04905,-0.019620000000000002,9.83943
6328282765,21.78,0.0,0.06817256058289851,-0.001064650843716541,-0.0981,0.0,9.819809999999999
6333333270,21.78,0.02663372438543347,0.07777187146886733,-0.001064650843716541,-0.25506,0.0981,9.80019
6338383775,21.78,0.044732788728614664,0.05646140130201656,-0.002129301687433082,-0.38259000000000004,0.22563,9.81
6343434280,21.78,0.05752605214573309,0.03834488366631542,-0.001064650843716541,-0.31392000000000003,0.31392000000000003,9.78057
6348484785,21.78,0.05752605214573309,0.028763026072866547,0.0,-0.41202000000000005,0.47088,9.83943
6353535290,21.78,0.06497860805174888,-0.024504422698000388,0.002129301687433082,-0.43164,0.60822,9.89829
6358585795,21.78,0.05220279792715039,-0.05752605214573309,0.0,-0.2943,0.73575,9.92772
6363636300,21.78,0.028763026072866547,-0.11292280260403312,0.002129301687433082,-0.17658,0.7848,10.01601
6368686805,21.78,-0.006387905062299246,-0.1352804703220805,0.004258603374866164,0.02943,0.7848,10.06506
6373737310,21.78,-0.028763026072866547,-0.1672549022186166,0.004258603374866164,0.14715,0.79461,10.045440000000001
6378787815,21.78,-0.05326744877086694,-0.18641861740551433,0.004258603374866164,0.52974,0.6768900000000001,10.01601
6383838320,21.78,-0.09161233243718235,-0.14381513036433274,0.005323254218582705,0.75537,0.51012,9.96696
6388888825,21.78,-0.11079350091660004,-0.10759954838545042,0.004258603374866164,0.7651800000000001,0.24525000000000002,9.92772
6393939330,21.78,-0.11505210429146619,-0.06817256058289851,0.004258603374866164,0.86328,0.02943,9.888480000000001
6398989835,21.78,-0.09693558665576507,-0.01918116847941768,0.001064650843716541,0.9221400000000001,-0.13734000000000002,9.84924
6404040340,21.78,-0.07883652231258387,0.07136651311404815,0.0,0.8829,-0.32373,9.81
6409090845,21.78,-0.049008845396000776,0.1278279144160647,-0.001064650843716541,0.57879,-0.46107000000000004,9.7119
6414141350,21.78,-0.004258603374866164,0.16938420390604966,-0.003193952531149623,0.3924,-0.42183,9.73152
6419191855,21.78,0.05220279792715039,0.2162462943220974,-0.003193952531149623,0.14715,-0.27468000000000004,9.69228
6424242360,21.78,0.10119419003063122,0.25139722545726323,-0.007452555906015787,-0.12753,-0.13734000000000002,9.633420000000001
6429292865,21.78,0.13421581947836395,0.23862141533266473,-0.006387905062299246,-0.57879,0.11772,9.69228
6434343370,21.78,0.1555262896452147,0.18748326824923087,-0.004258603374866164,-0.69651,0.9221400000000001,9.80019
6439393875,21.78,0.20879373841608162,0.18748326824923087,-0.003193952531149623,-1.3537800000000002,2.17782,10.418220000000002
6444444380,21.78,0.17257815643719931,0.015987215948268057,0.0,-2.00124,1.65789,10.13373
6449494885,21.78,-0.15233233711406508,-0.20666443672864854,0.004258603374866164,-1.0987200000000001,0.22563,10.06506
6454545390,21.78,-0.1629788455512305,-0.19921188082263275,0.004258603374866164,-0.28449,0.38259000000000004,9.67266
6459595895,21.78,0.012775810124598492,-0.20772908757236508,0.008517206749732328,-0.33354000000000006,0.70632,9.94734
6464646400,21.78,-0.09480628496833199,-0.30466467422813015,0.006387905062299246,-0.07848000000000001,0.16677000000000003,10.045440000000001
6469696905,21.78,-0.1331511686346474,-0.300406070853264,0.006387905062299246,0.56898,0.21582,9.99639
6474747410,21.78,-0.03515093113516579,-0.23862141533266473,0.007452555906015787,0.80442,0.41202000000000005,9.99639
6479797915,21.78,-0.08203047484373349,-0.2151816434783809,0.007452555906015787,0.9810000000000001,0.06867000000000001,9.94734
6484848420,21.78,-0.09267698328089889,-0.16831955306233315,0.004258603374866164,1.22625,0.039240000000000004,9.760950000000001
6489898925,21.78,-0.028763026072866547,-0.07883652231258387,0.003193952531149623,1.45188,0.11772,9.78057
6494949430,21.78,-0.05220279792715039,0.02982767691658309,0.003193952531149623,1.29492,-0.13734000000000002,9.70209
6499999935,21.78,-0.0404741853537485,0.07883652231258387,-0.002129301687433082,1.20663,-0.1962,9.633420000000001
6505050440,21.78,0.015987215948268057,0.18216001403064813,-0.004258603374866164,1.1477700000000002,-0.0981,9.69228
6510100945,21.78,0.0404741853537485,0.2705783939366809,-0.006387905062299246,0.7651800000000001,-0.21582,9.69228
6515151450,21.78,0.05539675045830002,0.3227811918638313,-0.007452555906015787,0.31392000000000003,-0.20601000000000003,9.74133
6520201955,21.78,0.09587093581204853,0.3398156053632959,-0.008517206749732328,-0.11772,-0.0981,9.86886
6525252460,21.78,0.12569861272863161,0.341944907050729,-0.007452555906015787,-0.51993,0.039240000000000004,9.908100000000001
6530302965,21.78,0.15872024217636432,0.2961474674783978,-0.00958185759344887,-0.9810000000000001,1.4813100000000001,9.92772
6535353470,21.78,0.2620611871869486,0.2620611871869486,-0.004258603374866164,-2.1582000000000003,2.4721200000000003,11.43846
6540403975,21.78,0.03834488366631542,-0.001064650843716541,0.0,-2.27592,1.02024,9.54513
6545454480,21.78,-0.24607397123868052,-0.15446163880149816,0.003193952531149623,-1.34397,-0.22563,9.95715
6550504985,21.78,-0.10119419003063122,-0.2162462943220974,0.005323254218582705,-0.89271,0.37278,9.70209
6555555490,21.78,0.020245819323134222,-0.2769662989989801,0.005323254218582705,-0.5493600000000001,0.36297,9.67266
6560605995,21.78,-0.11505210429146619,-0.31744048435272865,0.006387905062299246,-0.20601000000000003,-0.12753,9.84924
6565656500,21.78,-0.07136651311404815,-0.3344923511447132,0.007452555906015787,0.20601000000000003,0.27468000000000004,10.11411
6570707005,21.78,0.023439771854283843,-0.3355570019884298,0.008517206749732328,0.73575,0.51012,9.92772
6575757510,21.78,-0.04581489286485115,-0.28016025153012974,0.008517206749732328,1.13796,0.2943,9.99639
6580808015,21.78,-0.05113814708343386,-0.20666443672864854,0.005323254218582705,1.43226,0.41202000000000005,9.85905
6585858520,21.78,-0.021310470166850764,-0.10653489754173388,0.0,1.5696,0.36297,9.73152
6590909025,21.78,-0.06178465552059926,-0.001064650843716541,0.0,1.6677000000000002,0.07848000000000001,9.70209
6595959530,21.78,-0.06178465552059926,0.13849187614575004,0.0,1.43226,-0.02943,9.7119
6601010035,21.78,-0.01811651763570114,0.21198769094723127,-0.007452555906015787,1.05948,-0.14715,9.7119
6606060540,21.78,-0.020245819323134222,0.28761280743614553,-0.006387905062299246,0.8142300000000001,-0.37278,9.7119
6611111045,21.78,0.0170518667919846,0.34620351042559516,-0.006387905062299246,0.21582,-0.36297,9.79038
6616161550,21.78,0.09800023749948161,0.3195872393326817,-0.00958185759344887,-0.30411,-0.14715,9.83943
6621212055,21.78,0.12995721610349775,0.27270769562411395,-0.007452555906015787,-0.60822,0.04905,9.83943
6626262560,21.78,0.150203035426632,0.22263419938439669,-0.003193952531149623,-0.7749900000000001,0.63765,9.908100000000001
6631313065,21.78,0.19067722078038052,0.17364280728091586,-0.005323254218582705,-1.2753,2.01105,10.05525
6636363570,21.78,0.2151816434783809,0.03515093113516579,-0.002129301687433082,-1.9816200000000002,2.01105,10.48689
6641414075,21.78,-0.08628907821859966,-0.16404349639494703,0.003193952531149623,-1.20663,0.52974,9.91791
6646464580,21.78,-0.1832246648743647,-0.15872024217636432,0.004258603374866164,-0.42183,0.23544,9.60399
6651515085,21.78,-0.033021629447732716,-0.1704488547497662,0.006387905062299246,-0.38259000000000004,0.60822,10.03563
6656565590,21.78,-0.0756251164889143,-0.2151816434783809,0.005323254218582705,-0.20601000000000003,0.08829,9.98658
6661616095,21.78,-0.14062117783318315,-0.23010420858293237,0.007452555906015787,0.12753,0.0,10.006200000000002
6666666600,21.78,-0.04260348704118158,-0.21198769094723127,0.006387905062299246,0.42183,0.23544,10.19259
6671717105,21.78,-0.04581489286485115,-0.1800307123432151,0.005323254218582705,0.60822,0.06867000000000001,9.87867
6676767610,21.78,-0.07243116395776468,-0.14275047952061623,0.004258603374866164,0.8240400000000001,0.019620000000000002,9.760950000000001
6681818115,21.78,-0.011711159280881954,-0.06923721142661506,0.001064650843716541,0.94176,0.16677000000000003,9.760950000000001
6686868620,21.78,-0.002129301687433082,-0.01064650843716541,0.0,0.90252,0.07848000000000001,9.623610000000001
6691919125,21.78,-0.01811651763570114,0.04260348704118158,0.0,0.87309,0.0,9.65304
6696969630,21.78,0.011711159280881954,0.10653489754173388,-0.001064650843716541,0.6670800000000001,0.04905,9.72171
6702020135,21.78,0.03621558197888234,0.12037535851004891,-0.002129301687433082,0.50031,0.05886,9.70209
6707070640,21.78,0.05007349623971732,0.1374272253020335,-0.003193952531149623,0.34335000000000004,0.15696000000000002,9.85905
6712121145,21.78,0.07243116395776468,0.12676326357234816,-0.006387905062299246,0.21582,0.26487,9.86886
6717171650,21.78,0.07349581480148122,0.13208651779093086,-0.003193952531149623,0.0981,0.37278,9.89829
6722222155,21.78,0.07670722062515077,0.12144000935376545,-0.002129301687433082,-0.05886,0.50031,9.95715
6727272660,21.78,0.07349581480148122,0.11079350091660004,-0.005323254218582705,-0.10791,0.57879,9.94734
6732323165,21.78,0.05220279792715039,0.11079350091660004,-0.002129301687433082,-0.20601000000000003,0.60822,10.006200000000002
6737373670,21.78,0.02769837522915001,0.10332349171806432,0.0,-0.2943,0.70632,10.006200000000002
6742424175,21.78,0.02663372438543347,0.09587093581204853,0.0,-0.60822,0.87309,10.17297
6747474680,21.78,0.0,0.01811651763570114,0.0,-0.69651,0.5493600000000001,9.96696
6752525185,21.78,-0.07243116395776468,-0.0170518667919846,0.001064650843716541,-0.42183,0.2943,9.97677
6757575690,21.78,-0.0404741853537485,-0.020245819323134222,0.001064650843716541,-0.48069000000000006,0.3924,10.006200000000002
6762626195,21.78,-0.033021629447732716,-0.06923721142661506,0.001064650843716541,-0.44145,0.21582,9.80019
6767676700,21.78,-0.06710790973918197,-0.07990117315630041,0.001064650843716541,-0.33354000000000006,0.11772,9.91791
6772727205,21.78,-0.02769837522915001,-0.10759954838545042,0.001064650843716541,-0.30411,0.24525000000000002,9.86886
6777777710,21.78,-0.012775810124598492,-0.1288925652597812,0.001064650843716541,-0.0981,0.22563,9.85905
6782828215,21.78,-0.023439771854283843,-0.14381513036433274,0.005323254218582705,0.02943,0.25506,9.83943
6787878720,21.78,-0.001064650843716541,-0.15765559133264778,0.004258603374866164,0.23544,0.3924,9.86886
6792929225,21.78,0.005323254218582705,-0.16938420390604966,0.004258603374866164,0.43164,0.48069000000000006,9.84924
6797979730,21.78,-0.020245819323134222,-0.15765559133264778,0.004258603374866164,0.72594,0.43164,9.86886
6803030235,21.78,-0.02769837522915001,-0.11505210429146619,0.001064650843716541,0.90252,0.44145,9.85905
6808080740,21.78,-0.02769837522915001,-0.06923721142661506,0.001064650843716541,1.03005,0.35316,9.84924
6813131245,21.78,-0.03621558197888234,0.00958185759344887,0.001064650843716541,1.06929,0.25506,9.85905
6818181750,21.78,-0.03515093113516579,0.07990117315630041,-0.001064650843716541,0.9711900000000001,0.10791,9.81
6823232255,21.78,-0.02982767691658309,0.15339698795778162,-0.004258603374866164,0.7749900000000001,-0.02943,9.80019
6828282760,21.78,-0.015987215948268057,0.20559978588493202,-0.003193952531149623,0.41202000000000005,-0.14715,9.84924
6833333265,21.78,0.011711159280881954,0.22582815191554628,-0.005323254218582705,0.11772,-0.15696000000000002,9.819809999999999
6838383770,21.78,0.04581489286485115,0.22903955773921586,-0.006387905062299246,-0.18639,-0.07848000000000001,9.82962
6843434275,21.78,0.0756251164889143,0.20772908757236508,-0.006387905062299246,-0.43164,0.0,9.83943
6848484780,21.78,0.09906488834319814,0.18428931571808121,-0.005323254218582705,-0.6278400000000001,0.21582,9.81
6853535285,21.78,0.12037535851004891,0.14275047952061623,-0.003193952531149623,-0.8240400000000001,1.13796,9.82962
6858585790,21.78,0.16510814723866357,0.11611675513518273,0.001064650843716541,-1.4715,1.68732,10.63404
6863636295,21.78,0.02556907354171693,-0.06178465552059926,0.002129301687433082,-1.52055,0.79461,9.64323
6868686800,21.78,-0.13955652698946658,-0.16831955306233315,0.004258603374866164,-0.73575,0.1962,9.888480000000001
6873737305,21.78,-0.046879543708567686,-0.177901410655782,0.003193952531149623,-0.41202000000000005,0.59841,10.025820000000001
6878787810,21.78,-0.01064650843716541,-0.23862141533266473,0.007452555906015787,-0.32373,0.47088,9.83943
6883838315,21.78,-0.10119419003063122,-0.2950828166346813,0.005323254218582705,0.10791,0.22563,10.09449
6888888820,21.78,-0.06178465552059926,-0.28016025153012974,0.006387905062299246,0.5395500000000001,0.44145,10.15335
6893939325,21.78,-0.03621558197888234,-0.258867234655799,0.004258603374866164,0.8240400000000001,0.41202000000000005,9.908100000000001
6898989830,21.78,-0.08948303074974927,-0.2151816434783809,0.005323254218582705,1.1870100000000001,0.22563,9.91791
6904040335,21.78,-0.07883652231258387,-0.11292280260403312,0.0,1.41264,0.17658,9.78057
6909090840,21.78,-0.06178465552059926,-0.01064650843716541,0.0,1.31454,0.019620000000000002,9.67266
6914141345,21.78,-0.07030186227033158,0.07136651311404815,-0.002129301687433082,1.2360600000000002,-0.21582,9.73152
6919191850,21.78,-0.03621558197888234,0.16510814723866357,-0.002129301687433082,1.04967,-0.31392000000000003,9.67266
6924242355,21.78,0.00958185759344887,0.2524618763009797,-0.006387905062299246,0.64746,-0.33354000000000006,9.69228
6929292860,21.78,0.039409534510031964,0.27909560068641326,-0.005323254218582705,0.26487,-0.30411,9.70209
6934343365,21.78,0.0852244273748831,0.28761280743614553,-0.006387905062299246,-0.019620000000000002,-0.20601000000000003,9.73152
6939393870,21.78,0.1331511686346474,0.2886949115723821,-0.007452555906015787,-0.38259000000000004,0.039240000000000004,9.78057
6944444375,21.78,0.15659094048893124,0.2556558288321294,-0.006387905062299246,-0.69651,0.52974,9.819809999999999
6949494880,21.78,0.17257815643719931,0.19600047499896323,-0.006387905062299246,-1.10853,1.9620000000000002,9.937529999999999
6954545385,21.78,0.23116885942664894,0.13102186694721432,0.0,-2.00124,2.17782,10.947960000000002
6959595890,21.78,-0.06604325889546543,-0.11611675513518273,0.002129301687433082,-1.73637,0.5395500000000001,9.72171
6964646395,21.78,-0.2151816434783809,-0.2183755960095305,0.004258603374866164,-0.70632,0.07848000000000001,9.64323
6969696900,21.78,-0.02663372438543347,-0.2205048976969636,0.005323254218582705,-0.43164,0.69651,10.15335
6974747405,21.78,-0.04366813788489812,-0.29188886410353165,0.007452555906015787,-0.23544,0.17658,9.82962
6979797910,21.78,-0.1555262896452147,-0.3270397952386975,0.008517206749732328,0.30411,0.04905,9.95715
6984848415,21.78,-0.03621558197888234,-0.30998792844671286,0.007452555906015787,0.71613,0.42183,10.2024
6989898920,21.78,-0.04581489286485115,-0.26099653634323206,0.004258603374866164,1.13796,0.22563,9.819809999999999
6994949425,21.78,-0.10653489754173388,-0.16191419470751395,0.005323254218582705,1.43226,0.0,9.81
6999999930,21.78,-0.05220279792715039,-0.05007349623971732,0.002129301687433082,1.44207,0.04905,9.81
7005050435,21.78,-0.03834488366631542,0.05007349623971732,0.0,1.3047300000000002,-0.0981,9.633420000000001
7010100940,21.78,-0.04153883619746504,0.1374272253020335,-0.001064650843716541,1.19682,-0.30411,9.68247
7015151445,21.78,0.005323254218582705,0.23755676448894822,-0.004258603374866164,0.86328,-0.24525000000000002,9.73152
7020201950,21.78,0.05007349623971732,0.28548350574871245,-0.007452555906015787,0.40221,-0.26487,9.64323
7025252455,21.78,0.07136651311404815,0.300406070853264,-0.006387905062299246,0.07848000000000001,-0.18639,9.770760000000001
7030302960,21.78,0.12144000935376545,0.30998792844671286,-0.008517206749732328,-0.25506,0.04905,9.770760000000001
7035353465,21.78,0.15446163880149816,0.28335420406127937,-0.008517206749732328,-0.6768900000000001,0.24525000000000002,9.81
7040403970,21.78,0.15446163880149816,0.21411699263466438,-0.004258603374866164,-0.90252,1.5990300000000002,9.89829
7045454475,21.78,0.23329816111408203,0.19067722078038052,-0.003193952531149623,-1.9227600000000002,2.2955400000000004,11.252070000000002
7050504980,21.78,0.014905111812031574,-0.06284930636431581,0.001064650843716541,-1.9914300000000003,0.89271,9.54513
7055555485,21.78,-0.22582815191554628,-0.21411699263466438,0.005323254218582705,-0.94176,-0.009810000000000001,9.888480000000001
7060605990,21.78,-0.07030186227033158,-0.22263419938439669,0.005323254218582705,-0.5395500000000001,0.6180300000000001,10.006200000000002
7065656495,21.78,-0.003193952531149623,-0.30466467422813015,0.005323254218582705,-0.28449,0.45126,9.69228
7070707000,21.78,-0.14913838458291545,-0.34088025620701246,0.00958185759344887,0.21582,0.05886,9.99639
7075757505,21.78,-0.08415977653116657,-0.328104446082414,0.007452555906015787,0.6768900000000001,0.40221,10.182780000000001
7080808010,21.78,-0.03621558197888234,-0.26738444140553125,0.006387905062299246,1.10853,0.2943,9.87867
7085858515,21.78,-0.10759954838545042,-0.17896606149949854,0.005323254218582705,1.3635900000000003,-0.039240000000000004,9.86886
7090909020,21.78,-0.07670722062515077,-0.05965535383316618,0.004258603374866164,1.46169,0.009810000000000001,9.819809999999999
7095959525,21.78,-0.02982767691658309,0.0404741853537485,0.0,1.31454,-0.07848000000000001,9.633420000000001
7101010030,21.78,-0.044732788728614664,0.12676326357234816,-0.004258603374866164,1.19682,-0.33354000000000006,9.69228
7106060535,21.78,-0.00958185759344887,0.23755676448894822,-0.004258603374866164,0.9123300000000001,-0.30411,9.67266
7111111040,21.78,0.04794419455228423,0.2844188549049959,-0.007452555906015787,0.44145,-0.2943,9.67266
7116161545,21.78,0.06710790973918197,0.3089232776029963,-0.008517206749732328,0.07848000000000001,-0.25506,9.7119
7121212050,21.78,0.1171814059788993,0.3227811918638313,-0.00958185759344887,-0.31392000000000003,-0.02943,9.80019
7126262555,21.78,0.15446163880149816,0.29188886410353165,-0.005323254218582705,-0.74556,0.1962,9.760950000000001
7131313060,21.78,0.16831955306233315,0.21198769094723127,-0.006387905062299246,-1.03986,1.60884,9.86886
7136363565,21.78,0.2556558288321294,0.16510814723866357,0.0,-1.9914300000000003,2.39364,11.24226
7141414070,21.78,0.022375121010567305,-0.10438814256178083,0.001064650843716541,-1.9620000000000002,0.8829,9.496080000000001
7146464575,21.78,-0.2279749068954993,-0.2599318854995155,0.006387905062299246,-0.8142300000000001,0.04905,9.87867
7151515080,21.78,-0.054332099614583476,-0.26312583803066514,0.007452555906015787,-0.38259000000000004,0.86328,10.15335
7156565585,21.78,-0.022375121010567305,-0.3430095578944456,0.008517206749732328,-0.039240000000000004,0.47088,9.72171
7161616090,21.78,-0.1800307123432151,-0.3515442179366978,0.00958185759344887,0.50031,0.04905,10.006200000000002
7166666595,21.78,-0.08628907821859966,-0.30998792844671286,0.006387905062299246,0.9613800000000001,0.42183,10.25145
7171717100,21.78,-0.060720004676882725,-0.22689280275926285,0.005323254218582705,1.3537800000000002,0.15696000000000002,9.82962
7176767605,21.78,-0.13634512116579703,-0.12356931104119852,0.004258603374866164,1.3832099999999998,-0.13734000000000002,9.89829
7181818110,21.78,-0.0756251164889143,-0.023439771854283843,0.0,1.5696,-0.12753,9.819809999999999
7186868615,21.78,-0.03728023282259888,0.12037535851004891,-0.001064650843716541,1.31454,-0.31392000000000003,9.64323
7191919120,21.78,-0.04581489286485115,0.19280652246781357,-0.006387905062299246,1.03986,-0.51993,9.64323
7196969625,21.78,0.013840460968315033,0.31531118266529556,-0.005323254218582705,0.74556,-0.43164,9.66285
7202020130,21.78,0.08415977653116657,0.3600614246864302,-0.008517206749732328,0.05886,-0.36297,9.60399
7207070635,21.78,0.11824605682261582,0.3387509545195794,-0.008517206749732328,-0.30411,-0.21582,9.70209
7212121140,21.78,0.16938420390604966,0.3238458427075478,-0.007452555906015787,-0.71613,0.12753,9.770760000000001
7217171645,21.78,0.20666443672864854,0.24713862208239704,-0.003193952531149623,-1.06929,1.50093,9.80019
7222222150,21.78,0.286548156592429,0.19921188082263275,-0.003193952531149623,-2.07972,2.62908,11.320739999999999
7227272655,21.78,0.09693558665576507,-0.09693558665576507,0.003193952531149623,-2.1974400000000003,1.3243500000000001,9.45684
7232323160,21.78,-0.2343628119577986,-0.27590164815526363,0.006387905062299246,-0.9613800000000001,0.07848000000000001,10.074869999999999
7237373665,21.78,-0.09693558665576507,-0.28975956241609857,0.005323254218582705,-0.2943,0.8142300000000001,9.937529999999999
7242424170,21.78,0.015987215948268057,-0.3323630494572802,0.007452555906015787,-0.07848000000000001,0.74556,9.70209
7247474675,21.78,-0.17470745812463237,-0.37496653649846173,0.008517206749732328,0.41202000000000005,0.05886,10.12392
7252525180,21.78,-0.14275047952061623,-0.328104446082414,0.01064650843716541,1.01043,0.30411,10.15335
7257575685,21.78,-0.05326744877086694,-0.23862141533266473,0.007452555906015787,1.21644,0.30411,9.937529999999999
7262626190,21.78,-0.14275047952061623,-0.17896606149949854,0.005323254218582705,1.43226,-0.20601000000000003,10.01601
7267676695,21.78,-0.11292280260403312,-0.054332099614583476,0.002129301687433082,1.5990300000000002,-0.1962,9.78057
7272727200,21.78,-0.033021629447732716,0.07030186227033158,-0.001064650843716541,1.51074,-0.25506,9.623610000000001
7277777705,21.78,-0.05220279792715039,0.20347048419749894,-0.006387905062299246,1.1870100000000001,-0.56898,9.65304
7282828210,21.78,-0.001064650843716541,0.28761280743614553,-0.004258603374866164,0.84366,-0.52974,9.57456
7287878715,21.78,0.08203047484373349,0.36751398059244594,-0.008517206749732328,0.35316,-0.41202000000000005,9.58437
7292929220,21.78,0.11185815176031658,0.3781604890296114,-0.006387905062299246,-0.25506,-0.34335000000000004,9.66285
7297979725,21.78,0.15978489302008084,0.35473817046784745,-0.007452555906015787,-0.6180300000000001,0.0,9.73152
7303030230,21.78,0.21411699263466438,0.29401816579096474,-0.005323254218582705,-1.02024,1.22625,9.84924
7308080735,21.78,0.286548156592429,0.26738444140553125,-0.004258603374866164,-1.85409,2.7075600000000004,10.947960000000002
7313131240,21.78,0.18854791909294744,0.02556907354171693,0.002129301687433082,-2.7271800000000006,1.88352,9.81
7318181745,21.78,-0.20559978588493202,-0.27483699731154704,0.004258603374866164,-1.49112,0.11772,10.212209999999999
7323232250,21.78,-0.19067722078038052,-0.2822895532175628,0.006387905062299246,-0.48069000000000006,0.41202000000000005,9.47646
7328282755,21.78,0.02982767691658309,-0.3206518901763982,0.00958185759344887,-0.3924,0.86328,9.87867
7333333260,21.78,-0.12569861272863161,-0.3898891016030132,0.01064650843716541,0.13734000000000002,-0.009810000000000001,10.025820000000001
7338383765,21.78,-0.15872024217636432,-0.37496653649846173,0.008517206749732328,0.6768900000000001,0.25506,10.05525
7343434270,21.78,-0.02663372438543347,-0.3430095578944456,0.00958185759344887,1.22625,0.41202000000000005,10.05525
7348484775,21.78,-0.10545279340549739,-0.24075071702009782,0.003193952531149623,1.49112,-0.009810000000000001,10.05525
7353535280,21.78,-0.11931070766633237,-0.15446163880149816,0.003193952531149623,1.79523,-0.06867000000000001,9.74133
7358585785,21.78,-0.04581489286485115,0.013840460968315033,0.0,1.78542,-0.05886,9.751140000000001
