#timestamp [ns], temperature [degC], w_RS_S_x [rad s^-1], w_RS_S_y [rad s^-1], w_RS_S_z [rad s^-1], a_RS_S_x [m s^-2], a_RS_S_y [m s^-2], a_RS_S_z [m s^-2]
0,22.22,0.0,0.0,0.0,0.57879,-0.13734000000000002,9.80019
5050505,22.22,0.0,0.0,0.0,0.57879,-0.16677000000000003,9.80019
10101010,22.22,0.0,0.0,0.0,0.60822,-0.15696000000000002,9.81
15151515,22.22,0.0,0.0,0.0,0.57879,-0.12753,9.83943
20202020,22.22,0.0,0.0,0.0,0.57879,-0.14715,9.819809999999999
25252525,22.22,0.0,0.0,0.0,0.60822,-0.13734000000000002,9.80019
30303030,22.22,0.0,0.0,0.0,0.5886,-0.16677000000000003,9.79038
35353535,22.22,0.0,0.0,0.0,0.5886,-0.17658,9.79038
40404040,22.22,0.0,0.0,0.0,0.57879,-0.15696000000000002,9.81
45454545,22.22,0.0,0.0,0.0,0.57879,-0.15696000000000002,9.82962
50505050,22.22,0.0,0.0,0.0,0.60822,-0.15696000000000002,9.81
55555555,22.22,0.0,0.0,0.0,0.60822,-0.17658,9.81
60606060,22.22,0.0,0.0,0.0,0.5886,-0.12753,9.81
65656565,22.22,0.0,0.0,0.0,0.57879,-0.14715,9.80019
70707070,22.22,0.0,0.0,0.0,0.59841,-0.12753,9.81
75757575,22.22,0.0,0.0,0.0,0.5886,-0.12753,9.819809999999999
80808080,22.22,0.0,0.0,0.0,0.59841,-0.16677000000000003,9.82962
85858585,22.22,0.0,0.0,0.0,0.60822,-0.15696000000000002,9.819809999999999
90909090,22.22,0.0,0.0,0.0,0.60822,-0.13734000000000002,9.770760000000001
95959595,22.22,0.0,0.0,0.0,0.5886,-0.12753,9.81
101010100,22.22,0.0,0.0,0.0,0.60822,-0.14715,9.84924
106060605,22.22,0.0,0.0,0.0,0.60822,-0.14715,9.84924
111111110,22.22,0.0,0.0,0.0,0.57879,-0.14715,9.80019
116161615,22.22,0.0,0.0,0.0,0.59841,-0.15696000000000002,9.78057
121212120,22.22,0.0,0.0,0.0,0.57879,-0.15696000000000002,9.79038
126262625,22.22,0.0,0.0,0.0,0.6180300000000001,-0.15696000000000002,9.83943
131313130,22.22,0.0,0.0,0.0,0.5591700000000001,-0.14715,9.86886
136363635,22.22,0.0,0.0,0.0,0.5886,-0.14715,9.819809999999999
141414140,22.22,0.0,0.0,0.0,0.56898,-0.15696000000000002,9.751140000000001
146464645,22.22,0.0,0.0,0.0,0.60822,-0.14715,9.81
151515150,22.22,0.0,0.0,0.0,0.5886,-0.15696000000000002,9.81
156565655,22.22,0.0,0.0,0.0,0.59841,-0.17658,9.83943
161616160,22.22,0.0,0.0,0.0,0.60822,-0.11772,9.78057
166666665,22.22,0.0,0.0,0.0,0.59841,-0.15696000000000002,9.78057
171717170,22.22,0.0,0.0,0.0,0.5886,-0.15696000000000002,9.80019
176767675,22.22,0.0,0.0,0.0,0.60822,-0.15696000000000002,9.83943
181818180,22.22,0.0,0.0,0.0,0.5886,-0.18639,9.84924
186868685,22.22,0.0,0.0,0.0,0.59841,-0.15696000000000002,9.81
191919190,22.22,0.0,0.0,0.0,0.5886,-0.14715,9.78057
196969695,22.22,0.0,0.0,0.0,0.56898,-0.15696000000000002,9.770760000000001
202020200,22.22,0.0,0.0,0.0,0.5886,-0.15696000000000002,9.81
207070705,22.22,0.0,0.0,0.0,0.57879,-0.16677000000000003,9.83943
212121210,22.22,0.0,0.0,0.0,0.5886,-0.14715,9.819809999999999
217171715,22.22,0.0,0.0,0.0,0.5886,-0.14715,9.82962
222222220,22.22,0.0,0.0,0.0,0.59841,-0.12753,9.79038
227272725,22.22,0.0,0.0,0.0,0.56898,-0.14715,9.78057
232323230,22.22,0.0,0.0,0.0,0.57879,-0.14715,9.84924
237373735,22.22,0.0,0.0,0.0,0.5886,-0.13734000000000002,9.81
242424240,22.22,0.0,0.0,0.0,0.59841,-0.13734000000000002,9.79038
247474745,22.22,0.0,0.0,0.0,0.59841,-0.14715,9.80019
252525250,22.22,0.0,0.0,0.0,0.60822,-0.16677000000000003,9.82962
257575755,22.22,0.0,0.0,0.0,0.59841,-0.15696000000000002,9.819809999999999
262626260,22.22,0.0,0.0,0.0,0.59841,-0.14715,9.80019
267676765,22.22,0.0,0.0,0.0,0.57879,-0.14715,9.770760000000001
272727270,22.22,0.0,0.0,0.0,0.60822,-0.17658,9.81
277777775,22.22,0.0,0.0,0.0,0.56898,-0.15696000000000002,9.819809999999999
282828280,22.22,0.0,0.0,0.0,0.57879,-0.14715,9.81
287878785,22.22,0.0,0.0,0.0,0.57879,-0.14715,9.81
292929290,22.22,0.0,0.0,0.0,0.56898,-0.13734000000000002,9.81
297979795,22.22,0.0,0.0,0.0,0.59841,-0.13734000000000002,9.819809999999999
303030300,22.22,0.0,0.0,0.0,0.57879,-0.13734000000000002,9.80019
308080805,22.22,0.0,0.0,0.0,0.57879,-0.14715,9.80019
313131310,22.22,0.0,0.0,0.0,0.5886,-0.16677000000000003,9.81
318181815,22.22,0.0,0.0,0.0,0.59841,-0.13734000000000002,9.83943
323232320,22.22,0.0,0.0,0.0,0.59841,-0.13734000000000002,9.82962
328282825,22.22,0.0,0.0,0.0,0.5886,-0.17658,9.78057
333333330,22.22,0.0,0.0,0.0,0.56898,-0.16677000000000003,9.760950000000001
338383835,22.22,0.0,0.0,0.0,0.56898,-0.15696000000000002,9.80019
343434340,22.22,0.0,0.0,0.0,0.57879,-0.14715,9.83943
348484845,22.22,0.0,0.0,0.0,0.59841,-0.13734000000000002,9.83943
353535350,22.22,0.0,0.0,0.0,0.60822,-0.13734000000000002,9.81
358585855,22.22,0.0,0.0,0.0,0.59841,-0.16677000000000003,9.73152
363636360,22.22,0.0,0.0,0.0,0.5886,-0.16677000000000003,9.78057
368686865,22.22,0.0,0.0,0.0,0.56898,-0.15696000000000002,9.83943
373737370,22.22,0.0,0.0,0.0,0.60822,-0.14715,9.85905
378787875,22.22,0.0,0.0,0.0,0.57879,-0.13734000000000002,9.81
383838380,22.22,0.0,0.0,0.0,0.56898,-0.16677000000000003,9.81
388888885,22.22,0.0,0.0,0.0,0.5886,-0.16677000000000003,9.770760000000001
393939390,22.22,0.0,0.0,0.0,0.5886,-0.12753,9.81
398989895,22.22,0.0,0.0,0.0,0.5886,-0.14715,9.81
404040400,22.22,0.0,0.0,0.0,0.57879,-0.14715,9.80019
409090905,22.22,0.0,0.0,0.0,0.56898,-0.15696000000000002,9.79038
414141410,22.22,0.0,0.0,0.0,0.5886,-0.15696000000000002,9.80019
419191915,22.22,0.0,0.0,0.0,0.5591700000000001,-0.15696000000000002,9.80019
424242420,22.22,0.0,0.0,0.0,0.5886,-0.16677000000000003,9.80019
429292925,22.22,0.0,0.0,0.0,0.5886,-0.14715,9.819809999999999
434343430,22.22,0.0,0.0,0.0,0.56898,-0.10791,9.770760000000001
439393935,22.22,0.0,0.0,0.0,0.59841,-0.15696000000000002,9.80019
444444440,22.22,0.0,0.0,0.0,0.5886,-0.14715,9.819809999999999
449494945,22.22,0.0,0.0,0.0,0.59841,-0.13734000000000002,9.819809999999999
454545450,22.22,0.0,0.0,0.0,0.57879,-0.15696000000000002,9.819809999999999
459595955,22.22,0.0,0.0,0.0,0.57879,-0.12753,9.819809999999999
464646460,22.22,0.0,0.0,0.0,0.56898,-0.16677000000000003,9.80019
469696965,22.22,0.0,0.0,0.0,0.5886,-0.14715,9.751140000000001
474747470,22.22,0.0,0.0,0.0,0.5886,-0.18639,9.80019
479797975,22.22,0.0,0.0,0.0,0.5886,-0.14715,9.819809999999999
484848480,22.22,0.0,0.0,0.0,0.5886,-0.15696000000000002,9.81
489898985,22.22,0.0,0.0,0.0,0.60822,-0.15696000000000002,9.82962
494949490,22.22,0.0,0.0,0.0,0.59841,-0.14715,9.760950000000001
499999995,22.22,0.0,0.0,0.0,0.60822,-0.15696000000000002,9.770760000000001
505050500,22.22,0.0,0.0,0.0,0.60822,-0.14715,9.819809999999999
510101005,22.22,0.0,0.0,0.0,0.57879,-0.14715,9.83943
515151510,22.22,0.0,0.0,0.0,0.59841,-0.15696000000000002,9.86886
520202015,22.22,0.0,0.0,0.0,0.5886,-0.12753,9.80019
525252520,22.22,0.0,0.0,0.0,0.5886,-0.16677000000000003,9.751140000000001
530303025,22.22,0.0,0.0,0.0,0.5886,-0.13734000000000002,9.78057
535353530,22.22,0.0,0.0,0.0,0.59841,-0.16677000000000003,9.84924
540404035,22.22,0.0,0.0,0.0,0.5886,-0.14715,9.86886
545454540,22.22,0.0,0.0,0.0,0.56898,-0.15696000000000002,9.819809999999999
550505045,22.22,0.0,0.0,0.0,0.59841,-0.14715,9.74133
555555550,22.22,0.0,0.0,0.0,0.57879,-0.16677000000000003,9.770760000000001
560606055,22.22,0.0,0.0,0.0,0.59841,-0.14715,9.83943
565656560,22.22,0.0,0.0,0.0,0.5886,-0.12753,9.888480000000001
570707065,22.22,0.0,0.0,0.0,0.57879,-0.16677000000000003,9.81
575757570,22.22,0.0,0.0,0.0,0.5886,-0.14715,9.760950000000001
580808075,22.22,0.0,0.0,0.0,0.5886,-0.15696000000000002,9.770760000000001
585858580,22.22,0.0,0.0,0.0,0.59841,-0.13734000000000002,9.83943
590909085,22.22,0.0,0.0,0.0,0.56898,-0.13734000000000002,9.87867
595959590,22.22,0.0,0.0,0.0,0.5886,-0.14715,9.819809999999999
601010095,22.22,0.0,0.0,0.0,0.57879,-0.13734000000000002,9.770760000000001
606060600,22.22,0.0,0.0,0.0,0.56898,-0.18639,9.770760000000001
611111105,22.22,0.0,0.0,0.0,0.57879,-0.15696000000000002,9.819809999999999
616161610,22.22,0.0,0.0,0.0,0.5886,-0.14715,9.84924
621212115,22.22,0.0,0.0,0.0,0.57879,-0.16677000000000003,9.819809999999999
626262620,22.22,0.0,0.0,0.0,0.57879,-0.13734000000000002,9.770760000000001
631313125,22.22,0.0,0.0,0.0,0.6180300000000001,-0.14715,9.760950000000001
636363630,22.22,0.0,0.0,0.0,0.5886,-0.14715,9.819809999999999
641414135,22.22,0.0,0.0,0.0,0.5886,-0.13734000000000002,9.83943
646464640,22.22,0.0,0.0,0.0,0.5591700000000001,-0.14715,9.85905
651515145,22.22,0.0,0.0,0.0,0.60822,-0.10791,9.770760000000001
656565650,22.22,0.0,0.0,0.0,0.5886,-0.16677000000000003,9.770760000000001
661616155,22.22,0.0,0.0,0.0,0.5886,-0.12753,9.81
666666660,22.22,0.0,0.0,0.0,0.57879,-0.14715,9.84924
671717165,22.22,0.0,0.0,0.0,0.5886,-0.16677000000000003,9.82962
676767670,22.22,0.0,0.0,0.0,0.5886,-0.13734000000000002,9.79038
681818175,22.22,0.0,0.0,0.0,0.59841,-0.15696000000000002,9.79038
686868680,22.22,0.0,0.0,0.0,0.57879,-0.14715,9.79038
691919185,22.22,0.0,0.0,0.0,0.57879,-0.14715,9.79038
696969690,22.22,0.0,0.0,0.0,0.59841,-0.15696000000000002,9.82962
702020195,22.22,0.0,0.0,0.0,0.5886,-0.14715,9.83943
707070700,22.22,0.0,0.0,0.0,0.57879,-0.16677000000000003,9.81
712121205,22.22,0.0,0.0,0.0,0.60822,-0.14715,9.80019
717171710,22.22,0.0,0.0,0.0,0.59841,-0.15696000000000002,9.819809999999999
722222215,22.22,0.0,0.0,0.0,0.56898,-0.13734000000000002,9.79038
727272720,22.22,0.0,0.0,0.0,0.60822,-0.17658,9.84924
732323225,22.22,0.0,0.0,0.0,0.59841,-0.14715,9.819809999999999
737373730,22.22,0.0,0.0,0.0,0.57879,-0.14715,9.80019
742424235,22.22,0.0,0.0,0.0,0.5886,-0.16677000000000003,9.770760000000001
747474740,22.22,0.0,0.0,0.0,0.56898,-0.16677000000000003,9.80019
752525245,22.22,0.0,0.0,0.0,0.5886,-0.16677000000000003,9.82962
757575750,22.22,0.0,0.0,0.0,0.56898,-0.12753,9.83943
762626255,22.22,0.0,0.0,0.0,0.5591700000000001,-0.12753,9.819809999999999
767676760,22.22,0.0,0.0,0.0,0.5591700000000001,-0.15696000000000002,9.80019
772727265,22.22,0.0,0.0,0.0,0.5591700000000001,-0.15696000000000002,9.760950000000001
777777770,22.22,0.0,0.0,0.0,0.57879,-0.15696000000000002,9.819809999999999
782828275,22.22,0.0,0.0,0.0,0.59841,-0.13734000000000002,9.82962
787878780,22.22,0.0,0.0,0.0,0.5886,-0.16677000000000003,9.81
792929285,22.22,0.0,0.0,0.0,0.5886,-0.13734000000000002,9.79038
797979790,22.22,0.0,0.0,0.0,0.59841,-0.15696000000000002,9.79038
803030295,22.22,0.0,0.0,0.0,0.56898,-0.14715,9.80019
808080800,22.22,0.0,0.0,0.0,0.59841,-0.14715,9.83943
813131305,22.22,0.0,0.0,0.0,0.5886,-0.16677000000000003,9.819809999999999
818181810,22.22,0.0,0.0,0.0,0.59841,-0.14715,9.81
823232315,22.22,0.0,0.0,0.0,0.57879,-0.0981,9.770760000000001
828282820,22.22,0.0,0.0,0.0,0.5886,-0.16677000000000003,9.81
833333325,22.22,0.0,0.0,0.0,0.59841,-0.14715,9.83943
838383830,22.22,0.0,0.0,0.0,0.57879,-0.14715,9.81
843434335,22.22,0.0,0.0,0.0,0.5591700000000001,-0.16677000000000003,9.81
848484840,22.22,0.0,0.0,0.0,0.57879,-0.14715,9.79038
853535345,22.22,0.0,0.0,0.0,0.5886,-0.15696000000000002,9.82962
858585850,22.22,0.0,0.0,0.0,0.59841,-0.16677000000000003,9.82962
863636355,22.22,0.0,0.0,0.0,0.5886,-0.15696000000000002,9.82962
868686860,22.22,0.0,0.0,0.0,0.5886,-0.16677000000000003,9.80019
873737365,22.22,0.0,0.0,0.0,0.5886,-0.16677000000000003,9.81
878787870,22.22,0.0,0.0,0.0,0.5886,-0.14715,9.79038
883838375,22.22,0.0,0.0,0.0,0.5886,-0.15696000000000002,9.81
888888880,22.22,0.0,0.0,0.0,0.5886,-0.16677000000000003,9.819809999999999
893939385,22.22,0.0,0.0,0.0,0.5886,-0.13734000000000002,9.819809999999999
898989890,22.22,0.0,0.0,0.0,0.5886,-0.13734000000000002,9.819809999999999
904040395,22.22,0.0,0.0,0.0,0.56898,-0.12753,9.80019
909090900,22.22,0.0,0.0,0.0,0.5886,-0.16677000000000003,9.82962
914141405,22.22,0.0,0.0,0.0,0.59841,-0.14715,9.819809999999999
919191910,22.22,0.0,0.0,0.0,0.5886,-0.15696000000000002,9.83943
924242415,22.22,0.0,0.0,0.0,0.57879,-0.16677000000000003,9.81
929292920,22.22,0.0,0.0,0.0,0.57879,-0.15696000000000002,9.751140000000001
934343425,22.22,0.0,0.0,0.0,0.56898,-0.15696000000000002,9.78057
939393930,22.22,0.0,0.0,0.0,0.56898,-0.12753,9.83943
944444435,22.22,0.0,0.0,0.0,0.57879,-0.15696000000000002,9.84924
949494940,22.22,0.0,0.0,0.0,0.5886,-0.13734000000000002,9.819809999999999
954545445,22.22,0.0,0.0,0.0,0.5591700000000001,-0.15696000000000002,9.79038
959595950,22.22,0.0,0.0,0.0,0.59841,-0.14715,9.78057
964646455,22.22,0.0,0.0,0.0,0.60822,-0.14715,9.819809999999999
969696960,22.22,0.0,0.0,0.0,0.57879,-0.14715,9.86886
974747465,22.22,0.0,0.0,0.0,0.57879,-0.12753,9.819809999999999
979797970,22.22,0.0,0.0,0.0,0.5886,-0.15696000000000002,9.78057
984848475,22.22,0.0,0.0,0.0,0.57879,-0.16677000000000003,9.770760000000001
989898980,22.22,0.0,0.0,0.0,0.60822,-0.16677000000000003,9.81
994949485,22.22,0.0,0.0,0.0,0.59841,-0.13734000000000002,9.86886
999999990,22.22,0.0,0.0,0.0,0.5886,-0.17658,9.82962
1005050495,22.22,0.0,0.0,0.0,0.60822,-0.16677000000000003,9.751140000000001
1010101000,22.22,0.0,0.0,0.0,0.57879,-0.13734000000000002,9.751140000000001
1015151505,22.22,0.0,0.0,0.0,0.57879,-0.14715,9.81
1020202010,22.22,0.0,0.0,0.0,0.59841,-0.14715,9.86886
1025252515,22.22,0.0,0.0,0.0,0.59841,-0.17658,9.82962
1030303020,22.22,0.0,0.0,0.0,0.57879,-0.14715,9.751140000000001
1035353525,22.22,0.0,0.0,0.0,0.5886,-0.16677000000000003,9.74133
1040404030,22.22,0.0,0.0,0.0,0.5886,-0.15696000000000002,9.80019
1045454535,22.22,0.0,0.0,0.0,0.57879,-0.13734000000000002,9.86886
1050505040,22.22,0.0,0.0,0.0,0.59841,-0.16677000000000003,9.84924
1055555545,22.22,0.0,0.0,0.0,0.59841,-0.13734000000000002,9.80019
1060606050,22.22,0.0,0.0,0.0,0.5591700000000001,-0.16677000000000003,9.73152
1065656555,22.22,0.0,0.0,0.0,0.57879,-0.15696000000000002,9.79038
1070707060,22.22,0.0,0.0,0.0,0.5886,-0.13734000000000002,9.85905
1075757565,22.22,0.0,0.0,0.0,0.56898,-0.13734000000000002,9.85905
1080808070,22.22,0.0,0.0,0.0,0.5886,-0.13734000000000002,9.81
1085858575,22.22,0.0,0.0,0.0,0.56898,-0.15696000000000002,9.770760000000001
1090909080,22.22,0.0,0.0,0.0,0.57879,-0.15696000000000002,9.78057
1095959585,22.22,0.0,0.0,0.0,0.56898,-0.16677000000000003,9.83943
1101010090,22.22,0.0,0.0,0.0,0.5591700000000001,-0.16677000000000003,9.82962
1106060595,22.22,0.0,0.0,0.0,0.5886,-0.14715,9.819809999999999
1111111100,22.22,0.0,0.0,0.0,0.5886,-0.14715,9.79038
1116161605,22.22,0.0,0.0,0.0,0.59841,-0.12753,9.81
1121212110,22.22,0.0,0.0,0.0,0.5886,-0.15696000000000002,9.84924
1126262615,22.22,0.0,0.0,0.0,0.5886,-0.15696000000000002,9.819809999999999
1131313120,22.22,0.0,0.0,0.0,0.56898,-0.14715,9.78057
1136363625,22.22,0.0,0.0,0.0,0.5886,-0.16677000000000003,9.81
1141414130,22.22,0.0,0.0,0.0,0.59841,-0.15696000000000002,9.81
1146464635,22.22,0.0,0.0,0.0,0.59841,-0.16677000000000003,9.82962
1151515140,22.22,0.0,0.0,0.0,0.60822,-0.15696000000000002,9.819809999999999
1156565645,22.22,0.0,0.0,0.0,0.57879,-0.14715,9.819809999999999
1161616150,22.22,0.0,0.0,0.0,0.5886,-0.14715,9.81
1166666655,22.22,0.0,0.0,0.0,0.56898,-0.16677000000000003,9.79038
1171717160,22.22,0.0,0.0,0.0,0.5591700000000001,-0.12753,9.819809999999999
1176767665,22.22,0.0,0.0,0.0,0.56898,-0.14715,9.819809999999999
1181818170,22.22,0.0,0.0,0.0,0.56898,-0.16677000000000003,9.84924
1186868675,22.22,0.0,0.0,0.0,0.56898,-0.15696000000000002,9.819809999999999
1191919180,22.22,0.0,0.0,0.0,0.60822,-0.15696000000000002,9.81
1196969685,22.22,0.0,0.0,0.0,0.60822,-0.12753,9.79038
1202020190,22.22,0.0,0.0,0.0,0.57879,-0.14715,9.81
1207070695,22.22,0.0,0.0,0.0,0.59841,-0.14715,9.83943
1212121200,22.22,0.0,0.0,0.0,0.56898,-0.15696000000000002,9.81
1217171705,22.22,0.0,0.0,0.0,0.57879,-0.16677000000000003,9.78057
1222222210,22.22,0.0,0.0,0.0,0.59841,-0.15696000000000002,9.751140000000001
1227272715,22.22,0.0,0.0,0.0,0.60822,-0.13734000000000002,9.819809999999999
1232323220,22.22,0.0,0.0,0.0,0.57879,-0.14715,9.82962
1237373725,22.22,0.0,0.0,0.0,0.59841,-0.17658,9.81
1242424230,22.22,0.0,0.0,0.0,0.57879,-0.13734000000000002,9.81
1247474735,22.22,0.0,0.0,0.0,0.60822,-0.17658,9.78057
1252525240,22.22,0.0,0.0,0.0,0.5886,-0.14715,9.80019
1257575745,22.22,0.0,0.0,0.0,0.57879,-0.1962,9.82962
1262626250,22.22,0.0,0.0,0.0,0.57879,-0.15696000000000002,9.81
1267676755,22.22,0.0,0.0,0.0,0.5591700000000001,-0.16677000000000003,9.79038
1272727260,22.22,0.0,0.0,0.0,0.57879,-0.16677000000000003,9.81
1277777765,22.22,0.0,0.0,0.0,0.57879,-0.14715,9.82962
1282828270,22.22,0.0,0.0,0.0,0.60822,-0.15696000000000002,9.819809999999999
1287878775,22.22,0.0,0.0,0.0,0.5886,-0.14715,9.81
1292929280,22.22,0.0,0.0,0.0,0.5886,-0.15696000000000002,9.80019
1297979785,22.22,0.0,0.0,0.0,0.5591700000000001,-0.13734000000000002,9.79038
1303030290,22.22,0.0,0.0,0.0,0.59841,-0.16677000000000003,9.79038
1308080795,22.22,0.0,0.0,0.0,0.5591700000000001,-0.15696000000000002,9.819809999999999
1313131300,22.22,0.0,0.0,0.0,0.5886,-0.16677000000000003,9.819809999999999
1318181805,22.22,0.0,0.0,0.0,0.59841,-0.15696000000000002,9.79038
1323232310,22.22,0.0,0.0,0.0,0.57879,-0.15696000000000002,9.78057
1328282815,22.22,0.0,0.0,0.0,0.57879,-0.15696000000000002,9.819809999999999
1333333320,22.22,0.0,0.0,0.0,0.6180300000000001,-0.14715,9.84924
1338383825,22.22,0.0,0.0,0.0,0.5886,-0.15696000000000002,9.81
1343434330,22.22,0.0,0.0,0.0,0.5886,-0.14715,9.81
1348484835,22.22,0.0,0.0,0.0,0.5886,-0.15696000000000002,9.79038
1353535340,22.22,0.0,0.0,0.0,0.59841,-0.15696000000000002,9.81
1358585845,22.22,0.0,0.0,0.0,0.60822,-0.14715,9.80019
1363636350,22.22,0.0,0.0,0.0,0.56898,-0.14715,9.81
1368686855,22.22,0.0,0.0,0.0,0.59841,-0.14715,9.81
1373737360,22.22,0.0,0.0,0.0,0.59841,-0.15696000000000002,9.83943
1378787865,22.22,0.0,0.0,0.0,0.5886,-0.14715,9.819809999999999
1383838370,22.22,0.0,0.0,0.0,0.57879,-0.14715,9.81
1388888875,22.22,0.0,0.0,0.0,0.5886,-0.16677000000000003,9.760950000000001
1393939380,22.22,0.0,0.0,0.0,0.60822,-0.14715,9.78057
1398989885,22.22,0.0,0.0,0.0,0.5886,-0.15696000000000002,9.83943
1404040390,22.22,0.0,0.0,0.0,0.57879,-0.14715,9.83943
1409090895,22.22,0.0,0.0,0.0,0.59841,-0.13734000000000002,9.81
1414141400,22.22,0.0,0.0,0.0,0.5886,-0.14715,9.78057
1419191905,22.22,0.0,0.0,0.0,0.56898,-0.13734000000000002,9.760950000000001
1424242410,22.22,0.0,0.0,0.0,0.60822,-0.15696000000000002,9.84924
1429292915,22.22,0.0,0.0,0.0,0.5886,-0.14715,9.83943
1434343420,22.22,0.0,0.0,0.0,0.57879,-0.13734000000000002,9.81
1439393925,22.22,0.0,0.0,0.0,0.5886,-0.16677000000000003,9.760950000000001
1444444430,22.22,0.0,0.0,0.0,0.5591700000000001,-0.14715,9.751140000000001
1449494935,22.22,0.0,0.0,0.0,0.57879,-0.12753,9.85905
1454545440,22.22,0.0,0.0,0.0,0.57879,-0.15696000000000002,9.87867
1459595945,22.22,0.0,0.0,0.0,0.5886,-0.15696000000000002,9.79038
1464646450,22.22,0.0,0.0,0.0,0.57879,-0.16677000000000003,9.74133
1469696955,22.22,0.0,0.0,0.0,0.5886,-0.15696000000000002,9.78057
1474747460,22.22,0.0,0.0,0.0,0.59841,-0.16677000000000003,9.84924
1479797965,22.22,0.0,0.0,0.0,0.60822,-0.14715,9.888480000000001
1484848470,22.22,0.0,0.0,0.0,0.59841,-0.12753,9.819809999999999
1489898975,22.22,0.0,0.0,0.0,0.5886,-0.14715,9.760950000000001
1494949480,22.22,0.0,0.0,0.0,0.57879,-0.16677000000000003,9.760950000000001
1499999985,22.22,0.0,0.0,0.0,0.5886,-0.13734000000000002,9.84924
1505050490,22.22,0.0,0.0,0.0,0.57879,-0.15696000000000002,9.84924
1510100995,22.22,0.0,0.0,0.0,0.5886,-0.15696000000000002,9.819809999999999
1515151500,22.22,0.0,0.0,0.0,0.56898,-0.14715,9.770760000000001
1520202005,22.22,0.0,0.0,0.0,0.60822,-0.15696000000000002,9.760950000000001
1525252510,22.22,0.0,0.0,0.0,0.56898,-0.16677000000000003,9.82962
1530303015,22.22,0.0,0.0,0.0,0.5886,-0.14715,9.87867
1535353520,22.22,0.0,0.0,0.0,0.59841,-0.14715,9.83943
1540404025,22.22,0.0,0.0,0.0,0.60822,-0.15696000000000002,9.74133
1545454530,22.22,0.0,0.0,0.0,0.5886,-0.14715,9.74133
1550505035,22.22,0.0,0.0,0.0,0.57879,-0.15696000000000002,9.819809999999999
1555555540,22.22,0.0,0.0,0.0,0.6180300000000001,-0.16677000000000003,9.84924
1560606045,22.22,0.0,0.0,0.0,0.5886,-0.17658,9.83943
1565656550,22.22,0.0,0.0,0.0,0.5886,-0.15696000000000002,9.81
1570707055,22.22,0.0,0.0,0.0,0.5886,-0.15696000000000002,9.81
1575757560,22.22,0.0,0.0,0.0,0.59841,-0.15696000000000002,9.81
1580808065,22.22,0.0,0.0,0.0,0.57879,-0.13734000000000002,9.819809999999999
1585858570,22.22,0.0,0.0,0.0,0.57879,-0.15696000000000002,9.82962
1590909075,22.22,0.0,0.0,0.0,0.5886,-0.17658,9.82962
1595959580,22.22,0.0,0.0,0.0,0.56898,-0.17658,9.770760000000001
1601010085,22.22,0.0,0.0,0.0,0.5886,-0.14715,9.770760000000001
1606060590,22.22,0.0,0.0,0.0,0.57879,-0.15696000000000002,9.82962
1611111095,22.22,0.0,0.0,0.0,0.59841,-0.14715,9.81
1616161600,22.22,0.0,0.0,0.0,0.59841,-0.13734000000000002,9.819809999999999
1621212105,22.22,0.0,0.0,0.0,0.56898,-0.15696000000000002,9.80019
1626262610,22.22,0.0,0.0,0.0,0.5886,-0.13734000000000002,9.81
1631313115,22.22,0.0,0.0,0.0,0.56898,-0.16677000000000003,9.81
1636363620,22.22,0.0,0.0,0.0,0.5886,-0.15696000000000002,9.83943
1641414125,22.22,0.0,0.0,0.0,0.57879,-0.17658,9.819809999999999
1646464630,22.22,0.0,0.0,0.0,0.5493600000000001,-0.12753,9.81
1651515135,22.22,0.0,0.0,0.0,0.5886,-0.12753,9.73152
1656565640,22.22,0.0,0.0,0.0,0.5591700000000001,-0.14715,9.81
1661616145,22.22,0.0,0.0,0.0,0.59841,-0.15696000000000002,9.85905
1666666650,22.22,0.0,0.0,0.0,0.59841,-0.16677000000000003,9.91791
1671717155,22.22,0.0,0.0,0.0,0.5591700000000001,-0.16677000000000003,9.83943
1676767660,22.22,0.0,0.0,0.0,0.59841,-0.12753,9.74133
1681818165,22.22,0.0,0.0,0.0,0.59841,-0.15696000000000002,9.74133
1686868670,22.22,0.0,0.0,0.0,0.59841,-0.13734000000000002,9.81
1691919175,22.22,0.0,0.0,0.0,0.6180300000000001,-0.13734000000000002,9.87867
1696969680,22.22,0.0,0.0,0.0,0.60822,-0.15696000000000002,9.84924
1702020185,22.22,0.0,0.0,0.0,0.5591700000000001,-0.17658,9.81
1707070690,22.22,0.0,0.0,0.0,0.5493600000000001,-0.11772,9.73152
1712121195,22.22,0.0,0.0,0.0,0.57879,-0.11772,9.78057
1717171700,22.22,0.0,0.0,0.0,0.60822,-0.18639,9.87867
1722222205,22.22,0.0,0.0,0.0,0.59841,-0.14715,9.85905
1727272710,22.22,0.0,0.0,0.0,0.60822,-0.13734000000000002,9.770760000000001
1732323215,22.22,0.0,0.0,0.0,0.6180300000000001,-0.14715,9.73152
1737373720,22.22,0.0,0.0,0.0,0.6180300000000001,-0.12753,9.74133
1742424225,22.22,0.0,0.0,0.0,0.57879,-0.16677000000000003,9.82962
1747474730,22.22,0.0,0.0,0.0,0.5886,-0.18639,9.83943
1752525235,22.22,0.0,0.0,0.0,0.5886,-0.17658,9.819809999999999
1757575740,22.22,0.0,0.0,0.0,0.57879,-0.17658,9.79038
1762626245,22.22,0.0,0.0,0.0,0.59841,-0.15696000000000002,9.770760000000001
1767676750,22.22,0.0,0.0,0.0,0.6278400000000001,-0.12753,9.80019
1772727255,22.22,0.0,0.0,0.0,0.63765,-0.10791,9.819809999999999
1777777760,22.22,0.0,0.0,0.0,0.60822,-0.14715,9.83943
1782828265,22.22,0.0,0.0,0.0,0.59841,-0.13734000000000002,9.78057
1787878770,22.22,0.0,0.0,0.0,0.60822,-0.16677000000000003,9.751140000000001
1792929275,22.22,0.0,0.0,0.0,0.6278400000000001,-0.15696000000000002,9.760950000000001
1797979780,22.22,0.0,0.0,0.0,0.59841,-0.18639,9.83943
1803030285,22.22,0.0,0.0,0.0,0.60822,-0.16677000000000003,9.908100000000001
1808080790,22.22,0.0,0.0,0.0,0.6278400000000001,-0.13734000000000002,9.84924
1813131295,22.22,0.0,0.0,0.0,0.64746,-0.15696000000000002,9.78057
1818181800,22.22,0.0,0.0,0.0,0.65727,-0.11772,9.78057
1823232305,22.22,0.0,0.0,0.0,0.64746,-0.15696000000000002,9.79038
1828282810,22.22,0.0,0.0,0.0,0.64746,-0.13734000000000002,9.86886
1833333315,22.22,0.0,0.0,0.0,0.59841,-0.17658,9.91791
1838383820,22.22,0.0,0.0,0.0,0.6278400000000001,-0.16677000000000003,9.79038
1843434325,22.22,0.0,0.0,0.0,0.6180300000000001,-0.15696000000000002,9.80019
1848484830,22.22,0.0,0.0,0.0,0.6278400000000001,-0.14715,9.73152
1853535335,22.22,0.0,0.0,0.0,0.6180300000000001,-0.12753,9.819809999999999
1858585840,22.22,0.0,0.0,0.0,0.6180300000000001,-0.17658,9.888480000000001
1863636345,22.22,0.0,0.0,0.0,0.60822,-0.12753,9.85905
1868686850,22.22,0.0,0.0,0.0,0.59841,-0.16677000000000003,9.74133
1873737355,22.22,0.0,0.0,0.0,0.57879,-0.16677000000000003,9.74133
1878787860,22.22,0.0,0.0,0.0,0.5493600000000001,-0.14715,9.79038
1883838365,22.22,0.0,0.0,0.0,0.60822,-0.17658,9.908100000000001
1888888870,22.22,0.0,0.0,0.0,0.6180300000000001,-0.15696000000000002,9.888480000000001
1893939375,22.22,0.0,0.0,0.0,0.60822,-0.16677000000000003,9.770760000000001
1898989880,22.22,0.0,0.0,0.0,0.6180300000000001,-0.12753,9.72171
1904040385,22.22,0.0,0.0,0.0,0.5886,-0.16677000000000003,9.770760000000001
1909090890,22.22,0.0,0.0,0.0,0.5886,-0.14715,9.82962
1914141395,22.22,0.0,0.0,0.0,0.5591700000000001,-0.16677000000000003,9.89829
1919191900,22.22,0.0,0.0,0.0,0.59841,-0.14715,9.81
1924242405,22.22,0.0,0.0,0.0,0.56898,-0.15696000000000002,9.72171
1929292910,22.22,0.0,0.0,0.0,0.56898,-0.15696000000000002,9.73152
1934343415,22.22,0.0,0.0,0.0,0.57879,-0.16677000000000003,9.80019
1939393920,22.22,0.0,0.0,0.0,0.57879,-0.15696000000000002,9.86886
1944444425,22.22,0.0,0.0,0.0,0.56898,-0.14715,9.82962
1949494930,22.22,0.0,0.0,0.0,0.57879,-0.15696000000000002,9.770760000000001
1954545435,22.22,0.0,0.0,0.0,0.59841,-0.15696000000000002,9.82962
1959595940,22.22,0.0,0.0,0.0,0.5886,-0.15696000000000002,9.81
1964646445,22.22,0.0,0.0,0.0,0.60822,-0.15696000000000002,9.83943
1969696950,22.22,0.0,0.0,0.0,0.6278400000000001,-0.14715,9.84924
1974747455,22.22,0.0,0.0,0.0,0.63765,-0.12753,9.770760000000001
1979797960,22.22,0.0,0.0,0.0,0.57879,-0.15696000000000002,9.7119
1984848465,22.22,0.0,0.0,0.0,0.5395500000000001,-0.17658,9.770760000000001
1989898970,22.22,0.0,0.0,0.0,0.56898,-0.15696000000000002,9.84924
1994949475,22.22,0.0,0.0,0.0,0.5493600000000001,-0.15696000000000002,9.89829
1999999980,22.22,0.0,0.0,0.0,0.5395500000000001,-0.16677000000000003,9.819809999999999
2005050485,22.22,0.0,0.0,0.0,0.59841,-0.10791,9.81
2010100990,22.22,0.0,0.0,0.0,0.5886,-0.13734000000000002,9.770760000000001
2015151495,22.22,0.0,0.0,0.0,0.59841,-0.14715,9.78057
2020202000,22.22,0.0,0.0,0.0,0.57879,-0.18639,9.81
2025252505,22.22,0.0,0.0,0.0,0.60822,-0.17658,9.83943
2030303010,22.22,0.0,0.0,0.0,0.6180300000000001,-0.14715,9.86886
2035353515,22.22,0.0,0.0,0.0,0.5886,-0.17658,9.81
2040404020,22.22,0.0,0.0,0.0,0.5493600000000001,-0.13734000000000002,9.81
2045454525,22.22,0.0,0.0,0.0,0.50031,-0.15696000000000002,9.888480000000001
2050505030,22.22,0.0,0.0,0.0,0.51993,-0.16677000000000003,9.937529999999999
2055555535,22.22,0.0,0.0,0.0,0.60822,-0.18639,9.87867
2060606040,22.22,0.0,0.0,0.0,0.6670800000000001,-0.15696000000000002,9.82962
2065656545,22.22,0.0,0.0,0.0,0.5591700000000001,-0.14715,9.72171
2070707050,22.22,0.0,0.0,0.0,0.52974,-0.17658,9.819809999999999
2075757555,22.22,0.0,0.0,0.0,0.49050000000000005,-0.18639,9.96696
2080808060,22.22,0.0,0.0,0.0,0.59841,-0.17658,9.819809999999999
2085858565,22.22,0.0,0.0,0.0,0.51993,-0.15696000000000002,9.908100000000001
2090909070,22.22,0.0,0.0,0.0,0.56898,-0.16677000000000003,9.81
2095959575,22.22,0.0,0.0,0.0,0.56898,-0.11772,9.770760000000001
2101010080,22.22,0.0,0.0,0.0,0.52974,-0.12753,10.09449
2106060585,22.22,0.0,0.0,0.0,0.5395500000000001,-0.15696000000000002,10.11411
2111111090,22.22,0.0,0.0,0.0,0.6278400000000001,-0.11772,9.95715
2116161595,22.22,0.0,0.0,0.0,0.6670800000000001,-0.0981,9.70209
2121212100,22.22,0.0,0.0,0.0,0.60822,-0.13734000000000002,9.85905
2126262605,22.22,0.0,0.0,0.0,0.57879,-0.18639,9.937529999999999
2131313110,22.22,0.0,0.0,0.0,0.60822,-0.12753,9.89829
2136363615,22.22,0.0,0.0,0.0,0.60822,-0.16677000000000003,9.72171
2141414120,22.22,0.0,0.0,0.0,0.5591700000000001,-0.13734000000000002,9.79038
2146464625,22.22,0.0,0.0,0.0,0.56898,-0.1962,9.89829
2151515130,22.22,0.0,0.0,0.0,0.57879,-0.16677000000000003,9.908100000000001
2156565635,22.22,0.0,0.0,0.0,0.5591700000000001,-0.13734000000000002,9.908100000000001
2161616140,22.22,0.0,0.0,0.0,0.5493600000000001,-0.13734000000000002,9.83943
2166666645,22.22,0.0,0.0,0.0,0.60822,-0.1962,9.751140000000001
2171717150,22.22,0.0,0.0,0.0,0.60822,-0.13734000000000002,9.760950000000001
2176767655,22.22,0.0,0.0,0.0,0.5493600000000001,-0.17658,9.83943
2181818160,22.22,0.0,0.0,0.0,0.56898,-0.15696000000000002,9.83943
2186868665,22.22,0.0,0.0,0.0,0.6180300000000001,-0.10791,9.84924
2191919170,22.22,0.0,0.0,0.0,0.57879,-0.0981,9.80019
2196969675,22.22,0.0,0.0,0.0,0.6180300000000001,-0.15696000000000002,9.751140000000001
2202020180,22.22,0.0,0.0,0.0,0.6180300000000001,-0.11772,9.888480000000001
2207070685,22.22,0.0,0.0,0.0,0.60822,-0.13734000000000002,9.81
2212121190,22.22,0.0,0.0,0.0,0.5886,-0.13734000000000002,9.79038
2217171695,22.22,0.0,0.0,0.0,0.5886,-0.13734000000000002,9.81
2222222200,22.22,0.0,0.0,0.0,0.5886,-0.14715,9.751140000000001
2227272705,22.22,0.0,0.0,0.0,0.57879,-0.12753,9.819809999999999
2232323210,22.22,0.0,0.0,0.0,0.6180300000000001,-0.14715,9.760950000000001
2237373715,22.22,0.0,0.0,0.0,0.5591700000000001,-0.16677000000000003,9.79038
2242424220,22.22,0.0,0.0,0.0,0.5395500000000001,-0.16677000000000003,9.84924
2247474725,22.22,0.0,0.0,0.0,0.57879,-0.20601000000000003,9.79038
2252525230,22.22,0.0,0.0,0.0,0.57879,-0.17658,9.80019
2257575735,22.22,0.0,0.0,0.0,0.59841,-0.15696000000000002,9.751140000000001
2262626240,22.22,0.0,0.0,0.0,0.56898,-0.14715,9.81
2267676745,22.22,0.0,0.0,0.0,0.59841,-0.15696000000000002,9.87867
2272727250,22.22,0.0,0.0,0.0,0.60822,-0.17658,9.82962
2277777755,22.22,0.0,0.0,0.0,0.60822,-0.11772,9.73152
2282828260,22.22,0.0,0.0,0.0,0.60822,-0.16677000000000003,9.80019
2287878765,22.22,0.0,0.0,0.0,0.59841,-0.14715,9.87867
2292929270,22.22,0.0,0.0,0.0,0.60822,-0.14715,9.908100000000001
2297979775,22.22,0.0,0.0,0.0,0.59841,-0.14715,9.85905
2303030280,22.22,0.0,0.0,0.0,0.59841,-0.13734000000000002,9.770760000000001
2308080785,22.22,0.0,0.0,0.0,0.59841,-0.15696000000000002,9.78057
2313131290,22.22,0.0,0.0,0.0,0.5591700000000001,-0.15696000000000002,9.81
2318181795,22.22,0.0,0.0,0.0,0.56898,-0.18639,9.888480000000001
2323232300,22.22,0.0,0.0,0.0,0.60822,-0.14715,9.82962
2328282805,22.22,0.0,0.0,0.0,0.5886,-0.14715,9.760950000000001
2333333310,22.22,0.0,0.0,0.0,0.6180300000000001,-0.15696000000000002,9.70209
2338383815,22.22,0.0,0.0,0.0,0.59841,-0.13734000000000002,9.770760000000001
2343434320,22.22,0.0,0.0,0.0,0.57879,-0.17658,9.89829
2348484825,22.22,0.0,0.0,0.0,0.60822,-0.14715,9.888480000000001
2353535330,22.22,0.0,0.0,0.0,0.59841,-0.17658,9.81
2358585835,22.22,0.0,0.0,0.0,0.5886,-0.16677000000000003,9.7119
2363636340,22.22,0.0,0.0,0.0,0.57879,-0.14715,9.760950000000001
2368686845,22.22,0.0,0.0,0.0,0.57879,-0.12753,9.85905
2373737350,22.22,0.0,0.0,0.0,0.5886,-0.13734000000000002,9.84924
2378787855,22.22,0.0,0.0,0.0,0.57879,-0.13734000000000002,9.81
2383838360,22.22,0.0,0.0,0.0,0.5591700000000001,-0.13734000000000002,9.79038
2388888865,22.22,0.0,0.0,0.0,0.59841,-0.17658,9.760950000000001
2393939370,22.22,0.0,0.0,0.0,0.59841,-0.13734000000000002,9.83943
2398989875,22.22,0.0,0.0,0.0,0.5886,-0.15696000000000002,9.83943
2404040380,22.22,0.0,0.0,0.0,0.57879,-0.15696000000000002,9.81
2409090885,22.22,0.0,0.0,0.0,0.5886,-0.13734000000000002,9.760950000000001
2414141390,22.22,0.0,0.0,0.0,0.57879,-0.14715,9.770760000000001
2419191895,22.22,0.0,0.0,0.0,0.59841,-0.17658,9.80019
2424242400,22.22,0.0,0.0,0.0,0.59841,-0.17658,9.82962
2429292905,22.22,0.0,0.0,0.0,0.60822,-0.14715,9.81
2434343410,22.22,0.0,0.0,0.0,0.57879,-0.16677000000000003,9.81
2439393915,22.22,0.0,0.0,0.0,0.56898,-0.18639,9.81
2444444420,22.22,0.0,0.0,0.0,0.57879,-0.13734000000000002,9.751140000000001
2449494925,22.22,0.0,0.0,0.0,0.57879,-0.12753,9.80019
2454545430,22.22,0.0,0.0,0.0,0.57879,-0.12753,9.79038
2459595935,22.22,0.0,0.0,0.0,0.59841,-0.15696000000000002,9.84924
2464646440,22.22,0.0,0.0,0.0,0.56898,-0.16677000000000003,9.81
2469696945,22.22,0.0,0.0,0.0,0.59841,-0.13734000000000002,9.751140000000001
2474747450,22.22,0.0,0.0,0.0,0.56898,-0.15696000000000002,9.78057
2479797955,22.22,0.0,0.0,0.0,0.56898,-0.15696000000000002,9.819809999999999
2484848460,22.22,0.0,0.0,0.0,0.5591700000000001,-0.15696000000000002,9.85905
2489898965,22.22,0.0,0.0,0.0,0.57879,-0.16677000000000003,9.83943
2494949470,22.22,0.0,0.0,0.0,0.59841,-0.15696000000000002,9.78057
2499999975,22.22,0.0,0.0,0.0,0.5886,-0.13734000000000002,9.78057
2505050480,22.22,0.0,0.0,0.0,0.57879,-0.16677000000000003,9.81
2510100985,22.22,0.0,0.0,0.0,0.6180300000000001,-0.15696000000000002,9.83943
2515151490,22.22,0.0,0.0,0.0,0.5886,-0.15696000000000002,9.82962
2520201995,22.22,0.0,0.0,0.0,0.57879,-0.14715,9.79038
2525252500,22.22,0.0,0.0,0.0,0.59841,-0.13734000000000002,9.79038
2530303005,22.22,0.0,0.0,0.0,0.5886,-0.13734000000000002,9.81
2535353510,22.22,0.0,0.0,0.0,0.59841,-0.14715,9.81
2540404015,22.22,0.0,0.0,0.0,0.57879,-0.13734000000000002,9.83943
2545454520,22.22,0.0,0.0,0.0,0.59841,-0.14715,9.80019
2550505025,22.22,0.0,0.0,0.0,0.57879,-0.14715,9.79038
2555555530,22.22,0.0,0.0,0.0,0.56898,-0.17658,9.80019
2560606035,22.22,0.0,0.0,0.0,0.59841,-0.14715,9.81
2565656540,22.22,0.0,0.0,0.0,0.57879,-0.17658,9.82962
2570707045,22.22,0.0,0.0,0.0,0.56898,-0.15696000000000002,9.79038
2575757550,22.22,0.0,0.0,0.0,0.6278400000000001,-0.16677000000000003,9.79038
2580808055,22.22,0.0,0.0,0.0,0.5886,-0.14715,9.79038
2585858560,22.22,0.0,0.0,0.0,0.5886,-0.14715,9.819809999999999
2590909065,22.22,0.0,0.0,0.0,0.59841,-0.14715,9.819809999999999
2595959570,22.22,0.0,0.0,0.0,0.5886,-0.14715,9.819809999999999
2601010075,22.22,0.0,0.0,0.0,0.60822,-0.15696000000000002,9.78057
2606060580,22.22,0.0,0.0,0.0,0.56898,-0.13734000000000002,9.770760000000001
2611111085,22.22,0.0,0.0,0.0,0.5886,-0.15696000000000002,9.81
2616161590,22.22,0.0,0.0,0.0,0.60822,-0.16677000000000003,9.83943
2621212095,22.22,0.0,0.0,0.0,0.57879,-0.15696000000000002,9.84924
2626262600,22.22,0.0,0.0,0.0,0.57879,-0.16677000000000003,9.80019
2631313105,22.22,0.0,0.0,0.0,0.59841,-0.16677000000000003,9.78057
2636363610,22.22,0.0,0.0,0.0,0.59841,-0.15696000000000002,9.78057
2641414115,22.22,0.0,0.0,0.0,0.57879,-0.16677000000000003,9.81
2646464620,22.22,0.0,0.0,0.0,0.5886,-0.13734000000000002,9.86886
2651515125,22.22,0.0,0.0,0.0,0.56898,-0.15696000000000002,9.819809999999999
2656565630,22.22,0.0,0.0,0.0,0.59841,-0.14715,9.80019
2661616135,22.22,0.0,0.0,0.0,0.5591700000000001,-0.15696000000000002,9.79038
2666666640,22.22,0.0,0.0,0.0,0.59841,-0.14715,9.81
2671717145,22.22,0.0,0.0,0.0,0.57879,-0.17658,9.85905
2676767650,22.22,0.0,0.0,0.0,0.57879,-0.15696000000000002,9.80019
2681818155,22.22,0.0,0.0,0.0,0.5886,-0.13734000000000002,9.80019
2686868660,22.22,0.0,0.0,0.0,0.6180300000000001,-0.14715,9.78057
2691919165,22.22,0.0,0.0,0.0,0.5591700000000001,-0.14715,9.81
2696969670,22.22,0.0,0.0,0.0,0.60822,-0.17658,9.84924
2702020175,22.22,0.0,0.0,0.0,0.57879,-0.14715,9.84924
2707070680,22.22,0.0,0.0,0.0,0.5591700000000001,-0.15696000000000002,9.751140000000001
2712121185,22.22,0.0,0.0,0.0,0.56898,-0.12753,9.760950000000001
2717171690,22.22,0.0,0.0,0.0,0.56898,-0.14715,9.81
2722222195,22.22,0.0,0.0,0.0,0.60822,-0.14715,9.86886
2727272700,22.22,0.0,0.0,0.0,0.57879,-0.14715,9.85905
2732323205,22.22,0.0,0.0,0.0,0.57879,-0.15696000000000002,9.81
2737373710,22.22,0.0,0.0,0.0,0.57879,-0.17658,9.74133
2742424215,22.22,0.0,0.0,0.0,0.57879,-0.12753,9.79038
2747474720,22.22,0.0,0.0,0.0,0.5886,-0.16677000000000003,9.84924
2752525225,22.22,0.0,0.0,0.0,0.59841,-0.14715,9.84924
2757575730,22.22,0.0,0.0,0.0,0.59841,-0.15696000000000002,9.80019
2762626235,22.22,0.0,0.0,0.0,0.56898,-0.15696000000000002,9.78057
2767676740,22.22,0.0,0.0,0.0,0.57879,-0.14715,9.79038
2772727245,22.22,0.0,0.0,0.0,0.56898,-0.16677000000000003,9.83943
2777777750,22.22,0.0,0.0,0.0,0.5886,-0.13734000000000002,9.83943
2782828255,22.22,0.0,0.0,0.0,0.57879,-0.16677000000000003,9.80019
2787878760,22.22,0.0,0.0,0.0,0.57879,-0.14715,9.770760000000001
2792929265,22.22,0.0,0.0,0.0,0.57879,-0.15696000000000002,9.80019
2797979770,22.22,0.0,0.0,0.0,0.56898,-0.16677000000000003,9.83943
2803030275,22.22,0.0,0.0,0.0,0.56898,-0.13734000000000002,9.819809999999999
2808080780,22.22,0.0,0.0,0.0,0.5886,-0.14715,9.770760000000001
2813131285,22.22,0.0,0.0,0.0,0.59841,-0.13734000000000002,9.760950000000001
2818181790,22.22,0.0,0.0,0.0,0.57879,-0.16677000000000003,9.81
2823232295,22.22,0.0,0.0,0.0,0.57879,-0.13734000000000002,9.82962
2828282800,22.22,0.0,0.0,0.0,0.59841,-0.14715,9.819809999999999
2833333305,22.22,0.0,0.0,0.0,0.59841,-0.16677000000000003,9.80019
2838383810,22.22,0.0,0.0,0.0,0.59841,-0.17658,9.80019
2843434315,22.22,0.0,0.0,0.0,0.5886,-0.16677000000000003,9.82962
2848484820,22.22,0.0,0.0,0.0,0.56898,-0.14715,9.81
2853535325,22.22,0.0,0.0,0.0,0.57879,-0.16677000000000003,9.819809999999999
2858585830,22.22,0.0,0.0,0.0,0.5886,-0.15696000000000002,9.80019
2863636335,22.22,0.0,0.0,0.0,0.57879,-0.14715,9.80019
2868686840,22.22,0.0,0.0,0.0,0.60822,-0.17658,9.82962
2873737345,22.22,0.0,0.0,0.0,0.5886,-0.13734000000000002,9.819809999999999
2878787850,22.22,0.0,0.0,0.0,0.59841,-0.15696000000000002,9.819809999999999
2883838355,22.22,0.0,0.0,0.0,0.60822,-0.14715,9.79038
2888888860,22.22,0.0,0.0,0.0,0.5886,-0.14715,9.83943
2893939365,22.22,0.0,0.0,0.0,0.56898,-0.13734000000000002,9.819809999999999
2898989870,22.22,0.0,0.0,0.0,0.57879,-0.15696000000000002,9.819809999999999
2904040375,22.22,0.0,0.0,0.0,0.57879,-0.15696000000000002,9.78057
2909090880,22.22,0.0,0.0,0.0,0.6180300000000001,-0.13734000000000002,9.81
2914141385,22.22,0.0,0.0,0.0,0.57879,-0.13734000000000002,9.81
2919191890,22.22,0.0,0.0,0.0,0.59841,-0.16677000000000003,9.819809999999999
2924242395,22.22,0.0,0.0,0.0,0.5886,-0.17658,9.819809999999999
2929292900,22.22,0.0,0.0,0.0,0.56898,-0.14715,9.78057
2934343405,22.22,0.0,0.0,0.0,0.56898,-0.15696000000000002,9.79038
2939393910,22.22,0.0,0.0,0.0,0.57879,-0.14715,9.80019
2944444415,22.22,0.0,0.0,0.0,0.59841,-0.15696000000000002,9.819809999999999
2949494920,22.22,0.0,0.0,0.0,0.56898,-0.13734000000000002,9.81
2954545425,22.22,0.0,0.0,0.0,0.56898,-0.14715,9.81
2959595930,22.22,0.0,0.0,0.0,0.57879,-0.16677000000000003,9.819809999999999
2964646435,22.22,0.0,0.0,0.0,0.59841,-0.14715,9.83943
2969696940,22.22,0.0,0.0,0.0,0.57879,-0.14715,9.819809999999999
2974747445,22.22,0.0,0.0,0.0,0.56898,-0.14715,9.79038
2979797950,22.22,0.0,0.0,0.0,0.57879,-0.14715,9.770760000000001
2984848455,22.22,0.0,0.0,0.0,0.5886,-0.16677000000000003,9.819809999999999
2989898960,22.22,0.0,0.0,0.0,0.5886,-0.14715,9.819809999999999
2994949465,22.22,0.0,0.0,0.0,0.5886,-0.15696000000000002,9.819809999999999
2999999970,22.22,0.0,0.0,0.0,0.5886,-0.15696000000000002,9.78057
3005050475,22.22,0.0,0.0,0.0,0.5493600000000001,-0.14715,9.78057
3010100980,22.22,0.0,0.0,0.0,0.57879,-0.14715,9.79038
3015151485,22.22,0.0,0.0,0.0,0.59841,-0.16677000000000003,9.84924
3020201990,22.22,0.0,0.0,0.0,0.5886,-0.16677000000000003,9.82962
3025252495,22.22,0.0,0.0,0.0,0.60822,-0.15696000000000002,9.79038
3030303000,22.22,0.0,0.0,0.0,0.59841,-0.14715,9.78057
3035353505,22.22,0.0,0.0,0.0,0.60822,-0.14715,9.819809999999999
3040404010,22.22,0.0,0.0,0.0,0.5886,-0.15696000000000002,9.819809999999999
3045454515,22.22,0.0,0.0,0.0,0.5886,-0.13734000000000002,9.81
3050505020,22.22,0.0,0.0,0.0,0.60822,-0.17658,9.78057
3055555525,22.22,0.0,0.0,0.0,0.5886,-0.14715,9.78057
3060606030,22.22,0.0,0.0,0.0,0.59841,-0.17658,9.83943
3065656535,22.22,0.0,0.0,0.0,0.5886,-0.14715,9.81
3070707040,22.22,0.0,0.0,0.0,0.57879,-0.16677000000000003,9.81
3075757545,22.22,0.0,0.0,0.0,0.60822,-0.15696000000000002,9.78057
3080808050,22.22,0.0,0.0,0.0,0.5886,-0.14715,9.79038
3085858555,22.22,0.0,0.0,0.0,0.5886,-0.14715,9.80019
3090909060,22.22,0.0,0.0,0.0,0.57879,-0.13734000000000002,9.819809999999999
3095959565,22.22,0.0,0.0,0.0,0.59841,-0.14715,9.80019
3101010070,22.22,0.0,0.0,0.0,0.57879,-0.14715,9.80019
3106060575,22.22,0.0,0.0,0.0,0.5591700000000001,-0.14715,9.81
3111111080,22.22,0.0,0.0,0.0,0.59841,-0.15696000000000002,9.81
3116161585,22.22,0.0,0.0,0.0,0.5886,-0.13734000000000002,9.80019
3121212090,22.22,0.0,0.0,0.0,0.57879,-0.15696000000000002,9.79038
3126262595,22.22,0.0,0.0,0.0,0.59841,-0.15696000000000002,9.81
3131313100,22.22,0.0,0.0,0.0,0.5886,-0.13734000000000002,9.819809999999999
3136363605,22.22,0.0,0.0,0.0,0.60822,-0.15696000000000002,9.83943
3141414110,22.22,0.0,0.0,0.0,0.57879,-0.13734000000000002,9.80019
3146464615,22.22,0.0,0.0,0.0,0.5886,-0.14715,9.81
3151515120,22.22,0.0,0.0,0.0,0.6180300000000001,-0.15696000000000002,9.81
3156565625,22.22,0.0,0.0,0.0,0.5886,-0.15696000000000002,9.84924
3161616130,22.22,0.0,0.0,0.0,0.5886,-0.14715,9.819809999999999
3166666635,22.22,0.0,0.0,0.0,0.60822,-0.17658,9.78057
3171717140,22.22,0.0,0.0,0.0,0.56898,-0.14715,9.760950000000001
3176767645,22.22,0.0,0.0,0.0,0.59841,-0.16677000000000003,9.81
3181818150,22.22,0.0,0.0,0.0,0.5886,-0.14715,9.87867
3186868655,22.22,0.0,0.0,0.0,0.60822,-0.14715,9.82962
3191919160,22.22,0.0,0.0,0.0,0.56898,-0.15696000000000002,9.770760000000001
3196969665,22.22,0.0,0.0,0.0,0.5886,-0.12753,9.751140000000001
3202020170,22.22,0.0,0.0,0.0,0.57879,-0.16677000000000003,9.82962
3207070675,22.22,0.0,0.0,0.0,0.59841,-0.15696000000000002,9.84924
3212121180,22.22,0.0,0.0,0.0,0.59841,-0.15696000000000002,9.86886
3217171685,22.22,0.0,0.0,0.0,0.57879,-0.14715,9.760950000000001
3222222190,22.22,0.0,0.0,0.0,0.5886,-0.15696000000000002,9.751140000000001
3227272695,22.22,0.0,0.0,0.0,0.5886,-0.16677000000000003,9.83943
3232323200,22.22,0.0,0.0,0.0,0.57879,-0.15696000000000002,9.83943
3237373705,22.22,0.0,0.0,0.0,0.57879,-0.14715,9.84924
3242424210,22.22,0.0,0.0,0.0,0.5886,-0.16677000000000003,9.80019
3247474715,22.22,0.0,0.0,0.0,0.59841,-0.16677000000000003,9.74133
3252525220,22.22,0.0,0.0,0.0,0.60822,-0.13734000000000002,9.80019
3257575725,22.22,0.0,0.0,0.0,0.56898,-0.16677000000000003,9.86886
3262626230,22.22,0.0,0.0,0.0,0.60822,-0.16677000000000003,9.85905
3267676735,22.22,0.0,0.0,0.0,0.57879,-0.14715,9.78057
3272727240,22.22,0.0,0.0,0.0,0.57879,-0.14715,9.78057
3277777745,22.22,0.0,0.0,0.0,0.60822,-0.14715,9.80019
3282828250,22.22,0.0,0.0,0.0,0.57879,-0.16677000000000003,9.82962
3287878755,22.22,0.0,0.0,0.0,0.57879,-0.12753,9.819809999999999
3292929260,22.22,0.0,0.0,0.0,0.57879,-0.16677000000000003,9.79038
3297979765,22.22,0.0,0.0,0.0,0.5886,-0.15696000000000002,9.79038
3303030270,22.22,0.0,0.0,0.0,0.57879,-0.14715,9.81
3308080775,22.22,0.0,0.0,0.0,0.5886,-0.15696000000000002,9.81
3313131280,22.22,0.0,0.0,0.0,0.59841,-0.17658,9.80019
3318181785,22.22,0.0,0.0,0.0,0.5886,-0.12753,9.79038
3323232290,22.22,0.0,0.0,0.0,0.59841,-0.16677000000000003,9.79038
3328282795,22.22,0.0,0.0,0.0,0.5886,-0.14715,9.84924
3333333300,22.22,0.0,0.0,0.0,0.60822,-0.14715,9.85905
3338383805,22.22,0.0,0.0,0.0,0.57879,-0.14715,9.80019
3343434310,22.22,0.0,0.0,0.0,0.6180300000000001,-0.14715,9.79038
3348484815,22.22,0.0,0.0,0.0,0.59841,-0.18639,9.80019
3353535320,22.22,0.0,0.0,0.0,0.57879,-0.13734000000000002,9.82962
3358585825,22.22,0.0,0.0,0.0,0.5886,-0.14715,9.81
3363636330,22.22,0.0,0.0,0.0,0.59841,-0.13734000000000002,9.81
3368686835,22.22,0.0,0.0,0.0,0.57879,-0.14715,9.81
3373737340,22.22,0.0,0.0,0.0,0.59841,-0.15696000000000002,9.81
3378787845,22.22,0.0,0.0,0.0,0.5886,-0.12753,9.82962
3383838350,22.22,0.0,0.0,0.0,0.56898,-0.15696000000000002,9.79038
3388888855,22.22,0.0,0.0,0.0,0.5591700000000001,-0.15696000000000002,9.78057
3393939360,22.22,0.0,0.0,0.0,0.56898,-0.18639,9.81
3398989865,22.22,0.0,0.0,0.0,0.5886,-0.15696000000000002,9.81
3404040370,22.22,0.0,0.0,0.0,0.5886,-0.14715,9.80019
3409090875,22.22,0.0,0.0,0.0,0.5886,-0.17658,9.80019
3414141380,22.22,0.0,0.0,0.0,0.57879,-0.13734000000000002,9.81
3419191885,22.22,0.0,0.0,0.0,0.59841,-0.15696000000000002,9.81
3424242390,22.22,0.0,0.0,0.0,0.56898,-0.12753,9.81
3429292895,22.22,0.0,0.0,0.0,0.57879,-0.17658,9.81
3434343400,22.22,0.0,0.0,0.0,0.5886,-0.13734000000000002,9.81
3439393905,22.22,0.0,0.0,0.0,0.57879,-0.15696000000000002,9.80019
3444444410,22.22,0.0,0.0,0.0,0.59841,-0.14715,9.82962
3449494915,22.22,0.0,0.0,0.0,0.57879,-0.14715,9.819809999999999
3454545420,22.22,0.0,0.0,0.0,0.5886,-0.14715,9.82962
3459595925,22.22,0.0,0.0,0.0,0.5886,-0.17658,9.80019
3464646430,22.22,0.0,0.0,0.0,0.59841,-0.16677000000000003,9.84924
3469696935,22.22,0.0,0.0,0.0,0.5886,-0.14715,9.85905
3474747440,22.22,0.0,0.0,0.0,0.60822,-0.14715,9.819809999999999
3479797945,22.22,0.0,0.0,0.0,0.59841,-0.16677000000000003,9.79038
3484848450,22.22,0.0,0.0,0.0,0.5886,-0.13734000000000002,9.78057
3489898955,22.22,0.0,0.0,0.0,0.5886,-0.16677000000000003,9.78057
3494949460,22.22,0.0,0.0,0.0,0.60822,-0.15696000000000002,9.82962
3499999965,22.22,0.0,0.0,0.0,0.59841,-0.17658,9.84924
3505050470,22.22,0.0,0.0,0.0,0.57879,-0.16677000000000003,9.819809999999999
3510100975,22.22,0.0,0.0,0.0,0.5886,-0.15696000000000002,9.760950000000001
3515151480,22.22,0.0,0.0,0.0,0.57879,-0.16677000000000003,9.751140000000001
3520201985,22.22,0.0,0.0,0.0,0.59841,-0.13734000000000002,9.81
3525252490,22.22,0.0,0.0,0.0,0.56898,-0.14715,9.85905
3530302995,22.22,0.0,0.0,0.0,0.57879,-0.17658,9.82962
3535353500,22.22,0.0,0.0,0.0,0.5886,-0.14715,9.79038
3540404005,22.22,0.0,0.0,0.0,0.5591700000000001,-0.14715,9.79038
3545454510,22.22,0.0,0.0,0.0,0.5886,-0.14715,9.81
3550505015,22.22,0.0,0.0,0.0,0.57879,-0.15696000000000002,9.81
3555555520,22.22,0.0,0.0,0.0,0.5886,-0.13734000000000002,9.81
3560606025,22.22,0.0,0.0,0.0,0.60822,-0.15696000000000002,9.79038
3565656530,22.22,0.0,0.0,0.0,0.57879,-0.14715,9.80019
3570707035,22.22,0.0,0.0,0.0,0.57879,-0.16677000000000003,9.80019
3575757540,22.22,0.0,0.0,0.0,0.59841,-0.14715,9.82962
3580808045,22.22,0.0,0.0,0.0,0.59841,-0.13734000000000002,9.819809999999999
3585858550,22.22,0.0,0.0,0.0,0.56898,-0.17658,9.81
3590909055,22.22,0.0,0.0,0.0,0.60822,-0.15696000000000002,9.80019
3595959560,22.22,0.0,0.0,0.0,0.60822,-0.15696000000000002,9.80019
3601010065,22.22,0.0,0.0,0.0,0.5886,-0.15696000000000002,9.78057
3606060570,22.22,0.0,0.0,0.0,0.59841,-0.17658,9.83943
3611111075,22.22,0.0,0.0,0.0,0.56898,-0.15696000000000002,9.819809999999999
3616161580,22.22,0.0,0.0,0.0,0.57879,-0.15696000000000002,9.82962
3621212085,22.22,0.0,0.0,0.0,0.5886,-0.14715,9.770760000000001
3626262590,22.22,0.0,0.0,0.0,0.57879,-0.14715,9.79038
3631313095,22.22,0.0,0.0,0.0,0.59841,-0.14715,9.819809999999999
3636363600,22.22,0.0,0.0,0.0,0.56898,-0.13734000000000002,9.84924
3641414105,22.22,0.0,0.0,0.0,0.5886,-0.14715,9.81
3646464610,22.22,0.0,0.0,0.0,0.56898,-0.14715,9.760950000000001
3651515115,22.22,0.0,0.0,0.0,0.57879,-0.15696000000000002,9.74133
3656565620,22.22,0.0,0.0,0.0,0.59841,-0.15696000000000002,9.81
3661616125,22.22,0.0,0.0,0.0,0.5886,-0.17658,9.85905
3666666630,22.22,0.0,0.0,0.0,0.5886,-0.15696000000000002,9.83943
3671717135,22.22,0.0,0.0,0.0,0.57879,-0.15696000000000002,9.770760000000001
3676767640,22.22,0.0,0.0,0.0,0.56898,-0.16677000000000003,9.760950000000001
3681818145,22.22,0.0,0.0,0.0,0.5591700000000001,-0.16677000000000003,9.80019
3686868650,22.22,0.0,0.0,0.0,0.56898,-0.12753,9.83943
3691919155,22.22,0.0,0.0,0.0,0.57879,-0.14715,9.82962
3696969660,22.22,0.0,0.0,0.0,0.56898,-0.12753,9.79038
3702020165,22.22,0.0,0.0,0.0,0.5591700000000001,-0.16677000000000003,9.760950000000001
3707070670,22.22,0.0,0.0,0.0,0.57879,-0.15696000000000002,9.80019
3712121175,22.22,0.0,0.0,0.0,0.57879,-0.16677000000000003,9.82962
3717171680,22.22,0.0,0.0,0.0,0.5886,-0.15696000000000002,9.82962
3722222185,22.22,0.0,0.0,0.0,0.60822,-0.14715,9.81
3727272690,22.22,0.0,0.0,0.0,0.59841,-0.14715,9.78057
3732323195,22.22,0.0,0.0,0.0,0.59841,-0.15696000000000002,9.81
3737373700,22.22,0.0,0.0,0.0,0.59841,-0.15696000000000002,9.84924
3742424205,22.22,0.0,0.0,0.0,0.59841,-0.13734000000000002,9.82962
3747474710,22.22,0.0,0.0,0.0,0.5886,-0.15696000000000002,9.78057
3752525215,22.22,0.0,0.0,0.0,0.59841,-0.14715,9.74133
3757575720,22.22,0.0,0.0,0.0,0.5886,-0.16677000000000003,9.79038
3762626225,22.22,0.0,0.0,0.0,0.5591700000000001,-0.15696000000000002,9.82962
3767676730,22.22,0.0,0.0,0.0,0.60822,-0.15696000000000002,9.85905
3772727235,22.22,0.0,0.0,0.0,0.57879,-0.14715,9.80019
3777777740,22.22,0.0,0.0,0.0,0.5886,-0.12753,9.79038
3782828245,22.22,0.0,0.0,0.0,0.59841,-0.12753,9.770760000000001
3787878750,22.22,0.0,0.0,0.0,0.5591700000000001,-0.13734000000000002,9.82962
3792929255,22.22,0.0,0.0,0.0,0.59841,-0.13734000000000002,9.82962
3797979760,22.22,0.0,0.0,0.0,0.60822,-0.14715,9.819809999999999
3803030265,22.22,0.0,0.0,0.0,0.60822,-0.15696000000000002,9.770760000000001
3808080770,22.22,0.0,0.0,0.0,0.60822,-0.14715,9.79038
3813131275,22.22,0.0,0.0,0.0,0.60822,-0.14715,9.81
3818181780,22.22,0.0,0.0,0.0,0.5886,-0.15696000000000002,9.81
3823232285,22.22,0.0,0.0,0.0,0.5886,-0.14715,9.83943
3828282790,22.22,0.0,0.0,0.0,0.5886,-0.13734000000000002,9.81
3833333295,22.22,0.0,0.0,0.0,0.59841,-0.16677000000000003,9.819809999999999
3838383800,22.22,0.0,0.0,0.0,0.59841,-0.15696000000000002,9.79038
3843434305,22.22,0.0,0.0,0.0,0.56898,-0.15696000000000002,9.80019
3848484810,22.22,0.0,0.0,0.0,0.5886,-0.14715,9.80019
3853535315,22.22,0.0,0.0,0.0,0.57879,-0.14715,9.82962
3858585820,22.22,0.0,0.0,0.0,0.59841,-0.14715,9.81
3863636325,22.22,0.0,0.0,0.0,0.5886,-0.15696000000000002,9.80019
3868686830,22.22,0.0,0.0,0.0,0.5886,-0.15696000000000002,9.78057
3873737335,22.22,0.0,0.0,0.0,0.56898,-0.18639,9.81
3878787840,22.22,0.0,0.0,0.0,0.59841,-0.15696000000000002,9.83943
3883838345,22.22,0.0,0.0,0.0,0.57879,-0.17658,9.81
3888888850,22.22,0.0,0.0,0.0,0.57879,-0.13734000000000002,9.79038
3893939355,22.22,0.0,0.0,0.0,0.60822,-0.15696000000000002,9.770760000000001
3898989860,22.22,0.0,0.0,0.0,0.5886,-0.15696000000000002,9.80019
3904040365,22.22,0.0,0.0,0.0,0.57879,-0.13734000000000002,9.85905
3909090870,22.22,0.0,0.0,0.0,0.5886,-0.17658,9.80019
3914141375,22.22,0.0,0.0,0.0,0.57879,-0.15696000000000002,9.78057
3919191880,22.22,0.0,0.0,0.0,0.59841,-0.15696000000000002,9.770760000000001
3924242385,22.22,0.0,0.0,0.0,0.56898,-0.14715,9.80019
3929292890,22.22,0.0,0.0,0.0,0.56898,-0.14715,9.82962
3934343395,22.22,0.0,0.0,0.0,0.59841,-0.15696000000000002,9.84924
3939393900,22.22,0.0,0.0,0.0,0.56898,-0.14715,9.770760000000001
3944444405,22.22,0.0,0.0,0.0,0.56898,-0.15696000000000002,9.79038
3949494910,22.22,0.0,0.0,0.0,0.57879,-0.16677000000000003,9.819809999999999
3954545415,22.22,0.0,0.0,0.0,0.59841,-0.17658,9.83943
3959595920,22.22,0.0,0.0,0.0,0.57879,-0.16677000000000003,9.80019
3964646425,22.22,0.0,0.0,0.0,0.5886,-0.16677000000000003,9.78057
3969696930,22.22,0.0,0.0,0.0,0.60822,-0.14715,9.79038
3974747435,22.22,0.0,0.0,0.0,0.5886,-0.14715,9.82962
3979797940,22.22,0.0,0.0,0.0,0.59841,-0.14715,9.81
3984848445,22.22,0.0,0.0,0.0,0.57879,-0.14715,9.78057
3989898950,22.22,0.0,0.0,0.0,0.60822,-0.13734000000000002,9.770760000000001
3994949455,22.22,0.0,0.0,0.0,0.59841,-0.17658,9.80019
3999999960,22.22,0.0,0.0,0.0,0.57879,-0.13734000000000002,9.83943
4005050465,22.22,0.0,0.0,0.0,0.57879,-0.15696000000000002,9.819809999999999
4010100970,22.22,0.0,0.0,0.0,0.56898,-0.14715,9.81
4015151475,22.22,0.0,0.0,0.0,0.57879,-0.14715,9.79038
4020201980,22.22,0.0,0.0,0.0,0.5886,-0.15696000000000002,9.819809999999999
4025252485,22.22,0.0,0.0,0.0,0.5886,-0.15696000000000002,9.81
4030302990,22.22,0.0,0.0,0.0,0.5591700000000001,-0.15696000000000002,9.78057
4035353495,22.22,0.0,0.0,0.0,0.59841,-0.14715,9.81
4040404000,22.22,0.0,0.0,0.0,0.57879,-0.13734000000000002,9.81
4045454505,22.22,0.0,0.0,0.0,0.60822,-0.15696000000000002,9.81
4050505010,22.22,0.0,0.0,0.0,0.56898,-0.14715,9.819809999999999
4055555515,22.22,0.0,0.0,0.0,0.5886,-0.14715,9.81
4060606020,22.22,0.0,0.0,0.0,0.57879,-0.15696000000000002,9.78057
4065656525,22.22,0.0,0.0,0.0,0.57879,-0.14715,9.819809999999999
4070707030,22.22,0.0,0.0,0.0,0.5886,-0.16677000000000003,9.82962
4075757535,22.22,0.0,0.0,0.0,0.5886,-0.13734000000000002,9.819809999999999
4080808040,22.22,0.0,0.0,0.0,0.59841,-0.14715,9.80019
4085858545,22.22,0.0,0.0,0.0,0.5886,-0.15696000000000002,9.770760000000001
4090909050,22.22,0.0,0.0,0.0,0.5886,-0.14715,9.80019
4095959555,22.22,0.0,0.0,0.0,0.5886,-0.15696000000000002,9.819809999999999
4101010060,22.22,0.0,0.0,0.0,0.60822,-0.16677000000000003,9.81
4106060565,22.22,0.0,0.0,0.0,0.57879,-0.14715,9.80019
4111111070,22.22,0.0,0.0,0.0,0.57879,-0.14715,9.81
4116161575,22.22,0.0,0.0,0.0,0.56898,-0.13734000000000002,9.83943
4121212080,22.22,0.0,0.0,0.0,0.59841,-0.15696000000000002,9.819809999999999
4126262585,22.22,0.0,0.0,0.0,0.5886,-0.14715,9.80019
4131313090,22.22,0.0,0.0,0.0,0.57879,-0.16677000000000003,9.78057
4136363595,22.22,0.0,0.0,0.0,0.5886,-0.13734000000000002,9.81
4141414100,22.22,0.0,0.0,0.0,0.59841,-0.18639,9.87867
4146464605,22.22,0.0,0.0,0.0,0.5886,-0.15696000000000002,9.81
4151515110,22.22,0.0,0.0,0.0,0.59841,-0.13734000000000002,9.819809999999999
4156565615,22.22,0.0,0.0,0.0,0.57879,-0.14715,9.770760000000001
4161616120,22.22,0.0,0.0,0.0,0.56898,-0.13734000000000002,9.78057
4166666625,22.22,0.0,0.0,0.0,0.60822,-0.14715,9.84924
4171717130,22.22,0.0,0.0,0.0,0.60822,-0.17658,9.86886
4176767635,22.22,0.0,0.0,0.0,0.60822,-0.13734000000000002,9.80019
4181818140,22.22,0.0,0.0,0.0,0.60822,-0.18639,9.770760000000001
4186868645,22.22,0.0,0.0,0.0,0.60822,-0.17658,9.78057
4191919150,22.22,0.0,0.0,0.0,0.57879,-0.16677000000000003,9.82962
4196969655,22.22,0.0,0.0,0.0,0.59841,-0.13734000000000002,9.83943
4202020160,22.22,0.0,0.0,0.0,0.57879,-0.15696000000000002,9.82962
4207070665,22.22,0.0,0.0,0.0,0.57879,-0.15696000000000002,9.760950000000001
4212121170,22.22,0.0,0.0,0.0,0.56898,-0.13734000000000002,9.78057
4217171675,22.22,0.0,0.0,0.0,0.57879,-0.14715,9.83943
4222222180,22.22,0.0,0.0,0.0,0.59841,-0.16677000000000003,9.82962
4227272685,22.22,0.0,0.0,0.0,0.5886,-0.18639,9.83943
4232323190,22.22,0.0,0.0,0.0,0.57879,-0.15696000000000002,9.81
4237373695,22.22,0.0,0.0,0.0,0.60822,-0.14715,9.79038
4242424200,22.22,0.0,0.0,0.0,0.60822,-0.14715,9.83943
4247474705,22.22,0.0,0.0,0.0,0.5591700000000001,-0.0981,9.83943
4252525210,22.22,0.0,0.0,0.0,0.57879,-0.14715,9.81
4257575715,22.22,0.0,0.0,0.0,0.57879,-0.13734000000000002,9.79038
4262626220,22.22,0.0,0.0,0.0,0.5886,-0.17658,9.79038
4267676725,22.22,0.0,0.0,0.0,0.5886,-0.15696000000000002,9.81
4272727230,22.22,0.0,0.0,0.0,0.60822,-0.14715,9.82962
4277777735,22.22,0.0,0.0,0.0,0.59841,-0.14715,9.85905
4282828240,22.22,0.0,0.0,0.0,0.59841,-0.15696000000000002,9.82962
4287878745,22.22,0.0,0.0,0.0,0.57879,-0.15696000000000002,9.770760000000001
4292929250,22.22,0.0,0.0,0.0,0.5493600000000001,-0.14715,9.760950000000001
4297979755,22.22,0.0,0.0,0.0,0.57879,-0.15696000000000002,9.819809999999999
4303030260,22.22,0.0,0.0,0.0,0.59841,-0.17658,9.85905
4308080765,22.22,0.0,0.0,0.0,0.56898,-0.15696000000000002,9.85905
4313131270,22.22,0.0,0.0,0.0,0.57879,-0.14715,9.81
4318181775,22.22,0.0,0.0,0.0,0.59841,-0.16677000000000003,9.760950000000001
4323232280,22.22,0.0,0.0,0.0,0.57879,-0.13734000000000002,9.770760000000001
4328282785,22.22,0.0,0.0,0.0,0.5886,-0.16677000000000003,9.82962
4333333290,22.22,0.0,0.0,0.0,0.59841,-0.13734000000000002,9.87867
4338383795,22.22,0.0,0.0,0.0,0.59841,-0.12753,9.81
4343434300,22.22,0.0,0.0,0.0,0.5886,-0.15696000000000002,9.770760000000001
4348484805,22.22,0.0,0.0,0.0,0.57879,-0.16677000000000003,9.74133
4353535310,22.22,0.0,0.0,0.0,0.5886,-0.17658,9.81
4358585815,22.22,0.0,0.0,0.0,0.5886,-0.14715,9.84924
4363636320,22.22,0.0,0.0,0.0,0.5886,-0.14715,9.819809999999999
4368686825,22.22,0.0,0.0,0.0,0.60822,-0.16677000000000003,9.80019
4373737330,22.22,0.0,0.0,0.0,0.5886,-0.13734000000000002,9.770760000000001
4378787835,22.22,0.0,0.0,0.0,0.59841,-0.15696000000000002,9.80019
4383838340,22.22,0.0,0.0,0.0,0.59841,-0.14715,9.85905
4388888845,22.22,0.0,0.0,0.0,0.5886,-0.15696000000000002,9.82962
4393939350,22.22,0.0,0.0,0.0,0.5886,-0.17658,9.78057
4398989855,22.22,0.0,0.0,0.0,0.5886,-0.16677000000000003,9.760950000000001
4404040360,22.22,0.0,0.0,0.0,0.5591700000000001,-0.15696000000000002,9.79038
4409090865,22.22,0.0,0.0,0.0,0.59841,-0.16677000000000003,9.83943
4414141370,22.22,0.0,0.0,0.0,0.57879,-0.17658,9.83943
4419191875,22.22,0.0,0.0,0.0,0.5886,-0.14715,9.79038
4424242380,22.22,0.0,0.0,0.0,0.57879,-0.14715,9.770760000000001
4429292885,22.22,0.0,0.0,0.0,0.57879,-0.14715,9.79038
4434343390,22.22,0.0,0.0,0.0,0.59841,-0.16677000000000003,9.81
4439393895,22.22,0.0,0.0,0.0,0.59841,-0.15696000000000002,9.84924
4444444400,22.22,0.0,0.0,0.0,0.5591700000000001,-0.13734000000000002,9.80019
4449494905,22.22,0.0,0.0,0.0,0.56898,-0.15696000000000002,9.81
4454545410,22.22,0.0,0.0,0.0,0.5591700000000001,-0.14715,9.79038
4459595915,22.22,0.0,0.0,0.0,0.6180300000000001,-0.15696000000000002,9.81
4464646420,22.22,0.0,0.0,0.0,0.60822,-0.15696000000000002,9.83943
4469696925,22.22,0.0,0.0,0.0,0.57879,-0.14715,9.80019
4474747430,22.22,0.0,0.0,0.0,0.60822,-0.12753,9.80019
4479797935,22.22,0.0,0.0,0.0,0.5886,-0.14715,9.81
4484848440,22.22,0.0,0.0,0.0,0.5886,-0.17658,9.81
4489898945,22.22,0.0,0.0,0.0,0.57879,-0.15696000000000002,9.80019
4494949450,22.22,0.0,0.0,0.0,0.5886,-0.17658,9.819809999999999
4499999955,22.22,0.0,0.0,0.0,0.57879,-0.16677000000000003,9.819809999999999
4505050460,22.22,0.0,0.0,0.0,0.5591700000000001,-0.14715,9.81
4510100965,22.22,0.0,0.0,0.0,0.5886,-0.14715,9.78057
4515151470,22.22,0.0,0.0,0.0,0.57879,-0.14715,9.80019
4520201975,22.22,0.0,0.0,0.0,0.59841,-0.15696000000000002,9.82962
4525252480,22.22,0.0,0.0,0.0,0.5886,-0.15696000000000002,9.82962
4530302985,22.22,0.0,0.0,0.0,0.5886,-0.16677000000000003,9.82962
4535353490,22.22,0.0,0.0,0.0,0.60822,-0.15696000000000002,9.770760000000001
4540403995,22.22,0.0,0.0,0.0,0.59841,-0.16677000000000003,9.78057
4545454500,22.22,0.0,0.0,0.0,0.5886,-0.12753,9.84924
4550505005,22.22,0.0,0.0,0.0,0.60822,-0.13734000000000002,9.83943
4555555510,22.22,0.0,0.0,0.0,0.56898,-0.15696000000000002,9.819809999999999
4560606015,22.22,0.0,0.0,0.0,0.5886,-0.13734000000000002,9.751140000000001
4565656520,22.22,0.0,0.0,0.0,0.56898,-0.16677000000000003,9.78057
4570707025,22.22,0.0,0.0,0.0,0.60822,-0.11772,9.83943
4575757530,22.22,0.0,0.0,0.0,0.60822,-0.14715,9.85905
4580808035,22.22,0.0,0.0,0.0,0.5886,-0.15696000000000002,9.81
4585858540,22.22,0.0,0.0,0.0,0.5886,-0.12753,9.751140000000001
4590909045,22.22,0.0,0.0,0.0,0.5886,-0.13734000000000002,9.74133
4595959550,22.22,0.0,0.0,0.0,0.57879,-0.13734000000000002,9.80019
4601010055,22.22,0.0,0.0,0.0,0.60822,-0.14715,9.82962
4606060560,22.22,0.0,0.0,0.0,0.57879,-0.12753,9.84924
4611111065,22.22,0.0,0.0,0.0,0.5886,-0.12753,9.78057
4616161570,22.22,0.0,0.0,0.0,0.59841,-0.12753,9.73152
4621212075,22.22,0.0,0.0,0.0,0.57879,-0.14715,9.78057
4626262580,22.22,0.0,0.0,0.0,0.57879,-0.13734000000000002,9.86886
4631313085,22.22,0.0,0.0,0.0,0.59841,-0.13734000000000002,9.83943
4636363590,22.22,0.0,0.0,0.0,0.5886,-0.14715,9.81
4641414095,22.22,0.0,0.0,0.0,0.57879,-0.16677000000000003,9.73152
4646464600,22.22,0.0,0.0,0.0,0.57879,-0.18639,9.79038
4651515105,22.22,0.0,0.0,0.0,0.59841,-0.18639,9.888480000000001
4656565610,22.22,0.0,0.0,0.0,0.57879,-0.17658,9.89829
4661616115,22.22,0.0,0.0,0.0,0.5886,-0.16677000000000003,9.81
4666666620,22.22,0.0,0.0,0.0,0.59841,-0.16677000000000003,9.74133
4671717125,22.22,0.0,0.0,0.0,0.56898,-0.1962,9.751140000000001
4676767630,22.22,0.0,0.0,0.0,0.57879,-0.17658,9.85905
4681818135,22.22,0.0,0.0,0.0,0.60822,-0.16677000000000003,9.85905
4686868640,22.22,0.0,0.0,0.0,0.59841,-0.12753,9.81
4691919145,22.22,0.0,0.0,0.0,0.5493600000000001,-0.16677000000000003,9.751140000000001
4696969650,22.22,0.0,0.0,0.0,0.56898,-0.13734000000000002,9.74133
4702020155,22.22,0.0,0.0,0.0,0.5591700000000001,-0.13734000000000002,9.81
4707070660,22.22,0.0,0.0,0.0,0.57879,-0.15696000000000002,9.82962
4712121165,22.22,0.0,0.0,0.0,0.56898,-0.12753,9.81
4717171670,22.22,0.0,0.0,0.0,0.5886,-0.13734000000000002,9.770760000000001
4722222175,22.22,0.0,0.0,0.0,0.57879,-0.12753,9.751140000000001
4727272680,22.22,0.0,0.0,0.0,0.59841,-0.15696000000000002,9.760950000000001
4732323185,22.22,0.0,0.0,0.0,0.59841,-0.14715,9.80019
4737373690,22.22,0.0,0.0,0.0,0.60822,-0.16677000000000003,9.84924
4742424195,22.22,0.0,0.0,0.0,0.57879,-0.15696000000000002,9.79038
4747474700,22.22,0.0,0.0,0.0,0.60822,-0.14715,9.78057
4752525205,22.22,0.0,0.0,0.0,0.56898,-0.15696000000000002,9.78057
4757575710,22.22,0.0,0.0,0.0,0.5886,-0.15696000000000002,9.81
4762626215,22.22,0.0,0.0,0.0,0.5591700000000001,-0.15696000000000002,9.83943
4767676720,22.22,0.0,0.0,0.0,0.59841,-0.11772,9.82962
4772727225,22.22,0.0,0.0,0.0,0.57879,-0.11772,9.78057
4777777730,22.22,0.0,0.0,0.0,0.57879,-0.10791,9.70209
4782828235,22.22,0.0,0.0,0.0,0.5886,-0.12753,9.74133
4787878740,22.22,0.0,0.0,0.0,0.6278400000000001,-0.11772,9.79038
4792929245,22.22,-0.007452555906015787,0.001064650843716541,0.005323254218582705,0.5886,-0.10791,9.819809999999999
4797979750,22.22,-0.004258603374866164,0.007452555906015787,-0.002129301687433082,0.60822,-0.12753,9.72171
4803030255,22.22,-0.004258603374866164,0.004258603374866164,0.0,0.56898,-0.0981,9.80019
4808080760,22.22,-0.003193952531149623,0.004258603374866164,0.001064650843716541,0.57879,-0.11772,9.73152
4813131265,22.22,-0.012775810124598492,-0.002129301687433082,-0.004258603374866164,0.56898,-0.12753,9.80019
4818181770,22.22,-0.012775810124598492,-0.0,-0.002129301687433082,0.59841,-0.15696000000000002,9.89829
4823232275,22.22,-0.013840460968315033,0.001064650843716541,0.0,0.5886,-0.18639,9.888480000000001
4828282780,22.22,-0.015987215948268057,0.001064650843716541,0.002129301687433082,0.60822,-0.22563,9.97677
4833333285,22.22,-0.01918116847941768,0.004258603374866164,-0.001064650843716541,0.57879,-0.21582,9.80019
4838383790,22.22,-0.011711159280881954,-0.0,-0.004258603374866164,0.60822,-0.26487,9.7119
4843434295,22.22,-0.002129301687433082,0.00958185759344887,0.001064650843716541,0.57879,-0.20601000000000003,9.819809999999999
4848484800,22.22,0.0,0.01064650843716541,0.003193952531149623,0.56898,-0.20601000000000003,9.99639
4853535305,22.22,-0.001064650843716541,0.011711159280881954,-0.003193952531149623,0.56898,-0.18639,9.97677
4858585810,22.22,-0.004258603374866164,0.011711159280881954,-0.001064650843716541,0.56898,-0.20601000000000003,9.83943
4863636315,22.22,-0.001064650843716541,0.007452555906015787,0.003193952531149623,0.5395500000000001,-0.1962,9.67266
4868686820,22.22,0.005323254218582705,0.0,0.0,0.5493600000000001,-0.15696000000000002,9.68247
4873737325,22.22,0.01064650843716541,-0.007452555906015787,0.001064650843716541,0.56898,-0.17658,9.96696
4878787830,22.22,0.007452555906015787,-0.001064650843716541,0.0,0.5591700000000001,-0.12753,9.908100000000001
4883838335,22.22,0.00958185759344887,-0.007452555906015787,-0.003193952531149623,0.5591700000000001,-0.12753,9.73152
4888888840,22.22,0.007452555906015787,-0.004258603374866164,0.0,0.5591700000000001,-0.11772,9.64323
4893939345,22.22,0.001064650843716541,-0.004258603374866164,-0.002129301687433082,0.5493600000000001,-0.08829,9.67266
4898989850,22.22,0.0,-0.004258603374866164,-0.001064650843716541,0.5591700000000001,-0.0981,9.74133
4904040355,22.22,0.0,-0.005323254218582705,0.0,0.57879,-0.0981,9.83943
4909090860,22.22,-0.001064650843716541,-0.008517206749732328,0.0,0.5591700000000001,-0.0981,9.78057
4914141365,22.22,-0.003193952531149623,-0.015987215948268057,0.0,0.57879,-0.12753,9.69228
4919191870,22.22,-0.006387905062299246,-0.022375121010567305,-0.002129301687433082,0.59841,-0.11772,9.67266
4924242375,22.22,-0.011711159280881954,-0.012775810124598492,-0.002129301687433082,0.6278400000000001,-0.0981,9.73152
4929292880,22.22,-0.001064650843716541,-0.011711159280881954,0.003193952531149623,0.6180300000000001,-0.08829,9.81
4934343385,22.22,-0.008517206749732328,-0.005323254218582705,0.0,0.5886,-0.10791,9.7119
4939393890,22.22,-0.012775810124598492,-0.014905111812031574,0.004258603374866164,0.5886,-0.13734000000000002,9.58437
4944444395,22.22,-0.013840460968315033,0.001064650843716541,-0.004258603374866164,0.6768900000000001,-0.10791,9.7119
4949494900,22.22,-0.012775810124598492,-0.002129301687433082,-0.008517206749732328,0.6768900000000001,-0.08829,10.01601
4954545405,22.22,-0.012775810124598492,0.008517206749732328,0.007452555906015787,0.69651,-0.12753,9.96696
4959595910,22.22,-0.021310470166850764,0.011711159280881954,-0.001064650843716541,0.6180300000000001,-0.17658,9.79038
4964646415,22.22,-0.022375121010567305,0.002129301687433082,-0.008517206749732328,0.6180300000000001,-0.18639,9.73152
4969696920,22.22,-0.021310470166850764,0.011711159280881954,-0.001064650843716541,0.6180300000000001,-0.21582,9.86886
4974747425,22.22,-0.0170518667919846,0.015987215948268057,0.004258603374866164,0.63765,-0.23544,9.97677
4979797930,22.22,-0.022375121010567305,0.028763026072866547,0.002129301687433082,0.60822,-0.2943,10.05525
4984848435,22.22,-0.023439771854283843,0.021310470166850764,-0.001064650843716541,0.60822,-0.25506,9.92772
4989898940,22.22,-0.022375121010567305,0.0170518667919846,-0.001064650843716541,0.5395500000000001,-0.28449,9.85905
4994949445,22.22,-0.014905111812031574,0.0170518667919846,0.0,0.56898,-0.31392000000000003,9.888480000000001
4999999950,22.22,-0.006387905062299246,0.020245819323134222,-0.005323254218582705,0.5493600000000001,-0.31392000000000003,9.92772
5005050455,22.22,-0.002129301687433082,0.02663372438543347,0.0,0.5395500000000001,-0.24525000000000002,9.92772
5010100960,22.22,0.005323254218582705,0.01918116847941768,0.004258603374866164,0.47088,-0.21582,9.751140000000001
5015151465,22.22,0.007452555906015787,0.013840460968315033,0.001064650843716541,0.50031,-0.20601000000000003,9.760950000000001
5020201970,22.22,0.007452555906015787,-0.002129301687433082,-0.004258603374866164,0.47088,-0.16677000000000003,9.78057
5025252475,22.22,0.011711159280881954,-0.006387905062299246,-0.001064650843716541,0.51993,-0.12753,9.81
5030302980,22.22,0.01811651763570114,-0.008517206749732328,0.0,0.50031,-0.06867000000000001,9.74133
5035353485,22.22,0.022375121010567305,-0.014905111812031574,0.001064650843716541,0.48069000000000006,-0.05886,9.623610000000001
5040403990,22.22,0.015987215948268057,-0.0170518667919846,0.0,0.49050000000000005,-0.06867000000000001,9.65304
5045454495,22.22,0.006387905062299246,-0.03089232776029963,-0.003193952531149623,0.51012,-0.019620000000000002,9.60399
5050505000,22.22,0.002129301687433082,-0.02982767691658309,-0.002129301687433082,0.56898,-0.02943,9.78057
5055555505,22.22,-0.002129301687433082,-0.023439771854283843,0.0,0.56898,-0.06867000000000001,9.84924
5060606010,22.22,-0.011711159280881954,-0.02769837522915001,0.001064650843716541,0.57879,-0.08829,9.81
5065656515,22.22,-0.0170518667919846,-0.02769837522915001,-0.005323254218582705,0.60822,-0.06867000000000001,9.7119
5070707020,22.22,-0.023439771854283843,-0.03408628029144926,-0.004258603374866164,0.6278400000000001,-0.12753,9.74133
5075757525,22.22,-0.02556907354171693,-0.02982767691658309,0.001064650843716541,0.71613,-0.20601000000000003,9.79038
5080808030,22.22,-0.02769837522915001,-0.014905111812031574,-0.001064650843716541,0.72594,-0.21582,9.87867
5085858535,22.22,-0.02982767691658309,-0.003193952531149623,-0.002129301687433082,0.74556,-0.26487,9.99639
5090909040,22.22,-0.02982767691658309,0.015987215948268057,0.003193952531149623,0.6867000000000001,-0.2943,9.83943
5095959545,22.22,-0.024504422698000388,0.012775810124598492,0.0,0.6867000000000001,-0.2943,9.74133
5101010050,22.22,-0.01811651763570114,0.012775810124598492,-0.004258603374866164,0.6867000000000001,-0.2943,9.888480000000001
5106060555,22.22,-0.012775810124598492,0.01811651763570114,-0.002129301687433082,0.6867000000000001,-0.28449,9.95715
5111111060,22.22,-0.003193952531149623,0.02663372438543347,0.001064650843716541,0.65727,-0.27468000000000004,9.89829
5116161565,22.22,0.0,0.03728023282259888,0.004258603374866164,0.6180300000000001,-0.25506,9.81
5121212070,22.22,-0.001064650843716541,0.03089232776029963,-0.002129301687433082,0.59841,-0.21582,9.78057
5126262575,22.22,-0.001064650843716541,0.03089232776029963,-0.002129301687433082,0.5493600000000001,-0.16677000000000003,9.80019
5131313080,22.22,0.006387905062299246,0.028763026072866547,0.002129301687433082,0.51993,-0.10791,9.78057
5136363585,22.22,0.01064650843716541,0.02663372438543347,0.0,0.51012,-0.07848000000000001,9.78057
5141414090,22.22,0.007452555906015787,0.024504422698000388,0.0,0.47088,-0.05886,9.819809999999999
5146464595,22.22,0.0,0.012775810124598492,0.002129301687433082,0.43164,-0.06867000000000001,9.74133
5151515100,22.22,-0.01064650843716541,0.001064650843716541,-0.003193952531149623,0.46107000000000004,-0.08829,9.68247
5156565605,22.22,-0.013840460968315033,-0.006387905062299246,-0.002129301687433082,0.47088,-0.12753,9.760950000000001
5161616110,22.22,-0.01811651763570114,-0.006387905062299246,0.003193952531149623,0.47088,-0.14715,9.86886
5166666615,22.22,-0.020245819323134222,-0.014905111812031574,0.0,0.49050000000000005,-0.18639,9.80019
5171717120,22.22,-0.020245819323134222,-0.021310470166850764,-0.001064650843716541,0.51993,-0.20601000000000003,9.65304
5176767625,22.22,-0.022375121010567305,-0.02663372438543347,-0.002129301687433082,0.5493600000000001,-0.24525000000000002,9.60399
5181818130,22.22,-0.021310470166850764,-0.03089232776029963,0.0,0.57879,-0.25506,9.751140000000001
5186868635,22.22,-0.01918116847941768,-0.021310470166850764,-0.001064650843716541,0.6180300000000001,-0.24525000000000002,10.006200000000002
5191919140,22.22,-0.01064650843716541,-0.014905111812031574,-0.002129301687433082,0.6180300000000001,-0.21582,9.937529999999999
5196969645,22.22,-0.002129301687433082,-0.014905111812031574,0.003193952531149623,0.59841,-0.23544,9.623610000000001
5202020150,22.22,-0.001064650843716541,-0.020245819323134222,0.0,0.60822,-0.20601000000000003,9.60399
5207070655,22.22,-0.002129301687433082,-0.021310470166850764,0.0,0.64746,-0.18639,9.83943
5212121160,22.22,0.0,-0.007452555906015787,-0.001064650843716541,0.6768900000000001,-0.14715,9.98658
5217171665,22.22,-0.003193952531149623,-0.002129301687433082,0.0,0.6670800000000001,-0.15696000000000002,10.06506
5222222170,22.22,-0.01064650843716541,0.006387905062299246,0.002129301687433082,0.6670800000000001,-0.16677000000000003,9.89829
5227272675,22.22,-0.01918116847941768,0.005323254218582705,-0.001064650843716541,0.63765,-0.18639,9.65304
5232323180,22.22,-0.021310470166850764,0.003193952531149623,-0.001064650843716541,0.6180300000000001,-0.22563,9.623610000000001
5237373685,22.22,-0.01811651763570114,0.01064650843716541,0.0,0.65727,-0.21582,9.91791
5242424190,22.22,-0.015987215948268057,0.014905111812031574,0.002129301687433082,0.63765,-0.22563,10.13373
5247474695,22.22,-0.020245819323134222,0.023439771854283843,0.0,0.6180300000000001,-0.24525000000000002,9.937529999999999
5252525200,22.22,-0.01811651763570114,0.01918116847941768,-0.001064650843716541,0.5886,-0.23544,9.60399
5257575705,22.22,-0.014905111812031574,0.013840460968315033,-0.003193952531149623,0.5591700000000001,-0.26487,9.5157
5262626210,22.22,-0.005323254218582705,0.012775810124598492,0.0,0.56898,-0.23544,9.78057
5267676715,22.22,0.0,0.014905111812031574,0.0,0.56898,-0.1962,10.03563
5272727220,22.22,0.0,0.0170518667919846,0.0,0.5493600000000001,-0.17658,9.937529999999999
5277777725,22.22,-0.001064650843716541,0.015987215948268057,-0.003193952531149623,0.49050000000000005,-0.14715,9.58437
5282828230,22.22,-0.004258603374866164,0.005323254218582705,0.0,0.51012,-0.12753,9.50589
5287878735,22.22,-0.005323254218582705,0.0,0.001064650843716541,0.49050000000000005,-0.10791,9.70209
5292929240,22.22,-0.011711159280881954,-0.001064650843716541,0.0,0.51993,-0.10791,9.94734
5297979745,22.22,-0.012775810124598492,-0.004258603374866164,0.0,0.52974,-0.13734000000000002,9.91791
5303030250,22.22,-0.015987215948268057,-0.01064650843716541,-0.001064650843716541,0.51993,-0.13734000000000002,9.72171
5308080755,22.22,-0.015987215948268057,-0.015987215948268057,-0.001064650843716541,0.5395500000000001,-0.16677000000000003,9.53532
5313131260,22.22,-0.015987215948268057,-0.01918116847941768,0.0,0.5493600000000001,-0.16677000000000003,9.633420000000001
5318181765,22.22,-0.013840460968315033,-0.015987215948268057,0.001064650843716541,0.59841,-0.15696000000000002,9.888480000000001
5323232270,22.22,-0.014905111812031574,-0.011711159280881954,-0.001064650843716541,0.60822,-0.20601000000000003,9.96696
5328282775,22.22,-0.023439771854283843,-0.006387905062299246,0.0,0.60822,-0.18639,9.819809999999999
5333333280,22.22,-0.02556907354171693,-0.008517206749732328,0.0,0.6180300000000001,-0.21582,9.65304
5338383785,22.22,-0.023439771854283843,-0.011711159280881954,0.0,0.60822,-0.22563,9.78057
5343434290,22.22,-0.020245819323134222,-0.00958185759344887,0.001064650843716541,0.64746,-0.25506,9.94734
5348484795,22.22,-0.020245819323134222,-0.005323254218582705,-0.001064650843716541,0.6670800000000001,-0.27468000000000004,9.97677
5353535300,22.22,-0.01811651763570114,-0.0,-0.003193952531149623,0.65727,-0.28449,9.80019
5358585805,22.22,-0.01918116847941768,0.003193952531149623,0.0,0.6670800000000001,-0.26487,9.70209
5363636310,22.22,-0.008517206749732328,0.003193952531149623,0.0,0.63765,-0.24525000000000002,9.819809999999999
5368686815,22.22,-0.008517206749732328,0.013840460968315033,0.0,0.63765,-0.22563,9.937529999999999
5373737320,22.22,-0.002129301687433082,0.015987215948268057,0.002129301687433082,0.59841,-0.20601000000000003,9.86886
5378787825,22.22,-0.006387905062299246,0.0170518667919846,-0.002129301687433082,0.59841,-0.20601000000000003,9.73152
5383838330,22.22,-0.01064650843716541,0.013840460968315033,0.0,0.5591700000000001,-0.18639,9.72171
5388888835,22.22,-0.012775810124598492,0.014905111812031574,-0.001064650843716541,0.5591700000000001,-0.20601000000000003,9.86886
5393939340,22.22,-0.014905111812031574,0.01064650843716541,0.0,0.5591700000000001,-0.21582,9.908100000000001
5398989845,22.22,-0.014905111812031574,0.008517206749732328,0.0,0.5395500000000001,-0.1962,9.79038
5404040350,22.22,-0.0170518667919846,0.005323254218582705,0.0,0.51993,-0.1962,9.72171
5409090855,22.22,-0.00958185759344887,0.004258603374866164,0.0,0.52974,-0.21582,9.7119
5414141360,22.22,-0.01064650843716541,0.001064650843716541,0.002129301687433082,0.52974,-0.18639,9.84924
5419191865,22.22,-0.01064650843716541,-0.0,-0.001064650843716541,0.52974,-0.1962,9.819809999999999
5424242370,22.22,-0.014905111812031574,-0.002129301687433082,0.0,0.5395500000000001,-0.20601000000000003,9.78057
5429292875,22.22,-0.0170518667919846,-0.003193952531149623,0.0,0.52974,-0.22563,9.68247
5434343380,22.22,-0.021310470166850764,-0.00958185759344887,0.0,0.5886,-0.22563,9.760950000000001
5439393885,22.22,-0.020245819323134222,-0.011711159280881954,0.0,0.5591700000000001,-0.21582,9.89829
5444444390,22.22,-0.021310470166850764,-0.011711159280881954,-0.002129301687433082,0.56898,-0.25506,9.84924
5449494895,22.22,-0.013840460968315033,-0.00958185759344887,-0.002129301687433082,0.59841,-0.25506,9.69228
5454545400,22.22,-0.008517206749732328,-0.01064650843716541,-0.001064650843716541,0.5886,-0.22563,9.65304
5459595905,22.22,-0.007452555906015787,-0.00958185759344887,0.0,0.6180300000000001,-0.20601000000000003,9.819809999999999
5464646410,22.22,-0.007452555906015787,-0.004258603374866164,0.0,0.60822,-0.18639,9.98658
5469696915,22.22,-0.013840460968315033,-0.0,-0.002129301687433082,0.6278400000000001,-0.20601000000000003,9.888480000000001
5474747420,22.22,-0.013840460968315033,-0.002129301687433082,0.0,0.6278400000000001,-0.20601000000000003,9.65304
5479797925,22.22,-0.0170518667919846,0.0,0.0,0.60822,-0.20601000000000003,9.6138
5484848430,22.22,-0.015987215948268057,-0.002129301687433082,0.001064650843716541,0.6278400000000001,-0.20601000000000003,9.819809999999999
5489898935,22.22,-0.0170518667919846,-0.001064650843716541,0.0,0.6180300000000001,-0.20601000000000003,9.98658
5494949440,22.22,-0.01811651763570114,0.002129301687433082,-0.001064650843716541,0.6180300000000001,-0.24525000000000002,9.85905
5499999945,22.22,-0.0170518667919846,0.006387905062299246,-0.001064650843716541,0.5886,-0.21582,9.6138
5505050450,22.22,-0.014905111812031574,0.003193952531149623,0.001064650843716541,0.59841,-0.20601000000000003,9.6138
5510100955,22.22,-0.012775810124598492,0.008517206749732328,0.001064650843716541,0.5591700000000001,-0.21582,9.84924
5515151460,22.22,-0.0170518667919846,0.00958185759344887,0.0,0.60822,-0.22563,10.025820000000001
5520201965,22.22,-0.024504422698000388,0.008517206749732328,-0.001064650843716541,0.56898,-0.25506,9.937529999999999
5525252470,22.22,-0.028763026072866547,0.007452555906015787,0.0,0.5395500000000001,-0.25506,9.6138
5530302975,22.22,-0.02556907354171693,0.004258603374866164,0.001064650843716541,0.5591700000000001,-0.2943,9.55494
5535353480,22.22,-0.01918116847941768,0.004258603374866164,-0.002129301687433082,0.56898,-0.27468000000000004,9.79038
5540403985,22.22,-0.0170518667919846,0.001064650843716541,0.0,0.5886,-0.24525000000000002,10.074869999999999
5545454490,22.22,-0.015987215948268057,0.001064650843716541,0.0,0.5886,-0.24525000000000002,9.98658
5550504995,22.22,-0.012775810124598492,0.005323254218582705,-0.002129301687433082,0.5591700000000001,-0.23544,9.66285
5555555500,22.22,-0.015987215948268057,-0.001064650843716541,0.0,0.51993,-0.22563,9.5157
5560606005,22.22,-0.014905111812031574,0.002129301687433082,0.0,0.5493600000000001,-0.24525000000000002,9.760950000000001
5565656510,22.22,-0.01918116847941768,-0.001064650843716541,0.0,0.56898,-0.23544,10.06506
5570707015,22.22,-0.023439771854283843,0.0,0.0,0.5886,-0.26487,10.006200000000002
5575757520,22.22,-0.0170518667919846,0.0,0.0,0.5493600000000001,-0.23544,9.68247
5580808025,22.22,-0.012775810124598492,-0.005323254218582705,0.0,0.52974,-0.22563,9.50589
5585858530,22.22,-0.00958185759344887,-0.006387905062299246,0.0,0.56898,-0.22563,9.67266
5590909035,22.22,-0.00958185759344887,-0.005323254218582705,0.0,0.57879,-0.20601000000000003,10.006200000000002
5595959540,22.22,-0.020245819323134222,-0.006387905062299246,0.0,0.5886,-0.21582,10.025820000000001
5601010045,22.22,-0.02663372438543347,-0.001064650843716541,0.0,0.5886,-0.22563,9.7119
5606060550,22.22,-0.02769837522915001,-0.003193952531149623,0.0,0.59841,-0.23544,9.52551
5611111055,22.22,-0.021310470166850764,-0.003193952531149623,0.0,0.60822,-0.24525000000000002,9.64323
5616161560,22.22,-0.014905111812031574,-0.005323254218582705,0.0,0.60822,-0.25506,9.95715
5621212065,22.22,-0.013840460968315033,-0.008517206749732328,0.0,0.6180300000000001,-0.20601000000000003,10.03563
5626262570,22.22,-0.014905111812031574,-0.002129301687433082,0.0,0.60822,-0.22563,9.80019
5631313075,22.22,-0.021310470166850764,0.0,0.0,0.5886,-0.25506,9.55494
5636363580,22.22,-0.024504422698000388,0.004258603374866164,0.0,0.57879,-0.26487,9.64323
5641414085,22.22,-0.028763026072866547,0.001064650843716541,0.0,0.59841,-0.26487,9.94734
5646464590,22.22,-0.028763026072866547,0.002129301687433082,0.0,0.60822,-0.27468000000000004,10.045440000000001
5651515095,22.22,-0.020245819323134222,0.003193952531149623,0.0,0.59841,-0.25506,9.85905
5656565600,22.22,-0.013840460968315033,0.005323254218582705,0.0,0.56898,-0.26487,9.633420000000001
5661616105,22.22,-0.01064650843716541,0.006387905062299246,0.0,0.60822,-0.25506,9.65304
5666666610,22.22,-0.01811651763570114,0.006387905062299246,0.0,0.59841,-0.28449,9.89829
5671717115,22.22,-0.028763026072866547,0.011711159280881954,0.0,0.59841,-0.2943,10.08468
5676767620,22.22,-0.033021629447732716,0.012775810124598492,0.0,0.5591700000000001,-0.30411,9.94734
5681818125,22.22,-0.02556907354171693,0.007452555906015787,0.0,0.5591700000000001,-0.33354000000000006,9.68247
5686868630,22.22,-0.014905111812031574,0.001064650843716541,0.0,0.5591700000000001,-0.27468000000000004,9.55494
5691919135,22.22,-0.003193952531149623,-0.002129301687433082,0.0,0.5493600000000001,-0.2943,9.73152
5696969640,22.22,-0.003193952531149623,-0.005323254218582705,0.0,0.5886,-0.25506,9.96696
5702020145,22.22,-0.01064650843716541,0.003193952531149623,0.0,0.56898,-0.24525000000000002,9.92772
5707070650,22.22,-0.021310470166850764,0.006387905062299246,0.0,0.5591700000000001,-0.24525000000000002,9.70209
5712121155,22.22,-0.02556907354171693,0.005323254218582705,0.0,0.5395500000000001,-0.24525000000000002,9.60399
5717171660,22.22,-0.020245819323134222,0.001064650843716541,0.0,0.5395500000000001,-0.23544,9.69228
5722222165,22.22,-0.00958185759344887,-0.008517206749732328,0.0,0.56898,-0.20601000000000003,9.908100000000001
5727272670,22.22,-0.006387905062299246,-0.013840460968315033,0.0,0.56898,-0.20601000000000003,9.86886
5732323175,22.22,-0.007452555906015787,-0.014905111812031574,0.0,0.56898,-0.20601000000000003,9.7119
5737373680,22.22,-0.022375121010567305,-0.011711159280881954,0.0,0.60822,-0.23544,9.6138
5742424185,22.22,-0.03408628029144926,-0.002129301687433082,0.0,0.5886,-0.25506,9.70209
5747474690,22.22,-0.039409534510031964,0.002129301687433082,0.005323254218582705,0.60822,-0.27468000000000004,9.94734
5752525195,22.22,-0.03621558197888234,0.0,0.003193952531149623,0.59841,-0.26487,9.937529999999999
5757575700,22.22,-0.02556907354171693,-0.001064650843716541,0.001064650843716541,0.5886,-0.28449,9.80019
5762626205,22.22,-0.013840460968315033,-0.005323254218582705,-0.004258603374866164,0.57879,-0.2943,9.6138
5767676710,22.22,-0.011711159280881954,-0.011711159280881954,-0.003193952531149623,0.60822,-0.2943,9.6138
5772727215,22.22,-0.023439771854283843,-0.005323254218582705,-0.001064650843716541,0.6278400000000001,-0.2943,9.85905
5777777720,22.22,-0.03728023282259888,0.008517206749732328,-0.002129301687433082,0.6278400000000001,-0.31392000000000003,10.03563
5782828225,22.22,-0.03621558197888234,0.013840460968315033,0.002129301687433082,0.59841,-0.30411,9.94734
5787878730,22.22,-0.02769837522915001,0.013840460968315033,0.002129301687433082,0.60822,-0.32373,9.7119
5792929235,22.22,-0.011711159280881954,0.008517206749732328,0.0,0.5886,-0.27468000000000004,9.633420000000001
5797979740,22.22,-0.004258603374866164,0.001064650843716541,0.0,0.57879,-0.26487,9.72171
5803030245,22.22,-0.013840460968315033,-0.001064650843716541,-0.001064650843716541,0.5493600000000001,-0.2943,9.87867
5808080750,22.22,-0.028763026072866547,0.004258603374866164,-0.001064650843716541,0.57879,-0.2943,9.94734
5813131255,22.22,-0.0404741853537485,0.014905111812031574,0.001064650843716541,0.56898,-0.31392000000000003,9.908100000000001
5818181760,22.22,-0.039409534510031964,0.0170518667919846,0.001064650843716541,0.5493600000000001,-0.30411,9.81
5823232265,22.22,-0.02663372438543347,0.008517206749732328,0.001064650843716541,0.5395500000000001,-0.32373,9.73152
5828282770,22.22,-0.013840460968315033,-0.002129301687433082,0.001064650843716541,0.5591700000000001,-0.30411,9.7119
5833333275,22.22,-0.004258603374866164,-0.006387905062299246,0.0,0.5493600000000001,-0.2943,9.73152
5838383780,22.22,-0.012775810124598492,-0.004258603374866164,-0.002129301687433082,0.5591700000000001,-0.28449,9.83943
5843434285,22.22,-0.022375121010567305,0.001064650843716541,0.0,0.56898,-0.30411,9.937529999999999
5848484790,22.22,-0.03621558197888234,0.007452555906015787,0.0,0.5395500000000001,-0.2943,9.91791
5853535295,22.22,-0.03515093113516579,0.003193952531149623,0.0,0.52974,-0.2943,9.78057
5858585800,22.22,-0.023439771854283843,-0.005323254218582705,-0.001064650843716541,0.52974,-0.31392000000000003,9.64323
5863636305,22.22,-0.008517206749732328,-0.011711159280881954,-0.001064650843716541,0.57879,-0.2943,9.66285
5868686810,22.22,-0.004258603374866164,-0.01064650843716541,-0.001064650843716541,0.59841,-0.2943,9.81
5873737315,22.22,-0.015987215948268057,-0.005323254218582705,0.0,0.6180300000000001,-0.27468000000000004,9.96696
5878787820,22.22,-0.02982767691658309,0.002129301687433082,0.001064650843716541,0.59841,-0.30411,9.94734
5883838325,22.22,-0.03834488366631542,0.002129301687433082,-0.001064650843716541,0.57879,-0.32373,9.751140000000001
5888888830,22.22,-0.033021629447732716,-0.001064650843716541,-0.001064650843716541,0.56898,-0.32373,9.6138
5893939335,22.22,-0.021310470166850764,-0.004258603374866164,0.0,0.5886,-0.30411,9.65304
5898989840,22.22,-0.00958185759344887,-0.007452555906015787,0.0,0.6180300000000001,-0.28449,9.81
5904040345,22.22,-0.007452555906015787,-0.003193952531149623,-0.001064650843716541,0.60822,-0.27468000000000004,9.89829
5909090850,22.22,-0.014905111812031574,0.001064650843716541,0.0,0.60822,-0.2943,9.908100000000001
5914141355,22.22,-0.02769837522915001,0.006387905062299246,0.0,0.57879,-0.27468000000000004,9.81
5919191860,22.22,-0.03515093113516579,0.005323254218582705,-0.001064650843716541,0.59841,-0.31392000000000003,9.68247
5924242365,22.22,-0.033021629447732716,0.004258603374866164,0.002129301687433082,0.5886,-0.30411,9.65304
5929292870,22.22,-0.02663372438543347,0.001064650843716541,0.0,0.56898,-0.33354000000000006,9.74133
5934343375,22.22,-0.01811651763570114,-0.001064650843716541,0.0,0.5886,-0.31392000000000003,9.87867
5939393880,22.22,-0.014905111812031574,0.0,0.0,0.57879,-0.30411,9.92772
5944444385,22.22,-0.023439771854283843,0.004258603374866164,-0.001064650843716541,0.57879,-0.2943,9.81
5949494890,22.22,-0.033021629447732716,0.01064650843716541,0.001064650843716541,0.5591700000000001,-0.31392000000000003,9.65304
5954545395,22.22,-0.03728023282259888,0.007452555906015787,0.0,0.5591700000000001,-0.32373,9.65304
5959595900,22.22,-0.031956978604016174,0.005323254218582705,0.0,0.5886,-0.33354000000000006,9.81
5964646405,22.22,-0.023439771854283843,0.003193952531149623,0.0,0.59841,-0.31392000000000003,9.98658
5969696910,22.22,-0.015987215948268057,-0.002129301687433082,0.0,0.56898,-0.33354000000000006,9.91791
5974747415,22.22,-0.01918116847941768,-0.002129301687433082,-0.002129301687433082,0.5591700000000001,-0.30411,9.751140000000001
5979797920,22.22,-0.02769837522915001,-0.001064650843716541,0.0,0.5493600000000001,-0.36297,9.60399
5984848425,22.22,-0.03728023282259888,0.003193952531149623,0.002129301687433082,0.56898,-0.37278,9.67266
5989898930,22.22,-0.03621558197888234,0.006387905062299246,0.004258603374866164,0.60822,-0.34335000000000004,9.96696
5994949435,22.22,-0.028763026072866547,0.006387905062299246,0.002129301687433082,0.5886,-0.33354000000000006,10.045440000000001
5999999940,22.22,-0.01811651763570114,-0.001064650843716541,0.0,0.57879,-0.31392000000000003,9.85905
6005050445,22.22,-0.01918116847941768,-0.005323254218582705,-0.003193952531149623,0.5395500000000001,-0.36297,9.57456
6010100950,22.22,-0.01811651763570114,-0.011711159280881954,-0.002129301687433082,0.56898,-0.35316,9.52551
6015151455,22.22,-0.024504422698000388,-0.005323254218582705,0.0,0.5886,-0.35316,9.81
6020201960,22.22,-0.031956978604016174,0.005323254218582705,0.002129301687433082,0.59841,-0.36297,10.13373
6025252465,22.22,-0.033021629447732716,0.00958185759344887,0.004258603374866164,0.60822,-0.35316,10.11411
6030302970,22.22,-0.028763026072866547,0.003193952531149623,0.0,0.56898,-0.37278,9.69228
6035353475,22.22,-0.022375121010567305,-0.003193952531149623,-0.002129301687433082,0.5395500000000001,-0.37278,9.44703
6040403980,22.22,-0.014905111812031574,-0.005323254218582705,-0.001064650843716541,0.5591700000000001,-0.36297,9.55494
6045454485,22.22,-0.015987215948268057,-0.004258603374866164,0.0,0.5886,-0.35316,9.98658
6050504990,22.22,-0.02663372438543347,0.003193952531149623,0.002129301687433082,0.59841,-0.35316,10.212209999999999
6055555495,22.22,-0.033021629447732716,0.007452555906015787,-0.002129301687433082,0.5886,-0.35316,9.96696
6060606000,22.22,-0.03621558197888234,0.005323254218582705,-0.003193952531149623,0.5493600000000001,-0.3924,9.48627
6065656505,22.22,-0.02769837522915001,-0.0,-0.001064650843716541,0.52974,-0.37278,9.4176
6070707010,22.22,-0.011711159280881954,-0.004258603374866164,0.002129301687433082,0.56898,-0.34335000000000004,9.7119
6075757515,22.22,-0.006387905062299246,0.002129301687433082,0.002129301687433082,0.59841,-0.31392000000000003,10.09449
6080808020,22.22,-0.011711159280881954,0.004258603374866164,0.0,0.5886,-0.30411,10.143540000000002
6085858525,22.22,-0.02663372438543347,0.004258603374866164,-0.001064650843716541,0.5591700000000001,-0.35316,9.67266
6090909030,22.22,-0.039409534510031964,0.001064650843716541,-0.001064650843716541,0.5591700000000001,-0.35316,9.43722
6095959535,22.22,-0.03834488366631542,-0.001064650843716541,0.002129301687433082,0.56898,-0.37278,9.59418
6101010040,22.22,-0.02769837522915001,-0.001064650843716541,0.003193952531149623,0.5886,-0.33354000000000006,9.99639
6106060545,22.22,-0.01918116847941768,0.0,0.0,0.63765,-0.33354000000000006,10.12392
6111111050,22.22,-0.021310470166850764,-0.001064650843716541,-0.002129301687433082,0.5886,-0.35316,9.819809999999999
6116161555,22.22,-0.028763026072866547,-0.006387905062299246,-0.005323254218582705,0.52974,-0.38259000000000004,9.42741
6121212060,22.22,-0.03408628029144926,-0.001064650843716541,-0.002129301687433082,0.57879,-0.37278,9.45684
6126262565,22.22,-0.03515093113516579,0.004258603374866164,0.002129301687433082,0.60822,-0.36297,9.99639
6131313070,22.22,-0.031956978604016174,0.006387905062299246,0.003193952531149623,0.60822,-0.35316,10.17297
6136363575,22.22,-0.031956978604016174,0.004258603374866164,0.0,0.59841,-0.38259000000000004,9.96696
6141414080,22.22,-0.02663372438543347,-0.005323254218582705,-0.003193952531149623,0.5395500000000001,-0.37278,9.44703
6146464585,22.22,-0.02556907354171693,-0.006387905062299246,-0.002129301687433082,0.5591700000000001,-0.38259000000000004,9.39798
6151515090,22.22,-0.022375121010567305,0.002129301687433082,0.001064650843716541,0.59841,-0.36297,9.81
6156565595,22.22,-0.02982767691658309,0.007452555906015787,0.003193952531149623,0.6278400000000001,-0.38259000000000004,10.23183
6161616100,22.22,-0.0404741853537485,0.011711159280881954,-0.001064650843716541,0.5886,-0.41202000000000005,10.182780000000001
6166666605,22.22,-0.04366813788489812,0.004258603374866164,-0.001064650843716541,0.57879,-0.42183,9.59418
6171717110,22.22,-0.03408628029144926,-0.0,-0.005323254218582705,0.56898,-0.41202000000000005,9.358740000000001
6176767615,22.22,-0.022375121010567305,0.0,0.0,0.5591700000000001,-0.41202000000000005,9.67266
6181818120,22.22,-0.0170518667919846,0.002129301687433082,0.002129301687433082,0.60822,-0.3924,10.19259
6186868625,22.22,-0.02663372438543347,0.006387905062299246,0.0,0.60822,-0.41202000000000005,10.22202
6191919130,22.22,-0.0404741853537485,0.004258603374866164,-0.002129301687433082,0.57879,-0.44145,9.79038
6196969635,22.22,-0.04260348704118158,0.006387905062299246,-0.001064650843716541,0.5591700000000001,-0.46107000000000004,9.44703
6202020140,22.22,-0.02769837522915001,0.004258603374866164,0.002129301687433082,0.56898,-0.45126,9.6138
6207070645,22.22,-0.014905111812031574,0.005323254218582705,0.004258603374866164,0.5591700000000001,-0.41202000000000005,10.06506
6212121150,22.22,-0.011711159280881954,0.0,0.001064650843716541,0.57879,-0.3924,10.11411
6217171655,22.22,-0.0170518667919846,-0.001064650843716541,-0.006387905062299246,0.5493600000000001,-0.37278,9.751140000000001
6222222160,22.22,-0.022375121010567305,-0.004258603374866164,-0.003193952531149623,0.5493600000000001,-0.3924,9.43722
6227272665,22.22,-0.022375121010567305,0.003193952531149623,0.001064650843716541,0.52974,-0.37278,9.56475
6232323170,22.22,-0.021310470166850764,0.006387905062299246,0.006387905062299246,0.57879,-0.34335000000000004,10.03563
6237373675,22.22,-0.021310470166850764,0.005323254218582705,0.002129301687433082,0.5591700000000001,-0.33354000000000006,10.045440000000001
6242424180,22.22,-0.024504422698000388,-0.006387905062299246,-0.001064650843716541,0.5395500000000001,-0.35316,9.68247
6247474685,22.22,-0.02982767691658309,-0.014905111812031574,-0.005323254218582705,0.5395500000000001,-0.3924,9.40779
6252525190,22.22,-0.021310470166850764,-0.011711159280881954,-0.002129301687433082,0.59841,-0.36297,9.58437
6257575695,22.22,-0.021310470166850764,-0.003193952531149623,0.004258603374866164,0.60822,-0.37278,10.006200000000002
6262626200,22.22,-0.03408628029144926,0.001064650843716541,0.001064650843716541,0.6180300000000001,-0.3924,10.05525
6267676705,22.22,-0.044732788728614664,-0.004258603374866164,0.0,0.56898,-0.42183,9.69228
6272727210,22.22,-0.044732788728614664,-0.006387905062299246,-0.004258603374866164,0.57879,-0.44145,9.43722
6277777715,22.22,-0.02769837522915001,-0.004258603374866164,0.002129301687433082,0.60822,-0.40221,9.65304
6282828220,22.22,-0.01918116847941768,0.002129301687433082,0.002129301687433082,0.60822,-0.3924,10.025820000000001
6287878725,22.22,-0.024504422698000388,0.002129301687433082,0.001064650843716541,0.60822,-0.42183,10.03563
6292929230,22.22,-0.0404741853537485,-0.0,-0.003193952531149623,0.59841,-0.44145,9.69228
6297979735,22.22,-0.044732788728614664,-0.001064650843716541,-0.004258603374866164,0.57879,-0.46107000000000004,9.50589
6303030240,22.22,-0.03728023282259888,0.006387905062299246,0.0,0.60822,-0.44145,9.770760000000001
6308080745,22.22,-0.028763026072866547,0.014905111812031574,0.001064650843716541,0.6180300000000001,-0.42183,10.09449
6313131250,22.22,-0.024504422698000388,0.014905111812031574,0.001064650843716541,0.59841,-0.42183,10.006200000000002
6318181755,22.22,-0.02769837522915001,0.003193952531149623,-0.002129301687433082,0.5395500000000001,-0.41202000000000005,9.64323
6323232260,22.22,-0.033021629447732716,-0.0,-0.004258603374866164,0.5591700000000001,-0.43164,9.57456
6328282765,22.22,-0.031956978604016174,0.003193952531149623,0.0,0.5886,-0.43164,9.92772
6333333270,22.22,-0.03728023282259888,0.0170518667919846,0.003193952531149623,0.5886,-0.47088,10.2024
6338383775,22.22,-0.0404741853537485,0.013840460968315033,0.0,0.5493600000000001,-0.50031,9.95715
6343434280,22.22,-0.039409534510031964,0.005323254218582705,-0.003193952531149623,0.51012,-0.50031,9.53532
6348484785,22.22,-0.02982767691658309,-0.002129301687433082,-0.003193952531149623,0.52974,-0.49050000000000005,9.55494
6353535290,22.22,-0.022375121010567305,-0.001064650843716541,-0.002129301687433082,0.5591700000000001,-0.49050000000000005,9.908100000000001
6358585795,22.22,-0.0170518667919846,0.004258603374866164,0.002129301687433082,0.60822,-0.47088,10.11411
6363636300,22.22,-0.023439771854283843,0.007452555906015787,0.003193952531149623,0.5395500000000001,-0.46107000000000004,9.86886
6368686805,22.22,-0.02769837522915001,0.004258603374866164,0.0,0.5395500000000001,-0.45126,9.496080000000001
6373737310,22.22,-0.020245819323134222,-0.002129301687433082,-0.002129301687433082,0.5395500000000001,-0.43164,9.55494
6378787815,22.22,-0.012775810124598492,-0.004258603374866164,-0.002129301687433082,0.56898,-0.41202000000000005,9.908100000000001
6383838320,22.22,-0.01064650843716541,-0.005323254218582705,0.001064650843716541,0.56898,-0.3924,9.98658
6388888825,22.22,-0.011711159280881954,-0.003193952531149623,-0.001064650843716541,0.5591700000000001,-0.37278,9.66285
6393939330,22.22,-0.01811651763570114,-0.008517206749732328,-0.001064650843716541,0.5395500000000001,-0.35316,9.39798
6398989835,22.22,-0.02556907354171693,-0.01064650843716541,0.0,0.5493600000000001,-0.37278,9.60399
6404040340,22.22,-0.03408628029144926,-0.011711159280881954,0.0,0.5886,-0.38259000000000004,10.05525
6409090845,22.22,-0.04153883619746504,-0.006387905062299246,0.0,0.6180300000000001,-0.3924,10.03563
6414141350,22.22,-0.04153883619746504,-0.0,-0.001064650843716541,0.57879,-0.41202000000000005,9.55494
6419191855,22.22,-0.03515093113516579,-0.006387905062299246,0.0,0.5493600000000001,-0.41202000000000005,9.358740000000001
6424242360,22.22,-0.03408628029144926,-0.00958185759344887,-0.001064650843716541,0.60822,-0.46107000000000004,9.7119
6429292865,22.22,-0.0404741853537485,-0.006387905062299246,0.0,0.65727,-0.50031,10.19259
6434343370,22.22,-0.05113814708343386,0.006387905062299246,0.0,0.63765,-0.51012,10.12392
6439393875,22.22,-0.05113814708343386,0.00958185759344887,0.0,0.6278400000000001,-0.5493600000000001,9.64323
6444444380,22.22,-0.04260348704118158,0.00958185759344887,0.003193952531149623,0.60822,-0.5591700000000001,9.43722
6449494885,22.22,-0.033021629447732716,0.00958185759344887,0.001064650843716541,0.59841,-0.5493600000000001,9.80019
6454545390,22.22,-0.03089232776029963,0.007452555906015787,-0.001064650843716541,0.6278400000000001,-0.5395500000000001,10.212209999999999
6459595895,22.22,-0.02663372438543347,0.011711159280881954,-0.001064650843716541,0.6180300000000001,-0.51012,10.08468
6464646400,22.22,-0.028763026072866547,0.01811651763570114,-0.001064650843716541,0.59841,-0.5395500000000001,9.69228
6469696905,22.22,-0.02556907354171693,0.020245819323134222,0.002129301687433082,0.5395500000000001,-0.48069000000000006,9.53532
6474747410,22.22,-0.02982767691658309,0.020245819323134222,0.005323254218582705,0.5395500000000001,-0.51012,9.81
6479797915,22.22,-0.031956978604016174,0.012775810124598492,0.001064650843716541,0.5395500000000001,-0.51012,10.15335
6484848420,22.22,-0.033021629447732716,0.01064650843716541,-0.002129301687433082,0.51993,-0.49050000000000005,10.006200000000002
6489898925,22.22,-0.024504422698000388,0.008517206749732328,-0.001064650843716541,0.51012,-0.48069000000000006,9.65304
6494949430,22.22,-0.01811651763570114,0.007452555906015787,-0.001064650843716541,0.50031,-0.48069000000000006,9.496080000000001
6499999935,22.22,-0.024504422698000388,0.001064650843716541,0.001064650843716541,0.51012,-0.49050000000000005,9.70209
6505050440,22.22,-0.02982767691658309,-0.004258603374866164,0.0,0.52974,-0.48069000000000006,10.006200000000002
6510100945,22.22,-0.03408628029144926,-0.001064650843716541,-0.001064650843716541,0.5591700000000001,-0.50031,10.01601
6515151450,22.22,-0.028763026072866547,-0.0,-0.001064650843716541,0.5395500000000001,-0.47088,9.68247
6520201955,22.22,-0.021310470166850764,-0.005323254218582705,0.0,0.51012,-0.45126,9.5157
6525252460,22.22,-0.01918116847941768,-0.012775810124598492,0.0,0.51993,-0.47088,9.6138
6530302965,22.22,-0.020245819323134222,-0.022375121010567305,-0.001064650843716541,0.5395500000000001,-0.46107000000000004,9.81
6535353470,22.22,-0.02556907354171693,-0.015987215948268057,-0.002129301687433082,0.5886,-0.46107000000000004,9.91791
6540403975,22.22,-0.031956978604016174,-0.008517206749732328,-0.002129301687433082,0.60822,-0.44145,9.819809999999999
6545454480,22.22,-0.02982767691658309,-0.004258603374866164,0.0,0.59841,-0.46107000000000004,9.64323
6550504985,22.22,-0.031956978604016174,-0.007452555906015787,0.002129301687433082,0.59841,-0.46107000000000004,9.57456
6555555490,22.22,-0.031956978604016174,-0.01064650843716541,0.0,0.57879,-0.47088,9.68247
6560605995,22.22,-0.02663372438543347,-0.01064650843716541,0.0,0.60822,-0.47088,9.937529999999999
6565656500,22.22,-0.02769837522915001,-0.003193952531149623,-0.001064650843716541,0.64746,-0.48069000000000006,10.006200000000002
6570707005,22.22,-0.03621558197888234,0.001064650843716541,-0.001064650843716541,0.6180300000000001,-0.48069000000000006,9.760950000000001
6575757510,22.22,-0.0404741853537485,0.004258603374866164,0.0,0.60822,-0.52974,9.55494
6580808015,22.22,-0.044732788728614664,0.005323254218582705,0.0,0.6180300000000001,-0.5493600000000001,9.68247
6585858520,22.22,-0.0404741853537485,0.004258603374866164,0.003193952531149623,0.6180300000000001,-0.5493600000000001,10.03563
6590909025,22.22,-0.03834488366631542,0.012775810124598492,0.0,0.63765,-0.52974,10.074869999999999
6595959530,22.22,-0.033021629447732716,0.014905111812031574,0.0,0.6180300000000001,-0.5493600000000001,9.819809999999999
6601010035,22.22,-0.03408628029144926,0.013840460968315033,0.0,0.5591700000000001,-0.56898,9.55494
6606060540,22.22,-0.03621558197888234,0.012775810124598492,0.001064650843716541,0.5591700000000001,-0.56898,9.69228
6611111045,22.22,-0.04260348704118158,0.015987215948268057,0.001064650843716541,0.60822,-0.60822,10.03563
6616161550,22.22,-0.044732788728614664,0.0170518667919846,0.0,0.56898,-0.59841,10.11411
6621212055,22.22,-0.03515093113516579,0.014905111812031574,0.0,0.5591700000000001,-0.59841,9.87867
6626262560,22.22,-0.022375121010567305,0.012775810124598492,0.0,0.51993,-0.5591700000000001,9.53532
6631313065,22.22,-0.01811651763570114,0.006387905062299246,0.002129301687433082,0.51993,-0.56898,9.623610000000001
6636363570,22.22,-0.01811651763570114,0.001064650843716541,0.001064650843716541,0.51993,-0.5591700000000001,9.84924
6641414075,22.22,-0.023439771854283843,0.0,0.0,0.5395500000000001,-0.52974,10.01601
6646464580,22.22,-0.023439771854283843,0.003193952531149623,-0.002129301687433082,0.51012,-0.51012,9.89829
6651515085,22.22,-0.022375121010567305,0.008517206749732328,0.0,0.50031,-0.50031,9.633420000000001
6656565590,22.22,-0.020245819323134222,-0.004258603374866164,0.0,0.49050000000000005,-0.49050000000000005,9.53532
6661616095,22.22,-0.023439771854283843,-0.011711159280881954,-0.001064650843716541,0.51993,-0.48069000000000006,9.65304
6666666600,22.22,-0.021310470166850764,-0.01918116847941768,-0.001064650843716541,0.5395500000000001,-0.47088,9.85905
6671717105,22.22,-0.020245819323134222,-0.014905111812031574,0.0,0.5591700000000001,-0.48069000000000006,9.89829
6676767610,22.22,-0.02769837522915001,-0.00958185759344887,0.001064650843716541,0.5886,-0.47088,9.74133
6681818115,22.22,-0.03834488366631542,-0.01064650843716541,0.0,0.5395500000000001,-0.51993,9.6138
6686868620,22.22,-0.04260348704118158,-0.014905111812031574,0.0,0.59841,-0.52974,9.623610000000001
6691919125,22.22,-0.039409534510031964,-0.013840460968315033,0.0,0.60822,-0.5395500000000001,9.78057
6696969630,22.22,-0.02982767691658309,-0.008517206749732328,0.0,0.60822,-0.51993,9.91791
6702020135,22.22,-0.028763026072866547,-0.007452555906015787,0.0,0.6180300000000001,-0.5493600000000001,9.81
6707070640,22.22,-0.031956978604016174,-0.003193952531149623,-0.003193952531149623,0.6180300000000001,-0.5493600000000001,9.59418
6712121145,22.22,-0.03834488366631542,-0.0,-0.001064650843716541,0.6278400000000001,-0.5493600000000001,9.60399
6717171650,22.22,-0.03834488366631542,0.001064650843716541,0.0,0.6278400000000001,-0.57879,9.87867
6722222155,22.22,-0.03834488366631542,0.01064650843716541,0.003193952531149623,0.6278400000000001,-0.5886,10.074869999999999
6727272660,22.22,-0.03834488366631542,0.012775810124598492,0.0,0.60822,-0.57879,9.89829
6732323165,22.22,-0.03408628029144926,0.011711159280881954,-0.001064650843716541,0.59841,-0.57879,9.60399
6737373670,22.22,-0.03089232776029963,0.008517206749732328,0.001064650843716541,0.57879,-0.5886,9.64323
6742424175,22.22,-0.031956978604016174,0.00958185759344887,0.0,0.57879,-0.59841,9.98658
6747474680,22.22,-0.03834488366631542,0.0170518667919846,0.002129301687433082,0.57879,-0.6180300000000001,10.12392
6752525185,22.22,-0.046879543708567686,0.020245819323134222,0.0,0.5591700000000001,-0.6278400000000001,9.937529999999999
6757575690,22.22,-0.04366813788489812,0.01811651763570114,0.0,0.51993,-0.63765,9.633420000000001
6762626195,22.22,-0.03728023282259888,0.014905111812031574,0.001064650843716541,0.51993,-0.65727,9.68247
6767676700,22.22,-0.02556907354171693,0.006387905062299246,0.0,0.51993,-0.65727,9.94734
6772727205,22.22,-0.021310470166850764,0.001064650843716541,-0.001064650843716541,0.52974,-0.6278400000000001,9.98658
6777777710,22.22,-0.01918116847941768,0.003193952531149623,-0.003193952531149623,0.5395500000000001,-0.6180300000000001,9.78057
6782828215,22.22,-0.01811651763570114,0.006387905062299246,0.0,0.50031,-0.59841,9.6138
6787878720,22.22,-0.01918116847941768,0.004258603374866164,0.004258603374866164,0.51012,-0.56898,9.66285
6792929225,22.22,-0.023439771854283843,-0.002129301687433082,0.0,0.50031,-0.5395500000000001,9.888480000000001
6797979730,22.22,-0.022375121010567305,-0.007452555906015787,-0.001064650843716541,0.51993,-0.51012,9.84924
6803030235,22.22,-0.01811651763570114,-0.01064650843716541,-0.001064650843716541,0.51012,-0.50031,9.633420000000001
6808080740,22.22,-0.015987215948268057,-0.011711159280881954,0.0,0.52974,-0.50031,9.53532
6813131245,22.22,-0.01918116847941768,-0.0170518667919846,0.0,0.5493600000000001,-0.51012,9.67266
6818181750,22.22,-0.031956978604016174,-0.015987215948268057,0.0,0.5591700000000001,-0.51012,9.84924
6823232255,22.22,-0.0404741853537485,-0.012775810124598492,-0.004258603374866164,0.56898,-0.51012,9.83943
6828282760,22.22,-0.0404741853537485,-0.012775810124598492,0.0,0.57879,-0.5395500000000001,9.66285
6833333265,22.22,-0.039409534510031964,-0.00958185759344887,0.001064650843716541,0.57879,-0.5395500000000001,9.57456
6838383770,22.22,-0.039409534510031964,-0.008517206749732328,0.002129301687433082,0.60822,-0.59841,9.66285
6843434275,22.22,-0.039409534510031964,-0.011711159280881954,0.0,0.6278400000000001,-0.59841,9.908100000000001
6848484780,22.22,-0.0404741853537485,-0.007452555906015787,-0.002129301687433082,0.64746,-0.63765,9.95715
6853535285,22.22,-0.04366813788489812,0.001064650843716541,0.0,0.6180300000000001,-0.6278400000000001,9.83943
6858585790,22.22,-0.049008845396000776,0.006387905062299246,0.0,0.6180300000000001,-0.6670800000000001,9.67266
6863636295,22.22,-0.044732788728614664,0.01064650843716541,0.001064650843716541,0.60822,-0.6867000000000001,9.69228
6868686800,22.22,-0.03621558197888234,0.013840460968315033,0.001064650843716541,0.6180300000000001,-0.6768900000000001,9.92772
6873737305,22.22,-0.028763026072866547,0.013840460968315033,0.002129301687433082,0.63765,-0.63765,10.09449
6878787810,22.22,-0.02663372438543347,0.0170518667919846,-0.001064650843716541,0.60822,-0.63765,9.937529999999999
6883838315,22.22,-0.033021629447732716,0.015987215948268057,0.0,0.52974,-0.6670800000000001,9.67266
6888888820,22.22,-0.03515093113516579,0.020245819323134222,0.0,0.5591700000000001,-0.6768900000000001,9.65304
6893939325,22.22,-0.03621558197888234,0.021310470166850764,0.0,0.52974,-0.65727,9.95715
6898989830,22.22,-0.028763026072866547,0.01811651763570114,0.002129301687433082,0.51012,-0.64746,10.13373
6904040335,22.22,-0.02663372438543347,0.011711159280881954,-0.001064650843716541,0.51993,-0.6670800000000001,9.819809999999999
6909090840,22.22,-0.01811651763570114,0.007452555906015787,0.0,0.47088,-0.6180300000000001,9.42741
6914141345,22.22,-0.014905111812031574,0.0,0.001064650843716541,0.49050000000000005,-0.59841,9.52551
6919191850,22.22,-0.0170518667919846,0.0,0.0,0.51993,-0.59841,9.92772
6924242355,22.22,-0.022375121010567305,-0.001064650843716541,0.002129301687433082,0.51993,-0.57879,10.12392
6929292860,22.22,-0.031956978604016174,-0.002129301687433082,-0.002129301687433082,0.51012,-0.5886,9.81
6934343365,22.22,-0.031956978604016174,-0.004258603374866164,-0.003193952531149623,0.48069000000000006,-0.56898,9.37836
6939393870,22.22,-0.01918116847941768,-0.012775810124598492,0.0,0.51012,-0.5395500000000001,9.45684
6944444375,22.22,-0.01811651763570114,-0.01918116847941768,0.002129301687433082,0.56898,-0.56898,9.888480000000001
6949494880,22.22,-0.022375121010567305,-0.01918116847941768,-0.001064650843716541,0.56898,-0.5493600000000001,10.03563
6954545385,22.22,-0.03408628029144926,-0.01811651763570114,-0.003193952531149623,0.5493600000000001,-0.57879,9.72171
6959595890,22.22,-0.03621558197888234,-0.015987215948268057,-0.001064650843716541,0.5493600000000001,-0.5886,9.4176
6964646395,22.22,-0.03408628029144926,-0.01064650843716541,0.002129301687433082,0.60822,-0.5886,9.52551
6969696900,22.22,-0.03621558197888234,-0.007452555906015787,0.0,0.6180300000000001,-0.60822,9.95715
6974747405,22.22,-0.03834488366631542,-0.008517206749732328,0.0,0.6180300000000001,-0.59841,9.99639
6979797910,22.22,-0.03834488366631542,-0.007452555906015787,0.0,0.6278400000000001,-0.6180300000000001,9.67266
6984848415,22.22,-0.03834488366631542,-0.001064650843716541,0.0,0.6180300000000001,-0.65727,9.50589
6989898920,22.22,-0.03515093113516579,0.001064650843716541,0.0,0.63765,-0.63765,9.73152
6994949425,22.22,-0.04153883619746504,0.008517206749732328,0.0,0.65727,-0.6670800000000001,10.1043
6999999930,22.22,-0.04581489286485115,0.011711159280881954,0.0,0.63765,-0.69651,10.13373
7005050435,22.22,-0.04581489286485115,0.013840460968315033,0.0,0.6278400000000001,-0.69651,9.80019
7010100940,22.22,-0.03728023282259888,0.012775810124598492,0.0,0.60822,-0.74556,9.59418
7015151445,22.22,-0.03621558197888234,0.0170518667919846,0.0,0.59841,-0.75537,9.751140000000001
7020201950,22.22,-0.03621558197888234,0.015987215948268057,0.0,0.59841,-0.7749900000000001,10.08468
7025252455,22.22,-0.03621558197888234,0.022375121010567305,0.0,0.5886,-0.75537,10.143540000000002
7030302960,22.22,-0.039409534510031964,0.020245819323134222,0.0,0.52974,-0.7651800000000001,9.83943
7035353465,22.22,-0.031956978604016174,0.015987215948268057,0.0,0.51012,-0.74556,9.57456
7040403970,22.22,-0.02556907354171693,0.012775810124598492,0.0,0.51012,-0.71613,9.60399
7045454475,22.22,-0.011711159280881954,0.00958185759344887,0.0,0.51993,-0.6867000000000001,9.96696
7050504980,22.22,-0.006387905062299246,0.006387905062299246,0.0,0.50031,-0.60822,10.045440000000001
7055555485,22.22,-0.00958185759344887,0.0,0.0,0.49050000000000005,-0.5886,9.760950000000001
7060605990,22.22,-0.01918116847941768,-0.003193952531149623,0.0,0.47088,-0.57879,9.43722
7065656495,22.22,-0.022375121010567305,0.0,0.0,0.47088,-0.5886,9.42741
7070707000,22.22,-0.020245819323134222,-0.008517206749732328,0.0,0.50031,-0.5493600000000001,9.84924
7075757505,22.22,-0.020245819323134222,-0.011711159280881954,0.0,0.51993,-0.5395500000000001,10.01601
7080808010,22.22,-0.023439771854283843,-0.0170518667919846,0.0,0.51993,-0.5886,9.73152
7085858515,22.22,-0.033021629447732716,-0.024504422698000388,-0.006387905062299246,0.51012,-0.60822,9.358740000000001
7090909020,22.22,-0.03515093113516579,-0.02663372438543347,0.0,0.56898,-0.60822,9.45684
7095959525,22.22,-0.03728023282259888,-0.015987215948268057,0.0,0.6180300000000001,-0.6278400000000001,9.908100000000001
7101010030,22.22,-0.04153883619746504,-0.00958185759344887,0.002129301687433082,0.65727,-0.64746,10.163160000000001
7106060535,22.22,-0.05007349623971732,-0.01064650843716541,-0.001064650843716541,0.6180300000000001,-0.69651,9.888480000000001
7111111040,22.22,-0.05007349623971732,-0.013840460968315033,-0.004258603374866164,0.60822,-0.72594,9.39798
7116161545,22.22,-0.03834488366631542,-0.008517206749732328,0.0,0.6180300000000001,-0.73575,9.496080000000001
7121212050,22.22,-0.02982767691658309,0.0,0.004258603374866164,0.6768900000000001,-0.73575,9.99639
7126262555,22.22,-0.03621558197888234,0.008517206749732328,0.0,0.6768900000000001,-0.73575,10.27107
7131313060,22.22,-0.0404741853537485,0.00958185759344887,-0.003193952531149623,0.6278400000000001,-0.75537,9.96696
7136363565,22.22,-0.04366813788489812,0.013840460968315033,-0.004258603374866164,0.59841,-0.75537,9.50589
7141414070,22.22,-0.03408628029144926,0.020245819323134222,0.003193952531149623,0.59841,-0.75537,9.6138
7146464575,22.22,-0.02663372438543347,0.020245819323134222,0.001064650843716541,0.60822,-0.7651800000000001,9.99639
7151515080,22.22,-0.02982767691658309,0.023439771854283843,0.0,0.59841,-0.74556,10.17297
7156565585,22.22,-0.03089232776029963,0.020245819323134222,0.0,0.5493600000000001,-0.71613,9.888480000000001
7161616090,22.22,-0.031956978604016174,0.020245819323134222,-0.002129301687433082,0.51012,-0.74556,9.55494
7166666595,22.22,-0.02663372438543347,0.014905111812031574,0.001064650843716541,0.51993,-0.75537,9.69228
7171717100,22.22,-0.02663372438543347,0.01918116847941768,0.002129301687433082,0.51012,-0.73575,9.99639
7176767605,22.22,-0.02663372438543347,0.013840460968315033,0.001064650843716541,0.51993,-0.71613,9.97677
7181818110,22.22,-0.024504422698000388,0.006387905062299246,0.0,0.49050000000000005,-0.6867000000000001,9.72171
7186868615,22.22,-0.015987215948268057,-0.0,-0.002129301687433082,0.46107000000000004,-0.6768900000000001,9.54513
7191919120,22.22,-0.014905111812031574,-0.007452555906015787,0.0,0.51993,-0.65727,9.67266
7196969625,22.22,-0.01918116847941768,-0.004258603374866164,-0.001064650843716541,0.50031,-0.6670800000000001,9.86886
7202020130,22.22,-0.02556907354171693,-0.007452555906015787,0.001064650843716541,0.51993,-0.6670800000000001,9.80019
7207070635,22.22,-0.02769837522915001,-0.013840460968315033,0.0,0.51012,-0.6278400000000001,9.6138
7212121140,22.22,-0.023439771854283843,-0.015987215948268057,0.001064650843716541,0.51993,-0.63765,9.58437
7217171645,22.22,-0.023439771854283843,-0.020245819323134222,0.0,0.5395500000000001,-0.63765,9.7119
7222222150,22.22,-0.02556907354171693,-0.021310470166850764,0.001064650843716541,0.5886,-0.64746,9.78057
7227272655,22.22,-0.02769837522915001,-0.0170518667919846,0.0,0.5886,-0.6180300000000001,9.66285
7232323160,22.22,-0.028763026072866547,-0.013840460968315033,0.0,0.59841,-0.65727,9.623610000000001
7237373665,22.22,-0.03728023282259888,-0.01064650843716541,0.001064650843716541,0.59841,-0.6768900000000001,9.73152
7242424170,22.22,-0.04153883619746504,-0.008517206749732328,0.0,0.63765,-0.69651,9.86886
7247474675,22.22,-0.044732788728614664,-0.007452555906015787,-0.001064650843716541,0.64746,-0.73575,9.81
7252525180,22.22,-0.04153883619746504,-0.001064650843716541,-0.001064650843716541,0.6180300000000001,-0.72594,9.65304
7257575685,22.22,-0.03515093113516579,0.0,0.0,0.63765,-0.74556,9.760950000000001
7262626190,22.22,-0.039409534510031964,0.004258603374866164,0.0,0.63765,-0.7651800000000001,9.98658
7267676695,22.22,-0.0404741853537485,0.008517206749732328,0.001064650843716541,0.6180300000000001,-0.7848,9.98658
7272727200,22.22,-0.0404741853537485,0.012775810124598492,0.0,0.6180300000000001,-0.8142300000000001,9.819809999999999
7277777705,22.22,-0.039409534510031964,0.020245819323134222,0.0,0.60822,-0.8338500000000001,9.751140000000001
7282828210,22.22,-0.033021629447732716,0.020245819323134222,0.002129301687433082,0.5886,-0.84366,9.83943
7287878715,22.22,-0.03089232776029963,0.020245819323134222,0.001064650843716541,0.57879,-0.8142300000000001,9.99639
7292929220,22.22,-0.033021629447732716,0.015987215948268057,-0.001064650843716541,0.5591700000000001,-0.8240400000000001,9.95715
7297979725,22.22,-0.028763026072866547,0.0170518667919846,0.0,0.52974,-0.8240400000000001,9.80019
7303030230,22.22,-0.023439771854283843,0.014905111812031574,-0.001064650843716541,0.51993,-0.80442,9.72171
7308080735,22.22,-0.020245819323134222,0.015987215948268057,0.001064650843716541,0.50031,-0.7848,9.760950000000001
7313131240,22.22,-0.0170518667919846,0.01064650843716541,0.001064650843716541,0.47088,-0.72594,9.82962
7318181745,22.22,-0.014905111812031574,0.003193952531149623,0.001064650843716541,0.47088,-0.70632,9.78057
7323232250,22.22,-0.011711159280881954,-0.001064650843716541,0.0,0.47088,-0.6670800000000001,9.66285
7328282755,22.22,-0.01064650843716541,-0.001064650843716541,0.001064650843716541,0.47088,-0.63765,9.67266
7333333260,22.22,-0.014905111812031574,-0.005323254218582705,0.0,0.47088,-0.6278400000000001,9.760950000000001
7338383765,22.22,-0.023439771854283843,-0.011711159280881954,0.0,0.50031,-0.63765,9.68247
7343434270,22.22,-0.02769837522915001,-0.01811651763570114,-0.001064650843716541,0.51012,-0.64746,9.623610000000001
7348484775,22.22,-0.03089232776029963,-0.01811651763570114,0.0,0.51993,-0.6670800000000001,9.623610000000001
7353535280,22.22,-0.02769837522915001,-0.0170518667919846,0.001064650843716541,0.5591700000000001,-0.6670800000000001,9.74133
7358585785,22.22,-0.028763026072866547,-0.015987215948268057,-0.002129301687433082,0.5886,-0.69651,9.80019
7363636290,22.22,-0.03621558197888234,-0.015987215948268057,-0.003193952531149623,0.56898,-0.73575,9.633420000000001
7368686795,22.22,-0.03834488366631542,-0.013840460968315033,0.0,0.60822,-0.7749900000000001,9.59418
7373737300,22.22,-0.03834488366631542,-0.011711159280881954,0.0,0.63765,-0.79461,9.74133
7378787805,22.22,-0.03408628029144926,-0.006387905062299246,0.0,0.6278400000000001,-0.7749900000000001,9.96696
7383838310,22.22,-0.03621558197888234,0.001064650843716541,0.0,0.6278400000000001,-0.7749900000000001,9.92772
7388888815,22.22,-0.03834488366631542,0.003193952531149623,0.0,0.60822,-0.8142300000000001,9.623610000000001
7393939320,22.22,-0.039409534510031964,0.004258603374866164,-0.001064650843716541,0.6278400000000001,-0.8338500000000001,9.57456
7398989825,22.22,-0.03089232776029963,0.007452555906015787,0.0,0.6180300000000001,-0.8338500000000001,9.89829
7404040330,22.22,-0.031956978604016174,0.015987215948268057,0.0,0.6278400000000001,-0.8240400000000001,10.143540000000002
7409090835,22.22,-0.033021629447732716,0.0170518667919846,0.0,0.59841,-0.8142300000000001,10.006200000000002
7414141340,22.22,-0.03408628029144926,0.01811651763570114,0.0,0.5886,-0.8142300000000001,9.60399
7419191845,22.22,-0.033021629447732716,0.0170518667919846,0.0,0.5395500000000001,-0.8338500000000001,9.58437
7424242350,22.22,-0.02982767691658309,0.01811651763570114,0.001064650843716541,0.5493600000000001,-0.8142300000000001,9.89829
7429292855,22.22,-0.024504422698000388,0.020245819323134222,0.002129301687433082,0.56898,-0.79461,10.2024
7434343360,22.22,-0.028763026072866547,0.01811651763570114,-0.001064650843716541,0.52974,-0.8142300000000001,9.99639
7439393865,22.22,-0.033021629447732716,0.013840460968315033,-0.004258603374866164,0.49050000000000005,-0.84366,9.50589
7444444370,22.22,-0.02982767691658309,0.007452555906015787,-0.001064650843716541,0.48069000000000006,-0.85347,9.5157
7449494875,22.22,-0.022375121010567305,0.001064650843716541,0.001064650843716541,0.51012,-0.8338500000000001,9.888480000000001
7454545380,22.22,-0.015987215948268057,0.002129301687433082,0.002129301687433082,0.51993,-0.7848,10.182780000000001
7459595885,22.22,-0.0170518667919846,0.0,0.0,0.51012,-0.7848,9.92772
7464646390,22.22,-0.01811651763570114,-0.006387905062299246,-0.003193952531149623,0.45126,-0.74556,9.40779
7469696895,22.22,-0.0170518667919846,-0.01064650843716541,-0.002129301687433082,0.47088,-0.7651800000000001,9.32931
7474747400,22.22,-0.011711159280881954,-0.012775810124598492,0.0,0.51012,-0.73575,9.819809999999999
7479797905,22.22,-0.012775810124598492,-0.01064650843716541,0.0,0.5591700000000001,-0.70632,10.143540000000002
7484848410,22.22,-0.01918116847941768,-0.01064650843716541,-0.001064650843716541,0.5591700000000001,-0.6768900000000001,9.87867
7489898915,22.22,-0.023439771854283843,-0.0170518667919846,-0.004258603374866164,0.51993,-0.69651,9.34893
7494949420,22.22,-0.024504422698000388,-0.020245819323134222,-0.001064650843716541,0.5493600000000001,-0.69651,9.29007
7499999925,22.22,-0.022375121010567305,-0.0170518667919846,0.002129301687433082,0.59841,-0.74556,9.74133
7505050430,22.22,-0.02769837522915001,-0.00958185759344887,0.003193952531149623,0.63765,-0.71613,10.182780000000001
7510100935,22.22,-0.03834488366631542,-0.008517206749732328,-0.002129301687433082,0.60822,-0.73575,9.92772
7515151440,22.22,-0.04366813788489812,-0.008517206749732328,-0.003193952531149623,0.59841,-0.7848,9.38817
7520201945,22.22,-0.04260348704118158,-0.005323254218582705,-0.002129301687433082,0.60822,-0.8142300000000001,9.39798
7525252450,22.22,-0.03515093113516579,0.002129301687433082,0.002129301687433082,0.6180300000000001,-0.85347,9.92772
7530302955,22.22,-0.03408628029144926,0.01064650843716541,0.004258603374866164,0.65727,-0.85347,10.27107
7535353460,22.22,-0.03728023282259888,0.012775810124598492,-0.002129301687433082,0.6278400000000001,-0.84366,10.05525
7540403965,22.22,-0.039409534510031964,0.01064650843716541,-0.001064650843716541,0.57879,-0.86328,9.43722
7545454470,22.22,-0.03834488366631542,0.012775810124598492,-0.001064650843716541,0.60822,-0.90252,9.45684
7550504975,22.22,-0.033021629447732716,0.0170518667919846,0.003193952531149623,0.6180300000000001,-0.9123300000000001,9.97677
7555555480,22.22,-0.02663372438543347,0.023439771854283843,0.002129301687433082,0.60822,-0.87309,10.280880000000002
7560605985,22.22,-0.02556907354171693,0.022375121010567305,0.0,0.5493600000000001,-0.85347,10.01601
7565656490,22.22,-0.021310470166850764,0.0170518667919846,-0.001064650843716541,0.50031,-0.86328,9.48627
7570706995,22.22,-0.021310470166850764,0.013840460968315033,-0.002129301687433082,0.47088,-0.84366,9.45684
7575757500,22.22,-0.01918116847941768,0.013840460968315033,0.0,0.51993,-0.84366,9.96696
7580808005,22.22,-0.014905111812031574,0.012775810124598492,0.004258603374866164,0.51012,-0.7848,10.26126
7585858510,22.22,-0.022375121010567305,0.007452555906015787,0.0,0.47088,-0.79461,9.96696
7590909015,22.22,-0.02556907354171693,-0.001064650843716541,0.0,0.45126,-0.8338500000000001,9.4176
7595959520,22.22,-0.028763026072866547,-0.006387905062299246,0.0,0.46107000000000004,-0.8240400000000001,9.40779
7601010025,22.22,-0.020245819323134222,-0.00958185759344887,0.0,0.49050000000000005,-0.8240400000000001,9.82962
7606060530,22.22,-0.0170518667919846,-0.007452555906015787,0.0,0.5395500000000001,-0.79461,10.2024
