#timestamp [ns], temperature [degC], w_RS_S_x [rad s^-1], w_RS_S_y [rad s^-1], w_RS_S_z [rad s^-1], a_RS_S_x [m s^-2], a_RS_S_y [m s^-2], a_RS_S_z [m s^-2]
0,22.16,0.0,0.0,0.0,0.5886,-0.16677000000000003,9.79038
5050505,22.16,0.0,0.0,0.0,0.60822,-0.18639,9.770760000000001
10101010,22.16,0.0,0.0,0.0,0.5886,-0.16677000000000003,9.81
15151515,22.16,0.0,0.0,0.0,0.6278400000000001,-0.16677000000000003,9.84924
20202020,22.16,0.0,0.0,0.0,0.60822,-0.15696000000000002,9.84924
25252525,22.16,0.0,0.0,0.0,0.5886,-0.16677000000000003,9.83943
30303030,22.16,0.0,0.0,0.0,0.6180300000000001,-0.15696000000000002,9.79038
35353535,22.16,0.0,0.0,0.0,0.60822,-0.14715,9.78057
40404040,22.16,0.0,0.0,0.0,0.6180300000000001,-0.13734000000000002,9.81
45454545,22.16,0.0,0.0,0.0,0.6278400000000001,-0.15696000000000002,9.84924
50505050,22.16,0.0,0.0,0.0,0.60822,-0.15696000000000002,9.84924
55555555,22.16,0.0,0.0,0.0,0.59841,-0.16677000000000003,9.80019
60606060,22.16,0.0,0.0,0.0,0.60822,-0.16677000000000003,9.751140000000001
65656565,22.16,0.0,0.0,0.0,0.60822,-0.16677000000000003,9.81
70707070,22.16,0.0,0.0,0.0,0.59841,-0.15696000000000002,9.888480000000001
75757575,22.16,0.0,0.0,0.0,0.59841,-0.17658,9.84924
80808080,22.16,0.0,0.0,0.0,0.60822,-0.14715,9.79038
85858585,22.16,0.0,0.0,0.0,0.5886,-0.17658,9.770760000000001
90909090,22.16,0.0,0.0,0.0,0.59841,-0.16677000000000003,9.81
95959595,22.16,0.0,0.0,0.0,0.6180300000000001,-0.1962,9.85905
101010100,22.16,0.0,0.0,0.0,0.60822,-0.15696000000000002,9.86886
106060605,22.16,0.0,0.0,0.0,0.59841,-0.14715,9.81
111111110,22.16,0.0,0.0,0.0,0.6180300000000001,-0.15696000000000002,9.78057
116161615,22.16,0.0,0.0,0.0,0.59841,-0.13734000000000002,9.770760000000001
121212120,22.16,0.0,0.0,0.0,0.60822,-0.16677000000000003,9.819809999999999
126262625,22.16,0.0,0.0,0.0,0.60822,-0.15696000000000002,9.85905
131313130,22.16,0.0,0.0,0.0,0.6180300000000001,-0.14715,9.819809999999999
136363635,22.16,0.0,0.0,0.0,0.59841,-0.15696000000000002,9.78057
141414140,22.16,0.0,0.0,0.0,0.59841,-0.14715,9.79038
146464645,22.16,0.0,0.0,0.0,0.59841,-0.15696000000000002,9.81
151515150,22.16,0.0,0.0,0.0,0.60822,-0.14715,9.819809999999999
156565655,22.16,0.0,0.0,0.0,0.60822,-0.16677000000000003,9.81
161616160,22.16,0.0,0.0,0.0,0.60822,-0.15696000000000002,9.79038
166666665,22.16,0.0,0.0,0.0,0.59841,-0.16677000000000003,9.81
171717170,22.16,0.0,0.0,0.0,0.5886,-0.12753,9.82962
176767675,22.16,0.0,0.0,0.0,0.59841,-0.12753,9.82962
181818180,22.16,0.0,0.0,0.0,0.60822,-0.17658,9.80019
186868685,22.16,0.0,0.0,0.0,0.59841,-0.17658,9.819809999999999
191919190,22.16,0.0,0.0,0.0,0.59841,-0.12753,9.819809999999999
196969695,22.16,0.0,0.0,0.0,0.59841,-0.14715,9.83943
202020200,22.16,0.0,0.0,0.0,0.59841,-0.14715,9.78057
207070705,22.16,0.0,0.0,0.0,0.60822,-0.13734000000000002,9.79038
212121210,22.16,0.0,0.0,0.0,0.60822,-0.14715,9.80019
217171715,22.16,0.0,0.0,0.0,0.60822,-0.15696000000000002,9.83943
222222220,22.16,0.0,0.0,0.0,0.60822,-0.14715,9.81
227272725,22.16,0.0,0.0,0.0,0.60822,-0.14715,9.80019
232323230,22.16,0.0,0.0,0.0,0.60822,-0.15696000000000002,9.81
237373735,22.16,0.0,0.0,0.0,0.59841,-0.16677000000000003,9.819809999999999
242424240,22.16,0.0,0.0,0.0,0.60822,-0.17658,9.82962
247474745,22.16,0.0,0.0,0.0,0.60822,-0.13734000000000002,9.82962
252525250,22.16,0.0,0.0,0.0,0.60822,-0.16677000000000003,9.80019
257575755,22.16,0.0,0.0,0.0,0.5886,-0.15696000000000002,9.79038
262626260,22.16,0.0,0.0,0.0,0.6180300000000001,-0.15696000000000002,9.83943
267676765,22.16,0.0,0.0,0.0,0.59841,-0.15696000000000002,9.83943
272727270,22.16,0.0,0.0,0.0,0.60822,-0.15696000000000002,9.81
277777775,22.16,0.0,0.0,0.0,0.60822,-0.15696000000000002,9.78057
282828280,22.16,0.0,0.0,0.0,0.59841,-0.16677000000000003,9.760950000000001
287878785,22.16,0.0,0.0,0.0,0.5886,-0.14715,9.84924
292929290,22.16,0.0,0.0,0.0,0.63765,-0.15696000000000002,9.89829
297979795,22.16,0.0,0.0,0.0,0.60822,-0.16677000000000003,9.819809999999999
303030300,22.16,0.0,0.0,0.0,0.59841,-0.16677000000000003,9.760950000000001
308080805,22.16,0.0,0.0,0.0,0.60822,-0.16677000000000003,9.760950000000001
313131310,22.16,0.0,0.0,0.0,0.59841,-0.16677000000000003,9.81
318181815,22.16,0.0,0.0,0.0,0.6278400000000001,-0.15696000000000002,9.84924
323232320,22.16,0.0,0.0,0.0,0.60822,-0.16677000000000003,9.83943
328282825,22.16,0.0,0.0,0.0,0.59841,-0.16677000000000003,9.72171
333333330,22.16,0.0,0.0,0.0,0.60822,-0.15696000000000002,9.751140000000001
338383835,22.16,0.0,0.0,0.0,0.59841,-0.15696000000000002,9.819809999999999
343434340,22.16,0.0,0.0,0.0,0.6180300000000001,-0.15696000000000002,9.85905
348484845,22.16,0.0,0.0,0.0,0.60822,-0.15696000000000002,9.819809999999999
353535350,22.16,0.0,0.0,0.0,0.6180300000000001,-0.15696000000000002,9.760950000000001
358585855,22.16,0.0,0.0,0.0,0.6180300000000001,-0.16677000000000003,9.79038
363636360,22.16,0.0,0.0,0.0,0.59841,-0.13734000000000002,9.819809999999999
368686865,22.16,0.0,0.0,0.0,0.6180300000000001,-0.14715,9.84924
373737370,22.16,0.0,0.0,0.0,0.6180300000000001,-0.14715,9.81
378787875,22.16,0.0,0.0,0.0,0.60822,-0.15696000000000002,9.78057
383838380,22.16,0.0,0.0,0.0,0.60822,-0.13734000000000002,9.770760000000001
388888885,22.16,0.0,0.0,0.0,0.6180300000000001,-0.15696000000000002,9.85905
393939390,22.16,0.0,0.0,0.0,0.5886,-0.12753,9.86886
398989895,22.16,0.0,0.0,0.0,0.60822,-0.18639,9.82962
404040400,22.16,0.0,0.0,0.0,0.60822,-0.18639,9.760950000000001
409090905,22.16,0.0,0.0,0.0,0.5886,-0.13734000000000002,9.78057
414141410,22.16,0.0,0.0,0.0,0.59841,-0.16677000000000003,9.819809999999999
419191915,22.16,0.0,0.0,0.0,0.59841,-0.15696000000000002,9.85905
424242420,22.16,0.0,0.0,0.0,0.60822,-0.13734000000000002,9.85905
429292925,22.16,0.0,0.0,0.0,0.59841,-0.16677000000000003,9.80019
434343430,22.16,0.0,0.0,0.0,0.60822,-0.16677000000000003,9.80019
439393935,22.16,0.0,0.0,0.0,0.60822,-0.15696000000000002,9.81
444444440,22.16,0.0,0.0,0.0,0.59841,-0.17658,9.819809999999999
449494945,22.16,0.0,0.0,0.0,0.56898,-0.17658,9.819809999999999
454545450,22.16,0.0,0.0,0.0,0.60822,-0.15696000000000002,9.80019
459595955,22.16,0.0,0.0,0.0,0.60822,-0.11772,9.82962
464646460,22.16,0.0,0.0,0.0,0.59841,-0.14715,9.83943
469696965,22.16,0.0,0.0,0.0,0.6180300000000001,-0.16677000000000003,9.80019
474747470,22.16,0.0,0.0,0.0,0.60822,-0.16677000000000003,9.79038
479797975,22.16,0.0,0.0,0.0,0.60822,-0.13734000000000002,9.78057
484848480,22.16,0.0,0.0,0.0,0.5886,-0.15696000000000002,9.819809999999999
489898985,22.16,0.0,0.0,0.0,0.59841,-0.16677000000000003,9.82962
494949490,22.16,0.0,0.0,0.0,0.6180300000000001,-0.17658,9.83943
499999995,22.16,0.0,0.0,0.0,0.5886,-0.16677000000000003,9.819809999999999
505050500,22.16,0.0,0.0,0.0,0.5886,-0.18639,9.770760000000001
510101005,22.16,0.0,0.0,0.0,0.60822,-0.17658,9.81
515151510,22.16,0.0,0.0,0.0,0.6180300000000001,-0.16677000000000003,9.81
520202015,22.16,0.0,0.0,0.0,0.60822,-0.11772,9.81
525252520,22.16,0.0,0.0,0.0,0.60822,-0.15696000000000002,9.79038
530303025,22.16,0.0,0.0,0.0,0.5886,-0.13734000000000002,9.81
535353530,22.16,0.0,0.0,0.0,0.60822,-0.14715,9.81
540404035,22.16,0.0,0.0,0.0,0.5886,-0.14715,9.81
545454540,22.16,0.0,0.0,0.0,0.59841,-0.14715,9.80019
550505045,22.16,0.0,0.0,0.0,0.59841,-0.15696000000000002,9.770760000000001
555555550,22.16,0.0,0.0,0.0,0.59841,-0.13734000000000002,9.81
560606055,22.16,0.0,0.0,0.0,0.60822,-0.15696000000000002,9.82962
565656560,22.16,0.0,0.0,0.0,0.60822,-0.13734000000000002,9.83943
570707065,22.16,0.0,0.0,0.0,0.6180300000000001,-0.14715,9.80019
575757570,22.16,0.0,0.0,0.0,0.60822,-0.16677000000000003,9.78057
580808075,22.16,0.0,0.0,0.0,0.60822,-0.16677000000000003,9.79038
585858580,22.16,0.0,0.0,0.0,0.60822,-0.14715,9.84924
590909085,22.16,0.0,0.0,0.0,0.60822,-0.16677000000000003,9.85905
595959590,22.16,0.0,0.0,0.0,0.5886,-0.13734000000000002,9.819809999999999
601010095,22.16,0.0,0.0,0.0,0.60822,-0.17658,9.81
606060600,22.16,0.0,0.0,0.0,0.6180300000000001,-0.16677000000000003,9.81
611111105,22.16,0.0,0.0,0.0,0.6180300000000001,-0.14715,9.81
616161610,22.16,0.0,0.0,0.0,0.60822,-0.13734000000000002,9.81
621212115,22.16,0.0,0.0,0.0,0.6180300000000001,-0.14715,9.81
626262620,22.16,0.0,0.0,0.0,0.59841,-0.15696000000000002,9.79038
631313125,22.16,0.0,0.0,0.0,0.5886,-0.16677000000000003,9.81
636363630,22.16,0.0,0.0,0.0,0.60822,-0.17658,9.82962
641414135,22.16,0.0,0.0,0.0,0.59841,-0.16677000000000003,9.81
646464640,22.16,0.0,0.0,0.0,0.59841,-0.16677000000000003,9.80019
651515145,22.16,0.0,0.0,0.0,0.6180300000000001,-0.17658,9.80019
656565650,22.16,0.0,0.0,0.0,0.60822,-0.14715,9.80019
661616155,22.16,0.0,0.0,0.0,0.59841,-0.16677000000000003,9.81
666666660,22.16,0.0,0.0,0.0,0.5886,-0.15696000000000002,9.83943
671717165,22.16,0.0,0.0,0.0,0.60822,-0.16677000000000003,9.81
676767670,22.16,0.0,0.0,0.0,0.6180300000000001,-0.15696000000000002,9.81
681818175,22.16,0.0,0.0,0.0,0.60822,-0.14715,9.82962
686868680,22.16,0.0,0.0,0.0,0.6180300000000001,-0.15696000000000002,9.80019
691919185,22.16,0.0,0.0,0.0,0.60822,-0.14715,9.81
696969690,22.16,0.0,0.0,0.0,0.60822,-0.18639,9.80019
702020195,22.16,0.0,0.0,0.0,0.59841,-0.14715,9.83943
707070700,22.16,0.0,0.0,0.0,0.59841,-0.16677000000000003,9.80019
712121205,22.16,0.0,0.0,0.0,0.59841,-0.14715,9.80019
717171710,22.16,0.0,0.0,0.0,0.60822,-0.15696000000000002,9.81
722222215,22.16,0.0,0.0,0.0,0.60822,-0.15696000000000002,9.81
727272720,22.16,0.0,0.0,0.0,0.60822,-0.15696000000000002,9.83943
732323225,22.16,0.0,0.0,0.0,0.60822,-0.16677000000000003,9.819809999999999
737373730,22.16,0.0,0.0,0.0,0.59841,-0.16677000000000003,9.79038
742424235,22.16,0.0,0.0,0.0,0.59841,-0.15696000000000002,9.78057
747474740,22.16,0.0,0.0,0.0,0.60822,-0.14715,9.82962
752525245,22.16,0.0,0.0,0.0,0.6180300000000001,-0.15696000000000002,9.87867
757575750,22.16,0.0,0.0,0.0,0.6180300000000001,-0.13734000000000002,9.81
762626255,22.16,0.0,0.0,0.0,0.60822,-0.14715,9.79038
767676760,22.16,0.0,0.0,0.0,0.5886,-0.15696000000000002,9.770760000000001
772727265,22.16,0.0,0.0,0.0,0.60822,-0.18639,9.819809999999999
777777770,22.16,0.0,0.0,0.0,0.5886,-0.14715,9.84924
782828275,22.16,0.0,0.0,0.0,0.6278400000000001,-0.15696000000000002,9.83943
787878780,22.16,0.0,0.0,0.0,0.59841,-0.16677000000000003,9.770760000000001
792929285,22.16,0.0,0.0,0.0,0.60822,-0.16677000000000003,9.81
797979790,22.16,0.0,0.0,0.0,0.6278400000000001,-0.15696000000000002,9.81
803030295,22.16,0.0,0.0,0.0,0.60822,-0.16677000000000003,9.83943
808080800,22.16,0.0,0.0,0.0,0.6180300000000001,-0.14715,9.819809999999999
813131305,22.16,0.0,0.0,0.0,0.60822,-0.16677000000000003,9.81
818181810,22.16,0.0,0.0,0.0,0.59841,-0.15696000000000002,9.80019
823232315,22.16,0.0,0.0,0.0,0.60822,-0.15696000000000002,9.819809999999999
828282820,22.16,0.0,0.0,0.0,0.59841,-0.14715,9.83943
833333325,22.16,0.0,0.0,0.0,0.5886,-0.15696000000000002,9.83943
838383830,22.16,0.0,0.0,0.0,0.56898,-0.15696000000000002,9.79038
843434335,22.16,0.0,0.0,0.0,0.59841,-0.12753,9.81
848484840,22.16,0.0,0.0,0.0,0.60822,-0.13734000000000002,9.81
853535345,22.16,0.0,0.0,0.0,0.60822,-0.15696000000000002,9.81
858585850,22.16,0.0,0.0,0.0,0.59841,-0.15696000000000002,9.80019
863636355,22.16,0.0,0.0,0.0,0.60822,-0.15696000000000002,9.79038
868686860,22.16,0.0,0.0,0.0,0.60822,-0.15696000000000002,9.82962
873737365,22.16,0.0,0.0,0.0,0.6180300000000001,-0.16677000000000003,9.85905
878787870,22.16,0.0,0.0,0.0,0.59841,-0.15696000000000002,9.80019
883838375,22.16,0.0,0.0,0.0,0.60822,-0.16677000000000003,9.78057
888888880,22.16,0.0,0.0,0.0,0.5886,-0.15696000000000002,9.770760000000001
893939385,22.16,0.0,0.0,0.0,0.6180300000000001,-0.15696000000000002,9.84924
898989890,22.16,0.0,0.0,0.0,0.59841,-0.11772,9.85905
904040395,22.16,0.0,0.0,0.0,0.6180300000000001,-0.17658,9.82962
909090900,22.16,0.0,0.0,0.0,0.59841,-0.12753,9.78057
914141405,22.16,0.0,0.0,0.0,0.59841,-0.15696000000000002,9.770760000000001
919191910,22.16,0.0,0.0,0.0,0.6278400000000001,-0.14715,9.81
924242415,22.16,0.0,0.0,0.0,0.6180300000000001,-0.13734000000000002,9.85905
929292920,22.16,0.0,0.0,0.0,0.6278400000000001,-0.14715,9.82962
934343425,22.16,0.0,0.0,0.0,0.59841,-0.15696000000000002,9.751140000000001
939393930,22.16,0.0,0.0,0.0,0.59841,-0.15696000000000002,9.760950000000001
944444435,22.16,0.0,0.0,0.0,0.6180300000000001,-0.14715,9.819809999999999
949494940,22.16,0.0,0.0,0.0,0.60822,-0.14715,9.85905
954545445,22.16,0.0,0.0,0.0,0.6278400000000001,-0.13734000000000002,9.82962
959595950,22.16,0.0,0.0,0.0,0.60822,-0.18639,9.78057
964646455,22.16,0.0,0.0,0.0,0.59841,-0.18639,9.760950000000001
969696960,22.16,0.0,0.0,0.0,0.60822,-0.14715,9.81
974747465,22.16,0.0,0.0,0.0,0.60822,-0.15696000000000002,9.85905
979797970,22.16,0.0,0.0,0.0,0.59841,-0.15696000000000002,9.82962
984848475,22.16,0.0,0.0,0.0,0.60822,-0.16677000000000003,9.78057
989898980,22.16,0.0,0.0,0.0,0.60822,-0.16677000000000003,9.79038
994949485,22.16,0.0,0.0,0.0,0.6180300000000001,-0.15696000000000002,9.819809999999999
999999990,22.16,0.0,0.0,0.0,0.60822,-0.12753,9.86886
1005050495,22.16,0.0,0.0,0.0,0.5886,-0.16677000000000003,9.82962
1010101000,22.16,0.0,0.0,0.0,0.57879,-0.15696000000000002,9.78057
1015151505,22.16,0.0,0.0,0.0,0.60822,-0.17658,9.79038
1020202010,22.16,0.0,0.0,0.0,0.6180300000000001,-0.11772,9.81
1025252515,22.16,0.0,0.0,0.0,0.6180300000000001,-0.16677000000000003,9.81
1030303020,22.16,0.0,0.0,0.0,0.5886,-0.15696000000000002,9.819809999999999
1035353525,22.16,0.0,0.0,0.0,0.59841,-0.16677000000000003,9.82962
1040404030,22.16,0.0,0.0,0.0,0.5886,-0.14715,9.82962
1045454535,22.16,0.0,0.0,0.0,0.60822,-0.17658,9.81
1050505040,22.16,0.0,0.0,0.0,0.60822,-0.15696000000000002,9.79038
1055555545,22.16,0.0,0.0,0.0,0.6180300000000001,-0.13734000000000002,9.81
1060606050,22.16,0.0,0.0,0.0,0.60822,-0.15696000000000002,9.82962
1065656555,22.16,0.0,0.0,0.0,0.6278400000000001,-0.16677000000000003,9.82962
1070707060,22.16,0.0,0.0,0.0,0.6180300000000001,-0.16677000000000003,9.82962
1075757565,22.16,0.0,0.0,0.0,0.5886,-0.16677000000000003,9.81
1080808070,22.16,0.0,0.0,0.0,0.59841,-0.15696000000000002,9.80019
1085858575,22.16,0.0,0.0,0.0,0.60822,-0.16677000000000003,9.819809999999999
1090909080,22.16,0.0,0.0,0.0,0.60822,-0.15696000000000002,9.84924
1095959585,22.16,0.0,0.0,0.0,0.6180300000000001,-0.16677000000000003,9.83943
1101010090,22.16,0.0,0.0,0.0,0.5886,-0.15696000000000002,9.81
1106060595,22.16,0.0,0.0,0.0,0.59841,-0.15696000000000002,9.79038
1111111100,22.16,0.0,0.0,0.0,0.60822,-0.15696000000000002,9.770760000000001
1116161605,22.16,0.0,0.0,0.0,0.60822,-0.18639,9.85905
1121212110,22.16,0.0,0.0,0.0,0.59841,-0.16677000000000003,9.84924
1126262615,22.16,0.0,0.0,0.0,0.60822,-0.13734000000000002,9.81
1131313120,22.16,0.0,0.0,0.0,0.59841,-0.14715,9.79038
1136363625,22.16,0.0,0.0,0.0,0.60822,-0.17658,9.81
1141414130,22.16,0.0,0.0,0.0,0.59841,-0.15696000000000002,9.819809999999999
1146464635,22.16,0.0,0.0,0.0,0.6180300000000001,-0.14715,9.83943
1151515140,22.16,0.0,0.0,0.0,0.60822,-0.16677000000000003,9.78057
1156565645,22.16,0.0,0.0,0.0,0.6180300000000001,-0.14715,9.770760000000001
1161616150,22.16,0.0,0.0,0.0,0.5886,-0.16677000000000003,9.81
1166666655,22.16,0.0,0.0,0.0,0.6180300000000001,-0.15696000000000002,9.82962
1171717160,22.16,0.0,0.0,0.0,0.6180300000000001,-0.16677000000000003,9.82962
1176767665,22.16,0.0,0.0,0.0,0.60822,-0.16677000000000003,9.81
1181818170,22.16,0.0,0.0,0.0,0.59841,-0.14715,9.770760000000001
1186868675,22.16,0.0,0.0,0.0,0.60822,-0.14715,9.82962
1191919180,22.16,0.0,0.0,0.0,0.5886,-0.16677000000000003,9.82962
1196969685,22.16,0.0,0.0,0.0,0.6180300000000001,-0.16677000000000003,9.81
1202020190,22.16,0.0,0.0,0.0,0.60822,-0.14715,9.819809999999999
1207070695,22.16,0.0,0.0,0.0,0.60822,-0.17658,9.80019
1212121200,22.16,0.0,0.0,0.0,0.5886,-0.16677000000000003,9.82962
1217171705,22.16,0.0,0.0,0.0,0.60822,-0.15696000000000002,9.82962
1222222210,22.16,0.0,0.0,0.0,0.6180300000000001,-0.15696000000000002,9.80019
1227272715,22.16,0.0,0.0,0.0,0.5886,-0.17658,9.80019
1232323220,22.16,0.0,0.0,0.0,0.6278400000000001,-0.17658,9.82962
1237373725,22.16,0.0,0.0,0.0,0.59841,-0.16677000000000003,9.84924
1242424230,22.16,0.0,0.0,0.0,0.59841,-0.15696000000000002,9.819809999999999
1247474735,22.16,0.0,0.0,0.0,0.59841,-0.14715,9.770760000000001
1252525240,22.16,0.0,0.0,0.0,0.60822,-0.14715,9.78057
1257575745,22.16,0.0,0.0,0.0,0.60822,-0.14715,9.84924
1262626250,22.16,0.0,0.0,0.0,0.60822,-0.13734000000000002,9.84924
1267676755,22.16,0.0,0.0,0.0,0.60822,-0.12753,9.79038
1272727260,22.16,0.0,0.0,0.0,0.6180300000000001,-0.17658,9.79038
1277777765,22.16,0.0,0.0,0.0,0.59841,-0.14715,9.79038
1282828270,22.16,0.0,0.0,0.0,0.60822,-0.17658,9.85905
1287878775,22.16,0.0,0.0,0.0,0.6180300000000001,-0.15696000000000002,9.86886
1292929280,20.7,0.0,0.0,0.0,0.59841,-0.16677000000000003,9.81
1297979785,20.7,0.0,0.0,0.0,0.6180300000000001,-0.14715,9.770760000000001
1303030290,20.7,0.0,0.0,0.0,0.60822,-0.15696000000000002,9.78057
1308080795,20.7,0.0,0.0,0.0,0.59841,-0.15696000000000002,9.85905
1313131300,20.7,0.0,0.0,0.0,0.59841,-0.17658,9.82962
1318181805,20.7,0.0,0.0,0.0,0.5886,-0.17658,9.79038
1323232310,20.7,0.0,0.0,0.0,0.60822,-0.13734000000000002,9.760950000000001
1328282815,20.7,0.0,0.0,0.0,0.60822,-0.15696000000000002,9.81
1333333320,20.7,0.0,0.0,0.0,0.6180300000000001,-0.14715,9.87867
1338383825,20.7,0.0,0.0,0.0,0.60822,-0.17658,9.85905
1343434330,20.7,0.0,0.0,0.0,0.59841,-0.15696000000000002,9.80019
1348484835,20.7,0.0,0.0,0.0,0.5886,-0.14715,9.73152
1353535340,20.7,0.0,0.0,0.0,0.60822,-0.14715,9.78057
1358585845,20.7,0.0,0.0,0.0,0.60822,-0.15696000000000002,9.87867
1363636350,20.7,0.0,0.0,0.0,0.60822,-0.14715,9.89829
1368686855,20.7,0.0,0.0,0.0,0.6180300000000001,-0.17658,9.81
1373737360,20.7,0.0,0.0,0.0,0.59841,-0.17658,9.760950000000001
1378787865,20.7,0.0,0.0,0.0,0.59841,-0.17658,9.79038
1383838370,20.7,0.0,0.0,0.0,0.6180300000000001,-0.14715,9.82962
1388888875,20.7,0.0,0.0,0.0,0.6278400000000001,-0.14715,9.87867
1393939380,20.7,0.0,0.0,0.0,0.60822,-0.15696000000000002,9.80019
1398989885,20.7,0.0,0.0,0.0,0.59841,-0.16677000000000003,9.760950000000001
1404040390,20.7,0.0,0.0,0.0,0.60822,-0.13734000000000002,9.78057
1409090895,20.7,0.0,0.0,0.0,0.6180300000000001,-0.13734000000000002,9.86886
1414141400,20.7,0.0,0.0,0.0,0.59841,-0.13734000000000002,9.84924
1419191905,20.7,0.0,0.0,0.0,0.60822,-0.15696000000000002,9.81
1424242410,20.7,0.0,0.0,0.0,0.59841,-0.15696000000000002,9.760950000000001
1429292915,20.7,0.0,0.0,0.0,0.60822,-0.14715,9.80019
1434343420,20.7,0.0,0.0,0.0,0.6180300000000001,-0.16677000000000003,9.87867
1439393925,20.7,0.0,0.0,0.0,0.59841,-0.18639,9.86886
1444444430,20.7,0.0,0.0,0.0,0.57879,-0.20601000000000003,9.81
1449494935,20.7,0.0,0.0,0.0,0.60822,-0.15696000000000002,9.79038
1454545440,20.7,0.0,0.0,0.0,0.6180300000000001,-0.17658,9.81
1459595945,20.7,0.0,0.0,0.0,0.60822,-0.14715,9.83943
1464646450,20.7,0.0,0.0,0.0,0.6180300000000001,-0.15696000000000002,9.83943
1469696955,20.7,0.0,0.0,0.0,0.6278400000000001,-0.16677000000000003,9.80019
1474747460,20.7,0.0,0.0,0.0,0.60822,-0.15696000000000002,9.82962
1479797965,20.7,0.0,0.0,0.0,0.60822,-0.15696000000000002,9.81
1484848470,20.7,0.0,0.0,0.0,0.5886,-0.17658,9.83943
1489898975,20.7,0.0,0.0,0.0,0.5886,-0.14715,9.81
1494949480,20.7,0.0,0.0,0.0,0.59841,-0.16677000000000003,9.78057
1499999985,20.7,0.0,0.0,0.0,0.60822,-0.13734000000000002,9.82962
1505050490,20.7,0.0,0.0,0.0,0.60822,-0.16677000000000003,9.82962
1510100995,20.7,0.0,0.0,0.0,0.60822,-0.14715,9.85905
1515151500,20.7,0.0,0.0,0.0,0.5886,-0.17658,9.760950000000001
1520202005,20.7,0.0,0.0,0.0,0.60822,-0.17658,9.79038
1525252510,20.7,0.0,0.0,0.0,0.6278400000000001,-0.15696000000000002,9.81
1530303015,20.7,0.0,0.0,0.0,0.60822,-0.14715,9.83943
1535353520,20.7,0.0,0.0,0.0,0.59841,-0.16677000000000003,9.86886
1540404025,20.7,0.0,0.0,0.0,0.60822,-0.15696000000000002,9.78057
1545454530,20.7,0.0,0.0,0.0,0.5886,-0.15696000000000002,9.770760000000001
1550505035,20.7,0.0,0.0,0.0,0.60822,-0.14715,9.80019
1555555540,20.7,0.0,0.0,0.0,0.59841,-0.15696000000000002,9.85905
1560606045,20.7,0.0,0.0,0.0,0.59841,-0.16677000000000003,9.86886
1565656550,20.7,0.0,0.0,0.0,0.6180300000000001,-0.14715,9.79038
1570707055,20.7,0.0,0.0,0.0,0.60822,-0.15696000000000002,9.770760000000001
1575757560,20.7,0.0,0.0,0.0,0.6180300000000001,-0.14715,9.81
1580808065,20.7,0.0,0.0,0.0,0.63765,-0.16677000000000003,9.87867
1585858570,20.7,0.0,0.0,0.0,0.63765,-0.17658,9.82962
1590909075,20.7,0.0,0.0,0.0,0.6180300000000001,-0.16677000000000003,9.79038
1595959580,20.7,0.0,0.0,0.0,0.59841,-0.13734000000000002,9.73152
1601010085,20.7,0.0,0.0,0.0,0.60822,-0.16677000000000003,9.79038
1606060590,20.7,0.0,0.0,0.0,0.60822,-0.16677000000000003,9.86886
1611111095,20.7,0.0,0.0,0.0,0.63765,-0.18639,9.86886
1616161600,20.7,0.0,0.0,0.0,0.59841,-0.15696000000000002,9.81
1621212105,20.7,0.0,0.0,0.0,0.5886,-0.17658,9.751140000000001
1626262610,20.7,0.0,0.0,0.0,0.5886,-0.16677000000000003,9.79038
1631313115,20.7,0.0,0.0,0.0,0.60822,-0.12753,9.83943
1636363620,20.7,0.0,0.0,0.0,0.6180300000000001,-0.15696000000000002,9.86886
1641414125,20.7,0.0,0.0,0.0,0.60822,-0.15696000000000002,9.81
1646464630,20.7,0.0,0.0,0.0,0.60822,-0.15696000000000002,9.79038
1651515135,20.7,0.0,0.0,0.0,0.60822,-0.15696000000000002,9.79038
1656565640,20.7,0.0,0.0,0.0,0.60822,-0.13734000000000002,9.83943
1661616145,20.7,0.0,0.0,0.0,0.60822,-0.16677000000000003,9.84924
1666666650,20.7,0.0,0.0,0.0,0.6180300000000001,-0.17658,9.80019
1671717155,20.7,0.0,0.0,0.0,0.60822,-0.14715,9.770760000000001
1676767660,20.7,0.0,0.0,0.0,0.6180300000000001,-0.14715,9.80019
1681818165,20.7,0.0,0.0,0.0,0.60822,-0.16677000000000003,9.819809999999999
1686868670,20.7,0.0,0.0,0.0,0.59841,-0.15696000000000002,9.84924
1691919175,20.7,0.0,0.0,0.0,0.60822,-0.13734000000000002,9.81
1696969680,20.7,0.0,0.0,0.0,0.60822,-0.18639,9.78057
1702020185,20.7,0.0,0.0,0.0,0.59841,-0.15696000000000002,9.79038
1707070690,20.7,0.0,0.0,0.0,0.59841,-0.16677000000000003,9.81
1712121195,20.7,0.0,0.0,0.0,0.59841,-0.16677000000000003,9.83943
1717171700,20.7,0.0,0.0,0.0,0.6278400000000001,-0.15696000000000002,9.81
1722222205,20.7,0.0,0.0,0.0,0.59841,-0.13734000000000002,9.79038
1727272710,20.7,0.0,0.0,0.0,0.60822,-0.16677000000000003,9.78057
1732323215,20.7,0.0,0.0,0.0,0.5886,-0.16677000000000003,9.80019
1737373720,20.7,0.0,0.0,0.0,0.60822,-0.16677000000000003,9.83943
1742424225,20.7,0.0,0.0,0.0,0.6278400000000001,-0.14715,9.87867
1747474730,20.7,0.0,0.0,0.0,0.6278400000000001,-0.17658,9.81
1752525235,20.7,0.0,0.0,0.0,0.59841,-0.14715,9.770760000000001
1757575740,20.7,0.0,0.0,0.0,0.59841,-0.1962,9.770760000000001
1762626245,20.7,0.0,0.0,0.0,0.57879,-0.13734000000000002,9.84924
1767676750,20.7,0.0,0.0,0.0,0.63765,-0.16677000000000003,9.85905
1772727255,20.7,0.0,0.0,0.0,0.60822,-0.15696000000000002,9.888480000000001
1777777760,20.7,0.0,0.0,0.0,0.6278400000000001,-0.15696000000000002,9.78057
1782828265,20.7,0.0,0.0,0.0,0.60822,-0.16677000000000003,9.760950000000001
1787878770,20.7,0.0,0.0,0.0,0.60822,-0.15696000000000002,9.80019
1792929275,20.7,0.0,0.0,0.0,0.60822,-0.14715,9.85905
1797979780,20.7,0.0,0.0,0.0,0.60822,-0.16677000000000003,9.85905
1803030285,20.7,0.0,0.0,0.0,0.59841,-0.16677000000000003,9.80019
1808080790,20.7,0.0,0.0,0.0,0.60822,-0.14715,9.74133
1813131295,20.7,0.0,0.0,0.0,0.6278400000000001,-0.17658,9.79038
1818181800,20.7,0.0,0.0,0.0,0.64746,-0.16677000000000003,9.819809999999999
1823232305,20.7,0.0,0.0,0.0,0.5886,-0.16677000000000003,9.83943
1828282810,20.7,0.0,0.0,0.0,0.6278400000000001,-0.14715,9.80019
1833333315,20.7,0.0,0.0,0.0,0.60822,-0.14715,9.770760000000001
1838383820,20.7,0.0,0.0,0.0,0.60822,-0.15696000000000002,9.78057
1843434325,20.7,0.0,0.0,0.0,0.60822,-0.16677000000000003,9.86886
1848484830,20.7,0.0,0.0,0.0,0.6180300000000001,-0.16677000000000003,9.84924
1853535335,20.7,0.0,0.0,0.0,0.6180300000000001,-0.13734000000000002,9.80019
1858585840,20.7,0.0,0.0,0.0,0.59841,-0.15696000000000002,9.760950000000001
1863636345,20.7,0.0,0.0,0.0,0.59841,-0.15696000000000002,9.81
1868686850,20.7,0.0,0.0,0.0,0.59841,-0.16677000000000003,9.85905
1873737355,20.7,0.0,0.0,0.0,0.6278400000000001,-0.14715,9.84924
1878787860,20.7,0.0,0.0,0.0,0.60822,-0.16677000000000003,9.819809999999999
1883838365,20.7,0.0,0.0,0.0,0.59841,-0.16677000000000003,9.760950000000001
1888888870,20.7,0.0,0.0,0.0,0.60822,-0.14715,9.81
1893939375,20.7,0.0,0.0,0.0,0.5886,-0.15696000000000002,9.819809999999999
1898989880,20.7,0.0,0.0,0.0,0.59841,-0.14715,9.82962
1904040385,20.7,0.0,0.0,0.0,0.59841,-0.15696000000000002,9.80019
1909090890,20.7,0.0,0.0,0.0,0.60822,-0.16677000000000003,9.82962
1914141395,20.7,0.0,0.0,0.0,0.60822,-0.16677000000000003,9.819809999999999
1919191900,20.7,0.0,0.0,0.0,0.60822,-0.15696000000000002,9.82962
1924242405,20.7,0.0,0.0,0.0,0.56898,-0.15696000000000002,9.79038
1929292910,20.7,0.0,0.0,0.0,0.59841,-0.16677000000000003,9.79038
1934343415,20.7,0.0,0.0,0.0,0.59841,-0.13734000000000002,9.819809999999999
1939393920,20.7,0.0,0.0,0.0,0.59841,-0.15696000000000002,9.83943
1944444425,20.7,0.0,0.0,0.0,0.6278400000000001,-0.14715,9.82962
1949494930,20.7,0.0,0.0,0.0,0.57879,-0.14715,9.78057
1954545435,20.7,0.0,0.0,0.0,0.59841,-0.15696000000000002,9.74133
1959595940,20.7,0.0,0.0,0.0,0.60822,-0.15696000000000002,9.81
1964646445,20.7,0.0,0.0,0.0,0.6278400000000001,-0.12753,9.87867
1969696950,20.7,0.0,0.0,0.0,0.6180300000000001,-0.13734000000000002,9.86886
1974747455,20.7,0.0,0.0,0.0,0.60822,-0.16677000000000003,9.79038
1979797960,20.7,0.0,0.0,0.0,0.60822,-0.17658,9.74133
1984848465,20.7,0.0,0.0,0.0,0.60822,-0.14715,9.80019
1989898970,20.7,0.0,0.0,0.0,0.6180300000000001,-0.14715,9.85905
1994949475,20.7,0.0,0.0,0.0,0.60822,-0.14715,9.84924
1999999980,20.7,0.0,0.0,0.0,0.60822,-0.15696000000000002,9.78057
2005050485,20.7,0.0,0.0,0.0,0.5886,-0.17658,9.751140000000001
2010100990,20.7,0.0,0.0,0.0,0.59841,-0.1962,9.81
2015151495,20.7,0.0,0.0,0.0,0.6278400000000001,-0.15696000000000002,9.84924
2020202000,20.7,0.0,0.0,0.0,0.59841,-0.15696000000000002,9.82962
2025252505,20.7,0.0,0.0,0.0,0.5886,-0.15696000000000002,9.79038
2030303010,20.7,0.0,0.0,0.0,0.60822,-0.13734000000000002,9.760950000000001
2035353515,20.7,0.0,0.0,0.0,0.60822,-0.17658,9.80019
2040404020,20.7,0.0,0.0,0.0,0.59841,-0.12753,9.82962
2045454525,20.7,0.0,0.0,0.0,0.60822,-0.15696000000000002,9.819809999999999
2050505030,20.7,0.0,0.0,0.0,0.59841,-0.15696000000000002,9.78057
2055555535,20.7,0.0,0.0,0.0,0.60822,-0.17658,9.78057
2060606040,20.7,0.0,0.0,0.0,0.59841,-0.13734000000000002,9.81
2065656545,20.7,0.0,0.0,0.0,0.59841,-0.15696000000000002,9.83943
2070707050,20.7,0.0,0.0,0.0,0.60822,-0.13734000000000002,9.819809999999999
2075757555,20.7,0.0,0.0,0.0,0.6180300000000001,-0.16677000000000003,9.80019
2080808060,20.7,0.0,0.0,0.0,0.60822,-0.15696000000000002,9.770760000000001
2085858565,20.7,0.0,0.0,0.0,0.60822,-0.17658,9.819809999999999
2090909070,20.7,0.0,0.0,0.0,0.60822,-0.15696000000000002,9.84924
2095959575,20.7,0.0,0.0,0.0,0.6278400000000001,-0.17658,9.78057
2101010080,20.7,0.0,0.0,0.0,0.59841,-0.14715,9.78057
2106060585,20.7,0.0,0.0,0.0,0.5886,-0.14715,9.79038
2111111090,20.7,0.0,0.0,0.0,0.59841,-0.14715,9.819809999999999
2116161595,20.7,0.0,0.0,0.0,0.60822,-0.16677000000000003,9.84924
2121212100,20.7,0.0,0.0,0.0,0.59841,-0.15696000000000002,9.78057
2126262605,20.7,0.0,0.0,0.0,0.60822,-0.17658,9.751140000000001
2131313110,20.7,0.0,0.0,0.0,0.59841,-0.12753,9.81
2136363615,20.7,0.0,0.0,0.0,0.60822,-0.17658,9.83943
2141414120,20.7,0.0,0.0,0.0,0.60822,-0.16677000000000003,9.85905
2146464625,20.7,0.0,0.0,0.0,0.59841,-0.15696000000000002,9.80019
2151515130,20.7,0.0,0.0,0.0,0.5886,-0.16677000000000003,9.78057
2156565635,20.7,0.0,0.0,0.0,0.60822,-0.14715,9.819809999999999
2161616140,20.7,0.0,0.0,0.0,0.59841,-0.15696000000000002,9.83943
2166666645,20.7,0.0,0.0,0.0,0.5886,-0.15696000000000002,9.83943
2171717150,20.7,0.0,0.0,0.0,0.60822,-0.17658,9.80019
2176767655,20.7,0.0,0.0,0.0,0.63765,-0.14715,9.78057
2181818160,20.7,0.0,0.0,0.0,0.5886,-0.18639,9.81
2186868665,20.7,0.0,0.0,0.0,0.59841,-0.15696000000000002,9.819809999999999
2191919170,20.7,0.0,0.0,0.0,0.60822,-0.13734000000000002,9.819809999999999
2196969675,20.7,0.0,0.0,0.0,0.59841,-0.17658,9.80019
2202020180,20.7,0.0,0.0,0.0,0.5886,-0.16677000000000003,9.81
2207070685,20.7,0.0,0.0,0.0,0.5886,-0.16677000000000003,9.81
2212121190,20.7,0.0,0.0,0.0,0.60822,-0.14715,9.83943
2217171695,20.7,0.0,0.0,0.0,0.6180300000000001,-0.14715,9.82962
2222222200,20.7,0.0,0.0,0.0,0.59841,-0.15696000000000002,9.81
2227272705,20.7,0.0,0.0,0.0,0.59841,-0.16677000000000003,9.81
2232323210,20.7,0.0,0.0,0.0,0.60822,-0.16677000000000003,9.81
2237373715,20.7,0.0,0.0,0.0,0.60822,-0.16677000000000003,9.81
2242424220,20.7,0.0,0.0,0.0,0.60822,-0.16677000000000003,9.81
2247474725,20.7,0.0,0.0,0.0,0.60822,-0.16677000000000003,9.81
2252525230,20.7,0.0,0.0,0.0,0.60822,-0.18639,9.82962
2257575735,20.7,0.0,0.0,0.0,0.60822,-0.17658,9.80019
2262626240,20.7,0.0,0.0,0.0,0.59841,-0.14715,9.80019
2267676745,20.7,0.0,0.0,0.0,0.60822,-0.15696000000000002,9.79038
2272727250,20.7,0.0,0.0,0.0,0.59841,-0.14715,9.819809999999999
2277777755,20.7,0.0,0.0,0.0,0.59841,-0.16677000000000003,9.82962
2282828260,20.7,0.0,0.0,0.0,0.59841,-0.16677000000000003,9.819809999999999
2287878765,20.7,0.0,0.0,0.0,0.57879,-0.15696000000000002,9.79038
2292929270,20.7,0.0,0.0,0.0,0.5886,-0.13734000000000002,9.79038
2297979775,20.7,0.0,0.0,0.0,0.59841,-0.12753,9.819809999999999
2303030280,20.7,0.0,0.0,0.0,0.59841,-0.14715,9.85905
2308080785,20.7,0.0,0.0,0.0,0.6278400000000001,-0.13734000000000002,9.82962
2313131290,20.7,0.0,0.0,0.0,0.60822,-0.16677000000000003,9.78057
2318181795,20.7,0.0,0.0,0.0,0.59841,-0.14715,9.79038
2323232300,20.7,0.0,0.0,0.0,0.6180300000000001,-0.17658,9.819809999999999
2328282805,20.7,0.0,0.0,0.0,0.60822,-0.16677000000000003,9.86886
2333333310,20.7,0.0,0.0,0.0,0.60822,-0.18639,9.81
2338383815,20.7,0.0,0.0,0.0,0.60822,-0.14715,9.81
2343434320,20.7,0.0,0.0,0.0,0.59841,-0.15696000000000002,9.80019
2348484825,20.7,0.0,0.0,0.0,0.60822,-0.14715,9.819809999999999
2353535330,20.7,0.0,0.0,0.0,0.60822,-0.17658,9.84924
2358585835,20.7,0.0,0.0,0.0,0.60822,-0.16677000000000003,9.85905
2363636340,20.7,0.0,0.0,0.0,0.6278400000000001,-0.16677000000000003,9.760950000000001
2368686845,20.7,0.0,0.0,0.0,0.6278400000000001,-0.15696000000000002,9.770760000000001
2373737350,20.7,0.0,0.0,0.0,0.59841,-0.12753,9.82962
2378787855,20.7,0.0,0.0,0.0,0.6278400000000001,-0.17658,9.85905
2383838360,20.7,0.0,0.0,0.0,0.5886,-0.14715,9.83943
2388888865,20.7,0.0,0.0,0.0,0.5886,-0.16677000000000003,9.78057
2393939370,20.7,0.0,0.0,0.0,0.59841,-0.15696000000000002,9.760950000000001
2398989875,20.7,0.0,0.0,0.0,0.60822,-0.15696000000000002,9.819809999999999
2404040380,20.7,0.0,0.0,0.0,0.5886,-0.13734000000000002,9.84924
2409090885,20.7,0.0,0.0,0.0,0.6180300000000001,-0.16677000000000003,9.82962
2414141390,20.7,0.0,0.0,0.0,0.60822,-0.12753,9.79038
2419191895,20.7,0.0,0.0,0.0,0.60822,-0.15696000000000002,9.79038
2424242400,20.7,0.0,0.0,0.0,0.59841,-0.18639,9.819809999999999
2429292905,20.7,0.0,0.0,0.0,0.59841,-0.15696000000000002,9.82962
2434343410,20.7,0.0,0.0,0.0,0.6180300000000001,-0.13734000000000002,9.82962
2439393915,20.7,0.0,0.0,0.0,0.60822,-0.15696000000000002,9.80019
2444444420,20.7,0.0,0.0,0.0,0.60822,-0.14715,9.81
2449494925,20.7,0.0,0.0,0.0,0.6278400000000001,-0.14715,9.82962
2454545430,20.7,0.0,0.0,0.0,0.60822,-0.16677000000000003,9.82962
2459595935,20.7,0.0,0.0,0.0,0.60822,-0.17658,9.819809999999999
2464646440,20.7,0.0,0.0,0.0,0.59841,-0.15696000000000002,9.80019
2469696945,20.7,0.0,0.0,0.0,0.6180300000000001,-0.17658,9.81
2474747450,20.7,0.0,0.0,0.0,0.6180300000000001,-0.15696000000000002,9.82962
2479797955,20.7,0.0,0.0,0.0,0.6180300000000001,-0.17658,9.84924
2484848460,20.7,0.0,0.0,0.0,0.59841,-0.16677000000000003,9.819809999999999
2489898965,20.7,0.0,0.0,0.0,0.60822,-0.16677000000000003,9.770760000000001
2494949470,20.7,0.0,0.0,0.0,0.60822,-0.14715,9.79038
2499999975,20.7,0.0,0.0,0.0,0.59841,-0.15696000000000002,9.81
2505050480,20.7,0.0,0.0,0.0,0.5886,-0.16677000000000003,9.82962
2510100985,20.7,0.0,0.0,0.0,0.60822,-0.15696000000000002,9.81
2515151490,20.7,0.0,0.0,0.0,0.6180300000000001,-0.16677000000000003,9.819809999999999
2520201995,20.7,0.0,0.0,0.0,0.60822,-0.13734000000000002,9.819809999999999
2525252500,20.7,0.0,0.0,0.0,0.6180300000000001,-0.17658,9.83943
2530303005,20.7,0.0,0.0,0.0,0.59841,-0.15696000000000002,9.79038
2535353510,20.7,0.0,0.0,0.0,0.60822,-0.15696000000000002,9.80019
2540404015,20.7,0.0,0.0,0.0,0.60822,-0.15696000000000002,9.81
2545454520,20.7,0.0,0.0,0.0,0.6278400000000001,-0.17658,9.84924
2550505025,20.7,0.0,0.0,0.0,0.60822,-0.16677000000000003,9.82962
2555555530,20.7,0.0,0.0,0.0,0.59841,-0.17658,9.81
2560606035,20.7,0.0,0.0,0.0,0.5886,-0.13734000000000002,9.770760000000001
2565656540,20.7,0.0,0.0,0.0,0.60822,-0.16677000000000003,9.81
2570707045,20.7,0.0,0.0,0.0,0.6180300000000001,-0.15696000000000002,9.82962
2575757550,20.7,0.0,0.0,0.0,0.5886,-0.16677000000000003,9.82962
2580808055,20.7,0.0,0.0,0.0,0.6180300000000001,-0.15696000000000002,9.81
2585858560,20.7,0.0,0.0,0.0,0.5886,-0.15696000000000002,9.760950000000001
2590909065,20.7,0.0,0.0,0.0,0.59841,-0.17658,9.78057
2595959570,20.7,0.0,0.0,0.0,0.60822,-0.15696000000000002,9.82962
2601010075,20.7,0.0,0.0,0.0,0.59841,-0.15696000000000002,9.888480000000001
2606060580,20.7,0.0,0.0,0.0,0.5886,-0.16677000000000003,9.82962
2611111085,20.7,0.0,0.0,0.0,0.59841,-0.13734000000000002,9.760950000000001
2616161590,20.7,0.0,0.0,0.0,0.5886,-0.16677000000000003,9.760950000000001
2621212095,20.7,0.0,0.0,0.0,0.59841,-0.16677000000000003,9.83943
2626262600,20.7,0.0,0.0,0.0,0.6180300000000001,-0.16677000000000003,9.86886
2631313105,20.7,0.0,0.0,0.0,0.5886,-0.14715,9.81
2636363610,20.7,0.0,0.0,0.0,0.59841,-0.12753,9.78057
2641414115,20.7,0.0,0.0,0.0,0.59841,-0.15696000000000002,9.770760000000001
2646464620,20.7,0.0,0.0,0.0,0.60822,-0.12753,9.80019
2651515125,20.7,0.0,0.0,0.0,0.6180300000000001,-0.17658,9.83943
2656565630,20.7,0.0,0.0,0.0,0.59841,-0.15696000000000002,9.82962
2661616135,20.7,0.0,0.0,0.0,0.59841,-0.15696000000000002,9.80019
2666666640,20.7,0.0,0.0,0.0,0.6180300000000001,-0.13734000000000002,9.80019
2671717145,20.7,0.0,0.0,0.0,0.6180300000000001,-0.16677000000000003,9.81
2676767650,20.7,0.0,0.0,0.0,0.60822,-0.13734000000000002,9.81
2681818155,20.7,0.0,0.0,0.0,0.60822,-0.16677000000000003,9.82962
2686868660,20.7,0.0,0.0,0.0,0.59841,-0.15696000000000002,9.83943
2691919165,20.7,0.0,0.0,0.0,0.60822,-0.14715,9.80019
2696969670,20.7,0.0,0.0,0.0,0.59841,-0.15696000000000002,9.79038
2702020175,20.7,0.0,0.0,0.0,0.60822,-0.15696000000000002,9.819809999999999
2707070680,20.7,0.0,0.0,0.0,0.60822,-0.12753,9.86886
2712121185,20.7,0.0,0.0,0.0,0.60822,-0.17658,9.83943
2717171690,20.7,0.0,0.0,0.0,0.60822,-0.17658,9.819809999999999
2722222195,20.7,0.0,0.0,0.0,0.60822,-0.12753,9.80019
2727272700,20.7,0.0,0.0,0.0,0.59841,-0.16677000000000003,9.770760000000001
2732323205,20.7,0.0,0.0,0.0,0.60822,-0.16677000000000003,9.81
2737373710,20.7,0.0,0.0,0.0,0.60822,-0.16677000000000003,9.83943
2742424215,20.7,0.0,0.0,0.0,0.60822,-0.15696000000000002,9.819809999999999
2747474720,20.7,0.0,0.0,0.0,0.59841,-0.16677000000000003,9.79038
2752525225,20.7,0.0,0.0,0.0,0.60822,-0.15696000000000002,9.770760000000001
2757575730,20.7,0.0,0.0,0.0,0.59841,-0.18639,9.80019
2762626235,20.7,0.0,0.0,0.0,0.59841,-0.15696000000000002,9.83943
2767676740,20.7,0.0,0.0,0.0,0.6180300000000001,-0.16677000000000003,9.83943
2772727245,20.7,0.0,0.0,0.0,0.57879,-0.15696000000000002,9.79038
2777777750,20.7,0.0,0.0,0.0,0.60822,-0.16677000000000003,9.80019
2782828255,20.7,0.0,0.0,0.0,0.59841,-0.15696000000000002,9.819809999999999
2787878760,20.7,0.0,0.0,0.0,0.59841,-0.16677000000000003,9.83943
2792929265,20.7,0.0,0.0,0.0,0.60822,-0.14715,9.80019
2797979770,20.7,0.0,0.0,0.0,0.60822,-0.13734000000000002,9.80019
2803030275,20.7,0.0,0.0,0.0,0.59841,-0.16677000000000003,9.82962
2808080780,20.7,0.0,0.0,0.0,0.6278400000000001,-0.13734000000000002,9.819809999999999
2813131285,20.7,0.0,0.0,0.0,0.60822,-0.1962,9.84924
2818181790,20.7,0.0,0.0,0.0,0.59841,-0.16677000000000003,9.81
2823232295,20.7,0.0,0.0,0.0,0.59841,-0.13734000000000002,9.770760000000001
2828282800,20.7,0.0,0.0,0.0,0.60822,-0.17658,9.78057
2833333305,20.7,0.0,0.0,0.0,0.60822,-0.14715,9.83943
2838383810,20.7,0.0,0.0,0.0,0.6278400000000001,-0.14715,9.82962
2843434315,20.7,0.0,0.0,0.0,0.57879,-0.18639,9.81
2848484820,20.7,0.0,0.0,0.0,0.59841,-0.15696000000000002,9.79038
2853535325,20.7,0.0,0.0,0.0,0.6180300000000001,-0.15696000000000002,9.79038
2858585830,20.7,0.0,0.0,0.0,0.60822,-0.16677000000000003,9.82962
2863636335,20.7,0.0,0.0,0.0,0.59841,-0.16677000000000003,9.819809999999999
2868686840,20.7,0.0,0.0,0.0,0.59841,-0.13734000000000002,9.819809999999999
2873737345,20.7,0.0,0.0,0.0,0.60822,-0.13734000000000002,9.770760000000001
2878787850,20.7,0.0,0.0,0.0,0.6180300000000001,-0.14715,9.80019
2883838355,20.7,0.0,0.0,0.0,0.63765,-0.16677000000000003,9.83943
2888888860,20.7,0.0,0.0,0.0,0.6180300000000001,-0.15696000000000002,9.83943
2893939365,20.7,0.0,0.0,0.0,0.6180300000000001,-0.14715,9.80019
2898989870,20.7,0.0,0.0,0.0,0.60822,-0.16677000000000003,9.79038
2904040375,20.7,0.0,0.0,0.0,0.60822,-0.16677000000000003,9.80019
2909090880,20.7,0.0,0.0,0.0,0.60822,-0.16677000000000003,9.85905
2914141385,20.7,0.0,0.0,0.0,0.60822,-0.15696000000000002,9.83943
2919191890,20.7,0.0,0.0,0.0,0.59841,-0.15696000000000002,9.78057
2924242395,20.7,0.0,0.0,0.0,0.59841,-0.14715,9.760950000000001
2929292900,20.7,0.0,0.0,0.0,0.60822,-0.16677000000000003,9.82962
2934343405,20.7,0.0,0.0,0.0,0.6278400000000001,-0.15696000000000002,9.84924
2939393910,20.7,0.0,0.0,0.0,0.59841,-0.13734000000000002,9.819809999999999
2944444415,20.7,0.0,0.0,0.0,0.59841,-0.17658,9.760950000000001
2949494920,20.7,0.0,0.0,0.0,0.6180300000000001,-0.13734000000000002,9.78057
2954545425,20.7,0.0,0.0,0.0,0.60822,-0.16677000000000003,9.83943
2959595930,20.7,0.0,0.0,0.0,0.6180300000000001,-0.14715,9.84924
2964646435,20.7,0.0,0.0,0.0,0.60822,-0.18639,9.83943
2969696940,20.7,0.0,0.0,0.0,0.59841,-0.14715,9.760950000000001
2974747445,20.7,0.0,0.0,0.0,0.59841,-0.15696000000000002,9.78057
2979797950,20.7,0.0,0.0,0.0,0.60822,-0.13734000000000002,9.85905
2984848455,20.7,0.0,0.0,0.0,0.60822,-0.16677000000000003,9.87867
2989898960,20.7,0.0,0.0,0.0,0.59841,-0.15696000000000002,9.81
2994949465,20.7,0.0,0.0,0.0,0.60822,-0.16677000000000003,9.74133
2999999970,20.7,0.0,0.0,0.0,0.60822,-0.15696000000000002,9.770760000000001
3005050475,20.7,0.0,0.0,0.0,0.60822,-0.17658,9.84924
3010100980,20.7,0.0,0.0,0.0,0.60822,-0.16677000000000003,9.86886
3015151485,20.7,0.0,0.0,0.0,0.59841,-0.16677000000000003,9.81
3020201990,20.7,0.0,0.0,0.0,0.60822,-0.15696000000000002,9.72171
3025252495,20.7,0.0,0.0,0.0,0.57879,-0.16677000000000003,9.770760000000001
3030303000,20.7,0.0,0.0,0.0,0.59841,-0.13734000000000002,9.819809999999999
3035353505,20.7,0.0,0.0,0.0,0.6180300000000001,-0.1962,9.888480000000001
3040404010,20.7,0.0,0.0,0.0,0.5886,-0.13734000000000002,9.82962
3045454515,20.7,0.0,0.0,0.0,0.59841,-0.17658,9.751140000000001
3050505020,20.7,0.0,0.0,0.0,0.60822,-0.15696000000000002,9.770760000000001
3055555525,20.7,0.0,0.0,0.0,0.60822,-0.17658,9.82962
3060606030,20.7,0.0,0.0,0.0,0.59841,-0.16677000000000003,9.87867
3065656535,20.7,0.0,0.0,0.0,0.60822,-0.15696000000000002,9.86886
3070707040,20.7,0.0,0.0,0.0,0.6180300000000001,-0.13734000000000002,9.78057
3075757545,20.7,0.0,0.0,0.0,0.60822,-0.14715,9.770760000000001
3080808050,20.7,0.0,0.0,0.0,0.6180300000000001,-0.16677000000000003,9.81
3085858555,20.7,0.0,0.0,0.0,0.60822,-0.13734000000000002,9.83943
3090909060,20.7,0.0,0.0,0.0,0.60822,-0.15696000000000002,9.82962
3095959565,20.7,0.0,0.0,0.0,0.60822,-0.16677000000000003,9.819809999999999
3101010070,20.7,0.0,0.0,0.0,0.60822,-0.15696000000000002,9.760950000000001
3106060575,20.7,0.0,0.0,0.0,0.59841,-0.14715,9.78057
3111111080,20.7,0.0,0.0,0.0,0.6180300000000001,-0.15696000000000002,9.819809999999999
3116161585,20.7,0.0,0.0,0.0,0.60822,-0.15696000000000002,9.84924
3121212090,20.7,0.0,0.0,0.0,0.6180300000000001,-0.14715,9.81
3126262595,20.7,0.0,0.0,0.0,0.60822,-0.16677000000000003,9.819809999999999
3131313100,20.7,0.0,0.0,0.0,0.6278400000000001,-0.16677000000000003,9.79038
3136363605,20.7,0.0,0.0,0.0,0.60822,-0.14715,9.80019
3141414110,20.7,0.0,0.0,0.0,0.59841,-0.15696000000000002,9.819809999999999
3146464615,20.7,0.0,0.0,0.0,0.59841,-0.14715,9.819809999999999
3151515120,20.7,0.0,0.0,0.0,0.59841,-0.12753,9.84924
3156565625,20.7,0.0,0.0,0.0,0.59841,-0.17658,9.80019
3161616130,20.7,0.0,0.0,0.0,0.56898,-0.14715,9.770760000000001
3166666635,20.7,0.0,0.0,0.0,0.59841,-0.16677000000000003,9.81
3171717140,20.7,0.0,0.0,0.0,0.60822,-0.14715,9.85905
3176767645,20.7,0.0,0.0,0.0,0.60822,-0.16677000000000003,9.84924
3181818150,20.7,0.0,0.0,0.0,0.59841,-0.16677000000000003,9.82962
3186868655,20.7,0.0,0.0,0.0,0.60822,-0.17658,9.760950000000001
3191919160,20.7,0.0,0.0,0.0,0.6180300000000001,-0.14715,9.79038
3196969665,20.7,0.0,0.0,0.0,0.6278400000000001,-0.17658,9.82962
3202020170,20.7,0.0,0.0,0.0,0.6180300000000001,-0.15696000000000002,9.85905
3207070675,20.7,0.0,0.0,0.0,0.59841,-0.14715,9.83943
3212121180,20.7,0.0,0.0,0.0,0.59841,-0.14715,9.78057
3217171685,20.7,0.0,0.0,0.0,0.6180300000000001,-0.17658,9.770760000000001
3222222190,20.7,0.0,0.0,0.0,0.60822,-0.14715,9.81
3227272695,20.7,0.0,0.0,0.0,0.59841,-0.16677000000000003,9.86886
3232323200,20.7,0.0,0.0,0.0,0.60822,-0.15696000000000002,9.81
3237373705,20.7,0.0,0.0,0.0,0.60822,-0.15696000000000002,9.78057
3242424210,20.7,0.0,0.0,0.0,0.6180300000000001,-0.17658,9.770760000000001
3247474715,20.7,0.0,0.0,0.0,0.6180300000000001,-0.15696000000000002,9.80019
3252525220,20.7,0.0,0.0,0.0,0.59841,-0.16677000000000003,9.84924
3257575725,20.7,0.0,0.0,0.0,0.60822,-0.16677000000000003,9.82962
3262626230,20.7,0.0,0.0,0.0,0.6180300000000001,-0.15696000000000002,9.81
3267676735,20.7,0.0,0.0,0.0,0.6180300000000001,-0.15696000000000002,9.760950000000001
3272727240,20.7,0.0,0.0,0.0,0.60822,-0.16677000000000003,9.81
3277777745,20.7,0.0,0.0,0.0,0.60822,-0.17658,9.82962
3282828250,20.7,0.0,0.0,0.0,0.6180300000000001,-0.15696000000000002,9.85905
3287878755,20.7,0.0,0.0,0.0,0.56898,-0.16677000000000003,9.81
3292929260,20.7,0.0,0.0,0.0,0.60822,-0.15696000000000002,9.79038
3297979765,20.7,0.0,0.0,0.0,0.6180300000000001,-0.17658,9.80019
3303030270,20.7,0.0,0.0,0.0,0.59841,-0.13734000000000002,9.81
3308080775,20.7,0.0,0.0,0.0,0.59841,-0.15696000000000002,9.81
3313131280,20.7,0.0,0.0,0.0,0.5886,-0.15696000000000002,9.83943
3318181785,20.7,0.0,0.0,0.0,0.60822,-0.15696000000000002,9.81
3323232290,20.7,0.0,0.0,0.0,0.60822,-0.15696000000000002,9.770760000000001
3328282795,20.7,0.0,0.0,0.0,0.60822,-0.15696000000000002,9.79038
3333333300,20.7,0.0,0.0,0.0,0.59841,-0.17658,9.81
3338383805,20.7,0.0,0.0,0.0,0.60822,-0.12753,9.83943
3343434310,20.7,0.0,0.0,0.0,0.59841,-0.14715,9.85905
3348484815,20.7,0.0,0.0,0.0,0.6180300000000001,-0.15696000000000002,9.84924
3353535320,20.7,0.0,0.0,0.0,0.59841,-0.17658,9.80019
3358585825,20.7,0.0,0.0,0.0,0.6180300000000001,-0.17658,9.770760000000001
3363636330,20.7,0.0,0.0,0.0,0.60822,-0.17658,9.82962
3368686835,20.7,0.0,0.0,0.0,0.60822,-0.14715,9.84924
3373737340,20.7,0.0,0.0,0.0,0.59841,-0.18639,9.83943
3378787845,20.7,0.0,0.0,0.0,0.59841,-0.15696000000000002,9.78057
3383838350,20.7,0.0,0.0,0.0,0.5886,-0.15696000000000002,9.79038
3388888855,20.7,0.0,0.0,0.0,0.59841,-0.16677000000000003,9.82962
3393939360,20.7,0.0,0.0,0.0,0.60822,-0.15696000000000002,9.85905
3398989865,20.7,0.0,0.0,0.0,0.60822,-0.16677000000000003,9.83943
3404040370,20.7,0.0,0.0,0.0,0.5886,-0.15696000000000002,9.760950000000001
3409090875,20.7,0.0,0.0,0.0,0.60822,-0.16677000000000003,9.78057
3414141380,20.7,0.0,0.0,0.0,0.60822,-0.16677000000000003,9.82962
3419191885,20.7,0.0,0.0,0.0,0.6180300000000001,-0.14715,9.86886
3424242390,20.7,0.0,0.0,0.0,0.60822,-0.16677000000000003,9.83943
3429292895,20.7,0.0,0.0,0.0,0.60822,-0.15696000000000002,9.770760000000001
3434343400,20.7,0.0,0.0,0.0,0.59841,-0.13734000000000002,9.74133
3439393905,20.7,0.0,0.0,0.0,0.6180300000000001,-0.15696000000000002,9.79038
3444444410,20.7,0.0,0.0,0.0,0.59841,-0.15696000000000002,9.888480000000001
3449494915,20.7,0.0,0.0,0.0,0.6180300000000001,-0.16677000000000003,9.87867
3454545420,20.7,0.0,0.0,0.0,0.59841,-0.15696000000000002,9.78057
3459595925,20.7,0.0,0.0,0.0,0.60822,-0.13734000000000002,9.770760000000001
3464646430,20.7,0.0,0.0,0.0,0.60822,-0.15696000000000002,9.78057
3469696935,20.7,0.0,0.0,0.0,0.6278400000000001,-0.15696000000000002,9.89829
3474747440,20.7,0.0,0.0,0.0,0.6180300000000001,-0.13734000000000002,9.86886
3479797945,20.7,0.0,0.0,0.0,0.59841,-0.14715,9.81
3484848450,20.7,0.0,0.0,0.0,0.60822,-0.15696000000000002,9.760950000000001
3489898955,20.7,0.0,0.0,0.0,0.59841,-0.17658,9.78057
3494949460,20.7,0.0,0.0,0.0,0.59841,-0.14715,9.84924
3499999965,20.7,0.0,0.0,0.0,0.6180300000000001,-0.14715,9.85905
3505050470,20.7,0.0,0.0,0.0,0.5886,-0.14715,9.80019
3510100975,20.7,0.0,0.0,0.0,0.5886,-0.15696000000000002,9.7119
3515151480,20.7,0.0,0.0,0.0,0.59841,-0.13734000000000002,9.79038
3520201985,20.7,0.0,0.0,0.0,0.60822,-0.13734000000000002,9.91791
3525252490,20.7,0.0,0.0,0.0,0.60822,-0.15696000000000002,9.85905
3530302995,20.7,0.0,0.0,0.0,0.60822,-0.16677000000000003,9.74133
3535353500,20.7,0.0,0.0,0.0,0.59841,-0.16677000000000003,9.73152
3540404005,20.7,0.0,0.0,0.0,0.5886,-0.17658,9.79038
3545454510,20.7,0.0,0.0,0.0,0.60822,-0.15696000000000002,9.888480000000001
3550505015,20.7,0.0,0.0,0.0,0.60822,-0.14715,9.888480000000001
3555555520,20.7,0.0,0.0,0.0,0.60822,-0.15696000000000002,9.81
3560606025,20.7,0.0,0.0,0.0,0.59841,-0.14715,9.74133
3565656530,20.7,0.0,0.0,0.0,0.60822,-0.15696000000000002,9.80019
3570707035,20.7,0.0,0.0,0.0,0.5886,-0.15696000000000002,9.819809999999999
3575757540,20.7,0.0,0.0,0.0,0.60822,-0.16677000000000003,9.84924
3580808045,20.7,0.0,0.0,0.0,0.60822,-0.14715,9.83943
3585858550,20.7,0.0,0.0,0.0,0.6180300000000001,-0.13734000000000002,9.770760000000001
3590909055,20.7,0.0,0.0,0.0,0.60822,-0.14715,9.81
3595959560,20.7,0.0,0.0,0.0,0.57879,-0.16677000000000003,9.80019
3601010065,20.7,-0.004258603374866164,0.054332099614583476,0.0,0.60822,-0.15696000000000002,9.760950000000001
3606060570,20.7,-0.004258603374866164,0.07136651311404815,0.0,0.41202000000000005,-0.019620000000000002,9.96696
3611111075,20.7,-0.001064650843716541,0.1331511686346474,0.012775810124598492,0.38259000000000004,-0.10791,9.72171
3616161580,20.7,0.006387905062299246,0.1278279144160647,-0.002129301687433082,0.06867000000000001,-0.05886,9.21159
3621212085,20.7,-0.01811651763570114,0.10759954838545042,0.01064650843716541,0.1962,-0.039240000000000004,9.937529999999999
3626262590,20.7,-0.012775810124598492,0.09800023749948161,0.001064650843716541,0.0981,-0.04905,10.13373
3631313095,20.7,-0.02982767691658309,-0.005323254218582705,0.003193952531149623,0.15696000000000002,-0.12753,10.17297
3636363600,20.7,-0.01918116847941768,-0.04581489286485115,0.0,0.15696000000000002,-0.27468000000000004,9.83943
3641414105,20.7,-0.033021629447732716,-0.1672549022186166,-0.013840460968315033,0.1962,-0.40221,9.7119
3646464610,20.7,-0.01811651763570114,-0.20666443672864854,0.002129301687433082,0.52974,-0.44145,9.54513
3651515115,20.7,-0.003193952531149623,-0.25459117798841285,-0.015987215948268057,0.6670800000000001,-0.46107000000000004,9.96696
3656565620,20.7,0.023439771854283843,-0.2354274628015151,-0.007452555906015787,1.00062,-0.49050000000000005,10.22202
3661616125,20.7,0.03089232776029963,-0.17257815643719931,-0.005323254218582705,1.10853,-0.35316,10.01601
3666666630,20.7,0.05326744877086694,-0.11398745344774965,-0.004258603374866164,1.10853,-0.32373,9.48627
3671717135,20.7,0.07243116395776468,-0.01918116847941768,0.004258603374866164,1.15758,-0.10791,9.37836
3676767640,20.7,0.0852244273748831,0.005323254218582705,-0.003193952531149623,1.03986,0.13734000000000002,9.43722
3681818145,20.7,0.08096582400001695,0.04794419455228423,0.007452555906015787,0.9711900000000001,0.20601000000000003,10.01601
3686868650,20.7,0.05326744877086694,0.0404741853537485,0.0,0.87309,0.22563,9.98658
3691919155,20.7,0.023439771854283843,0.02556907354171693,0.002129301687433082,0.9319500000000001,0.28449,10.143540000000002
3696969660,20.7,-0.014905111812031574,0.04260348704118158,-0.003193952531149623,0.85347,0.20601000000000003,9.79038
3702020165,20.7,-0.02769837522915001,0.022375121010567305,-0.001064650843716541,0.85347,0.12753,9.44703
3707070670,20.7,-0.04366813788489812,0.08948303074974927,0.006387905062299246,0.84366,0.0,9.64323
3712121175,20.7,-0.05646140130201656,0.08415977653116657,-0.006387905062299246,0.72594,-0.08829,9.66285
3717171680,20.7,-0.05859070298944965,0.12569861272863161,0.01064650843716541,0.72594,-0.13734000000000002,9.86886
3722222185,20.7,-0.06923721142661506,0.15765559133264778,0.0,0.5886,-0.24525000000000002,9.96696
3727272690,20.7,-0.06817256058289851,0.15659094048893124,0.005323254218582705,0.46107000000000004,-0.34335000000000004,9.98658
3732323195,20.7,-0.06497860805174888,0.18748326824923087,0.01064650843716541,0.30411,-0.3924,9.86886
3737373700,20.7,-0.04794419455228423,0.14594443205176583,0.0,0.14715,-0.45126,9.66285
3742424205,20.7,-0.02982767691658309,0.12995721610349775,0.007452555906015787,0.10791,-0.40221,9.633420000000001
3747474710,20.7,-0.013840460968315033,0.09054768159346581,0.0,0.02943,-0.38259000000000004,10.045440000000001
3752525215,20.7,0.008517206749732328,0.0404741853537485,0.004258603374866164,0.039240000000000004,-0.33354000000000006,10.1043
3757575720,20.7,0.014905111812031574,0.0170518667919846,0.0,-0.04905,-0.25506,9.95715
3762626225,20.7,0.022375121010567305,-0.033021629447732716,-0.002129301687433082,-0.04905,-0.23544,9.65304
3767676730,20.7,0.02556907354171693,-0.07456046564519776,0.003193952531149623,0.04905,-0.17658,9.623610000000001
3772727235,20.7,0.03621558197888234,-0.12144000935376545,-0.005323254218582705,0.16677000000000003,-0.13734000000000002,9.888480000000001
3777777740,20.7,0.03621558197888234,-0.16831955306233315,-0.002129301687433082,0.30411,-0.11772,10.17297
3782828245,20.7,0.02982767691658309,-0.18535396656179778,-0.005323254218582705,0.49050000000000005,-0.12753,9.91791
3787878750,20.7,0.03089232776029963,-0.20985838925979816,-0.011711159280881954,0.63765,-0.15696000000000002,9.74133
3792929255,20.7,0.02982767691658309,-0.19708257913519966,-0.004258603374866164,0.8142300000000001,-0.13734000000000002,9.60399
3797979760,20.7,0.031956978604016174,-0.18109536318693162,-0.002129301687433082,0.9711900000000001,-0.16677000000000003,9.66285
3803030265,20.7,0.024504422698000388,-0.14487978120804929,-0.001064650843716541,1.0987200000000001,-0.14715,9.89829
3808080770,20.7,0.028763026072866547,-0.10012953918691468,-0.003193952531149623,1.1477700000000002,-0.10791,9.84924
3813131275,20.7,0.03089232776029963,-0.05752605214573309,0.0,1.19682,-0.039240000000000004,9.751140000000001
3818181780,20.7,0.02663372438543347,0.0,0.001064650843716541,1.1772,0.0,9.73152
3823232285,20.7,0.01811651763570114,0.03834488366631542,0.001064650843716541,1.1183400000000001,0.019620000000000002,9.633420000000001
3828282790,20.7,0.001064650843716541,0.08203047484373349,0.003193952531149623,1.0791000000000002,0.039240000000000004,9.819809999999999
3833333295,20.7,-0.012775810124598492,0.10866419922916695,0.001064650843716541,0.9319500000000001,0.02943,9.760950000000001
3838383800,20.7,-0.022375121010567305,0.12569861272863161,0.008517206749732328,0.85347,0.009810000000000001,9.819809999999999
3843434305,20.7,-0.031956978604016174,0.13421581947836395,0.003193952531149623,0.70632,0.0,9.86886
3848484810,20.7,-0.044732788728614664,0.1288925652597812,0.001064650843716541,0.6180300000000001,-0.07848000000000001,9.89829
3853535315,20.7,-0.046879543708567686,0.1288925652597812,0.003193952531149623,0.49050000000000005,-0.14715,9.770760000000001
3858585820,20.7,-0.054332099614583476,0.10225884087434776,0.0,0.40221,-0.25506,9.80019
3863636325,20.7,-0.054332099614583476,0.08735372906231618,0.006387905062299246,0.37278,-0.32373,9.73152
3868686830,20.7,-0.05007349623971732,0.06923721142661506,0.0,0.36297,-0.38259000000000004,9.85905
3873737335,20.7,-0.03515093113516579,0.04153883619746504,0.002129301687433082,0.31392000000000003,-0.42183,10.03563
3878787840,20.7,-0.0170518667919846,0.0170518667919846,0.001064650843716541,0.33354000000000006,-0.44145,9.888480000000001
3883838345,20.7,-0.001064650843716541,-0.003193952531149623,-0.003193952531149623,0.31392000000000003,-0.38259000000000004,9.751140000000001
3888888850,20.7,0.015987215948268057,-0.028763026072866547,-0.002129301687433082,0.33354000000000006,-0.33354000000000006,9.633420000000001
3893939355,20.7,0.033021629447732716,-0.033021629447732716,-0.001064650843716541,0.43164,-0.23544,9.85905
3898989860,20.7,0.03621558197888234,-0.03515093113516579,0.0,0.42183,-0.13734000000000002,10.05525
3904040365,20.7,0.03515093113516579,-0.02663372438543347,0.002129301687433082,0.46107000000000004,-0.0981,9.91791
3909090870,20.7,0.03621558197888234,-0.02556907354171693,-0.001064650843716541,0.42183,-0.039240000000000004,9.7119
3914141375,20.7,0.03089232776029963,-0.024504422698000388,0.001064650843716541,0.3924,0.009810000000000001,9.48627
3919191880,20.7,0.028763026072866547,-0.021310470166850764,0.002129301687433082,0.48069000000000006,0.05886,9.69228
3924242385,20.7,0.014905111812031574,-0.03089232776029963,0.0,0.50031,0.02943,10.03563
3929292890,20.7,-0.004258603374866164,-0.03728023282259888,0.0,0.5493600000000001,-0.009810000000000001,10.05525
3934343395,20.7,-0.015987215948268057,-0.04260348704118158,-0.003193952531149623,0.5591700000000001,-0.0981,9.79038
3939393900,20.7,-0.022375121010567305,-0.04794419455228423,0.0,0.59841,-0.14715,9.60399
3944444405,20.7,-0.020245819323134222,-0.04581489286485115,-0.001064650843716541,0.6278400000000001,-0.21582,9.633420000000001
3949494910,20.7,-0.022375121010567305,-0.04260348704118158,-0.001064650843716541,0.70632,-0.24525000000000002,9.888480000000001
3954545415,20.7,-0.0170518667919846,-0.03834488366631542,0.001064650843716541,0.7848,-0.28449,9.94734
3959595920,20.7,-0.007452555906015787,-0.03728023282259888,0.001064650843716541,0.7749900000000001,-0.28449,9.89829
3964646425,20.7,-0.001064650843716541,-0.02663372438543347,-0.004258603374866164,0.7749900000000001,-0.31392000000000003,9.79038
3969696930,20.7,0.007452555906015787,-0.028763026072866547,0.0,0.8142300000000001,-0.25506,9.79038
3974747435,20.7,0.015987215948268057,-0.00958185759344887,0.0,0.8240400000000001,-0.20601000000000003,9.79038
3979797940,20.7,0.0170518667919846,-0.001064650843716541,-0.004258603374866164,0.80442,-0.17658,9.81
3984848445,20.7,0.02556907354171693,0.01064650843716541,0.001064650843716541,0.79461,-0.11772,9.74133
3989898950,20.7,0.023439771854283843,0.02556907354171693,0.0,0.75537,-0.05886,9.751140000000001
3994949455,20.7,0.01811651763570114,0.03834488366631542,0.001064650843716541,0.71613,0.0,9.83943
3999999960,20.7,0.00958185759344887,0.046879543708567686,0.002129301687433082,0.70632,-0.019620000000000002,9.91791
4005050465,20.7,-0.001064650843716541,0.05007349623971732,0.0,0.59841,-0.019620000000000002,9.82962
4010100970,20.7,-0.008517206749732328,0.054332099614583476,0.002129301687433082,0.5493600000000001,-0.02943,9.66285
4015151475,20.7,-0.011711159280881954,0.05752605214573309,0.002129301687433082,0.51993,-0.05886,9.67266
4020201980,20.7,-0.021310470166850764,0.05646140130201656,0.002129301687433082,0.48069000000000006,-0.0981,9.89829
4025252485,20.7,-0.028763026072866547,0.054332099614583476,0.004258603374866164,0.45126,-0.12753,9.908100000000001
4030302990,20.7,-0.03515093113516579,0.046879543708567686,0.0,0.42183,-0.1962,9.85905
4035353495,20.7,-0.03621558197888234,0.02982767691658309,0.0,0.37278,-0.24525000000000002,9.72171
4040404000,20.7,-0.023439771854283843,0.011711159280881954,0.001064650843716541,0.37278,-0.30411,9.760950000000001
4045454505,20.7,-0.013840460968315033,-0.00958185759344887,-0.001064650843716541,0.40221,-0.31392000000000003,9.95715
4050505010,20.7,-0.00958185759344887,-0.028763026072866547,-0.001064650843716541,0.47088,-0.31392000000000003,9.99639
4055555515,20.7,0.001064650843716541,-0.046879543708567686,-0.002129301687433082,0.49050000000000005,-0.31392000000000003,9.84924
4060606020,20.7,0.008517206749732328,-0.06284930636431581,-0.003193952531149623,0.5493600000000001,-0.30411,9.70209
4065656525,20.7,0.0170518667919846,-0.07136651311404815,0.0,0.6180300000000001,-0.26487,9.68247
4070707030,20.7,0.02769837522915001,-0.07243116395776468,0.0,0.6670800000000001,-0.20601000000000003,9.89829
4075757535,20.7,0.031956978604016174,-0.06710790973918197,0.0,0.73575,-0.15696000000000002,10.006200000000002
4080808040,20.7,0.03515093113516579,-0.05113814708343386,-0.001064650843716541,0.73575,-0.11772,9.83943
4085858545,20.7,0.03515093113516579,-0.039409534510031964,-0.001064650843716541,0.73575,-0.06867000000000001,9.70209
4090909050,20.7,0.03089232776029963,-0.01918116847941768,0.001064650843716541,0.7651800000000001,-0.019620000000000002,9.66285
4095959555,20.7,0.020245819323134222,0.0,0.0,0.7848,0.019620000000000002,9.770760000000001
4101010060,20.7,0.005323254218582705,0.01811651763570114,0.001064650843716541,0.74556,0.019620000000000002,9.87867
4106060565,20.7,-0.003193952531149623,0.039409534510031964,0.001064650843716541,0.69651,0.0,9.819809999999999
4111111070,20.7,-0.011711159280881954,0.05220279792715039,0.0,0.6670800000000001,-0.019620000000000002,9.72171
4116161575,20.7,-0.01918116847941768,0.05859070298944965,0.0,0.60822,-0.04905,9.69228
4121212080,20.7,-0.023439771854283843,0.060720004676882725,0.003193952531149623,0.56898,-0.10791,9.83943
4126262585,20.7,-0.028763026072866547,0.05859070298944965,0.001064650843716541,0.51012,-0.14715,9.91791
4131313090,20.7,-0.0404741853537485,0.04581489286485115,0.0,0.51012,-0.21582,9.81
4136363595,20.7,-0.03728023282259888,0.02982767691658309,0.0,0.48069000000000006,-0.28449,9.81
4141414100,20.7,-0.031956978604016174,0.007452555906015787,0.0,0.48069000000000006,-0.34335000000000004,9.85905
4146464605,20.7,-0.015987215948268057,-0.004258603374866164,0.002129301687433082,0.49050000000000005,-0.35316,9.85905
4151515110,20.7,-0.003193952531149623,-0.021310470166850764,-0.002129301687433082,0.49050000000000005,-0.34335000000000004,9.84924
4156565615,20.7,0.006387905062299246,-0.03089232776029963,0.0,0.5591700000000001,-0.30411,9.760950000000001
4161616120,20.7,0.013840460968315033,-0.03621558197888234,-0.003193952531149623,0.60822,-0.26487,9.80019
4166666625,20.7,0.021310470166850764,-0.033021629447732716,0.0,0.60822,-0.20601000000000003,9.91791
4171717130,20.7,0.02769837522915001,-0.021310470166850764,0.001064650843716541,0.63765,-0.14715,9.937529999999999
4176767635,20.7,0.031956978604016174,-0.011711159280881954,0.001064650843716541,0.6278400000000001,-0.08829,9.770760000000001
4181818140,20.7,0.03089232776029963,-0.001064650843716541,0.001064650843716541,0.59841,-0.04905,9.633420000000001
4186868645,20.7,0.024504422698000388,0.008517206749732328,0.002129301687433082,0.5886,0.019620000000000002,9.66285
4191919150,20.7,0.014905111812031574,0.015987215948268057,0.002129301687433082,0.59841,0.009810000000000001,9.888480000000001
4196969655,20.7,0.001064650843716541,0.02769837522915001,-0.001064650843716541,0.57879,0.039240000000000004,10.074869999999999
4202020160,20.7,-0.011711159280881954,0.03408628029144926,0.0,0.51993,-0.02943,9.888480000000001
4207070665,20.7,-0.01811651763570114,0.02556907354171693,0.0,0.46107000000000004,-0.0981,9.58437
4212121170,20.7,-0.023439771854283843,0.006387905062299246,0.002129301687433082,0.47088,-0.12753,9.6138
4217171675,20.7,-0.02556907354171693,-0.013840460968315033,0.0,0.51012,-0.17658,9.89829
4222222180,20.7,-0.02982767691658309,-0.03089232776029963,-0.001064650843716541,0.57879,-0.24525000000000002,10.11411
4227272685,20.7,-0.024504422698000388,-0.04581489286485115,-0.001064650843716541,0.60822,-0.35316,9.98658
4232323190,20.7,-0.01811651763570114,-0.05646140130201656,-0.003193952531149623,0.63765,-0.37278,9.67266
4237373695,20.7,-0.005323254218582705,-0.06604325889546543,-0.003193952531149623,0.71613,-0.36297,9.58437
4242424200,20.7,0.00958185759344887,-0.06923721142661506,-0.005323254218582705,0.79461,-0.30411,9.770760000000001
4247474705,20.7,0.022375121010567305,-0.05859070298944965,-0.002129301687433082,0.85347,-0.25506,10.06506
4252525210,20.7,0.033021629447732716,-0.03834488366631542,-0.001064650843716541,0.89271,-0.1962,10.006200000000002
4257575715,20.7,0.03834488366631542,-0.013840460968315033,-0.001064650843716541,0.86328,-0.13734000000000002,9.7119
4262626220,20.7,0.03621558197888234,0.006387905062299246,0.0,0.79461,-0.04905,9.53532
4267676725,20.7,0.031956978604016174,0.02982767691658309,0.001064650843716541,0.75537,0.009810000000000001,9.6138
4272727230,20.7,0.021310470166850764,0.05326744877086694,0.002129301687433082,0.72594,0.06867000000000001,9.908100000000001
4277777735,20.7,0.00958185759344887,0.07456046564519776,0.003193952531149623,0.71613,0.0981,10.01601
4282828240,20.7,-0.002129301687433082,0.09161233243718235,0.003193952531149623,0.60822,0.08829,9.80019
4287878745,20.7,-0.015987215948268057,0.09587093581204853,0.004258603374866164,0.49050000000000005,0.02943,9.6138
4292929250,20.7,-0.03089232776029963,0.09054768159346581,0.003193952531149623,0.41202000000000005,-0.019620000000000002,9.68247
4297979755,20.7,-0.046879543708567686,0.0756251164889143,0.003193952531149623,0.37278,-0.08829,9.888480000000001
4303030260,20.7,-0.05007349623971732,0.05326744877086694,0.005323254218582705,0.35316,-0.20601000000000003,10.01601
4308080765,20.7,-0.05539675045830002,0.02769837522915001,0.0,0.30411,-0.34335000000000004,9.87867
4313131270,20.7,-0.044732788728614664,-0.003193952531149623,-0.002129301687433082,0.34335000000000004,-0.42183,9.751140000000001
4318181775,20.7,-0.02769837522915001,-0.028763026072866547,0.0,0.38259000000000004,-0.45126,9.74133
4323232280,20.7,-0.011711159280881954,-0.05007349623971732,-0.002129301687433082,0.43164,-0.42183,9.908100000000001
4328282785,20.7,0.002129301687433082,-0.06391395720803235,-0.002129301687433082,0.52974,-0.42183,9.97677
4333333290,20.7,0.01918116847941768,-0.06710790973918197,-0.002129301687433082,0.5886,-0.35316,9.83943
4338383795,20.7,0.031956978604016174,-0.05965535383316618,-0.004258603374866164,0.60822,-0.26487,9.760950000000001
4343434300,20.7,0.04366813788489812,-0.05539675045830002,0.0,0.65727,-0.20601000000000003,9.74133
4348484805,20.7,0.05113814708343386,-0.04260348704118158,0.0,0.6670800000000001,-0.0981,9.80019
4353535310,20.7,0.049008845396000776,-0.023439771854283843,0.001064650843716541,0.6867000000000001,0.0,9.81
4358585815,20.7,0.04260348704118158,-0.004258603374866164,0.0,0.6768900000000001,0.05886,9.80019
4363636320,20.7,0.02982767691658309,0.013840460968315033,0.001064650843716541,0.64746,0.0981,9.770760000000001
4368686825,20.7,0.013840460968315033,0.022375121010567305,0.003193952531149623,0.59841,0.11772,9.78057
4373737330,20.7,-0.004258603374866164,0.024504422698000388,0.003193952531149623,0.57879,0.07848000000000001,9.81
4378787835,20.7,-0.01918116847941768,0.01918116847941768,-0.001064650843716541,0.5591700000000001,0.0,9.81
4383838340,20.7,-0.03089232776029963,0.002129301687433082,0.0,0.5493600000000001,-0.08829,9.79038
4388888845,20.7,-0.03728023282259888,-0.014905111812031574,0.0,0.56898,-0.17658,9.81
4393939350,20.7,-0.039409534510031964,-0.03515093113516579,-0.001064650843716541,0.6180300000000001,-0.28449,9.888480000000001
4398989855,20.7,-0.039409534510031964,-0.04794419455228423,-0.001064650843716541,0.70632,-0.34335000000000004,9.87867
4404040360,20.7,-0.03089232776029963,-0.05539675045830002,0.0,0.7749900000000001,-0.41202000000000005,9.85905
4409090865,20.7,-0.015987215948268057,-0.05113814708343386,0.0,0.8240400000000001,-0.41202000000000005,9.80019
4414141370,20.7,0.004258603374866164,-0.0404741853537485,0.001064650843716541,0.8240400000000001,-0.3924,9.79038
4419191875,20.7,0.01918116847941768,-0.02982767691658309,0.0,0.85347,-0.30411,9.82962
4424242380,20.7,0.02769837522915001,-0.007452555906015787,-0.001064650843716541,0.86328,-0.21582,9.819809999999999
4429292885,20.7,0.03728023282259888,0.0170518667919846,0.0,0.8240400000000001,-0.12753,9.81
4434343390,20.7,0.039409534510031964,0.04260348704118158,0.001064650843716541,0.7749900000000001,-0.04905,9.760950000000001
4439393895,20.7,0.03515093113516579,0.07136651311404815,0.005323254218582705,0.69651,0.04905,9.770760000000001
4444444400,20.7,0.022375121010567305,0.09267698328089889,0.001064650843716541,0.63765,0.11772,9.80019
4449494905,20.7,0.008517206749732328,0.10759954838545042,0.001064650843716541,0.51993,0.13734000000000002,9.81
4454545410,20.7,-0.004258603374866164,0.11398745344774965,0.006387905062299246,0.41202000000000005,0.0981,9.78057
4459595915,20.7,-0.022375121010567305,0.10759954838545042,0.007452555906015787,0.32373,0.019620000000000002,9.73152
4464646420,20.7,-0.03728023282259888,0.08735372906231618,0.004258603374866164,0.25506,-0.02943,9.81
4469696925,20.7,-0.05007349623971732,0.060720004676882725,0.001064650843716541,0.1962,-0.15696000000000002,9.908100000000001
4474747430,20.7,-0.05646140130201656,0.021310470166850764,0.001064650843716541,0.21582,-0.26487,9.89829
4479797935,20.7,-0.054332099614583476,-0.012775810124598492,-0.002129301687433082,0.22563,-0.37278,9.82962
4484848440,20.7,-0.04366813788489812,-0.04581489286485115,0.0,0.28449,-0.45126,9.80019
4489898945,20.7,-0.02769837522915001,-0.07243116395776468,-0.001064650843716541,0.37278,-0.48069000000000006,9.81
4494949450,20.7,-0.003193952531149623,-0.09161233243718235,-0.004258603374866164,0.48069000000000006,-0.47088,9.86886
4499999955,20.7,0.014905111812031574,-0.09906488834319814,-0.005323254218582705,0.5886,-0.42183,9.908100000000001
4505050460,20.7,0.02982767691658309,-0.10012953918691468,-0.002129301687433082,0.6670800000000001,-0.37278,9.84924
4510100965,20.7,0.04581489286485115,-0.09587093581204853,0.0,0.72594,-0.27468000000000004,9.760950000000001
4515151470,20.7,0.05752605214573309,-0.08948303074974927,0.0,0.79461,-0.16677000000000003,9.73152
4520201975,20.7,0.05752605214573309,-0.07243116395776468,0.0,0.8142300000000001,-0.06867000000000001,9.83943
4525252480,20.7,0.05965535383316618,-0.05220279792715039,0.0,0.85347,0.039240000000000004,9.86886
4530302985,20.7,0.04581489286485115,-0.02556907354171693,-0.002129301687433082,0.85347,0.08829,9.760950000000001
4535353490,20.7,0.033021629447732716,-0.002129301687433082,0.0,0.84366,0.13734000000000002,9.72171
4540403995,20.7,0.01811651763570114,0.020245819323134222,0.003193952531149623,0.8142300000000001,0.12753,9.74133
4545454500,20.7,0.001064650843716541,0.04260348704118158,0.001064650843716541,0.75537,0.13734000000000002,9.760950000000001
4550505005,20.7,-0.01811651763570114,0.05326744877086694,0.003193952531149623,0.70632,0.08829,9.81
4555555510,20.7,-0.03621558197888234,0.054332099614583476,0.001064650843716541,0.70632,-0.019620000000000002,9.819809999999999
4560606015,20.7,-0.04794419455228423,0.05007349623971732,0.004258603374866164,0.64746,-0.10791,9.770760000000001
4565656520,20.7,-0.05326744877086694,0.0404741853537485,0.0,0.59841,-0.21582,9.78057
4570707025,20.7,-0.05220279792715039,0.02769837522915001,0.0,0.59841,-0.31392000000000003,9.83943
4575757530,20.7,-0.046879543708567686,0.01811651763570114,0.001064650843716541,0.6180300000000001,-0.37278,9.92772
4580808035,20.7,-0.03621558197888234,0.012775810124598492,0.0,0.6278400000000001,-0.43164,9.83943
4585858540,20.7,-0.023439771854283843,0.007452555906015787,-0.001064650843716541,0.60822,-0.43164,9.74133
4590909045,20.7,-0.002129301687433082,0.01064650843716541,0.001064650843716541,0.6180300000000001,-0.40221,9.78057
4595959550,20.7,0.01811651763570114,0.0170518667919846,0.0,0.59841,-0.2943,9.87867
4601010055,20.7,0.03089232776029963,0.023439771854283843,0.001064650843716541,0.5886,-0.21582,9.87867
4606060560,20.7,0.03621558197888234,0.02769837522915001,0.0,0.5395500000000001,-0.07848000000000001,9.82962
4611111065,20.7,0.03408628029144926,0.03621558197888234,-0.001064650843716541,0.47088,-0.04905,9.79038
4616161570,20.7,0.031956978604016174,0.039409534510031964,0.001064650843716541,0.44145,0.019620000000000002,9.770760000000001
4621212075,20.7,0.022375121010567305,0.033021629447732716,0.004258603374866164,0.42183,0.04905,9.84924
4626262580,20.7,0.012775810124598492,0.028763026072866547,0.002129301687433082,0.38259000000000004,0.02943,9.908100000000001
4631313085,20.7,-0.004258603374866164,0.02556907354171693,0.001064650843716541,0.35316,0.009810000000000001,9.79038
4636363590,20.7,-0.0170518667919846,0.014905111812031574,0.001064650843716541,0.32373,-0.039240000000000004,9.760950000000001
4641414095,20.7,-0.02556907354171693,-0.003193952531149623,0.003193952531149623,0.35316,-0.10791,9.770760000000001
4646464600,20.7,-0.028763026072866547,-0.022375121010567305,0.001064650843716541,0.3924,-0.18639,9.83943
4651515105,20.7,-0.031956978604016174,-0.044732788728614664,0.0,0.41202000000000005,-0.27468000000000004,9.92772
4656565610,20.7,-0.03089232776029963,-0.06497860805174888,0.0,0.50031,-0.33354000000000006,9.89829
4661616115,20.7,-0.020245819323134222,-0.08309512568745003,-0.002129301687433082,0.57879,-0.37278,9.79038
4666666620,20.7,-0.004258603374866164,-0.10225884087434776,-0.002129301687433082,0.65727,-0.40221,9.760950000000001
4671717125,20.7,0.00958185759344887,-0.10653489754173388,-0.002129301687433082,0.7651800000000001,-0.37278,9.85905
4676767630,20.7,0.01811651763570114,-0.10225884087434776,-0.004258603374866164,0.85347,-0.32373,9.888480000000001
4681818135,20.7,0.03408628029144926,-0.08735372906231618,-0.002129301687433082,0.9221400000000001,-0.26487,9.83943
4686868640,20.7,0.044732788728614664,-0.07136651311404815,-0.004258603374866164,0.9810000000000001,-0.17658,9.74133
4691919145,20.7,0.04581489286485115,-0.0404741853537485,0.0,0.9908100000000001,-0.08829,9.73152
4696969650,20.7,0.044732788728614664,-0.003193952531149623,-0.001064650843716541,0.9613800000000001,0.0,9.74133
4702020155,20.7,0.0404741853537485,0.03408628029144926,0.003193952531149623,0.95157,0.0981,9.770760000000001
4707070660,20.7,0.02769837522915001,0.07670722062515077,0.003193952531149623,0.85347,0.13734000000000002,9.751140000000001
4712121165,20.7,0.00958185759344887,0.10866419922916695,0.002129301687433082,0.74556,0.14715,9.73152
4717171670,20.7,-0.01064650843716541,0.1278279144160647,0.001064650843716541,0.64746,0.14715,9.74133
4722222175,20.7,-0.028763026072866547,0.13849187614575004,0.007452555906015787,0.50031,0.10791,9.80019
4727272680,20.7,-0.04260348704118158,0.13208651779093086,0.004258603374866164,0.41202000000000005,0.009810000000000001,9.819809999999999
4732323185,20.7,-0.05646140130201656,0.11185815176031658,0.003193952531149623,0.35316,-0.07848000000000001,9.82962
4737373690,20.7,-0.06710790973918197,0.08203047484373349,0.001064650843716541,0.26487,-0.24525000000000002,9.86886
4742424195,20.7,-0.07030186227033158,0.039409534510031964,0.0,0.25506,-0.36297,9.86886
4747474700,20.7,-0.05752605214573309,0.004258603374866164,0.002129301687433082,0.27468000000000004,-0.45126,9.85905
4752525205,20.7,-0.04153883619746504,-0.024504422698000388,-0.001064650843716541,0.31392000000000003,-0.5493600000000001,9.83943
4757575710,20.7,-0.021310470166850764,-0.05007349623971732,0.0,0.36297,-0.5395500000000001,9.83943
4762626215,20.7,0.0,-0.07349581480148122,-0.001064650843716541,0.45126,-0.51012,9.819809999999999
4767676720,20.7,0.023439771854283843,-0.0852244273748831,-0.004258603374866164,0.51993,-0.41202000000000005,9.87867
4772727225,20.7,0.044732788728614664,-0.08628907821859966,-0.001064650843716541,0.6180300000000001,-0.28449,9.937529999999999
4777777730,20.7,0.05752605214573309,-0.08096582400001695,0.0,0.64746,-0.22563,9.83943
4782828235,20.7,0.05965535383316618,-0.0756251164889143,-0.001064650843716541,0.70632,-0.10791,9.72171
4787878740,20.7,0.05859070298944965,-0.06817256058289851,-0.002129301687433082,0.72594,-0.019620000000000002,9.70209
4792929245,20.7,0.05326744877086694,-0.05007349623971732,0.001064650843716541,0.7749900000000001,0.08829,9.82962
4797979750,20.7,0.04260348704118158,-0.02556907354171693,-0.001064650843716541,0.7651800000000001,0.11772,9.888480000000001
4803030255,20.7,0.02663372438543347,0.0,0.001064650843716541,0.7651800000000001,0.10791,9.81
4808080760,20.7,0.00958185759344887,0.011711159280881954,0.0,0.73575,0.11772,9.623610000000001
4813131265,20.7,-0.014905111812031574,0.02769837522915001,0.001064650843716541,0.70632,0.06867000000000001,9.64323
4818181770,20.7,-0.02556907354171693,0.03728023282259888,0.004258603374866164,0.6768900000000001,0.009810000000000001,9.85905
4823232275,20.7,-0.03834488366631542,0.03515093113516579,0.002129301687433082,0.64746,-0.06867000000000001,9.92772
4828282780,20.7,-0.049008845396000776,0.03089232776029963,0.0,0.6180300000000001,-0.18639,9.89829
4833333285,20.7,-0.05220279792715039,0.01918116847941768,-0.002129301687433082,0.6180300000000001,-0.26487,9.7119
4838383790,20.7,-0.04581489286485115,0.01064650843716541,0.001064650843716541,0.59841,-0.35316,9.64323
4843434295,20.7,-0.031956978604016174,0.004258603374866164,0.001064650843716541,0.63765,-0.3924,9.819809999999999
4848484800,20.7,-0.01918116847941768,0.002129301687433082,-0.001064650843716541,0.65727,-0.41202000000000005,9.96696
4853535305,20.7,-0.008517206749732328,0.006387905062299246,0.002129301687433082,0.6670800000000001,-0.38259000000000004,9.95715
4858585810,20.7,0.008517206749732328,0.012775810124598492,0.0,0.64746,-0.32373,9.751140000000001
4863636315,20.7,0.021310470166850764,0.0170518667919846,0.001064650843716541,0.6180300000000001,-0.25506,9.65304
4868686820,20.7,0.03089232776029963,0.020245819323134222,0.002129301687433082,0.60822,-0.14715,9.79038
4873737325,20.7,0.031956978604016174,0.02769837522915001,0.0,0.5591700000000001,-0.0981,9.937529999999999
4878787830,20.7,0.028763026072866547,0.02982767691658309,0.002129301687433082,0.51012,-0.009810000000000001,9.888480000000001
4883838335,20.7,0.020245819323134222,0.031956978604016174,0.002129301687433082,0.47088,0.0,9.7119
4888888840,20.7,0.00958185759344887,0.02769837522915001,0.0,0.45126,0.009810000000000001,9.7119
4893939345,20.7,0.001064650843716541,0.03089232776029963,0.005323254218582705,0.42183,0.019620000000000002,9.819809999999999
4898989850,20.7,-0.007452555906015787,0.021310470166850764,0.003193952531149623,0.40221,-0.02943,9.85905
4904040355,20.7,-0.020245819323134222,0.006387905062299246,0.0,0.40221,-0.07848000000000001,9.86886
4909090860,20.7,-0.02663372438543347,-0.011711159280881954,0.0,0.43164,-0.15696000000000002,9.78057
4914141365,20.7,-0.031956978604016174,-0.03515093113516579,0.0,0.47088,-0.23544,9.78057
4919191870,20.7,-0.028763026072866547,-0.05646140130201656,0.001064650843716541,0.52974,-0.2943,9.89829
4924242375,20.7,-0.021310470166850764,-0.07456046564519776,-0.003193952531149623,0.6180300000000001,-0.35316,9.89829
4929292880,20.7,-0.006387905062299246,-0.07883652231258387,-0.005323254218582705,0.6768900000000001,-0.37278,9.84924
4934343385,20.7,0.003193952531149623,-0.08203047484373349,-0.005323254218582705,0.73575,-0.36297,9.73152
4939393890,20.7,0.0170518667919846,-0.06710790973918197,-0.003193952531149623,0.8142300000000001,-0.31392000000000003,9.73152
4944444395,20.7,0.028763026072866547,-0.05007349623971732,-0.003193952531149623,0.8829,-0.24525000000000002,9.86886
4949494900,20.7,0.033021629447732716,-0.020245819323134222,0.0,0.87309,-0.12753,9.92772
4954545405,20.7,0.03621558197888234,0.006387905062299246,0.002129301687433082,0.84366,-0.07848000000000001,9.78057
4959595910,20.7,0.03621558197888234,0.03089232776029963,0.0,0.7749900000000001,-0.019620000000000002,9.6138
4964646415,20.7,0.028763026072866547,0.049008845396000776,0.002129301687433082,0.73575,0.06867000000000001,9.67266
4969696920,20.7,0.0170518667919846,0.06284930636431581,0.002129301687433082,0.6768900000000001,0.0981,9.84924
4974747425,20.7,0.001064650843716541,0.07990117315630041,0.004258603374866164,0.56898,0.08829,9.908100000000001
4979797930,20.7,-0.01064650843716541,0.08415977653116657,0.003193952531149623,0.5395500000000001,0.06867000000000001,9.82962
4984848435,20.7,-0.02769837522915001,0.08735372906231618,0.003193952531149623,0.43164,0.0,9.67266
4989898940,20.7,-0.039409534510031964,0.08096582400001695,0.003193952531149623,0.3924,-0.08829,9.68247
4994949445,20.7,-0.046879543708567686,0.05646140130201656,0.002129301687433082,0.35316,-0.20601000000000003,9.83943
4999999950,20.7,-0.05113814708343386,0.03089232776029963,0.001064650843716541,0.31392000000000003,-0.26487,9.97677
5005050455,20.7,-0.04581489286485115,0.004258603374866164,0.001064650843716541,0.32373,-0.34335000000000004,9.97677
5010100960,20.7,-0.03621558197888234,-0.02769837522915001,0.0,0.37278,-0.41202000000000005,9.79038
5015151465,20.7,-0.022375121010567305,-0.05965535383316618,-0.002129301687433082,0.43164,-0.47088,9.74133
5020201970,20.7,-0.006387905062299246,-0.08415977653116657,-0.006387905062299246,0.52974,-0.44145,9.888480000000001
5025252475,20.7,0.014905111812031574,-0.10225884087434776,-0.004258603374866164,0.6278400000000001,-0.42183,9.96696
5030302980,20.7,0.02769837522915001,-0.10759954838545042,-0.003193952531149623,0.72594,-0.34335000000000004,9.87867
5035353485,20.7,0.04260348704118158,-0.09693558665576507,-0.003193952531149623,0.79461,-0.24525000000000002,9.85905
5040403990,20.7,0.05113814708343386,-0.08309512568745003,-0.004258603374866164,0.84366,-0.17658,9.760950000000001
5045454495,20.7,0.05539675045830002,-0.05007349623971732,-0.001064650843716541,0.90252,-0.07848000000000001,9.760950000000001
5050505000,20.7,0.054332099614583476,-0.01918116847941768,-0.001064650843716541,0.87309,0.019620000000000002,9.78057
5055555505,20.7,0.04153883619746504,0.021310470166850764,0.002129301687433082,0.8338500000000001,0.11772,9.80019
5060606010,20.7,0.02769837522915001,0.060720004676882725,0.003193952531149623,0.79461,0.16677000000000003,9.760950000000001
5065656515,20.7,0.011711159280881954,0.09054768159346581,0.003193952531149623,0.6867000000000001,0.17658,9.770760000000001
5070707020,20.7,-0.008517206749732328,0.10866419922916695,0.004258603374866164,0.5886,0.13734000000000002,9.760950000000001
5075757525,20.7,-0.02663372438543347,0.11398745344774965,0.004258603374866164,0.49050000000000005,0.08829,9.760950000000001
5080808030,20.7,-0.04581489286485115,0.09906488834319814,0.002129301687433082,0.41202000000000005,0.0,9.79038
5085858535,20.7,-0.05859070298944965,0.07670722062515077,0.003193952531149623,0.36297,-0.11772,9.84924
5090909040,20.7,-0.06923721142661506,0.04366813788489812,0.001064650843716541,0.35316,-0.25506,9.91791
5095959545,20.7,-0.06284930636431581,0.012775810124598492,0.0,0.36297,-0.38259000000000004,9.91791
5101010050,20.7,-0.05326744877086694,-0.022375121010567305,0.0,0.38259000000000004,-0.51012,9.78057
5106060555,20.7,-0.03834488366631542,-0.05220279792715039,-0.003193952531149623,0.44145,-0.52974,9.760950000000001
5111111060,20.7,-0.013840460968315033,-0.07456046564519776,-0.003193952531149623,0.50031,-0.51993,9.79038
5116161565,20.7,0.00958185759344887,-0.08735372906231618,-0.001064650843716541,0.60822,-0.46107000000000004,9.95715
5121212070,20.7,0.031956978604016174,-0.09054768159346581,-0.001064650843716541,0.70632,-0.37278,9.95715
5126262575,20.7,0.046879543708567686,-0.08415977653116657,-0.005323254218582705,0.7651800000000001,-0.26487,9.84924
5131313080,20.7,0.05859070298944965,-0.07136651311404815,-0.001064650843716541,0.79461,-0.16677000000000003,9.72171
5136363585,20.7,0.06604325889546543,-0.05326744877086694,-0.001064650843716541,0.8142300000000001,-0.039240000000000004,9.69228
5141414090,20.7,0.06284930636431581,-0.02982767691658309,0.0,0.8338500000000001,0.04905,9.78057
5146464595,20.7,0.049008845396000776,0.0,0.0,0.8240400000000001,0.10791,9.89829
5151515100,20.7,0.03408628029144926,0.03408628029144926,0.0,0.79461,0.18639,9.84924
5156565605,20.7,0.013840460968315033,0.06178465552059926,0.004258603374866164,0.70632,0.17658,9.72171
5161616110,20.7,-0.006387905062299246,0.07990117315630041,0.004258603374866164,0.60822,0.13734000000000002,9.623610000000001
5166666615,20.7,-0.02769837522915001,0.08415977653116657,0.001064650843716541,0.5395500000000001,0.0981,9.74133
5171717120,20.7,-0.049008845396000776,0.07883652231258387,0.004258603374866164,0.50031,0.0,9.95715
5176767625,20.7,-0.05752605214573309,0.06710790973918197,0.001064650843716541,0.47088,-0.11772,9.94734
5181818130,20.7,-0.06497860805174888,0.04794419455228423,0.001064650843716541,0.41202000000000005,-0.24525000000000002,9.81
5186868635,20.7,-0.06284930636431581,0.02556907354171693,0.001064650843716541,0.43164,-0.3924,9.74133
5191919140,20.7,-0.05326744877086694,0.008517206749732328,0.002129301687433082,0.44145,-0.45126,9.770760000000001
5196969645,20.7,-0.03834488366631542,-0.011711159280881954,0.0,0.46107000000000004,-0.48069000000000006,9.87867
5202020150,20.7,-0.013840460968315033,-0.020245819323134222,0.0,0.50031,-0.47088,9.91791
5207070655,20.7,0.006387905062299246,-0.02982767691658309,0.001064650843716541,0.5591700000000001,-0.44145,9.91791
5212121160,20.7,0.024504422698000388,-0.0404741853537485,0.001064650843716541,0.5591700000000001,-0.35316,9.79038
5217171665,20.7,0.03728023282259888,-0.044732788728614664,-0.002129301687433082,0.57879,-0.25506,9.7119
5222222170,20.7,0.049008845396000776,-0.04153883619746504,-0.002129301687433082,0.6180300000000001,-0.12753,9.83943
5227272675,20.7,0.05220279792715039,-0.02982767691658309,0.0,0.65727,-0.04905,9.89829
5232323180,20.7,0.04794419455228423,-0.0170518667919846,0.0,0.65727,0.02943,9.84924
5237373685,20.7,0.03621558197888234,-0.003193952531149623,0.0,0.60822,0.06867000000000001,9.751140000000001
5242424190,20.7,0.021310470166850764,-0.001064650843716541,0.0,0.59841,0.07848000000000001,9.751140000000001
5247474695,20.7,0.00958185759344887,0.0,0.002129301687433082,0.60822,0.0981,9.770760000000001
5252525200,20.7,-0.005323254218582705,-0.006387905062299246,0.004258603374866164,0.5886,0.02943,9.80019
5257575705,20.7,-0.020245819323134222,-0.01918116847941768,0.0,0.6278400000000001,-0.039240000000000004,9.89829
5262626210,20.7,-0.03089232776029963,-0.02769837522915001,0.001064650843716541,0.64746,-0.16677000000000003,9.888480000000001
5267676715,20.7,-0.0404741853537485,-0.03621558197888234,0.0,0.69651,-0.24525000000000002,9.74133
5272727220,20.7,-0.03408628029144926,-0.031956978604016174,-0.002129301687433082,0.73575,-0.32373,9.73152
5277777725,20.7,-0.02663372438543347,-0.02769837522915001,0.0,0.7848,-0.36297,9.85905
5282828230,20.7,-0.021310470166850764,-0.014905111812031574,0.001064650843716541,0.80442,-0.37278,9.888480000000001
5287878735,20.7,-0.005323254218582705,0.003193952531149623,-0.001064650843716541,0.8142300000000001,-0.32373,9.819809999999999
5292929240,20.7,0.01064650843716541,0.020245819323134222,0.0,0.7848,-0.2943,9.819809999999999
5297979745,20.7,0.021310470166850764,0.04260348704118158,0.004258603374866164,0.74556,-0.18639,9.770760000000001
5303030250,20.7,0.023439771854283843,0.05965535383316618,0.003193952531149623,0.6670800000000001,-0.12753,9.73152
5308080755,20.7,0.023439771854283843,0.07136651311404815,0.002129301687433082,0.57879,-0.05886,9.81
5313131260,20.7,0.01811651763570114,0.07990117315630041,0.003193952531149623,0.5395500000000001,0.019620000000000002,9.84924
5318181765,20.7,0.011711159280881954,0.0852244273748831,0.002129301687433082,0.46107000000000004,0.0,9.83943
5323232270,20.7,0.001064650843716541,0.0756251164889143,0.003193952531149623,0.37278,0.0,9.760950000000001
5328282775,20.7,-0.008517206749732328,0.06178465552059926,0.0,0.32373,0.009810000000000001,9.79038
5333333280,20.7,-0.01811651763570114,0.04260348704118158,0.001064650843716541,0.28449,-0.05886,9.80019
5338383785,20.7,-0.02663372438543347,0.006387905062299246,0.002129301687433082,0.27468000000000004,-0.11772,9.82962
5343434290,20.7,-0.03621558197888234,-0.02769837522915001,0.0,0.31392000000000003,-0.23544,9.87867
5348484795,20.7,-0.03408628029144926,-0.06284930636431581,-0.002129301687433082,0.38259000000000004,-0.32373,9.89829
5353535300,20.7,-0.02982767691658309,-0.09161233243718235,-0.001064650843716541,0.48069000000000006,-0.36297,9.770760000000001
5358585805,20.7,-0.015987215948268057,-0.11611675513518273,-0.003193952531149623,0.5886,-0.43164,9.79038
5363636310,20.7,0.0,-0.12463396188491506,-0.005323254218582705,0.70632,-0.41202000000000005,9.87867
5368686815,20.7,0.012775810124598492,-0.11398745344774965,-0.003193952531149623,0.8142300000000001,-0.36297,9.888480000000001
5373737320,20.7,0.02769837522915001,-0.09374163412461543,-0.003193952531149623,0.90252,-0.2943,9.819809999999999
5378787825,20.7,0.039409534510031964,-0.06604325889546543,-0.003193952531149623,0.9711900000000001,-0.20601000000000003,9.79038
5383838330,20.7,0.046879543708567686,-0.028763026072866547,-0.001064650843716541,0.9711900000000001,-0.13734000000000002,9.79038
5388888835,20.7,0.04794419455228423,0.007452555906015787,0.0,0.9319500000000001,0.0,9.74133
5393939340,20.7,0.044732788728614664,0.04153883619746504,0.003193952531149623,0.86328,0.039240000000000004,9.770760000000001
5398989845,20.7,0.03728023282259888,0.07030186227033158,0.002129301687433082,0.7749900000000001,0.13734000000000002,9.770760000000001
5404040350,20.7,0.015987215948268057,0.09374163412461543,0.005323254218582705,0.69651,0.13734000000000002,9.78057
5409090855,20.7,-0.007452555906015787,0.1097288500728835,0.003193952531149623,0.59841,0.14715,9.81
5414141360,20.7,-0.02556907354171693,0.11079350091660004,0.001064650843716541,0.48069000000000006,0.07848000000000001,9.82962
5419191865,20.7,-0.039409534510031964,0.1097288500728835,0.002129301687433082,0.3924,0.019620000000000002,9.78057
5424242370,20.7,-0.05539675045830002,0.08948303074974927,0.001064650843716541,0.34335000000000004,-0.0981,9.760950000000001
5429292875,20.7,-0.060720004676882725,0.06817256058289851,0.001064650843716541,0.2943,-0.21582,9.770760000000001
5434343380,20.7,-0.06178465552059926,0.03621558197888234,0.002129301687433082,0.2943,-0.31392000000000003,9.83943
5439393885,20.7,-0.05539675045830002,-0.001064650843716541,0.002129301687433082,0.31392000000000003,-0.43164,9.94734
5444444390,20.7,-0.0404741853537485,-0.04260348704118158,0.0,0.38259000000000004,-0.51012,9.89829
5449494895,20.7,-0.020245819323134222,-0.07349581480148122,-0.003193952531149623,0.41202000000000005,-0.51993,9.83943
5454545400,20.7,0.002129301687433082,-0.09906488834319814,-0.003193952531149623,0.52974,-0.50031,9.81
5459595905,20.7,0.022375121010567305,-0.11398745344774965,-0.003193952531149623,0.64746,-0.43164,9.81
5464646410,20.7,0.04366813788489812,-0.11611675513518273,-0.001064650843716541,0.75537,-0.35316,9.85905
5469696915,20.7,0.05326744877086694,-0.10545279340549739,-0.004258603374866164,0.8240400000000001,-0.21582,9.908100000000001
5474747420,20.7,0.060720004676882725,-0.0852244273748831,-0.001064650843716541,0.86328,-0.12753,9.84924
5479797925,20.7,0.06391395720803235,-0.046879543708567686,-0.001064650843716541,0.89271,-0.019620000000000002,9.73152
5484848430,20.7,0.05646140130201656,-0.014905111812031574,0.0,0.87309,0.05886,9.70209
5489898935,20.7,0.04581489286485115,0.0170518667919846,0.0,0.8338500000000001,0.15696000000000002,9.73152
5494949440,20.7,0.02556907354171693,0.049008845396000776,0.001064650843716541,0.8142300000000001,0.1962,9.84924
5499999945,20.7,0.007452555906015787,0.07883652231258387,0.003193952531149623,0.72594,0.18639,9.84924
5505050450,20.7,-0.014905111812031574,0.10012953918691468,0.003193952531149623,0.63765,0.12753,9.74133
5510100955,20.7,-0.03621558197888234,0.1097288500728835,0.002129301687433082,0.51993,0.06867000000000001,9.66285
5515151460,20.7,-0.05646140130201656,0.10438814256178083,0.002129301687433082,0.44145,-0.019620000000000002,9.760950000000001
5520201965,20.7,-0.06923721142661506,0.09054768159346581,0.002129301687433082,0.42183,-0.13734000000000002,9.85905
5525252470,20.7,-0.06604325889546543,0.06391395720803235,0.0,0.37278,-0.30411,9.95715
5530302975,20.7,-0.06391395720803235,0.03728023282259888,0.0,0.34335000000000004,-0.3924,9.92772
5535353480,20.7,-0.054332099614583476,0.002129301687433082,0.0,0.32373,-0.50031,9.770760000000001
5540403985,20.7,-0.03621558197888234,-0.02982767691658309,-0.002129301687433082,0.38259000000000004,-0.5395500000000001,9.7119
5545454490,20.7,-0.012775810124598492,-0.054332099614583476,-0.002129301687433082,0.44145,-0.48069000000000006,9.819809999999999
5550504995,20.7,0.014905111812031574,-0.07670722062515077,0.0,0.5395500000000001,-0.48069000000000006,9.91791
5555555500,20.7,0.02982767691658309,-0.08628907821859966,-0.002129301687433082,0.6180300000000001,-0.40221,9.888480000000001
5560606005,20.7,0.044732788728614664,-0.09054768159346581,-0.006387905062299246,0.6670800000000001,-0.2943,9.86886
5565656510,20.7,0.05859070298944965,-0.08841837990603273,0.0,0.73575,-0.17658,9.80019
5570707015,20.7,0.06497860805174888,-0.07456046564519776,0.001064650843716541,0.7749900000000001,-0.04905,9.751140000000001
5575757520,20.7,0.05859070298944965,-0.06284930636431581,-0.003193952531149623,0.8240400000000001,0.0,9.82962
5580808025,20.7,0.046879543708567686,-0.04153883619746504,-0.001064650843716541,0.8240400000000001,0.0981,9.83943
5585858530,20.7,0.02982767691658309,-0.007452555906015787,0.0,0.85347,0.12753,9.81
5590909035,20.7,0.014905111812031574,0.028763026072866547,-0.001064650843716541,0.8142300000000001,0.14715,9.751140000000001
5595959540,20.7,0.0,0.05326744877086694,0.001064650843716541,0.74556,0.13734000000000002,9.69228
5601010045,20.7,-0.015987215948268057,0.07670722062515077,0.002129301687433082,0.6867000000000001,0.07848000000000001,9.74133
5606060550,20.7,-0.03728023282259888,0.08628907821859966,0.005323254218582705,0.60822,0.009810000000000001,9.819809999999999
5611111055,20.7,-0.05113814708343386,0.08948303074974927,0.004258603374866164,0.5395500000000001,-0.06867000000000001,9.83943
5616161560,20.7,-0.05752605214573309,0.08415977653116657,0.001064650843716541,0.47088,-0.1962,9.87867
5621212065,20.7,-0.060720004676882725,0.06178465552059926,0.0,0.43164,-0.2943,9.87867
5626262570,20.7,-0.05752605214573309,0.03621558197888234,0.0,0.41202000000000005,-0.40221,9.78057
5631313075,20.7,-0.04581489286485115,0.011711159280881954,0.0,0.42183,-0.46107000000000004,9.760950000000001
5636363580,20.7,-0.02556907354171693,-0.012775810124598492,0.0,0.45126,-0.47088,9.84924
5641414085,20.7,-0.006387905062299246,-0.031956978604016174,0.0,0.49050000000000005,-0.44145,9.91791
5646464590,20.7,0.01064650843716541,-0.04260348704118158,0.0,0.51993,-0.41202000000000005,9.888480000000001
5651515095,20.7,0.023439771854283843,-0.054332099614583476,-0.004258603374866164,0.57879,-0.30411,9.760950000000001
5656565600,20.7,0.04260348704118158,-0.060720004676882725,0.0,0.6180300000000001,-0.21582,9.73152
5661616105,20.7,0.05113814708343386,-0.05965535383316618,0.002129301687433082,0.64746,-0.13734000000000002,9.74133
5666666610,20.7,0.05326744877086694,-0.05220279792715039,0.0,0.6670800000000001,-0.039240000000000004,9.84924
5671717115,20.7,0.04581489286485115,-0.028763026072866547,-0.002129301687433082,0.69651,0.02943,9.91791
5676767620,20.7,0.03621558197888234,-0.011711159280881954,0.003193952531149623,0.70632,0.05886,9.819809999999999
5681818125,20.7,0.023439771854283843,0.006387905062299246,0.0,0.6670800000000001,0.04905,9.623610000000001
5686868630,20.7,0.00958185759344887,0.015987215948268057,0.004258603374866164,0.64746,0.07848000000000001,9.66285
5691919135,20.7,-0.007452555906015787,0.024504422698000388,0.004258603374866164,0.6180300000000001,0.04905,9.89829
5696969640,20.7,-0.024504422698000388,0.02663372438543347,0.0,0.60822,-0.009810000000000001,9.98658
5702020145,20.7,-0.03408628029144926,0.021310470166850764,-0.001064650843716541,0.6180300000000001,-0.11772,9.85905
5707070650,20.7,-0.03834488366631542,0.007452555906015787,-0.004258603374866164,0.57879,-0.21582,9.67266
5712121155,20.7,-0.0404741853537485,-0.006387905062299246,0.002129301687433082,0.60822,-0.28449,9.66285
5717171660,20.7,-0.04260348704118158,-0.012775810124598492,0.0,0.65727,-0.36297,9.80019
5722222165,20.7,-0.03089232776029963,-0.013840460968315033,-0.001064650843716541,0.69651,-0.38259000000000004,10.01601
5727272670,20.7,-0.012775810124598492,-0.00958185759344887,0.0,0.69651,-0.3924,9.96696
5732323175,20.7,0.002129301687433082,-0.003193952531149623,0.002129301687433082,0.70632,-0.36297,9.751140000000001
5737373680,20.7,0.00958185759344887,0.003193952531149623,-0.001064650843716541,0.6867000000000001,-0.2943,9.633420000000001
5742424185,20.7,0.022375121010567305,0.00958185759344887,0.0,0.65727,-0.20601000000000003,9.72171
5747474690,20.7,0.03089232776029963,0.02769837522915001,0.0,0.6670800000000001,-0.11772,9.92772
5752525195,20.7,0.031956978604016174,0.04260348704118158,0.004258603374866164,0.60822,-0.08829,9.92772
5757575700,20.7,0.02556907354171693,0.05965535383316618,0.002129301687433082,0.51012,0.009810000000000001,9.751140000000001
5762626205,20.7,0.014905111812031574,0.05752605214573309,0.001064650843716541,0.46107000000000004,0.019620000000000002,9.65304
5767676710,20.7,0.007452555906015787,0.05220279792715039,0.002129301687433082,0.41202000000000005,0.039240000000000004,9.751140000000001
5772727215,20.7,-0.002129301687433082,0.03621558197888234,0.003193952531149623,0.40221,0.039240000000000004,9.908100000000001
5777777720,20.7,-0.015987215948268057,0.01064650843716541,0.002129301687433082,0.36297,-0.019620000000000002,9.96696
5782828225,20.7,-0.03089232776029963,-0.020245819323134222,0.0,0.3924,-0.13734000000000002,9.86886
5787878730,20.7,-0.03408628029144926,-0.054332099614583476,-0.001064650843716541,0.44145,-0.23544,9.760950000000001
5792929235,20.7,-0.031956978604016174,-0.0852244273748831,-0.002129301687433082,0.50031,-0.33354000000000006,9.73152
5797979740,20.7,-0.02556907354171693,-0.10545279340549739,-0.002129301687433082,0.6670800000000001,-0.3924,9.84924
5803030245,20.7,-0.014905111812031574,-0.10866419922916695,-0.004258603374866164,0.7651800000000001,-0.41202000000000005,9.97677
5808080750,20.7,-0.001064650843716541,-0.09374163412461543,-0.005323254218582705,0.86328,-0.40221,9.91791
5813131255,20.7,0.01918116847941768,-0.07883652231258387,0.0,0.9221400000000001,-0.35316,9.78057
5818181760,20.7,0.028763026072866547,-0.04366813788489812,-0.001064650843716541,0.9221400000000001,-0.27468000000000004,9.69228
5823232265,20.7,0.03834488366631542,-0.012775810124598492,0.0,0.94176,-0.15696000000000002,9.78057
5828282770,20.7,0.0404741853537485,0.03408628029144926,0.002129301687433082,0.9123300000000001,-0.04905,9.83943
5833333275,20.7,0.0404741853537485,0.07883652231258387,0.002129301687433082,0.8338500000000001,0.009810000000000001,9.81
5838383780,20.7,0.03089232776029963,0.1097288500728835,0.002129301687433082,0.6768900000000001,0.10791,9.7119
5843434285,20.7,0.012775810124598492,0.12569861272863161,0.004258603374866164,0.5493600000000001,0.12753,9.67266
5848484790,20.7,-0.005323254218582705,0.12995721610349775,0.005323254218582705,0.46107000000000004,0.11772,9.770760000000001
5853535295,20.7,-0.023439771854283843,0.1171814059788993,0.003193952531149623,0.33354000000000006,0.11772,9.87867
5858585800,20.7,-0.03728023282259888,0.08948303074974927,0.005323254218582705,0.31392000000000003,0.009810000000000001,9.92772
5863636305,20.7,-0.05007349623971732,0.05326744877086694,0.003193952531149623,0.24525000000000002,-0.15696000000000002,9.85905
5868686810,20.7,-0.06284930636431581,0.004258603374866164,-0.003193952531149623,0.24525000000000002,-0.2943,9.760950000000001
5873737315,20.7,-0.05859070298944965,-0.03834488366631542,-0.002129301687433082,0.31392000000000003,-0.41202000000000005,9.7119
5878787820,20.7,-0.04260348704118158,-0.07349581480148122,-0.004258603374866164,0.41202000000000005,-0.48069000000000006,9.82962
5883838325,20.7,-0.028763026072866547,-0.09480628496833199,-0.004258603374866164,0.51012,-0.5395500000000001,9.95715
5888888830,20.7,-0.008517206749732328,-0.10653489754173388,-0.003193952531149623,0.6180300000000001,-0.51012,9.95715
5893939335,20.7,0.012775810124598492,-0.11079350091660004,-0.003193952531149623,0.73575,-0.46107000000000004,9.84924
5898989840,20.7,0.03515093113516579,-0.10438814256178083,-0.004258603374866164,0.7749900000000001,-0.37278,9.760950000000001
5904040345,20.7,0.05646140130201656,-0.08096582400001695,-0.002129301687433082,0.86328,-0.27468000000000004,9.73152
5909090850,20.7,0.06497860805174888,-0.05326744877086694,-0.001064650843716541,0.89271,-0.10791,9.78057
5914141355,20.7,0.06391395720803235,-0.01918116847941768,0.001064650843716541,0.87309,0.0,9.85905
5919191860,20.7,0.05646140130201656,0.020245819323134222,0.0,0.84366,0.08829,9.819809999999999
5924242365,20.7,0.04260348704118158,0.05326744877086694,0.002129301687433082,0.75537,0.16677000000000003,9.69228
5929292870,20.7,0.02769837522915001,0.07670722062515077,0.004258603374866164,0.6867000000000001,0.17658,9.72171
5934343375,20.7,0.003193952531149623,0.08628907821859966,0.005323254218582705,0.60822,0.18639,9.770760000000001
5939393880,20.7,-0.01918116847941768,0.07990117315630041,0.001064650843716541,0.5395500000000001,0.13734000000000002,9.86886
5944444385,20.7,-0.04260348704118158,0.05965535383316618,0.001064650843716541,0.47088,0.019620000000000002,9.888480000000001
5949494890,20.7,-0.05859070298944965,0.03834488366631542,0.0,0.45126,-0.13734000000000002,9.81
5954545395,20.7,-0.06817256058289851,0.012775810124598492,0.002129301687433082,0.49050000000000005,-0.27468000000000004,9.72171
5959595900,20.7,-0.06604325889546543,-0.007452555906015787,-0.001064650843716541,0.51993,-0.41202000000000005,9.770760000000001
5964646405,20.7,-0.05646140130201656,-0.020245819323134222,0.0,0.5591700000000001,-0.47088,9.85905
5969696910,20.7,-0.03621558197888234,-0.02982767691658309,0.002129301687433082,0.6278400000000001,-0.52974,9.92772
5974747415,20.7,-0.011711159280881954,-0.028763026072866547,0.0,0.63765,-0.51993,9.87867
5979797920,20.7,0.01064650843716541,-0.01918116847941768,-0.004258603374866164,0.64746,-0.45126,9.78057
5984848425,20.7,0.03089232776029963,-0.003193952531149623,0.0,0.63765,-0.31392000000000003,9.74133
5989898930,20.7,0.04153883619746504,0.012775810124598492,0.002129301687433082,0.60822,-0.21582,9.70209
5994949435,20.7,0.04581489286485115,0.0170518667919846,0.0,0.5886,-0.0981,9.81
5999999940,20.7,0.04366813788489812,0.02769837522915001,0.0,0.52974,0.0,9.89829
6005050445,20.7,0.03408628029144926,0.028763026072866547,0.0,0.51012,0.08829,9.937529999999999
6010100950,20.7,0.02769837522915001,0.013840460968315033,0.002129301687433082,0.46107000000000004,0.0981,9.80019
6015151455,20.7,0.011711159280881954,-0.007452555906015787,0.001064650843716541,0.45126,0.08829,9.751140000000001
6020201960,20.7,-0.005323254218582705,-0.031956978604016174,0.0,0.48069000000000006,0.02943,9.79038
6025252465,20.7,-0.024504422698000388,-0.05539675045830002,-0.002129301687433082,0.57879,-0.07848000000000001,9.87867
6030302970,20.7,-0.03408628029144926,-0.07349581480148122,-0.005323254218582705,0.60822,-0.18639,9.87867
6035353475,20.7,-0.03621558197888234,-0.08203047484373349,-0.005323254218582705,0.71613,-0.30411,9.819809999999999
6040403980,20.7,-0.03408628029144926,-0.08203047484373349,-0.003193952531149623,0.7749900000000001,-0.38259000000000004,9.751140000000001
6045454485,20.7,-0.021310470166850764,-0.06817256058289851,-0.003193952531149623,0.87309,-0.41202000000000005,9.760950000000001
6050504990,20.7,-0.004258603374866164,-0.04260348704118158,-0.002129301687433082,0.9319500000000001,-0.38259000000000004,9.83943
6055555495,20.7,0.006387905062299246,-0.01064650843716541,0.0,0.95157,-0.33354000000000006,9.89829
6060606000,20.7,0.020245819323134222,0.022375121010567305,0.001064650843716541,0.9221400000000001,-0.25506,9.83943
6065656505,20.7,0.02556907354171693,0.05859070298944965,0.0,0.8240400000000001,-0.17658,9.74133
6070707010,20.7,0.02663372438543347,0.08948303074974927,0.001064650843716541,0.74556,-0.04905,9.69228
6075757515,20.7,0.02556907354171693,0.11079350091660004,0.005323254218582705,0.60822,0.009810000000000001,9.74133
6080808020,20.7,0.020245819323134222,0.12356931104119852,0.004258603374866164,0.51993,0.07848000000000001,9.79038
6085858525,20.7,0.006387905062299246,0.12250466019748199,0.005323254218582705,0.41202000000000005,0.08829,9.85905
6090909030,20.7,-0.008517206749732328,0.1097288500728835,0.004258603374866164,0.30411,0.05886,9.888480000000001
6095959535,20.7,-0.020245819323134222,0.07990117315630041,0.005323254218582705,0.22563,0.0,9.81
6101010040,20.7,-0.02982767691658309,0.04260348704118158,0.001064650843716541,0.1962,-0.07848000000000001,9.760950000000001
6106060545,20.7,-0.04366813788489812,-0.003193952531149623,-0.001064650843716541,0.20601000000000003,-0.20601000000000003,9.81
6111111050,20.7,-0.044732788728614664,-0.04260348704118158,-0.001064650843716541,0.26487,-0.30411,9.80019
6116161555,20.7,-0.039409534510031964,-0.08203047484373349,-0.003193952531149623,0.37278,-0.40221,9.81
6121212060,20.7,-0.022375121010567305,-0.10545279340549739,-0.004258603374866164,0.50031,-0.46107000000000004,9.83943
6126262565,20.7,-0.008517206749732328,-0.11824605682261582,-0.002129301687433082,0.60822,-0.46107000000000004,9.888480000000001
6131313070,20.7,0.002129301687433082,-0.12037535851004891,-0.002129301687433082,0.71613,-0.44145,9.89829
6136363575,20.7,0.01811651763570114,-0.10759954838545042,-0.005323254218582705,0.7848,-0.38259000000000004,9.86886
6141414080,20.7,0.039409534510031964,-0.09480628496833199,-0.002129301687433082,0.8829,-0.30411,9.83943
6146464585,20.7,0.05326744877086694,-0.07136651311404815,-0.001064650843716541,0.90252,-0.1962,9.770760000000001
6151515090,20.7,0.054332099614583476,-0.046879543708567686,0.0,0.95157,-0.07848000000000001,9.760950000000001
6156565595,20.7,0.05007349623971732,-0.012775810124598492,0.0,0.9221400000000001,0.0,9.770760000000001
6161616100,20.7,0.04260348704118158,0.020245819323134222,0.0,0.90252,0.06867000000000001,9.84924
6166666605,20.7,0.031956978604016174,0.05113814708343386,0.005323254218582705,0.84366,0.13734000000000002,9.79038
6171717110,20.7,0.013840460968315033,0.0756251164889143,0.004258603374866164,0.74556,0.15696000000000002,9.73152
6176767615,20.7,-0.006387905062299246,0.08948303074974927,0.002129301687433082,0.65727,0.12753,9.760950000000001
6181818120,20.7,-0.024504422698000388,0.09374163412461543,0.002129301687433082,0.5886,0.07848000000000001,9.80019
6186868625,20.7,-0.0404741853537485,0.08203047484373349,0.005323254218582705,0.51012,0.0,9.82962
6191919130,20.7,-0.05113814708343386,0.060720004676882725,0.001064650843716541,0.47088,-0.14715,9.78057
6196969635,20.7,-0.06391395720803235,0.03728023282259888,-0.002129301687433082,0.41202000000000005,-0.25506,9.80019
6202020140,20.7,-0.060720004676882725,0.01918116847941768,0.0,0.45126,-0.37278,9.760950000000001
6207070645,20.7,-0.04366813788489812,-0.002129301687433082,0.0,0.46107000000000004,-0.44145,9.819809999999999
6212121150,20.7,-0.02769837522915001,-0.0170518667919846,0.0,0.52974,-0.48069000000000006,9.87867
6217171655,20.7,-0.015987215948268057,-0.020245819323134222,-0.001064650843716541,0.5493600000000001,-0.44145,9.89829
6222222160,20.7,0.005323254218582705,-0.01918116847941768,0.0,0.5591700000000001,-0.3924,9.81
6227272665,20.7,0.02556907354171693,-0.01811651763570114,0.0,0.57879,-0.30411,9.7119
6232323170,20.7,0.03621558197888234,-0.012775810124598492,0.0,0.57879,-0.22563,9.72171
6237373675,20.7,0.0404741853537485,-0.011711159280881954,0.001064650843716541,0.5591700000000001,-0.11772,9.87867
6242424180,20.7,0.03515093113516579,-0.005323254218582705,0.0,0.5886,-0.039240000000000004,9.888480000000001
6247474685,20.7,0.03408628029144926,0.004258603374866164,-0.001064650843716541,0.56898,0.019620000000000002,9.86886
6252525190,20.7,0.028763026072866547,0.00958185759344887,0.004258603374866164,0.5493600000000001,0.019620000000000002,9.79038
6257575695,20.7,0.013840460968315033,0.011711159280881954,0.004258603374866164,0.51012,0.019620000000000002,9.7119
6262626200,20.7,-0.003193952531149623,0.006387905062299246,-0.001064650843716541,0.49050000000000005,0.039240000000000004,9.78057
6267676705,20.7,-0.01918116847941768,0.001064650843716541,0.0,0.51012,-0.02943,9.91791
6272727210,20.7,-0.02663372438543347,-0.01064650843716541,0.001064650843716541,0.51012,-0.11772,9.91791
6277777715,20.7,-0.03089232776029963,-0.02982767691658309,0.0,0.51993,-0.21582,9.819809999999999
6282828220,20.7,-0.033021629447732716,-0.05007349623971732,-0.002129301687433082,0.59841,-0.30411,9.74133
6287878725,20.7,-0.031956978604016174,-0.06710790973918197,-0.003193952531149623,0.65727,-0.36297,9.79038
6292929230,20.7,-0.0170518667919846,-0.06923721142661506,-0.002129301687433082,0.7749900000000001,-0.41202000000000005,9.87867
6297979735,20.7,0.0,-0.06391395720803235,-0.001064650843716541,0.84366,-0.38259000000000004,9.95715
6303030240,20.7,0.00958185759344887,-0.05326744877086694,0.0,0.8829,-0.36297,9.83943
6308080745,20.7,0.01918116847941768,-0.04153883619746504,0.0,0.87309,-0.31392000000000003,9.72171
6313131250,20.7,0.03089232776029963,-0.023439771854283843,-0.001064650843716541,0.89271,-0.20601000000000003,9.69228
6318181755,20.7,0.0404741853537485,0.003193952531149623,-0.001064650843716541,0.9123300000000001,-0.13734000000000002,9.80019
6323232260,20.7,0.04260348704118158,0.028763026072866547,0.002129301687433082,0.85347,0.0,9.819809999999999
6328282765,20.7,0.02982767691658309,0.05859070298944965,0.001064650843716541,0.7848,0.02943,9.78057
6333333270,20.7,0.01811651763570114,0.08735372906231618,0.0,0.6670800000000001,0.07848000000000001,9.70209
6338383775,20.7,0.007452555906015787,0.10545279340549739,0.004258603374866164,0.57879,0.13734000000000002,9.74133
6343434280,20.7,-0.005323254218582705,0.11505210429146619,0.006387905062299246,0.49050000000000005,0.10791,9.81
6348484785,20.7,-0.02556907354171693,0.10866419922916695,0.003193952531149623,0.40221,0.039240000000000004,9.83943
6353535290,20.7,-0.04366813788489812,0.08948303074974927,0.001064650843716541,0.31392000000000003,-0.039240000000000004,9.81
6358585795,20.7,-0.05220279792715039,0.060720004676882725,0.001064650843716541,0.28449,-0.15696000000000002,9.770760000000001
6363636300,20.7,-0.054332099614583476,0.02556907354171693,0.0,0.28449,-0.30411,9.81
6368686805,20.7,-0.054332099614583476,-0.004258603374866164,-0.001064650843716541,0.31392000000000003,-0.38259000000000004,9.908100000000001
6373737310,20.7,-0.049008845396000776,-0.03408628029144926,0.0,0.35316,-0.47088,9.908100000000001
6378787815,20.7,-0.03089232776029963,-0.05859070298944965,-0.003193952531149623,0.41202000000000005,-0.49050000000000005,9.84924
6383838320,20.7,-0.008517206749732328,-0.07670722062515077,-0.004258603374866164,0.49050000000000005,-0.47088,9.78057
6388888825,20.7,0.012775810124598492,-0.07883652231258387,0.0,0.5886,-0.43164,9.82962
6393939330,20.7,0.02982767691658309,-0.07670722062515077,0.0,0.64746,-0.36297,9.888480000000001
6398989835,20.7,0.0404741853537485,-0.06817256058289851,0.0,0.71613,-0.25506,9.87867
6404040340,20.7,0.05007349623971732,-0.05539675045830002,-0.004258603374866164,0.72594,-0.16677000000000003,9.79038
6409090845,20.7,0.05220279792715039,-0.03728023282259888,-0.001064650843716541,0.75537,-0.05886,9.751140000000001
6414141350,20.7,0.049008845396000776,-0.01811651763570114,0.002129301687433082,0.74556,0.009810000000000001,9.81
6419191855,20.7,0.0404741853537485,0.003193952531149623,0.003193952531149623,0.74556,0.0981,9.87867
6424242360,20.7,0.02663372438543347,0.01811651763570114,0.0,0.69651,0.0981,9.86886
6429292865,20.7,0.013840460968315033,0.024504422698000388,0.002129301687433082,0.6670800000000001,0.08829,9.70209
6434343370,20.7,-0.00958185759344887,0.01918116847941768,0.003193952531149623,0.60822,0.039240000000000004,9.64323
6439393875,20.7,-0.024504422698000388,0.00958185759344887,0.0,0.6278400000000001,-0.019620000000000002,9.82962
6444444380,20.7,-0.03728023282259888,0.0,0.001064650843716541,0.63765,-0.07848000000000001,9.92772
6449494885,20.7,-0.04153883619746504,-0.007452555906015787,0.0,0.6768900000000001,-0.22563,9.87867
6454545390,20.7,-0.04153883619746504,-0.01918116847941768,-0.001064650843716541,0.6670800000000001,-0.2943,9.7119
6459595895,20.7,-0.03515093113516579,-0.028763026072866547,-0.003193952531149623,0.73575,-0.36297,9.7119
6464646400,20.7,-0.02663372438543347,-0.02556907354171693,0.0,0.7651800000000001,-0.3924,9.80019
6469696905,20.7,-0.008517206749732328,-0.012775810124598492,0.0,0.8240400000000001,-0.37278,9.98658
6474747410,20.7,0.005323254218582705,-0.001064650843716541,-0.002129301687433082,0.79461,-0.33354000000000006,9.888480000000001
6479797915,20.7,0.014905111812031574,0.012775810124598492,0.0,0.7651800000000001,-0.25506,9.67266
6484848420,20.7,0.021310470166850764,0.03089232776029963,0.0,0.72594,-0.20601000000000003,9.57456
6489898925,20.7,0.02982767691658309,0.04581489286485115,0.001064650843716541,0.6867000000000001,-0.06867000000000001,9.79038
6494949430,20.7,0.031956978604016174,0.05965535383316618,0.002129301687433082,0.63765,-0.019620000000000002,9.98658
6499999935,20.7,0.021310470166850764,0.07243116395776468,0.004258603374866164,0.56898,0.009810000000000001,9.96696
6505050440,20.7,0.005323254218582705,0.08415977653116657,0.002129301687433082,0.46107000000000004,0.019620000000000002,9.80019
6510100945,20.7,-0.003193952531149623,0.08415977653116657,0.002129301687433082,0.35316,0.0,9.623610000000001
6515151450,20.7,-0.014905111812031574,0.07456046564519776,0.002129301687433082,0.30411,0.0,9.65304
6520201955,20.7,-0.02663372438543347,0.05752605214573309,0.005323254218582705,0.2943,-0.05886,9.87867
6525252460,20.7,-0.03515093113516579,0.02769837522915001,0.001064650843716541,0.26487,-0.16677000000000003,10.01601
6530302965,20.7,-0.0404741853537485,0.004258603374866164,-0.001064650843716541,0.26487,-0.23544,9.96696
6535353470,20.7,-0.03834488366631542,-0.02769837522915001,0.0,0.31392000000000003,-0.33354000000000006,9.79038
6540403975,20.7,-0.02769837522915001,-0.05752605214573309,-0.002129301687433082,0.38259000000000004,-0.3924,9.70209
6545454480,20.7,-0.015987215948268057,-0.08415977653116657,0.0,0.45126,-0.44145,9.79038
6550504985,20.7,-0.005323254218582705,-0.09906488834319814,-0.003193952531149623,0.57879,-0.42183,9.92772
6555555490,20.7,0.011711159280881954,-0.10332349171806432,-0.001064650843716541,0.69651,-0.40221,9.94734
6560605995,20.7,0.02663372438543347,-0.09693558665576507,-0.003193952531149623,0.74556,-0.32373,9.82962
6565656500,20.7,0.039409534510031964,-0.08841837990603273,-0.001064650843716541,0.80442,-0.24525000000000002,9.751140000000001
6570707005,20.7,0.04581489286485115,-0.07777187146886733,0.0,0.85347,-0.15696000000000002,9.73152
6575757510,20.7,0.046879543708567686,-0.05859070298944965,0.0,0.90252,-0.07848000000000001,9.80019
6580808015,20.7,0.04794419455228423,-0.03834488366631542,-0.001064650843716541,0.90252,0.0,9.84924
6585858520,20.7,0.03728023282259888,-0.0170518667919846,0.002129301687433082,0.9221400000000001,0.05886,9.81
6590909025,20.7,0.02663372438543347,0.00958185759344887,0.0,0.8829,0.07848000000000001,9.81
6595959530,20.7,0.008517206749732328,0.03089232776029963,0.0,0.8240400000000001,0.08829,9.73152
6601010035,20.7,-0.003193952531149623,0.060720004676882725,0.004258603374866164,0.7749900000000001,0.05886,9.65304
6606060540,20.7,-0.015987215948268057,0.07136651311404815,0.002129301687433082,0.71613,0.0,9.74133
6611111045,20.7,-0.031956978604016174,0.08096582400001695,0.006387905062299246,0.6670800000000001,-0.019620000000000002,9.82962
6616161550,20.7,-0.04581489286485115,0.07883652231258387,0.001064650843716541,0.60822,-0.11772,9.908100000000001
6621212055,20.7,-0.05007349623971732,0.06817256058289851,0.002129301687433082,0.5493600000000001,-0.18639,9.89829
6626262560,20.7,-0.046879543708567686,0.05752605214573309,0.002129301687433082,0.51993,-0.28449,9.81
6631313065,20.7,-0.044732788728614664,0.03834488366631542,-0.001064650843716541,0.48069000000000006,-0.36297,9.7119
6636363570,20.7,-0.03408628029144926,0.020245819323134222,0.0,0.46107000000000004,-0.42183,9.78057
6641414075,20.7,-0.023439771854283843,-0.0,-0.001064650843716541,0.49050000000000005,-0.43164,9.89829
6646464580,20.7,-0.006387905062299246,-0.012775810124598492,0.0,0.5395500000000001,-0.41202000000000005,9.937529999999999
6651515085,20.7,0.01064650843716541,-0.02769837522915001,0.001064650843716541,0.5493600000000001,-0.35316,9.89829
6656565590,20.7,0.023439771854283843,-0.02769837522915001,0.0,0.5591700000000001,-0.2943,9.751140000000001
6661616095,20.7,0.031956978604016174,-0.02982767691658309,-0.002129301687433082,0.56898,-0.1962,9.74133
6666666600,20.7,0.03728023282259888,-0.021310470166850764,0.0,0.6180300000000001,-0.14715,9.81
6671717105,20.7,0.03834488366631542,-0.01064650843716541,0.002129301687433082,0.60822,-0.04905,9.908100000000001
6676767610,20.7,0.02556907354171693,0.004258603374866164,-0.001064650843716541,0.57879,0.0,9.84924
6681818115,20.7,0.015987215948268057,0.015987215948268057,0.0,0.52974,0.009810000000000001,9.751140000000001
6686868620,20.7,0.006387905062299246,0.024504422698000388,0.002129301687433082,0.49050000000000005,0.019620000000000002,9.7119
6691919125,20.7,0.004258603374866164,0.022375121010567305,0.001064650843716541,0.50031,0.019620000000000002,9.770760000000001
6696969630,20.7,-0.00958185759344887,0.020245819323134222,0.001064650843716541,0.49050000000000005,-0.009810000000000001,9.908100000000001
6702020135,20.7,-0.022375121010567305,0.01064650843716541,0.001064650843716541,0.47088,-0.10791,9.888480000000001
6707070640,20.7,-0.03089232776029963,0.001064650843716541,-0.002129301687433082,0.49050000000000005,-0.14715,9.81
6712121145,20.7,-0.031956978604016174,-0.012775810124598492,-0.001064650843716541,0.49050000000000005,-0.24525000000000002,9.73152
6717171650,20.7,-0.028763026072866547,-0.033021629447732716,-0.002129301687433082,0.52974,-0.30411,9.73152
6722222155,20.7,-0.022375121010567305,-0.046879543708567686,-0.002129301687433082,0.59841,-0.32373,9.84924
6727272660,20.7,-0.00958185759344887,-0.060720004676882725,-0.001064650843716541,0.6768900000000001,-0.36297,9.908100000000001
6732323165,20.7,0.004258603374866164,-0.06178465552059926,-0.001064650843716541,0.72594,-0.33354000000000006,9.86886
6737373670,20.7,0.01811651763570114,-0.05646140130201656,-0.002129301687433082,0.7848,-0.30411,9.81
6742424175,20.7,0.022375121010567305,-0.05007349623971732,-0.001064650843716541,0.80442,-0.25506,9.770760000000001
6747474680,20.7,0.02769837522915001,-0.03408628029144926,0.0,0.8240400000000001,-0.14715,9.819809999999999
6752525185,20.7,0.028763026072866547,-0.013840460968315033,0.0,0.8240400000000001,-0.10791,9.83943
6757575690,20.7,0.03089232776029963,0.001064650843716541,0.003193952531149623,0.8338500000000001,-0.04905,9.83943
6762626195,20.7,0.02556907354171693,0.023439771854283843,0.0,0.79461,-0.019620000000000002,9.78057
6767676700,20.7,0.0170518667919846,0.04153883619746504,0.0,0.74556,0.009810000000000001,9.760950000000001
6772727205,20.7,0.005323254218582705,0.05859070298944965,0.0,0.69651,0.02943,9.751140000000001
6777777710,20.7,-0.007452555906015787,0.07456046564519776,0.003193952531149623,0.60822,0.019620000000000002,9.80019
6782828215,20.7,-0.020245819323134222,0.08203047484373349,0.003193952531149623,0.5493600000000001,-0.019620000000000002,9.819809999999999
6787878720,20.7,-0.031956978604016174,0.07990117315630041,0.002129301687433082,0.50031,-0.10791,9.81
6792929225,20.7,-0.03834488366631542,0.05752605214573309,0.001064650843716541,0.42183,-0.15696000000000002,9.81
6797979730,20.7,-0.04153883619746504,0.033021629447732716,0.003193952531149623,0.40221,-0.25506,9.78057
6803030235,20.7,-0.03728023282259888,0.005323254218582705,0.0,0.41202000000000005,-0.30411,9.82962
6808080740,20.7,-0.02982767691658309,-0.01918116847941768,-0.001064650843716541,0.44145,-0.36297,9.89829
6813131245,20.7,-0.024504422698000388,-0.03834488366631542,-0.001064650843716541,0.50031,-0.42183,9.86886
6818181750,20.7,-0.011711159280881954,-0.05113814708343386,0.0,0.56898,-0.41202000000000005,9.81
6823232255,20.7,0.008517206749732328,-0.05859070298944965,0.0,0.64746,-0.38259000000000004,9.78057
6828282760,20.7,0.024504422698000388,-0.060720004676882725,-0.002129301687433082,0.6867000000000001,-0.31392000000000003,9.83943
6833333265,20.7,0.033021629447732716,-0.05859070298944965,-0.001064650843716541,0.72594,-0.23544,9.87867
6838383770,20.7,0.039409534510031964,-0.05113814708343386,0.0,0.74556,-0.13734000000000002,9.85905
6843434275,20.7,0.04366813788489812,-0.031956978604016174,0.0,0.7848,-0.0981,9.80019
6848484780,20.7,0.039409534510031964,-0.015987215948268057,-0.001064650843716541,0.7651800000000001,-0.019620000000000002,9.760950000000001
6853535285,20.7,0.028763026072866547,0.00958185759344887,0.003193952531149623,0.74556,0.02943,9.78057
6858585790,20.7,0.0170518667919846,0.033021629447732716,0.002129301687433082,0.70632,0.05886,9.80019
6863636295,20.7,0.004258603374866164,0.05326744877086694,0.0,0.6670800000000001,0.05886,9.81
6868686800,20.7,-0.005323254218582705,0.06604325889546543,0.004258603374866164,0.56898,0.04905,9.751140000000001
6873737305,20.7,-0.01811651763570114,0.06497860805174888,0.005323254218582705,0.51012,0.0,9.760950000000001
6878787810,20.7,-0.03089232776029963,0.05752605214573309,0.001064650843716541,0.49050000000000005,-0.05886,9.81
6883838315,20.7,-0.04153883619746504,0.039409534510031964,0.001064650843716541,0.47088,-0.18639,9.84924
6888888820,20.7,-0.046879543708567686,0.015987215948268057,0.002129301687433082,0.45126,-0.26487,9.87867
6893939325,20.7,-0.04366813788489812,-0.013840460968315033,0.0,0.50031,-0.36297,9.819809999999999
6898989830,20.7,-0.031956978604016174,-0.03621558197888234,-0.004258603374866164,0.51993,-0.41202000000000005,9.79038
6904040335,20.7,-0.0170518667919846,-0.05646140130201656,-0.003193952531149623,0.56898,-0.44145,9.81
6909090840,20.7,0.001064650843716541,-0.05965535383316618,-0.001064650843716541,0.6670800000000001,-0.40221,9.83943
6914141345,20.7,0.013840460968315033,-0.05752605214573309,-0.003193952531149623,0.72594,-0.38259000000000004,9.86886
6919191850,20.7,0.024504422698000388,-0.04366813788489812,-0.002129301687433082,0.7651800000000001,-0.30411,9.84924
6924242355,20.7,0.033021629447732716,-0.02663372438543347,0.0,0.7651800000000001,-0.20601000000000003,9.78057
6929292860,20.7,0.0404741853537485,-0.006387905062299246,0.001064650843716541,0.74556,-0.10791,9.79038
6934343365,20.7,0.04260348704118158,0.015987215948268057,0.001064650843716541,0.71613,-0.019620000000000002,9.770760000000001
6939393870,20.7,0.031956978604016174,0.031956978604016174,0.003193952531149623,0.6867000000000001,0.04905,9.80019
6944444375,20.7,0.021310470166850764,0.044732788728614664,0.003193952531149623,0.6278400000000001,0.06867000000000001,9.78057
6949494880,20.7,0.006387905062299246,0.04794419455228423,0.002129301687433082,0.5591700000000001,0.06867000000000001,9.79038
6954545385,20.7,-0.008517206749732328,0.04260348704118158,0.003193952531149623,0.51993,0.02943,9.81
6959595890,20.7,-0.021310470166850764,0.03621558197888234,0.0,0.49050000000000005,-0.02943,9.819809999999999
6964646395,20.7,-0.03621558197888234,0.022375121010567305,0.002129301687433082,0.49050000000000005,-0.11772,9.81
6969696900,20.7,-0.039409534510031964,0.00958185759344887,-0.001064650843716541,0.49050000000000005,-0.23544,9.80019
6974747405,20.7,-0.03834488366631542,-0.0,-0.001064650843716541,0.48069000000000006,-0.2943,9.760950000000001
6979797910,20.7,-0.03515093113516579,-0.01064650843716541,0.001064650843716541,0.52974,-0.35316,9.81
6984848415,20.7,-0.02769837522915001,-0.0170518667919846,0.0,0.5493600000000001,-0.3924,9.85905
6989898920,20.7,-0.012775810124598492,-0.028763026072866547,0.0,0.59841,-0.37278,9.86886
6994949425,20.7,0.0,-0.03834488366631542,-0.001064650843716541,0.6180300000000001,-0.36297,9.83943
