Time,Device name,Chip Time(),Acceleration X(g),Acceleration Y(g),Acceleration Z(g),Angular velocity X(°/s),Angular velocity Y(°/s),Angular velocity Z(°/s),Angle X(°),Angle Y(°),Angle Z(°),Magnetic field X(ʯt),Magnetic field Y(ʯt),Magnetic field Z(ʯt),Temperature(℃),Quaternions 0(),Quaternions 1(),Quaternions 2(),Quaternions 3()
 15:28:53.125,c2:22:89:2b:7b:c3, 2015-01-01 00:44:01.380, 0.028, -0.03, 1, 0, 0, 0, -1.736, -1.483, 126.326, 57.134, -41.748, -12.446, 22.35, 0.45151, 0.00467, -0.01938, 0.892,
 15:28:53.125,c2:22:89:2b:7b:c3, 2015-01-01 00:44:01.380, 0.025, -0.032, 1.002, 0, 0, 0, -1.736, -1.483, 126.326, 57.134, -41.748, -12.446, 22.35, 0.45151, 0.00467, -0.01938, 0.892,
 15:28:53.125,c2:22:89:2b:7b:c3, 2015-01-01 00:44:01.380, 0.026, -0.03, 1.005, 0, 0, 0, -1.736, -1.483, 126.326, 57.134, -41.748, -12.446, 22.35, 0.45151, 0.00467, -0.01938, 0.892,
 15:28:53.125,c2:22:89:2b:7b:c3, 2015-01-01 00:44:01.380, 0.023, -0.027, 1.002, 0, 0, 0, -1.736, -1.483, 126.326, 57.134, -41.748, -12.446, 22.35, 0.45151, 0.00467, -0.01938, 0.892,
 15:28:53.156,c2:22:89:2b:7b:c3, 2015-01-01 00:44:01.380, 0.023, -0.029, 1.001, 0, 0, 0, -1.736, -1.483, 126.326, 57.134, -41.748, -12.446, 22.35, 0.45151, 0.00467, -0.01938, 0.892,
 15:28:53.156,c2:22:89:2b:7b:c3, 2015-01-01 00:44:01.380, 0.027, -0.031, 1.003, 0, 0, 0, -1.736, -1.483, 126.326, 57.134, -41.748, -12.446, 22.35, 0.45151, 0.00467, -0.01938, 0.892,
 15:28:53.156,c2:22:89:2b:7b:c3, 2015-01-01 00:44:01.380, 0.026, -0.027, 1.002, 0, 0, 0, -1.736, -1.483, 126.326, 57.134, -41.748, -12.446, 22.35, 0.45151, 0.00467, -0.01938, 0.892,
 15:28:53.156,c2:22:89:2b:7b:c3, 2015-01-01 00:44:01.380, 0.024, -0.031, 1.003, 0, 0, 0, -1.736, -1.483, 126.326, 57.134, -41.748, -12.446, 22.35, 0.45151, 0.00467, -0.01938, 0.892,
 15:28:53.187,c2:22:89:2b:7b:c3, 2015-01-01 00:44:01.380, 0.024, -0.029, 1.002, 0, 0, 0, -1.736, -1.483, 126.326, 57.134, -41.748, -12.446, 22.35, 0.45151, 0.00467, -0.01938, 0.892,
 15:28:53.187,c2:22:89:2b:7b:c3, 2015-01-01 00:44:01.380, 0.027, -0.029, 1.003, 0, 0, 0, -1.736, -1.483, 126.326, 57.134, -41.748, -12.446, 22.35, 0.45151, 0.00467, -0.01938, 0.892,
 15:28:53.187,c2:22:89:2b:7b:c3, 2015-01-01 00:44:01.380, 0.026, -0.031, 1.004, 0, 0, 0, -1.736, -1.483, 126.326, 57.134, -41.748, -12.446, 22.35, 0.45151, 0.00467, -0.01938, 0.892,
 15:28:53.187,c2:22:89:2b:7b:c3, 2015-01-01 00:44:01.380, 0.026, -0.032, 1, 0, 0, 0, -1.736, -1.483, 126.326, 57.134, -41.748, -12.446, 22.35, 0.45151, 0.00467, -0.01938, 0.892,
 15:28:53.247,c2:22:89:2b:7b:c3, 2015-01-01 00:44:01.380, 0.024, -0.031, 1.003, 0, 0, 0, -1.736, -1.483, 126.326, 57.134, -41.748, -12.446, 22.35, 0.45151, 0.00467, -0.01938, 0.892,
 15:28:53.247,c2:22:89:2b:7b:c3, 2015-01-01 00:44:01.380, 0.023, -0.028, 1, 0, 0, 0, -1.736, -1.483, 126.326, 57.134, -41.748, -12.446, 22.35, 0.45151, 0.00467, -0.01938, 0.892,
 15:28:53.247,c2:22:89:2b:7b:c3, 2015-01-01 00:44:01.380, 0.029, -0.032, 1.002, 0, 0, 0, -1.736, -1.483, 126.326, 57.134, -41.748, -12.446, 22.35, 0.45151, 0.00467, -0.01938, 0.892,
 15:28:53.247,c2:22:89:2b:7b:c3, 2015-01-01 00:44:01.380, 0.026, -0.031, 1.002, 0, 0, 0, -1.736, -1.483, 126.326, 57.134, -41.748, -12.446, 22.35, 0.45151, 0.00467, -0.01938, 0.892,
 15:28:53.276,c2:22:89:2b:7b:c3, 2015-01-01 00:44:01.380, 0.024, -0.03, 1.003, 0, 0, 0, -1.736, -1.483, 126.326, 57.134, -41.748, -12.348, 22.35, 0.45151, 0.00467, -0.01938, 0.892,
 15:28:53.276,c2:22:89:2b:7b:c3, 2015-01-01 00:44:01.380, 0.026, -0.03, 1.002, 0, 0, 0, -1.736, -1.483, 126.326, 57.134, -41.748, -12.348, 22.35, 0.45151, 0.00467, -0.01938, 0.892,
 15:28:53.276,c2:22:89:2b:7b:c3, 2015-01-01 00:44:01.380, 0.024, -0.029, 1.003, 0, 0, 0, -1.736, -1.483, 126.326, 57.134, -41.748, -12.348, 22.35, 0.45151, 0.00467, -0.01938, 0.892,
 15:28:53.276,c2:22:89:2b:7b:c3, 2015-01-01 00:44:01.380, 0.026, -0.03, 1.002, 0, 0, 0, -1.736, -1.483, 126.326, 57.134, -41.748, -12.348, 22.35, 0.45151, 0.00467, -0.01938, 0.892,
 15:28:53.306,c2:22:89:2b:7b:c3, 2015-01-01 00:44:01.380, 0.027, -0.03, 1.003, 0, 0, 0, -1.736, -1.483, 126.326, 57.134, -41.748, -12.348, 22.35, 0.45151, 0.00467, -0.01938, 0.892,
 15:28:53.306,c2:22:89:2b:7b:c3, 2015-01-01 00:44:01.380, 0.025, -0.031, 1.002, 0, 0, 0, -1.736, -1.483, 126.326, 57.134, -41.748, -12.348, 22.35, 0.45151, 0.00467, -0.01938, 0.892,
 15:28:53.306,c2:22:89:2b:7b:c3, 2015-01-01 00:44:01.380, 0.026, -0.03, 1.001, 0, 0, 0, -1.736, -1.483, 126.326, 57.134, -41.748, -12.348, 22.35, 0.45151, 0.00467, -0.01938, 0.892,
 15:28:53.306,c2:22:89:2b:7b:c3, 2015-01-01 00:44:01.380, 0.026, -0.029, 1.003, 0, 0, 0, -1.736, -1.483, 126.326, 57.134, -41.748, -12.348, 22.35, 0.45151, 0.00467, -0.01938, 0.892,
 15:28:53.367,c2:22:89:2b:7b:c3, 2015-01-01 00:44:01.380, 0.027, -0.029, 1.003, 0, 0, 0, -1.736, -1.483, 126.326, 57.134, -41.748, -12.348, 22.35, 0.45151, 0.0047, -0.01935, 0.892,
 15:28:53.367,c2:22:89:2b:7b:c3, 2015-01-01 00:44:01.380, 0.024, -0.033, 1.002, 0, 0, 0, -1.736, -1.483, 126.326, 57.134, -41.748, -12.348, 22.35, 0.45151, 0.0047, -0.01935, 0.892,
 15:28:53.367,c2:22:89:2b:7b:c3, 2015-01-01 00:44:01.380, 0.028, -0.029, 1.001, 0, 0, 0, -1.736, -1.483, 126.326, 57.134, -41.748, -12.348, 22.35, 0.45151, 0.0047, -0.01935, 0.892,
 15:28:53.367,c2:22:89:2b:7b:c3, 2015-01-01 00:44:01.380, 0.029, -0.028, 1.003, 0, 0, 0, -1.736, -1.483, 126.326, 57.134, -41.748, -12.348, 22.35, 0.45151, 0.0047, -0.01935, 0.892,
 15:28:53.397,c2:22:89:2b:7b:c3, 2015-01-01 00:44:01.765, 0.027, -0.033, 1.002, 0, 0, 0, -1.736, -1.483, 126.326, 57.134, -41.748, -12.348, 22.35, 0.45151, 0.0047, -0.01935, 0.892,
 15:28:53.397,c2:22:89:2b:7b:c3, 2015-01-01 00:44:01.765, 0.026, -0.029, 1.003, 0, 0, 0, -1.736, -1.483, 126.326, 57.134, -41.748, -12.348, 22.35, 0.45151, 0.0047, -0.01935, 0.892,
 15:28:53.397,c2:22:89:2b:7b:c3, 2015-01-01 00:44:01.765, 0.026, -0.032, 1.002, 0, 0, 0, -1.736, -1.483, 126.326, 57.134, -41.748, -12.348, 22.35, 0.45151, 0.0047, -0.01935, 0.892,
 15:28:53.397,c2:22:89:2b:7b:c3, 2015-01-01 00:44:01.765, 0.025, -0.033, 1.001, 0, 0, 0, -1.736, -1.483, 126.326, 57.134, -41.748, -12.348, 22.35, 0.45151, 0.0047, -0.01935, 0.892,
 15:28:53.426,c2:22:89:2b:7b:c3, 2015-01-01 00:44:01.765, 0.025, -0.03, 1.002, 0, 0, 0, -1.736, -1.483, 126.326, 57.134, -41.748, -12.348, 22.35, 0.45151, 0.0047, -0.01935, 0.892,
 15:28:53.426,c2:22:89:2b:7b:c3, 2015-01-01 00:44:01.765, 0.029, -0.029, 1.001, 0, 0, 0, -1.736, -1.483, 126.326, 57.134, -41.748, -12.348, 22.35, 0.45151, 0.0047, -0.01935, 0.892,
 15:28:53.426,c2:22:89:2b:7b:c3, 2015-01-01 00:44:01.765, 0.027, -0.03, 1.003, 0, 0, 0, -1.736, -1.483, 126.326, 57.134, -41.748, -12.348, 22.35, 0.45151, 0.0047, -0.01935, 0.892,
 15:28:53.426,c2:22:89:2b:7b:c3, 2015-01-01 00:44:01.765, 0.025, -0.029, 1.001, 0, 0, 0, -1.736, -1.483, 126.326, 57.134, -41.748, -12.348, 22.35, 0.45151, 0.0047, -0.01935, 0.892,
 15:28:53.486,c2:22:89:2b:7b:c3, 2015-01-01 00:44:01.765, 0.024, -0.028, 1.002, 0, 0, 0, -1.736, -1.483, 126.326, 57.134, -41.748, -12.348, 22.35, 0.45151, 0.0047, -0.01935, 0.892,
 15:28:53.486,c2:22:89:2b:7b:c3, 2015-01-01 00:44:01.765, 0.028, -0.03, 1.004, 0, 0, 0, -1.736, -1.483, 126.326, 57.134, -41.748, -12.348, 22.35, 0.45151, 0.0047, -0.01935, 0.892,
 15:28:53.486,c2:22:89:2b:7b:c3, 2015-01-01 00:44:01.765, 0.023, -0.031, 1.002, 0, 0, 0, -1.736, -1.483, 126.326, 57.134, -41.748, -12.348, 22.35, 0.45151, 0.0047, -0.01935, 0.892,
 15:28:53.486,c2:22:89:2b:7b:c3, 2015-01-01 00:44:01.765, 0.024, -0.03, 1.003, 0, 0, 0, -1.736, -1.483, 126.326, 57.134, -41.748, -12.348, 22.35, 0.45151, 0.0047, -0.01935, 0.892,
 15:28:53.516,c2:22:89:2b:7b:c3, 2015-01-01 00:44:01.765, 0.028, -0.03, 1, 0, 0, 0, -1.736, -1.483, 126.326, 57.134, -41.748, -12.348, 22.35, 0.45151, 0.0047, -0.01935, 0.892,
 15:28:53.516,c2:22:89:2b:7b:c3, 2015-01-01 00:44:01.765, 0.024, -0.033, 1.001, 0, 0, 0, -1.736, -1.483, 126.326, 57.134, -41.748, -12.348, 22.35, 0.45151, 0.0047, -0.01935, 0.892,
 15:28:53.516,c2:22:89:2b:7b:c3, 2015-01-01 00:44:01.765, 0.023, -0.028, 1.003, 0, 0, 0, -1.736, -1.483, 126.326, 57.134, -41.748, -12.348, 22.35, 0.45151, 0.0047, -0.01935, 0.892,
 15:28:53.516,c2:22:89:2b:7b:c3, 2015-01-01 00:44:01.765, 0.028, -0.029, 1.002, 0, 0, 0, -1.736, -1.483, 126.326, 57.134, -41.748, -12.348, 22.35, 0.45151, 0.0047, -0.01935, 0.892,
 15:28:53.546,c2:22:89:2b:7b:c3, 2015-01-01 00:44:01.765, 0.028, -0.034, 1.002, 0, 0, 0, -1.736, -1.483, 126.326, 57.134, -41.748, -12.348, 22.35, 0.45151, 0.0047, -0.01935, 0.892,
 15:28:53.546,c2:22:89:2b:7b:c3, 2015-01-01 00:44:01.765, 0.024, -0.029, 1.004, 0, 0, 0, -1.736, -1.483, 126.326, 57.134, -41.748, -12.348, 22.35, 0.45151, 0.0047, -0.01935, 0.892,
 15:28:53.546,c2:22:89:2b:7b:c3, 2015-01-01 00:44:01.765, 0.027, -0.028, 1.001, 0, 0, 0, -1.736, -1.483, 126.326, 57.134, -41.748, -12.348, 22.35, 0.45151, 0.0047, -0.01935, 0.892,
 15:28:53.546,c2:22:89:2b:7b:c3, 2015-01-01 00:44:01.765, 0.027, -0.031, 1.004, 0, 0, 0, -1.736, -1.483, 126.326, 57.134, -41.748, -12.348, 22.35, 0.45151, 0.0047, -0.01935, 0.892,
 15:28:53.606,c2:22:89:2b:7b:c3, 2015-01-01 00:44:01.765, 0.024, -0.031, 1.001, 0, 0, 0, -1.736, -1.483, 126.326, 57.134, -41.748, -12.348, 22.35, 0.45151, 0.0047, -0.01935, 0.892,
 15:28:53.606,c2:22:89:2b:7b:c3, 2015-01-01 00:44:01.765, 0.023, -0.031, 1.005, 0, 0, 0, -1.736, -1.483, 126.326, 57.134, -41.748, -12.348, 22.35, 0.45151, 0.0047, -0.01935, 0.892,
 15:28:53.606,c2:22:89:2b:7b:c3, 2015-01-01 00:44:01.765, 0.029, -0.029, 1.002, 0, 0, 0, -1.736, -1.483, 126.326, 57.134, -41.748, -12.348, 22.35, 0.45151, 0.0047, -0.01935, 0.892,
 15:28:53.606,c2:22:89:2b:7b:c3, 2015-01-01 00:44:01.765, 0.026, -0.032, 1.002, 0, 0, 0, -1.736, -1.483, 126.326, 57.134, -41.748, -12.348, 22.35, 0.45151, 0.0047, -0.01935, 0.892,
 15:28:53.636,c2:22:89:2b:7b:c3, 2015-01-01 00:44:01.765, 0.024, -0.032, 1.001, 0, 0, 0, -1.736, -1.483, 126.326, 57.134, -41.748, -12.348, 22.35, 0.45151, 0.0047, -0.01935, 0.892,
 15:28:53.636,c2:22:89:2b:7b:c3, 2015-01-01 00:44:01.765, 0.027, -0.03, 1.002, 0, 0, 0, -1.736, -1.483, 126.326, 57.134, -41.748, -12.348, 22.35, 0.45151, 0.0047, -0.01935, 0.892,
 15:28:53.636,c2:22:89:2b:7b:c3, 2015-01-01 00:44:01.765, 0.028, -0.034, 1.002, 0, 0, 0, -1.736, -1.483, 126.326, 57.134, -41.748, -12.348, 22.35, 0.45151, 0.0047, -0.01935, 0.892,
 15:28:53.636,c2:22:89:2b:7b:c3, 2015-01-01 00:44:01.765, 0.026, -0.031, 1.001, 0, 0, 0, -1.736, -1.483, 126.326, 57.134, -41.748, -12.348, 22.35, 0.45151, 0.0047, -0.01935, 0.892,
 15:28:53.667,c2:22:89:2b:7b:c3, 2015-01-01 00:44:01.765, 0.026, -0.03, 1.003, 0, 0, 0, -1.736, -1.483, 126.326, 57.134, -41.748, -12.348, 22.35, 0.45151, 0.0047, -0.01935, 0.892,
 15:28:53.667,c2:22:89:2b:7b:c3, 2015-01-01 00:44:01.765, 0.027, -0.03, 1.002, 0, 0, 0, -1.736, -1.483, 126.326, 57.134, -41.748, -12.348, 22.35, 0.45151, 0.0047, -0.01935, 0.892,
 15:28:53.667,c2:22:89:2b:7b:c3, 2015-01-01 00:44:01.765, 0.023, -0.033, 1.001, 0, 0, 0, -1.736, -1.483, 126.326, 57.134, -41.748, -12.348, 22.35, 0.45151, 0.0047, -0.01935, 0.892,
 15:28:53.667,c2:22:89:2b:7b:c3, 2015-01-01 00:44:01.765, 0.025, -0.028, 1.005, 0, 0, 0, -1.736, -1.483, 126.326, 57.134, -41.748, -12.348, 22.35, 0.45151, 0.0047, -0.01935, 0.892,
 15:28:53.726,c2:22:89:2b:7b:c3, 2015-01-01 00:44:01.765, 0.03, -0.029, 1.003, 0, 0, 0, -1.736, -1.483, 126.326, 57.134, -41.748, -12.348, 22.35, 0.45151, 0.00473, -0.01938, 0.892,
 15:28:53.726,c2:22:89:2b:7b:c3, 2015-01-01 00:44:01.765, 0.027, -0.031, 1.002, 0, 0, 0, -1.736, -1.483, 126.326, 57.134, -41.748, -12.348, 22.35, 0.45151, 0.00473, -0.01938, 0.892,
 15:28:53.726,c2:22:89:2b:7b:c3, 2015-01-01 00:44:01.765, 0.024, -0.031, 1.005, 0, 0, 0, -1.736, -1.483, 126.326, 57.134, -41.748, -12.348, 22.35, 0.45151, 0.00473, -0.01938, 0.892,
 15:28:53.726,c2:22:89:2b:7b:c3, 2015-01-01 00:44:01.765, 0.024, -0.028, 1, 0, 0, 0, -1.736, -1.483, 126.326, 57.134, -41.748, -12.348, 22.35, 0.45151, 0.00473, -0.01938, 0.892,
 15:28:53.816,c2:22:89:2b:7b:c3, 2015-01-01 00:44:02.125, 0.025, -0.031, 1.005, 0, 0, 0, -1.736, -1.483, 126.326, 57.134, -41.748, -12.348, 22.35, 0.45151, 0.00473, -0.01938, 0.892,
 15:28:53.816,c2:22:89:2b:7b:c3, 2015-01-01 00:44:02.125, 0.026, -0.028, 1.002, 0, 0, 0, -1.736, -1.483, 126.326, 57.134, -41.748, -12.348, 22.35, 0.45151, 0.00473, -0.01938, 0.892,
 15:28:53.816,c2:22:89:2b:7b:c3, 2015-01-01 00:44:02.125, 0.026, -0.028, 1.002, 0, 0, 0, -1.736, -1.483, 126.326, 57.134, -41.748, -12.348, 22.35, 0.45151, 0.00473, -0.01938, 0.892,
 15:28:53.816,c2:22:89:2b:7b:c3, 2015-01-01 00:44:02.125, 0.026, -0.03, 1, 0, 0, 0, -1.736, -1.483, 126.326, 57.134, -41.748, -12.348, 22.35, 0.45151, 0.00473, -0.01938, 0.892,
 15:28:53.816,c2:22:89:2b:7b:c3, 2015-01-01 00:44:02.125, 0.025, -0.032, 1.001, 0, 0, 0, -1.736, -1.483, 126.326, 57.134, -41.748, -12.348, 22.35, 0.45151, 0.00473, -0.01938, 0.892,
 15:28:53.816,c2:22:89:2b:7b:c3, 2015-01-01 00:44:02.125, 0.026, -0.031, 1.002, 0, 0, 0, -1.736, -1.483, 126.326, 57.134, -41.748, -12.348, 22.35, 0.45151, 0.00473, -0.01938, 0.892,
 15:28:53.816,c2:22:89:2b:7b:c3, 2015-01-01 00:44:02.125, 0.026, -0.03, 1.003, 0, 0, 0, -1.736, -1.483, 126.326, 57.134, -41.748, -12.348, 22.35, 0.45151, 0.00473, -0.01938, 0.892,
 15:28:53.816,c2:22:89:2b:7b:c3, 2015-01-01 00:44:02.125, 0.023, -0.034, 1.004, 0, 0, 0, -1.736, -1.483, 126.326, 57.134, -41.748, -12.348, 22.35, 0.45151, 0.00473, -0.01938, 0.892,
 15:28:53.845,c2:22:89:2b:7b:c3, 2015-01-01 00:44:02.125, 0.025, -0.03, 1.002, 0, 0, 0, -1.736, -1.483, 126.326, 57.134, -41.748, -12.348, 22.35, 0.45151, 0.00473, -0.01938, 0.892,
 15:28:53.845,c2:22:89:2b:7b:c3, 2015-01-01 00:44:02.125, 0.026, -0.03, 1.002, 0, 0, 0, -1.736, -1.483, 126.326, 57.134, -41.748, -12.348, 22.35, 0.45151, 0.00473, -0.01938, 0.892,
 15:28:53.845,c2:22:89:2b:7b:c3, 2015-01-01 00:44:02.125, 0.025, -0.03, 1.003, 0, 0, 0, -1.736, -1.483, 126.326, 57.134, -41.748, -12.348, 22.35, 0.45151, 0.00473, -0.01938, 0.892,
 15:28:53.845,c2:22:89:2b:7b:c3, 2015-01-01 00:44:02.125, 0.024, -0.032, 1.002, 0, 0, 0, -1.736, -1.483, 126.326, 57.134, -41.748, -12.348, 22.35, 0.45151, 0.00473, -0.01938, 0.892,
 15:28:53.877,c2:22:89:2b:7b:c3, 2015-01-01 00:44:02.125, 0.027, -0.027, 1.001, 0, 0, 0, -1.736, -1.483, 126.326, 57.134, -41.748, -12.348, 22.35, 0.45151, 0.00473, -0.01938, 0.892,
 15:28:53.877,c2:22:89:2b:7b:c3, 2015-01-01 00:44:02.125, 0.027, -0.03, 1.003, 0, 0, 0, -1.736, -1.483, 126.326, 57.134, -41.748, -12.348, 22.35, 0.45151, 0.00473, -0.01938, 0.892,
 15:28:53.877,c2:22:89:2b:7b:c3, 2015-01-01 00:44:02.125, 0.026, -0.03, 1.002, 0, 0, 0, -1.736, -1.483, 126.326, 57.134, -41.748, -12.348, 22.35, 0.45151, 0.00473, -0.01938, 0.892,
 15:28:53.877,c2:22:89:2b:7b:c3, 2015-01-01 00:44:02.125, 0.026, -0.029, 1.001, 0, 0, 0, -1.736, -1.483, 126.326, 57.134, -41.748, -12.348, 22.35, 0.45151, 0.00473, -0.01938, 0.892,
 15:28:53.907,c2:22:89:2b:7b:c3, 2015-01-01 00:44:02.125, 0.027, -0.03, 1.004, 0, 0, 0, -1.736, -1.483, 126.326, 57.134, -41.748, -12.348, 22.35, 0.45151, 0.00473, -0.01938, 0.892,
 15:28:53.907,c2:22:89:2b:7b:c3, 2015-01-01 00:44:02.125, 0.025, -0.032, 1.004, 0, 0, 0, -1.736, -1.483, 126.326, 57.134, -41.748, -12.348, 22.35, 0.45151, 0.00473, -0.01938, 0.892,
 15:28:53.907,c2:22:89:2b:7b:c3, 2015-01-01 00:44:02.125, 0.023, -0.033, 1.002, 0, 0, 0, -1.736, -1.483, 126.326, 57.134, -41.748, -12.348, 22.35, 0.45151, 0.00473, -0.01938, 0.892,
 15:28:53.907,c2:22:89:2b:7b:c3, 2015-01-01 00:44:02.125, 0.027, -0.029, 1.001, 0, 0, 0, -1.736, -1.483, 126.326, 57.134, -41.748, -12.348, 22.35, 0.45151, 0.00473, -0.01938, 0.892,
 15:28:53.997,c2:22:89:2b:7b:c3, 2015-01-01 00:44:02.125, 0.027, -0.03, 1.003, 0, 0, 0, -1.736, -1.483, 126.326, 57.134, -41.748, -12.348, 22.35, 0.45151, 0.00473, -0.01938, 0.892,
 15:28:53.997,c2:22:89:2b:7b:c3, 2015-01-01 00:44:02.125, 0.026, -0.03, 1.004, 0, 0, 0, -1.736, -1.483, 126.326, 57.134, -41.748, -12.348, 22.35, 0.45151, 0.00473, -0.01938, 0.892,
 15:28:53.997,c2:22:89:2b:7b:c3, 2015-01-01 00:44:02.125, 0.026, -0.029, 1.004, 0, 0, 0, -1.736, -1.483, 126.326, 57.134, -41.748, -12.348, 22.35, 0.45151, 0.00473, -0.01938, 0.892,
 15:28:53.997,c2:22:89:2b:7b:c3, 2015-01-01 00:44:02.125, 0.027, -0.03, 1.003, 0, 0, 0, -1.736, -1.483, 126.326, 57.134, -41.748, -12.348, 22.35, 0.45151, 0.00473, -0.01938, 0.892,
 15:28:53.997,c2:22:89:2b:7b:c3, 2015-01-01 00:44:02.125, 0.027, -0.031, 1.002, 0, 0, 0, -1.736, -1.483, 126.326, 57.134, -41.748, -12.348, 22.35, 0.45151, 0.00473, -0.01938, 0.892,
 15:28:53.997,c2:22:89:2b:7b:c3, 2015-01-01 00:44:02.125, 0.025, -0.031, 1.003, 0, 0, 0, -1.736, -1.483, 126.326, 57.134, -41.748, -12.348, 22.35, 0.45151, 0.00473, -0.01938, 0.892,
 15:28:53.997,c2:22:89:2b:7b:c3, 2015-01-01 00:44:02.125, 0.029, -0.029, 1.001, 0, 0, 0, -1.736, -1.483, 126.326, 57.134, -41.748, -12.348, 22.35, 0.45151, 0.00473, -0.01938, 0.892,
 15:28:53.997,c2:22:89:2b:7b:c3, 2015-01-01 00:44:02.125, 0.028, -0.03, 1.002, 0, 0, 0, -1.736, -1.483, 126.326, 57.134, -41.748, -12.348, 22.35, 0.45151, 0.00473, -0.01938, 0.892,
 15:28:54.027,c2:22:89:2b:7b:c3, 2015-01-01 00:44:02.125, 0.025, -0.029, 1.001, 0, 0, 0, -1.736, -1.483, 126.326, 57.232, -41.748, -12.348, 22.35, 0.45151, 0.00473, -0.01938, 0.892,
 15:28:54.027,c2:22:89:2b:7b:c3, 2015-01-01 00:44:02.125, 0.024, -0.029, 1.001, 0, 0, 0, -1.736, -1.483, 126.326, 57.232, -41.748, -12.348, 22.35, 0.45151, 0.00473, -0.01938, 0.892,
 15:28:54.027,c2:22:89:2b:7b:c3, 2015-01-01 00:44:02.125, 0.027, -0.031, 1.003, 0, 0, 0, -1.736, -1.489, 126.326, 57.232, -41.748, -12.348, 22.35, 0.45151, 0.00473, -0.01938, 0.892,
 15:28:54.027,c2:22:89:2b:7b:c3, 2015-01-01 00:44:02.125, 0.025, -0.03, 1, 0, 0, 0, -1.736, -1.489, 126.326, 57.232, -41.748, -12.348, 22.35, 0.45151, 0.00473, -0.01938, 0.892,
 15:28:54.086,c2:22:89:2b:7b:c3, 2015-01-01 00:44:02.125, 0.027, -0.03, 1.001, 0, 0, 0, -1.736, -1.489, 126.326, 57.232, -41.748, -12.348, 22.35, 0.45151, 0.00473, -0.01938, 0.892,
 15:28:54.086,c2:22:89:2b:7b:c3, 2015-01-01 00:44:02.125, 0.026, -0.03, 1.002, 0, 0, 0, -1.736, -1.489, 126.326, 57.232, -41.748, -12.348, 22.35, 0.45151, 0.00473, -0.01938, 0.892,
 15:28:54.086,c2:22:89:2b:7b:c3, 2015-01-01 00:44:02.125, 0.023, -0.033, 1.005, 0, 0, 0, -1.736, -1.489, 126.326, 57.232, -41.748, -12.348, 22.35, 0.45151, 0.00473, -0.01938, 0.892,
 15:28:54.087,c2:22:89:2b:7b:c3, 2015-01-01 00:44:02.125, 0.025, -0.032, 1, 0, 0, 0, -1.736, -1.489, 126.326, 57.232, -41.748, -12.348, 22.35, 0.45151, 0.00473, -0.01938, 0.892,
 15:28:54.116,c2:22:89:2b:7b:c3, 2015-01-01 00:44:02.125, 0.029, -0.028, 1.001, 0, 0, 0, -1.736, -1.489, 126.326, 57.232, -41.748, -12.348, 22.35, 0.45151, 0.00473, -0.01938, 0.892,
 15:28:54.116,c2:22:89:2b:7b:c3, 2015-01-01 00:44:02.125, 0.025, -0.031, 1.004, 0, 0, 0, -1.736, -1.489, 126.326, 57.232, -41.748, -12.348, 22.35, 0.45151, 0.00473, -0.01938, 0.892,
 15:28:54.116,c2:22:89:2b:7b:c3, 2015-01-01 00:44:02.125, 0.026, -0.033, 1.004, 0, 0, 0, -1.736, -1.489, 126.326, 57.232, -41.748, -12.348, 22.35, 0.45151, 0.00473, -0.01938, 0.892,
 15:28:54.116,c2:22:89:2b:7b:c3, 2015-01-01 00:44:02.125, 0.025, -0.028, 1, 0, 0, 0, -1.736, -1.489, 126.326, 57.232, -41.748, -12.348, 22.35, 0.45151, 0.00473, -0.01938, 0.892,
 15:28:54.147,c2:22:89:2b:7b:c3, 2015-01-01 00:44:02.125, 0.027, -0.031, 1.002, 0, 0, 0, -1.736, -1.489, 126.326, 57.232, -41.748, -12.348, 22.35, 0.45151, 0.00473, -0.01938, 0.892,
 15:28:54.147,c2:22:89:2b:7b:c3, 2015-01-01 00:44:02.125, 0.025, -0.032, 1.002, 0, 0, 0, -1.736, -1.489, 126.326, 57.232, -41.748, -12.348, 22.35, 0.45151, 0.00473, -0.01938, 0.892,
 15:28:54.147,c2:22:89:2b:7b:c3, 2015-01-01 00:44:02.125, 0.024, -0.029, 1.002, 0, 0, 0, -1.736, -1.489, 126.326, 57.232, -41.748, -12.348, 22.35, 0.45151, 0.00473, -0.01938, 0.892,
 15:28:54.147,c2:22:89:2b:7b:c3, 2015-01-01 00:44:02.125, 0.024, -0.029, 1.002, 0, 0, 0, -1.736, -1.489, 126.326, 57.232, -41.748, -12.348, 22.35, 0.45151, 0.00473, -0.01938, 0.892,
 15:28:54.205,c2:22:89:2b:7b:c3, 2015-01-01 00:44:02.540, 0.027, -0.033, 1.003, 0, 0, 0, -1.736, -1.489, 126.326, 57.232, -41.748, -12.348, 22.35, 0.45151, 0.00473, -0.01938, 0.892,
 15:28:54.205,c2:22:89:2b:7b:c3, 2015-01-01 00:44:02.540, 0.024, -0.03, 1.002, 0, 0, 0, -1.736, -1.489, 126.326, 57.232, -41.748, -12.348, 22.35, 0.45151, 0.00473, -0.01938, 0.892,
 15:28:54.205,c2:22:89:2b:7b:c3, 2015-01-01 00:44:02.540, 0.029, -0.03, 1.002, 0, 0, 0, -1.736, -1.489, 126.326, 57.232, -41.748, -12.348, 22.35, 0.45151, 0.00473, -0.01938, 0.892,
 15:28:54.205,c2:22:89:2b:7b:c3, 2015-01-01 00:44:02.540, 0.029, -0.034, 1.002, 0, 0, 0, -1.736, -1.489, 126.326, 57.232, -41.748, -12.348, 22.35, 0.45151, 0.00473, -0.01938, 0.892,
 15:28:54.235,c2:22:89:2b:7b:c3, 2015-01-01 00:44:02.540, 0.021, -0.031, 1.003, 0, 0, 0, -1.736, -1.489, 126.326, 57.232, -41.748, -12.348, 22.35, 0.45151, 0.00473, -0.01938, 0.892,
 15:28:54.235,c2:22:89:2b:7b:c3, 2015-01-01 00:44:02.540, 0.027, -0.029, 1, 0, 0, 0, -1.736, -1.489, 126.326, 57.232, -41.748, -12.348, 22.35, 0.45151, 0.00473, -0.01938, 0.892,
 15:28:54.235,c2:22:89:2b:7b:c3, 2015-01-01 00:44:02.540, 0.025, -0.032, 1.002, 0, 0, 0, -1.736, -1.489, 126.326, 57.232, -41.748, -12.348, 22.35, 0.45151, 0.00473, -0.01938, 0.892,
 15:28:54.235,c2:22:89:2b:7b:c3, 2015-01-01 00:44:02.540, 0.025, -0.029, 1.002, 0, 0, 0, -1.736, -1.489, 126.326, 57.232, -41.748, -12.348, 22.35, 0.45151, 0.00473, -0.01938, 0.892,
 15:28:54.266,c2:22:89:2b:7b:c3, 2015-01-01 00:44:02.540, 0.025, -0.028, 1.003, 0, 0, 0, -1.736, -1.489, 126.326, 57.232, -41.748, -12.348, 22.35, 0.45151, 0.00473, -0.01938, 0.892,
 15:28:54.266,c2:22:89:2b:7b:c3, 2015-01-01 00:44:02.540, 0.026, -0.03, 1, 0, 0, 0, -1.736, -1.489, 126.326, 57.232, -41.748, -12.348, 22.35, 0.45151, 0.00473, -0.01938, 0.892,
 15:28:54.266,c2:22:89:2b:7b:c3, 2015-01-01 00:44:02.540, 0.024, -0.032, 1.004, 0, 0, 0, -1.736, -1.489, 126.326, 57.232, -41.748, -12.348, 22.35, 0.45151, 0.00473, -0.01938, 0.892,
 15:28:54.266,c2:22:89:2b:7b:c3, 2015-01-01 00:44:02.540, 0.026, -0.03, 1.004, 0, 0, 0, -1.736, -1.489, 126.326, 57.232, -41.748, -12.348, 22.35, 0.45151, 0.00473, -0.01938, 0.892,
 15:28:54.326,c2:22:89:2b:7b:c3, 2015-01-01 00:44:02.540, 0.024, -0.03, 1.002, 0, 0, 0, -1.736, -1.489, 126.326, 57.232, -41.748, -12.348, 22.35, 0.45151, 0.00473, -0.01938, 0.892,
 15:28:54.327,c2:22:89:2b:7b:c3, 2015-01-01 00:44:02.540, 0.024, -0.031, 1.001, 0, 0, 0, -1.736, -1.489, 126.326, 57.232, -41.748, -12.348, 22.35, 0.45151, 0.00473, -0.01938, 0.892,
 15:28:54.327,c2:22:89:2b:7b:c3, 2015-01-01 00:44:02.540, 0.027, -0.029, 1.002, 0, 0, 0, -1.736, -1.489, 126.326, 57.232, -41.748, -12.348, 22.35, 0.45151, 0.00473, -0.01938, 0.892,
 15:28:54.327,c2:22:89:2b:7b:c3, 2015-01-01 00:44:02.540, 0.026, -0.029, 1, 0, 0, 0, -1.736, -1.483, 126.326, 57.232, -41.748, -12.348, 22.35, 0.45151, 0.00473, -0.01938, 0.892,
 15:28:54.357,c2:22:89:2b:7b:c3, 2015-01-01 00:44:02.540, 0.025, -0.03, 1.003, 0, 0, 0, -1.736, -1.483, 126.326, 57.232, -41.748, -12.348, 22.35, 0.45151, 0.00473, -0.01938, 0.892,
 15:28:54.357,c2:22:89:2b:7b:c3, 2015-01-01 00:44:02.540, 0.025, -0.03, 0.999, 0, 0, 0, -1.736, -1.483, 126.326, 57.232, -41.748, -12.348, 22.35, 0.45151, 0.00473, -0.01938, 0.892,
 15:28:54.357,c2:22:89:2b:7b:c3, 2015-01-01 00:44:02.540, 0.028, -0.027, 1.001, 0, 0, 0, -1.736, -1.483, 126.326, 57.232, -41.748, -12.348, 22.35, 0.45151, 0.00473, -0.01938, 0.892,
 15:28:54.357,c2:22:89:2b:7b:c3, 2015-01-01 00:44:02.540, 0.03, -0.03, 1.002, 0, 0, 0, -1.736, -1.483, 126.326, 57.232, -41.748, -12.348, 22.35, 0.45151, 0.00473, -0.01938, 0.892,
 15:28:54.385,c2:22:89:2b:7b:c3, 2015-01-01 00:44:02.540, 0.025, -0.033, 1.004, 0, 0, 0, -1.736, -1.483, 126.326, 57.330, -41.846, -12.348, 22.35, 0.45151, 0.00473, -0.01938, 0.892,
 15:28:54.385,c2:22:89:2b:7b:c3, 2015-01-01 00:44:02.540, 0.027, -0.029, 1.001, 0, 0, 0, -1.736, -1.483, 126.326, 57.330, -41.846, -12.348, 22.35, 0.45151, 0.00473, -0.01938, 0.892,
 15:28:54.385,c2:22:89:2b:7b:c3, 2015-01-01 00:44:02.540, 0.026, -0.031, 1.001, 0, 0, 0, -1.736, -1.483, 126.326, 57.330, -41.846, -12.348, 22.35, 0.45151, 0.00473, -0.01938, 0.892,
 15:28:54.385,c2:22:89:2b:7b:c3, 2015-01-01 00:44:02.540, 0.024, -0.032, 1.001, 0, 0, 0, -1.736, -1.483, 126.326, 57.330, -41.846, -12.348, 22.35, 0.45151, 0.00473, -0.01938, 0.892,
 15:28:54.445,c2:22:89:2b:7b:c3, 2015-01-01 00:44:02.540, 0.023, -0.03, 1.002, 0, 0, 0, -1.736, -1.483, 126.326, 57.330, -41.846, -12.348, 22.35, 0.45151, 0.00473, -0.01938, 0.892,
 15:28:54.445,c2:22:89:2b:7b:c3, 2015-01-01 00:44:02.540, 0.025, -0.031, 1.001, 0, 0, 0, -1.736, -1.483, 126.326, 57.330, -41.846, -12.348, 22.35, 0.45151, 0.00473, -0.01938, 0.892,
 15:28:54.445,c2:22:89:2b:7b:c3, 2015-01-01 00:44:02.540, 0.026, -0.033, 1.001, 0, 0, 0, -1.736, -1.483, 126.326, 57.330, -41.846, -12.348, 22.35, 0.45151, 0.00473, -0.01938, 0.892,
 15:28:54.445,c2:22:89:2b:7b:c3, 2015-01-01 00:44:02.540, 0.023, -0.034, 1.004, 0, 0, 0, -1.736, -1.483, 126.326, 57.330, -41.846, -12.348, 22.35, 0.45151, 0.00473, -0.01938, 0.892,
 15:28:54.477,c2:22:89:2b:7b:c3, 2015-01-01 00:44:02.540, 0.023, -0.031, 1.003, 0, 0, 0, -1.736, -1.483, 126.326, 57.330, -41.846, -12.348, 22.35, 0.45151, 0.00473, -0.01938, 0.892,
 15:28:54.477,c2:22:89:2b:7b:c3, 2015-01-01 00:44:02.540, 0.026, -0.029, 1.001, 0, 0, 0, -1.736, -1.483, 126.326, 57.330, -41.846, -12.348, 22.35, 0.45151, 0.00473, -0.01938, 0.892,
 15:28:54.477,c2:22:89:2b:7b:c3, 2015-01-01 00:44:02.540, 0.025, -0.031, 1.002, 0, 0, 0, -1.736, -1.483, 126.326, 57.330, -41.846, -12.348, 22.35, 0.45151, 0.00473, -0.01938, 0.892,
 15:28:54.477,c2:22:89:2b:7b:c3, 2015-01-01 00:44:02.540, 0.026, -0.03, 1.004, 0, 0, 0, -1.736, -1.483, 126.326, 57.330, -41.846, -12.348, 22.35, 0.45151, 0.00473, -0.01938, 0.892,
 15:28:54.507,c2:22:89:2b:7b:c3, 2015-01-01 00:44:02.540, 0.026, -0.03, 1.002, 0, 0, 0, -1.736, -1.483, 126.326, 57.330, -41.846, -12.348, 22.35, 0.45151, 0.00473, -0.01938, 0.892,
 15:28:54.507,c2:22:89:2b:7b:c3, 2015-01-01 00:44:02.540, 0.027, -0.031, 1.005, 0, 0, 0, -1.736, -1.483, 126.326, 57.330, -41.846, -12.348, 22.35, 0.45151, 0.00473, -0.01938, 0.892,
 15:28:54.507,c2:22:89:2b:7b:c3, 2015-01-01 00:44:02.540, 0.025, -0.032, 1.001, 0, 0, 0, -1.736, -1.483, 126.326, 57.330, -41.846, -12.348, 22.35, 0.45151, 0.00473, -0.01938, 0.892,
 15:28:54.507,c2:22:89:2b:7b:c3, 2015-01-01 00:44:02.540, 0.026, -0.029, 1.002, 0, 0, 0, -1.736, -1.483, 126.326, 57.330, -41.846, -12.348, 22.35, 0.45151, 0.00473, -0.01938, 0.892,
 15:28:54.566,c2:22:89:2b:7b:c3, 2015-01-01 00:44:02.900, 0.027, -0.028, 1.002, 0, 0, 0, -1.736, -1.483, 126.326, 57.330, -41.846, -12.348, 22.35, 0.45151, 0.00473, -0.01938, 0.892,
 15:28:54.566,c2:22:89:2b:7b:c3, 2015-01-01 00:44:02.900, 0.024, -0.032, 1.002, 0, 0, 0, -1.736, -1.483, 126.326, 57.330, -41.846, -12.348, 22.35, 0.45151, 0.00473, -0.01938, 0.892,
 15:28:54.566,c2:22:89:2b:7b:c3, 2015-01-01 00:44:02.900, 0.025, -0.027, 1.002, 0, 0, 0, -1.736, -1.483, 126.326, 57.330, -41.846, -12.348, 22.35, 0.45151, 0.00473, -0.01938, 0.892,
 15:28:54.566,c2:22:89:2b:7b:c3, 2015-01-01 00:44:02.900, 0.028, -0.03, 1.001, 0, 0, 0, -1.736, -1.483, 126.326, 57.330, -41.846, -12.348, 22.35, 0.45151, 0.00473, -0.01938, 0.892,
 15:28:54.596,c2:22:89:2b:7b:c3, 2015-01-01 00:44:02.900, 0.023, -0.03, 1.002, 0, 0, 0, -1.736, -1.483, 126.326, 57.330, -41.846, -12.348, 22.35, 0.45151, 0.00473, -0.01938, 0.892,
 15:28:54.596,c2:22:89:2b:7b:c3, 2015-01-01 00:44:02.900, 0.026, -0.026, 1.004, 0, 0, 0, -1.736, -1.483, 126.326, 57.330, -41.846, -12.348, 22.35, 0.45151, 0.00473, -0.01938, 0.892,
 15:28:54.596,c2:22:89:2b:7b:c3, 2015-01-01 00:44:02.900, 0.029, -0.031, 1.004, 0, 0, 0, -1.736, -1.483, 126.326, 57.330, -41.846, -12.348, 22.35, 0.45151, 0.00473, -0.01938, 0.892,
 15:28:54.596,c2:22:89:2b:7b:c3, 2015-01-01 00:44:02.900, 0.026, -0.033, 1.002, 0, 0, 0, -1.736, -1.483, 126.326, 57.330, -41.846, -12.348, 22.35, 0.45151, 0.00473, -0.01938, 0.892,
 15:28:54.655,c2:22:89:2b:7b:c3, 2015-01-01 00:44:02.900, 0.024, -0.03, 1, 0, 0, 0, -1.736, -1.483, 126.326, 57.330, -41.846, -12.348, 22.35, 0.45151, 0.00473, -0.01938, 0.892,
 15:28:54.655,c2:22:89:2b:7b:c3, 2015-01-01 00:44:02.900, 0.028, -0.027, 1, 0, 0, 0, -1.736, -1.483, 126.326, 57.330, -41.846, -12.348, 22.35, 0.45151, 0.00473, -0.01938, 0.892,
 15:28:54.655,c2:22:89:2b:7b:c3, 2015-01-01 00:44:02.900, 0.028, -0.03, 1.001, 0, 0, 0, -1.736, -1.483, 126.326, 57.330, -41.846, -12.348, 22.35, 0.45151, 0.00473, -0.01938, 0.892,
 15:28:54.655,c2:22:89:2b:7b:c3, 2015-01-01 00:44:02.900, 0.024, -0.031, 1, 0, 0, 0, -1.736, -1.483, 126.326, 57.330, -41.846, -12.348, 22.35, 0.45151, 0.00473, -0.01938, 0.892,
 15:28:54.686,c2:22:89:2b:7b:c3, 2015-01-01 00:44:02.900, 0.023, -0.032, 1.002, 0, 0, 0, -1.736, -1.483, 126.326, 57.330, -41.846, -12.348, 22.35, 0.45151, 0.00473, -0.01938, 0.892,
 15:28:54.686,c2:22:89:2b:7b:c3, 2015-01-01 00:44:02.900, 0.028, -0.028, 1.001, 0, 0, 0, -1.736, -1.483, 126.326, 57.330, -41.846, -12.348, 22.35, 0.45151, 0.00473, -0.01938, 0.892,
 15:28:54.686,c2:22:89:2b:7b:c3, 2015-01-01 00:44:02.900, 0.025, -0.03, 0.999, 0, 0, 0, -1.736, -1.483, 126.326, 57.330, -41.846, -12.348, 22.35, 0.45151, 0.00473, -0.01938, 0.892,
 15:28:54.686,c2:22:89:2b:7b:c3, 2015-01-01 00:44:02.900, 0.023, -0.031, 1.002, 0, 0, 0, -1.736, -1.483, 126.326, 57.330, -41.846, -12.348, 22.35, 0.45151, 0.00473, -0.01938, 0.892,
 15:28:54.716,c2:22:89:2b:7b:c3, 2015-01-01 00:44:02.900, 0.028, -0.03, 1.003, 0, 0, 0, -1.736, -1.483, 126.326, 57.330, -41.846, -12.348, 22.35, 0.45151, 0.00473, -0.01938, 0.892,
 15:28:54.716,c2:22:89:2b:7b:c3, 2015-01-01 00:44:02.900, 0.029, -0.032, 1.001, 0, 0, 0, -1.736, -1.483, 126.326, 57.330, -41.846, -12.348, 22.35, 0.45151, 0.00473, -0.01938, 0.892,
 15:28:54.716,c2:22:89:2b:7b:c3, 2015-01-01 00:44:02.900, 0.022, -0.03, 1.005, 0, 0, 0, -1.736, -1.483, 126.326, 57.330, -41.846, -12.348, 22.35, 0.45151, 0.00473, -0.01938, 0.892,
 15:28:54.716,c2:22:89:2b:7b:c3, 2015-01-01 00:44:02.900, 0.025, -0.028, 1.001, 0, 0, 0, -1.736, -1.483, 126.326, 57.330, -41.846, -12.348, 22.35, 0.45151, 0.00473, -0.01938, 0.892,
 15:28:54.777,c2:22:89:2b:7b:c3, 2015-01-01 00:44:02.900, 0.027, -0.03, 1.002, 0, 0, 0, -1.736, -1.483, 126.326, 57.134, -41.846, -12.446, 22.35, 0.45151, 0.00473, -0.01938, 0.892,
 15:28:54.778,c2:22:89:2b:7b:c3, 2015-01-01 00:44:02.900, 0.025, -0.032, 1.003, 0, 0, 0, -1.736, -1.483, 126.326, 57.134, -41.846, -12.446, 22.35, 0.45151, 0.00473, -0.01938, 0.892,
 15:28:54.778,c2:22:89:2b:7b:c3, 2015-01-01 00:44:02.900, 0.027, -0.031, 1.003, 0, 0, 0, -1.736, -1.483, 126.326, 57.134, -41.846, -12.446, 22.35, 0.45151, 0.00473, -0.01938, 0.892,
 15:28:54.778,c2:22:89:2b:7b:c3, 2015-01-01 00:44:02.900, 0.025, -0.031, 1.002, 0, 0, 0, -1.736, -1.483, 126.326, 57.134, -41.846, -12.446, 22.35, 0.45151, 0.00473, -0.01938, 0.892,
 15:28:54.806,c2:22:89:2b:7b:c3, 2015-01-01 00:44:02.900, 0.026, -0.031, 1.002, 0, 0, 0, -1.736, -1.483, 126.326, 57.134, -41.846, -12.446, 22.35, 0.45151, 0.0047, -0.01935, 0.892,
 15:28:54.806,c2:22:89:2b:7b:c3, 2015-01-01 00:44:02.900, 0.023, -0.03, 1.003, 0, 0, 0, -1.736, -1.483, 126.326, 57.134, -41.846, -12.446, 22.35, 0.45151, 0.0047, -0.01935, 0.892,
 15:28:54.806,c2:22:89:2b:7b:c3, 2015-01-01 00:44:02.900, 0.028, -0.032, 1.002, 0, 0, 0, -1.736, -1.483, 126.326, 57.134, -41.846, -12.446, 22.35, 0.45151, 0.0047, -0.01935, 0.892,
 15:28:54.806,c2:22:89:2b:7b:c3, 2015-01-01 00:44:02.900, 0.027, -0.03, 1.002, 0, 0, 0, -1.736, -1.483, 126.326, 57.134, -41.846, -12.446, 22.35, 0.45151, 0.0047, -0.01935, 0.892,
 15:28:54.836,c2:22:89:2b:7b:c3, 2015-01-01 00:44:02.900, 0.023, -0.031, 1.003, 0, 0, 0, -1.736, -1.483, 126.326, 57.134, -41.846, -12.446, 22.35, 0.45151, 0.0047, -0.01935, 0.892,
 15:28:54.836,c2:22:89:2b:7b:c3, 2015-01-01 00:44:02.900, 0.027, -0.029, 1.003, 0, 0, 0, -1.736, -1.483, 126.326, 57.134, -41.846, -12.446, 22.35, 0.45151, 0.0047, -0.01935, 0.892,
 15:28:54.836,c2:22:89:2b:7b:c3, 2015-01-01 00:44:02.900, 0.026, -0.03, 1.002, 0, 0, 0, -1.736, -1.483, 126.326, 57.134, -41.846, -12.446, 22.35, 0.45151, 0.0047, -0.01935, 0.892,
 15:28:54.836,c2:22:89:2b:7b:c3, 2015-01-01 00:44:02.900, 0.024, -0.03, 1.002, 0, 0, 0, -1.736, -1.483, 126.326, 57.134, -41.846, -12.446, 22.35, 0.45151, 0.0047, -0.01935, 0.892,
 15:28:54.897,c2:22:89:2b:7b:c3, 2015-01-01 00:44:03.225, 0.025, -0.027, 1.001, 0, 0, 0, -1.736, -1.483, 126.326, 57.134, -41.846, -12.446, 22.35, 0.45151, 0.0047, -0.01935, 0.892,
 15:28:54.897,c2:22:89:2b:7b:c3, 2015-01-01 00:44:03.225, 0.026, -0.032, 0.999, 0, 0, 0, -1.736, -1.483, 126.326, 57.134, -41.846, -12.446, 22.35, 0.45151, 0.0047, -0.01935, 0.892,
 15:28:54.897,c2:22:89:2b:7b:c3, 2015-01-01 00:44:03.225, 0.024, -0.031, 1.002, 0, 0, 0, -1.736, -1.483, 126.326, 57.134, -41.846, -12.446, 22.35, 0.45151, 0.0047, -0.01935, 0.892,
 15:28:54.897,c2:22:89:2b:7b:c3, 2015-01-01 00:44:03.225, 0.023, -0.028, 1.003, 0, 0, 0, -1.736, -1.483, 126.326, 57.134, -41.846, -12.446, 22.35, 0.45151, 0.0047, -0.01935, 0.892,
 15:28:54.926,c2:22:89:2b:7b:c3, 2015-01-01 00:44:03.225, 0.029, -0.031, 1, 0, 0, 0, -1.736, -1.483, 126.326, 57.134, -41.846, -12.446, 22.35, 0.45151, 0.0047, -0.01935, 0.892,
 15:28:54.926,c2:22:89:2b:7b:c3, 2015-01-01 00:44:03.225, 0.026, -0.035, 1.001, 0, 0, 0, -1.736, -1.483, 126.326, 57.134, -41.846, -12.446, 22.35, 0.45151, 0.0047, -0.01935, 0.892,
 15:28:54.926,c2:22:89:2b:7b:c3, 2015-01-01 00:44:03.225, 0.026, -0.027, 1.003, 0, 0, 0, -1.736, -1.483, 126.326, 57.134, -41.846, -12.446, 22.35, 0.45151, 0.0047, -0.01935, 0.892,
 15:28:54.926,c2:22:89:2b:7b:c3, 2015-01-01 00:44:03.225, 0.026, -0.029, 1.001, 0, 0, 0, -1.736, -1.483, 126.326, 57.134, -41.846, -12.446, 22.35, 0.45151, 0.0047, -0.01935, 0.892,
 15:28:54.956,c2:22:89:2b:7b:c3, 2015-01-01 00:44:03.225, 0.026, -0.032, 1.004, 0, 0, 0, -1.736, -1.483, 126.326, 57.134, -41.846, -12.446, 22.35, 0.45151, 0.0047, -0.01935, 0.892,
 15:28:54.956,c2:22:89:2b:7b:c3, 2015-01-01 00:44:03.225, 0.026, -0.032, 1.001, 0, 0, 0, -1.736, -1.483, 126.326, 57.134, -41.846, -12.446, 22.35, 0.45151, 0.0047, -0.01935, 0.892,
 15:28:54.956,c2:22:89:2b:7b:c3, 2015-01-01 00:44:03.225, 0.025, -0.029, 1.002, 0, 0, 0, -1.736, -1.483, 126.326, 57.134, -41.846, -12.446, 22.35, 0.45151, 0.0047, -0.01935, 0.892,
 15:28:54.956,c2:22:89:2b:7b:c3, 2015-01-01 00:44:03.225, 0.028, -0.029, 1.001, 0, 0, 0, -1.73, -1.483, 126.326, 57.134, -41.846, -12.446, 22.35, 0.45151, 0.0047, -0.01935, 0.892,
 15:28:55.017,c2:22:89:2b:7b:c3, 2015-01-01 00:44:03.225, 0.027, -0.031, 1.005, 0, 0, 0, -1.73, -1.483, 126.326, 57.134, -41.846, -12.446, 22.35, 0.45151, 0.0047, -0.01935, 0.892,
 15:28:55.017,c2:22:89:2b:7b:c3, 2015-01-01 00:44:03.225, 0.025, -0.03, 1.002, 0, 0, 0, -1.73, -1.483, 126.326, 57.134, -41.846, -12.446, 22.35, 0.45151, 0.0047, -0.01935, 0.892,
 15:28:55.017,c2:22:89:2b:7b:c3, 2015-01-01 00:44:03.225, 0.026, -0.031, 1, 0, 0, 0, -1.73, -1.483, 126.326, 57.134, -41.846, -12.446, 22.35, 0.45151, 0.0047, -0.01935, 0.892,
 15:28:55.017,c2:22:89:2b:7b:c3, 2015-01-01 00:44:03.225, 0.023, -0.032, 1.003, 0, 0, 0, -1.73, -1.483, 126.326, 57.134, -41.846, -12.446, 22.35, 0.45151, 0.0047, -0.01935, 0.892,
 15:28:55.047,c2:22:89:2b:7b:c3, 2015-01-01 00:44:03.225, 0.023, -0.03, 1.001, 0, 0, 0, -1.73, -1.483, 126.326, 57.134, -41.846, -12.446, 22.35, 0.45151, 0.0047, -0.01935, 0.892,
 15:28:55.047,c2:22:89:2b:7b:c3, 2015-01-01 00:44:03.225, 0.027, -0.029, 1.004, 0, 0, 0, -1.73, -1.483, 126.326, 57.134, -41.846, -12.446, 22.35, 0.45151, 0.0047, -0.01935, 0.892,
 15:28:55.047,c2:22:89:2b:7b:c3, 2015-01-01 00:44:03.225, 0.026, -0.031, 1, 0, 0, 0, -1.73, -1.483, 126.326, 57.134, -41.846, -12.446, 22.35, 0.45151, 0.0047, -0.01935, 0.892,
 15:28:55.047,c2:22:89:2b:7b:c3, 2015-01-01 00:44:03.225, 0.025, -0.032, 1.003, 0, 0, 0, -1.73, -1.483, 126.326, 57.134, -41.846, -12.446, 22.35, 0.45151, 0.0047, -0.01935, 0.892,
 15:28:55.136,c2:22:89:2b:7b:c3, 2015-01-01 00:44:03.225, 0.025, -0.026, 1.003, 0, 0, 0, -1.73, -1.483, 126.326, 57.134, -41.846, -12.348, 22.35, 0.45151, 0.0047, -0.01935, 0.892,
 15:28:55.136,c2:22:89:2b:7b:c3, 2015-01-01 00:44:03.225, 0.027, -0.031, 1, 0, 0, 0, -1.73, -1.483, 126.326, 57.134, -41.846, -12.348, 22.35, 0.45151, 0.0047, -0.01935, 0.892,
 15:28:55.136,c2:22:89:2b:7b:c3, 2015-01-01 00:44:03.225, 0.026, -0.031, 1.001, 0, 0, 0, -1.73, -1.483, 126.326, 57.134, -41.846, -12.348, 22.35, 0.45151, 0.0047, -0.01935, 0.892,
 15:28:55.136,c2:22:89:2b:7b:c3, 2015-01-01 00:44:03.225, 0.025, -0.03, 1.003, 0, 0, 0, -1.73, -1.483, 126.326, 57.134, -41.846, -12.348, 22.35, 0.45151, 0.0047, -0.01935, 0.892,
 15:28:55.136,c2:22:89:2b:7b:c3, 2015-01-01 00:44:03.225, 0.026, -0.03, 1.001, 0, 0, 0, -1.73, -1.483, 126.326, 57.134, -41.846, -12.348, 22.35, 0.45151, 0.0047, -0.01935, 0.892,
 15:28:55.136,c2:22:89:2b:7b:c3, 2015-01-01 00:44:03.225, 0.026, -0.03, 1.001, 0, 0, 0, -1.73, -1.483, 126.326, 57.134, -41.846, -12.348, 22.35, 0.45151, 0.0047, -0.01935, 0.892,
 15:28:55.136,c2:22:89:2b:7b:c3, 2015-01-01 00:44:03.225, 0.027, -0.031, 1.002, 0, 0, 0, -1.73, -1.483, 126.326, 57.134, -41.846, -12.348, 22.35, 0.45151, 0.0047, -0.01935, 0.892,
 15:28:55.136,c2:22:89:2b:7b:c3, 2015-01-01 00:44:03.225, 0.025, -0.031, 1.002, 0, 0, 0, -1.73, -1.483, 126.326, 57.134, -41.846, -12.348, 22.35, 0.45151, 0.0047, -0.01935, 0.892,
 15:28:55.167,c2:22:89:2b:7b:c3, 2015-01-01 00:44:03.225, 0.026, -0.032, 1.002, 0, 0, 0, -1.73, -1.483, 126.326, 57.134, -41.846, -12.348, 22.35, 0.45151, 0.0047, -0.01935, 0.892,
 15:28:55.167,c2:22:89:2b:7b:c3, 2015-01-01 00:44:03.225, 0.025, -0.03, 1.002, 0, 0, 0, -1.73, -1.483, 126.326, 57.134, -41.846, -12.348, 22.35, 0.45151, 0.0047, -0.01935, 0.892,
 15:28:55.167,c2:22:89:2b:7b:c3, 2015-01-01 00:44:03.225, 0.024, -0.028, 1.004, 0, 0, 0, -1.73, -1.483, 126.326, 57.134, -41.846, -12.348, 22.35, 0.45151, 0.0047, -0.01935, 0.892,
 15:28:55.167,c2:22:89:2b:7b:c3, 2015-01-01 00:44:03.225, 0.027, -0.031, 1.002, 0, 0, 0, -1.73, -1.483, 126.326, 57.134, -41.846, -12.348, 22.35, 0.45151, 0.0047, -0.01935, 0.892,
 15:28:55.196,c2:22:89:2b:7b:c3, 2015-01-01 00:44:03.225, 0.026, -0.03, 1, 0, 0, 0, -1.73, -1.483, 126.326, 57.134, -41.846, -12.348, 22.35, 0.45151, 0.0047, -0.01935, 0.892,
 15:28:55.196,c2:22:89:2b:7b:c3, 2015-01-01 00:44:03.225, 0.025, -0.029, 1.002, 0, 0, 0, -1.73, -1.483, 126.326, 57.134, -41.846, -12.348, 22.35, 0.45151, 0.0047, -0.01935, 0.892,
 15:28:55.196,c2:22:89:2b:7b:c3, 2015-01-01 00:44:03.225, 0.027, -0.03, 1.002, 0, 0, 0, -1.73, -1.483, 126.326, 57.134, -41.846, -12.348, 22.35, 0.45151, 0.0047, -0.01935, 0.892,
 15:28:55.196,c2:22:89:2b:7b:c3, 2015-01-01 00:44:03.225, 0.026, -0.033, 0.999, 0, 0, 0, -1.73, -1.483, 126.326, 57.134, -41.846, -12.348, 22.35, 0.45151, 0.0047, -0.01935, 0.892,
 15:28:55.256,c2:22:89:2b:7b:c3, 2015-01-01 00:44:03.585, 0.025, -0.032, 1.001, 0, 0, 0, -1.73, -1.478, 126.326, 57.134, -41.846, -12.348, 22.35, 0.45151, 0.0047, -0.01935, 0.892,
 15:28:55.256,c2:22:89:2b:7b:c3, 2015-01-01 00:44:03.585, 0.026, -0.03, 1.004, 0, 0, 0, -1.73, -1.478, 126.326, 57.134, -41.846, -12.348, 22.35, 0.45151, 0.0047, -0.01935, 0.892,
 15:28:55.256,c2:22:89:2b:7b:c3, 2015-01-01 00:44:03.585, 0.027, -0.032, 1.002, 0, 0, 0, -1.73, -1.478, 126.326, 57.134, -41.846, -12.348, 22.35, 0.45151, 0.0047, -0.01935, 0.892,
 15:28:55.256,c2:22:89:2b:7b:c3, 2015-01-01 00:44:03.585, 0.026, -0.03, 1.004, 0, 0, 0, -1.73, -1.478, 126.326, 57.134, -41.846, -12.348, 22.35, 0.45151, 0.0047, -0.01935, 0.892,
 15:28:55.285,c2:22:89:2b:7b:c3, 2015-01-01 00:44:03.585, 0.024, -0.03, 1.002, 0, 0, 0, -1.73, -1.478, 126.326, 57.134, -41.846, -12.348, 22.35, 0.45151, 0.0047, -0.01935, 0.892,
 15:28:55.285,c2:22:89:2b:7b:c3, 2015-01-01 00:44:03.585, 0.026, -0.031, 1.005, 0, 0, 0, -1.73, -1.478, 126.326, 57.134, -41.846, -12.348, 22.35, 0.45151, 0.0047, -0.01935, 0.892,
 15:28:55.285,c2:22:89:2b:7b:c3, 2015-01-01 00:44:03.585, 0.026, -0.031, 1.005, 0, 0, 0, -1.73, -1.478, 126.326, 57.134, -41.846, -12.348, 22.35, 0.45151, 0.0047, -0.01935, 0.892,
 15:28:55.285,c2:22:89:2b:7b:c3, 2015-01-01 00:44:03.585, 0.024, -0.031, 1.003, 0, 0, 0, -1.73, -1.478, 126.326, 57.134, -41.846, -12.348, 22.35, 0.45151, 0.0047, -0.01935, 0.892,
 15:28:55.316,c2:22:89:2b:7b:c3, 2015-01-01 00:44:03.585, 0.025, -0.03, 1.004, 0, 0, 0, -1.73, -1.478, 126.326, 57.134, -41.846, -12.348, 22.35, 0.45151, 0.0047, -0.01935, 0.892,
 15:28:55.316,c2:22:89:2b:7b:c3, 2015-01-01 00:44:03.585, 0.026, -0.032, 1.002, 0, 0, 0, -1.73, -1.478, 126.326, 57.134, -41.846, -12.348, 22.35, 0.45151, 0.0047, -0.01935, 0.892,
 15:28:55.316,c2:22:89:2b:7b:c3, 2015-01-01 00:44:03.585, 0.026, -0.031, 1.001, 0, 0, 0, -1.73, -1.478, 126.326, 57.134, -41.846, -12.348, 22.35, 0.45151, 0.0047, -0.01935, 0.892,
 15:28:55.316,c2:22:89:2b:7b:c3, 2015-01-01 00:44:03.585, 0.024, -0.028, 1.002, 0, 0, 0, -1.73, -1.478, 126.326, 57.134, -41.846, -12.348, 22.35, 0.45151, 0.0047, -0.01935, 0.892,
 15:28:55.377,c2:22:89:2b:7b:c3, 2015-01-01 00:44:03.585, 0.025, -0.028, 1.004, 0, 0, 0, -1.73, -1.478, 126.326, 57.134, -41.846, -12.348, 22.35, 0.45151, 0.0047, -0.01935, 0.892,
 15:28:55.377,c2:22:89:2b:7b:c3, 2015-01-01 00:44:03.585, 0.027, -0.032, 1.003, 0, 0, 0, -1.73, -1.483, 126.326, 57.134, -41.846, -12.348, 22.35, 0.45151, 0.0047, -0.01935, 0.892,
 15:28:55.377,c2:22:89:2b:7b:c3, 2015-01-01 00:44:03.585, 0.026, -0.028, 1.002, 0, 0, 0, -1.73, -1.483, 126.326, 57.134, -41.846, -12.348, 22.35, 0.45151, 0.0047, -0.01935, 0.892,
 15:28:55.377,c2:22:89:2b:7b:c3, 2015-01-01 00:44:03.585, 0.028, -0.032, 1.001, 0, 0, 0, -1.73, -1.483, 126.326, 57.134, -41.846, -12.348, 22.35, 0.45151, 0.0047, -0.01935, 0.892,
 15:28:55.407,c2:22:89:2b:7b:c3, 2015-01-01 00:44:03.585, 0.025, -0.029, 1.001, 0, 0, 0, -1.73, -1.483, 126.326, 57.134, -41.846, -12.348, 22.35, 0.45151, 0.0047, -0.01935, 0.892,
 15:28:55.407,c2:22:89:2b:7b:c3, 2015-01-01 00:44:03.585, 0.026, -0.027, 1.002, 0, 0, 0, -1.73, -1.483, 126.326, 57.134, -41.846, -12.348, 22.35, 0.45151, 0.0047, -0.01935, 0.892,
 15:28:55.407,c2:22:89:2b:7b:c3, 2015-01-01 00:44:03.585, 0.027, -0.028, 1.002, 0, 0, 0, -1.73, -1.483, 126.326, 57.134, -41.846, -12.348, 22.35, 0.45151, 0.0047, -0.01935, 0.892,
 15:28:55.407,c2:22:89:2b:7b:c3, 2015-01-01 00:44:03.585, 0.026, -0.03, 0.999, 0, 0, 0, -1.73, -1.483, 126.326, 57.134, -41.846, -12.348, 22.35, 0.45151, 0.0047, -0.01935, 0.892,
 15:28:55.435,c2:22:89:2b:7b:c3, 2015-01-01 00:44:03.585, 0.025, -0.029, 1.004, 0, 0, 0, -1.73, -1.483, 126.326, 57.134, -41.748, -12.348, 22.35, 0.45151, 0.0047, -0.01935, 0.892,
 15:28:55.435,c2:22:89:2b:7b:c3, 2015-01-01 00:44:03.585, 0.025, -0.031, 1.003, 0, 0, 0, -1.73, -1.483, 126.326, 57.134, -41.748, -12.348, 22.35, 0.45151, 0.0047, -0.01935, 0.892,
 15:28:55.435,c2:22:89:2b:7b:c3, 2015-01-01 00:44:03.585, 0.024, -0.029, 1.001, 0, 0, 0, -1.73, -1.483, 126.326, 57.134, -41.748, -12.348, 22.35, 0.45151, 0.0047, -0.01935, 0.892,
 15:28:55.435,c2:22:89:2b:7b:c3, 2015-01-01 00:44:03.585, 0.026, -0.032, 1, 0, 0, 0, -1.73, -1.483, 126.326, 57.134, -41.748, -12.348, 22.35, 0.45151, 0.0047, -0.01935, 0.892,
 15:28:55.497,c2:22:89:2b:7b:c3, 2015-01-01 00:44:03.585, 0.028, -0.028, 1.001, 0, 0, 0, -1.73, -1.483, 126.326, 57.134, -41.748, -12.348, 22.35, 0.45151, 0.0047, -0.01935, 0.892,
 15:28:55.497,c2:22:89:2b:7b:c3, 2015-01-01 00:44:03.585, 0.029, -0.031, 1, 0, 0, 0, -1.73, -1.483, 126.326, 57.134, -41.748, -12.348, 22.35, 0.45151, 0.0047, -0.01935, 0.892,
 15:28:55.497,c2:22:89:2b:7b:c3, 2015-01-01 00:44:03.585, 0.023, -0.031, 1.002, 0, 0, 0, -1.73, -1.483, 126.326, 57.134, -41.748, -12.348, 22.35, 0.45151, 0.0047, -0.01935, 0.892,
 15:28:55.497,c2:22:89:2b:7b:c3, 2015-01-01 00:44:03.585, 0.024, -0.028, 1.002, 0, 0, 0, -1.73, -1.483, 126.326, 57.134, -41.748, -12.348, 22.35, 0.45151, 0.0047, -0.01935, 0.892,
 15:28:55.527,c2:22:89:2b:7b:c3, 2015-01-01 00:44:03.585, 0.025, -0.029, 1.003, 0, 0, 0, -1.73, -1.483, 126.326, 57.134, -41.748, -12.348, 22.35, 0.45151, 0.0047, -0.01935, 0.892,
 15:28:55.527,c2:22:89:2b:7b:c3, 2015-01-01 00:44:03.585, 0.026, -0.034, 1.003, 0, 0, 0, -1.73, -1.483, 126.326, 57.134, -41.748, -12.348, 22.35, 0.45151, 0.0047, -0.01935, 0.892,
 15:28:55.527,c2:22:89:2b:7b:c3, 2015-01-01 00:44:03.585, 0.025, -0.03, 1.002, 0, 0, 0, -1.73, -1.483, 126.326, 57.134, -41.748, -12.348, 22.35, 0.45151, 0.0047, -0.01935, 0.892,
 15:28:55.527,c2:22:89:2b:7b:c3, 2015-01-01 00:44:03.585, 0.027, -0.028, 1, 0, 0, 0, -1.73, -1.483, 126.326, 57.134, -41.748, -12.348, 22.35, 0.45151, 0.0047, -0.01935, 0.892,
 15:28:55.557,c2:22:89:2b:7b:c3, 2015-01-01 00:44:03.585, 0.024, -0.03, 1.003, 0, 0, 0, -1.73, -1.483, 126.326, 57.134, -41.748, -12.348, 22.35, 0.45151, 0.0047, -0.01935, 0.892,
 15:28:55.557,c2:22:89:2b:7b:c3, 2015-01-01 00:44:03.585, 0.025, -0.032, 1.002, 0, 0, 0, -1.73, -1.483, 126.326, 57.134, -41.748, -12.348, 22.35, 0.45151, 0.0047, -0.01935, 0.892,
 15:28:55.557,c2:22:89:2b:7b:c3, 2015-01-01 00:44:03.585, 0.024, -0.031, 1.002, 0, 0, 0, -1.73, -1.483, 126.326, 57.134, -41.748, -12.348, 22.35, 0.45151, 0.0047, -0.01935, 0.892,
 15:28:55.557,c2:22:89:2b:7b:c3, 2015-01-01 00:44:03.585, 0.026, -0.03, 1.003, 0, 0, 0, -1.73, -1.483, 126.326, 57.134, -41.748, -12.348, 22.35, 0.45151, 0.0047, -0.01935, 0.892,
 15:28:55.616,c2:22:89:2b:7b:c3, 2015-01-01 00:44:03.940, 0.026, -0.034, 1.003, 0, 0, 0, -1.73, -1.483, 126.326, 57.134, -41.748, -12.348, 22.35, 0.45151, 0.0047, -0.01935, 0.892,
 15:28:55.616,c2:22:89:2b:7b:c3, 2015-01-01 00:44:03.940, 0.025, -0.03, 1.003, 0, 0, 0, -1.73, -1.483, 126.326, 57.134, -41.748, -12.348, 22.35, 0.45151, 0.0047, -0.01935, 0.892,
 15:28:55.616,c2:22:89:2b:7b:c3, 2015-01-01 00:44:03.940, 0.027, -0.027, 1.001, 0, 0, 0, -1.73, -1.483, 126.326, 57.134, -41.748, -12.348, 22.35, 0.45151, 0.0047, -0.01935, 0.892,
 15:28:55.616,c2:22:89:2b:7b:c3, 2015-01-01 00:44:03.940, 0.024, -0.031, 1, 0, 0, 0, -1.73, -1.483, 126.326, 57.134, -41.748, -12.348, 22.35, 0.45151, 0.0047, -0.01935, 0.892,
 15:28:55.647,c2:22:89:2b:7b:c3, 2015-01-01 00:44:03.940, 0.025, -0.03, 1.002, 0, 0, 0, -1.73, -1.483, 126.326, 57.134, -41.748, -12.348, 22.35, 0.45151, 0.0047, -0.01935, 0.892,
 15:28:55.647,c2:22:89:2b:7b:c3, 2015-01-01 00:44:03.940, 0.026, -0.029, 1.002, 0, 0, 0, -1.73, -1.483, 126.326, 57.134, -41.748, -12.348, 22.35, 0.45151, 0.0047, -0.01935, 0.892,
 15:28:55.647,c2:22:89:2b:7b:c3, 2015-01-01 00:44:03.940, 0.024, -0.03, 1.003, 0, 0, 0, -1.73, -1.483, 126.326, 57.134, -41.748, -12.348, 22.35, 0.45151, 0.0047, -0.01935, 0.892,
 15:28:55.647,c2:22:89:2b:7b:c3, 2015-01-01 00:44:03.940, 0.025, -0.03, 1.001, 0, 0, 0, -1.73, -1.483, 126.326, 57.134, -41.748, -12.348, 22.35, 0.45151, 0.0047, -0.01935, 0.892,
 15:28:55.675,c2:22:89:2b:7b:c3, 2015-01-01 00:44:03.940, 0.027, -0.029, 1.002, 0, 0, 0, -1.73, -1.483, 126.326, 57.134, -41.748, -12.348, 22.35, 0.45151, 0.0047, -0.01935, 0.892,
 15:28:55.675,c2:22:89:2b:7b:c3, 2015-01-01 00:44:03.940, 0.024, -0.031, 1.002, 0, 0, 0, -1.73, -1.483, 126.326, 57.134, -41.748, -12.348, 22.35, 0.45151, 0.0047, -0.01935, 0.892,
 15:28:55.675,c2:22:89:2b:7b:c3, 2015-01-01 00:44:03.940, 0.023, -0.03, 1.004, 0, 0, 0, -1.73, -1.483, 126.326, 57.134, -41.748, -12.348, 22.35, 0.45151, 0.0047, -0.01935, 0.892,
 15:28:55.675,c2:22:89:2b:7b:c3, 2015-01-01 00:44:03.940, 0.026, -0.03, 1.001, 0, 0, 0, -1.73, -1.483, 126.326, 57.134, -41.748, -12.348, 22.35, 0.45151, 0.0047, -0.01935, 0.892,
 15:28:55.737,c2:22:89:2b:7b:c3, 2015-01-01 00:44:03.940, 0.03, -0.029, 1.003, 0, 0, 0, -1.73, -1.483, 126.326, 57.134, -41.748, -12.348, 22.35, 0.45151, 0.0047, -0.01935, 0.892,
 15:28:55.737,c2:22:89:2b:7b:c3, 2015-01-01 00:44:03.940, 0.024, -0.03, 1.003, 0, 0, 0, -1.73, -1.483, 126.326, 57.134, -41.748, -12.348, 22.35, 0.45151, 0.0047, -0.01935, 0.892,
 15:28:55.737,c2:22:89:2b:7b:c3, 2015-01-01 00:44:03.940, 0.024, -0.028, 1.001, 0, 0, 0, -1.73, -1.483, 126.326, 57.134, -41.748, -12.348, 22.35, 0.45151, 0.0047, -0.01935, 0.892,
 15:28:55.737,c2:22:89:2b:7b:c3, 2015-01-01 00:44:03.940, 0.028, -0.027, 1.002, 0, 0, 0, -1.73, -1.483, 126.326, 57.134, -41.748, -12.348, 22.35, 0.45151, 0.0047, -0.01935, 0.892,
 15:28:55.766,c2:22:89:2b:7b:c3, 2015-01-01 00:44:03.940, 0.025, -0.033, 1.003, 0, 0, 0, -1.73, -1.478, 126.326, 57.134, -41.748, -12.348, 22.35, 0.45151, 0.0047, -0.01935, 0.892,
 15:28:55.766,c2:22:89:2b:7b:c3, 2015-01-01 00:44:03.940, 0.022, -0.032, 1.003, 0, 0, 0, -1.73, -1.478, 126.326, 57.134, -41.748, -12.348, 22.35, 0.45151, 0.0047, -0.01935, 0.892,
 15:28:55.766,c2:22:89:2b:7b:c3, 2015-01-01 00:44:03.940, 0.025, -0.026, 1.001, 0, 0, 0, -1.73, -1.478, 126.326, 57.134, -41.748, -12.348, 22.35, 0.45151, 0.0047, -0.01935, 0.892,
 15:28:55.766,c2:22:89:2b:7b:c3, 2015-01-01 00:44:03.940, 0.027, -0.031, 1.003, 0, 0, 0, -1.73, -1.478, 126.326, 57.134, -41.748, -12.348, 22.35, 0.45151, 0.0047, -0.01935, 0.892,
 15:28:55.796,c2:22:89:2b:7b:c3, 2015-01-01 00:44:03.940, 0.024, -0.031, 1.004, 0, 0, 0, -1.73, -1.478, 126.326, 57.134, -41.846, -12.250, 22.35, 0.45151, 0.0047, -0.01935, 0.892,
 15:28:55.796,c2:22:89:2b:7b:c3, 2015-01-01 00:44:03.940, 0.024, -0.032, 1.002, 0, 0, 0, -1.73, -1.478, 126.326, 57.134, -41.846, -12.250, 22.35, 0.45151, 0.0047, -0.01935, 0.892,
 15:28:55.796,c2:22:89:2b:7b:c3, 2015-01-01 00:44:03.940, 0.026, -0.028, 1.005, 0, 0, 0, -1.73, -1.478, 126.326, 57.134, -41.846, -12.250, 22.35, 0.45151, 0.0047, -0.01935, 0.892,
 15:28:55.796,c2:22:89:2b:7b:c3, 2015-01-01 00:44:03.940, 0.039, -0.033, 1.003, -0.61, -0.061, 0, -1.736, -1.478, 126.326, 57.134, -41.846, -12.250, 22.35, 0.45151, 0.0047, -0.01935, 0.892,
 15:28:55.856,c2:22:89:2b:7b:c3, 2015-01-01 00:44:03.940, 0.115, -0.035, 1.013, -2.563, 0.122, 0, -1.747, -1.478, 126.326, 57.134, -41.846, -12.250, 22.35, 0.45151, 0.0047, -0.01935, 0.892,
 15:28:55.856,c2:22:89:2b:7b:c3, 2015-01-01 00:44:03.940, -0.022, -0.153, 0.99, -10.62, 4.639, 0.366, -1.846, -1.456, 126.326, 57.134, -41.846, -12.250, 22.35, 0.45151, 0.0047, -0.01935, 0.892,
 15:28:55.856,c2:22:89:2b:7b:c3, 2015-01-01 00:44:03.940, -0.053, -0.257, 1.011, -7.08, 4.822, 0.549, -1.939, -1.401, 126.332, 57.134, -41.846, -12.250, 22.35, 0.45151, 0.0047, -0.01935, 0.892,
 15:28:55.856,c2:22:89:2b:7b:c3, 2015-01-01 00:44:03.940, -0.125, -0.234, 0.996, 3.479, 0.061, 0.305, -1.939, -1.39, 126.332, 57.134, -41.846, -12.250, 22.35, 0.45151, 0.0047, -0.01935, 0.892,
 15:28:55.886,c2:22:89:2b:7b:c3, 2015-01-01 00:44:03.940, 0.02, -0.049, 0.987, 16.235, -8.179, -0.488, -1.824, -1.439, 126.326, 57.134, -41.846, -12.250, 22.35, 0.45148, 0.00406, -0.02008, 0.892,
 15:28:55.886,c2:22:89:2b:7b:c3, 2015-01-01 00:44:03.940, 0.208, 0.072, 0.979, 17.151, -12.634, -0.977, -1.664, -1.555, 126.326, 57.134, -41.846, -12.250, 22.35, 0.45148, 0.00406, -0.02008, 0.892,
 15:28:55.886,c2:22:89:2b:7b:c3, 2015-01-01 00:44:03.940, -0.007, 0.162, 0.949, -0.305, 0.366, -0.488, -1.637, -1.582, 126.326, 57.134, -41.846, -12.250, 22.35, 0.45148, 0.00406, -0.02008, 0.892,
 15:28:55.886,c2:22:89:2b:7b:c3, 2015-01-01 00:44:03.940, 0.102, 0.064, 0.96, -10.376, 4.7, 0.244, -1.73, -1.533, 126.326, 57.134, -41.846, -12.250, 22.35, 0.45148, 0.00406, -0.02008, 0.892,
 15:28:55.915,c2:22:89:2b:7b:c3, 2015-01-01 00:44:03.940, -0.12, -0.119, 0.984, -19.775, 10.559, 0.671, -1.906, -1.445, 126.332, 57.134, -41.846, -12.250, 22.35, 0.45148, 0.00406, -0.02008, 0.892,
 15:28:55.915,c2:22:89:2b:7b:c3, 2015-01-01 00:44:03.940, -0.012, -0.328, 1.062, -11.414, 4.333, 0.488, -2.06, -1.373, 126.332, 57.134, -41.846, -12.250, 22.35, 0.45148, 0.00406, -0.02008, 0.892,
 15:28:55.915,c2:22:89:2b:7b:c3, 2015-01-01 00:44:03.940, -0.109, -0.243, 0.967, 5.066, -2.258, 0.061, -2.065, -1.384, 126.337, 57.134, -41.846, -12.250, 22.35, 0.45148, 0.00406, -0.02008, 0.892,
 15:28:55.915,c2:22:89:2b:7b:c3, 2015-01-01 00:44:03.940, -0.013, -0.162, 0.945, 14.832, -4.761, -0.488, -1.961, -1.417, 126.337, 57.134, -41.846, -12.250, 22.35, 0.45148, 0.00406, -0.02008, 0.892,
 15:28:55.976,c2:22:89:2b:7b:c3, 2015-01-01 00:44:04.300, 0.269, 0.02, 0.973, 18.494, -11.23, -0.732, -1.802, -1.516, 126.337, 57.134, -41.846, -12.250, 22.35, 0.45148, 0.00406, -0.02008, 0.892,
 15:28:55.976,c2:22:89:2b:7b:c3, 2015-01-01 00:44:04.300, 0.002, 0.183, 1.005, 8.789, -3.784, -0.122, -1.681, -1.593, 126.337, 57.134, -41.846, -12.250, 22.35, 0.45148, 0.00406, -0.02008, 0.892,
 15:28:55.976,c2:22:89:2b:7b:c3, 2015-01-01 00:44:04.300, 0.117, 0.04, 1.076, -11.108, 6.348, 0.427, -1.752, -1.544, 126.337, 57.134, -41.846, -12.250, 22.35, 0.45148, 0.00406, -0.02008, 0.892,
 15:28:55.976,c2:22:89:2b:7b:c3, 2015-01-01 00:44:04.300, -0.079, -0.046, 0.921, -17.761, 6.958, 0.793, -1.912, -1.494, 126.343, 57.134, -41.846, -12.250, 22.35, 0.45148, 0.00406, -0.02008, 0.892,
 15:28:56.006,c2:22:89:2b:7b:c3, 2015-01-01 00:44:04.300, -0.092, -0.264, 1.042, -13.062, 8.972, 0.183, -2.071, -1.401, 126.343, 57.134, -41.846, -12.250, 22.35, 0.45148, 0.00406, -0.02008, 0.892,
 15:28:56.006,c2:22:89:2b:7b:c3, 2015-01-01 00:44:04.300, -0.016, -0.248, 0.939, 1.831, -0.916, -0.183, -2.098, -1.39, 126.343, 57.134, -41.846, -12.250, 22.35, 0.45148, 0.00406, -0.02008, 0.892,
 15:28:56.006,c2:22:89:2b:7b:c3, 2015-01-01 00:44:04.300, 0.001, -0.163, 0.972, 9.46, -4.333, -0.305, -2.038, -1.428, 126.343, 57.134, -41.846, -12.250, 22.35, 0.45148, 0.00406, -0.02008, 0.892,
 15:28:56.006,c2:22:89:2b:7b:c3, 2015-01-01 00:44:04.300, 0.13, -0.047, 1.044, 12.817, -8.545, -0.244, -1.928, -1.5, 126.348, 57.134, -41.846, -12.250, 22.35, 0.45148, 0.00406, -0.02008, 0.892,
 15:28:56.096,c2:22:89:2b:7b:c3, 2015-01-01 00:44:04.300, 0.115, 0.102, 1.036, 11.292, -6.836, -0.244, -1.824, -1.571, 126.348, 57.134, -41.846, -12.250, 22.35, 0.45148, 0.00406, -0.02008, 0.892,
 15:28:56.096,c2:22:89:2b:7b:c3, 2015-01-01 00:44:04.300, 0.077, 0.079, 1.007, -2.014, 3.479, 0.183, -1.818, -1.56, 126.348, 57.134, -41.846, -12.250, 22.35, 0.45148, 0.00406, -0.02008, 0.892,
 15:28:56.096,c2:22:89:2b:7b:c3, 2015-01-01 00:44:04.300, 0.009, -0.005, 0.964, -12.817, 4.395, 0.366, -1.928, -1.522, 126.348, 57.134, -41.846, -12.250, 22.35, 0.45148, 0.00406, -0.02008, 0.892,
 15:28:56.096,c2:22:89:2b:7b:c3, 2015-01-01 00:44:04.300, -0.081, -0.163, 1.023, -14.221, 8.057, 0.61, -2.076, -1.45, 126.348, 57.134, -41.846, -12.250, 22.35, 0.45148, 0.00406, -0.02008, 0.892,
 15:28:56.096,c2:22:89:2b:7b:c3, 2015-01-01 00:44:04.300, -0.037, -0.238, 0.996, -3.113, 2.869, -0.061, -2.153, -1.412, 126.354, 57.134, -41.846, -12.250, 22.35, 0.45148, 0.00406, -0.02008, 0.892,
 15:28:56.096,c2:22:89:2b:7b:c3, 2015-01-01 00:44:04.300, 0.002, -0.16, 0.97, 6.836, -2.869, -0.244, -2.12, -1.423, 126.354, 57.134, -41.846, -12.250, 22.35, 0.45148, 0.00406, -0.02008, 0.892,
 15:28:56.096,c2:22:89:2b:7b:c3, 2015-01-01 00:44:04.300, 0.089, -0.089, 1.021, 9.583, -7.935, 0, -2.043, -1.489, 126.354, 57.134, -41.846, -12.250, 22.35, 0.45148, 0.00406, -0.02008, 0.892,
 15:28:56.096,c2:22:89:2b:7b:c3, 2015-01-01 00:44:04.300, 0.1, -0.008, 1.015, 9.216, -6.531, -0.122, -1.961, -1.56, 126.359, 57.134, -41.846, -12.250, 22.35, 0.45148, 0.00406, -0.02008, 0.892,
 15:28:56.127,c2:22:89:2b:7b:c3, 2015-01-01 00:44:04.300, 0.014, 0.091, 1.004, 4.944, -0.793, -0.183, -1.912, -1.577, 126.359, 57.134, -41.846, -12.250, 22.35, 0.45148, 0.00406, -0.02008, 0.892,
 15:28:56.127,c2:22:89:2b:7b:c3, 2015-01-01 00:44:04.300, 0.049, 0.099, 1, -0.671, 1.16, -0.183, -1.912, -1.566, 126.359, 57.134, -41.846, -12.250, 22.35, 0.45148, 0.00406, -0.02008, 0.892,
 15:28:56.127,c2:22:89:2b:7b:c3, 2015-01-01 00:44:04.300, 0.035, 0.02, 0.96, -5.554, 1.404, 0.244, -1.967, -1.555, 126.359, 57.134, -41.846, -12.250, 22.35, 0.45148, 0.00406, -0.02008, 0.892,
 15:28:56.127,c2:22:89:2b:7b:c3, 2015-01-01 00:44:04.300, 0.026, -0.024, 1.027, -3.723, 0.427, 0.366, -2.005, -1.549, 126.365, 57.134, -41.846, -12.250, 22.35, 0.45148, 0.00406, -0.02008, 0.892,
 15:28:56.187,c2:22:89:2b:7b:c3, 2015-01-01 00:44:04.300, 0.001, -0.032, 1.036, -2.563, 1.831, 0.305, -2.032, -1.533, 126.365, 57.330, -41.846, -12.740, 22.35, 0.45148, 0.00406, -0.02008, 0.892,
 15:28:56.187,c2:22:89:2b:7b:c3, 2015-01-01 00:44:04.300, 0.023, -0.048, 1.007, -1.648, -0.305, 0, -2.049, -1.527, 126.359, 57.330, -41.846, -12.740, 22.35, 0.45148, 0.00406, -0.02008, 0.892,
 15:28:56.187,c2:22:89:2b:7b:c3, 2015-01-01 00:44:04.300, -0.006, -0.077, 0.958, -0.732, -0.061, 0, -2.065, -1.533, 126.365, 57.330, -41.846, -12.740, 22.35, 0.45148, 0.00406, -0.02008, 0.892,
 15:28:56.187,c2:22:89:2b:7b:c3, 2015-01-01 00:44:04.300, 0.008, -0.07, 0.971, 2.563, -0.427, -0.183, -2.054, -1.533, 126.365, 57.330, -41.846, -12.740, 22.35, 0.45148, 0.00406, -0.02008, 0.892,
 15:28:56.216,c2:22:89:2b:7b:c3, 2015-01-01 00:44:04.300, 0.036, 0.002, 1.009, 5.371, -3.296, -0.244, -2.005, -1.56, 126.359, 57.330, -41.846, -12.740, 22.35, 0.45123, 0.00446, -0.02164, 0.89209,
 15:28:56.216,c2:22:89:2b:7b:c3, 2015-01-01 00:44:04.300, 0.095, 0.041, 1.033, 4.028, -4.028, 0.061, -1.961, -1.593, 126.365, 57.330, -41.846, -12.740, 22.35, 0.45123, 0.00446, -0.02164, 0.89209,
 15:28:56.216,c2:22:89:2b:7b:c3, 2015-01-01 00:44:04.300, 0.056, 0.063, 1.023, 1.038, -1.831, 0.122, -1.939, -1.62, 126.365, 57.330, -41.846, -12.740, 22.35, 0.45123, 0.00446, -0.02164, 0.89209,
 15:28:56.216,c2:22:89:2b:7b:c3, 2015-01-01 00:44:04.300, 0.026, 0.039, 1, -2.93, 1.404, 0, -1.95, -1.615, 126.359, 57.330, -41.846, -12.740, 22.35, 0.45123, 0.00446, -0.02164, 0.89209,
 15:28:56.247,c2:22:89:2b:7b:c3, 2015-01-01 00:44:04.300, 0.001, 0, 0.974, -4.883, 2.808, 0, -1.989, -1.588, 126.359, 57.330, -41.846, -12.740, 22.35, 0.45123, 0.00446, -0.02164, 0.89209,
 15:28:56.247,c2:22:89:2b:7b:c3, 2015-01-01 00:44:04.300, 0.013, -0.046, 0.995, -4.15, 1.648, 0, -2.027, -1.571, 126.359, 57.330, -41.846, -12.740, 22.35, 0.45123, 0.00446, -0.02164, 0.89209,
 15:28:56.247,c2:22:89:2b:7b:c3, 2015-01-01 00:44:04.300, -0.001, -0.069, 1.019, -1.465, -0.061, 0.183, -2.049, -1.571, 126.359, 57.330, -41.846, -12.740, 22.35, 0.45123, 0.00446, -0.02164, 0.89209,
 15:28:56.247,c2:22:89:2b:7b:c3, 2015-01-01 00:44:04.300, 0.015, -0.045, 1.028, 3.54, -2.136, 0, -2.021, -1.582, 126.359, 57.330, -41.846, -12.740, 22.35, 0.45123, 0.00446, -0.02164, 0.89209,
 15:28:56.307,c2:22:89:2b:7b:c3, 2015-01-01 00:44:04.625, 0.053, 0.015, 1.016, 5.92, -4.272, -0.183, -1.961, -1.615, 126.359, 57.330, -41.846, -12.740, 22.35, 0.45123, 0.00446, -0.02164, 0.89209,
 15:28:56.307,c2:22:89:2b:7b:c3, 2015-01-01 00:44:04.625, 0.064, 0.058, 0.998, 3.784, -3.418, -0.122, -1.906, -1.653, 126.354, 57.330, -41.846, -12.740, 22.35, 0.45123, 0.00446, -0.02164, 0.89209,
 15:28:56.307,c2:22:89:2b:7b:c3, 2015-01-01 00:44:04.625, 0.052, 0.065, 0.986, -0.122, 0.061, -0.061, -1.89, -1.659, 126.354, 57.330, -41.846, -12.740, 22.35, 0.45123, 0.00446, -0.02164, 0.89209,
 15:28:56.307,c2:22:89:2b:7b:c3, 2015-01-01 00:44:04.625, 0.002, 0.042, 0.988, -4.089, 1.648, 0.244, -1.917, -1.648, 126.354, 57.330, -41.846, -12.740, 22.35, 0.45123, 0.00446, -0.02164, 0.89209,
 15:28:56.336,c2:22:89:2b:7b:c3, 2015-01-01 00:44:04.625, 0.024, 0.004, 1.022, -2.869, 2.075, 0, -1.939, -1.62, 126.354, 57.330, -41.846, -12.740, 22.35, 0.45123, 0.00446, -0.02164, 0.89209,
 15:28:56.336,c2:22:89:2b:7b:c3, 2015-01-01 00:44:04.625, 0.001, -0.026, 1, -2.441, 0.244, 0.183, -1.956, -1.615, 126.348, 57.330, -41.846, -12.740, 22.35, 0.45123, 0.00446, -0.02164, 0.89209,
 15:28:56.337,c2:22:89:2b:7b:c3, 2015-01-01 00:44:04.625, 0.038, -0.041, 1.007, 0.244, -0.916, 0, -1.95, -1.615, 126.348, 57.330, -41.846, -12.740, 22.35, 0.45123, 0.00446, -0.02164, 0.89209,
 15:28:56.337,c2:22:89:2b:7b:c3, 2015-01-01 00:44:04.625, 0.005, -0.03, 0.988, 1.587, -1.16, -0.061, -1.928, -1.631, 126.348, 57.330, -41.846, -12.740, 22.35, 0.45123, 0.00446, -0.02164, 0.89209,
 15:28:56.396,c2:22:89:2b:7b:c3, 2015-01-01 00:44:04.625, 0.049, 0.019, 1.009, 3.54, -1.892, -0.122, -1.884, -1.642, 126.343, 57.330, -41.846, -12.740, 22.35, 0.45123, 0.00446, -0.02164, 0.89209,
 15:28:56.396,c2:22:89:2b:7b:c3, 2015-01-01 00:44:04.625, 0.061, 0.04, 1.009, 2.136, -2.319, -0.061, -1.851, -1.67, 126.343, 57.330, -41.846, -12.740, 22.35, 0.45123, 0.00446, -0.02164, 0.89209,
 15:28:56.396,c2:22:89:2b:7b:c3, 2015-01-01 00:44:04.625, 0.039, 0.021, 1.013, -1.038, -0.122, 0.061, -1.846, -1.675, 126.343, 57.330, -41.846, -12.740, 22.35, 0.45123, 0.00446, -0.02164, 0.89209,
 15:28:56.396,c2:22:89:2b:7b:c3, 2015-01-01 00:44:04.625, 0.02, 0.016, 1.004, -0.916, 0.549, -0.122, -1.84, -1.67, 126.343, 57.330, -41.846, -12.740, 22.35, 0.45123, 0.00446, -0.02164, 0.89209,
 15:28:56.427,c2:22:89:2b:7b:c3, 2015-01-01 00:44:04.625, 0.011, 0.014, 1.001, -1.709, 1.709, 0, -1.846, -1.659, 126.337, 57.330, -41.846, -12.740, 22.35, 0.45123, 0.00446, -0.02164, 0.89209,
 15:28:56.427,c2:22:89:2b:7b:c3, 2015-01-01 00:44:04.625, 0.054, 0.005, 1.011, -1.343, -0.366, 0.122, -1.846, -1.653, 126.337, 57.330, -41.846, -12.740, 22.35, 0.45123, 0.00446, -0.02164, 0.89209,
 15:28:56.427,c2:22:89:2b:7b:c3, 2015-01-01 00:44:04.625, 0.012, -0.032, 1.005, -1.648, 0.122, 0.183, -1.851, -1.659, 126.337, 57.330, -41.846, -12.740, 22.35, 0.45123, 0.00446, -0.02164, 0.89209,
 15:28:56.427,c2:22:89:2b:7b:c3, 2015-01-01 00:44:04.625, -0.001, -0.019, 1.005, 1.953, 0.244, 0, -1.835, -1.653, 126.337, 57.330, -41.846, -12.740, 22.35, 0.45123, 0.00446, -0.02164, 0.89209,
 15:28:56.457,c2:22:89:2b:7b:c3, 2015-01-01 00:44:04.625, 0.047, 0.045, 1.001, 3.723, -1.709, -0.122, -1.785, -1.664, 126.332, 57.330, -41.846, -12.740, 22.35, 0.45123, 0.00446, -0.02164, 0.89209,
 15:28:56.457,c2:22:89:2b:7b:c3, 2015-01-01 00:44:04.625, 0.086, 0.034, 1.011, 0.183, -2.441, 0.061, -1.763, -1.686, 126.332, 57.330, -41.846, -12.740, 22.35, 0.45123, 0.00446, -0.02164, 0.89209,
 15:28:56.457,c2:22:89:2b:7b:c3, 2015-01-01 00:44:04.625, 0.049, 0.006, 1.01, -1.404, 0.122, 0.061, -1.758, -1.697, 126.332, 57.330, -41.846, -12.740, 22.35, 0.45123, 0.00446, -0.02164, 0.89209,
 15:28:56.457,c2:22:89:2b:7b:c3, 2015-01-01 00:44:04.625, -0.035, -0.003, 0.994, -3.296, 4.089, 0.183, -1.774, -1.664, 126.332, 57.330, -41.846, -12.740, 22.35, 0.45123, 0.00446, -0.02164, 0.89209,
 15:28:56.487,c2:22:89:2b:7b:c3, 2015-01-01 00:44:04.625, 0.01, -0.005, 1.014, -1.16, 1.587, 0.061, -1.78, -1.642, 126.332, 57.330, -42.042, -13.426, 22.35, 0.45123, 0.00446, -0.02164, 0.89209,
 15:28:56.487,c2:22:89:2b:7b:c3, 2015-01-01 00:44:04.625, 0.062, -0.012, 1.004, 1.099, -1.892, 0, -1.763, -1.653, 126.326, 57.330, -42.042, -13.426, 22.35, 0.45123, 0.00446, -0.02164, 0.89209,
 15:28:56.487,c2:22:89:2b:7b:c3, 2015-01-01 00:44:04.625, 0.074, -0.022, 1.021, 0.366, -1.709, 0, -1.747, -1.67, 126.326, 57.330, -42.042, -13.426, 22.35, 0.45123, 0.00446, -0.02164, 0.89209,
 15:28:56.487,c2:22:89:2b:7b:c3, 2015-01-01 00:44:04.625, 0.02, -0.033, 1.004, -2.502, 2.197, 0.122, -1.752, -1.659, 126.326, 57.330, -42.042, -13.426, 22.35, 0.45123, 0.00446, -0.02164, 0.89209,
 15:28:56.546,c2:22:89:2b:7b:c3, 2015-01-01 00:44:04.625, -0.041, -0.069, 1, -3.54, 3.174, 0.305, -1.78, -1.631, 126.326, 57.330, -42.042, -13.426, 22.35, 0.45123, 0.00446, -0.02164, 0.89209,
 15:28:56.546,c2:22:89:2b:7b:c3, 2015-01-01 00:44:04.625, -0.087, -0.062, 0.977, 3.357, 0.671, 0, -1.763, -1.62, 126.326, 57.330, -42.042, -13.426, 22.35, 0.45123, 0.00446, -0.02164, 0.89209,
 15:28:56.546,c2:22:89:2b:7b:c3, 2015-01-01 00:44:04.625, 0.19, 0.083, 1.002, 13.672, -7.141, -0.427, -1.642, -1.664, 126.321, 57.330, -42.042, -13.426, 22.35, 0.45123, 0.00446, -0.02164, 0.89209,
 15:28:56.546,c2:22:89:2b:7b:c3, 2015-01-01 00:44:04.625, 0.078, 0.327, 0.998, 12.634, -5.92, -0.61, -1.478, -1.747, 126.315, 57.330, -42.042, -13.426, 22.35, 0.45123, 0.00446, -0.02164, 0.89209,
 15:28:56.606,c2:22:89:2b:7b:c3, 2015-01-01 00:44:04.625, 0.143, 0.198, 1.07, -7.996, 5.188, -0.122, -1.489, -1.708, 126.31, 57.330, -42.042, -13.426, 22.35, 0.45151, 0.00595, -0.01978, 0.89197,
 15:28:56.606,c2:22:89:2b:7b:c3, 2015-01-01 00:44:04.625, 0.037, -0.012, 0.987, -19.287, 3.235, 0.732, -1.631, -1.681, 126.31, 57.330, -42.042, -13.426, 22.35, 0.45151, 0.00595, -0.01978, 0.89197,
 15:28:56.606,c2:22:89:2b:7b:c3, 2015-01-01 00:44:04.625, -0.133, -0.214, 1.031, -16.357, 13, 0.488, -1.796, -1.571, 126.31, 57.330, -42.042, -13.426, 22.35, 0.45151, 0.00595, -0.01978, 0.89197,
 15:28:56.606,c2:22:89:2b:7b:c3, 2015-01-01 00:44:04.625, -0.087, -0.281, 1.002, 0.488, 2.686, 0.061, -1.835, -1.511, 126.31, 57.330, -42.042, -13.426, 22.35, 0.45151, 0.00595, -0.01978, 0.89197,
 15:28:56.606,c2:22:89:2b:7b:c3, 2015-01-01 00:44:04.625, -0.05, -0.074, 1.012, 14.282, -5.371, -0.427, -1.714, -1.544, 126.304, 57.330, -42.042, -13.426, 22.35, 0.45151, 0.00595, -0.01978, 0.89197,
 15:28:56.606,c2:22:89:2b:7b:c3, 2015-01-01 00:44:04.625, 0.337, 0.054, 1.02, 18.982, -13.611, -0.427, -1.527, -1.653, 126.304, 57.330, -42.042, -13.426, 22.35, 0.45151, 0.00595, -0.01978, 0.89197,
 15:28:56.606,c2:22:89:2b:7b:c3, 2015-01-01 00:44:04.625, -0.031, 0.332, 0.924, 12.146, -3.235, -0.427, -1.357, -1.752, 126.299, 57.330, -42.042, -13.426, 22.35, 0.45151, 0.00595, -0.01978, 0.89197,
 15:28:56.606,c2:22:89:2b:7b:c3, 2015-01-01 00:44:04.625, 0.122, 0.154, 1.062, -7.935, 7.568, 0, -1.368, -1.681, 126.293, 57.330, -42.042, -13.426, 22.35, 0.45151, 0.00595, -0.01978, 0.89197,
 15:28:56.666,c2:22:89:2b:7b:c3, 2015-01-01 00:44:04.625, 0.04, 0.104, 0.958, -15.015, 2.563, 0.732, -1.467, -1.659, 126.293, 57.330, -42.042, -13.426, 22.35, 0.45151, 0.00595, -0.01978, 0.89197,
 15:28:56.666,c2:22:89:2b:7b:c3, 2015-01-01 00:44:04.625, -0.058, -0.147, 1.07, -14.893, 7.812, 0.366, -1.609, -1.593, 126.293, 57.330, -42.042, -13.426, 22.35, 0.45151, 0.00595, -0.01978, 0.89197,
 15:28:56.666,c2:22:89:2b:7b:c3, 2015-01-01 00:44:04.625, -0.079, -0.222, 0.992, -3.479, 5.066, 0.183, -1.664, -1.533, 126.293, 57.330, -42.042, -13.426, 22.35, 0.45151, 0.00595, -0.01978, 0.89197,
 15:28:56.666,c2:22:89:2b:7b:c3, 2015-01-01 00:44:04.625, -0.033, -0.107, 0.962, 10.376, -1.953, -0.244, -1.588, -1.538, 126.288, 57.330, -42.042, -13.426, 22.35, 0.45151, 0.00595, -0.01978, 0.89197,
 15:28:56.697,c2:22:89:2b:7b:c3, 2015-01-01 00:44:05.015, 0.224, 0.026, 1.025, 13.184, -8.667, -0.183, -1.45, -1.604, 126.288, 57.330, -42.042, -13.426, 22.35, 0.45151, 0.00595, -0.01978, 0.89197,
 15:28:56.697,c2:22:89:2b:7b:c3, 2015-01-01 00:44:05.015, 0.106, 0.211, 1.107, 9.521, -8.789, -0.366, -1.329, -1.697, 126.288, 57.330, -42.042, -13.426, 22.35, 0.45151, 0.00595, -0.01978, 0.89197,
 15:28:56.697,c2:22:89:2b:7b:c3, 2015-01-01 00:44:05.015, 0.024, 0.193, 1.03, -2.563, 6.714, 0, -1.313, -1.67, 126.282, 57.330, -42.042, -13.426, 22.35, 0.45151, 0.00595, -0.01978, 0.89197,
 15:28:56.697,c2:22:89:2b:7b:c3, 2015-01-01 00:44:05.015, 0.035, 0.09, 0.943, -9.766, 2.93, 0.305, -1.379, -1.62, 126.282, 57.330, -42.042, -13.426, 22.35, 0.45151, 0.00595, -0.01978, 0.89197,
 15:28:56.726,c2:22:89:2b:7b:c3, 2015-01-01 00:44:05.015, -0.011, -0.052, 1.013, -11.658, 6.104, 0.305, -1.478, -1.571, 126.282, 57.330, -42.042, -13.426, 22.35, 0.45151, 0.00595, -0.01978, 0.89197,
 15:28:56.726,c2:22:89:2b:7b:c3, 2015-01-01 00:44:05.015, -0.051, -0.144, 1.008, -5.066, 3.967, 0.427, -1.533, -1.527, 126.277, 57.330, -42.042, -13.426, 22.35, 0.45151, 0.00595, -0.01978, 0.89197,
 15:28:56.726,c2:22:89:2b:7b:c3, 2015-01-01 00:44:05.015, -0.041, -0.11, 0.979, 4.089, 0.793, -0.244, -1.505, -1.511, 126.277, 57.330, -42.042, -13.426, 22.35, 0.45151, 0.00595, -0.01978, 0.89197,
 15:28:56.726,c2:22:89:2b:7b:c3, 2015-01-01 00:44:05.015, 0.041, -0.011, 0.975, 9.155, -4.944, -0.183, -1.417, -1.544, 126.277, 57.330, -42.042, -13.426, 22.35, 0.45151, 0.00595, -0.01978, 0.89197,
 15:28:56.786,c2:22:89:2b:7b:c3, 2015-01-01 00:44:05.015, 0.148, 0.053, 1.001, 10.254, -6.897, -0.061, -1.307, -1.609, 126.277, 57.330, -42.042, -13.426, 22.35, 0.45151, 0.00595, -0.01978, 0.89197,
 15:28:56.786,c2:22:89:2b:7b:c3, 2015-01-01 00:44:05.015, -0.007, 0.125, 0.972, 1.099, 1.343, 0, -1.263, -1.626, 126.271, 57.330, -42.042, -13.426, 22.35, 0.45151, 0.00595, -0.01978, 0.89197,
 15:28:56.786,c2:22:89:2b:7b:c3, 2015-01-01 00:44:05.015, 0.059, 0.079, 0.977, -6.165, 3.479, 0.366, -1.291, -1.588, 126.271, 57.330, -42.042, -13.426, 22.35, 0.45151, 0.00595, -0.01978, 0.89197,
 15:28:56.786,c2:22:89:2b:7b:c3, 2015-01-01 00:44:05.015, -0.01, -0.02, 0.983, -10.559, 4.883, 0.183, -1.379, -1.549, 126.271, 57.330, -42.042, -13.426, 22.35, 0.45151, 0.00595, -0.01978, 0.89197,
 15:28:56.816,c2:22:89:2b:7b:c3, 2015-01-01 00:44:05.015, -0.012, -0.106, 1.036, -4.333, 3.479, -0.122, -1.434, -1.505, 126.271, 57.330, -42.042, -13.426, 22.35, 0.45151, 0.00595, -0.01978, 0.89197,
 15:28:56.816,c2:22:89:2b:7b:c3, 2015-01-01 00:44:05.015, -0.02, -0.073, 1.011, 2.197, 1.16, -0.061, -1.417, -1.489, 126.266, 57.330, -42.042, -13.426, 22.35, 0.45151, 0.00595, -0.01978, 0.89197,
 15:28:56.816,c2:22:89:2b:7b:c3, 2015-01-01 00:44:05.015, 0.045, -0.03, 1.002, 5.981, -3.418, 0, -1.357, -1.511, 126.266, 57.330, -42.042, -13.426, 22.35, 0.45151, 0.00595, -0.01978, 0.89197,
 15:28:56.816,c2:22:89:2b:7b:c3, 2015-01-01 00:44:05.015, 0.144, 0.03, 1.021, 7.69, -6.042, -0.061, -1.274, -1.566, 126.26, 57.330, -42.042, -13.426, 22.35, 0.45151, 0.00595, -0.01978, 0.89197,
 15:28:56.846,c2:22:89:2b:7b:c3, 2015-01-01 00:44:05.015, 0.011, 0.094, 0.992, 2.808, 1.16, 0.061, -1.225, -1.577, 126.26, 57.330, -42.042, -13.426, 22.35, 0.45151, 0.00595, -0.01978, 0.89197,
 15:28:56.846,c2:22:89:2b:7b:c3, 2015-01-01 00:44:05.015, 0.059, 0.109, 1.018, -2.563, 1.831, 0, -1.214, -1.555, 126.255, 57.330, -42.042, -13.426, 22.35, 0.45151, 0.00595, -0.01978, 0.89197,
 15:28:56.846,c2:22:89:2b:7b:c3, 2015-01-01 00:44:05.015, 0.021, 0.031, 0.96, -8.545, 4.272, 0.183, -1.274, -1.527, 126.255, 57.330, -42.042, -13.426, 22.35, 0.45151, 0.00595, -0.01978, 0.89197,
 15:28:56.846,c2:22:89:2b:7b:c3, 2015-01-01 00:44:05.015, 0.02, -0.112, 1.016, -9.705, 4.333, 0.061, -1.357, -1.483, 126.255, 57.330, -42.042, -13.426, 22.35, 0.45151, 0.00595, -0.01978, 0.89197,
 15:28:56.906,c2:22:89:2b:7b:c3, 2015-01-01 00:44:05.015, -0.048, -0.163, 1.009, -5.249, 4.395, 0.061, -1.412, -1.439, 126.255, 57.330, -42.042, -13.426, 22.35, 0.45151, 0.00595, -0.01978, 0.89197,
 15:28:56.906,c2:22:89:2b:7b:c3, 2015-01-01 00:44:05.015, -0.044, -0.153, 1, 1.099, 0.427, 0.122, -1.412, -1.423, 126.255, 57.330, -42.042, -13.426, 22.35, 0.45151, 0.00595, -0.01978, 0.89197,
 15:28:56.906,c2:22:89:2b:7b:c3, 2015-01-01 00:44:05.015, 0.016, -0.065, 0.98, 8.606, -4.395, -0.183, -1.346, -1.456, 126.255, 57.330, -42.042, -13.426, 22.35, 0.45151, 0.00595, -0.01978, 0.89197,
 15:28:56.906,c2:22:89:2b:7b:c3, 2015-01-01 00:44:05.015, 0.178, 0.016, 0.991, 10.803, -7.446, -0.183, -1.241, -1.522, 126.255, 57.330, -42.042, -13.426, 22.35, 0.45151, 0.00595, -0.01978, 0.89197,
 15:28:56.937,c2:22:89:2b:7b:c3, 2015-01-01 00:44:05.015, 0.021, 0.104, 1.03, 4.761, -3.662, -0.183, -1.165, -1.571, 126.249, 57.330, -41.846, -12.838, 22.35, 0.45151, 0.00595, -0.01978, 0.89197,
 15:28:56.937,c2:22:89:2b:7b:c3, 2015-01-01 00:44:05.015, 0.086, 0.115, 1.038, -2.808, 3.723, 0, -1.17, -1.544, 126.249, 57.330, -41.846, -12.838, 22.35, 0.45151, 0.00595, -0.01978, 0.89197,
 15:28:56.937,c2:22:89:2b:7b:c3, 2015-01-01 00:44:05.015, 0.001, 0.02, 0.954, -11.047, 3.967, 0.61, -1.247, -1.511, 126.249, 57.330, -41.846, -12.838, 22.35, 0.45151, 0.00595, -0.01978, 0.89197,
 15:28:56.937,c2:22:89:2b:7b:c3, 2015-01-01 00:44:05.015, -0.008, -0.122, 1.037, -11.108, 5.066, 0.549, -1.357, -1.456, 126.255, 57.330, -41.846, -12.838, 22.35, 0.45151, 0.00595, -0.01978, 0.89197,
 15:28:56.966,c2:22:89:2b:7b:c3, 2015-01-01 00:44:05.015, -0.058, -0.162, 1.006, -3.418, 2.991, 0.183, -1.412, -1.423, 126.255, 57.330, -41.846, -12.838, 22.35, 0.45151, 0.00595, -0.01978, 0.89197,
 15:28:56.966,c2:22:89:2b:7b:c3, 2015-01-01 00:44:05.015, -0.045, -0.121, 0.957, 4.7, 0.488, 0, -1.39, -1.412, 126.255, 57.330, -41.846, -12.838, 22.35, 0.45151, 0.00595, -0.01978, 0.89197,
 15:28:56.966,c2:22:89:2b:7b:c3, 2015-01-01 00:44:05.015, 0.07, -0.038, 0.98, 10.437, -6.775, -0.305, -1.302, -1.461, 126.255, 57.330, -41.846, -12.838, 22.35, 0.45151, 0.00595, -0.01978, 0.89197,
 15:28:56.966,c2:22:89:2b:7b:c3, 2015-01-01 00:44:05.015, 0.138, 0.041, 1.001, 9.216, -7.446, -0.061, -1.208, -1.538, 126.255, 57.330, -41.846, -12.838, 22.35, 0.45151, 0.00595, -0.01978, 0.89197,
 15:28:57.027,c2:22:89:2b:7b:c3, 2015-01-01 00:44:05.015, 0.035, 0.122, 1.002, 2.319, 0.916, 0, -1.17, -1.555, 126.249, 57.330, -41.846, -12.838, 22.35, 0.45203, 0.00623, -0.01593, 0.89178,
 15:28:57.027,c2:22:89:2b:7b:c3, 2015-01-01 00:44:05.015, 0.023, 0.072, 1.008, -6.897, 3.357, 0.366, -1.208, -1.522, 126.249, 57.330, -41.846, -12.838, 22.35, 0.45203, 0.00623, -0.01593, 0.89178,
 15:28:57.027,c2:22:89:2b:7b:c3, 2015-01-01 00:44:05.015, -0.024, -0.045, 0.98, -10.864, 5.676, 0.488, -1.313, -1.472, 126.255, 57.330, -41.846, -12.838, 22.35, 0.45203, 0.00623, -0.01593, 0.89178,
 15:28:57.027,c2:22:89:2b:7b:c3, 2015-01-01 00:44:05.015, -0.033, -0.137, 0.995, -6.165, 2.563, 0.061, -1.384, -1.439, 126.255, 57.330, -41.846, -12.838, 22.35, 0.45203, 0.00623, -0.01593, 0.89178,
 15:28:57.055,c2:22:89:2b:7b:c3, 2015-01-01 00:44:05.400, -0.012, -0.139, 1.021, 0.671, 0, -0.122, -1.395, -1.428, 126.255, 57.330, -41.846, -12.838, 22.35, 0.45203, 0.00623, -0.01593, 0.89178,
 15:28:57.055,c2:22:89:2b:7b:c3, 2015-01-01 00:44:05.400, 0.016, -0.074, 1.004, 6.104, -3.174, -0.366, -1.351, -1.45, 126.255, 57.330, -41.846, -12.838, 22.35, 0.45203, 0.00623, -0.01593, 0.89178,
 15:28:57.055,c2:22:89:2b:7b:c3, 2015-01-01 00:44:05.400, 0.074, -0.012, 0.995, 8.484, -5.371, -0.488, -1.274, -1.505, 126.249, 57.330, -41.846, -12.838, 22.35, 0.45203, 0.00623, -0.01593, 0.89178,
 15:28:57.055,c2:22:89:2b:7b:c3, 2015-01-01 00:44:05.400, 0.072, 0.059, 1.025, 4.883, -3.723, -0.549, -1.219, -1.544, 126.249, 57.330, -41.846, -12.838, 22.35, 0.45203, 0.00623, -0.01593, 0.89178,
 15:28:57.085,c2:22:89:2b:7b:c3, 2015-01-01 00:44:05.400, 0.061, 0.051, 1.008, -2.136, 1.343, 0, -1.225, -1.544, 126.249, 57.330, -41.846, -12.838, 22.35, 0.45203, 0.00623, -0.01593, 0.89178,
 15:28:57.085,c2:22:89:2b:7b:c3, 2015-01-01 00:44:05.400, -0.005, -0.019, 0.995, -6.897, 3.662, 0.122, -1.285, -1.516, 126.255, 57.330, -41.846, -12.838, 22.35, 0.45203, 0.00623, -0.01593, 0.89178,
 15:28:57.085,c2:22:89:2b:7b:c3, 2015-01-01 00:44:05.400, -0.046, -0.069, 1.005, -6.592, 4.822, 0.305, -1.357, -1.472, 126.255, 57.330, -41.846, -12.838, 22.35, 0.45203, 0.00623, -0.01593, 0.89178,
 15:28:57.085,c2:22:89:2b:7b:c3, 2015-01-01 00:44:05.400, 0.022, -0.089, 1.022, -1.282, 0.305, 0.061, -1.384, -1.456, 126.255, 57.330, -41.846, -12.838, 22.35, 0.45203, 0.00623, -0.01593, 0.89178,
 15:28:57.145,c2:22:89:2b:7b:c3, 2015-01-01 00:44:05.400, 0.033, -0.097, 1.011, 1.831, -2.869, 0.061, -1.379, -1.478, 126.255, 57.330, -41.846, -12.838, 22.35, 0.45203, 0.00623, -0.01593, 0.89178,
 15:28:57.145,c2:22:89:2b:7b:c3, 2015-01-01 00:44:05.400, 0.024, -0.079, 0.997, 5.127, -2.869, 0.061, -1.346, -1.511, 126.255, 57.330, -41.846, -12.838, 22.35, 0.45203, 0.00623, -0.01593, 0.89178,
 15:28:57.145,c2:22:89:2b:7b:c3, 2015-01-01 00:44:05.400, 0.017, 0, 0.972, 5.92, -1.648, 0, -1.302, -1.527, 126.255, 57.330, -41.846, -12.838, 22.35, 0.45203, 0.00623, -0.01593, 0.89178,
 15:28:57.145,c2:22:89:2b:7b:c3, 2015-01-01 00:44:05.400, 0.062, 0.031, 0.981, 1.892, -1.77, 0.122, -1.28, -1.544, 126.255, 57.330, -41.846, -12.838, 22.35, 0.45203, 0.00623, -0.01593, 0.89178,
 15:28:57.175,c2:22:89:2b:7b:c3, 2015-01-01 00:44:05.400, 0.049, -0.004, 0.986, -2.502, -0.244, 0.061, -1.302, -1.555, 126.26, 57.330, -41.846, -12.838, 22.35, 0.45203, 0.00623, -0.01593, 0.89178,
 15:28:57.175,c2:22:89:2b:7b:c3, 2015-01-01 00:44:05.400, -0.014, -0.067, 0.975, -4.822, 3.296, -0.122, -1.357, -1.533, 126.26, 57.330, -41.846, -12.838, 22.35, 0.45203, 0.00623, -0.01593, 0.89178,
 15:28:57.175,c2:22:89:2b:7b:c3, 2015-01-01 00:44:05.400, -0.023, -0.095, 0.982, -2.991, 3.296, 0, -1.401, -1.5, 126.26, 57.330, -41.846, -12.838, 22.35, 0.45203, 0.00623, -0.01593, 0.89178,
 15:28:57.175,c2:22:89:2b:7b:c3, 2015-01-01 00:44:05.400, 0.041, -0.092, 1.011, 0.305, -0.916, -0.061, -1.417, -1.5, 126.26, 57.330, -41.846, -12.838, 22.35, 0.45203, 0.00623, -0.01593, 0.89178,
 15:28:57.236,c2:22:89:2b:7b:c3, 2015-01-01 00:44:05.400, 0.06, -0.095, 1.043, 1.953, -3.662, 0.061, -1.406, -1.527, 126.266, 57.330, -41.846, -12.838, 22.35, 0.45203, 0.00623, -0.01593, 0.89178,
 15:28:57.236,c2:22:89:2b:7b:c3, 2015-01-01 00:44:05.400, 0.037, -0.071, 1.031, 3.479, -2.38, 0, -1.384, -1.555, 126.266, 57.330, -41.846, -12.838, 22.35, 0.45203, 0.00623, -0.01593, 0.89178,
 15:28:57.236,c2:22:89:2b:7b:c3, 2015-01-01 00:44:05.400, 0.023, -0.027, 0.986, 2.747, -0.854, 0, -1.362, -1.566, 126.266, 57.330, -41.846, -12.838, 22.35, 0.45203, 0.00623, -0.01593, 0.89178,
 15:28:57.236,c2:22:89:2b:7b:c3, 2015-01-01 00:44:05.400, 0.053, -0.022, 0.967, -0.366, -0.549, -0.122, -1.362, -1.571, 126.266, 57.330, -41.846, -12.838, 22.35, 0.45203, 0.00623, -0.01593, 0.89178,
 15:28:57.266,c2:22:89:2b:7b:c3, 2015-01-01 00:44:05.400, 0.047, -0.056, 0.988, -3.113, -0.061, 0, -1.395, -1.571, 126.266, 57.330, -41.846, -12.838, 22.35, 0.45203, 0.00623, -0.01593, 0.89178,
 15:28:57.266,c2:22:89:2b:7b:c3, 2015-01-01 00:44:05.400, 0, -0.08, 1.018, -3.784, 1.282, 0.183, -1.434, -1.56, 126.266, 57.330, -41.846, -12.838, 22.35, 0.45203, 0.00623, -0.01593, 0.89178,
 15:28:57.266,c2:22:89:2b:7b:c3, 2015-01-01 00:44:05.400, -0.002, -0.082, 1.027, -1.465, 0.854, 0.244, -1.461, -1.549, 126.271, 57.330, -41.846, -12.838, 22.35, 0.45203, 0.00623, -0.01593, 0.89178,
 15:28:57.266,c2:22:89:2b:7b:c3, 2015-01-01 00:44:05.400, 0.021, -0.066, 1.009, 0.488, -1.099, 0.183, -1.467, -1.555, 126.271, 57.330, -41.846, -12.838, 22.35, 0.45203, 0.00623, -0.01593, 0.89178,
 15:28:57.296,c2:22:89:2b:7b:c3, 2015-01-01 00:44:05.400, 0.047, -0.074, 0.994, 1.648, -2.502, -0.305, -1.467, -1.577, 126.271, 57.036, -41.650, -11.662, 22.35, 0.45203, 0.00623, -0.01593, 0.89178,
 15:28:57.296,c2:22:89:2b:7b:c3, 2015-01-01 00:44:05.400, 0.032, -0.081, 0.969, 1.892, -1.099, 0, -1.461, -1.593, 126.271, 57.036, -41.650, -11.662, 22.35, 0.45203, 0.00623, -0.01593, 0.89178,
 15:28:57.296,c2:22:89:2b:7b:c3, 2015-01-01 00:44:05.400, 0.024, -0.035, 1.004, 1.343, -0.793, -0.061, -1.45, -1.599, 126.271, 57.036, -41.650, -11.662, 22.35, 0.45203, 0.00623, -0.01593, 0.89178,
 15:28:57.296,c2:22:89:2b:7b:c3, 2015-01-01 00:44:05.400, 0.055, -0.028, 1.041, -0.183, -0.305, 0.122, -1.461, -1.604, 126.277, 57.036, -41.650, -11.662, 22.35, 0.45203, 0.00623, -0.01593, 0.89178,
 15:28:57.327,c2:22:89:2b:7b:c3, 2015-01-01 00:44:05.400, 0.034, -0.054, 1.034, -2.441, -0.488, 0.122, -1.489, -1.609, 126.277, 57.036, -41.650, -11.662, 22.35, 0.45203, 0.00623, -0.01593, 0.89178,
 15:28:57.327,c2:22:89:2b:7b:c3, 2015-01-01 00:44:05.400, 0.012, -0.094, 1.002, -1.404, 1.404, 0.183, -1.516, -1.599, 126.277, 57.036, -41.650, -11.662, 22.35, 0.45203, 0.00623, -0.01593, 0.89178,
 15:28:57.327,c2:22:89:2b:7b:c3, 2015-01-01 00:44:05.400, -0.02, -0.086, 0.968, -1.404, 0.854, 0.061, -1.544, -1.593, 126.277, 57.036, -41.650, -11.662, 22.35, 0.45203, 0.00623, -0.01593, 0.89178,
 15:28:57.328,c2:22:89:2b:7b:c3, 2015-01-01 00:44:05.400, 0.061, -0.076, 0.998, 1.892, -0.916, -0.244, -1.544, -1.593, 126.277, 57.036, -41.650, -11.662, 22.35, 0.45203, 0.00623, -0.01593, 0.89178,
 15:28:57.386,c2:22:89:2b:7b:c3, 2015-01-01 00:44:05.400, 0.04, -0.077, 1.009, 0.427, -2.441, -0.061, -1.549, -1.615, 126.277, 57.036, -41.650, -11.662, 22.35, 0.45187, 0.00629, -0.01831, 0.89182,
 15:28:57.386,c2:22:89:2b:7b:c3, 2015-01-01 00:44:05.400, 0.032, -0.072, 1.022, 2.136, -0.61, 0, -1.544, -1.626, 126.282, 57.036, -41.650, -11.662, 22.35, 0.45187, 0.00629, -0.01831, 0.89182,
 15:28:57.386,c2:22:89:2b:7b:c3, 2015-01-01 00:44:05.400, 0.034, -0.035, 0.999, 1.831, -0.183, 0.122, -1.544, -1.631, 126.282, 57.036, -41.650, -11.662, 22.35, 0.45187, 0.00629, -0.01831, 0.89182,
 15:28:57.386,c2:22:89:2b:7b:c3, 2015-01-01 00:44:05.400, 0.036, -0.039, 1.001, -1.831, 0.061, 0.061, -1.56, -1.631, 126.282, 57.036, -41.650, -11.662, 22.35, 0.45187, 0.00629, -0.01831, 0.89182,
 15:28:57.416,c2:22:89:2b:7b:c3, 2015-01-01 00:44:05.760, 0.045, -0.078, 1.012, -1.953, -0.061, 0.061, -1.593, -1.631, 126.288, 57.036, -41.650, -11.662, 22.35, 0.45187, 0.00629, -0.01831, 0.89182,
 15:28:57.416,c2:22:89:2b:7b:c3, 2015-01-01 00:44:05.760, -0.009, -0.092, 0.995, -1.831, 1.465, 0.183, -1.62, -1.62, 126.288, 57.036, -41.650, -11.662, 22.35, 0.45187, 0.00629, -0.01831, 0.89182,
 15:28:57.416,c2:22:89:2b:7b:c3, 2015-01-01 00:44:05.760, 0.023, -0.079, 1.004, 0.488, 0.61, 0, -1.637, -1.609, 126.288, 57.036, -41.650, -11.662, 22.35, 0.45187, 0.00629, -0.01831, 0.89182,
 15:28:57.416,c2:22:89:2b:7b:c3, 2015-01-01 00:44:05.760, 0.051, -0.068, 1.014, 0.366, -1.709, 0, -1.642, -1.626, 126.288, 57.036, -41.650, -11.662, 22.35, 0.45187, 0.00629, -0.01831, 0.89182,
 15:28:57.475,c2:22:89:2b:7b:c3, 2015-01-01 00:44:05.760, 0.036, -0.094, 1.022, 0.732, -1.221, 0, -1.648, -1.637, 126.288, 57.036, -41.650, -11.662, 22.35, 0.45187, 0.00629, -0.01831, 0.89182,
 15:28:57.475,c2:22:89:2b:7b:c3, 2015-01-01 00:44:05.760, 0.014, -0.059, 1.006, 3.174, -0.427, -0.183, -1.637, -1.642, 126.288, 57.036, -41.650, -11.662, 22.35, 0.45187, 0.00629, -0.01831, 0.89182,
 15:28:57.475,c2:22:89:2b:7b:c3, 2015-01-01 00:44:05.760, 0.042, -0.009, 0.996, 1.77, -0.366, -0.122, -1.626, -1.648, 126.288, 57.036, -41.650, -11.662, 22.35, 0.45187, 0.00629, -0.01831, 0.89182,
 15:28:57.475,c2:22:89:2b:7b:c3, 2015-01-01 00:44:05.760, 0.088, -0.031, 1.021, -1.099, -0.977, 0.183, -1.642, -1.659, 126.293, 57.036, -41.650, -11.662, 22.35, 0.45187, 0.00629, -0.01831, 0.89182,
 15:28:57.506,c2:22:89:2b:7b:c3, 2015-01-01 00:44:05.760, 0.02, -0.08, 1.014, -4.456, 1.892, 0.244, -1.692, -1.653, 126.293, 57.036, -41.650, -11.662, 22.35, 0.45187, 0.00629, -0.01831, 0.89182,
 15:28:57.506,c2:22:89:2b:7b:c3, 2015-01-01 00:44:05.760, -0.048, -0.112, 0.998, -3.479, 3.54, 0.488, -1.741, -1.62, 126.293, 57.036, -41.650, -11.662, 22.35, 0.45187, 0.00629, -0.01831, 0.89182,
 15:28:57.506,c2:22:89:2b:7b:c3, 2015-01-01 00:44:05.760, -0.04, -0.107, 0.975, 1.343, 1.221, 0, -1.758, -1.599, 126.299, 57.036, -41.650, -11.662, 22.35, 0.45187, 0.00629, -0.01831, 0.89182,
 15:28:57.506,c2:22:89:2b:7b:c3, 2015-01-01 00:44:05.760, 0.059, -0.036, 1.001, 7.935, -5.249, -0.244, -1.703, -1.631, 126.299, 57.036, -41.650, -11.662, 22.35, 0.45187, 0.00629, -0.01831, 0.89182,
 15:28:57.536,c2:22:89:2b:7b:c3, 2015-01-01 00:44:05.760, 0.143, 0.026, 1.023, 8.667, -6.47, -0.244, -1.626, -1.697, 126.293, 57.036, -41.650, -11.662, 22.35, 0.45187, 0.00629, -0.01831, 0.89182,
 15:28:57.536,c2:22:89:2b:7b:c3, 2015-01-01 00:44:05.760, 0.109, 0.062, 0.994, 0.793, 0.61, 0, -1.599, -1.719, 126.293, 57.036, -41.650, -11.662, 22.35, 0.45187, 0.00629, -0.01831, 0.89182,
 15:28:57.536,c2:22:89:2b:7b:c3, 2015-01-01 00:44:05.760, 0.051, -0.003, 1.025, -12.512, 4.456, 0.305, -1.686, -1.681, 126.299, 57.036, -41.650, -11.662, 22.35, 0.45187, 0.00629, -0.01831, 0.89182,
 15:28:57.536,c2:22:89:2b:7b:c3, 2015-01-01 00:44:05.760, -0.152, -0.229, 1.042, -20.386, 10.742, 0.549, -1.89, -1.593, 126.299, 57.036, -41.650, -11.662, 22.35, 0.45187, 0.00629, -0.01831, 0.89182,
 15:28:57.597,c2:22:89:2b:7b:c3, 2015-01-01 00:44:05.760, 0.005, -0.395, 1.014, -5.371, 2.808, 0.244, -2.016, -1.533, 126.304, 57.036, -41.650, -11.662, 22.35, 0.45187, 0.00629, -0.01831, 0.89182,
 15:28:57.597,c2:22:89:2b:7b:c3, 2015-01-01 00:44:05.760, -0.121, -0.16, 0.967, 9.583, -3.784, -0.061, -1.972, -1.549, 126.304, 57.036, -41.650, -11.662, 22.35, 0.45187, 0.00629, -0.01831, 0.89182,
 15:28:57.597,c2:22:89:2b:7b:c3, 2015-01-01 00:44:05.760, 0.236, -0.064, 1.073, 21.79, -8.789, -0.549, -1.813, -1.609, 126.304, 57.036, -41.650, -11.662, 22.35, 0.45187, 0.00629, -0.01831, 0.89182,
 15:28:57.597,c2:22:89:2b:7b:c3, 2015-01-01 00:44:05.760, 0.162, 0.334, 1.147, 21.545, -15.32, -0.732, -1.604, -1.752, 126.304, 57.036, -41.650, -11.662, 22.35, 0.45187, 0.00629, -0.01831, 0.89182,
 15:28:57.625,c2:22:89:2b:7b:c3, 2015-01-01 00:44:05.760, 0.069, 0.307, 1.063, -6.348, 7.568, 0.061, -1.582, -1.73, 126.299, 56.938, -41.454, -11.466, 22.35, 0.45187, 0.00629, -0.01831, 0.89182,
 15:28:57.625,c2:22:89:2b:7b:c3, 2015-01-01 00:44:05.760, 0.078, 0.055, 0.944, -21.729, 3.601, 0.793, -1.769, -1.681, 126.304, 56.938, -41.454, -11.466, 22.35, 0.45187, 0.00629, -0.01831, 0.89182,
 15:28:57.625,c2:22:89:2b:7b:c3, 2015-01-01 00:44:05.760, -0.174, -0.263, 0.96, -22.461, 14.587, 0.854, -2.01, -1.56, 126.304, 56.938, -41.454, -11.466, 22.35, 0.45187, 0.00629, -0.01831, 0.89182,
 15:28:57.625,c2:22:89:2b:7b:c3, 2015-01-01 00:44:05.760, -0.003, -0.375, 0.974, -4.395, 4.15, 0.671, -2.12, -1.478, 126.31, 56.938, -41.454, -11.466, 22.35, 0.45187, 0.00629, -0.01831, 0.89182,
 15:28:57.657,c2:22:89:2b:7b:c3, 2015-01-01 00:44:05.760, -0.079, -0.176, 0.958, 10.559, -3.784, -0.122, -2.06, -1.5, 126.315, 56.938, -41.454, -11.466, 22.35, 0.45187, 0.00629, -0.01831, 0.89182,
 15:28:57.657,c2:22:89:2b:7b:c3, 2015-01-01 00:44:05.760, 0.056, -0.114, 1.019, 18.799, -9.338, -0.549, -1.917, -1.571, 126.315, 56.938, -41.454, -11.466, 22.35, 0.45187, 0.00629, -0.01831, 0.89182,
 15:28:57.657,c2:22:89:2b:7b:c3, 2015-01-01 00:44:05.760, 0.243, 0.042, 1.012, 19.287, -12.817, -0.61, -1.741, -1.692, 126.315, 56.938, -41.454, -11.466, 22.35, 0.45187, 0.00629, -0.01831, 0.89182,
 15:28:57.657,c2:22:89:2b:7b:c3, 2015-01-01 00:44:05.760, -0.037, 0.224, 0.978, 0.366, 3.601, -0.244, -1.697, -1.703, 126.31, 56.938, -41.454, -11.466, 22.35, 0.45187, 0.00629, -0.01831, 0.89182,
 15:28:57.716,c2:22:89:2b:7b:c3, 2015-01-01 00:44:05.760, 0.13, 0.009, 1.028, -11.963, 5.005, 0.488, -1.802, -1.642, 126.315, 56.938, -41.454, -11.466, 22.35, 0.4516, 0.00668, -0.01999, 0.89191,
 15:28:57.716,c2:22:89:2b:7b:c3, 2015-01-01 00:44:05.760, -0.13, -0.13, 0.955, -19.043, 9.766, 0.671, -1.989, -1.571, 126.315, 56.938, -41.454, -11.466, 22.35, 0.4516, 0.00668, -0.01999, 0.89191,
 15:28:57.716,c2:22:89:2b:7b:c3, 2015-01-01 00:44:05.760, -0.03, -0.312, 1.062, -9.827, 8.545, 0.305, -2.126, -1.478, 126.321, 56.938, -41.454, -11.466, 22.35, 0.4516, 0.00668, -0.01999, 0.89191,
 15:28:57.716,c2:22:89:2b:7b:c3, 2015-01-01 00:44:05.760, -0.061, -0.197, 0.972, 5.737, -1.648, -0.244, -2.12, -1.472, 126.321, 56.938, -41.454, -11.466, 22.35, 0.4516, 0.00668, -0.01999, 0.89191,
 15:28:57.747,c2:22:89:2b:7b:c3, 2015-01-01 00:44:06.085, 0.019, -0.121, 0.992, 12.329, -5.432, -0.549, -2.032, -1.516, 126.315, 56.938, -41.454, -11.466, 22.35, 0.4516, 0.00668, -0.01999, 0.89191,
 15:28:57.747,c2:22:89:2b:7b:c3, 2015-01-01 00:44:06.085, 0.188, -0.01, 1.007, 13.489, -8.301, -0.366, -1.912, -1.588, 126.321, 56.938, -41.454, -11.466, 22.35, 0.4516, 0.00668, -0.01999, 0.89191,
 15:28:57.747,c2:22:89:2b:7b:c3, 2015-01-01 00:44:06.085, 0.05, 0.154, 1.022, 5.615, -2.869, -0.122, -1.84, -1.637, 126.321, 56.938, -41.454, -11.466, 22.35, 0.4516, 0.00668, -0.01999, 0.89191,
 15:28:57.747,c2:22:89:2b:7b:c3, 2015-01-01 00:44:06.085, 0.093, 0.066, 1.021, -6.104, 5.066, 0.061, -1.884, -1.604, 126.321, 56.938, -41.454, -11.466, 22.35, 0.4516, 0.00668, -0.01999, 0.89191,
 15:28:57.805,c2:22:89:2b:7b:c3, 2015-01-01 00:44:06.085, -0.057, -0.046, 0.925, -14.465, 7.69, 0.549, -2.016, -1.538, 126.321, 56.938, -41.454, -11.466, 22.35, 0.4516, 0.00668, -0.01999, 0.89191,
 15:28:57.805,c2:22:89:2b:7b:c3, 2015-01-01 00:44:06.085, -0.056, -0.184, 1.012, -12.451, 7.507, 0.366, -2.153, -1.461, 126.321, 56.938, -41.454, -11.466, 22.35, 0.4516, 0.00668, -0.01999, 0.89191,
 15:28:57.805,c2:22:89:2b:7b:c3, 2015-01-01 00:44:06.085, -0.024, -0.243, 0.991, -0.977, 1.343, 0.061, -2.208, -1.428, 126.321, 56.938, -41.454, -11.466, 22.35, 0.4516, 0.00668, -0.01999, 0.89191,
 15:28:57.805,c2:22:89:2b:7b:c3, 2015-01-01 00:44:06.085, 0.013, -0.16, 1.003, 8.484, -4.028, -0.183, -2.159, -1.456, 126.326, 56.938, -41.454, -11.466, 22.35, 0.4516, 0.00668, -0.01999, 0.89191,
 15:28:57.836,c2:22:89:2b:7b:c3, 2015-01-01 00:44:06.085, 0.083, -0.051, 1.035, 12.451, -6.775, -0.366, -2.054, -1.516, 126.326, 56.938, -41.454, -11.466, 22.35, 0.4516, 0.00668, -0.01999, 0.89191,
 15:28:57.836,c2:22:89:2b:7b:c3, 2015-01-01 00:44:06.085, 0.129, 0.038, 1.018, 7.629, -4.883, -0.183, -1.978, -1.566, 126.326, 56.938, -41.454, -11.466, 22.35, 0.4516, 0.00668, -0.01999, 0.89191,
 15:28:57.836,c2:22:89:2b:7b:c3, 2015-01-01 00:44:06.085, 0.062, 0.047, 1.006, -0.305, 1.404, 0, -1.967, -1.577, 126.326, 56.938, -41.454, -11.466, 22.35, 0.4516, 0.00668, -0.01999, 0.89191,
 15:28:57.836,c2:22:89:2b:7b:c3, 2015-01-01 00:44:06.085, 0.021, 0, 1.031, -6.287, 5.493, -0.183, -2.021, -1.533, 126.326, 56.938, -41.454, -11.466, 22.35, 0.4516, 0.00668, -0.01999, 0.89191,
 15:28:57.865,c2:22:89:2b:7b:c3, 2015-01-01 00:44:06.085, -0.034, -0.062, 1.012, -10.254, 7.019, 0.061, -2.12, -1.467, 126.326, 56.938, -41.454, -11.466, 22.35, 0.4516, 0.00668, -0.01999, 0.89191,
 15:28:57.865,c2:22:89:2b:7b:c3, 2015-01-01 00:44:06.085, 0.003, -0.175, 1.002, -6.592, 3.479, 0.305, -2.208, -1.423, 126.326, 56.938, -41.454, -11.466, 22.35, 0.4516, 0.00668, -0.01999, 0.89191,
 15:28:57.865,c2:22:89:2b:7b:c3, 2015-01-01 00:44:06.085, -0.02, -0.182, 1.012, 0.488, -0.366, 0.183, -2.23, -1.417, 126.332, 56.938, -41.454, -11.466, 22.35, 0.4516, 0.00668, -0.01999, 0.89191,
 15:28:57.865,c2:22:89:2b:7b:c3, 2015-01-01 00:44:06.085, 0.026, -0.109, 1.011, 7.996, -3.052, -0.305, -2.181, -1.434, 126.326, 56.938, -41.454, -11.466, 22.35, 0.4516, 0.00668, -0.01999, 0.89191,
 15:28:57.897,c2:22:89:2b:7b:c3, 2015-01-01 00:44:06.085, 0.043, -0.021, 0.969, 8.545, -4.7, -0.061, -2.104, -1.478, 126.332, 56.938, -41.454, -11.466, 22.35, 0.4516, 0.00668, -0.01999, 0.89191,
 15:28:57.897,c2:22:89:2b:7b:c3, 2015-01-01 00:44:06.085, 0.076, 0.017, 0.954, 6.165, -3.906, -0.244, -2.049, -1.516, 126.332, 56.938, -41.454, -11.466, 22.35, 0.4516, 0.00668, -0.01999, 0.89191,
 15:28:57.897,c2:22:89:2b:7b:c3, 2015-01-01 00:44:06.085, 0.041, 0.088, 0.986, 4.211, -1.648, -0.305, -2.01, -1.538, 126.332, 56.938, -41.454, -11.466, 22.35, 0.4516, 0.00668, -0.01999, 0.89191,
 15:28:57.897,c2:22:89:2b:7b:c3, 2015-01-01 00:44:06.085, 0.067, 0.086, 1.016, -1.831, 2.502, 0, -2.016, -1.522, 126.332, 56.938, -41.454, -11.466, 22.35, 0.4516, 0.00668, -0.01999, 0.89191,
 15:28:57.956,c2:22:89:2b:7b:c3, 2015-01-01 00:44:06.085, 0.043, 0.016, 1.005, -7.629, 2.441, 0.244, -2.076, -1.5, 126.332, 56.938, -41.454, -11.466, 22.35, 0.4516, 0.00668, -0.01999, 0.89191,
 15:28:57.956,c2:22:89:2b:7b:c3, 2015-01-01 00:44:06.085, -0.025, -0.094, 1.019, -9.583, 5.371, 0.305, -2.175, -1.456, 126.332, 56.938, -41.454, -11.466, 22.35, 0.4516, 0.00668, -0.01999, 0.89191,
 15:28:57.956,c2:22:89:2b:7b:c3, 2015-01-01 00:44:06.085, -0.038, -0.142, 1, -4.395, 4.639, -0.061, -2.236, -1.406, 126.332, 56.938, -41.454, -11.466, 22.35, 0.4516, 0.00668, -0.01999, 0.89191,
 15:28:57.956,c2:22:89:2b:7b:c3, 2015-01-01 00:44:06.085, -0.001, -0.13, 0.987, 3.174, -0.549, -0.183, -2.225, -1.395, 126.332, 56.938, -41.454, -11.466, 22.35, 0.4516, 0.00668, -0.01999, 0.89191,
 15:28:57.986,c2:22:89:2b:7b:c3, 2015-01-01 00:44:06.085, 0.048, -0.048, 1.008, 7.69, -5.249, -0.305, -2.164, -1.439, 126.332, 57.134, -41.748, -12.152, 22.35, 0.4516, 0.00668, -0.01999, 0.89191,
 15:28:57.986,c2:22:89:2b:7b:c3, 2015-01-01 00:44:06.085, 0.103, 0.015, 1.015, 8.545, -4.944, -0.244, -2.087, -1.489, 126.332, 57.134, -41.748, -12.152, 22.35, 0.4516, 0.00668, -0.01999, 0.89191,
 15:28:57.986,c2:22:89:2b:7b:c3, 2015-01-01 00:44:06.085, 0.045, 0.097, 1.005, 4.089, -2.136, 0, -2.032, -1.522, 126.332, 57.134, -41.748, -12.152, 22.35, 0.4516, 0.00668, -0.01999, 0.89191,
 15:28:57.986,c2:22:89:2b:7b:c3, 2015-01-01 00:44:06.085, 0.052, 0.078, 0.993, -2.319, 2.136, 0.061, -2.038, -1.505, 126.332, 57.134, -41.748, -12.152, 22.35, 0.4516, 0.00668, -0.01999, 0.89191,
 15:28:58.016,c2:22:89:2b:7b:c3, 2015-01-01 00:44:06.085, -0.007, 0.027, 0.955, -7.996, 3.845, 0.183, -2.098, -1.478, 126.332, 57.134, -41.748, -12.152, 22.35, 0.4516, 0.00668, -0.01999, 0.89191,
 15:28:58.016,c2:22:89:2b:7b:c3, 2015-01-01 00:44:06.085, -0.017, -0.059, 0.989, -8.667, 4.456, 0.183, -2.175, -1.434, 126.332, 57.134, -41.748, -12.152, 22.35, 0.4516, 0.00668, -0.01999, 0.89191,
 15:28:58.016,c2:22:89:2b:7b:c3, 2015-01-01 00:44:06.085, -0.032, -0.121, 0.993, -3.906, 2.075, 0.061, -2.225, -1.406, 126.332, 57.134, -41.748, -12.152, 22.35, 0.4516, 0.00668, -0.01999, 0.89191,
 15:28:58.016,c2:22:89:2b:7b:c3, 2015-01-01 00:44:06.085, -0.009, -0.099, 1.007, 4.089, -1.953, -0.061, -2.203, -1.417, 126.332, 57.134, -41.748, -12.152, 22.35, 0.4516, 0.00668, -0.01999, 0.89191,
 15:28:58.076,c2:22:89:2b:7b:c3, 2015-01-01 00:44:06.085, 0.051, -0.01, 1.015, 8.728, -5.005, -0.244, -2.126, -1.456, 126.332, 57.134, -41.748, -12.152, 22.35, 0.45145, 0.0022, -0.02289, 0.89194,
 15:28:58.076,c2:22:89:2b:7b:c3, 2015-01-01 00:44:06.085, 0.118, 0.047, 1.012, 6.409, -4.944, -0.427, -2.054, -1.505, 126.332, 57.134, -41.748, -12.152, 22.35, 0.45145, 0.0022, -0.02289, 0.89194,
 15:28:58.076,c2:22:89:2b:7b:c3, 2015-01-01 00:44:06.085, 0.036, 0.05, 1.016, 1.038, -0.916, 0, -2.021, -1.527, 126.332, 57.134, -41.748, -12.152, 22.35, 0.45145, 0.0022, -0.02289, 0.89194,
 15:28:58.076,c2:22:89:2b:7b:c3, 2015-01-01 00:44:06.085, 0.026, 0.054, 1.025, -2.869, 2.991, 0.122, -2.038, -1.511, 126.332, 57.134, -41.748, -12.152, 22.35, 0.45145, 0.0022, -0.02289, 0.89194,
 15:28:58.107,c2:22:89:2b:7b:c3, 2015-01-01 00:44:06.085, -0.007, 0.012, 0.987, -6.409, 4.395, 0.122, -2.093, -1.472, 126.332, 57.134, -41.748, -12.152, 22.35, 0.45145, 0.0022, -0.02289, 0.89194,
 15:28:58.107,c2:22:89:2b:7b:c3, 2015-01-01 00:44:06.085, -0.004, -0.074, 0.986, -5.981, 1.587, 0, -2.153, -1.445, 126.332, 57.134, -41.748, -12.152, 22.35, 0.45145, 0.0022, -0.02289, 0.89194,
 15:28:58.107,c2:22:89:2b:7b:c3, 2015-01-01 00:44:06.085, -0.025, -0.102, 0.991, -0.427, 0, 0.122, -2.17, -1.445, 126.332, 57.134, -41.748, -12.152, 22.35, 0.45145, 0.0022, -0.02289, 0.89194,
 15:28:58.107,c2:22:89:2b:7b:c3, 2015-01-01 00:44:06.085, 0.009, -0.048, 0.993, 5.92, -2.441, -0.305, -2.126, -1.456, 126.332, 57.134, -41.748, -12.152, 22.35, 0.45145, 0.0022, -0.02289, 0.89194,
 15:28:58.135,c2:22:89:2b:7b:c3, 2015-01-01 00:44:06.475, 0.072, 0.018, 0.988, 7.08, -4.883, -0.366, -2.054, -1.5, 126.332, 57.134, -41.748, -12.152, 22.35, 0.45145, 0.0022, -0.02289, 0.89194,
 15:28:58.135,c2:22:89:2b:7b:c3, 2015-01-01 00:44:06.475, 0.086, 0.033, 0.996, 3.601, -3.906, 0.183, -2.005, -1.544, 126.332, 57.134, -41.748, -12.152, 22.35, 0.45145, 0.0022, -0.02289, 0.89194,
 15:28:58.135,c2:22:89:2b:7b:c3, 2015-01-01 00:44:06.475, 0.044, 0.013, 1, -0.61, 0.61, 0.122, -2, -1.549, 126.332, 57.134, -41.748, -12.152, 22.35, 0.45145, 0.0022, -0.02289, 0.89194,
 15:28:58.135,c2:22:89:2b:7b:c3, 2015-01-01 00:44:06.475, -0.005, 0.01, 0.998, -4.272, 2.93, 0.366, -2.027, -1.527, 126.332, 57.134, -41.748, -12.152, 22.35, 0.45145, 0.0022, -0.02289, 0.89194,
 15:28:58.197,c2:22:89:2b:7b:c3, 2015-01-01 00:44:06.475, -0.005, -0.032, 1.002, -4.333, 2.319, 0.244, -2.065, -1.505, 126.332, 57.134, -41.748, -12.152, 22.35, 0.45145, 0.0022, -0.02289, 0.89194,
 15:28:58.198,c2:22:89:2b:7b:c3, 2015-01-01 00:44:06.475, -0.002, -0.06, 0.983, -1.77, 0.366, 0, -2.087, -1.494, 126.326, 57.134, -41.748, -12.152, 22.35, 0.45145, 0.0022, -0.02289, 0.89194,
 15:28:58.198,c2:22:89:2b:7b:c3, 2015-01-01 00:44:06.475, 0.021, -0.061, 0.988, 1.77, -1.038, -0.244, -2.076, -1.505, 126.326, 57.134, -41.748, -12.152, 22.35, 0.45145, 0.0022, -0.02289, 0.89194,
 15:28:58.198,c2:22:89:2b:7b:c3, 2015-01-01 00:44:06.475, 0.042, -0.031, 1.002, 3.845, -2.563, -0.183, -2.038, -1.527, 126.326, 57.134, -41.748, -12.152, 22.35, 0.45145, 0.0022, -0.02289, 0.89194,
 15:28:58.227,c2:22:89:2b:7b:c3, 2015-01-01 00:44:06.475, 0.053, 0.001, 1.022, 3.662, -2.136, -0.244, -2, -1.549, 126.326, 57.134, -41.748, -12.152, 22.35, 0.45145, 0.0022, -0.02289, 0.89194,
 15:28:58.227,c2:22:89:2b:7b:c3, 2015-01-01 00:44:06.475, 0.058, 0.028, 1.016, 1.648, -1.404, 0, -1.967, -1.566, 126.326, 57.134, -41.748, -12.152, 22.35, 0.45145, 0.0022, -0.02289, 0.89194,
 15:28:58.227,c2:22:89:2b:7b:c3, 2015-01-01 00:44:06.475, 0.043, 0.029, 1.012, -1.831, -0.122, 0.183, -1.967, -1.571, 126.326, 57.134, -41.748, -12.152, 22.35, 0.45145, 0.0022, -0.02289, 0.89194,
 15:28:58.227,c2:22:89:2b:7b:c3, 2015-01-01 00:44:06.475, 0.016, -0.002, 1.002, -3.479, 0.977, 0.305, -1.989, -1.566, 126.326, 57.134, -41.748, -12.152, 22.35, 0.45145, 0.0022, -0.02289, 0.89194,
 15:28:58.256,c2:22:89:2b:7b:c3, 2015-01-01 00:44:06.475, -0.009, -0.025, 0.975, -2.502, 1.892, -0.061, -2.01, -1.549, 126.321, 57.134, -41.748, -12.152, 22.35, 0.45145, 0.0022, -0.02289, 0.89194,
 15:28:58.256,c2:22:89:2b:7b:c3, 2015-01-01 00:44:06.475, 0.011, -0.027, 0.972, -0.671, 0.061, 0, -2.01, -1.544, 126.321, 57.134, -41.748, -12.152, 22.35, 0.45145, 0.0022, -0.02289, 0.89194,
 15:28:58.256,c2:22:89:2b:7b:c3, 2015-01-01 00:44:06.475, 0.037, -0.031, 1.002, 0.854, -2.258, 0.061, -2, -1.56, 126.321, 57.134, -41.748, -12.152, 22.35, 0.45145, 0.0022, -0.02289, 0.89194,
 15:28:58.256,c2:22:89:2b:7b:c3, 2015-01-01 00:44:06.475, 0.045, -0.005, 1.036, 3.296, -3.113, 0, -1.961, -1.588, 126.321, 57.134, -41.748, -12.152, 22.35, 0.45145, 0.0022, -0.02289, 0.89194,
 15:28:58.318,c2:22:89:2b:7b:c3, 2015-01-01 00:44:06.475, 0.033, 0.04, 1.027, 3.174, -1.526, 0, -1.917, -1.604, 126.321, 57.134, -41.748, -12.152, 22.35, 0.45145, 0.0022, -0.02289, 0.89194,
 15:28:58.318,c2:22:89:2b:7b:c3, 2015-01-01 00:44:06.475, 0.061, 0.056, 1.009, 0.732, -1.404, -0.122, -1.89, -1.615, 126.315, 57.134, -41.748, -12.152, 22.35, 0.45145, 0.0022, -0.02289, 0.89194,
 15:28:58.318,c2:22:89:2b:7b:c3, 2015-01-01 00:44:06.475, 0.026, 0.028, 0.996, -2.38, 0.305, 0.061, -1.901, -1.62, 126.315, 57.134, -41.748, -12.152, 22.35, 0.45145, 0.0022, -0.02289, 0.89194,
 15:28:58.318,c2:22:89:2b:7b:c3, 2015-01-01 00:44:06.475, 0.017, 0.008, 1.011, -1.77, 1.404, -0.061, -1.906, -1.609, 126.315, 57.134, -41.748, -12.152, 22.35, 0.45145, 0.0022, -0.02289, 0.89194,
 15:28:58.347,c2:22:89:2b:7b:c3, 2015-01-01 00:44:06.475, 0.007, -0.004, 1.008, -1.282, 0.916, 0, -1.912, -1.599, 126.315, 57.428, -42.042, -13.230, 22.35, 0.45145, 0.0022, -0.02289, 0.89194,
 15:28:58.347,c2:22:89:2b:7b:c3, 2015-01-01 00:44:06.475, 0.037, 0, 1.011, -0.305, -1.343, 0.061, -1.906, -1.604, 126.31, 57.428, -42.042, -13.230, 22.35, 0.45145, 0.0022, -0.02289, 0.89194,
 15:28:58.347,c2:22:89:2b:7b:c3, 2015-01-01 00:44:06.475, 0.027, -0.019, 1.003, 0.427, -1.038, 0.122, -1.895, -1.615, 126.31, 57.428, -42.042, -13.230, 22.35, 0.45145, 0.0022, -0.02289, 0.89194,
 15:28:58.347,c2:22:89:2b:7b:c3, 2015-01-01 00:44:06.475, 0.036, 0.014, 0.995, 1.282, -0.977, -0.122, -1.868, -1.626, 126.31, 57.428, -42.042, -13.230, 22.35, 0.45145, 0.0022, -0.02289, 0.89194,
 15:28:58.375,c2:22:89:2b:7b:c3, 2015-01-01 00:44:06.475, 0.016, 0.004, 0.984, -0.061, 0.244, 0, -1.857, -1.626, 126.304, 57.428, -42.042, -13.230, 22.35, 0.45145, 0.0022, -0.02289, 0.89194,
 15:28:58.375,c2:22:89:2b:7b:c3, 2015-01-01 00:44:06.475, 0.032, 0.007, 0.998, 0.183, -0.671, 0.061, -1.846, -1.631, 126.304, 57.428, -42.042, -13.230, 22.35, 0.45145, 0.0022, -0.02289, 0.89194,
 15:28:58.375,c2:22:89:2b:7b:c3, 2015-01-01 00:44:06.475, 0.029, 0.016, 1.007, 0.305, -0.427, 0, -1.829, -1.637, 126.304, 57.428, -42.042, -13.230, 22.35, 0.45145, 0.0022, -0.02289, 0.89194,
 15:28:58.375,c2:22:89:2b:7b:c3, 2015-01-01 00:44:06.475, 0.036, -0.011, 1.012, -0.549, -0.244, 0, -1.824, -1.637, 126.304, 57.428, -42.042, -13.230, 22.35, 0.45145, 0.0022, -0.02289, 0.89194,
 15:28:58.437,c2:22:89:2b:7b:c3, 2015-01-01 00:44:06.475, 0.025, 0.007, 1.01, 1.038, -0.916, 0.061, -1.807, -1.648, 126.299, 57.428, -42.042, -13.230, 22.35, 0.45166, 0.00552, -0.02072, 0.89188,
 15:28:58.437,c2:22:89:2b:7b:c3, 2015-01-01 00:44:06.475, 0.031, 0.014, 1.012, 0.122, 0.305, -0.122, -1.791, -1.648, 126.299, 57.428, -42.042, -13.230, 22.35, 0.45166, 0.00552, -0.02072, 0.89188,
 15:28:58.437,c2:22:89:2b:7b:c3, 2015-01-01 00:44:06.475, 0.055, 0.019, 1.018, -0.244, -0.793, 0.061, -1.78, -1.653, 126.299, 57.428, -42.042, -13.230, 22.35, 0.45166, 0.00552, -0.02072, 0.89188,
 15:28:58.437,c2:22:89:2b:7b:c3, 2015-01-01 00:44:06.475, 0.009, -0.005, 1.01, -1.465, 0.671, 0.305, -1.78, -1.653, 126.299, 57.428, -42.042, -13.230, 22.35, 0.45166, 0.00552, -0.02072, 0.89188,
 15:28:58.466,c2:22:89:2b:7b:c3, 2015-01-01 00:44:06.800, 0.013, -0.004, 1.009, 0.793, 0.732, -0.122, -1.769, -1.648, 126.293, 57.428, -42.042, -13.230, 22.35, 0.45166, 0.00552, -0.02072, 0.89188,
 15:28:58.466,c2:22:89:2b:7b:c3, 2015-01-01 00:44:06.800, 0.043, 0.036, 1.002, 1.465, -0.671, -0.061, -1.736, -1.648, 126.293, 57.428, -42.042, -13.230, 22.35, 0.45166, 0.00552, -0.02072, 0.89188,
 15:28:58.466,c2:22:89:2b:7b:c3, 2015-01-01 00:44:06.800, 0.072, 0.003, 1.008, -0.977, -1.16, 0.183, -1.73, -1.659, 126.293, 57.428, -42.042, -13.230, 22.35, 0.45166, 0.00552, -0.02072, 0.89188,
 15:28:58.466,c2:22:89:2b:7b:c3, 2015-01-01 00:44:06.800, 0.017, -0.01, 1.008, -1.465, 0.305, -0.061, -1.73, -1.664, 126.288, 57.428, -42.042, -13.230, 22.35, 0.45166, 0.00552, -0.02072, 0.89188,
 15:28:58.496,c2:22:89:2b:7b:c3, 2015-01-01 00:44:06.800, -0.019, -0.017, 0.989, -1.343, 3.174, 0.061, -1.736, -1.637, 126.288, 57.428, -42.042, -13.230, 22.35, 0.45166, 0.00552, -0.02072, 0.89188,
 15:28:58.496,c2:22:89:2b:7b:c3, 2015-01-01 00:44:06.800, 0.028, 0, 0.989, 0.122, -0.244, 0, -1.725, -1.631, 126.282, 57.428, -42.042, -13.230, 22.35, 0.45166, 0.00552, -0.02072, 0.89188,
 15:28:58.496,c2:22:89:2b:7b:c3, 2015-01-01 00:44:06.800, 0.075, -0.009, 1.006, 1.221, -2.258, 0, -1.703, -1.648, 126.282, 57.428, -42.042, -13.230, 22.35, 0.45166, 0.00552, -0.02072, 0.89188,
 15:28:58.496,c2:22:89:2b:7b:c3, 2015-01-01 00:44:06.800, 0.066, -0.012, 1.025, -0.549, -0.916, -0.122, -1.692, -1.664, 126.282, 57.428, -42.042, -13.230, 22.35, 0.45166, 0.00552, -0.02072, 0.89188,
 15:28:58.555,c2:22:89:2b:7b:c3, 2015-01-01 00:44:06.800, 0.008, -0.038, 1.008, -4.089, 3.296, 0, -1.714, -1.642, 126.277, 57.428, -42.042, -13.230, 22.35, 0.45166, 0.00552, -0.02072, 0.89188,
 15:28:58.555,c2:22:89:2b:7b:c3, 2015-01-01 00:44:06.800, -0.062, -0.075, 0.998, -3.418, 2.808, 0.305, -1.747, -1.609, 126.277, 57.428, -42.042, -13.230, 22.35, 0.45166, 0.00552, -0.02072, 0.89188,
 15:28:58.555,c2:22:89:2b:7b:c3, 2015-01-01 00:44:06.800, -0.084, -0.045, 0.986, 5.92, -0.366, 0, -1.708, -1.604, 126.277, 57.428, -42.042, -13.230, 22.35, 0.45166, 0.00552, -0.02072, 0.89188,
 15:28:58.555,c2:22:89:2b:7b:c3, 2015-01-01 00:44:06.800, 0.232, 0.1, 1.008, 15.137, -8.606, -0.305, -1.571, -1.664, 126.277, 57.428, -42.042, -13.230, 22.35, 0.45166, 0.00552, -0.02072, 0.89188,
 15:28:58.616,c2:22:89:2b:7b:c3, 2015-01-01 00:44:06.800, -0.001, 0.389, 0.975, 6.775, -4.395, -0.244, -1.45, -1.736, 126.271, 57.428, -42.042, -13.230, 22.35, 0.45166, 0.00552, -0.02072, 0.89188,
 15:28:58.616,c2:22:89:2b:7b:c3, 2015-01-01 00:44:06.800, 0.203, 0.12, 1.043, -11.292, 5.493, 0.122, -1.505, -1.692, 126.266, 57.428, -42.042, -13.230, 22.35, 0.45166, 0.00552, -0.02072, 0.89188,
 15:28:58.616,c2:22:89:2b:7b:c3, 2015-01-01 00:44:06.800, -0.044, -0.077, 0.988, -21.912, 6.775, 0.916, -1.675, -1.642, 126.271, 57.428, -42.042, -13.230, 22.35, 0.45166, 0.00552, -0.02072, 0.89188,
 15:28:58.616,c2:22:89:2b:7b:c3, 2015-01-01 00:44:06.800, -0.103, -0.234, 1.076, -13.977, 12.817, 0.427, -1.829, -1.522, 126.271, 57.428, -42.042, -13.230, 22.35, 0.45166, 0.00552, -0.02072, 0.89188,
 15:28:58.616,c2:22:89:2b:7b:c3, 2015-01-01 00:44:06.800, -0.092, -0.235, 0.961, 4.333, 0.061, -0.122, -1.829, -1.489, 126.266, 57.428, -42.042, -13.230, 22.35, 0.45166, 0.00552, -0.02072, 0.89188,
 15:28:58.616,c2:22:89:2b:7b:c3, 2015-01-01 00:44:06.800, -0.011, -0.062, 1.013, 15.503, -7.08, -0.549, -1.692, -1.538, 126.266, 57.428, -42.042, -13.230, 22.35, 0.45166, 0.00552, -0.02072, 0.89188,
 15:28:58.616,c2:22:89:2b:7b:c3, 2015-01-01 00:44:06.800, 0.31, 0.067, 1.045, 18.738, -14.771, -0.427, -1.5, -1.664, 126.266, 57.428, -42.042, -13.230, 22.35, 0.45166, 0.00552, -0.02072, 0.89188,
 15:28:58.616,c2:22:89:2b:7b:c3, 2015-01-01 00:44:06.800, -0.089, 0.328, 0.91, 4.333, 0.244, -0.305, -1.406, -1.719, 126.26, 57.428, -42.042, -13.230, 22.35, 0.45166, 0.00552, -0.02072, 0.89188,
 15:28:58.675,c2:22:89:2b:7b:c3, 2015-01-01 00:44:06.800, 0.15, 0.095, 1.011, -8.179, 6.104, 0.122, -1.445, -1.653, 126.255, 57.428, -42.042, -13.230, 22.35, 0.45166, 0.00552, -0.02072, 0.89188,
 15:28:58.675,c2:22:89:2b:7b:c3, 2015-01-01 00:44:06.800, 0.038, 0.057, 0.957, -16.479, 4.028, 0.732, -1.56, -1.626, 126.255, 57.428, -42.042, -13.230, 22.35, 0.45166, 0.00552, -0.02072, 0.89188,
 15:28:58.675,c2:22:89:2b:7b:c3, 2015-01-01 00:44:06.800, -0.066, -0.172, 1.096, -14.526, 8.728, 0.488, -1.697, -1.549, 126.255, 57.428, -42.042, -13.230, 22.35, 0.45166, 0.00552, -0.02072, 0.89188,
 15:28:58.675,c2:22:89:2b:7b:c3, 2015-01-01 00:44:06.800, -0.096, -0.209, 1.009, -1.465, 4.578, 0.183, -1.741, -1.489, 126.255, 57.428, -42.042, -13.230, 22.35, 0.45166, 0.00552, -0.02072, 0.89188,
 15:28:58.706,c2:22:89:2b:7b:c3, 2015-01-01 00:44:06.800, -0.015, -0.074, 0.961, 11.23, -3.296, -0.183, -1.653, -1.505, 126.255, 57.330, -42.042, -13.426, 22.35, 0.45166, 0.00552, -0.02072, 0.89188,
 15:28:58.706,c2:22:89:2b:7b:c3, 2015-01-01 00:44:06.800, 0.257, 0.029, 1.004, 13.733, -9.705, -0.305, -1.516, -1.588, 126.255, 57.330, -42.042, -13.426, 22.35, 0.45166, 0.00552, -0.02072, 0.89188,
 15:28:58.706,c2:22:89:2b:7b:c3, 2015-01-01 00:44:06.800, 0.048, 0.131, 1.061, 7.935, -6.042, -0.244, -1.395, -1.664, 126.255, 57.330, -42.042, -13.426, 22.35, 0.45166, 0.00552, -0.02072, 0.89188,
 15:28:58.706,c2:22:89:2b:7b:c3, 2015-01-01 00:44:06.800, 0.061, 0.161, 1.062, -3.845, 7.08, 0.061, -1.395, -1.62, 126.249, 57.330, -42.042, -13.426, 22.35, 0.45166, 0.00552, -0.02072, 0.89188,
 15:28:58.737,c2:22:89:2b:7b:c3, 2015-01-01 00:44:06.800, 0.029, 0.084, 0.951, -10.864, 2.563, 0.427, -1.467, -1.588, 126.249, 57.330, -42.042, -13.426, 22.35, 0.45166, 0.00552, -0.02072, 0.89188,
 15:28:58.737,c2:22:89:2b:7b:c3, 2015-01-01 00:44:06.800, -0.018, -0.091, 1.032, -12.146, 6.226, 0.122, -1.577, -1.533, 126.244, 57.330, -42.042, -13.426, 22.35, 0.45166, 0.00552, -0.02072, 0.89188,
 15:28:58.737,c2:22:89:2b:7b:c3, 2015-01-01 00:44:06.800, -0.06, -0.161, 1.005, -4.028, 3.723, 0.183, -1.631, -1.489, 126.244, 57.330, -42.042, -13.426, 22.35, 0.45166, 0.00552, -0.02072, 0.89188,
 15:28:58.737,c2:22:89:2b:7b:c3, 2015-01-01 00:44:06.800, -0.044, -0.092, 0.975, 5.92, -0.061, -0.122, -1.593, -1.478, 126.244, 57.330, -42.042, -13.426, 22.35, 0.45166, 0.00552, -0.02072, 0.89188,
 15:28:58.796,c2:22:89:2b:7b:c3, 2015-01-01 00:44:06.800, 0.076, -0.001, 0.982, 9.888, -6.165, -0.122, -1.494, -1.522, 126.244, 57.330, -42.042, -13.426, 22.35, 0.45212, 0.00516, -0.01859, 0.89169,
 15:28:58.796,c2:22:89:2b:7b:c3, 2015-01-01 00:44:06.800, 0.142, 0.084, 0.997, 11.047, -7.935, -0.366, -1.379, -1.599, 126.238, 57.330, -42.042, -13.426, 22.35, 0.45212, 0.00516, -0.01859, 0.89169,
 15:28:58.796,c2:22:89:2b:7b:c3, 2015-01-01 00:44:06.800, 0.002, 0.109, 0.98, 2.014, 3.113, -0.122, -1.335, -1.599, 126.238, 57.330, -42.042, -13.426, 22.35, 0.45212, 0.00516, -0.01859, 0.89169,
 15:28:58.796,c2:22:89:2b:7b:c3, 2015-01-01 00:44:06.800, 0.05, 0.093, 0.953, -6.714, 2.258, 0.427, -1.368, -1.566, 126.238, 57.330, -42.042, -13.426, 22.35, 0.45212, 0.00516, -0.01859, 0.89169,
 15:28:58.827,c2:22:89:2b:7b:c3, 2015-01-01 00:44:06.800, -0.018, -0.026, 1.002, -10.681, 5.676, 0.427, -1.456, -1.522, 126.238, 57.330, -42.042, -13.426, 22.35, 0.45212, 0.00516, -0.01859, 0.89169,
 15:28:58.827,c2:22:89:2b:7b:c3, 2015-01-01 00:44:06.800, -0.026, -0.108, 1.03, -3.845, 3.479, 0, -1.505, -1.483, 126.238, 57.330, -42.042, -13.426, 22.35, 0.45212, 0.00516, -0.01859, 0.89169,
 15:28:58.827,c2:22:89:2b:7b:c3, 2015-01-01 00:44:06.800, -0.034, -0.062, 0.995, 2.991, 1.099, -0.183, -1.483, -1.467, 126.233, 57.330, -42.042, -13.426, 22.35, 0.45212, 0.00516, -0.01859, 0.89169,
 15:28:58.827,c2:22:89:2b:7b:c3, 2015-01-01 00:44:06.800, 0.074, -0.027, 0.989, 6.775, -4.15, -0.366, -1.423, -1.494, 126.233, 57.330, -42.042, -13.426, 22.35, 0.45212, 0.00516, -0.01859, 0.89169,
 15:28:58.915,c2:22:89:2b:7b:c3, 2015-01-01 00:44:07.190, 0.112, 0.037, 1.027, 7.263, -5.737, 0, -1.34, -1.549, 126.233, 57.330, -42.042, -13.426, 22.35, 0.45212, 0.00516, -0.01859, 0.89169,
 15:28:58.915,c2:22:89:2b:7b:c3, 2015-01-01 00:44:07.190, 0.029, 0.082, 0.998, 3.54, 2.197, 0, -1.285, -1.555, 126.233, 57.330, -42.042, -13.426, 22.35, 0.45212, 0.00516, -0.01859, 0.89169,
 15:28:58.915,c2:22:89:2b:7b:c3, 2015-01-01 00:44:07.190, 0.023, 0.062, 0.989, -4.15, 2.869, 0.61, -1.291, -1.533, 126.227, 57.330, -42.042, -13.426, 22.35, 0.45212, 0.00516, -0.01859, 0.89169,
 15:28:58.915,c2:22:89:2b:7b:c3, 2015-01-01 00:44:07.190, -0.007, 0.007, 0.957, -8.179, 3.662, 0.244, -1.351, -1.5, 126.227, 57.330, -42.042, -13.426, 22.35, 0.45212, 0.00516, -0.01859, 0.89169,
 15:28:58.917,c2:22:89:2b:7b:c3, 2015-01-01 00:44:07.190, 0.032, -0.082, 0.987, -4.761, 2.93, 0.183, -1.401, -1.467, 126.227, 57.330, -42.042, -13.426, 22.35, 0.45212, 0.00516, -0.01859, 0.89169,
 15:28:58.917,c2:22:89:2b:7b:c3, 2015-01-01 00:44:07.190, -0.002, -0.089, 0.971, -2.38, 2.38, -0.122, -1.423, -1.45, 126.227, 57.330, -42.042, -13.426, 22.35, 0.45212, 0.00516, -0.01859, 0.89169,
 15:28:58.917,c2:22:89:2b:7b:c3, 2015-01-01 00:44:07.190, 0.015, -0.114, 0.995, -1.831, 1.038, 0, -1.439, -1.434, 126.222, 57.330, -42.042, -13.426, 22.35, 0.45212, 0.00516, -0.01859, 0.89169,
 15:28:58.917,c2:22:89:2b:7b:c3, 2015-01-01 00:44:07.190, 0.002, -0.113, 1.001, 1.099, -0.366, 0.244, -1.434, -1.434, 126.227, 57.330, -42.042, -13.426, 22.35, 0.45212, 0.00516, -0.01859, 0.89169,
 15:28:58.945,c2:22:89:2b:7b:c3, 2015-01-01 00:44:07.190, 0.008, -0.085, 1.01, 4.456, -1.587, -0.061, -1.401, -1.445, 126.227, 57.330, -42.042, -13.426, 22.35, 0.45212, 0.00516, -0.01859, 0.89169,
 15:28:58.945,c2:22:89:2b:7b:c3, 2015-01-01 00:44:07.190, 0.037, -0.006, 0.996, 7.141, -2.869, -0.366, -1.335, -1.467, 126.222, 57.330, -42.042, -13.426, 22.35, 0.45212, 0.00516, -0.01859, 0.89169,
 15:28:58.945,c2:22:89:2b:7b:c3, 2015-01-01 00:44:07.190, 0.086, 0.044, 0.984, 4.822, -3.479, -0.305, -1.28, -1.5, 126.222, 57.330, -42.042, -13.426, 22.35, 0.45212, 0.00516, -0.01859, 0.89169,
 15:28:58.945,c2:22:89:2b:7b:c3, 2015-01-01 00:44:07.190, 0.082, 0.039, 0.995, -0.122, -0.793, -0.122, -1.263, -1.516, 126.222, 57.330, -42.042, -13.426, 22.35, 0.45212, 0.00516, -0.01859, 0.89169,
 15:28:59.036,c2:22:89:2b:7b:c3, 2015-01-01 00:44:07.190, 0.039, 0.003, 1.019, -5.676, 2.808, 0.183, -1.307, -1.5, 126.222, 57.330, -42.042, -13.426, 22.35, 0.45212, 0.00516, -0.01859, 0.89169,
 15:28:59.036,c2:22:89:2b:7b:c3, 2015-01-01 00:44:07.190, -0.034, -0.053, 1.018, -8.118, 5.31, 0.366, -1.373, -1.45, 126.222, 57.330, -42.042, -13.426, 22.35, 0.45212, 0.00516, -0.01859, 0.89169,
 15:28:59.036,c2:22:89:2b:7b:c3, 2015-01-01 00:44:07.190, -0.042, -0.115, 0.996, -5.249, 3.784, 0.244, -1.439, -1.412, 126.222, 57.330, -42.042, -13.426, 22.35, 0.45212, 0.00516, -0.01859, 0.89169,
 15:28:59.036,c2:22:89:2b:7b:c3, 2015-01-01 00:44:07.190, -0.003, -0.109, 0.975, 0.61, -0.854, 0.061, -1.445, -1.406, 126.222, 57.330, -42.042, -13.426, 22.35, 0.45212, 0.00516, -0.01859, 0.89169,
 15:28:59.036,c2:22:89:2b:7b:c3, 2015-01-01 00:44:07.190, 0.033, -0.077, 0.993, 5.432, -3.418, 0, -1.406, -1.434, 126.227, 57.330, -42.042, -13.426, 22.35, 0.45212, 0.00516, -0.01859, 0.89169,
 15:28:59.036,c2:22:89:2b:7b:c3, 2015-01-01 00:44:07.190, 0.065, -0.007, 1.01, 7.874, -4.7, -0.427, -1.335, -1.478, 126.222, 57.330, -42.042, -13.426, 22.35, 0.45212, 0.00516, -0.01859, 0.89169,
 15:28:59.036,c2:22:89:2b:7b:c3, 2015-01-01 00:44:07.190, 0.05, 0.051, 0.991, 4.272, -2.075, -0.061, -1.28, -1.505, 126.222, 57.330, -42.042, -13.426, 22.35, 0.45212, 0.00516, -0.01859, 0.89169,
 15:28:59.036,c2:22:89:2b:7b:c3, 2015-01-01 00:44:07.190, 0.071, 0.051, 1.004, -1.16, 0, -0.183, -1.28, -1.511, 126.222, 57.330, -42.042, -13.426, 22.35, 0.45212, 0.00516, -0.01859, 0.89169,
 15:28:59.066,c2:22:89:2b:7b:c3, 2015-01-01 00:44:07.190, 0.009, -0.001, 1.003, -6.592, 3.113, 0.305, -1.335, -1.489, 126.222, 57.330, -42.042, -13.426, 22.35, 0.45212, 0.00516, -0.01859, 0.89169,
 15:28:59.066,c2:22:89:2b:7b:c3, 2015-01-01 00:44:07.190, -0.021, -0.064, 1.01, -6.775, 4.272, 0.183, -1.401, -1.45, 126.227, 57.330, -42.042, -13.426, 22.35, 0.45212, 0.00516, -0.01859, 0.89169,
 15:28:59.066,c2:22:89:2b:7b:c3, 2015-01-01 00:44:07.190, -0.037, -0.1, 0.989, -3.784, 2.625, 0, -1.45, -1.417, 126.227, 57.330, -42.042, -13.426, 22.35, 0.45212, 0.00516, -0.01859, 0.89169,
 15:28:59.066,c2:22:89:2b:7b:c3, 2015-01-01 00:44:07.190, 0.029, -0.096, 0.991, 1.709, -2.075, -0.183, -1.45, -1.428, 126.227, 57.330, -42.042, -13.426, 22.35, 0.45212, 0.00516, -0.01859, 0.89169,
 15:28:59.127,c2:22:89:2b:7b:c3, 2015-01-01 00:44:07.190, 0.039, -0.067, 1.004, 4.456, -4.089, -0.366, -1.412, -1.461, 126.227, 57.036, -41.748, -12.250, 22.35, 0.45212, 0.00516, -0.01859, 0.89169,
 15:28:59.127,c2:22:89:2b:7b:c3, 2015-01-01 00:44:07.190, 0.053, -0.021, 1.019, 5.859, -3.052, -0.244, -1.362, -1.494, 126.227, 57.036, -41.748, -12.250, 22.35, 0.45212, 0.00516, -0.01859, 0.89169,
 15:28:59.127,c2:22:89:2b:7b:c3, 2015-01-01 00:44:07.190, 0.04, 0.037, 1.014, 2.93, -1.404, -0.061, -1.329, -1.516, 126.227, 57.036, -41.748, -12.250, 22.35, 0.45212, 0.00516, -0.01859, 0.89169,
 15:28:59.127,c2:22:89:2b:7b:c3, 2015-01-01 00:44:07.190, 0.055, 0.03, 1.011, -1.343, 0.549, 0.122, -1.335, -1.511, 126.227, 57.036, -41.748, -12.250, 22.35, 0.45212, 0.00516, -0.01859, 0.89169,
 15:28:59.157,c2:22:89:2b:7b:c3, 2015-01-01 00:44:07.190, 0.035, -0.017, 1.018, -4.333, 1.343, 0.122, -1.373, -1.505, 126.233, 57.036, -41.748, -12.250, 22.35, 0.45221, 0.00607, -0.01685, 0.89166,
 15:28:59.157,c2:22:89:2b:7b:c3, 2015-01-01 00:44:07.190, -0.012, -0.074, 1.01, -5.249, 3.113, 0.305, -1.434, -1.478, 126.233, 57.036, -41.748, -12.250, 22.35, 0.45221, 0.00607, -0.01685, 0.89166,
 15:28:59.157,c2:22:89:2b:7b:c3, 2015-01-01 00:44:07.190, -0.016, -0.098, 0.997, -1.648, 1.404, 0.244, -1.467, -1.461, 126.233, 57.036, -41.748, -12.250, 22.35, 0.45221, 0.00607, -0.01685, 0.89166,
 15:28:59.157,c2:22:89:2b:7b:c3, 2015-01-01 00:44:07.190, 0.012, -0.076, 0.988, 2.014, -1.282, 0.122, -1.461, -1.467, 126.233, 57.036, -41.748, -12.250, 22.35, 0.45221, 0.00607, -0.01685, 0.89166,
 15:28:59.187,c2:22:89:2b:7b:c3, 2015-01-01 00:44:07.190, 0.062, -0.065, 0.988, 3.54, -3.54, 0, -1.439, -1.494, 126.233, 57.036, -41.748, -12.250, 22.35, 0.45221, 0.00607, -0.01685, 0.89166,
 15:28:59.187,c2:22:89:2b:7b:c3, 2015-01-01 00:44:07.190, 0.021, -0.047, 0.973, 2.563, -1.953, 0.122, -1.423, -1.522, 126.238, 57.036, -41.748, -12.250, 22.35, 0.45221, 0.00607, -0.01685, 0.89166,
 15:28:59.187,c2:22:89:2b:7b:c3, 2015-01-01 00:44:07.190, 0.014, -0.025, 0.964, 1.892, 0.122, -0.061, -1.412, -1.522, 126.238, 57.036, -41.748, -12.250, 22.35, 0.45221, 0.00607, -0.01685, 0.89166,
 15:28:59.187,c2:22:89:2b:7b:c3, 2015-01-01 00:44:07.190, 0.021, -0.017, 0.964, -0.427, 0.671, -0.244, -1.423, -1.522, 126.238, 57.036, -41.748, -12.250, 22.35, 0.45221, 0.00607, -0.01685, 0.89166,
 15:28:59.246,c2:22:89:2b:7b:c3, 2015-01-01 00:44:07.545, 0.07, -0.052, 1.002, -2.258, 0, -0.122, -1.45, -1.522, 126.238, 57.036, -41.748, -12.250, 22.35, 0.45221, 0.00607, -0.01685, 0.89166,
 15:28:59.246,c2:22:89:2b:7b:c3, 2015-01-01 00:44:07.545, 0.021, -0.101, 1.031, -3.357, 0.793, 0.305, -1.494, -1.516, 126.244, 57.036, -41.748, -12.250, 22.35, 0.45221, 0.00607, -0.01685, 0.89166,
 15:28:59.246,c2:22:89:2b:7b:c3, 2015-01-01 00:44:07.545, -0.013, -0.109, 1.046, -0.793, 1.343, 0.244, -1.516, -1.505, 126.244, 57.036, -41.748, -12.250, 22.35, 0.45221, 0.00607, -0.01685, 0.89166,
 15:28:59.246,c2:22:89:2b:7b:c3, 2015-01-01 00:44:07.545, 0.024, -0.06, 1.013, 2.319, -1.526, 0, -1.505, -1.511, 126.244, 57.036, -41.748, -12.250, 22.35, 0.45221, 0.00607, -0.01685, 0.89166,
 15:28:59.306,c2:22:89:2b:7b:c3, 2015-01-01 00:44:07.545, 0.067, -0.068, 0.978, 1.526, -2.991, -0.244, -1.5, -1.538, 126.244, 57.036, -41.748, -12.250, 22.35, 0.45221, 0.00607, -0.01685, 0.89166,
 15:28:59.306,c2:22:89:2b:7b:c3, 2015-01-01 00:44:07.545, 0.06, -0.074, 0.983, 1.282, -2.319, -0.122, -1.494, -1.566, 126.244, 57.036, -41.748, -12.250, 22.35, 0.45221, 0.00607, -0.01685, 0.89166,
 15:28:59.306,c2:22:89:2b:7b:c3, 2015-01-01 00:44:07.545, 0.014, -0.045, 1.008, -0.427, 0.854, 0, -1.494, -1.56, 126.249, 57.036, -41.748, -12.250, 22.35, 0.45221, 0.00607, -0.01685, 0.89166,
 15:28:59.306,c2:22:89:2b:7b:c3, 2015-01-01 00:44:07.545, 0.026, -0.037, 1.031, -2.197, 0.793, 0.122, -1.516, -1.549, 126.249, 57.036, -41.748, -12.250, 22.35, 0.45221, 0.00607, -0.01685, 0.89166,
 15:28:59.306,c2:22:89:2b:7b:c3, 2015-01-01 00:44:07.545, 0.02, -0.053, 1.026, -3.052, -0.305, 0.183, -1.549, -1.549, 126.249, 57.036, -41.748, -12.250, 22.35, 0.45221, 0.00607, -0.01685, 0.89166,
 15:28:59.306,c2:22:89:2b:7b:c3, 2015-01-01 00:44:07.545, 0.011, -0.102, 1.011, -0.793, -0.183, 0.183, -1.577, -1.555, 126.255, 57.036, -41.748, -12.250, 22.35, 0.45221, 0.00607, -0.01685, 0.89166,
 15:28:59.306,c2:22:89:2b:7b:c3, 2015-01-01 00:44:07.545, -0.001, -0.086, 0.959, 1.343, 0, -0.061, -1.582, -1.555, 126.255, 57.036, -41.748, -12.250, 22.35, 0.45221, 0.00607, -0.01685, 0.89166,
 15:28:59.306,c2:22:89:2b:7b:c3, 2015-01-01 00:44:07.545, 0.05, -0.053, 0.987, 1.831, -1.831, -0.366, -1.571, -1.566, 126.255, 57.036, -41.748, -12.250, 22.35, 0.45221, 0.00607, -0.01685, 0.89166,
 15:28:59.367,c2:22:89:2b:7b:c3, 2015-01-01 00:44:07.545, 0.051, -0.064, 1.023, 0.61, -1.77, 0.122, -1.577, -1.582, 126.255, 57.036, -41.748, -12.250, 22.35, 0.45221, 0.00607, -0.01685, 0.89166,
 15:28:59.367,c2:22:89:2b:7b:c3, 2015-01-01 00:44:07.545, 0.045, -0.042, 1.044, 0.977, -0.671, 0.183, -1.577, -1.593, 126.26, 57.036, -41.748, -12.250, 22.35, 0.45221, 0.00607, -0.01685, 0.89166,
 15:28:59.367,c2:22:89:2b:7b:c3, 2015-01-01 00:44:07.545, 0.001, -0.058, 1.008, -1.099, 0.977, 0.366, -1.599, -1.588, 126.26, 57.036, -41.748, -12.250, 22.35, 0.45221, 0.00607, -0.01685, 0.89166,
 15:28:59.367,c2:22:89:2b:7b:c3, 2015-01-01 00:44:07.545, 0.033, -0.054, 0.996, -0.366, -0.183, 0, -1.615, -1.582, 126.26, 57.036, -41.748, -12.250, 22.35, 0.45221, 0.00607, -0.01685, 0.89166,
 15:28:59.397,c2:22:89:2b:7b:c3, 2015-01-01 00:44:07.545, 0.02, -0.072, 0.992, -1.099, -0.122, -0.122, -1.637, -1.588, 126.266, 57.036, -41.748, -12.250, 22.35, 0.45221, 0.00607, -0.01685, 0.89166,
 15:28:59.397,c2:22:89:2b:7b:c3, 2015-01-01 00:44:07.545, 0.028, -0.083, 1.005, -0.061, 0, 0, -1.653, -1.588, 126.266, 57.036, -41.748, -12.250, 22.35, 0.45221, 0.00607, -0.01685, 0.89166,
 15:28:59.398,c2:22:89:2b:7b:c3, 2015-01-01 00:44:07.545, 0.036, -0.057, 1.01, 1.526, -1.16, -0.305, -1.648, -1.599, 126.266, 57.036, -41.748, -12.250, 22.35, 0.45221, 0.00607, -0.01685, 0.89166,
 15:28:59.398,c2:22:89:2b:7b:c3, 2015-01-01 00:44:07.545, 0.03, -0.072, 1.007, -0.427, 0, 0.183, -1.664, -1.599, 126.271, 57.036, -41.748, -12.250, 22.35, 0.45221, 0.00607, -0.01685, 0.89166,
 15:28:59.426,c2:22:89:2b:7b:c3, 2015-01-01 00:44:07.545, 0.037, -0.066, 1.012, 0.793, -0.916, 0, -1.67, -1.604, 126.271, 56.840, -41.650, -11.466, 22.35, 0.45221, 0.00607, -0.01685, 0.89166,
 15:28:59.426,c2:22:89:2b:7b:c3, 2015-01-01 00:44:07.545, 0.017, -0.064, 0.996, -0.366, 0.427, 0, -1.681, -1.604, 126.271, 56.840, -41.650, -11.466, 22.35, 0.45221, 0.00607, -0.01685, 0.89166,
