#timestamp [ns], temperature [degC], w_RS_S_x [rad s^-1], w_RS_S_y [rad s^-1], w_RS_S_z [rad s^-1], a_RS_S_x [m s^-2], a_RS_S_y [m s^-2], a_RS_S_z [m s^-2]
0,22.09,0.0,0.0,0.0,0.04905,0.31392000000000003,9.908100000000001
5050505,22.09,0.0,0.0,0.0,0.06867000000000001,0.35316,9.908100000000001
10101010,22.09,0.0,0.0,0.0,0.07848000000000001,0.33354000000000006,9.908100000000001
15151515,22.09,0.0,0.0,0.0,0.07848000000000001,0.36297,9.908100000000001
20202020,22.09,0.0,0.0,0.0,0.08829,0.35316,9.85905
25252525,22.09,0.0,0.0,0.0,0.05886,0.33354000000000006,9.888480000000001
30303030,22.09,0.0,0.0,0.0,0.08829,0.32373,9.89829
35353535,22.09,0.0,0.0,0.0,0.08829,0.33354000000000006,9.91791
40404040,22.09,0.0,0.0,0.0,0.05886,0.33354000000000006,9.87867
45454545,22.09,0.0,0.0,0.0,0.07848000000000001,0.32373,9.87867
50505050,22.09,0.0,0.0,0.0,0.07848000000000001,0.32373,9.86886
55555555,22.09,0.0,0.0,0.0,0.08829,0.34335000000000004,9.89829
60606060,22.09,0.0,0.0,0.0,0.06867000000000001,0.34335000000000004,9.87867
65656565,22.09,0.0,0.0,0.0,0.0981,0.35316,9.89829
70707070,22.09,0.0,0.0,0.0,0.04905,0.34335000000000004,9.908100000000001
75757575,22.09,0.0,0.0,0.0,0.07848000000000001,0.33354000000000006,9.888480000000001
80808080,22.09,0.0,0.0,0.0,0.07848000000000001,0.32373,9.91791
85858585,22.09,0.0,0.0,0.0,0.04905,0.33354000000000006,9.89829
90909090,22.09,0.0,0.0,0.0,0.05886,0.35316,9.888480000000001
95959595,22.09,0.0,0.0,0.0,0.06867000000000001,0.34335000000000004,9.89829
101010100,22.09,0.0,0.0,0.0,0.06867000000000001,0.32373,9.888480000000001
106060605,22.09,0.0,0.0,0.0,0.06867000000000001,0.35316,9.86886
111111110,22.09,0.0,0.0,0.0,0.06867000000000001,0.31392000000000003,9.87867
116161615,22.09,0.0,0.0,0.0,0.06867000000000001,0.32373,9.86886
121212120,22.09,0.0,0.0,0.0,0.08829,0.31392000000000003,9.87867
126262625,22.09,0.0,0.0,0.0,0.06867000000000001,0.34335000000000004,9.888480000000001
131313130,22.09,0.0,0.0,0.0,0.07848000000000001,0.33354000000000006,9.888480000000001
136363635,22.09,0.0,0.0,0.0,0.039240000000000004,0.35316,9.89829
141414140,22.09,0.0,0.0,0.0,0.05886,0.30411,9.91791
146464645,22.09,0.0,0.0,0.0,0.08829,0.36297,9.86886
151515150,22.09,0.0,0.0,0.0,0.05886,0.36297,9.85905
156565655,22.09,0.0,0.0,0.0,0.05886,0.32373,9.89829
161616160,22.09,0.0,0.0,0.0,0.06867000000000001,0.35316,9.888480000000001
166666665,22.09,0.0,0.0,0.0,0.02943,0.2943,9.888480000000001
171717170,22.09,0.0,0.0,0.0,0.06867000000000001,0.32373,9.91791
176767675,22.09,0.0,0.0,0.0,0.06867000000000001,0.2943,9.86886
181818180,22.09,0.0,0.0,0.0,0.06867000000000001,0.36297,9.888480000000001
186868685,22.09,0.0,0.0,0.0,0.05886,0.35316,9.87867
191919190,22.09,0.0,0.0,0.0,0.07848000000000001,0.37278,9.888480000000001
196969695,22.09,0.0,0.0,0.0,0.07848000000000001,0.34335000000000004,9.86886
202020200,22.09,0.0,0.0,0.0,0.07848000000000001,0.32373,9.908100000000001
207070705,22.09,0.0,0.0,0.0,0.06867000000000001,0.31392000000000003,9.89829
212121210,22.09,0.0,0.0,0.0,0.06867000000000001,0.33354000000000006,9.888480000000001
217171715,22.09,0.0,0.0,0.0,0.07848000000000001,0.31392000000000003,9.888480000000001
222222220,22.09,0.0,0.0,0.0,0.08829,0.33354000000000006,9.888480000000001
227272725,22.09,0.0,0.0,0.0,0.06867000000000001,0.33354000000000006,9.86886
232323230,22.09,0.0,0.0,0.0,0.07848000000000001,0.32373,9.87867
237373735,22.09,0.0,0.0,0.0,0.07848000000000001,0.34335000000000004,9.85905
242424240,22.09,0.0,0.0,0.0,0.07848000000000001,0.32373,9.888480000000001
247474745,22.09,0.0,0.0,0.0,0.0981,0.32373,9.91791
252525250,22.09,0.0,0.0,0.0,0.06867000000000001,0.31392000000000003,9.89829
257575755,22.09,0.0,0.0,0.0,0.07848000000000001,0.34335000000000004,9.908100000000001
262626260,22.09,0.0,0.0,0.0,0.07848000000000001,0.33354000000000006,9.91791
267676765,22.09,0.0,0.0,0.0,0.06867000000000001,0.34335000000000004,9.83943
272727270,22.09,0.0,0.0,0.0,0.05886,0.34335000000000004,9.84924
277777775,22.09,0.0,0.0,0.0,0.05886,0.33354000000000006,9.89829
282828280,22.09,0.0,0.0,0.0,0.05886,0.2943,9.908100000000001
287878785,22.09,0.0,0.0,0.0,0.08829,0.31392000000000003,9.888480000000001
292929290,22.09,0.0,0.0,0.0,0.06867000000000001,0.32373,9.908100000000001
297979795,22.09,0.0,0.0,0.0,0.06867000000000001,0.32373,9.888480000000001
303030300,22.09,0.0,0.0,0.0,0.07848000000000001,0.35316,9.888480000000001
308080805,22.09,0.0,0.0,0.0,0.05886,0.35316,9.89829
313131310,22.09,0.0,0.0,0.0,0.06867000000000001,0.34335000000000004,9.86886
318181815,22.09,0.0,0.0,0.0,0.07848000000000001,0.36297,9.87867
323232320,22.09,0.0,0.0,0.0,0.07848000000000001,0.32373,9.89829
328282825,22.09,0.0,0.0,0.0,0.08829,0.34335000000000004,9.87867
333333330,22.09,0.0,0.0,0.0,0.04905,0.33354000000000006,9.888480000000001
338383835,22.09,0.0,0.0,0.0,0.06867000000000001,0.32373,9.91791
343434340,22.09,0.0,0.0,0.0,0.05886,0.33354000000000006,9.888480000000001
348484845,22.09,0.0,0.0,0.0,0.05886,0.33354000000000006,9.86886
353535350,22.09,0.0,0.0,0.0,0.05886,0.33354000000000006,9.87867
358585855,22.09,0.0,0.0,0.0,0.06867000000000001,0.32373,9.84924
363636360,22.09,0.0,0.0,0.0,0.07848000000000001,0.32373,9.908100000000001
368686865,22.09,0.0,0.0,0.0,0.06867000000000001,0.32373,9.908100000000001
373737370,22.09,0.0,0.0,0.0,0.06867000000000001,0.33354000000000006,9.89829
378787875,22.09,0.0,0.0,0.0,0.07848000000000001,0.31392000000000003,9.92772
383838380,22.09,0.0,0.0,0.0,0.07848000000000001,0.33354000000000006,9.87867
388888885,22.09,0.0,0.0,0.0,0.07848000000000001,0.33354000000000006,9.85905
393939390,22.09,0.0,0.0,0.0,0.06867000000000001,0.34335000000000004,9.86886
398989895,22.09,0.0,0.0,0.0,0.05886,0.34335000000000004,9.86886
404040400,22.09,0.0,0.0,0.0,0.05886,0.35316,9.85905
409090905,22.09,0.0,0.0,0.0,0.04905,0.31392000000000003,9.86886
414141410,22.09,0.0,0.0,0.0,0.06867000000000001,0.31392000000000003,9.888480000000001
419191915,22.09,0.0,0.0,0.0,0.05886,0.31392000000000003,9.89829
424242420,22.09,0.0,0.0,0.0,0.05886,0.32373,9.87867
429292925,22.09,0.0,0.0,0.0,0.08829,0.33354000000000006,9.888480000000001
434343430,22.09,0.0,0.0,0.0,0.06867000000000001,0.35316,9.85905
439393935,22.09,0.0,0.0,0.0,0.06867000000000001,0.32373,9.86886
444444440,22.09,0.0,0.0,0.0,0.07848000000000001,0.33354000000000006,9.89829
449494945,22.09,0.0,0.0,0.0,0.08829,0.33354000000000006,9.89829
454545450,22.09,0.0,0.0,0.0,0.08829,0.34335000000000004,9.91791
459595955,22.09,0.0,0.0,0.0,0.04905,0.32373,9.87867
464646460,22.09,0.0,0.0,0.0,0.07848000000000001,0.35316,9.87867
469696965,22.09,0.0,0.0,0.0,0.06867000000000001,0.34335000000000004,9.87867
474747470,22.09,0.0,0.0,0.0,0.06867000000000001,0.35316,9.83943
479797975,22.09,0.0,0.0,0.0,0.05886,0.34335000000000004,9.85905
484848480,22.09,0.0,0.0,0.0,0.06867000000000001,0.32373,9.888480000000001
489898985,22.09,0.0,0.0,0.0,0.08829,0.32373,9.87867
494949490,22.09,0.0,0.0,0.0,0.06867000000000001,0.31392000000000003,9.89829
499999995,22.09,0.0,0.0,0.0,0.05886,0.33354000000000006,9.908100000000001
505050500,22.09,0.0,0.0,0.0,0.07848000000000001,0.36297,9.888480000000001
510101005,22.09,0.0,0.0,0.0,0.06867000000000001,0.36297,9.86886
515151510,22.09,0.0,0.0,0.0,0.07848000000000001,0.33354000000000006,9.85905
520202015,22.09,0.0,0.0,0.0,0.04905,0.34335000000000004,9.86886
525252520,22.09,0.0,0.0,0.0,0.08829,0.35316,9.87867
530303025,22.09,0.0,0.0,0.0,0.07848000000000001,0.32373,9.86886
535353530,22.09,0.0,0.0,0.0,0.04905,0.30411,9.888480000000001
540404035,22.09,0.0,0.0,0.0,0.05886,0.32373,9.908100000000001
545454540,22.09,0.0,0.0,0.0,0.07848000000000001,0.32373,9.888480000000001
550505045,22.09,0.0,0.0,0.0,0.08829,0.33354000000000006,9.86886
555555550,22.09,0.0,0.0,0.0,0.06867000000000001,0.32373,9.908100000000001
560606055,22.09,0.0,0.0,0.0,0.08829,0.30411,9.86886
565656560,22.09,0.0,0.0,0.0,0.07848000000000001,0.31392000000000003,9.84924
570707065,22.09,0.0,0.0,0.0,0.06867000000000001,0.31392000000000003,9.888480000000001
575757570,22.09,0.0,0.0,0.0,0.06867000000000001,0.32373,9.908100000000001
580808075,22.09,0.0,0.0,0.0,0.08829,0.32373,9.908100000000001
585858580,22.09,0.0,0.0,0.0,0.06867000000000001,0.33354000000000006,9.89829
590909085,22.09,0.0,0.0,0.0,0.05886,0.34335000000000004,9.888480000000001
595959590,22.09,0.0,0.0,0.0,0.08829,0.35316,9.87867
601010095,22.09,0.0,0.0,0.0,0.06867000000000001,0.34335000000000004,9.86886
606060600,22.09,0.0,0.0,0.0,0.07848000000000001,0.34335000000000004,9.86886
611111105,22.09,0.0,0.0,0.0,0.05886,0.32373,9.89829
616161610,22.09,0.0,0.0,0.0,0.039240000000000004,0.33354000000000006,9.888480000000001
621212115,22.09,0.0,0.0,0.0,0.06867000000000001,0.34335000000000004,9.89829
626262620,22.09,0.0,0.0,0.0,0.06867000000000001,0.34335000000000004,9.89829
631313125,22.09,0.0,0.0,0.0,0.07848000000000001,0.34335000000000004,9.888480000000001
636363630,22.09,0.0,0.0,0.0,0.06867000000000001,0.33354000000000006,9.87867
641414135,22.09,0.0,0.0,0.0,0.05886,0.33354000000000006,9.87867
646464640,22.09,0.0,0.0,0.0,0.0981,0.33354000000000006,9.908100000000001
651515145,22.09,0.0,0.0,0.0,0.08829,0.32373,9.91791
656565650,22.09,0.0,0.0,0.0,0.05886,0.31392000000000003,9.888480000000001
661616155,22.09,0.0,0.0,0.0,0.07848000000000001,0.32373,9.87867
666666660,22.09,0.0,0.0,0.0,0.06867000000000001,0.32373,9.89829
671717165,22.09,0.0,0.0,0.0,0.06867000000000001,0.32373,9.87867
676767670,22.09,0.0,0.0,0.0,0.07848000000000001,0.36297,9.86886
681818175,22.09,0.0,0.0,0.0,0.0981,0.34335000000000004,9.86886
686868680,22.09,0.0,0.0,0.0,0.07848000000000001,0.34335000000000004,9.86886
691919185,22.09,0.0,0.0,0.0,0.06867000000000001,0.34335000000000004,9.87867
696969690,22.09,0.0,0.0,0.0,0.07848000000000001,0.34335000000000004,9.89829
702020195,22.09,0.0,0.0,0.0,0.04905,0.36297,9.908100000000001
707070700,22.09,0.0,0.0,0.0,0.06867000000000001,0.33354000000000006,9.908100000000001
712121205,22.09,0.0,0.0,0.0,0.07848000000000001,0.31392000000000003,9.87867
717171710,22.09,0.0,0.0,0.0,0.05886,0.32373,9.86886
722222215,22.09,0.0,0.0,0.0,0.06867000000000001,0.31392000000000003,9.85905
727272720,22.09,0.0,0.0,0.0,0.05886,0.31392000000000003,9.86886
732323225,22.09,0.0,0.0,0.0,0.07848000000000001,0.32373,9.86886
737373730,22.09,0.0,0.0,0.0,0.06867000000000001,0.32373,9.89829
742424235,22.09,0.0,0.0,0.0,0.06867000000000001,0.33354000000000006,9.908100000000001
747474740,22.09,0.0,0.0,0.0,0.07848000000000001,0.34335000000000004,9.89829
752525245,22.09,0.0,0.0,0.0,0.07848000000000001,0.33354000000000006,9.908100000000001
757575750,22.09,0.0,0.0,0.0,0.07848000000000001,0.34335000000000004,9.908100000000001
762626255,22.09,0.0,0.0,0.0,0.06867000000000001,0.34335000000000004,9.85905
767676760,22.09,0.0,0.0,0.0,0.06867000000000001,0.37278,9.888480000000001
772727265,22.09,0.0,0.0,0.0,0.06867000000000001,0.33354000000000006,9.89829
777777770,22.09,0.0,0.0,0.0,0.06867000000000001,0.33354000000000006,9.888480000000001
782828275,22.09,0.0,0.0,0.0,0.05886,0.31392000000000003,9.888480000000001
787878780,22.09,0.0,0.0,0.0,0.07848000000000001,0.32373,9.87867
792929285,22.09,0.0,0.0,0.0,0.0981,0.35316,9.908100000000001
797979790,22.09,0.0,0.0,0.0,0.07848000000000001,0.32373,9.87867
803030295,22.09,0.0,0.0,0.0,0.07848000000000001,0.37278,9.89829
808080800,22.09,0.0,0.0,0.0,0.0981,0.35316,9.86886
813131305,22.09,0.0,0.0,0.0,0.07848000000000001,0.33354000000000006,9.888480000000001
818181810,22.09,0.0,0.0,0.0,0.05886,0.33354000000000006,9.888480000000001
823232315,22.09,0.0,0.0,0.0,0.039240000000000004,0.32373,9.91791
828282820,22.09,0.0,0.0,0.0,0.039240000000000004,0.31392000000000003,9.86886
833333325,22.09,0.0,0.0,0.0,0.06867000000000001,0.34335000000000004,9.86886
838383830,22.09,0.0,0.0,0.0,0.039240000000000004,0.31392000000000003,9.888480000000001
843434335,22.09,0.0,0.0,0.0,0.06867000000000001,0.32373,9.86886
848484840,22.09,0.0,0.0,0.0,0.06867000000000001,0.36297,9.908100000000001
853535345,22.09,0.0,0.0,0.0,0.05886,0.32373,9.89829
858585850,22.09,0.0,0.0,0.0,0.07848000000000001,0.32373,9.89829
863636355,22.09,0.0,0.0,0.0,0.08829,0.31392000000000003,9.87867
868686860,22.09,0.0,0.0,0.0,0.06867000000000001,0.32373,9.908100000000001
873737365,22.09,0.0,0.0,0.0,0.0981,0.35316,9.86886
878787870,22.09,0.0,0.0,0.0,0.07848000000000001,0.33354000000000006,9.86886
883838375,22.09,0.0,0.0,0.0,0.05886,0.33354000000000006,9.888480000000001
888888880,22.09,0.0,0.0,0.0,0.08829,0.31392000000000003,9.888480000000001
893939385,22.09,0.0,0.0,0.0,0.06867000000000001,0.30411,9.85905
898989890,22.09,0.0,0.0,0.0,0.0981,0.31392000000000003,9.87867
904040395,22.09,0.0,0.0,0.0,0.06867000000000001,0.30411,9.888480000000001
909090900,22.09,0.0,0.0,0.0,0.04905,0.34335000000000004,9.908100000000001
914141405,22.09,0.0,0.0,0.0,0.05886,0.35316,9.89829
919191910,22.09,0.0,0.0,0.0,0.04905,0.34335000000000004,9.86886
924242415,22.09,0.0,0.0,0.0,0.05886,0.34335000000000004,9.86886
929292920,22.09,0.0,0.0,0.0,0.07848000000000001,0.35316,9.86886
934343425,22.09,0.0,0.0,0.0,0.08829,0.31392000000000003,9.89829
939393930,22.09,0.0,0.0,0.0,0.06867000000000001,0.34335000000000004,9.92772
944444435,22.09,0.0,0.0,0.0,0.06867000000000001,0.33354000000000006,9.908100000000001
949494940,22.09,0.0,0.0,0.0,0.06867000000000001,0.35316,9.888480000000001
954545445,22.09,0.0,0.0,0.0,0.06867000000000001,0.35316,9.91791
959595950,22.09,0.0,0.0,0.0,0.07848000000000001,0.34335000000000004,9.86886
964646455,22.09,0.0,0.0,0.0,0.05886,0.33354000000000006,9.87867
969696960,22.09,0.0,0.0,0.0,0.06867000000000001,0.36297,9.86886
974747465,22.09,0.0,0.0,0.0,0.04905,0.33354000000000006,9.908100000000001
979797970,22.09,0.0,0.0,0.0,0.07848000000000001,0.31392000000000003,9.89829
984848475,22.09,0.0,0.0,0.0,0.05886,0.31392000000000003,9.87867
989898980,22.09,0.0,0.0,0.0,0.04905,0.34335000000000004,9.908100000000001
994949485,22.09,0.0,0.0,0.0,0.05886,0.35316,9.89829
999999990,22.09,0.0,0.0,0.0,0.08829,0.34335000000000004,9.87867
1005050495,22.09,0.0,0.0,0.0,0.07848000000000001,0.33354000000000006,9.85905
1010101000,22.09,0.0,0.0,0.0,0.07848000000000001,0.36297,9.86886
1015151505,22.09,0.0,0.0,0.0,0.04905,0.35316,9.89829
1020202010,22.09,0.0,0.0,0.0,0.05886,0.32373,9.908100000000001
1025252515,22.09,0.0,0.0,0.0,0.07848000000000001,0.32373,9.888480000000001
1030303020,22.09,0.0,0.0,0.0,0.07848000000000001,0.31392000000000003,9.91791
1035353525,22.09,0.0,0.0,0.0,0.06867000000000001,0.34335000000000004,9.87867
1040404030,22.09,0.0,0.0,0.0,0.05886,0.33354000000000006,9.888480000000001
1045454535,22.09,0.0,0.0,0.0,0.05886,0.36297,9.888480000000001
1050505040,22.09,0.0,0.0,0.0,0.06867000000000001,0.34335000000000004,9.87867
1055555545,22.09,0.0,0.0,0.0,0.07848000000000001,0.34335000000000004,9.85905
1060606050,22.09,0.0,0.0,0.0,0.07848000000000001,0.34335000000000004,9.87867
1065656555,22.09,0.0,0.0,0.0,0.05886,0.30411,9.85905
1070707060,22.09,0.0,0.0,0.0,0.05886,0.33354000000000006,9.908100000000001
1075757565,22.09,0.0,0.0,0.0,0.06867000000000001,0.34335000000000004,9.888480000000001
1080808070,22.09,0.0,0.0,0.0,0.07848000000000001,0.33354000000000006,9.888480000000001
1085858575,22.09,0.0,0.0,0.0,0.08829,0.33354000000000006,9.89829
1090909080,22.09,0.0,0.0,0.0,0.06867000000000001,0.35316,9.86886
1095959585,22.09,0.0,0.0,0.0,0.07848000000000001,0.33354000000000006,9.908100000000001
1101010090,22.09,0.0,0.0,0.0,0.0981,0.31392000000000003,9.888480000000001
1106060595,22.09,0.0,0.0,0.0,0.05886,0.31392000000000003,9.87867
1111111100,22.09,0.0,0.0,0.0,0.05886,0.33354000000000006,9.91791
1116161605,22.09,0.0,0.0,0.0,0.04905,0.34335000000000004,9.888480000000001
1121212110,22.09,0.0,0.0,0.0,0.04905,0.34335000000000004,9.89829
1126262615,22.09,0.0,0.0,0.0,0.04905,0.36297,9.85905
1131313120,22.09,0.0,0.0,0.0,0.07848000000000001,0.32373,9.86886
1136363625,22.09,0.0,0.0,0.0,0.06867000000000001,0.33354000000000006,9.86886
1141414130,22.09,0.0,0.0,0.0,0.06867000000000001,0.32373,9.888480000000001
1146464635,22.09,0.0,0.0,0.0,0.06867000000000001,0.31392000000000003,9.888480000000001
1151515140,22.09,0.0,0.0,0.0,0.04905,0.33354000000000006,9.91791
1156565645,22.09,0.0,0.0,0.0,0.06867000000000001,0.33354000000000006,9.908100000000001
1161616150,22.09,0.0,0.0,0.0,0.06867000000000001,0.32373,9.87867
1166666655,22.09,0.0,0.0,0.0,0.06867000000000001,0.32373,9.908100000000001
1171717160,22.09,0.0,0.0,0.0,0.0981,0.36297,9.85905
1176767665,22.09,0.0,0.0,0.0,0.04905,0.33354000000000006,9.89829
1181818170,22.09,0.0,0.0,0.0,0.05886,0.36297,9.89829
1186868675,22.09,0.0,0.0,0.0,0.05886,0.33354000000000006,9.87867
1191919180,22.09,0.0,0.0,0.0,0.05886,0.33354000000000006,9.89829
1196969685,22.09,0.0,0.0,0.0,0.07848000000000001,0.31392000000000003,9.89829
1202020190,22.09,0.0,0.0,0.0,0.05886,0.33354000000000006,9.888480000000001
1207070695,22.09,0.0,0.0,0.0,0.06867000000000001,0.34335000000000004,9.85905
1212121200,22.09,0.0,0.0,0.0,0.06867000000000001,0.35316,9.888480000000001
1217171705,22.09,0.0,0.0,0.0,0.06867000000000001,0.34335000000000004,9.85905
1222222210,22.09,0.0,0.0,0.0,0.07848000000000001,0.33354000000000006,9.888480000000001
1227272715,22.09,0.0,0.0,0.0,0.05886,0.34335000000000004,9.86886
1232323220,22.09,0.0,0.0,0.0,0.06867000000000001,0.35316,9.888480000000001
1237373725,22.09,0.0,0.0,0.0,0.06867000000000001,0.32373,9.87867
1242424230,22.09,0.0,0.0,0.0,0.06867000000000001,0.34335000000000004,9.89829
1247474735,22.09,0.0,0.0,0.0,0.05886,0.33354000000000006,9.888480000000001
1252525240,22.09,0.0,0.0,0.0,0.04905,0.36297,9.87867
1257575745,22.09,0.0,0.0,0.0,0.05886,0.35316,9.86886
1262626250,22.09,0.0,0.0,0.0,0.04905,0.32373,9.888480000000001
1267676755,22.09,0.0,0.0,0.0,0.05886,0.33354000000000006,9.888480000000001
1272727260,22.09,0.0,0.0,0.0,0.08829,0.30411,9.87867
1277777765,22.09,0.0,0.0,0.0,0.07848000000000001,0.32373,9.86886
1282828270,22.09,0.0,0.0,0.0,0.07848000000000001,0.32373,9.888480000000001
1287878775,22.09,0.0,0.0,0.0,0.039240000000000004,0.31392000000000003,9.87867
1292929280,22.09,0.0,0.0,0.0,0.05886,0.33354000000000006,9.888480000000001
1297979785,22.09,0.0,0.0,0.0,0.05886,0.32373,9.87867
1303030290,22.09,0.0,0.0,0.0,0.05886,0.36297,9.85905
1308080795,22.09,0.0,0.0,0.0,0.06867000000000001,0.34335000000000004,9.888480000000001
1313131300,22.09,0.0,0.0,0.0,0.039240000000000004,0.33354000000000006,9.908100000000001
1318181805,22.09,0.0,0.0,0.0,0.039240000000000004,0.32373,9.888480000000001
1323232310,22.09,0.0,0.0,0.0,0.05886,0.33354000000000006,9.89829
1328282815,22.09,0.0,0.0,0.0,0.05886,0.31392000000000003,9.89829
1333333320,22.09,0.0,0.0,0.0,0.06867000000000001,0.31392000000000003,9.888480000000001
1338383825,22.09,0.0,0.0,0.0,0.08829,0.31392000000000003,9.86886
1343434330,22.09,0.0,0.0,0.0,0.06867000000000001,0.32373,9.86886
1348484835,22.09,0.0,0.0,0.0,0.04905,0.34335000000000004,9.89829
1353535340,22.09,0.0,0.0,0.0,0.06867000000000001,0.34335000000000004,9.89829
1358585845,22.09,0.0,0.0,0.0,0.08829,0.31392000000000003,9.89829
1363636350,22.09,0.0,0.0,0.0,0.0981,0.31392000000000003,9.888480000000001
1368686855,22.09,0.0,0.0,0.0,0.07848000000000001,0.33354000000000006,9.89829
1373737360,22.09,0.0,0.0,0.0,0.05886,0.35316,9.89829
1378787865,22.09,0.0,0.0,0.0,0.06867000000000001,0.36297,9.87867
1383838370,22.09,0.0,0.0,0.0,0.06867000000000001,0.33354000000000006,9.888480000000001
1388888875,22.09,0.0,0.0,0.0,0.04905,0.34335000000000004,9.87867
1393939380,22.09,0.0,0.0,0.0,0.04905,0.31392000000000003,9.888480000000001
1398989885,22.09,0.0,0.0,0.0,0.05886,0.31392000000000003,9.91791
1404040390,22.09,0.0,0.0,0.0,0.08829,0.34335000000000004,9.85905
1409090895,22.09,0.0,0.0,0.0,0.04905,0.31392000000000003,9.888480000000001
1414141400,22.09,0.0,0.0,0.0,0.05886,0.35316,9.888480000000001
1419191905,22.09,0.0,0.0,0.0,0.05886,0.33354000000000006,9.86886
1424242410,22.09,0.0,0.0,0.0,0.05886,0.32373,9.87867
1429292915,22.09,0.0,0.0,0.0,0.07848000000000001,0.33354000000000006,9.89829
1434343420,22.09,0.0,0.0,0.0,0.08829,0.31392000000000003,9.908100000000001
1439393925,22.09,0.0,0.0,0.0,0.05886,0.32373,9.87867
1444444430,22.09,0.0,0.0,0.0,0.06867000000000001,0.33354000000000006,9.908100000000001
1449494935,22.09,0.0,0.0,0.0,0.07848000000000001,0.34335000000000004,9.89829
1454545440,22.09,0.0,0.0,0.0,0.05886,0.35316,9.86886
1459595945,22.09,0.0,0.0,0.0,0.08829,0.35316,9.87867
1464646450,22.09,0.0,0.0,0.0,0.07848000000000001,0.32373,9.87867
1469696955,22.09,0.0,0.0,0.0,0.07848000000000001,0.31392000000000003,9.91791
1474747460,22.09,0.0,0.0,0.0,0.05886,0.33354000000000006,9.908100000000001
1479797965,22.09,0.0,0.0,0.0,0.06867000000000001,0.32373,9.89829
1484848470,22.09,0.0,0.0,0.0,0.06867000000000001,0.31392000000000003,9.908100000000001
1489898975,22.09,0.0,0.0,0.0,0.04905,0.34335000000000004,9.85905
1494949480,22.09,0.0,0.0,0.0,0.08829,0.32373,9.83943
1499999985,22.09,0.0,0.0,0.0,0.06867000000000001,0.32373,9.86886
1505050490,22.09,0.0,0.0,0.0,0.07848000000000001,0.32373,9.908100000000001
1510100995,22.09,0.0,0.0,0.0,0.07848000000000001,0.31392000000000003,9.888480000000001
1515151500,22.09,0.0,0.0,0.0,0.07848000000000001,0.33354000000000006,9.89829
1520202005,22.09,0.0,0.0,0.0,0.039240000000000004,0.34335000000000004,9.89829
1525252510,22.09,0.0,0.0,0.0,0.06867000000000001,0.33354000000000006,9.908100000000001
1530303015,22.09,0.0,0.0,0.0,0.08829,0.35316,9.908100000000001
1535353520,22.09,0.0,0.0,0.0,0.06867000000000001,0.33354000000000006,9.87867
1540404025,22.09,0.0,0.0,0.0,0.08829,0.31392000000000003,9.85905
1545454530,22.09,0.0,0.0,0.0,0.07848000000000001,0.30411,9.888480000000001
1550505035,22.09,0.0,0.0,0.0,0.07848000000000001,0.32373,9.89829
1555555540,22.09,0.0,0.0,0.0,0.07848000000000001,0.33354000000000006,9.888480000000001
1560606045,22.09,0.0,0.0,0.0,0.05886,0.32373,9.89829
1565656550,22.09,0.0,0.0,0.0,0.07848000000000001,0.33354000000000006,9.87867
1570707055,22.09,0.0,0.0,0.0,0.04905,0.32373,9.89829
1575757560,22.09,0.0,0.0,0.0,0.05886,0.34335000000000004,9.86886
1580808065,22.09,0.0,0.0,0.0,0.07848000000000001,0.32373,9.86886
1585858570,22.09,0.0,0.0,0.0,0.07848000000000001,0.34335000000000004,9.87867
1590909075,22.09,0.0,0.0,0.0,0.07848000000000001,0.33354000000000006,9.87867
1595959580,22.09,0.0,0.0,0.0,0.08829,0.31392000000000003,9.89829
1601010085,22.09,0.0,0.0,0.0,0.07848000000000001,0.32373,9.908100000000001
1606060590,22.09,0.0,0.0,0.0,0.04905,0.32373,9.87867
1611111095,22.09,0.0,0.0,0.0,0.04905,0.34335000000000004,9.86886
1616161600,22.09,0.0,0.0,0.0,0.06867000000000001,0.32373,9.888480000000001
1621212105,22.09,0.0,0.0,0.0,0.08829,0.33354000000000006,9.86886
1626262610,22.09,0.0,0.0,0.0,0.07848000000000001,0.32373,9.86886
1631313115,22.09,0.0,0.0,0.0,0.05886,0.32373,9.89829
1636363620,22.09,0.0,0.0,0.0,0.04905,0.30411,9.89829
1641414125,22.09,0.0,0.0,0.0,0.07848000000000001,0.30411,9.87867
1646464630,22.09,0.0,0.0,0.0,0.06867000000000001,0.34335000000000004,9.86886
1651515135,22.09,0.0,0.0,0.0,0.05886,0.36297,9.87867
1656565640,22.09,0.0,0.0,0.0,0.06867000000000001,0.31392000000000003,9.908100000000001
1661616145,22.09,0.0,0.0,0.0,0.07848000000000001,0.34335000000000004,9.85905
1666666650,22.09,0.0,0.0,0.0,0.07848000000000001,0.34335000000000004,9.87867
1671717155,22.09,0.0,0.0,0.0,0.07848000000000001,0.35316,9.888480000000001
1676767660,22.09,0.0,0.0,0.0,0.05886,0.32373,9.888480000000001
1681818165,22.09,0.0,0.0,0.0,0.06867000000000001,0.35316,9.908100000000001
1686868670,22.09,0.0,0.0,0.0,0.05886,0.31392000000000003,9.888480000000001
1691919175,22.09,0.0,0.0,0.0,0.07848000000000001,0.35316,9.908100000000001
1696969680,22.09,0.0,0.0,0.0,0.06867000000000001,0.33354000000000006,9.87867
1702020185,22.09,0.0,0.0,0.0,0.07848000000000001,0.34335000000000004,9.87867
1707070690,22.09,0.0,0.0,0.0,0.05886,0.33354000000000006,9.86886
1712121195,22.09,0.0,0.0,0.0,0.06867000000000001,0.33354000000000006,9.86886
1717171700,22.09,0.0,0.0,0.0,0.05886,0.33354000000000006,9.89829
1722222205,22.09,0.0,0.0,0.0,0.06867000000000001,0.31392000000000003,9.91791
1727272710,22.09,0.0,0.0,0.0,0.06867000000000001,0.31392000000000003,9.888480000000001
1732323215,22.09,0.0,0.0,0.0,0.05886,0.33354000000000006,9.85905
1737373720,22.09,0.0,0.0,0.0,0.06867000000000001,0.34335000000000004,9.86886
1742424225,22.09,0.0,0.0,0.0,0.05886,0.35316,9.87867
1747474730,22.09,0.0,0.0,0.0,0.08829,0.35316,9.85905
1752525235,22.09,0.0,0.0,0.0,0.07848000000000001,0.32373,9.87867
1757575740,22.09,0.0,0.0,0.0,0.08829,0.33354000000000006,9.89829
1762626245,22.09,0.0,0.0,0.0,0.07848000000000001,0.35316,9.89829
1767676750,22.09,0.0,0.0,0.0,0.06867000000000001,0.30411,9.91791
1772727255,22.09,0.0,0.0,0.0,0.05886,0.32373,9.86886
1777777760,22.09,0.0,0.0,0.0,0.05886,0.35316,9.87867
1782828265,22.09,0.0,0.0,0.0,0.05886,0.35316,9.85905
1787878770,22.09,0.0,0.0,0.0,0.05886,0.33354000000000006,9.86886
1792929275,22.09,0.0,0.0,0.0,0.06867000000000001,0.33354000000000006,9.86886
1797979780,22.09,0.0,0.0,0.0,0.06867000000000001,0.32373,9.89829
1803030285,22.09,0.0,0.0,0.0,0.04905,0.35316,9.888480000000001
1808080790,22.09,0.0,0.0,0.0,0.07848000000000001,0.35316,9.89829
1813131295,22.09,0.0,0.0,0.0,0.06867000000000001,0.31392000000000003,9.908100000000001
1818181800,22.09,0.0,0.0,0.0,0.05886,0.35316,9.87867
1823232305,22.09,0.0,0.0,0.0,0.08829,0.36297,9.87867
1828282810,22.09,0.0,0.0,0.0,0.05886,0.34335000000000004,9.85905
1833333315,22.09,0.0,0.0,0.0,0.06867000000000001,0.33354000000000006,9.85905
1838383820,22.09,0.0,0.0,0.0,0.05886,0.32373,9.888480000000001
1843434325,22.09,0.0,0.0,0.0,0.05886,0.31392000000000003,9.91791
1848484830,22.09,0.0,0.0,0.0,0.06867000000000001,0.32373,9.888480000000001
1853535335,22.09,0.0,0.0,0.0,0.05886,0.34335000000000004,9.89829
1858585840,22.09,0.0,0.0,0.0,0.05886,0.32373,9.86886
1863636345,22.09,0.0,0.0,0.0,0.04905,0.34335000000000004,9.87867
1868686850,22.09,0.0,0.0,0.0,0.06867000000000001,0.35316,9.85905
1873737355,22.09,0.0,0.0,0.0,0.04905,0.33354000000000006,9.87867
1878787860,22.09,0.0,0.0,0.0,0.04905,0.32373,9.888480000000001
1883838365,22.09,0.0,0.0,0.0,0.04905,0.32373,9.91791
1888888870,22.09,0.0,0.0,0.0,0.06867000000000001,0.35316,9.87867
1893939375,22.09,0.0,0.0,0.0,0.05886,0.34335000000000004,9.87867
1898989880,22.09,0.0,0.0,0.0,0.05886,0.31392000000000003,9.89829
1904040385,22.09,0.0,0.0,0.0,0.07848000000000001,0.35316,9.888480000000001
1909090890,22.09,0.0,0.0,0.0,0.05886,0.34335000000000004,9.888480000000001
1914141395,22.09,0.0,0.0,0.0,0.05886,0.34335000000000004,9.888480000000001
1919191900,22.09,0.0,0.0,0.0,0.05886,0.32373,9.888480000000001
1924242405,22.09,0.0,0.0,0.0,0.07848000000000001,0.32373,9.888480000000001
1929292910,22.09,0.0,0.0,0.0,0.05886,0.34335000000000004,9.908100000000001
1934343415,22.09,0.0,0.0,0.0,0.06867000000000001,0.31392000000000003,9.91791
1939393920,22.09,0.0,0.0,0.0,0.05886,0.35316,9.86886
1944444425,22.09,0.0,0.0,0.0,0.07848000000000001,0.31392000000000003,9.908100000000001
1949494930,22.09,0.0,0.0,0.0,0.06867000000000001,0.31392000000000003,9.87867
1954545435,22.09,0.0,0.0,0.0,0.08829,0.33354000000000006,9.86886
1959595940,22.09,0.0,0.0,0.0,0.08829,0.35316,9.86886
1964646445,22.09,0.0,0.0,0.0,0.08829,0.32373,9.888480000000001
1969696950,22.09,0.0,0.0,0.0,0.06867000000000001,0.34335000000000004,9.888480000000001
1974747455,22.09,0.0,0.0,0.0,0.05886,0.33354000000000006,9.888480000000001
1979797960,22.09,0.0,0.0,0.0,0.05886,0.34335000000000004,9.89829
1984848465,22.09,0.0,0.0,0.0,0.05886,0.34335000000000004,9.87867
1989898970,22.09,0.0,0.0,0.0,0.05886,0.34335000000000004,9.87867
1994949475,22.09,0.0,0.0,0.0,0.06867000000000001,0.34335000000000004,9.87867
1999999980,22.09,0.0,0.0,0.0,0.06867000000000001,0.33354000000000006,9.888480000000001
2005050485,22.09,0.0,0.0,0.0,0.07848000000000001,0.31392000000000003,9.888480000000001
2010100990,22.09,0.0,0.0,0.0,0.06867000000000001,0.34335000000000004,9.91791
2015151495,22.09,0.0,0.0,0.0,0.02943,0.32373,9.89829
2020202000,22.09,0.0,0.0,0.0,0.0981,0.31392000000000003,9.888480000000001
2025252505,22.09,0.0,0.0,0.0,0.04905,0.35316,9.888480000000001
2030303010,22.09,0.0,0.0,0.0,0.05886,0.33354000000000006,9.888480000000001
2035353515,22.09,0.0,0.0,0.0,0.06867000000000001,0.36297,9.87867
2040404020,22.09,0.0,0.0,0.0,0.05886,0.32373,9.86886
2045454525,22.09,0.0,0.0,0.0,0.06867000000000001,0.31392000000000003,9.888480000000001
2050505030,22.09,0.0,0.0,0.0,0.05886,0.34335000000000004,9.92772
2055555535,22.09,0.0,0.0,0.0,0.04905,0.33354000000000006,9.91791
2060606040,22.09,0.0,0.0,0.0,0.07848000000000001,0.31392000000000003,9.86886
2065656545,22.09,0.0,0.0,0.0,0.04905,0.33354000000000006,9.89829
2070707050,22.09,0.0,0.0,0.0,0.05886,0.32373,9.87867
2075757555,22.09,0.0,0.0,0.0,0.05886,0.34335000000000004,9.85905
2080808060,22.09,0.0,0.0,0.0,0.07848000000000001,0.34335000000000004,9.908100000000001
2085858565,22.09,0.0,0.0,0.0,0.06867000000000001,0.31392000000000003,9.888480000000001
2090909070,22.09,0.0,0.0,0.0,0.05886,0.34335000000000004,9.87867
2095959575,22.09,0.0,0.0,0.0,0.04905,0.33354000000000006,9.91791
2101010080,22.09,0.0,0.0,0.0,0.06867000000000001,0.34335000000000004,9.908100000000001
2106060585,22.09,0.0,0.0,0.0,0.07848000000000001,0.37278,9.888480000000001
2111111090,22.09,0.0,0.0,0.0,0.07848000000000001,0.33354000000000006,9.87867
2116161595,22.09,0.0,0.0,0.0,0.06867000000000001,0.35316,9.86886
2121212100,22.09,0.0,0.0,0.0,0.05886,0.32373,9.888480000000001
2126262605,22.09,0.0,0.0,0.0,0.04905,0.34335000000000004,9.91791
2131313110,22.09,0.0,0.0,0.0,0.08829,0.33354000000000006,9.87867
2136363615,22.09,0.0,0.0,0.0,0.06867000000000001,0.32373,9.888480000000001
2141414120,22.09,0.0,0.0,0.0,0.06867000000000001,0.32373,9.85905
2146464625,22.09,0.0,0.0,0.0,0.06867000000000001,0.35316,9.89829
2151515130,22.09,0.0,0.0,0.0,0.07848000000000001,0.34335000000000004,9.87867
2156565635,22.09,0.0,0.0,0.0,0.08829,0.34335000000000004,9.89829
2161616140,22.09,0.0,0.0,0.0,0.07848000000000001,0.33354000000000006,9.87867
2166666645,22.09,0.0,0.0,0.0,0.07848000000000001,0.32373,9.888480000000001
2171717150,22.09,0.0,0.0,0.0,0.06867000000000001,0.35316,9.888480000000001
2176767655,22.09,0.0,0.0,0.0,0.04905,0.31392000000000003,9.888480000000001
2181818160,22.09,0.0,0.0,0.0,0.06867000000000001,0.33354000000000006,9.89829
2186868665,22.09,0.0,0.0,0.0,0.07848000000000001,0.32373,9.86886
2191919170,22.09,0.0,0.0,0.0,0.08829,0.30411,9.86886
2196969675,22.09,0.0,0.0,0.0,0.06867000000000001,0.35316,9.888480000000001
2202020180,22.09,0.0,0.0,0.0,0.039240000000000004,0.32373,9.888480000000001
2207070685,22.09,0.0,0.0,0.0,0.07848000000000001,0.33354000000000006,9.89829
2212121190,22.09,0.0,0.0,0.0,0.07848000000000001,0.34335000000000004,9.91791
2217171695,22.09,0.0,0.0,0.0,0.05886,0.31392000000000003,9.888480000000001
2222222200,22.09,0.0,0.0,0.0,0.04905,0.33354000000000006,9.89829
2227272705,22.09,0.0,0.0,0.0,0.06867000000000001,0.34335000000000004,9.87867
2232323210,22.09,0.0,0.0,0.0,0.05886,0.32373,9.87867
2237373715,22.09,0.0,0.0,0.0,0.0981,0.35316,9.87867
2242424220,22.09,0.0,0.0,0.0,0.05886,0.33354000000000006,9.908100000000001
2247474725,22.09,0.0,0.0,0.0,0.04905,0.34335000000000004,9.89829
2252525230,22.09,0.0,0.0,0.0,0.08829,0.33354000000000006,9.89829
2257575735,22.09,0.0,0.0,0.0,0.05886,0.33354000000000006,9.888480000000001
2262626240,22.09,0.0,0.0,0.0,0.06867000000000001,0.31392000000000003,9.87867
2267676745,22.09,0.0,0.0,0.0,0.07848000000000001,0.34335000000000004,9.86886
2272727250,22.09,0.0,0.0,0.0,0.06867000000000001,0.33354000000000006,9.888480000000001
2277777755,22.09,0.0,0.0,0.0,0.06867000000000001,0.31392000000000003,9.86886
2282828260,22.09,0.0,0.0,0.0,0.05886,0.34335000000000004,9.86886
2287878765,22.09,0.0,0.0,0.0,0.06867000000000001,0.35316,9.86886
2292929270,22.09,0.0,0.0,0.0,0.05886,0.33354000000000006,9.888480000000001
2297979775,22.09,0.0,0.0,0.0,0.08829,0.33354000000000006,9.89829
2303030280,22.09,0.0,0.0,0.0,0.05886,0.33354000000000006,9.87867
2308080785,22.09,0.0,0.0,0.0,0.06867000000000001,0.34335000000000004,9.89829
2313131290,22.09,0.0,0.0,0.0,0.07848000000000001,0.33354000000000006,9.89829
2318181795,22.09,0.0,0.0,0.0,0.05886,0.34335000000000004,9.908100000000001
2323232300,22.09,0.0,0.0,0.0,0.05886,0.34335000000000004,9.89829
2328282805,22.09,0.0,0.0,0.0,0.06867000000000001,0.35316,9.888480000000001
2333333310,22.09,0.0,0.0,0.0,0.06867000000000001,0.31392000000000003,9.86886
2338383815,22.09,0.0,0.0,0.0,0.05886,0.32373,9.91791
2343434320,22.09,0.0,0.0,0.0,0.06867000000000001,0.32373,9.91791
2348484825,22.09,0.0,0.0,0.0,0.05886,0.31392000000000003,9.87867
2353535330,22.09,0.0,0.0,0.0,0.04905,0.33354000000000006,9.908100000000001
2358585835,22.09,0.0,0.0,0.0,0.08829,0.35316,9.86886
2363636340,22.09,0.0,0.0,0.0,0.06867000000000001,0.33354000000000006,9.888480000000001
2368686845,22.09,0.0,0.0,0.0,0.06867000000000001,0.34335000000000004,9.888480000000001
2373737350,22.09,0.0,0.0,0.0,0.06867000000000001,0.35316,9.86886
2378787855,22.09,0.0,0.0,0.0,0.04905,0.34335000000000004,9.89829
2383838360,22.09,0.0,0.0,0.0,0.07848000000000001,0.34335000000000004,9.888480000000001
2388888865,22.09,0.0,0.0,0.0,0.08829,0.33354000000000006,9.86886
2393939370,22.09,0.0,0.0,0.0,0.06867000000000001,0.33354000000000006,9.86886
2398989875,22.09,0.0,0.0,0.0,0.07848000000000001,0.34335000000000004,9.86886
2404040380,22.09,0.0,0.0,0.0,0.07848000000000001,0.31392000000000003,9.85905
2409090885,22.09,0.0,0.0,0.0,0.05886,0.33354000000000006,9.87867
2414141390,22.09,0.0,0.0,0.0,0.05886,0.33354000000000006,9.87867
2419191895,22.09,0.0,0.0,0.0,0.06867000000000001,0.31392000000000003,9.908100000000001
2424242400,22.09,0.0,0.0,0.0,0.07848000000000001,0.34335000000000004,9.87867
2429292905,22.09,0.0,0.0,0.0,0.04905,0.32373,9.888480000000001
2434343410,22.09,0.0,0.0,0.0,0.08829,0.31392000000000003,9.888480000000001
2439393915,22.09,0.0,0.0,0.0,0.08829,0.37278,9.86886
2444444420,22.09,0.0,0.0,0.0,0.05886,0.32373,9.85905
2449494925,22.09,0.0,0.0,0.0,0.06867000000000001,0.33354000000000006,9.91791
2454545430,22.09,0.0,0.0,0.0,0.07848000000000001,0.35316,9.888480000000001
2459595935,22.09,0.0,0.0,0.0,0.07848000000000001,0.35316,9.888480000000001
2464646440,22.09,0.0,0.0,0.0,0.06867000000000001,0.33354000000000006,9.87867
2469696945,22.09,0.0,0.0,0.0,0.05886,0.34335000000000004,9.86886
2474747450,22.09,0.0,0.0,0.0,0.07848000000000001,0.33354000000000006,9.86886
2479797955,22.09,0.0,0.0,0.0,0.07848000000000001,0.36297,9.89829
2484848460,22.09,0.0,0.0,0.0,0.08829,0.33354000000000006,9.888480000000001
2489898965,22.09,0.0,0.0,0.0,0.07848000000000001,0.33354000000000006,9.86886
2494949470,22.09,0.0,0.0,0.0,0.05886,0.31392000000000003,9.86886
2499999975,22.09,0.0,0.0,0.0,0.07848000000000001,0.32373,9.87867
2505050480,22.09,0.0,0.0,0.0,0.05886,0.34335000000000004,9.908100000000001
2510100985,22.09,0.0,0.0,0.0,0.04905,0.34335000000000004,9.908100000000001
2515151490,22.09,0.0,0.0,0.0,0.04905,0.36297,9.888480000000001
2520201995,22.09,0.0,0.0,0.0,0.06867000000000001,0.35316,9.86886
2525252500,22.09,0.0,0.0,0.0,0.06867000000000001,0.36297,9.86886
2530303005,22.09,0.0,0.0,0.0,0.05886,0.30411,9.87867
2535353510,22.09,0.0,0.0,0.0,0.06867000000000001,0.33354000000000006,9.908100000000001
2540404015,22.09,0.0,0.0,0.0,0.05886,0.33354000000000006,9.87867
2545454520,22.09,0.0,0.0,0.0,0.06867000000000001,0.34335000000000004,9.87867
2550505025,22.09,0.0,0.0,0.0,0.07848000000000001,0.31392000000000003,9.86886
2555555530,22.09,0.0,0.0,0.0,0.05886,0.32373,9.87867
2560606035,22.09,0.0,0.0,0.0,0.04905,0.30411,9.87867
2565656540,22.09,0.0,0.0,0.0,0.05886,0.32373,9.85905
2570707045,22.09,0.0,0.0,0.0,0.06867000000000001,0.33354000000000006,9.87867
2575757550,22.09,0.0,0.0,0.0,0.05886,0.32373,9.85905
2580808055,22.09,0.0,0.0,0.0,0.06867000000000001,0.33354000000000006,9.86886
2585858560,22.09,0.0,0.0,0.0,0.04905,0.34335000000000004,9.888480000000001
2590909065,22.09,0.0,0.0,0.0,0.07848000000000001,0.30411,9.89829
2595959570,22.09,0.0,0.0,0.0,0.0981,0.34335000000000004,9.91791
2601010075,22.09,0.0,0.0,0.0,0.06867000000000001,0.33354000000000006,9.86886
2606060580,22.09,0.0,0.0,0.0,0.06867000000000001,0.33354000000000006,9.86886
2611111085,22.09,0.0,0.0,0.0,0.06867000000000001,0.32373,9.87867
2616161590,22.09,0.0,0.0,0.0,0.07848000000000001,0.32373,9.87867
2621212095,22.09,0.0,0.0,0.0,0.0981,0.32373,9.87867
2626262600,22.09,0.0,0.0,0.0,0.06867000000000001,0.32373,9.888480000000001
2631313105,22.09,0.0,0.0,0.0,0.05886,0.28449,9.888480000000001
2636363610,22.09,0.0,0.0,0.0,0.05886,0.35316,9.908100000000001
2641414115,22.09,0.0,0.0,0.0,0.07848000000000001,0.35316,9.888480000000001
2646464620,22.09,0.0,0.0,0.0,0.05886,0.34335000000000004,9.86886
2651515125,22.09,0.0,0.0,0.0,0.039240000000000004,0.33354000000000006,9.888480000000001
2656565630,22.09,0.0,0.0,0.0,0.06867000000000001,0.31392000000000003,9.89829
2661616135,22.09,0.0,0.0,0.0,0.04905,0.33354000000000006,9.86886
2666666640,22.09,0.0,0.0,0.0,0.06867000000000001,0.32373,9.87867
2671717145,22.09,0.0,0.0,0.0,0.05886,0.32373,9.89829
2676767650,22.09,0.0,0.0,0.0,0.06867000000000001,0.33354000000000006,9.85905
2681818155,22.09,0.0,0.0,0.0,0.06867000000000001,0.33354000000000006,9.91791
2686868660,22.09,0.0,0.0,0.0,0.05886,0.32373,9.86886
2691919165,22.09,0.0,0.0,0.0,0.07848000000000001,0.34335000000000004,9.86886
2696969670,22.09,0.0,0.0,0.0,0.06867000000000001,0.33354000000000006,9.888480000000001
2702020175,22.09,0.0,0.0,0.0,0.04905,0.31392000000000003,9.87867
2707070680,22.09,0.0,0.0,0.0,0.05886,0.30411,9.89829
2712121185,22.09,0.0,0.0,0.0,0.07848000000000001,0.31392000000000003,9.89829
2717171690,22.09,0.0,0.0,0.0,0.08829,0.33354000000000006,9.888480000000001
2722222195,22.09,0.0,0.0,0.0,0.05886,0.34335000000000004,9.888480000000001
2727272700,22.09,0.0,0.0,0.0,0.07848000000000001,0.35316,9.84924
2732323205,22.09,0.0,0.0,0.0,0.06867000000000001,0.34335000000000004,9.888480000000001
2737373710,22.09,0.0,0.0,0.0,0.05886,0.36297,9.908100000000001
2742424215,22.09,0.0,0.0,0.0,0.06867000000000001,0.31392000000000003,9.87867
2747474720,22.09,0.0,0.0,0.0,0.07848000000000001,0.31392000000000003,9.91791
2752525225,22.09,0.0,0.0,0.0,0.07848000000000001,0.31392000000000003,9.89829
2757575730,22.09,0.0,0.0,0.0,0.06867000000000001,0.33354000000000006,9.89829
2762626235,22.09,0.0,0.0,0.0,0.06867000000000001,0.32373,9.87867
2767676740,22.09,0.0,0.0,0.0,0.07848000000000001,0.31392000000000003,9.87867
2772727245,22.09,0.0,0.0,0.0,0.06867000000000001,0.36297,9.86886
2777777750,22.09,0.0,0.0,0.0,0.04905,0.35316,9.888480000000001
2782828255,22.09,0.0,0.0,0.0,0.05886,0.35316,9.888480000000001
2787878760,22.09,0.0,0.0,0.0,0.05886,0.30411,9.87867
2792929265,22.09,0.0,0.0,0.0,0.05886,0.33354000000000006,9.91791
2797979770,22.09,0.0,0.0,0.0,0.04905,0.35316,9.85905
2803030275,22.09,0.0,0.0,0.0,0.06867000000000001,0.33354000000000006,9.89829
2808080780,22.09,0.0,0.0,0.0,0.05886,0.32373,9.85905
2813131285,22.09,0.0,0.0,0.0,0.07848000000000001,0.32373,9.888480000000001
2818181790,22.09,0.0,0.0,0.0,0.06867000000000001,0.32373,9.86886
2823232295,22.09,0.0,0.0,0.0,0.04905,0.34335000000000004,9.888480000000001
2828282800,22.09,0.0,0.0,0.0,0.05886,0.32373,9.908100000000001
2833333305,22.09,0.0,0.0,0.0,0.039240000000000004,0.33354000000000006,9.87867
2838383810,22.09,0.0,0.0,0.0,0.08829,0.34335000000000004,9.888480000000001
2843434315,22.09,0.0,0.0,0.0,0.08829,0.34335000000000004,9.87867
2848484820,22.09,0.0,0.0,0.0,0.05886,0.34335000000000004,9.85905
2853535325,22.09,0.0,0.0,0.0,0.08829,0.33354000000000006,9.89829
2858585830,22.09,0.0,0.0,0.0,0.07848000000000001,0.34335000000000004,9.86886
2863636335,22.09,0.0,0.0,0.0,0.06867000000000001,0.33354000000000006,9.84924
2868686840,22.09,0.0,0.0,0.0,0.06867000000000001,0.32373,9.888480000000001
2873737345,22.09,0.0,0.0,0.0,0.05886,0.33354000000000006,9.908100000000001
2878787850,22.09,0.0,0.0,0.0,0.07848000000000001,0.30411,9.89829
2883838355,22.09,0.0,0.0,0.0,0.04905,0.34335000000000004,9.908100000000001
2888888860,22.09,0.0,0.0,0.0,0.05886,0.34335000000000004,9.84924
2893939365,22.09,0.0,0.0,0.0,0.08829,0.33354000000000006,9.82962
2898989870,22.09,0.0,0.0,0.0,0.08829,0.34335000000000004,9.83943
2904040375,22.09,0.0,0.0,0.0,0.06867000000000001,0.31392000000000003,9.85905
2909090880,22.09,0.0,0.0,0.0,0.07848000000000001,0.31392000000000003,9.888480000000001
2914141385,22.09,0.0,0.0,0.0,0.04905,0.32373,9.91791
2919191890,22.09,0.0,0.0,0.0,0.07848000000000001,0.33354000000000006,9.888480000000001
2924242395,22.09,0.0,0.0,0.0,0.05886,0.31392000000000003,9.91791
2929292900,22.09,0.0,0.0,0.0,0.08829,0.32373,9.86886
2934343405,22.09,0.0,0.0,0.0,0.06867000000000001,0.33354000000000006,9.888480000000001
2939393910,22.09,0.0,0.0,0.0,0.07848000000000001,0.35316,9.85905
2944444415,22.09,0.0,0.0,0.0,0.07848000000000001,0.34335000000000004,9.85905
2949494920,22.09,0.0,0.0,0.0,0.06867000000000001,0.34335000000000004,9.87867
2954545425,22.09,0.0,0.0,0.0,0.04905,0.31392000000000003,9.888480000000001
2959595930,22.09,0.0,0.0,0.0,0.07848000000000001,0.32373,9.888480000000001
2964646435,22.09,0.0,0.0,0.0,0.06867000000000001,0.33354000000000006,9.888480000000001
2969696940,22.09,0.0,0.0,0.0,0.04905,0.33354000000000006,9.83943
2974747445,22.09,0.0,0.0,0.0,0.08829,0.34335000000000004,9.83943
2979797950,22.09,0.0,0.0,0.0,0.07848000000000001,0.34335000000000004,9.86886
2984848455,22.09,0.0,0.0,0.0,0.07848000000000001,0.33354000000000006,9.89829
2989898960,22.09,0.0,0.0,0.0,0.05886,0.34335000000000004,9.888480000000001
2994949465,22.09,0.0,0.0,0.0,0.07848000000000001,0.33354000000000006,9.91791
2999999970,22.09,0.0,0.0,0.0,0.039240000000000004,0.31392000000000003,9.87867
3005050475,22.09,0.0,0.0,0.0,0.06867000000000001,0.34335000000000004,9.87867
3010100980,22.09,0.0,0.0,0.0,0.06867000000000001,0.34335000000000004,9.888480000000001
3015151485,22.09,0.0,0.0,0.0,0.06867000000000001,0.32373,9.89829
3020201990,22.09,0.0,0.0,0.0,0.07848000000000001,0.33354000000000006,9.86886
3025252495,22.09,0.0,0.0,0.0,0.04905,0.33354000000000006,9.89829
3030303000,22.09,0.0,0.0,0.0,0.06867000000000001,0.31392000000000003,9.85905
3035353505,22.09,0.0,0.0,0.0,0.06867000000000001,0.31392000000000003,9.86886
3040404010,22.09,0.0,0.0,0.0,0.05886,0.31392000000000003,9.85905
3045454515,22.09,0.0,0.0,0.0,0.05886,0.32373,9.908100000000001
3050505020,22.09,0.0,0.0,0.0,0.05886,0.35316,9.87867
3055555525,22.09,0.0,0.0,0.0,0.06867000000000001,0.33354000000000006,9.86886
3060606030,22.09,0.0,0.0,0.0,0.04905,0.33354000000000006,9.86886
3065656535,22.09,0.0,0.0,0.0,0.08829,0.32373,9.85905
3070707040,22.09,0.0,0.0,0.0,0.07848000000000001,0.30411,9.85905
3075757545,22.09,0.0,0.0,0.0,0.0981,0.33354000000000006,9.89829
3080808050,22.09,0.0,0.0,0.0,0.04905,0.34335000000000004,9.89829
3085858555,22.09,0.0,0.0,0.0,0.05886,0.33354000000000006,9.91791
3090909060,22.09,0.0,0.0,0.0,0.08829,0.33354000000000006,9.85905
3095959565,22.09,0.0,0.0,0.0,0.07848000000000001,0.34335000000000004,9.87867
3101010070,22.09,0.0,0.0,0.0,0.05886,0.36297,9.87867
3106060575,22.09,0.0,0.0,0.0,0.05886,0.33354000000000006,9.85905
3111111080,22.09,0.0,0.0,0.0,0.05886,0.34335000000000004,9.908100000000001
3116161585,22.09,0.0,0.0,0.0,0.06867000000000001,0.34335000000000004,9.89829
3121212090,22.09,0.0,0.0,0.0,0.05886,0.33354000000000006,9.908100000000001
3126262595,22.09,0.0,0.0,0.0,0.05886,0.33354000000000006,9.888480000000001
3131313100,22.09,0.0,0.0,0.0,0.05886,0.30411,9.888480000000001
3136363605,22.09,0.0,0.0,0.0,0.06867000000000001,0.31392000000000003,9.86886
3141414110,22.09,0.0,0.0,0.0,0.06867000000000001,0.34335000000000004,9.87867
3146464615,22.09,0.0,0.0,0.0,0.05886,0.33354000000000006,9.89829
3151515120,22.09,0.0,0.0,0.0,0.04905,0.34335000000000004,9.89829
3156565625,22.09,0.0,0.0,0.0,0.04905,0.32373,9.87867
3161616130,22.09,0.0,0.0,0.0,0.08829,0.33354000000000006,9.888480000000001
3166666635,22.09,0.0,0.0,0.0,0.04905,0.32373,9.89829
3171717140,22.09,0.0,0.0,0.0,0.05886,0.30411,9.87867
3176767645,22.09,0.0,0.0,0.0,0.039240000000000004,0.35316,9.89829
3181818150,22.09,0.0,0.0,0.0,0.08829,0.33354000000000006,9.87867
3186868655,22.09,0.0,0.0,0.0,0.08829,0.33354000000000006,9.87867
3191919160,22.09,0.0,0.0,0.0,0.06867000000000001,0.31392000000000003,9.86886
3196969665,22.09,0.0,0.0,0.0,0.04905,0.33354000000000006,9.908100000000001
3202020170,22.09,0.0,0.0,0.0,0.06867000000000001,0.33354000000000006,9.908100000000001
3207070675,22.09,0.0,0.0,0.0,0.06867000000000001,0.34335000000000004,9.937529999999999
3212121180,22.09,0.0,0.0,0.0,0.05886,0.33354000000000006,9.89829
3217171685,22.09,0.0,0.0,0.0,0.05886,0.32373,9.87867
3222222190,22.09,0.0,0.0,0.0,0.039240000000000004,0.35316,9.86886
3227272695,22.09,0.0,0.0,0.0,0.06867000000000001,0.34335000000000004,9.89829
3232323200,22.09,0.0,0.0,0.0,0.06867000000000001,0.32373,9.87867
3237373705,22.09,0.0,0.0,0.0,0.06867000000000001,0.30411,9.89829
3242424210,22.09,0.0,0.0,0.0,0.07848000000000001,0.32373,9.87867
3247474715,22.09,0.0,0.0,0.0,0.04905,0.33354000000000006,9.908100000000001
3252525220,22.09,0.0,0.0,0.0,0.04905,0.31392000000000003,9.91791
3257575725,22.09,0.0,0.0,0.0,0.06867000000000001,0.34335000000000004,9.888480000000001
3262626230,22.09,0.0,0.0,0.0,0.07848000000000001,0.33354000000000006,9.86886
3267676735,22.09,0.0,0.0,0.0,0.0981,0.35316,9.89829
3272727240,22.09,0.0,0.0,0.0,0.06867000000000001,0.33354000000000006,9.87867
3277777745,22.09,0.0,0.0,0.0,0.08829,0.33354000000000006,9.86886
3282828250,22.09,0.0,0.0,0.0,0.07848000000000001,0.30411,9.91791
3287878755,22.09,0.0,0.0,0.0,0.06867000000000001,0.32373,9.888480000000001
3292929260,22.09,0.0,0.0,0.0,0.06867000000000001,0.34335000000000004,9.888480000000001
3297979765,22.09,0.0,0.0,0.0,0.06867000000000001,0.33354000000000006,9.86886
3303030270,22.09,0.0,0.0,0.0,0.05886,0.32373,9.86886
3308080775,22.09,0.0,0.0,0.0,0.05886,0.34335000000000004,9.89829
3313131280,22.09,0.0,0.0,0.0,0.05886,0.33354000000000006,9.86886
3318181785,22.09,0.0,0.0,0.0,0.08829,0.33354000000000006,9.89829
3323232290,22.09,0.0,0.0,0.0,0.05886,0.34335000000000004,9.908100000000001
3328282795,22.09,0.0,0.0,0.0,0.04905,0.31392000000000003,9.888480000000001
3333333300,22.09,0.0,0.0,0.0,0.05886,0.33354000000000006,9.91791
3338383805,22.09,0.0,0.0,0.0,0.04905,0.33354000000000006,9.888480000000001
3343434310,22.09,0.0,0.0,0.0,0.05886,0.30411,9.86886
3348484815,22.09,0.0,0.0,0.0,0.05886,0.33354000000000006,9.888480000000001
3353535320,22.09,0.0,0.0,0.0,0.05886,0.32373,9.89829
3358585825,22.09,0.0,0.0,0.0,0.08829,0.31392000000000003,9.91791
3363636330,22.09,0.0,0.0,0.0,0.04905,0.33354000000000006,9.89829
3368686835,22.09,0.0,0.0,0.0,0.05886,0.33354000000000006,9.908100000000001
3373737340,22.09,0.0,0.0,0.0,0.06867000000000001,0.35316,9.908100000000001
3378787845,22.09,0.0,0.0,0.0,0.07848000000000001,0.32373,9.92772
3383838350,22.09,0.0,0.0,0.0,0.06867000000000001,0.32373,9.87867
3388888855,22.09,0.0,0.0,0.0,0.06867000000000001,0.35316,9.908100000000001
3393939360,22.09,0.0,0.0,0.0,0.05886,0.35316,9.87867
3398989865,22.09,0.0,0.0,0.0,0.06867000000000001,0.33354000000000006,9.888480000000001
3404040370,22.09,0.0,0.0,0.0,0.06867000000000001,0.32373,9.888480000000001
3409090875,22.09,0.0,0.0,0.0,0.06867000000000001,0.33354000000000006,9.89829
3414141380,22.09,0.0,0.0,0.0,0.05886,0.32373,9.86886
3419191885,22.09,0.0,0.0,0.0,0.06867000000000001,0.33354000000000006,9.888480000000001
3424242390,22.09,0.0,0.0,0.0,0.06867000000000001,0.34335000000000004,9.87867
3429292895,22.09,0.0,0.0,0.0,0.05886,0.36297,9.86886
3434343400,22.09,0.0,0.0,0.0,0.06867000000000001,0.32373,9.888480000000001
3439393905,22.09,0.0,0.0,0.0,0.06867000000000001,0.34335000000000004,9.888480000000001
3444444410,22.09,0.0,0.0,0.0,0.06867000000000001,0.32373,9.89829
3449494915,22.09,0.0,0.0,0.0,0.06867000000000001,0.34335000000000004,9.89829
3454545420,22.09,0.0,0.0,0.0,0.07848000000000001,0.35316,9.908100000000001
3459595925,22.09,0.0,0.0,0.0,0.06867000000000001,0.35316,9.91791
3464646430,22.09,0.0,0.0,0.0,0.05886,0.34335000000000004,9.89829
3469696935,22.09,0.0,0.0,0.0,0.08829,0.33354000000000006,9.86886
3474747440,22.09,0.0,0.0,0.0,0.05886,0.35316,9.86886
3479797945,22.09,0.0,0.0,0.0,0.07848000000000001,0.2943,9.908100000000001
3484848450,22.09,0.0,0.0,0.0,0.06867000000000001,0.31392000000000003,9.87867
3489898955,22.09,0.0,0.0,0.0,0.06867000000000001,0.32373,9.888480000000001
3494949460,22.09,0.0,0.0,0.0,0.05886,0.34335000000000004,9.888480000000001
3499999965,22.09,0.0,0.0,0.0,0.06867000000000001,0.33354000000000006,9.87867
3505050470,22.09,0.0,0.0,0.0,0.08829,0.34335000000000004,9.87867
3510100975,22.09,0.0,0.0,0.0,0.08829,0.35316,9.84924
3515151480,22.09,0.0,0.0,0.0,0.08829,0.31392000000000003,9.888480000000001
3520201985,22.09,0.0,0.0,0.0,0.08829,0.33354000000000006,9.86886
3525252490,22.09,0.0,0.0,0.0,0.06867000000000001,0.33354000000000006,9.91791
3530302995,22.09,0.0,0.0,0.0,0.04905,0.35316,9.89829
3535353500,22.09,0.0,0.0,0.0,0.05886,0.31392000000000003,9.86886
3540404005,22.09,0.0,0.0,0.0,0.06867000000000001,0.32373,9.89829
3545454510,22.09,0.0,0.0,0.0,0.07848000000000001,0.32373,9.87867
3550505015,22.09,0.0,0.0,0.0,0.08829,0.35316,9.86886
3555555520,22.09,0.0,0.0,0.0,0.06867000000000001,0.32373,9.86886
3560606025,22.09,0.0,0.0,0.0,0.04905,0.32373,9.85905
3565656530,22.09,0.0,0.0,0.0,0.07848000000000001,0.32373,9.888480000000001
3570707035,22.09,0.0,0.0,0.0,0.06867000000000001,0.33354000000000006,9.937529999999999
3575757540,22.09,0.0,0.0,0.0,0.05886,0.32373,9.888480000000001
3580808045,22.09,0.0,0.0,0.0,0.04905,0.35316,9.92772
3585858550,22.09,0.0,0.0,0.0,0.07848000000000001,0.34335000000000004,9.888480000000001
3590909055,22.09,0.0,0.0,0.0,0.05886,0.34335000000000004,9.87867
3595959560,22.09,0.0,0.0,0.0,0.07848000000000001,0.34335000000000004,9.888480000000001
3601010065,22.09,0.0,0.0,0.0,0.08829,0.33354000000000006,9.87867
3606060570,22.09,0.0,0.0,0.0,0.039240000000000004,0.33354000000000006,9.86886
3611111075,22.09,0.0,0.0,0.0,0.06867000000000001,0.33354000000000006,9.89829
3616161580,22.09,0.0,0.0,0.0,0.06867000000000001,0.34335000000000004,9.888480000000001
3621212085,22.09,0.0,0.0,0.0,0.08829,0.33354000000000006,9.87867
3626262590,22.09,0.0,0.0,0.0,0.06867000000000001,0.34335000000000004,9.888480000000001
3631313095,22.09,0.0,0.0,0.0,0.04905,0.34335000000000004,9.85905
3636363600,22.09,0.0,0.0,0.0,0.05886,0.32373,9.84924
3641414105,22.09,0.0,0.0,0.0,0.05886,0.32373,9.908100000000001
3646464610,22.09,0.0,0.0,0.0,0.08829,0.33354000000000006,9.86886
3651515115,22.09,0.0,0.0,0.0,0.06867000000000001,0.35316,9.86886
3656565620,22.09,0.0,0.0,0.0,0.07848000000000001,0.32373,9.86886
3661616125,22.09,0.0,0.0,0.0,0.07848000000000001,0.34335000000000004,9.908100000000001
3666666630,22.09,0.0,0.0,0.0,0.06867000000000001,0.34335000000000004,9.888480000000001
3671717135,22.09,0.0,0.0,0.0,0.08829,0.34335000000000004,9.888480000000001
3676767640,22.09,0.0,0.0,0.0,0.06867000000000001,0.32373,9.85905
3681818145,22.09,0.0,0.0,0.0,0.02943,0.35316,9.89829
3686868650,22.09,0.0,0.0,0.0,0.05886,0.33354000000000006,9.908100000000001
3691919155,22.09,0.0,0.0,0.0,0.06867000000000001,0.33354000000000006,9.908100000000001
3696969660,22.09,0.0,0.0,0.0,0.0981,0.32373,9.89829
3702020165,22.09,0.0,0.0,0.0,0.07848000000000001,0.34335000000000004,9.87867
3707070670,22.09,0.0,0.0,0.0,0.06867000000000001,0.30411,9.89829
3712121175,22.09,0.0,0.0,0.0,0.06867000000000001,0.34335000000000004,9.87867
3717171680,22.09,0.0,0.0,0.0,0.08829,0.34335000000000004,9.86886
3722222185,22.09,0.0,0.0,0.0,0.039240000000000004,0.32373,9.86886
3727272690,22.09,0.0,0.0,0.0,0.06867000000000001,0.34335000000000004,9.89829
3732323195,22.09,0.0,0.0,0.0,0.06867000000000001,0.34335000000000004,9.89829
3737373700,22.09,0.0,0.0,0.0,0.08829,0.30411,9.888480000000001
3742424205,22.09,0.0,0.0,0.0,0.08829,0.31392000000000003,9.888480000000001
3747474710,22.09,0.0,0.0,0.0,0.06867000000000001,0.33354000000000006,9.888480000000001
3752525215,22.09,0.0,0.0,0.0,0.04905,0.33354000000000006,9.91791
3757575720,22.09,0.0,0.0,0.0,0.05886,0.35316,9.86886
3762626225,22.09,0.0,0.0,0.0,0.04905,0.36297,9.87867
3767676730,22.09,0.0,0.0,0.0,0.06867000000000001,0.33354000000000006,9.888480000000001
3772727235,22.09,0.0,0.0,0.0,0.06867000000000001,0.32373,9.888480000000001
3777777740,22.09,0.0,0.0,0.0,0.06867000000000001,0.33354000000000006,9.91791
3782828245,22.09,0.0,0.0,0.0,0.06867000000000001,0.33354000000000006,9.86886
3787878750,22.09,0.0,0.0,0.0,0.05886,0.31392000000000003,9.89829
3792929255,22.09,0.0,0.0,0.0,0.07848000000000001,0.31392000000000003,9.888480000000001
3797979760,22.09,0.0,0.0,0.0,0.08829,0.34335000000000004,9.87867
3803030265,22.09,0.0,0.0,0.0,0.07848000000000001,0.32373,9.87867
3808080770,22.09,0.0,0.0,0.0,0.06867000000000001,0.32373,9.86886
3813131275,22.09,0.0,0.0,0.0,0.05886,0.32373,9.888480000000001
3818181780,22.09,0.0,0.0,0.0,0.07848000000000001,0.32373,9.888480000000001
3823232285,22.09,0.0,0.0,0.0,0.05886,0.33354000000000006,9.89829
3828282790,22.09,0.0,0.0,0.0,0.05886,0.31392000000000003,9.888480000000001
3833333295,22.09,0.0,0.0,0.0,0.07848000000000001,0.33354000000000006,9.89829
3838383800,22.09,0.0,0.0,0.0,0.05886,0.35316,9.888480000000001
3843434305,22.09,0.0,0.0,0.0,0.04905,0.33354000000000006,9.888480000000001
3848484810,22.09,0.0,0.0,0.0,0.07848000000000001,0.33354000000000006,9.87867
3853535315,22.09,0.0,0.0,0.0,0.07848000000000001,0.35316,9.89829
3858585820,22.09,0.0,0.0,0.0,0.05886,0.33354000000000006,9.91791
3863636325,22.09,0.0,0.0,0.0,0.07848000000000001,0.31392000000000003,9.91791
3868686830,22.09,0.0,0.0,0.0,0.04905,0.33354000000000006,9.87867
3873737335,22.09,0.0,0.0,0.0,0.07848000000000001,0.34335000000000004,9.89829
3878787840,22.09,0.0,0.0,0.0,0.05886,0.37278,9.87867
3883838345,22.09,0.0,0.0,0.0,0.039240000000000004,0.34335000000000004,9.888480000000001
3888888850,22.09,0.0,0.0,0.0,0.07848000000000001,0.33354000000000006,9.888480000000001
3893939355,22.09,0.0,0.0,0.0,0.04905,0.33354000000000006,9.89829
3898989860,22.09,0.0,0.0,0.0,0.05886,0.34335000000000004,9.89829
3904040365,22.09,0.0,0.0,0.0,0.05886,0.33354000000000006,9.87867
3909090870,22.09,0.0,0.0,0.0,0.06867000000000001,0.34335000000000004,9.89829
3914141375,22.09,0.0,0.0,0.0,0.06867000000000001,0.34335000000000004,9.888480000000001
3919191880,22.09,0.0,0.0,0.0,0.08829,0.34335000000000004,9.87867
3924242385,22.09,0.0,0.0,0.0,0.08829,0.35316,9.87867
3929292890,22.09,0.0,0.0,0.0,0.06867000000000001,0.33354000000000006,9.888480000000001
3934343395,22.09,0.0,0.0,0.0,0.06867000000000001,0.33354000000000006,9.888480000000001
3939393900,22.09,0.0,0.0,0.0,0.06867000000000001,0.36297,9.908100000000001
3944444405,22.09,0.0,0.0,0.0,0.039240000000000004,0.32373,9.87867
3949494910,22.09,0.0,0.0,0.0,0.05886,0.33354000000000006,9.89829
3954545415,22.09,0.0,0.0,0.0,0.06867000000000001,0.34335000000000004,9.89829
3959595920,22.09,0.0,0.0,0.0,0.05886,0.32373,9.86886
3964646425,22.09,0.0,0.0,0.0,0.07848000000000001,0.32373,9.87867
3969696930,22.09,0.0,0.0,0.0,0.04905,0.34335000000000004,9.87867
3974747435,22.09,0.0,0.0,0.0,0.07848000000000001,0.32373,9.91791
3979797940,22.09,0.0,0.0,0.0,0.06867000000000001,0.34335000000000004,9.908100000000001
3984848445,22.09,0.0,0.0,0.0,0.05886,0.34335000000000004,9.89829
3989898950,22.09,0.0,0.0,0.0,0.05886,0.32373,9.888480000000001
3994949455,22.09,0.0,0.0,0.0,0.04905,0.33354000000000006,9.87867
3999999960,22.09,0.0,0.0,0.0,0.05886,0.33354000000000006,9.87867
4005050465,22.09,0.0,0.0,0.0,0.08829,0.36297,9.86886
4010100970,22.09,0.0,0.0,0.0,0.07848000000000001,0.31392000000000003,9.87867
4015151475,22.09,0.0,0.0,0.0,0.05886,0.34335000000000004,9.908100000000001
4020201980,22.09,0.0,0.0,0.0,0.05886,0.34335000000000004,9.89829
4025252485,22.09,0.0,0.0,0.0,0.06867000000000001,0.32373,9.89829
4030302990,22.09,0.0,0.0,0.0,0.06867000000000001,0.31392000000000003,9.908100000000001
4035353495,22.09,0.0,0.0,0.0,0.05886,0.32373,9.888480000000001
4040404000,22.09,0.0,0.0,0.0,0.06867000000000001,0.31392000000000003,9.888480000000001
4045454505,22.09,0.0,0.0,0.0,0.06867000000000001,0.33354000000000006,9.86886
4050505010,22.09,0.0,0.0,0.0,0.07848000000000001,0.34335000000000004,9.83943
4055555515,22.09,0.0,0.0,0.0,0.05886,0.31392000000000003,9.87867
4060606020,22.09,0.0,0.0,0.0,0.04905,0.31392000000000003,9.888480000000001
4065656525,22.09,0.0,0.0,0.0,0.05886,0.35316,9.89829
4070707030,22.09,0.0,0.0,0.0,0.07848000000000001,0.35316,9.91791
4075757535,22.09,0.0,0.0,0.0,0.06867000000000001,0.35316,9.89829
4080808040,22.09,0.0,0.0,0.0,0.05886,0.36297,9.86886
4085858545,22.09,0.0,0.0,0.0,0.08829,0.35316,9.908100000000001
4090909050,22.09,0.0,0.0,0.0,0.07848000000000001,0.33354000000000006,9.89829
4095959555,22.09,0.0,0.0,0.0,0.07848000000000001,0.31392000000000003,9.87867
4101010060,22.09,0.0,0.0,0.0,0.05886,0.31392000000000003,9.908100000000001
4106060565,22.09,0.0,0.0,0.0,0.06867000000000001,0.33354000000000006,9.888480000000001
4111111070,22.09,0.0,0.0,0.0,0.07848000000000001,0.32373,9.888480000000001
4116161575,22.09,0.0,0.0,0.0,0.07848000000000001,0.35316,9.89829
4121212080,22.09,0.0,0.0,0.0,0.07848000000000001,0.34335000000000004,9.87867
4126262585,22.09,0.0,0.0,0.0,0.06867000000000001,0.34335000000000004,9.87867
4131313090,22.09,0.0,0.0,0.0,0.04905,0.33354000000000006,9.87867
4136363595,22.09,0.0,0.0,0.0,0.08829,0.32373,9.91791
4141414100,22.09,0.0,0.0,0.0,0.07848000000000001,0.33354000000000006,9.89829
4146464605,22.09,0.0,0.0,0.0,0.07848000000000001,0.34335000000000004,9.91791
4151515110,22.09,0.0,0.0,0.0,0.0981,0.35316,9.908100000000001
4156565615,22.09,0.0,0.0,0.0,0.0981,0.30411,9.908100000000001
4161616120,22.09,0.0,0.0,0.0,0.06867000000000001,0.34335000000000004,9.86886
4166666625,22.09,0.0,0.0,0.0,0.05886,0.35316,9.85905
4171717130,22.09,0.0,0.0,0.0,0.05886,0.33354000000000006,9.89829
4176767635,22.09,0.0,0.0,0.0,0.05886,0.33354000000000006,9.87867
4181818140,22.09,0.0,0.0,0.0,0.07848000000000001,0.32373,9.91791
4186868645,22.09,0.0,0.0,0.0,0.02943,0.2943,9.89829
4191919150,22.09,0.0,0.0,0.0,0.05886,0.30411,9.91791
4196969655,22.09,0.0,0.0,0.0,0.04905,0.36297,9.888480000000001
4202020160,22.09,0.0,0.0,0.0,0.07848000000000001,0.34335000000000004,9.87867
4207070665,22.09,0.0,0.0,0.0,0.05886,0.34335000000000004,9.86886
4212121170,22.09,0.0,0.0,0.0,0.06867000000000001,0.33354000000000006,9.888480000000001
4217171675,22.09,0.0,0.0,0.0,0.05886,0.33354000000000006,9.85905
4222222180,22.09,0.0,0.0,0.0,0.05886,0.31392000000000003,9.89829
4227272685,22.09,0.0,0.0,0.0,0.05886,0.33354000000000006,9.908100000000001
4232323190,22.09,0.0,0.0,0.0,0.07848000000000001,0.33354000000000006,9.908100000000001
4237373695,22.09,0.0,0.0,0.0,0.04905,0.31392000000000003,9.89829
4242424200,22.09,0.0,0.0,0.0,0.05886,0.34335000000000004,9.908100000000001
4247474705,22.09,0.0,0.0,0.0,0.05886,0.33354000000000006,9.85905
4252525210,22.09,0.0,0.0,0.0,0.07848000000000001,0.31392000000000003,9.87867
4257575715,22.09,0.0,0.0,0.0,0.07848000000000001,0.33354000000000006,9.888480000000001
4262626220,22.09,0.0,0.0,0.0,0.07848000000000001,0.31392000000000003,9.87867
4267676725,22.09,0.0,0.0,0.0,0.05886,0.31392000000000003,9.888480000000001
4272727230,22.09,0.0,0.0,0.0,0.05886,0.34335000000000004,9.888480000000001
4277777735,22.09,0.0,0.0,0.0,0.07848000000000001,0.34335000000000004,9.86886
4282828240,22.09,0.0,0.0,0.0,0.05886,0.34335000000000004,9.888480000000001
4287878745,22.09,0.0,0.0,0.0,0.05886,0.34335000000000004,9.85905
4292929250,22.09,0.0,0.0,0.0,0.06867000000000001,0.36297,9.86886
4297979755,22.09,0.0,0.0,0.0,0.06867000000000001,0.35316,9.87867
4303030260,22.09,0.0,0.0,0.0,0.05886,0.31392000000000003,9.86886
4308080765,22.09,0.0,0.0,0.0,0.06867000000000001,0.35316,9.87867
4313131270,22.09,0.0,0.0,0.0,0.05886,0.32373,9.888480000000001
4318181775,22.09,0.0,0.0,0.0,0.05886,0.35316,9.87867
4323232280,22.09,0.0,0.0,0.0,0.04905,0.33354000000000006,9.888480000000001
4328282785,22.09,0.0,0.0,0.0,0.05886,0.34335000000000004,9.86886
4333333290,22.09,0.0,0.0,0.0,0.02943,0.33354000000000006,9.888480000000001
4338383795,22.09,0.0,0.0,0.0,0.06867000000000001,0.33354000000000006,9.87867
4343434300,22.09,0.0,0.0,0.0,0.05886,0.32373,9.86886
4348484805,22.09,0.0,0.0,0.0,0.08829,0.33354000000000006,9.86886
4353535310,22.09,0.0,0.0,0.0,0.08829,0.30411,9.888480000000001
4358585815,22.09,0.0,0.0,0.0,0.039240000000000004,0.32373,9.89829
4363636320,22.09,0.0,0.0,0.0,0.06867000000000001,0.33354000000000006,9.888480000000001
4368686825,22.09,0.0,0.0,0.0,0.05886,0.32373,9.888480000000001
4373737330,22.09,0.0,0.0,0.0,0.07848000000000001,0.35316,9.908100000000001
4378787835,22.09,0.0,0.0,0.0,0.08829,0.34335000000000004,9.89829
4383838340,22.09,0.0,0.0,0.0,0.05886,0.31392000000000003,9.908100000000001
4388888845,22.09,0.0,0.0,0.0,0.05886,0.33354000000000006,9.87867
4393939350,22.09,0.0,0.0,0.0,0.06867000000000001,0.35316,9.85905
4398989855,22.09,0.0,0.0,0.0,0.08829,0.32373,9.86886
4404040360,22.09,0.0,0.0,0.0,0.039240000000000004,0.32373,9.888480000000001
4409090865,22.09,0.0,0.0,0.0,0.05886,0.31392000000000003,9.89829
4414141370,22.09,0.0,0.0,0.0,0.06867000000000001,0.31392000000000003,9.888480000000001
4419191875,22.09,0.0,0.0,0.0,0.05886,0.32373,9.87867
4424242380,22.09,0.0,0.0,0.0,0.07848000000000001,0.34335000000000004,9.87867
4429292885,22.09,0.0,0.0,0.0,0.06867000000000001,0.32373,9.89829
4434343390,22.09,0.0,0.0,0.0,0.04905,0.33354000000000006,9.87867
4439393895,22.09,0.0,0.0,0.0,0.06867000000000001,0.36297,9.89829
4444444400,22.09,0.0,0.0,0.0,0.08829,0.34335000000000004,9.888480000000001
4449494905,22.09,0.0,0.0,0.0,0.07848000000000001,0.35316,9.87867
4454545410,22.09,0.0,0.0,0.0,0.04905,0.34335000000000004,9.87867
4459595915,22.09,0.0,0.0,0.0,0.05886,0.33354000000000006,9.888480000000001
4464646420,22.09,0.0,0.0,0.0,0.06867000000000001,0.32373,9.888480000000001
4469696925,22.09,0.0,0.0,0.0,0.05886,0.33354000000000006,9.87867
4474747430,22.09,0.0,0.0,0.0,0.06867000000000001,0.32373,9.908100000000001
4479797935,22.09,0.0,0.0,0.0,0.06867000000000001,0.35316,9.888480000000001
4484848440,22.09,0.0,0.0,0.0,0.07848000000000001,0.32373,9.89829
4489898945,22.09,0.0,0.0,0.0,0.07848000000000001,0.34335000000000004,9.87867
4494949450,22.09,0.0,0.0,0.0,0.04905,0.32373,9.84924
4499999955,22.09,0.0,0.0,0.0,0.06867000000000001,0.34335000000000004,9.908100000000001
4505050460,22.09,0.0,0.0,0.0,0.04905,0.34335000000000004,9.86886
4510100965,22.09,0.0,0.0,0.0,0.05886,0.33354000000000006,9.888480000000001
4515151470,22.09,0.0,0.0,0.0,0.05886,0.32373,9.89829
4520201975,22.09,0.0,0.0,0.0,0.07848000000000001,0.31392000000000003,9.85905
4525252480,22.09,0.0,0.0,0.0,0.06867000000000001,0.37278,9.888480000000001
4530302985,22.09,0.0,0.0,0.0,0.04905,0.34335000000000004,9.888480000000001
4535353490,22.09,0.0,0.0,0.0,0.05886,0.32373,9.86886
4540403995,22.09,0.0,0.0,0.0,0.04905,0.33354000000000006,9.86886
4545454500,22.09,0.0,0.0,0.0,0.06867000000000001,0.31392000000000003,9.86886
4550505005,22.09,0.0,0.0,0.0,0.07848000000000001,0.34335000000000004,9.89829
4555555510,22.09,0.0,0.0,0.0,0.04905,0.31392000000000003,9.86886
4560606015,22.09,0.0,0.0,0.0,0.05886,0.34335000000000004,9.888480000000001
4565656520,22.09,0.0,0.0,0.0,0.04905,0.33354000000000006,9.86886
4570707025,22.09,0.0,0.0,0.0,0.04905,0.35316,9.84924
4575757530,22.09,0.0,0.0,0.0,0.04905,0.35316,9.87867
4580808035,22.09,0.0,0.0,0.0,0.06867000000000001,0.32373,9.87867
4585858540,22.09,0.0,0.0,0.0,0.08829,0.34335000000000004,9.91791
4590909045,22.09,0.0,0.0,0.0,0.10791,0.34335000000000004,9.888480000000001
4595959550,22.09,0.0,0.0,0.0,0.06867000000000001,0.31392000000000003,9.89829
4601010055,22.09,0.0,0.0,0.0,0.07848000000000001,0.34335000000000004,9.908100000000001
4606060560,22.09,0.0,0.0,0.0,0.05886,0.32373,9.87867
4611111065,22.09,0.0,0.0,0.0,0.08829,0.35316,9.84924
4616161570,22.09,0.0,0.0,0.0,0.05886,0.33354000000000006,9.86886
4621212075,22.09,0.0,0.0,0.0,0.08829,0.34335000000000004,9.87867
4626262580,22.09,0.0,0.0,0.0,0.06867000000000001,0.33354000000000006,9.908100000000001
4631313085,22.09,0.0,0.0,0.0,0.06867000000000001,0.34335000000000004,9.888480000000001
4636363590,22.09,0.0,0.0,0.0,0.05886,0.35316,9.89829
4641414095,22.09,0.0,0.0,0.0,0.07848000000000001,0.31392000000000003,9.908100000000001
4646464600,22.09,0.0,0.0,0.0,0.06867000000000001,0.32373,9.89829
4651515105,22.09,0.0,0.0,0.0,0.06867000000000001,0.34335000000000004,9.89829
4656565610,22.09,0.0,0.0,0.0,0.06867000000000001,0.32373,9.888480000000001
4661616115,22.09,0.0,0.0,0.0,0.0981,0.34335000000000004,9.87867
4666666620,22.09,0.0,0.0,0.0,0.07848000000000001,0.33354000000000006,9.888480000000001
4671717125,22.09,0.0,0.0,0.0,0.07848000000000001,0.31392000000000003,9.87867
4676767630,22.09,0.0,0.0,0.0,0.05886,0.30411,9.908100000000001
4681818135,22.09,0.0,0.0,0.0,0.07848000000000001,0.31392000000000003,9.86886
4686868640,22.09,0.0,0.0,0.0,0.07848000000000001,0.32373,9.89829
4691919145,22.09,0.0,0.0,0.0,0.07848000000000001,0.33354000000000006,9.89829
4696969650,22.09,0.0,0.0,0.0,0.05886,0.36297,9.888480000000001
4702020155,22.09,0.0,0.0,0.0,0.05886,0.34335000000000004,9.86886
4707070660,22.09,0.0,0.0,0.0,0.07848000000000001,0.36297,9.888480000000001
4712121165,22.09,0.0,0.0,0.0,0.07848000000000001,0.34335000000000004,9.86886
4717171670,22.09,0.0,0.0,0.0,0.05886,0.35316,9.89829
4722222175,22.09,0.0,0.0,0.0,0.05886,0.32373,9.908100000000001
4727272680,22.09,0.0,0.0,0.0,0.07848000000000001,0.31392000000000003,9.91791
4732323185,22.09,0.0,0.0,0.0,0.06867000000000001,0.32373,9.86886
4737373690,22.09,0.0,0.0,0.0,0.06867000000000001,0.34335000000000004,9.87867
4742424195,22.09,0.0,0.0,0.0,0.04905,0.34335000000000004,9.86886
4747474700,22.09,0.0,0.0,0.0,0.04905,0.31392000000000003,9.86886
4752525205,22.09,0.0,0.0,0.0,0.07848000000000001,0.35316,9.87867
4757575710,22.09,0.0,0.0,0.0,0.06867000000000001,0.34335000000000004,9.908100000000001
4762626215,22.09,0.0,0.0,0.0,0.06867000000000001,0.31392000000000003,9.91791
4767676720,22.09,0.0,0.0,0.0,0.07848000000000001,0.32373,9.91791
4772727225,22.09,0.0,0.0,0.0,0.06867000000000001,0.34335000000000004,9.908100000000001
4777777730,22.09,0.0,0.0,0.0,0.05886,0.32373,9.908100000000001
4782828235,22.09,0.0,0.0,0.0,0.08829,0.37278,9.85905
4787878740,22.09,0.0,0.0,0.0,0.08829,0.34335000000000004,9.87867
4792929245,22.09,0.0,0.0,0.0,0.07848000000000001,0.33354000000000006,9.888480000000001
4797979750,22.09,0.0,0.0,0.0,0.07848000000000001,0.33354000000000006,9.87867
4803030255,22.09,0.0,0.0,0.0,0.07848000000000001,0.35316,9.85905
4808080760,22.09,0.0,0.0,0.0,0.06867000000000001,0.35316,9.86886
4813131265,22.09,0.0,0.0,0.0,0.07848000000000001,0.36297,9.908100000000001
4818181770,22.09,0.0,0.0,0.0,0.06867000000000001,0.33354000000000006,9.86886
4823232275,22.09,0.0,0.0,0.0,0.04905,0.35316,9.89829
4828282780,22.09,0.0,0.0,0.0,0.08829,0.33354000000000006,9.888480000000001
4833333285,22.09,0.0,0.0,0.0,0.05886,0.31392000000000003,9.89829
4838383790,22.09,0.0,0.0,0.0,0.07848000000000001,0.35316,9.888480000000001
4843434295,22.09,0.0,0.0,0.0,0.05886,0.33354000000000006,9.91791
4848484800,22.09,0.0,0.0,0.0,0.04905,0.33354000000000006,9.87867
4853535305,22.09,0.0,0.0,0.0,0.05886,0.34335000000000004,9.89829
4858585810,22.09,0.0,0.0,0.0,0.06867000000000001,0.33354000000000006,9.86886
4863636315,22.09,0.0,0.0,0.0,0.05886,0.34335000000000004,9.86886
4868686820,22.09,0.0,0.0,0.0,0.039240000000000004,0.33354000000000006,9.86886
4873737325,22.09,0.0,0.0,0.0,0.04905,0.33354000000000006,9.87867
4878787830,22.09,0.0,0.0,0.0,0.05886,0.33354000000000006,9.888480000000001
4883838335,22.09,0.0,0.0,0.0,0.04905,0.34335000000000004,9.908100000000001
4888888840,22.09,0.0,0.0,0.0,0.07848000000000001,0.33354000000000006,9.908100000000001
4893939345,22.09,0.0,0.0,0.0,0.05886,0.32373,9.91791
4898989850,22.09,0.0,0.0,0.0,0.06867000000000001,0.34335000000000004,9.86886
4904040355,22.09,0.0,0.0,0.0,0.05886,0.36297,9.87867
4909090860,22.09,0.0,0.0,0.0,0.06867000000000001,0.33354000000000006,9.86886
4914141365,22.09,0.0,0.0,0.0,0.04905,0.31392000000000003,9.89829
4919191870,22.09,0.0,0.0,0.0,0.08829,0.33354000000000006,9.888480000000001
4924242375,22.09,0.0,0.0,0.0,0.07848000000000001,0.31392000000000003,9.888480000000001
4929292880,22.09,0.0,0.0,0.0,0.06867000000000001,0.35316,9.89829
4934343385,22.09,0.0,0.0,0.0,0.07848000000000001,0.36297,9.86886
4939393890,22.09,0.0,0.0,0.0,0.07848000000000001,0.34335000000000004,9.87867
4944444395,22.09,0.0,0.0,0.0,0.05886,0.35316,9.908100000000001
4949494900,22.09,0.0,0.0,0.0,0.06867000000000001,0.34335000000000004,9.888480000000001
4954545405,22.09,0.0,0.0,0.0,0.04905,0.35316,9.888480000000001
4959595910,22.09,0.0,0.0,0.0,0.05886,0.31392000000000003,9.888480000000001
4964646415,22.09,0.0,0.0,0.0,0.04905,0.33354000000000006,9.86886
4969696920,22.09,0.0,0.0,0.0,0.07848000000000001,0.34335000000000004,9.85905
4974747425,22.09,0.0,0.0,0.0,0.07848000000000001,0.33354000000000006,9.937529999999999
4979797930,22.09,0.0,0.0,0.0,0.08829,0.31392000000000003,9.86886
4984848435,22.09,0.0,0.0,0.0,0.08829,0.31392000000000003,9.85905
4989898940,22.09,0.0,0.0,0.0,0.039240000000000004,0.3924,9.85905
4994949445,22.09,0.0,0.0,0.0,0.05886,0.33354000000000006,9.91791
4999999950,22.09,0.0,0.0,0.0,0.04905,0.35316,9.87867
5005050455,22.09,0.0,0.0,0.0,0.06867000000000001,0.33354000000000006,9.888480000000001
5010100960,22.09,0.0,0.0,0.0,0.05886,0.33354000000000006,9.89829
5015151465,22.09,0.0,0.0,0.0,0.05886,0.31392000000000003,9.908100000000001
5020201970,22.09,0.0,0.0,0.0,0.07848000000000001,0.31392000000000003,9.87867
5025252475,22.09,0.0,0.0,0.0,0.07848000000000001,0.32373,9.86886
5030302980,22.09,0.0,0.0,0.0,0.07848000000000001,0.31392000000000003,9.87867
5035353485,22.09,0.0,0.0,0.0,0.0981,0.33354000000000006,9.87867
5040403990,22.09,0.0,0.0,0.0,0.06867000000000001,0.33354000000000006,9.87867
5045454495,22.09,0.0,0.0,0.0,0.05886,0.33354000000000006,9.89829
5050505000,22.09,0.0,0.0,0.0,0.06867000000000001,0.32373,9.908100000000001
5055555505,22.09,0.0,0.0,0.0,0.0981,0.35316,9.86886
5060606010,22.09,0.0,0.0,0.0,0.05886,0.35316,9.89829
5065656515,22.09,0.0,0.0,0.0,0.07848000000000001,0.36297,9.86886
5070707020,22.09,0.0,0.0,0.0,0.08829,0.35316,9.888480000000001
5075757525,22.09,0.0,0.0,0.0,0.07848000000000001,0.33354000000000006,9.888480000000001
5080808030,22.09,0.0,0.0,0.0,0.05886,0.34335000000000004,9.86886
5085858535,22.09,0.0,0.0,0.0,0.07848000000000001,0.30411,9.908100000000001
5090909040,22.09,0.0,0.0,0.0,0.06867000000000001,0.31392000000000003,9.89829
5095959545,22.09,0.0,0.0,0.0,0.06867000000000001,0.32373,9.87867
5101010050,22.09,0.0,0.0,0.0,0.04905,0.35316,9.908100000000001
5106060555,22.09,0.0,0.0,0.0,0.05886,0.32373,9.87867
5111111060,22.09,0.0,0.0,0.0,0.06867000000000001,0.35316,9.87867
5116161565,22.09,0.0,0.0,0.0,0.06867000000000001,0.35316,9.888480000000001
5121212070,22.09,0.0,0.0,0.0,0.05886,0.32373,9.888480000000001
5126262575,22.09,0.0,0.0,0.0,0.05886,0.33354000000000006,9.89829
5131313080,22.09,0.0,0.0,0.0,0.04905,0.32373,9.89829
5136363585,22.09,0.0,0.0,0.0,0.0981,0.33354000000000006,9.888480000000001
5141414090,22.09,0.0,0.0,0.0,0.05886,0.33354000000000006,9.87867
5146464595,22.09,0.0,0.0,0.0,0.04905,0.33354000000000006,9.89829
5151515100,22.09,0.0,0.0,0.0,0.06867000000000001,0.35316,9.888480000000001
5156565605,22.09,0.0,0.0,0.0,0.05886,0.33354000000000006,9.888480000000001
5161616110,22.09,0.0,0.0,0.0,0.06867000000000001,0.36297,9.89829
5166666615,22.09,0.0,0.0,0.0,0.06867000000000001,0.32373,9.87867
5171717120,22.09,0.0,0.0,0.0,0.06867000000000001,0.36297,9.888480000000001
5176767625,22.09,0.0,0.0,0.0,0.07848000000000001,0.33354000000000006,9.86886
5181818130,22.09,0.0,0.0,0.0,0.05886,0.31392000000000003,9.87867
5186868635,22.09,0.0,0.0,0.0,0.06867000000000001,0.33354000000000006,9.89829
5191919140,22.09,0.0,0.0,0.0,0.039240000000000004,0.33354000000000006,9.87867
5196969645,22.09,0.0,0.0,0.0,0.07848000000000001,0.34335000000000004,9.888480000000001
5202020150,22.09,0.0,0.0,0.0,0.07848000000000001,0.34335000000000004,9.87867
5207070655,22.09,0.0,0.0,0.0,0.04905,0.33354000000000006,9.86886
5212121160,22.09,0.0,0.0,0.0,0.05886,0.36297,9.908100000000001
5217171665,22.09,0.0,0.0,0.0,0.05886,0.34335000000000004,9.85905
5222222170,22.09,0.0,0.0,0.0,0.08829,0.33354000000000006,9.85905
5227272675,22.09,0.0,0.0,0.0,0.08829,0.34335000000000004,9.86886
5232323180,22.09,0.0,0.0,0.0,0.07848000000000001,0.36297,9.89829
5237373685,22.09,0.0,0.0,0.0,0.08829,0.32373,9.86886
5242424190,22.09,0.0,0.0,0.0,0.04905,0.32373,9.888480000000001
5247474695,22.09,0.0,0.0,0.0,0.07848000000000001,0.35316,9.888480000000001
5252525200,22.09,0.0,0.0,0.0,0.06867000000000001,0.33354000000000006,9.888480000000001
5257575705,22.09,0.0,0.0,0.0,0.07848000000000001,0.33354000000000006,9.89829
5262626210,22.09,0.0,0.0,0.0,0.04905,0.31392000000000003,9.89829
5267676715,22.09,0.0,0.0,0.0,0.06867000000000001,0.33354000000000006,9.888480000000001
5272727220,22.09,0.0,0.0,0.0,0.06867000000000001,0.33354000000000006,9.84924
5277777725,22.09,0.0,0.0,0.0,0.08829,0.31392000000000003,9.888480000000001
5282828230,22.09,0.0,0.0,0.0,0.06867000000000001,0.31392000000000003,9.87867
5287878735,22.09,0.0,0.0,0.0,0.06867000000000001,0.35316,9.908100000000001
5292929240,22.09,0.0,0.0,0.0,0.04905,0.34335000000000004,9.87867
5297979745,22.09,0.0,0.0,0.0,0.05886,0.33354000000000006,9.908100000000001
5303030250,22.09,0.0,0.0,0.0,0.06867000000000001,0.33354000000000006,9.888480000000001
5308080755,22.09,0.0,0.0,0.0,0.04905,0.34335000000000004,9.89829
5313131260,22.09,0.0,0.0,0.0,0.07848000000000001,0.35316,9.888480000000001
5318181765,22.09,0.0,0.0,0.0,0.05886,0.33354000000000006,9.87867
5323232270,22.09,0.0,0.0,0.0,0.06867000000000001,0.33354000000000006,9.86886
5328282775,22.09,0.0,0.0,0.0,0.0981,0.31392000000000003,9.89829
5333333280,22.09,0.0,0.0,0.0,0.04905,0.33354000000000006,9.87867
5338383785,22.09,0.0,0.0,0.0,0.06867000000000001,0.30411,9.86886
5343434290,22.09,0.0,0.0,0.0,0.039240000000000004,0.2943,9.908100000000001
5348484795,22.09,0.0,0.0,0.0,0.07848000000000001,0.33354000000000006,9.89829
5353535300,22.09,0.0,0.0,0.0,0.06867000000000001,0.35316,9.86886
5358585805,22.09,0.0,0.0,0.0,0.05886,0.33354000000000006,9.888480000000001
5363636310,22.09,0.0,0.0,0.0,0.06867000000000001,0.34335000000000004,9.87867
5368686815,22.09,0.0,0.0,0.0,0.07848000000000001,0.33354000000000006,9.888480000000001
5373737320,22.09,0.0,0.0,0.0,0.08829,0.33354000000000006,9.87867
5378787825,22.09,0.0,0.0,0.0,0.07848000000000001,0.33354000000000006,9.89829
5383838330,22.09,0.0,0.0,0.0,0.07848000000000001,0.33354000000000006,9.89829
5388888835,22.09,0.0,0.0,0.0,0.04905,0.33354000000000006,9.89829
5393939340,22.09,0.0,0.0,0.0,0.07848000000000001,0.30411,9.87867
5398989845,22.09,0.0,0.0,0.0,0.06867000000000001,0.33354000000000006,9.87867
5404040350,22.09,0.0,0.0,0.0,0.05886,0.33354000000000006,9.89829
5409090855,22.09,0.0,0.0,0.0,0.06867000000000001,0.35316,9.87867
5414141360,22.09,0.0,0.0,0.0,0.07848000000000001,0.35316,9.86886
5419191865,22.09,0.0,0.0,0.0,0.06867000000000001,0.32373,9.87867
5424242370,22.09,0.0,0.0,0.0,0.07848000000000001,0.32373,9.84924
5429292875,22.09,0.0,0.0,0.0,0.06867000000000001,0.33354000000000006,9.91791
5434343380,22.09,0.0,0.0,0.0,0.08829,0.37278,9.87867
5439393885,22.09,0.0,0.0,0.0,0.06867000000000001,0.34335000000000004,9.86886
5444444390,22.09,0.0,0.0,0.0,0.07848000000000001,0.31392000000000003,9.86886
5449494895,22.09,0.0,0.0,0.0,0.06867000000000001,0.33354000000000006,9.87867
5454545400,22.09,0.0,0.0,0.0,0.039240000000000004,0.33354000000000006,9.908100000000001
5459595905,22.09,0.0,0.0,0.0,0.039240000000000004,0.34335000000000004,9.908100000000001
5464646410,22.09,0.0,0.0,0.0,0.0981,0.32373,9.888480000000001
5469696915,22.09,0.0,0.0,0.0,0.06867000000000001,0.33354000000000006,9.86886
5474747420,22.09,0.0,0.0,0.0,0.04905,0.30411,9.86886
5479797925,22.09,0.0,0.0,0.0,0.07848000000000001,0.32373,9.87867
5484848430,22.09,0.0,0.0,0.0,0.05886,0.32373,9.89829
5489898935,22.09,0.0,0.0,0.0,0.08829,0.35316,9.91791
5494949440,22.09,0.0,0.0,0.0,0.08829,0.33354000000000006,9.888480000000001
5499999945,22.09,0.0,0.0,0.0,0.07848000000000001,0.31392000000000003,9.87867
5505050450,22.09,0.0,0.0,0.0,0.05886,0.35316,9.86886
5510100955,22.09,0.0,0.0,0.0,0.07848000000000001,0.35316,9.89829
5515151460,22.09,0.0,0.0,0.0,0.07848000000000001,0.33354000000000006,9.888480000000001
5520201965,22.09,0.0,0.0,0.0,0.05886,0.34335000000000004,9.89829
5525252470,22.09,0.0,0.0,0.0,0.07848000000000001,0.35316,9.87867
5530302975,22.09,0.0,0.0,0.0,0.04905,0.31392000000000003,9.91791
5535353480,22.09,0.0,0.0,0.0,0.05886,0.32373,9.87867
5540403985,22.09,0.0,0.0,0.0,0.06867000000000001,0.33354000000000006,9.86886
5545454490,22.09,0.0,0.0,0.0,0.07848000000000001,0.31392000000000003,9.87867
5550504995,22.09,0.0,0.0,0.0,0.0981,0.34335000000000004,9.888480000000001
5555555500,22.09,0.0,0.0,0.0,0.04905,0.36297,9.87867
5560606005,22.09,0.0,0.0,0.0,0.06867000000000001,0.31392000000000003,9.87867
5565656510,22.09,0.0,0.0,0.0,0.07848000000000001,0.36297,9.87867
5570707015,22.09,0.0,0.0,0.0,0.07848000000000001,0.34335000000000004,9.87867
5575757520,22.09,0.0,0.0,0.0,0.07848000000000001,0.31392000000000003,9.87867
5580808025,22.09,0.0,0.0,0.0,0.05886,0.33354000000000006,9.87867
5585858530,22.09,0.0,0.0,0.0,0.06867000000000001,0.35316,9.888480000000001
5590909035,22.09,0.0,0.0,0.0,0.06867000000000001,0.34335000000000004,9.89829
5595959540,22.09,0.0,0.0,0.0,0.06867000000000001,0.34335000000000004,9.888480000000001
5601010045,22.09,0.0,0.0,0.0,0.07848000000000001,0.34335000000000004,9.87867
5606060550,22.09,0.0,0.0,0.0,0.0981,0.32373,9.89829
5611111055,22.09,0.0,0.0,0.0,0.0981,0.32373,9.84924
5616161560,22.09,0.0,0.0,0.0,0.06867000000000001,0.34335000000000004,9.888480000000001
5621212065,22.09,0.0,0.0,0.0,0.06867000000000001,0.30411,9.888480000000001
5626262570,22.09,0.0,0.0,0.0,0.04905,0.32373,9.87867
5631313075,22.09,0.0,0.0,0.0,0.06867000000000001,0.33354000000000006,9.888480000000001
5636363580,22.09,0.0,0.0,0.0,0.04905,0.34335000000000004,9.87867
5641414085,22.09,0.0,0.0,0.0,0.05886,0.35316,9.87867
5646464590,22.09,0.0,0.0,0.0,0.07848000000000001,0.36297,9.89829
5651515095,22.09,0.0,0.0,0.0,0.08829,0.35316,9.85905
5656565600,22.09,0.0,0.0,0.0,0.07848000000000001,0.35316,9.86886
5661616105,22.09,0.0,0.0,0.0,0.04905,0.32373,9.89829
5666666610,22.09,0.0,0.0,0.0,0.05886,0.30411,9.908100000000001
5671717115,22.09,0.0,0.0,0.0,0.07848000000000001,0.2943,9.908100000000001
5676767620,22.09,0.0,0.0,0.0,0.04905,0.31392000000000003,9.91791
5681818125,22.09,0.0,0.0,0.0,0.05886,0.35316,9.89829
5686868630,22.09,0.0,0.0,0.0,0.06867000000000001,0.33354000000000006,9.89829
5691919135,22.09,0.0,0.0,0.0,0.05886,0.34335000000000004,9.87867
5696969640,22.09,0.0,0.0,0.0,0.039240000000000004,0.32373,9.86886
5702020145,22.09,0.0,0.0,0.0,0.07848000000000001,0.31392000000000003,9.89829
5707070650,22.09,0.0,0.0,0.0,0.06867000000000001,0.33354000000000006,9.888480000000001
5712121155,22.09,0.0,0.0,0.0,0.08829,0.33354000000000006,9.888480000000001
5717171660,22.09,0.0,0.0,0.0,0.05886,0.32373,9.89829
5722222165,22.09,0.0,0.0,0.0,0.06867000000000001,0.34335000000000004,9.87867
5727272670,22.09,0.0,0.0,0.0,0.05886,0.32373,9.888480000000001
5732323175,22.09,0.0,0.0,0.0,0.05886,0.33354000000000006,9.91791
5737373680,22.09,0.0,0.0,0.0,0.06867000000000001,0.34335000000000004,9.888480000000001
5742424185,22.09,0.0,0.0,0.0,0.07848000000000001,0.33354000000000006,9.89829
5747474690,22.09,0.0,0.0,0.0,0.08829,0.2943,9.888480000000001
5752525195,22.09,0.0,0.0,0.0,0.04905,0.34335000000000004,9.89829
5757575700,22.09,0.0,0.0,0.0,0.06867000000000001,0.34335000000000004,9.86886
5762626205,22.09,0.0,0.0,0.0,0.07848000000000001,0.36297,9.91791
5767676710,22.09,0.0,0.0,0.0,0.07848000000000001,0.35316,9.87867
5772727215,22.09,0.0,0.0,0.0,0.05886,0.33354000000000006,9.86886
5777777720,22.09,0.0,0.0,0.0,0.06867000000000001,0.33354000000000006,9.87867
5782828225,22.09,0.0,0.0,0.0,0.08829,0.2943,9.85905
5787878730,22.09,0.0,0.0,0.0,0.07848000000000001,0.31392000000000003,9.888480000000001
5792929235,22.09,0.0,0.0,0.0,0.039240000000000004,0.33354000000000006,9.85905
5797979740,22.09,0.0,0.0,0.0,0.06867000000000001,0.33354000000000006,9.86886
5803030245,22.09,0.0,0.0,0.0,0.05886,0.32373,9.888480000000001
5808080750,22.09,0.0,0.0,0.0,0.07848000000000001,0.31392000000000003,9.86886
5813131255,22.09,0.0,0.0,0.0,0.019620000000000002,0.33354000000000006,9.89829
5818181760,22.09,0.0,0.0,0.0,0.0981,0.32373,9.87867
5823232265,22.09,0.0,0.0,0.0,0.05886,0.33354000000000006,9.85905
5828282770,22.09,0.0,0.0,0.0,0.05886,0.32373,9.89829
5833333275,22.09,0.0,0.0,0.0,0.08829,0.32373,9.92772
5838383780,22.09,0.0,0.0,0.0,0.06867000000000001,0.32373,9.87867
5843434285,22.09,0.0,0.0,0.0,0.05886,0.32373,9.86886
5848484790,22.09,0.0,0.0,0.0,0.07848000000000001,0.32373,9.86886
5853535295,22.09,0.0,0.0,0.0,0.0981,0.33354000000000006,9.85905
5858585800,22.09,0.0,0.0,0.0,0.06867000000000001,0.37278,9.87867
5863636305,22.09,0.0,0.0,0.0,0.07848000000000001,0.35316,9.89829
5868686810,22.09,0.0,0.0,0.0,0.04905,0.31392000000000003,9.888480000000001
5873737315,22.09,0.0,0.0,0.0,0.05886,0.31392000000000003,9.85905
5878787820,22.09,0.0,0.0,0.0,0.08829,0.31392000000000003,9.91791
5883838325,22.09,0.0,0.0,0.0,0.07848000000000001,0.34335000000000004,9.888480000000001
5888888830,22.09,0.0,0.0,0.0,0.06867000000000001,0.35316,9.888480000000001
5893939335,22.09,0.0,0.0,0.0,0.06867000000000001,0.34335000000000004,9.85905
5898989840,22.09,0.0,0.0,0.0,0.06867000000000001,0.32373,9.888480000000001
5904040345,22.09,0.0,0.0,0.0,0.08829,0.31392000000000003,9.86886
5909090850,22.09,0.0,0.0,0.0,0.04905,0.33354000000000006,9.87867
5914141355,22.09,0.0,0.0,0.0,0.07848000000000001,0.32373,9.89829
5919191860,22.09,0.0,0.0,0.0,0.05886,0.32373,9.89829
5924242365,22.09,0.0,0.0,0.0,0.02943,0.35316,9.888480000000001
5929292870,22.09,0.0,0.0,0.0,0.0981,0.36297,9.86886
5934343375,22.09,0.0,0.0,0.0,0.07848000000000001,0.33354000000000006,9.86886
5939393880,22.09,0.0,0.0,0.0,0.08829,0.35316,9.888480000000001
5944444385,22.09,0.0,0.0,0.0,0.05886,0.33354000000000006,9.85905
5949494890,22.09,0.0,0.0,0.0,0.07848000000000001,0.31392000000000003,9.85905
5954545395,22.09,0.0,0.0,0.0,0.06867000000000001,0.31392000000000003,9.89829
5959595900,22.09,0.0,0.0,0.0,0.05886,0.33354000000000006,9.908100000000001
5964646405,22.09,0.0,0.0,0.0,0.04905,0.31392000000000003,9.888480000000001
5969696910,22.09,0.0,0.0,0.0,0.04905,0.33354000000000006,9.89829
5974747415,22.09,0.0,0.0,0.0,0.04905,0.34335000000000004,9.89829
5979797920,22.09,0.0,0.0,0.0,0.07848000000000001,0.33354000000000006,9.888480000000001
5984848425,22.09,0.0,0.0,0.0,0.06867000000000001,0.31392000000000003,9.908100000000001
5989898930,22.09,0.0,0.0,0.0,0.04905,0.33354000000000006,9.87867
5994949435,22.09,0.0,0.0,0.0,0.06867000000000001,0.32373,9.888480000000001
5999999940,22.09,0.0,0.0,0.0,0.06867000000000001,0.34335000000000004,9.888480000000001
6005050445,22.09,0.0,0.0,0.0,0.04905,0.31392000000000003,9.87867
6010100950,22.09,0.0,0.0,0.0,0.08829,0.35316,9.87867
6015151455,22.09,0.0,0.0,0.0,0.08829,0.33354000000000006,9.86886
6020201960,22.09,0.0,0.0,0.0,0.06867000000000001,0.36297,9.85905
6025252465,22.09,0.0,0.0,0.0,0.08829,0.33354000000000006,9.89829
6030302970,22.09,0.0,0.0,0.0,0.06867000000000001,0.32373,9.84924
6035353475,22.09,0.0,0.0,0.0,0.07848000000000001,0.30411,9.87867
6040403980,22.09,0.0,0.0,0.0,0.06867000000000001,0.32373,9.91791
6045454485,22.09,0.0,0.0,0.0,0.05886,0.33354000000000006,9.91791
6050504990,22.09,0.0,0.0,0.0,0.10791,0.34335000000000004,9.888480000000001
6055555495,22.09,0.0,0.0,0.0,0.08829,0.34335000000000004,9.87867
6060606000,22.09,0.0,0.0,0.0,0.04905,0.35316,9.84924
6065656505,22.09,0.0,0.0,0.0,0.06867000000000001,0.35316,9.86886
6070707010,22.09,0.0,0.0,0.0,0.08829,0.35316,9.87867
6075757515,22.09,0.0,0.0,0.0,0.07848000000000001,0.31392000000000003,9.908100000000001
6080808020,22.09,0.0,0.0,0.0,0.07848000000000001,0.33354000000000006,9.888480000000001
6085858525,22.09,0.0,0.0,0.0,0.06867000000000001,0.33354000000000006,9.888480000000001
6090909030,22.09,0.0,0.0,0.0,0.07848000000000001,0.35316,9.91791
6095959535,22.09,0.0,0.0,0.0,0.08829,0.33354000000000006,9.86886
6101010040,22.09,0.0,0.0,0.0,0.039240000000000004,0.34335000000000004,9.908100000000001
6106060545,22.09,0.0,0.0,0.0,0.06867000000000001,0.33354000000000006,9.888480000000001
6111111050,22.09,0.0,0.0,0.0,0.04905,0.33354000000000006,9.888480000000001
6116161555,22.09,0.0,0.0,0.0,0.05886,0.34335000000000004,9.888480000000001
6121212060,22.09,0.0,0.0,0.0,0.08829,0.36297,9.91791
6126262565,22.09,0.0,0.0,0.0,0.05886,0.31392000000000003,9.91791
6131313070,22.09,0.0,0.0,0.0,0.06867000000000001,0.33354000000000006,9.89829
6136363575,22.09,0.0,0.0,0.0,0.04905,0.33354000000000006,9.87867
6141414080,22.09,0.0,0.0,0.0,0.0981,0.33354000000000006,9.85905
6146464585,22.09,0.0,0.0,0.0,0.08829,0.33354000000000006,9.87867
6151515090,22.09,0.0,0.0,0.0,0.08829,0.33354000000000006,9.86886
6156565595,22.09,0.0,0.0,0.0,0.08829,0.32373,9.87867
6161616100,22.09,0.0,0.0,0.0,0.05886,0.32373,9.888480000000001
6166666605,22.09,0.0,0.0,0.0,0.05886,0.31392000000000003,9.87867
6171717110,22.09,0.0,0.0,0.0,0.06867000000000001,0.34335000000000004,9.888480000000001
6176767615,22.09,0.0,0.0,0.0,0.06867000000000001,0.34335000000000004,9.86886
6181818120,22.09,0.0,0.0,0.0,0.08829,0.33354000000000006,9.87867
6186868625,22.09,0.0,0.0,0.0,0.07848000000000001,0.33354000000000006,9.86886
6191919130,22.09,0.0,0.0,0.0,0.07848000000000001,0.32373,9.87867
6196969635,22.09,0.0,0.0,0.0,0.05886,0.30411,9.888480000000001
6202020140,22.09,0.0,0.0,0.0,0.08829,0.31392000000000003,9.89829
6207070645,22.09,0.0,0.0,0.0,0.039240000000000004,0.33354000000000006,9.908100000000001
6212121150,22.09,0.0,0.0,0.0,0.07848000000000001,0.34335000000000004,9.888480000000001
6217171655,22.09,0.0,0.0,0.0,0.0981,0.36297,9.85905
6222222160,22.09,0.0,0.0,0.0,0.06867000000000001,0.35316,9.91791
6227272665,22.09,0.0,0.0,0.0,0.06867000000000001,0.32373,9.86886
6232323170,22.09,0.0,0.0,0.0,0.06867000000000001,0.33354000000000006,9.87867
6237373675,22.09,0.0,0.0,0.0,0.039240000000000004,0.30411,9.89829
6242424180,22.09,0.0,0.0,0.0,0.07848000000000001,0.31392000000000003,9.888480000000001
6247474685,22.09,0.0,0.0,0.0,0.05886,0.32373,9.888480000000001
6252525190,22.09,0.0,0.0,0.0,0.039240000000000004,0.32373,9.89829
6257575695,22.09,0.0,0.0,0.0,0.06867000000000001,0.33354000000000006,9.908100000000001
6262626200,22.09,0.0,0.0,0.0,0.08829,0.35316,9.86886
6267676705,22.09,0.0,0.0,0.0,0.07848000000000001,0.35316,9.86886
6272727210,22.09,0.0,0.0,0.0,0.07848000000000001,0.33354000000000006,9.89829
6277777715,22.09,0.0,0.0,0.0,0.06867000000000001,0.34335000000000004,9.86886
6282828220,22.09,0.0,0.0,0.0,0.05886,0.33354000000000006,9.91791
6287878725,22.09,0.0,0.0,0.0,0.06867000000000001,0.32373,9.89829
6292929230,22.09,0.0,0.0,0.0,0.06867000000000001,0.32373,9.89829
6297979735,22.09,0.0,0.0,0.0,0.05886,0.35316,9.908100000000001
6303030240,22.09,0.0,0.0,0.0,0.06867000000000001,0.34335000000000004,9.86886
6308080745,22.09,0.0,0.0,0.0,0.07848000000000001,0.35316,9.87867
6313131250,22.09,0.0,0.0,0.0,0.07848000000000001,0.33354000000000006,9.85905
6318181755,22.09,0.0,0.0,0.0,0.07848000000000001,0.32373,9.87867
6323232260,22.09,0.0,0.0,0.0,0.06867000000000001,0.31392000000000003,9.888480000000001
6328282765,22.09,0.0,0.0,0.0,0.05886,0.33354000000000006,9.89829
6333333270,22.09,0.0,0.0,0.0,0.05886,0.34335000000000004,9.888480000000001
6338383775,22.09,0.0,0.0,0.0,0.08829,0.34335000000000004,9.87867
6343434280,22.09,0.0,0.0,0.0,0.06867000000000001,0.34335000000000004,9.888480000000001
6348484785,22.09,0.0,0.0,0.0,0.07848000000000001,0.33354000000000006,9.86886
6353535290,22.09,0.0,0.0,0.0,0.08829,0.33354000000000006,9.87867
6358585795,22.09,0.0,0.0,0.0,0.0981,0.31392000000000003,9.888480000000001
6363636300,22.09,0.0,0.0,0.0,0.06867000000000001,0.30411,9.908100000000001
6368686805,22.09,0.0,0.0,0.0,0.07848000000000001,0.31392000000000003,9.89829
6373737310,22.09,0.0,0.0,0.0,0.04905,0.31392000000000003,9.89829
6378787815,22.09,0.0,0.0,0.0,0.04905,0.35316,9.888480000000001
6383838320,22.09,0.0,0.0,0.0,0.07848000000000001,0.35316,9.86886
6388888825,22.09,0.0,0.0,0.0,0.06867000000000001,0.35316,9.85905
6393939330,22.09,0.0,0.0,0.0,0.08829,0.32373,9.87867
6398989835,22.09,0.0,0.0,0.0,0.04905,0.33354000000000006,9.888480000000001
6404040340,22.09,0.0,0.0,0.0,0.05886,0.32373,9.91791
6409090845,22.09,0.0,0.0,0.0,0.07848000000000001,0.32373,9.888480000000001
6414141350,22.09,0.0,0.0,0.0,0.05886,0.32373,9.888480000000001
6419191855,22.09,0.0,0.0,0.0,0.06867000000000001,0.33354000000000006,9.84924
6424242360,22.09,0.0,0.0,0.0,0.06867000000000001,0.34335000000000004,9.888480000000001
6429292865,22.09,0.0,0.0,0.0,0.05886,0.35316,9.86886
6434343370,22.09,0.0,0.0,0.0,0.07848000000000001,0.34335000000000004,9.86886
6439393875,22.09,0.0,0.0,0.0,0.06867000000000001,0.33354000000000006,9.89829
6444444380,22.09,0.0,0.0,0.0,0.05886,0.31392000000000003,9.908100000000001
6449494885,22.09,0.0,0.0,0.0,0.06867000000000001,0.33354000000000006,9.89829
6454545390,22.09,0.0,0.0,0.0,0.05886,0.32373,9.87867
6459595895,22.09,0.0,0.0,0.0,0.05886,0.34335000000000004,9.87867
6464646400,22.09,0.0,0.0,0.0,0.04905,0.36297,9.87867
6469696905,22.09,0.0,0.0,0.0,0.05886,0.32373,9.888480000000001
6474747410,22.09,0.0,0.0,0.0,0.05886,0.32373,9.87867
6479797915,22.09,0.0,0.0,0.0,0.04905,0.33354000000000006,9.908100000000001
6484848420,22.09,0.0,0.0,0.0,0.06867000000000001,0.31392000000000003,9.888480000000001
6489898925,22.09,0.0,0.0,0.0,0.05886,0.32373,9.888480000000001
6494949430,22.09,0.0,0.0,0.0,0.06867000000000001,0.31392000000000003,9.89829
6499999935,22.09,0.0,0.0,0.0,0.07848000000000001,0.35316,9.888480000000001
6505050440,22.09,0.0,0.0,0.0,0.06867000000000001,0.35316,9.87867
6510100945,22.09,0.0,0.0,0.0,0.07848000000000001,0.34335000000000004,9.84924
6515151450,22.09,0.0,0.0,0.0,0.04905,0.32373,9.87867
6520201955,22.09,0.0,0.0,0.0,0.07848000000000001,0.32373,9.87867
6525252460,22.09,0.0,0.0,0.0,0.07848000000000001,0.32373,9.91791
6530302965,22.09,0.0,0.0,0.0,0.05886,0.32373,9.87867
6535353470,22.09,0.0,0.0,0.0,0.07848000000000001,0.33354000000000006,9.89829
6540403975,22.09,0.0,0.0,0.0,0.07848000000000001,0.33354000000000006,9.908100000000001
6545454480,22.09,0.0,0.0,0.0,0.06867000000000001,0.34335000000000004,9.86886
6550504985,22.09,0.0,0.0,0.0,0.04905,0.36297,9.87867
6555555490,22.09,0.0,0.0,0.0,0.07848000000000001,0.36297,9.908100000000001
6560605995,22.09,0.0,0.0,0.0,0.08829,0.36297,9.888480000000001
6565656500,22.09,0.0,0.0,0.0,0.08829,0.34335000000000004,9.87867
6570707005,22.09,0.0,0.0,0.0,0.039240000000000004,0.31392000000000003,9.87867
6575757510,22.09,0.0,0.0,0.0,0.06867000000000001,0.35316,9.908100000000001
6580808015,22.09,0.0,0.0,0.0,0.07848000000000001,0.31392000000000003,9.908100000000001
6585858520,22.09,0.0,0.0,0.0,0.05886,0.33354000000000006,9.85905
6590909025,22.09,0.0,0.0,0.0,0.07848000000000001,0.32373,9.85905
6595959530,22.09,0.0,0.0,0.0,0.06867000000000001,0.32373,9.87867
6601010035,22.09,0.0,0.0,0.0,0.07848000000000001,0.31392000000000003,9.86886
6606060540,22.09,0.0,0.0,0.0,0.039240000000000004,0.33354000000000006,9.908100000000001
6611111045,22.09,0.0,0.0,0.0,0.08829,0.32373,9.89829
6616161550,22.09,0.0,0.0,0.0,0.06867000000000001,0.32373,9.888480000000001
6621212055,22.09,0.0,0.0,0.0,0.06867000000000001,0.32373,9.888480000000001
6626262560,22.09,0.0,0.0,0.0,0.06867000000000001,0.32373,9.86886
6631313065,22.09,0.0,0.0,0.0,0.07848000000000001,0.35316,9.908100000000001
6636363570,22.09,0.0,0.0,0.0,0.07848000000000001,0.33354000000000006,9.888480000000001
6641414075,22.09,0.0,0.0,0.0,0.04905,0.33354000000000006,9.89829
6646464580,22.09,0.0,0.0,0.0,0.06867000000000001,0.33354000000000006,9.87867
6651515085,22.09,0.0,0.0,0.0,0.07848000000000001,0.32373,9.89829
6656565590,22.09,0.0,0.0,0.0,0.0981,0.33354000000000006,9.888480000000001
6661616095,22.09,0.0,0.0,0.0,0.06867000000000001,0.30411,9.908100000000001
6666666600,22.09,0.0,0.0,0.0,0.05886,0.33354000000000006,9.908100000000001
6671717105,22.09,0.0,0.0,0.0,0.08829,0.34335000000000004,9.888480000000001
6676767610,22.09,0.0,0.0,0.0,0.08829,0.35316,9.888480000000001
6681818115,22.09,0.0,0.0,0.0,0.0981,0.34335000000000004,9.89829
6686868620,22.09,0.0,0.0,0.0,0.06867000000000001,0.31392000000000003,9.83943
6691919125,22.09,0.0,0.0,0.0,0.06867000000000001,0.33354000000000006,9.888480000000001
6696969630,22.09,0.0,0.0,0.0,0.06867000000000001,0.32373,9.888480000000001
6702020135,22.09,0.0,0.0,0.0,0.04905,0.34335000000000004,9.888480000000001
6707070640,22.09,0.0,0.0,0.0,0.06867000000000001,0.32373,9.87867
6712121145,22.09,0.0,0.0,0.0,0.06867000000000001,0.36297,9.908100000000001
6717171650,22.09,0.0,0.0,0.0,0.06867000000000001,0.35316,9.85905
6722222155,22.09,0.0,0.0,0.0,0.06867000000000001,0.32373,9.908100000000001
6727272660,22.09,0.0,0.0,0.0,0.06867000000000001,0.32373,9.908100000000001
6732323165,22.09,0.0,0.0,0.0,0.06867000000000001,0.31392000000000003,9.888480000000001
6737373670,22.09,0.0,0.0,0.0,0.07848000000000001,0.32373,9.87867
6742424175,22.09,0.0,0.0,0.0,0.039240000000000004,0.32373,9.888480000000001
6747474680,22.09,0.0,0.0,0.0,0.06867000000000001,0.30411,9.89829
6752525185,22.09,0.0,0.0,0.0,0.06867000000000001,0.34335000000000004,9.888480000000001
6757575690,22.09,0.0,0.0,0.0,0.06867000000000001,0.34335000000000004,9.86886
6762626195,22.09,0.0,0.0,0.0,0.0981,0.34335000000000004,9.888480000000001
6767676700,22.09,0.0,0.0,0.0,0.06867000000000001,0.34335000000000004,9.89829
6772727205,22.09,0.0,0.0,0.0,0.07848000000000001,0.33354000000000006,9.908100000000001
6777777710,22.09,0.0,0.0,0.0,0.04905,0.32373,9.89829
6782828215,22.09,0.0,0.0,0.0,0.05886,0.36297,9.89829
6787878720,22.09,0.0,0.0,0.0,0.06867000000000001,0.32373,9.86886
6792929225,22.09,0.0,0.0,0.0,0.05886,0.33354000000000006,9.87867
6797979730,22.09,0.0,0.0,0.0,0.05886,0.33354000000000006,9.86886
6803030235,22.09,0.0,0.0,0.0,0.04905,0.32373,9.86886
6808080740,22.09,0.0,0.0,0.0,0.06867000000000001,0.34335000000000004,9.89829
6813131245,22.09,0.0,0.0,0.0,0.04905,0.31392000000000003,9.87867
6818181750,22.09,0.0,0.0,0.0,0.05886,0.34335000000000004,9.908100000000001
6823232255,22.09,0.0,0.0,0.0,0.07848000000000001,0.30411,9.888480000000001
6828282760,22.09,0.0,0.0,0.0,0.08829,0.31392000000000003,9.888480000000001
6833333265,22.09,0.0,0.0,0.0,0.05886,0.32373,9.908100000000001
6838383770,22.09,0.0,0.0,0.0,0.05886,0.32373,9.87867
6843434275,22.09,0.0,0.0,0.0,0.06867000000000001,0.34335000000000004,9.91791
6848484780,22.09,0.0,0.0,0.0,0.07848000000000001,0.33354000000000006,9.888480000000001
6853535285,22.09,0.0,0.0,0.0,0.04905,0.32373,9.888480000000001
6858585790,22.09,0.0,0.0,0.0,0.07848000000000001,0.31392000000000003,9.89829
6863636295,22.09,0.0,0.0,0.0,0.07848000000000001,0.34335000000000004,9.86886
6868686800,22.09,0.0,0.0,0.0,0.08829,0.30411,9.87867
6873737305,22.09,0.0,0.0,0.0,0.07848000000000001,0.37278,9.89829
6878787810,22.09,0.0,0.0,0.0,0.10791,0.34335000000000004,9.86886
6883838315,22.09,0.0,0.0,0.0,0.08829,0.32373,9.85905
6888888820,22.09,0.0,0.0,0.0,0.05886,0.32373,9.85905
6893939325,22.09,0.0,0.0,0.0,0.05886,0.31392000000000003,9.908100000000001
6898989830,22.09,0.0,0.0,0.0,0.06867000000000001,0.31392000000000003,9.89829
6904040335,22.09,0.0,0.0,0.0,0.05886,0.33354000000000006,9.89829
6909090840,22.09,0.0,0.0,0.0,0.06867000000000001,0.32373,9.87867
6914141345,22.09,0.0,0.0,0.0,0.08829,0.34335000000000004,9.888480000000001
6919191850,22.09,0.0,0.0,0.0,0.06867000000000001,0.32373,9.86886
6924242355,22.09,0.0,0.0,0.0,0.07848000000000001,0.35316,9.888480000000001
6929292860,22.09,0.0,0.0,0.0,0.05886,0.35316,9.91791
6934343365,22.09,0.0,0.0,0.0,0.08829,0.31392000000000003,9.888480000000001
6939393870,22.09,0.0,0.0,0.0,0.07848000000000001,0.36297,9.908100000000001
6944444375,22.09,0.0,0.0,0.0,0.06867000000000001,0.30411,9.89829
6949494880,22.09,0.0,0.0,0.0,0.07848000000000001,0.34335000000000004,9.89829
6954545385,22.09,0.0,0.0,0.0,0.07848000000000001,0.33354000000000006,9.87867
6959595890,22.09,0.0,0.0,0.0,0.05886,0.35316,9.888480000000001
6964646395,22.09,0.0,0.0,0.0,0.06867000000000001,0.30411,9.888480000000001
6969696900,22.09,0.0,0.0,0.0,0.10791,0.32373,9.888480000000001
6974747405,22.09,0.0,0.0,0.0,0.05886,0.32373,9.87867
6979797910,22.09,0.0,0.0,0.0,0.05886,0.31392000000000003,9.908100000000001
6984848415,22.09,0.0,0.0,0.0,0.05886,0.31392000000000003,9.89829
6989898920,22.09,0.0,0.0,0.0,0.07848000000000001,0.35316,9.89829
6994949425,22.09,0.0,0.0,0.0,0.05886,0.36297,9.89829
6999999930,22.09,0.0,0.0,0.0,0.08829,0.33354000000000006,9.888480000000001
7005050435,22.09,0.0,0.0,0.0,0.04905,0.34335000000000004,9.908100000000001
7010100940,22.09,0.0,0.0,0.0,0.05886,0.33354000000000006,9.87867
7015151445,22.09,0.0,0.0,0.0,0.06867000000000001,0.33354000000000006,9.908100000000001
7020201950,22.09,0.0,0.0,0.0,0.05886,0.32373,9.87867
7025252455,22.09,0.0,0.0,0.0,0.07848000000000001,0.32373,9.86886
7030302960,22.09,0.0,0.0,0.0,0.05886,0.32373,9.89829
7035353465,22.09,0.0,0.0,0.0,0.04905,0.36297,9.87867
7040403970,22.09,0.0,0.0,0.0,0.06867000000000001,0.35316,9.888480000000001
7045454475,22.09,0.0,0.0,0.0,0.06867000000000001,0.36297,9.908100000000001
7050504980,22.09,0.0,0.0,0.0,0.06867000000000001,0.36297,9.888480000000001
7055555485,22.09,0.0,0.0,0.0,0.06867000000000001,0.33354000000000006,9.87867
7060605990,22.09,0.0,0.0,0.0,0.06867000000000001,0.35316,9.91791
7065656495,22.09,0.0,0.0,0.0,0.039240000000000004,0.35316,9.888480000000001
7070707000,22.09,0.0,0.0,0.0,0.06867000000000001,0.32373,9.87867
7075757505,22.09,0.0,0.0,0.0,0.04905,0.38259000000000004,9.87867
7080808010,22.09,0.0,0.0,0.0,0.07848000000000001,0.35316,9.888480000000001
7085858515,22.09,0.0,0.0,0.0,0.05886,0.31392000000000003,9.86886
7090909020,22.09,0.0,0.0,0.0,0.06867000000000001,0.33354000000000006,9.87867
7095959525,22.09,0.0,0.0,0.0,0.06867000000000001,0.34335000000000004,9.888480000000001
7101010030,22.09,0.0,0.0,0.0,0.06867000000000001,0.33354000000000006,9.89829
7106060535,22.09,0.0,0.0,0.0,0.04905,0.35316,9.908100000000001
7111111040,22.09,0.0,0.0,0.0,0.06867000000000001,0.36297,9.92772
7116161545,22.09,0.0,0.0,0.0,0.07848000000000001,0.32373,9.92772
7121212050,22.09,0.0,0.0,0.0,0.08829,0.32373,9.908100000000001
7126262555,22.09,0.0,0.0,0.0,0.06867000000000001,0.35316,9.908100000000001
7131313060,22.09,0.0,0.0,0.0,0.04905,0.34335000000000004,9.86886
7136363565,22.09,0.0,0.0,0.0,0.06867000000000001,0.34335000000000004,9.87867
7141414070,22.09,0.0,0.0,0.0,0.07848000000000001,0.34335000000000004,9.86886
7146464575,22.09,0.0,0.0,0.0,0.05886,0.32373,9.87867
7151515080,22.09,0.0,0.0,0.0,0.07848000000000001,0.31392000000000003,9.89829
7156565585,22.09,0.0,0.0,0.0,0.07848000000000001,0.34335000000000004,9.888480000000001
7161616090,22.09,0.0,0.0,0.0,0.07848000000000001,0.34335000000000004,9.87867
7166666595,22.09,0.0,0.0,0.0,0.06867000000000001,0.34335000000000004,9.85905
7171717100,22.09,0.0,0.0,0.0,0.07848000000000001,0.31392000000000003,9.87867
7176767605,22.09,0.0,0.0,0.0,0.07848000000000001,0.33354000000000006,9.908100000000001
7181818110,22.09,0.0,0.0,0.0,0.07848000000000001,0.34335000000000004,9.888480000000001
7186868615,22.09,0.0,0.0,0.0,0.05886,0.34335000000000004,9.87867
7191919120,22.09,0.0,0.0,0.0,0.05886,0.33354000000000006,9.89829
7196969625,22.09,0.0,0.0,0.0,0.0981,0.34335000000000004,9.89829
7202020130,22.09,0.0,0.0,0.0,0.04905,0.33354000000000006,9.87867
7207070635,22.09,0.0,0.0,0.0,0.06867000000000001,0.34335000000000004,9.89829
7212121140,22.09,0.0,0.0,0.0,0.05886,0.32373,9.85905
7217171645,22.09,0.0,0.0,0.0,0.06867000000000001,0.36297,9.89829
7222222150,22.09,0.0,0.0,0.0,0.05886,0.31392000000000003,9.908100000000001
7227272655,22.09,0.0,0.0,0.0,0.06867000000000001,0.31392000000000003,9.908100000000001
7232323160,22.09,0.0,0.0,0.0,0.06867000000000001,0.31392000000000003,9.87867
7237373665,22.09,0.0,0.0,0.0,0.05886,0.32373,9.89829
7242424170,22.09,0.0,0.0,0.0,0.06867000000000001,0.33354000000000006,9.91791
7247474675,22.09,0.0,0.0,0.0,0.05886,0.32373,9.888480000000001
7252525180,22.09,0.0,0.0,0.0,0.07848000000000001,0.33354000000000006,9.86886
7257575685,22.09,0.0,0.0,0.0,0.04905,0.32373,9.888480000000001
7262626190,22.09,0.0,0.0,0.0,0.07848000000000001,0.33354000000000006,9.87867
7267676695,22.09,0.0,0.0,0.0,0.06867000000000001,0.34335000000000004,9.89829
7272727200,22.09,0.0,0.0,0.0,0.05886,0.33354000000000006,9.888480000000001
7277777705,22.09,0.0,0.0,0.0,0.07848000000000001,0.33354000000000006,9.87867
7282828210,22.09,0.0,0.0,0.0,0.05886,0.34335000000000004,9.888480000000001
7287878715,22.09,0.0,0.0,0.0,0.07848000000000001,0.33354000000000006,9.87867
7292929220,22.09,0.0,0.0,0.0,0.04905,0.34335000000000004,9.888480000000001
7297979725,22.09,0.0,0.0,0.0,0.06867000000000001,0.33354000000000006,9.86886
7303030230,22.09,0.0,0.0,0.0,0.04905,0.31392000000000003,9.89829
7308080735,22.09,0.0,0.0,0.0,0.05886,0.34335000000000004,9.908100000000001
7313131240,22.09,0.0,0.0,0.0,0.06867000000000001,0.32373,9.89829
7318181745,22.09,0.0,0.0,0.0,0.02943,0.31392000000000003,9.89829
7323232250,22.09,0.0,0.0,0.0,0.07848000000000001,0.30411,9.888480000000001
7328282755,22.09,0.0,0.0,0.0,0.07848000000000001,0.34335000000000004,9.87867
7333333260,22.09,0.0,0.0,0.0,0.05886,0.33354000000000006,9.888480000000001
7338383765,22.09,0.0,0.0,0.0,0.07848000000000001,0.34335000000000004,9.888480000000001
7343434270,22.09,0.0,0.0,0.0,0.05886,0.32373,9.86886
7348484775,22.09,0.0,0.0,0.0,0.04905,0.32373,9.888480000000001
7353535280,22.09,0.0,0.0,0.0,0.04905,0.31392000000000003,9.91791
7358585785,22.09,0.0,0.0,0.0,0.05886,0.33354000000000006,9.85905
7363636290,22.09,0.0,0.0,0.0,0.05886,0.36297,9.87867
7368686795,22.09,0.0,0.0,0.0,0.06867000000000001,0.34335000000000004,9.86886
7373737300,22.09,0.0,0.0,0.0,0.04905,0.35316,9.86886
7378787805,22.09,0.0,0.0,0.0,0.04905,0.31392000000000003,9.86886
7383838310,22.09,0.0,0.0,0.0,0.06867000000000001,0.33354000000000006,9.888480000000001
7388888815,22.09,0.0,0.0,0.0,0.04905,0.31392000000000003,9.888480000000001
7393939320,22.09,0.0,0.0,0.0,0.07848000000000001,0.31392000000000003,9.908100000000001
7398989825,22.09,0.0,0.0,0.0,0.039240000000000004,0.33354000000000006,9.89829
7404040330,22.09,0.0,0.0,0.0,0.05886,0.34335000000000004,9.87867
7409090835,22.09,0.0,0.0,0.0,0.07848000000000001,0.35316,9.87867
7414141340,22.09,0.0,0.0,0.0,0.05886,0.33354000000000006,9.87867
7419191845,22.09,0.0,0.0,0.0,0.07848000000000001,0.33354000000000006,9.87867
7424242350,22.09,0.0,0.0,0.0,0.04905,0.33354000000000006,9.908100000000001
7429292855,22.09,0.0,0.0,0.0,0.04905,0.32373,9.85905
7434343360,22.09,0.0,0.0,0.0,0.05886,0.33354000000000006,9.91791
7439393865,22.09,0.0,0.0,0.0,0.06867000000000001,0.33354000000000006,9.908100000000001
7444444370,22.09,0.0,0.0,0.0,0.06867000000000001,0.31392000000000003,9.908100000000001
7449494875,22.09,0.0,0.0,0.0,0.05886,0.34335000000000004,9.888480000000001
7454545380,22.09,0.0,0.0,0.0,0.04905,0.32373,9.87867
7459595885,22.09,0.0,0.0,0.0,0.0981,0.33354000000000006,9.86886
7464646390,22.09,0.0,0.0,0.0,0.05886,0.32373,9.84924
7469696895,22.09,0.0,0.0,0.0,0.05886,0.33354000000000006,9.89829
7474747400,22.09,0.0,0.0,0.0,0.06867000000000001,0.31392000000000003,9.91791
7479797905,22.09,0.0,0.0,0.0,0.06867000000000001,0.33354000000000006,9.89829
7484848410,22.09,0.0,0.0,0.0,0.04905,0.33354000000000006,9.888480000000001
7489898915,22.09,0.0,0.0,0.0,0.05886,0.33354000000000006,9.86886
7494949420,22.09,0.0,0.0,0.0,0.06867000000000001,0.34335000000000004,9.888480000000001
7499999925,22.09,0.0,0.0,0.0,0.07848000000000001,0.32373,9.86886
7505050430,22.09,0.0,0.0,0.0,0.05886,0.36297,9.87867
7510100935,22.09,0.0,0.0,0.0,0.04905,0.33354000000000006,9.89829
7515151440,22.09,0.0,0.0,0.0,0.05886,0.34335000000000004,9.888480000000001
7520201945,22.09,0.0,0.0,0.0,0.04905,0.32373,9.89829
7525252450,22.09,0.0,0.0,0.0,0.08829,0.32373,9.87867
7530302955,22.09,0.0,0.0,0.0,0.05886,0.36297,9.888480000000001
7535353460,22.09,0.0,0.0,0.0,0.07848000000000001,0.33354000000000006,9.89829
7540403965,22.09,0.0,0.0,0.0,0.05886,0.33354000000000006,9.85905
7545454470,22.09,0.0,0.0,0.0,0.05886,0.32373,9.86886
7550504975,22.09,0.0,0.0,0.0,0.04905,0.32373,9.888480000000001
7555555480,22.09,0.0,0.0,0.0,0.05886,0.32373,9.89829
7560605985,22.09,0.0,0.0,0.0,0.04905,0.31392000000000003,9.908100000000001
7565656490,22.09,0.0,0.0,0.0,0.08829,0.31392000000000003,9.87867
7570706995,22.09,0.0,0.0,0.0,0.06867000000000001,0.35316,9.86886
7575757500,22.09,0.0,0.0,0.0,0.07848000000000001,0.33354000000000006,9.888480000000001
7580808005,22.09,0.0,0.0,0.0,0.05886,0.34335000000000004,9.85905
7585858510,22.09,0.0,0.0,0.0,0.039240000000000004,0.31392000000000003,9.87867
7590909015,22.09,0.0,0.0,0.0,0.08829,0.31392000000000003,9.87867
7595959520,22.09,0.0,0.0,0.0,0.06867000000000001,0.30411,9.87867
7601010025,22.09,0.0,0.0,0.0,0.039240000000000004,0.30411,9.91791
7606060530,22.09,0.0,0.0,0.0,0.08829,0.2943,9.908100000000001
7611111035,22.09,0.0,0.0,0.0,0.04905,0.33354000000000006,9.86886
7616161540,22.09,0.0,0.0,0.0,0.04905,0.35316,9.87867
7621212045,22.09,0.0,0.0,0.0,0.07848000000000001,0.36297,9.87867
7626262550,22.09,0.0,0.0,0.0,0.06867000000000001,0.35316,9.89829
7631313055,22.09,0.0,0.0,0.0,0.04905,0.33354000000000006,9.86886
7636363560,22.09,0.0,0.0,0.0,0.04905,0.33354000000000006,9.92772
7641414065,22.09,0.0,0.0,0.0,0.05886,0.31392000000000003,9.91791
7646464570,22.09,0.0,0.0,0.0,0.039240000000000004,0.33354000000000006,9.888480000000001
7651515075,22.09,0.0,0.0,0.0,0.05886,0.33354000000000006,9.89829
7656565580,22.09,0.0,0.0,0.0,0.06867000000000001,0.35316,9.89829
7661616085,22.09,0.0,0.0,0.0,0.05886,0.34335000000000004,9.89829
7666666590,22.09,0.0,0.0,0.0,0.05886,0.35316,9.87867
7671717095,22.09,0.0,0.0,0.0,0.06867000000000001,0.32373,9.888480000000001
7676767600,22.09,0.0,0.0,0.0,0.07848000000000001,0.34335000000000004,9.86886
7681818105,22.09,0.0,0.0,0.0,0.05886,0.32373,9.91791
7686868610,22.09,0.0,0.0,0.0,0.039240000000000004,0.33354000000000006,9.888480000000001
7691919115,22.09,0.0,0.0,0.0,0.08829,0.34335000000000004,9.87867
7696969620,22.09,0.0,0.0,0.0,0.07848000000000001,0.34335000000000004,9.86886
7702020125,22.09,0.0,0.0,0.0,0.07848000000000001,0.32373,9.908100000000001
7707070630,22.09,0.0,0.0,0.0,0.06867000000000001,0.32373,9.888480000000001
7712121135,22.09,0.0,0.0,0.0,0.04905,0.30411,9.87867
7717171640,22.09,0.00958185759344887,0.02982767691658309,0.0,0.20601000000000003,0.42183,9.87867
7722222145,22.09,-0.003193952531149623,0.11824605682261582,0.0,0.60822,0.05886,9.770760000000001
7727272650,22.09,-0.04366813788489812,0.34620351042559516,-0.008517206749732328,-0.34335000000000004,-0.009810000000000001,9.86886
7732323155,22.09,0.013840460968315033,0.09906488834319814,0.0,-1.22625,0.38259000000000004,9.84924
7737373660,22.09,0.05220279792715039,0.19174187162409706,-0.003193952531149623,-0.6180300000000001,0.46107000000000004,10.42803
7742424165,22.09,0.00958185759344887,0.0170518667919846,0.0,-2.1974400000000003,0.32373,9.182160000000001
7747474670,22.09,0.007452555906015787,-0.2428800187075309,0.008517206749732328,-0.6278400000000001,0.26487,10.1043
7752525175,22.09,0.0404741853537485,-0.20559978588493202,0.002129301687433082,-1.1870100000000001,0.75537,9.358740000000001
7757575680,22.09,0.04260348704118158,-0.5123937618004952,0.00958185759344887,0.38259000000000004,0.6180300000000001,9.91791
7762626185,22.09,-0.03728023282259888,-0.2705783939366809,0.006387905062299246,0.32373,0.86328,10.24164
7767676690,22.09,0.008517206749732328,-0.5741784173210946,0.00958185759344887,0.84366,1.02024,10.22202
7772727195,22.09,-0.0852244273748831,-0.25780258381208243,0.01064650843716541,2.46231,0.74556,10.182780000000001
7777777700,22.09,-0.11292280260403312,-0.14913838458291545,0.001064650843716541,1.70694,0.5591700000000001,9.78057
7782828205,22.09,-0.14275047952061623,0.07670722062515077,0.002129301687433082,2.7664199999999997,-0.019620000000000002,9.70209
7787878710,22.09,-0.15339698795778162,0.31531118266529556,-0.004258603374866164,0.72594,-0.18639,9.95715
7792929215,22.09,-0.11079350091660004,0.20347048419749894,-0.002129301687433082,1.52055,-0.8338500000000001,9.60399
7797979720,22.09,-0.09800023749948161,0.5283635244562433,-0.011711159280881954,0.009810000000000001,-1.03005,9.52551
7803030225,22.09,0.0404741853537485,0.13421581947836395,-0.007452555906015787,-0.95157,-0.73575,9.908100000000001
7808080730,22.09,0.12356931104119852,0.1480737337391989,0.0,0.26487,-0.31392000000000003,9.81
7813131235,22.09,0.17896606149949854,0.1416858286768997,-0.01064650843716541,-0.90252,0.17658,9.53532
7818181740,22.09,0.20453513504121545,-0.046879543708567686,-0.002129301687433082,0.0,0.60822,9.69228
7823232245,22.09,0.22156954854068012,0.12037535851004891,-0.006387905062299246,0.04905,1.5990300000000002,9.74133
7828282750,22.09,0.20559978588493202,0.08415977653116657,-0.002129301687433082,-0.24525000000000002,2.7468000000000004,9.94734
7833333255,22.09,0.12463396188491506,0.258867234655799,0.0,-1.13796,2.32497,10.68309
7838383760,22.09,-0.19814722997891623,0.003193952531149623,-0.003193952531149623,-1.43226,0.23544,9.86886
7843434265,22.09,-0.34620351042559516,0.012775810124598492,0.004258603374866164,-0.60822,-0.6278400000000001,9.92772
7848484770,22.09,-0.11505210429146619,-0.06710790973918197,0.005323254218582705,-1.22625,-0.17658,10.2024
7853535275,22.09,-0.06391395720803235,-0.2556558288321294,0.006387905062299246,-0.72594,-0.45126,9.770760000000001
7858585780,22.09,-0.08735372906231618,-0.3312983986135636,0.004258603374866164,-0.2943,-0.23544,10.006200000000002
7863636285,22.09,0.023439771854283843,-0.3536735196241309,0.004258603374866164,0.6768900000000001,0.12753,9.908100000000001
7868686790,22.09,0.031956978604016174,-0.19280652246781357,0.003193952531149623,0.8338500000000001,0.32373,9.70209
7873737295,22.09,0.01811651763570114,-0.17470745812463237,0.002129301687433082,1.2556800000000001,0.30411,9.54513
7878787800,22.09,0.020245819323134222,0.05752605214573309,0.002129301687433082,1.3734000000000002,0.3924,9.496080000000001
7883838305,22.09,0.03621558197888234,0.09161233243718235,-0.002129301687433082,0.7749900000000001,0.34335000000000004,9.54513
7888888810,22.09,-0.003193952531149623,0.17683675981206545,-0.003193952531149623,1.02024,0.14715,9.59418
7893939315,22.09,0.013840460968315033,0.26099653634323206,-0.004258603374866164,0.20601000000000003,0.14715,9.888480000000001
7898989820,22.09,0.022375121010567305,0.19280652246781357,-0.006387905062299246,0.039240000000000004,-0.009810000000000001,9.937529999999999
7904040325,22.09,0.02556907354171693,0.22903955773921586,-0.004258603374866164,-0.0981,0.0,10.03563
7909090830,22.09,0.06284930636431581,0.1800307123432151,-0.005323254218582705,-0.6867000000000001,0.17658,10.13373
7914141335,22.09,0.08735372906231618,0.11824605682261582,-0.002129301687433082,-0.33354000000000006,0.84366,9.888480000000001
7919191840,22.09,0.1374272253020335,0.16191419470751395,0.001064650843716541,-1.52055,1.3537800000000002,10.58499
7924242345,22.09,0.03728023282259888,-0.14062117783318315,0.001064650843716541,-1.19682,0.6867000000000001,9.70209
7929292850,22.09,-0.0852244273748831,-0.14062117783318315,0.005323254218582705,-0.35316,0.43164,9.72171
7934343355,22.09,-0.021310470166850764,-0.21092304010351473,0.002129301687433082,-0.44145,0.73575,10.1043
7939393860,22.09,-0.03515093113516579,-0.26099653634323206,0.007452555906015787,0.27468000000000004,0.5591700000000001,9.80019
7944444365,22.09,-0.11292280260403312,-0.2183755960095305,0.002129301687433082,0.42183,0.23544,9.94734
7949494870,22.09,-0.08841837990603273,-0.18961256993666398,0.006387905062299246,0.80442,0.2943,10.13373
7954545375,22.09,-0.05113814708343386,-0.09161233243718235,0.003193952531149623,0.89271,0.22563,9.91791
7959595880,22.09,-0.07777187146886733,-0.054332099614583476,0.002129301687433082,0.8338500000000001,0.0,9.81
7964646385,22.09,-0.046879543708567686,0.012775810124598492,0.004258603374866164,0.89271,0.06867000000000001,9.85905
7969696890,22.09,-0.02769837522915001,0.05539675045830002,-0.002129301687433082,0.59841,-0.11772,9.60399
7974747395,22.09,-0.03408628029144926,0.06391395720803235,-0.001064650843716541,0.65727,-0.17658,9.67266
7979797900,22.09,0.012775810124598492,0.1352804703220805,-0.008517206749732328,0.50031,-0.11772,9.78057
7984848405,22.09,0.04153883619746504,0.15446163880149816,-0.001064650843716541,0.23544,-0.07848000000000001,9.6138
7989898910,22.09,0.07777187146886733,0.16938420390604966,-0.002129301687433082,0.11772,0.12753,9.74133
7994949415,22.09,0.10866419922916695,0.19280652246781357,-0.003193952531149623,-0.0981,0.30411,9.623610000000001
7999999920,22.09,0.11185815176031658,0.18641861740551433,-0.002129301687433082,-0.37278,0.48069000000000006,9.751140000000001
8005050425,22.09,0.10119419003063122,0.1278279144160647,-0.001064650843716541,-0.69651,1.3537800000000002,9.94734
8010100930,22.09,0.1288925652597812,0.060720004676882725,-0.001064650843716541,-1.13796,1.55979,10.653660000000002
8015151435,22.09,-0.039409534510031964,-0.06923721142661506,-0.001064650843716541,-0.8338500000000001,0.47088,9.84924
8020201940,22.09,-0.1672549022186166,-0.08096582400001695,0.002129301687433082,-0.37278,0.07848000000000001,9.96696
8025252445,22.09,-0.02663372438543347,-0.09480628496833199,0.004258603374866164,-0.31392000000000003,0.48069000000000006,10.143540000000002
8030302950,22.09,-0.02769837522915001,-0.1278279144160647,0.001064650843716541,-0.1962,0.15696000000000002,9.85905
8035353455,22.09,-0.09161233243718235,-0.12995721610349775,0.006387905062299246,0.02943,0.11772,9.937529999999999
8040403960,22.09,-0.011711159280881954,-0.1278279144160647,0.003193952531149623,0.0981,0.35316,9.95715
8045454465,22.09,-0.023439771854283843,-0.15978489302008084,0.003193952531149623,0.26487,0.26487,9.770760000000001
8050504970,22.09,-0.044732788728614664,-0.1416858286768997,0.002129301687433082,0.60822,0.21582,9.83943
8055555475,22.09,-0.028763026072866547,-0.11079350091660004,0.0,0.57879,0.27468000000000004,9.79038
8060605980,22.09,-0.022375121010567305,-0.08735372906231618,0.002129301687433082,0.9221400000000001,0.14715,9.81
8065656485,22.09,-0.03515093113516579,0.024504422698000388,0.0,0.87309,0.10791,9.81
8070706990,22.09,0.006387905062299246,0.06178465552059926,-0.001064650843716541,0.7651800000000001,0.17658,9.80019
8075757495,22.09,0.011711159280881954,0.14913838458291545,0.0,0.65727,0.07848000000000001,9.81
8080808000,22.09,0.006387905062299246,0.150203035426632,-0.005323254218582705,0.16677000000000003,0.05886,9.819809999999999
8085858505,22.09,0.03728023282259888,0.14700908289548237,-0.003193952531149623,0.1962,0.10791,9.85905
8090909010,22.09,0.04366813788489812,0.16510814723866357,-0.006387905062299246,-0.18639,0.15696000000000002,9.89829
8095959515,22.09,0.05859070298944965,0.09800023749948161,-0.002129301687433082,-0.25506,0.25506,9.97677
8101010020,22.09,0.07456046564519776,0.12463396188491506,-0.001064650843716541,-0.25506,0.37278,9.96696
8106060525,22.09,0.07883652231258387,0.07883652231258387,-0.001064650843716541,-0.6278400000000001,0.90252,9.94734
8111111030,22.09,0.09161233243718235,0.011711159280881954,0.001064650843716541,-0.65727,1.15758,10.31031
8116161535,22.09,0.004258603374866164,-0.04153883619746504,0.0,-0.5591700000000001,0.72594,9.770760000000001
8121212040,22.09,-0.07777187146886733,-0.07456046564519776,0.002129301687433082,-0.14715,0.3924,9.85905
8126262545,22.09,-0.05646140130201656,-0.02663372438543347,0.003193952531149623,-0.13734000000000002,0.46107000000000004,10.045440000000001
8131313050,22.09,-0.049008845396000776,-0.08096582400001695,0.002129301687433082,-0.31392000000000003,0.24525000000000002,9.87867
8136363555,22.09,-0.08096582400001695,-0.10119419003063122,0.002129301687433082,0.02943,0.10791,10.01601
8141414060,22.09,-0.04581489286485115,-0.08841837990603273,0.003193952531149623,0.0,0.20601000000000003,10.06506
8146464565,22.09,-0.02769837522915001,-0.10545279340549739,0.002129301687433082,0.20601000000000003,0.12753,9.85905
8151515070,22.09,-0.04153883619746504,-0.07243116395776468,0.004258603374866164,0.30411,0.12753,9.85905
8156565575,22.09,-0.005323254218582705,-0.06178465552059926,0.001064650843716541,0.35316,0.26487,9.73152
8161616080,22.09,0.002129301687433082,-0.039409534510031964,0.001064650843716541,0.42183,0.21582,9.67266
8166666585,22.09,-0.01064650843716541,-0.021310470166850764,0.0,0.42183,0.1962,9.74133
8171717090,22.09,0.0,0.007452555906015787,0.0,0.50031,0.20601000000000003,9.760950000000001
8176767595,22.09,0.011711159280881954,0.044732788728614664,-0.001064650843716541,0.40221,0.20601000000000003,9.83943
8181818100,22.09,0.0170518667919846,0.060720004676882725,0.0,0.32373,0.20601000000000003,9.85905
8186868605,22.09,0.02663372438543347,0.07777187146886733,0.0,0.15696000000000002,0.26487,9.83943
8191919110,22.09,0.03515093113516579,0.06178465552059926,-0.001064650843716541,0.05886,0.34335000000000004,9.85905
8196969615,22.09,0.033021629447732716,0.05326744877086694,0.0,0.04905,0.46107000000000004,9.83943
8202020120,22.09,0.03089232776029963,0.04260348704118158,-0.001064650843716541,0.0,0.51993,9.82962
8207070625,22.09,0.0170518667919846,0.046879543708567686,0.0,0.039240000000000004,0.47088,9.83943
8212121130,22.09,-0.001064650843716541,0.06391395720803235,-0.001064650843716541,-0.07848000000000001,0.41202000000000005,9.91791
8217171635,22.09,-0.002129301687433082,0.039409534510031964,-0.002129301687433082,-0.17658,0.38259000000000004,9.908100000000001
8222222140,22.09,-0.001064650843716541,0.031956978604016174,0.0,-0.1962,0.41202000000000005,9.937529999999999
8227272645,22.09,-0.003193952531149623,-0.001064650843716541,0.0,-0.32373,0.42183,9.908100000000001
8232323150,22.09,-0.00958185759344887,-0.033021629447732716,0.001064650843716541,-0.15696000000000002,0.41202000000000005,9.87867
8237373655,22.09,-0.01811651763570114,-0.03408628029144926,0.001064650843716541,-0.14715,0.40221,9.85905
8242424160,22.09,-0.033021629447732716,-0.06178465552059926,0.002129301687433082,-0.07848000000000001,0.36297,9.86886
8247474665,22.09,-0.03089232776029963,-0.046879543708567686,0.001064650843716541,0.07848000000000001,0.27468000000000004,9.87867
8252525170,22.09,-0.03408628029144926,-0.04260348704118158,0.0,0.009810000000000001,0.24525000000000002,9.84924
8257575675,22.09,-0.02982767691658309,-0.05007349623971732,0.001064650843716541,0.0981,0.23544,9.85905
8262626180,22.09,-0.020245819323134222,-0.039409534510031964,0.002129301687433082,0.12753,0.25506,9.86886
8267676685,22.09,-0.011711159280881954,-0.05113814708343386,0.0,0.1962,0.24525000000000002,9.888480000000001
8272727190,22.09,-0.006387905062299246,-0.03728023282259888,0.001064650843716541,0.2943,0.30411,9.89829
8277777695,22.09,-0.007452555906015787,-0.02663372438543347,0.0,0.26487,0.28449,9.83943
8282828200,22.09,-0.005323254218582705,-0.01918116847941768,0.0,0.34335000000000004,0.30411,9.819809999999999
8287878705,22.09,-0.007452555906015787,0.015987215948268057,0.0,0.36297,0.28449,9.84924
8292929210,22.09,-0.008517206749732328,0.031956978604016174,-0.001064650843716541,0.27468000000000004,0.20601000000000003,9.82962
8297979715,22.09,-0.003193952531149623,0.05007349623971732,-0.002129301687433082,0.21582,0.16677000000000003,9.91791
8303030220,22.09,0.01064650843716541,0.05007349623971732,0.0,0.0981,0.20601000000000003,9.99639
8308080725,22.09,0.020245819323134222,0.04366813788489812,0.0,0.04905,0.26487,10.025820000000001
8313131230,22.09,0.0170518667919846,0.03515093113516579,-0.004258603374866164,0.019620000000000002,0.30411,10.01601
8318181735,22.09,0.013840460968315033,0.023439771854283843,0.0,0.009810000000000001,0.34335000000000004,9.99639
8323232240,22.09,0.011711159280881954,0.023439771854283843,-0.003193952531149623,0.019620000000000002,0.36297,9.96696
8328282745,22.09,0.008517206749732328,0.03089232776029963,0.0,-0.019620000000000002,0.38259000000000004,9.94734
