#timestamp [ns], temperature [degC], w_RS_S_x [rad s^-1], w_RS_S_y [rad s^-1], w_RS_S_z [rad s^-1], a_RS_S_x [m s^-2], a_RS_S_y [m s^-2], a_RS_S_z [m s^-2]
0.0,22.16,0.0,0.0,0.0,0.06867,0.33354,9.89829
5000000.0,22.16,0.0,0.0,0.0,0.049246199805762,0.35296380019423795,9.917713800194237
10000000.0,22.16,0.0,0.0,0.0,0.058663800194238,0.343546199805762,9.889068599417286
15000000.0,22.16,0.0,0.0,0.0,0.06837570029135699,0.34335,9.859932899125928
20000000.0,22.16,0.0,0.0,0.0,0.08750520077695201,0.352767600388476,9.877885200776952
25000000.0,22.16,0.0,0.0,0.0,0.08829,0.325201498543215,9.89730900097119
30000000.0,22.16,0.0,0.0,0.0,0.07906859941728599,0.36061560233085604,9.870625798251858
35000000.0,22.16,0.0,0.0,0.0,0.07848,0.326476797280668,9.877983300679833
40000000.0,22.16,0.0,0.0,0.0,0.08750520077695201,0.32373,9.87867
45000000.0,22.16,0.0,0.0,0.0,0.07043579825185797,0.31480289912592896,9.896524201748141
50000000.0,22.16,0.0,0.0,0.0,0.07749900097119,0.30509099902881,9.90711900097119
55000000.0,22.16,0.0,0.0,0.0,0.05228729679507297,0.321571802136618,9.873176395726764
60000000.0,22.16,0.0,0.0,0.0,0.06631560233085602,0.332362801165428,9.877492801165427
65000000.0,22.16,0.0,0.0,0.0,0.06013529873745299,0.342074701262547,9.861600597474906
70000000.0,22.16,0.0,0.0,0.0,0.08416980407899803,0.334913398640334,9.875923202719331
75000000.0,22.16,0.0,0.0,0.0,0.09662850145678502,0.341878501456785,9.887008501456785
80000000.0,22.16,0.0,0.0,0.0,0.07337879533828795,0.32686919689219196,9.896720401553903
85000000.0,22.16,0.0,0.0,0.0,0.06867,0.315587698348977,9.87386309504693
90000000.0,22.16,0.0,0.0,0.0,0.09280260524442606,0.31392,9.884948403496283
95000000.0,22.16,0.0,0.0,0.0,0.06631559261895593,0.345704407381044,9.880533898154738
100000000.0,22.16,0.0,0.0,0.0,0.07455600388476004,0.33746399611524,9.87867
105000000.0,22.16,0.0,0.0,0.0,0.06298019592100196,0.34903980407899804,9.8709200979605
110000000.0,22.16,0.0,0.0,0.0,0.06651180213661802,0.35316,9.884163604273235
115000000.0,22.16,0.0,0.0,0.0,0.07622370223373702,0.3229451910650519,9.865818893298789
120000000.0,22.16,0.0,0.0,0.0,0.07102439766914397,0.32883120466171206,9.866505602330855
125000000.0,22.16,0.0,0.0,0.0,0.06867,0.326182497572025,9.8982900097119
130000000.0,22.16,0.0,0.0,0.0,0.06867,0.3527676101003761,9.886321792424717
135000000.0,22.16,0.0,0.0,0.0,0.07583130262221302,0.355808697377787,9.900153907866638
140000000.0,22.16,0.0,0.0,0.0,0.05729039184200392,0.34609679728066794,9.886910391842003
145000000.0,22.16,0.0,0.0,0.0,0.06994530844935308,0.33638489718354897,9.864739794367098
150000000.0,22.16,0.0,0.0,0.0,0.06474599417285994,0.3541410087407101,9.85905
155000000.0,22.16,0.0,0.0,0.0,0.07916670903206709,0.3426632909679329,9.85905
160000000.0,22.16,0.0,0.0,0.0,0.061606787568767876,0.32686919689219196,9.885733212431232
165000000.0,22.16,0.0,0.0,0.0,0.06219540640985406,0.34344810961478106,9.891717296795072
170000000.0,22.16,0.0,0.0,0.0,0.062195396697953965,0.34021079339590793,9.882005396697954
175000000.0,22.16,0.0,0.0,0.0,0.06523650339916504,0.327163496600835,9.897799510197494
180000000.0,22.16,0.0,0.0,0.0,0.062391596503715965,0.3362868069925681,9.87670798251858
185000000.0,22.16,0.0,0.0,0.0,0.05886,0.32480908921979085,9.871410607186807
190000000.0,22.16,0.0,0.0,0.0,0.07102440738104407,0.31392,9.890834407381044
195000000.0,22.16,0.0,0.0,0.0,0.08446410378764103,0.31990410378764106,9.90427410378764
200000000.0,22.16,0.0,0.0,0.0,0.08240399611523995,0.32961600388476003,9.88455598446096
205000000.0,22.16,0.0,0.0,0.0,0.06111628805436288,0.339327903981879,9.880435807963758
210000000.0,22.16,0.0,0.0,0.0,0.060429608157996084,0.34335,9.899859608157996
215000000.0,22.16,0.0,0.0,0.0,0.05189488747164887,0.34335,9.9081
220000000.0,22.16,0.0,0.0,0.0,0.050227208546472085,0.33236279145352793,9.891619187180291
225000000.0,22.16,0.0,0.0,0.0,0.06425550437035504,0.31833449562964494,9.88946100874071
230000000.0,22.16,0.0,0.0,0.0,0.06337259553252596,0.3351096178698962,9.88769519106505
235000000.0,22.16,0.0,0.0,0.0,0.06405930456459305,0.3479606954354069,9.873470695435406
240000000.0,22.16,0.0,0.0,0.0,0.06356879533828795,0.33824879533828794,9.873961204661711
245000000.0,22.16,0.0,0.0,0.0,0.06386310475883104,0.32853689524116897,9.873666895241168
250000000.0,22.16,0.0,0.0,0.0,0.06867,0.32373,9.88357501456785
255000000.0,22.16,0.0,0.0,0.0,0.07347690495306905,0.31892309504693095,9.888676190093861
260000000.0,22.16,0.0,0.0,0.0,0.07848,0.31862880505018804,9.883378805050187
265000000.0,22.16,0.0,0.0,0.0,0.0692585897053859,0.33756211544192116,9.883869294852692
270000000.0,22.16,0.0,0.0,0.0,0.06337260524442605,0.34864739475557394,9.860619579022295
275000000.0,22.16,0.0,0.0,0.0,0.08191351602463516,0.3345209893169099,9.857088021366181
280000000.0,22.16,0.0,0.0,0.0,0.08515078368400783,0.32373,9.891619216315991
285000000.0,22.16,0.0,0.0,0.0,0.05601508339265083,0.3152933889284339,9.899663388928433
290000000.0,22.16,0.0,0.0,0.0,0.06396123379741234,0.3123504112658041,9.88848
295000000.0,22.16,0.0,0.0,0.0,0.08201157707991577,0.3317742114600421,9.884457894269978
300000000.0,22.16,0.0,0.0,0.0,0.054935994172859944,0.3511980116542801,9.89436602330856
305000000.0,22.16,0.0,0.0,0.0,0.04905,0.34766637630296376,9.906432282227222
310000000.0,22.16,0.0,0.0,0.0,0.05650561204275612,0.32373,9.884752193978622
315000000.0,22.16,0.0,0.0,0.0,0.07229970611849705,0.3273597061184971,9.882299706118497
320000000.0,22.16,0.0,0.0,0.0,0.08554321243123213,0.32647678756876786,9.884948393784384
325000000.0,22.16,0.0,0.0,0.0,0.09123298737452988,0.3242205189382052,9.882103506312735
330000000.0,22.16,0.0,0.0,0.0,0.07514459359014593,0.3400145935901459,9.891815406409853
335000000.0,22.16,0.0,0.0,0.0,0.06867,0.33030269349302693,9.895052693493026
340000000.0,22.16,0.0,0.0,0.0,0.06867,0.3268692066040921,9.89161920660409
345000000.0,22.16,0.0,0.0,0.0,0.06562889329878893,0.3396222134024221,9.895248893298788
350000000.0,22.16,0.0,0.0,0.0,0.06768902039499021,0.35021699320166993,9.87965097960501
355000000.0,22.16,0.0,0.0,0.0,0.08260018620910185,0.34335,9.861894906895449
360000000.0,22.16,0.0,0.0,0.0,0.0769104209777042,0.34335,9.86611319300743
365000000.0,22.16,0.0,0.0,0.0,0.09015387873093879,0.34335,9.869644828358748
370000000.0,22.16,0.0,0.0,0.0,0.07122060718680606,0.34079939281319394,9.903391214373611
375000000.0,22.16,0.0,0.0,0.0,0.07357498543214985,0.33108749271607496,9.9080999708643
380000000.0,22.16,0.0,0.0,0.0,0.05650559261895593,0.32373,9.885733222143132
385000000.0,22.16,0.0,0.0,0.0,0.0580752299126523,0.33049892243448925,9.903587385043673
390000000.0,22.16,0.0,0.0,0.0,0.08397358484943585,0.34884358484943584,9.879847169698872
395000000.0,22.16,0.0,0.0,0.0,0.06867,0.33147989232759895,9.859540538362005
400000000.0,22.16,0.0,0.0,0.0,0.07455602330856023,0.32765401553904017,9.89044196892192
405000000.0,22.16,0.0,0.0,0.0,0.09437218426672185,0.33962218426672186,9.868369539333194
410000000.0,22.16,0.0,0.0,0.0,0.07494838407248383,0.3254958079637581,9.909865807963758
415000000.0,22.16,0.0,0.0,0.0,0.06052770806087708,0.33187229193912293,9.916242291939122
420000000.0,22.16,0.0,0.0,0.0,0.06867,0.32843882447398826,9.9081
425000000.0,22.16,0.0,0.0,0.0,0.06867,0.35316,9.903685475234655
430000000.0,22.16,0.0,0.0,0.0,0.06867,0.35453340835223407,9.880043408352234
435000000.0,22.16,0.0,0.0,0.0,0.06994530844935308,0.36169469155064693,9.88848
440000000.0,22.16,0.0,0.0,0.0,0.07494837436058374,0.35316,9.88848
445000000.0,22.16,0.0,0.0,0.0,0.051208217287182174,0.35316,9.887400891356409
450000000.0,22.16,0.0,0.0,0.0,0.06867,0.3502169737778697,9.87867
455000000.0,22.16,0.0,0.0,0.0,0.07131872651348727,0.3246129088378291,9.880435817675657
460000000.0,22.16,0.0,0.0,0.0,0.09574557319515574,0.33354,9.899859617869895
465000000.0,22.16,0.0,0.0,0.0,0.06935670903206709,0.3356001270962013,9.915849872903799
470000000.0,22.16,0.0,0.0,0.0,0.07730278174162782,0.36120417261244175,9.887302781741628
475000000.0,22.16,0.0,0.0,0.0,0.05886,0.3345210184526102,9.86984101845261
480000000.0,22.16,0.0,0.0,0.0,0.0592524093234241,0.3519827720297277,9.888087590676575
485000000.0,22.16,0.0,0.0,0.0,0.06925861884108618,0.3243186188410862,9.878375690579457
490000000.0,22.16,0.0,0.0,0.0,0.0877013714470137,0.34354620951766207,9.869448628552986
495000000.0,22.16,0.0,0.0,0.0,0.05915432884434329,0.35316,9.897897561540875
500000000.0,22.16,0.0,0.0,0.0,0.08828996115239961,0.3531599805761998,9.8590500291357
505000000.0,22.16,0.0,0.0,0.0,0.04944236076392361,0.3337361803819618,9.888185729427057
510000000.0,22.16,0.0,0.0,0.0,0.06827761981227619,0.33354,9.898093809906138
515000000.0,22.16,0.0,0.0,0.0,0.0591542899967429,0.3145085799934858,9.888774289996743
520000000.0,22.16,0.0,0.0,0.0,0.040024779799247796,0.3610080505018805,9.869644779799248
525000000.0,22.16,0.0,0.0,0.0,0.0671985305924853,0.3350114694075147,9.86886
530000000.0,22.16,0.0,0.0,0.0,0.0871128205892282,0.3243185897053859,9.896524230883841
535000000.0,22.16,0.0,0.0,0.0,0.05179675843306759,0.3419766207834662,9.907413310391732
540000000.0,22.16,0.0,0.0,0.0,0.05807521048885211,0.34335,9.9081
545000000.0,22.16,0.0,0.0,0.0,0.04100577882805779,0.3522771105859711,9.899172889414029
550000000.0,22.16,0.0,0.0,0.0,0.05689802136618022,0.3266729679507297,9.880631978633819
555000000.0,22.16,0.0,0.0,0.0,0.0675909107802091,0.3324609107802091,9.87867
560000000.0,22.16,0.0,0.0,0.0,0.08593562175465622,0.33354,9.895935621754656
565000000.0,22.16,0.0,0.0,0.0,0.06268586707665867,0.35914413292334135,9.864151156102212
570000000.0,22.16,0.0,0.0,0.0,0.08416983321469833,0.3545333889284339,9.875923222143133
575000000.0,22.16,0.0,0.0,0.0,0.07161297766262976,0.3281444664939447,9.87867
580000000.0,22.16,0.0,0.0,0.0,0.06867,0.3402108225316082,9.911631645063215
585000000.0,22.16,0.0,0.0,0.0,0.06867,0.3270653772741538,9.89348306591123
590000000.0,22.16,0.0,0.0,0.0,0.0767142114600421,0.32373,9.872391577079915
595000000.0,22.16,0.0,0.0,0.0,0.04669555377135553,0.3396222231143222,9.87680611155716
600000000.0,22.16,0.0,0.0,0.0,0.07063204661712047,0.34335,9.88651801165428
605000000.0,22.16,0.0,0.0,0.0,0.07073008824860087,0.35884982350279826,9.872980176497201
610000000.0,22.16,0.0,0.0,0.0,0.061018188151481884,0.34001456445444567,9.891815435545555
615000000.0,22.16,0.0,0.0,0.0,0.05886,0.3410937119456371,9.89829
620000000.0,22.16,0.0,0.0,0.0,0.06631561204275611,0.34335,9.905745612042756
625000000.0,22.16,0.0,0.0,0.0,0.06131248786012488,0.32863497572024974,9.900742487860125
630000000.0,22.16,0.0,0.0,0.0,0.05886,0.33098941223699413,9.869252351052022
635000000.0,22.16,0.0,0.0,0.0,0.06602131233411312,0.3048947506635475,9.85905
640000000.0,22.16,0.0,0.0,0.0,0.06867,0.34374248701862486,9.85905
645000000.0,22.16,0.0,0.0,0.0,0.06170488747164887,0.34903977494329774,9.872980225056702
650000000.0,22.16,0.0,0.0,0.0,0.07946103787641037,0.32961597474905974,9.87867
655000000.0,22.16,0.0,0.0,0.0,0.07475217455482173,0.33726782544517825,9.885438912722588
660000000.0,22.16,0.0,0.0,0.0,0.08201162563941625,0.3300083743605838,9.901821625639416
665000000.0,22.16,0.0,0.0,0.0,0.07514457416634573,0.3105845741663457,9.875236435415864
670000000.0,22.16,0.0,0.0,0.0,0.0492461609581616,0.3235338390418384,9.884948452055784
675000000.0,22.16,0.0,0.0,0.0,0.06474605244426052,0.3271634868889349,9.891913486888935
680000000.0,22.16,0.0,0.0,0.0,0.06592317358363173,0.31745158679181584,9.882201586791815
685000000.0,22.16,0.0,0.0,0.0,0.06504031330530313,0.31392,9.87867
690000000.0,22.16,0.0,0.0,0.0,0.06867,0.3260844268048443,9.872587786597578
695000000.0,22.16,0.0,0.0,0.0,0.07465411349954112,0.33354,9.87484411349954
700000000.0,22.16,0.0,0.0,0.0,0.07848,0.34531202719332027,9.87278398640334
705000000.0,22.16,0.0,0.0,0.0,0.06690417261244172,0.34737208630622085,9.880435827387558
710000000.0,22.16,0.0,0.0,0.0,0.06454981379089814,0.32628055862730554,9.911239255163593
715000000.0,22.16,0.0,0.0,0.0,0.06867,0.3251034277760343,9.910944858335949
720000000.0,22.16,0.0,0.0,0.0,0.08515084195540842,0.34452722797027224,9.887302772029727
725000000.0,22.16,0.0,0.0,0.0,0.08191345775323458,0.35316,9.884065514082256
730000000.0,22.16,0.0,0.0,0.0,0.07396741417937414,0.35316,9.893777414179374
735000000.0,22.16,0.0,0.0,0.0,0.08367931427649314,0.33756205717052057,9.887891371447013
740000000.0,22.16,0.0,0.0,0.0,0.08318878562638785,0.3288312143736122,9.883771214373612
745000000.0,22.16,0.0,0.0,0.0,0.07848,0.32853688552926885,9.88848
750000000.0,22.16,0.0,0.0,0.0,0.08338501456785014,0.33844504370355044,9.89338501456785
755000000.0,22.16,0.0,0.0,0.0,0.06906234134012341,0.3435461706700617,9.907903829329937
760000000.0,22.16,0.0,0.0,0.0,0.06317644428626444,0.3429576295241763,9.908492370475823
765000000.0,22.16,0.0,0.0,0.0,0.07386928514079284,0.35316,9.893679285140792
770000000.0,22.16,0.0,0.0,0.0,0.07318261495632615,0.34413477008734766,9.883967385043674
775000000.0,22.16,0.0,0.0,0.0,0.07848,0.33795451505344515,9.88749903010689
780000000.0,22.16,0.0,0.0,0.0,0.07848,0.3519828303011283,9.902606415150563
785000000.0,22.16,0.0,0.0,0.0,0.07426168475231684,0.35031505425695053,9.903881684752315
790000000.0,22.16,0.0,0.0,0.0,0.07279021534480215,0.3170591386207914,9.894169784655197
795000000.0,22.16,0.0,0.0,0.0,0.07848,0.31441057720960575,9.88848
800000000.0,22.16,0.0,0.0,0.0,0.09025204661712047,0.3355019689219197,9.88848
805000000.0,22.16,0.0,0.0,0.0,0.08878042181920423,0.3313818312723183,9.88465408436384
810000000.0,22.16,0.0,0.0,0.0,0.051404368533443684,0.33962218426672186,9.87867
815000000.0,22.16,0.0,0.0,0.0,0.053758863321588635,0.3371697158303972,9.87867
820000000.0,22.16,0.0,0.0,0.0,0.07141676814496768,0.3398183840724838,9.885733231855031
825000000.0,22.16,0.0,0.0,0.0,0.06229351602463516,0.33354,9.887989451926094
830000000.0,22.16,0.0,0.0,0.0,0.061999167756491676,0.32686916775649166,9.875530832243507
835000000.0,22.16,0.0,0.0,0.0,0.05552463243774632,0.3301065810943658,9.885242683781126
840000000.0,22.16,0.0,0.0,0.0,0.06553078368400783,0.3472739184200392,9.884948432631983
845000000.0,22.16,0.0,0.0,0.0,0.05886,0.3200022328262223,9.89829
850000000.0,22.16,0.0,0.0,0.0,0.07651809906138099,0.3394260330204603,9.89240396697954
855000000.0,22.16,0.0,0.0,0.0,0.10634033357060334,0.34178033357060333,9.87867
860000000.0,22.16,0.0,0.0,0.0,0.07573318329553183,0.31666681670446817,9.881416816704467
865000000.0,22.16,0.0,0.0,0.0,0.06602128319841283,0.31578384959523853,9.885831283198412
870000000.0,22.16,0.0,0.0,0.0,0.05886,0.3019518506961185,9.881220616898705
875000000.0,22.16,0.0,0.0,0.0,0.06376503399165034,0.32127748300417486,9.88848
880000000.0,22.16,0.0,0.0,0.0,0.07612558290705582,0.3162744170929442,9.88848
885000000.0,22.16,0.0,0.0,0.0,0.07092631719006316,0.3259863171900632,9.88848
890000000.0,22.16,0.0,0.0,0.0,0.07416356542563565,0.33354,9.884163565425634
895000000.0,22.16,0.0,0.0,0.0,0.05886,0.33147988261569883,9.877100469537204
900000000.0,22.16,0.0,0.0,0.0,0.05886,0.32373,9.9081
905000000.0,22.16,0.0,0.0,0.0,0.06445175273561753,0.3218660824214608,9.900644329685843
910000000.0,22.16,0.0,0.0,0.0,0.08299254697302547,0.3192174530269745,9.872391635351317
915000000.0,22.16,0.0,0.0,0.0,0.06052771777277718,0.3416822822272228,9.886812282227222
920000000.0,22.16,0.0,0.0,0.0,0.06867,0.33667923573979236,9.886518089349481
925000000.0,22.16,0.0,0.0,0.0,0.07014151796701518,0.35463151796701514,9.920362410164925
930000000.0,22.16,0.0,0.0,0.0,0.07710658193586581,0.3574763277434633,9.87592316387173
935000000.0,22.16,0.0,0.0,0.0,0.06994531816125317,0.3250053181612532,9.860325318161253
940000000.0,22.16,0.0,0.0,0.0,0.07965721825837217,0.3323627817416278,9.872391654775116
945000000.0,22.16,0.0,0.0,0.0,0.08613176328901763,0.32373,9.89829
950000000.0,22.16,0.0,0.0,0.0,0.07063203690522037,0.3247110184526102,9.899271018452609
955000000.0,22.16,0.0,0.0,0.0,0.08564124435081244,0.33442291854972916,9.90721708145027
960000000.0,22.16,0.0,0.0,0.0,0.05886,0.34335,9.895935544059455
965000000.0,22.16,0.0,0.0,0.0,0.05954671874396719,0.34335,9.866799843768097
970000000.0,22.16,0.0,0.0,0.0,0.06749276231782762,0.3427613811589138,9.841195856523258
975000000.0,22.16,0.0,0.0,0.0,0.05003103787641038,0.3340305189382052,9.869350518938205
980000000.0,22.16,0.0,0.0,0.0,0.0682775809646758,0.3429575809646758,9.87867
985000000.0,22.16,0.0,0.0,0.0,0.05944863826488638,0.3338343191324432,9.87867
990000000.0,22.16,0.0,0.0,0.0,0.07848,0.3427613423113134,9.879062438459124
995000000.0,22.16,0.0,0.0,0.0,0.0782837613466376,0.31411623865336236,9.898191880673318
1000000000.0,22.16,0.0,0.0,0.0,0.05886005827140058,0.33354,9.88848
1005000000.0,22.16,0.0,0.0,0.0,0.08799575856275758,0.33354,9.88848
1010000000.0,22.16,0.0,0.0,0.0,0.08829,0.35276763923607635,9.859638541145886
1015000000.0,22.16,0.0,0.0,0.0,0.0692585605696856,0.3341285605696856,9.897112878860629
1020000000.0,22.16,0.0,0.0,0.0,0.0592523801877238,0.3147047603754476,9.879454760375447
1025000000.0,22.16,0.0,0.0,0.0,0.07749903981879039,0.3418785597281856,9.887989519909395
1030000000.0,22.16,0.0,0.0,0.0,0.0877014200065142,0.34335,9.879258579993486
1035000000.0,22.16,0.0,0.0,0.0,0.07916667989636679,0.3159800396891004,9.887793320103633
1040000000.0,22.16,0.0,0.0,0.0,0.06945477979924779,0.3229452202007522,9.89750522020075
1045000000.0,22.16,0.0,0.0,0.0,0.06867,0.3326571202978712,9.853654398510644
1050000000.0,22.16,0.0,0.0,0.0,0.0774990203949902,0.3423690203949902,9.88455608157996
1055000000.0,22.16,0.0,0.0,0.0,0.0872109204921092,0.34335,9.862287238523672
1060000000.0,22.16,0.0,0.0,0.0,0.07965717941077179,0.31745153823231537,9.85905
1065000000.0,22.16,0.0,0.0,0.0,0.09554944137269442,0.3395241620590416,9.910258324118082
1070000000.0,22.16,0.0,0.0,0.0,0.07279013764960138,0.3349133792165338,9.901036758433067
1075000000.0,22.16,0.0,0.0,0.0,0.0770085208805852,0.30852443735824436,9.873274437358244
1080000000.0,22.16,0.0,0.0,0.0,0.07023957902229579,0.34531210488852104,9.893581262933113
1085000000.0,22.16,0.0,0.0,0.0,0.06867,0.32059071570070713,9.89829
1090000000.0,22.16,0.0,0.0,0.0,0.060625778828057794,0.33805266351582663,9.874157336484172
1095000000.0,22.16,0.0,0.0,0.0,0.06680612126906121,0.3592422425381224,9.87680612126906
1100000000.0,22.16,0.0,0.0,0.0,0.06082197863381979,0.34727395726763954,9.855125935901459
1105000000.0,22.16,0.0,0.0,0.0,0.06660992146329921,0.3278501570734016,9.887989607316495
1110000000.0,22.16,0.0,0.0,0.0,0.06867,0.33903364312083645,9.89829
1115000000.0,22.16,0.0,0.0,0.0,0.07622372165753721,0.3282425566849256,9.905843721657536
1120000000.0,22.16,0.0,0.0,0.0,0.06356875649068756,0.32373,9.923011243509313
1125000000.0,22.16,0.0,0.0,0.0,0.051502478148224784,0.3458025655553256,9.8982899125929
1130000000.0,22.16,0.0,0.0,0.0,0.07082826584668266,0.34590057805110574,9.859442312204424
1135000000.0,22.16,0.0,0.0,0.0,0.07848,0.3505113220460132,9.870723966138039
1140000000.0,22.16,0.0,0.0,0.0,0.07141677785686777,0.34609677785686777,9.885733222143132
1145000000.0,22.16,0.0,0.0,0.0,0.061704877759748776,0.3224546332792463,9.88848
1150000000.0,22.16,0.0,0.0,0.0,0.07946106701211067,0.3207870223373702,9.915948089349481
1155000000.0,22.16,0.0,0.0,0.0,0.07475215513102154,0.32373,9.914182155131021
1160000000.0,22.16,0.0,0.0,0.0,0.06867,0.33707164506321646,9.90142917746839
1165000000.0,22.16,0.0,0.0,0.0,0.062097277371272776,0.3499227226287272,9.885144554742546
1170000000.0,22.16,0.0,0.0,0.0,0.06533462272584623,0.3402107545483075,9.872195377274153
1175000000.0,22.16,0.0,0.0,0.0,0.062293477177034776,0.3271634771770348,9.88161304564593
1180000000.0,22.16,0.0,0.0,0.0,0.06513842292008423,0.3425652687602527,9.882201577079915
1185000000.0,22.16,0.0,0.0,0.0,0.08103064603440646,0.32843870793118707,9.884850323017202
1190000000.0,22.16,0.0,0.0,0.0,0.07612555377135553,0.30783777688567776,9.894562223114322
1195000000.0,22.16,0.0,0.0,0.0,0.06867,0.31607824642288246,9.90427412321144
1200000000.0,22.16,0.0,0.0,0.0,0.06278397669143977,0.32961602330856027,9.890441930074319
1205000000.0,22.16,0.0,0.0,0.0,0.05886,0.33354,9.890245846811357
1210000000.0,22.16,0.0,0.0,0.0,0.0759294705083947,0.34491964700559646,9.875530705988806
1215000000.0,22.16,0.0,0.0,0.0,0.08269827640008276,0.34756827640008275,9.881416894399669
1220000000.0,22.16,0.0,0.0,0.0,0.08397362369703623,0.3323627526059275,9.89829
1225000000.0,22.16,0.0,0.0,0.0,0.07210342861753428,0.32373,9.89829
1230000000.0,22.16,0.0,0.0,0.0,0.053562576108725765,0.3396222716738227,9.89829
1235000000.0,22.16,0.0,0.0,0.0,0.06984729595357296,0.3427613520232135,9.887891352023214
1240000000.0,22.16,0.0,0.0,0.0,0.08318877591448776,0.3182363277434633,9.87867
1245000000.0,22.16,0.0,0.0,0.0,0.07848,0.31911937254789374,9.88367312418263
1250000000.0,22.16,0.0,0.0,0.0,0.07848,0.32863497572024974,9.89338502427975
1255000000.0,22.16,0.0,0.0,0.0,0.06886615124626151,0.3381507731306077,9.88867615124626
1260000000.0,22.16,0.0,0.0,0.0,0.07298647342196474,0.35316,9.873961175526011
1265000000.0,22.16,0.0,0.0,0.0,0.07445782628667826,0.3439385508577855,9.864249275428893
1270000000.0,22.16,0.0,0.0,0.0,0.06337262466822624,0.3290273753317738,9.872587874004678
1275000000.0,22.16,0.0,0.0,0.0,0.06425547523465475,0.31931547523465476,9.884065475234655
1280000000.0,22.16,0.0,0.0,0.0,0.0674928497249285,0.3225528497249285,9.887302849724929
1285000000.0,22.16,0.0,0.0,0.0,0.0700433500808335,0.33354,9.889853350080832
1290000000.0,22.16,0.0,0.0,0.0,0.06298022505670225,0.3252995498865955,9.882790225056702
1295000000.0,22.16,0.0,0.0,0.0,0.07269212515382124,0.31392,9.880435749692356
1300000000.0,22.16,0.0,0.0,0.0,0.07848,0.31392,9.87278402525094
1305000000.0,22.16,0.0,0.0,0.0,0.06700222395582224,0.32539777604417774,9.890147776044177
1310000000.0,22.16,0.0,0.0,0.0,0.052777825445178256,0.3321665236644652,9.90437217455482
1315000000.0,22.16,0.0,0.0,0.0,0.06974917662689177,0.31392,9.887400823373108
1320000000.0,22.16,0.0,0.0,0.0,0.07769512308175122,0.31745162563941626,9.879454876918249
1325000000.0,22.16,0.0,0.0,0.0,0.06572705147307051,0.3305970514730705,9.89829
1330000000.0,22.16,0.0,0.0,0.0,0.07180914833269147,0.34668542583365425,9.89161914833269
1335000000.0,22.16,0.0,0.0,0.0,0.06209732593077326,0.3434480222076802,9.86895802220768
1340000000.0,22.16,0.0,0.0,0.0,0.07494845205578451,0.32373,9.868075356167353
1345000000.0,22.16,0.0,0.0,0.0,0.08829,0.3267711261250113,9.902017747749976
1350000000.0,22.16,0.0,0.0,0.0,0.07946092133360921,0.33354,9.88848
1355000000.0,22.16,0.0,0.0,0.0,0.061704926319249266,0.33354,9.88848
1360000000.0,22.16,0.0,0.0,0.0,0.06042952075089521,0.33079317358363175,9.896720479249105
1365000000.0,22.16,0.0,0.0,0.0,0.04453745302697453,0.32637872651348726,9.90731509394605
1370000000.0,22.16,0.0,0.0,0.0,0.05886,0.3386412532212125,9.87867
1375000000.0,22.16,0.0,0.0,0.0,0.061312526707725266,0.35561252670772525,9.87867
1380000000.0,22.16,0.0,0.0,0.0,0.07102442680484426,0.36061557319515575,9.876315573195155
1385000000.0,22.16,0.0,0.0,0.0,0.07396734619607345,0.34864734619607346,9.875628980705889
1390000000.0,22.16,0.0,0.0,0.0,0.056701773000917735,0.33569822699908225,9.891815319002752
1395000000.0,22.16,0.0,0.0,0.0,0.051110127096201274,0.3412898729037987,9.8709201270962
1400000000.0,22.16,0.0,0.0,0.0,0.06474608157996081,0.3355020271933203,9.88651810877328
1405000000.0,22.16,0.0,0.0,0.0,0.08083429083824291,0.34521392729043926,9.91418214541912
1410000000.0,22.16,0.0,0.0,0.0,0.05434748216267482,0.34962834522488345,9.891226690449766
1415000000.0,22.16,0.0,0.0,0.0,0.07347681754596817,0.33187227251532275,9.862385454969354
1420000000.0,22.16,0.0,0.0,0.0,0.05375888274538883,0.3221603724182037,9.884948510327185
1425000000.0,22.16,0.0,0.0,0.0,0.07700847232108472,0.31686305535783055,9.912023889284338
1430000000.0,22.16,0.0,0.0,0.0,0.06867,0.33354,9.880043427776034
1435000000.0,22.16,0.0,0.0,0.0,0.06867,0.3309893442536934,9.885929344253693
1440000000.0,22.16,0.0,0.0,0.0,0.06749277202972771,0.31627445594054454,9.87474613985136
1445000000.0,22.16,0.0,0.0,0.0,0.05886,0.3324608719326087,9.91791
1450000000.0,22.16,0.0,0.0,0.0,0.05886,0.3266730844935309,9.913985887341958
1455000000.0,22.16,0.0,0.0,0.0,0.06062585652325857,0.3522770717383707,9.87955292826163
1460000000.0,22.16,0.0,0.0,0.0,0.07691034328250343,0.3417803432825034,9.886910343282503
1465000000.0,22.16,0.0,0.0,0.0,0.060233456911734574,0.3230432715441327,9.870920185367602
1470000000.0,22.16,0.0,0.0,0.0,0.07848,0.31392,9.897701371447013
1475000000.0,22.16,0.0,0.0,0.0,0.07946105730021057,0.31392,9.88946105730021
1480000000.0,22.16,0.0,0.0,0.0,0.09653028501110286,0.31392,9.907315142505551
1485000000.0,22.16,0.0,0.0,0.0,0.05915432884434329,0.3153916442217164,9.88848
1490000000.0,22.16,0.0,0.0,0.0,0.06925868682438686,0.3623813131756132,9.888283771058537
1495000000.0,22.16,0.0,0.0,0.0,0.09790374192283742,0.3336381290385813,9.878964387115744
1500000000.0,22.16,0.0,0.0,0.0,0.0784799708642997,0.3433499708642997,9.908099883457199
1505000000.0,22.16,0.0,0.0,0.0,0.0687680707671807,0.3336380707671807,9.869252283068722
1510000000.0,22.16,0.0,0.0,0.0,0.06867,0.3527676586598766,9.86886
1515000000.0,22.16,0.0,0.0,0.0,0.05915427057294271,0.3341285411458854,9.887891458854114
1520000000.0,22.16,0.0,0.0,0.0,0.07769525904835259,0.3241223704758237,9.88848
1525000000.0,22.16,0.0,0.0,0.0,0.0877995296212953,0.32373,9.897799529621295
1530000000.0,22.16,0.0,0.0,0.0,0.0790685702815857,0.34217285943682857,9.916732859436827
1535000000.0,22.16,0.0,0.0,0.0,0.07848,0.35247332981553325,9.881416680737866
1540000000.0,22.16,0.0,0.0,0.0,0.07848,0.35316,9.87867
1545000000.0,22.16,0.0,0.0,0.0,0.07848,0.35316,9.87867
1550000000.0,22.16,0.0,0.0,0.0,0.0519929096793291,0.3443309698931097,9.87867
1555000000.0,22.16,0.0,0.0,0.0,0.04905,0.34335,9.88740093020401
1560000000.0,22.16,0.0,0.0,0.0,0.0663156606022566,0.30881867879548675,9.88848
1565000000.0,22.16,0.0,0.0,0.0,0.09427419119474192,0.3211794607964946,9.897014730398247
1570000000.0,22.16,0.0,0.0,0.0,0.08122673900926738,0.3068567390092674,9.889853369504634
1575000000.0,22.16,0.0,0.0,0.0,0.06180293881502939,0.3374641223699412,9.88848
1580000000.0,22.16,0.0,0.0,0.0,0.0671004306896043,0.34335,9.88848
1585000000.0,22.16,0.0,0.0,0.0,0.052385338426553386,0.31892300763983006,9.872195338426554
1590000000.0,22.16,0.0,0.0,0.0,0.06513846176768462,0.3219642308838423,9.876904230883842
1595000000.0,22.16,0.0,0.0,0.0,0.0766161309809613,0.31578386901903865,9.886616130980961
1600000000.0,22.16,0.0,0.0,0.0,0.07063196892191968,0.32176803107808033,9.88848
1605000000.0,22.16,0.0,0.0,0.0,0.08416986235039861,0.3159800688248007,9.88848
1610000000.0,22.16,0.0,0.0,0.0,0.06533450618304507,0.34452732508927325,9.873176337455362
1615000000.0,22.16,0.0,0.0,0.0,0.0664137313694373,0.3153913431528134,9.899074925477748
1620000000.0,22.16,0.0,0.0,0.0,0.05375873706688737,0.34138815733278155,9.870821842667219
1625000000.0,22.16,0.0,0.0,0.0,0.05640753156367532,0.33844493687264937,9.881122594691025
1630000000.0,22.16,0.0,0.0,0.0,0.06611943166079431,0.34805886332158864,9.881220568339206
1635000000.0,22.16,0.0,0.0,0.0,0.06867,0.3245146729683467,9.85718600472626
1640000000.0,22.16,0.0,0.0,0.0,0.06160676814496768,0.3421729274201293,9.870429695565097
1645000000.0,22.16,0.0,0.0,0.0,0.07279026390430264,0.33922973609569734,9.899565395856452
1650000000.0,22.16,0.0,0.0,0.0,0.06474593590145936,0.31980593590145934,9.90123296795073
1655000000.0,22.16,0.0,0.0,0.0,0.05886,0.3274578642927786,9.88475213570722
1660000000.0,22.16,0.0,0.0,0.0,0.05218916775649168,0.3068566710259667,9.871999167756492
1665000000.0,22.16,0.0,0.0,0.0,0.06876819702188197,0.3205909293625093,9.882005464681255
1670000000.0,22.16,0.0,0.0,0.0,0.07200536756225367,0.3400146324377463,9.875530735124507
1675000000.0,22.16,0.0,0.0,0.0,0.07504653253486532,0.35610306506973066,9.88161306506973
1680000000.0,22.16,0.0,0.0,0.0,0.07848,0.3378562694720627,9.894758432631983
1685000000.0,22.16,0.0,0.0,0.0,0.06611933454179335,0.33609066545820665,9.89829
1690000000.0,22.16,0.0,0.0,0.0,0.07102446565244465,0.34335,9.89829
1695000000.0,22.16,0.0,0.0,0.0,0.06651173415331735,0.3194134683066347,9.910258265846682
1700000000.0,22.16,0.0,0.0,0.0,0.07651809906138099,0.3158820660409207,9.900251900938619
1705000000.0,22.16,0.0,0.0,0.0,0.08829,0.3353058662351587,9.88848
1710000000.0,22.16,0.0,0.0,0.0,0.08260016678530166,0.33197033357060335,9.882790166785302
1715000000.0,22.16,0.0,0.0,0.0,0.07288826668818266,0.3349134666236347,9.884261733311817
1720000000.0,22.16,0.0,0.0,0.0,0.057682733182127334,0.33236273318212733,9.893973633408935
1725000000.0,22.16,0.0,0.0,0.0,0.05984106701211067,0.31293893298788933,9.89829
1730000000.0,22.16,0.0,0.0,0.0,0.06337256639682566,0.320002300809523,9.908884867206348
1735000000.0,22.16,0.0,0.0,0.0,0.05886,0.33873933370029335,9.912710666299706
1740000000.0,22.16,0.0,0.0,0.0,0.06396123379741234,0.34845123379741233,9.88769506481035
1745000000.0,22.16,0.0,0.0,0.0,0.06366686610546866,0.3431537322109373,9.848847464421874
1750000000.0,22.16,0.0,0.0,0.0,0.07357510197495101,0.3237299320166993,9.8394300679833
1755000000.0,22.16,0.0,0.0,0.0,0.08829,0.31872693408876934,9.863660802266308
1760000000.0,22.16,0.0,0.0,0.0,0.07887233162822331,0.31902116581411166,9.87867
1765000000.0,22.16,0.0,0.0,0.0,0.06405926571699265,0.31392,9.887891468566014
1770000000.0,22.16,0.0,0.0,0.0,0.05886,0.31392,9.89829
1775000000.0,22.16,0.0,0.0,0.0,0.06327453447724535,0.31833453447724536,9.911533603431735
1780000000.0,22.16,0.0,0.0,0.0,0.06435356542563565,0.32804643457436433,9.910454261702542
1785000000.0,22.16,0.0,0.0,0.0,0.05886,0.33775833467148336,9.88848
1790000000.0,22.16,0.0,0.0,0.0,0.0671004695372047,0.34335,9.880239530462795
1795000000.0,22.16,0.0,0.0,0.0,0.08250213486572135,0.3353057302685573,9.876904269731442
1800000000.0,22.16,0.0,0.0,0.0,0.07651789511147895,0.3158819300743193,9.88848
1805000000.0,22.16,0.0,0.0,0.0,0.06268593505995936,0.30411,9.88848
1810000000.0,22.16,0.0,0.0,0.0,0.0612143296858433,0.30411,9.881024329685843
1815000000.0,22.16,0.0,0.0,0.0,0.052679735254197356,0.3186289410167894,9.872489735254197
1820000000.0,22.16,0.0,0.0,0.0,0.055328364648683646,0.34335,9.875138364648683
1825000000.0,22.16,0.0,0.0,0.0,0.05591707089687071,0.33648292910312927,9.872293535448435
1830000000.0,22.16,0.0,0.0,0.0,0.06533456445444565,0.3337363066366631,9.875334564454445
1835000000.0,22.16,0.0,0.0,0.0,0.06533467128534672,0.3466853287146533,9.87857200692802
1840000000.0,22.16,0.0,0.0,0.0,0.07848,0.33354,9.895150764260206
1845000000.0,22.16,0.0,0.0,0.0,0.07543886416308863,0.33049886416308866,9.894562271673822
1850000000.0,22.16,0.0,0.0,0.0,0.07161303593403036,0.3207869640659696,9.9081
1855000000.0,22.16,0.0,0.0,0.0,0.08132493603114935,0.3252997441245974,9.9081
1860000000.0,22.16,0.0,0.0,0.0,0.08829,0.3449194916151949,9.910846836128268
1865000000.0,22.16,0.0,0.0,0.0,0.08299252754922527,0.3263787362253874,9.904666318873062
1870000000.0,22.16,0.0,0.0,0.0,0.06867,0.33354,9.86886
1875000000.0,22.16,0.0,0.0,0.0,0.07112253641962536,0.33108746358037466,9.871312536419625
1880000000.0,22.16,0.0,0.0,0.0,0.07848,0.32137556348325563,9.881024436516745
1885000000.0,22.16,0.0,0.0,0.0,0.08073633661386335,0.3229453464554534,9.890736336613863
1890000000.0,22.16,0.0,0.0,0.0,0.08613176328901763,0.34236881644508815,9.893973526578035
1895000000.0,22.16,0.0,0.0,0.0,0.07435972638379726,0.3144106840405068,9.876609863191899
1900000000.0,22.16,0.0,0.0,0.0,0.05886,0.3472738892843389,9.87474611071566
1905000000.0,22.16,0.0,0.0,0.0,0.0644518110070181,0.32932181100701813,9.89642606299766
1910000000.0,22.16,0.0,0.0,0.0,0.08829,0.3496283258010832,9.884948325801084
1915000000.0,22.16,0.0,0.0,0.0,0.08495452560684524,0.33520773719657737,9.867192262803423
1920000000.0,22.16,0.0,0.0,0.0,0.07180927458739274,0.34178036270630363,9.863758911881089
1925000000.0,22.16,0.0,0.0,0.0,0.08681846260918462,0.33354,9.88848
1930000000.0,22.16,0.0,0.0,0.0,0.07435968753619687,0.33628687497586873,9.891226874975867
1935000000.0,22.16,0.0,0.0,0.0,0.054151350340213504,0.34805864965978645,9.9081
1940000000.0,22.16,0.0,0.0,0.0,0.08593552463565524,0.3162744753643447,9.902213811589137
1945000000.0,22.16,0.0,0.0,0.0,0.06867,0.33246086222070864,9.863366551117165
1950000000.0,22.16,0.0,0.0,0.0,0.06867,0.32373,9.895346886370769
1955000000.0,22.16,0.0,0.0,0.0,0.06955293797352938,0.32549587594705875,9.869742937973529
1960000000.0,22.16,0.0,0.0,0.0,0.07769516192935161,0.3417803238587032,9.881024514211944
1965000000.0,22.16,0.0,0.0,0.0,0.06867,0.32304326183223264,9.907413261832232
1970000000.0,22.16,0.0,0.0,0.0,0.07043591479465915,0.31568591479465913,9.897701361735113
1975000000.0,22.16,0.0,0.0,0.0,0.09662838491398386,0.34335,9.889461076724011
1980000000.0,22.16,0.0,0.0,0.0,0.06867,0.34335,9.908492438459124
1985000000.0,22.16,0.0,0.0,0.0,0.06925867711248676,0.3430556614437566,9.916732645775026
1990000000.0,22.16,0.0,0.0,0.0,0.0880937613466376,0.33354,9.878866238653362
1995000000.0,22.16,0.0,0.0,0.0,0.07838186124951861,0.33344186124951863,9.888381861249519
2000000000.0,22.16,0.0,0.0,0.0,0.06867011654280115,0.3237300776952008,9.8786700388476
2005000000.0,22.16,0.0,0.0,0.0,0.09780581683415818,0.34315387788943874,9.888381938944718
2010000000.0,22.16,0.0,0.0,0.0,0.05964464383264644,0.3145084828744848,9.88848
2015000000.0,22.16,0.0,0.0,0.0,0.04934426086104261,0.33295147827791477,9.897995739138956
2020000000.0,22.16,0.0,0.0,0.0,0.07730291770822917,0.3147047215278472,9.907707639236076
2025000000.0,22.16,0.0,0.0,0.0,0.059840921333609215,0.32323953933319544,9.870821842667219
2030000000.0,22.16,0.0,0.0,0.0,0.05886,0.3421728788606288,9.878081439430314
2035000000.0,22.16,0.0,0.0,0.0,0.049736660472566606,0.3342266604725666,9.896916679054867
2040000000.0,22.16,0.0,0.0,0.0,0.04905,0.3425652396245524,9.889264760375447
2045000000.0,22.16,0.0,0.0,0.0,0.07583141916501418,0.34335,9.89740713972167
2050000000.0,22.16,0.0,0.0,0.0,0.07848,0.32569192036241923,9.89829
2055000000.0,22.16,0.0,0.0,0.0,0.0697490600840906,0.32373,9.89829
2060000000.0,22.16,0.0,0.0,0.0,0.06867,0.3150971599869716,9.932821360052115
2065000000.0,22.16,0.0,0.0,0.0,0.06867,0.3480589604405896,9.90339103955941
2070000000.0,22.16,0.0,0.0,0.0,0.051796719585467194,0.3362867195854672,9.889853359792733
2075000000.0,22.16,0.0,0.0,0.0,0.0740656209131562,0.3418785403043854,9.88848
2080000000.0,22.16,0.0,0.0,0.0,0.0702395595984956,0.3351095595984956,9.87199911919699
2085000000.0,22.16,0.0,0.0,0.0,0.0849546809972468,0.31725531900275317,9.86886
2090000000.0,22.16,0.0,0.0,0.0,0.056113037617030376,0.31392,9.86886
2095000000.0,22.16,0.0,0.0,0.0,0.07288842207858422,0.3218661406928614,9.87680614069286
2100000000.0,22.16,0.0,0.0,0.0,0.08632804078998041,0.3080339184200392,9.88651804078998
2105000000.0,22.16,0.0,0.0,0.0,0.05729023645160236,0.3118599408870994,9.88848
2110000000.0,22.16,0.0,0.0,0.0,0.04905,0.3292236819684368,9.88848
2115000000.0,22.16,0.0,0.0,0.0,0.056603741081337415,0.3410937410813374,9.873372517837325
2120000000.0,22.16,0.0,0.0,0.0,0.07377128235691283,0.37317256471382565,9.84649307646463
2125000000.0,22.16,0.0,0.0,0.0,0.07112245872442458,0.34580229362212295,9.868860165102301
2130000000.0,22.16,0.0,0.0,0.0,0.06867,0.3480588827453888,9.87867
2135000000.0,22.16,0.0,0.0,0.0,0.06867,0.3459986585301866,9.885831341469814
2140000000.0,22.16,0.0,0.0,0.0,0.07573324156693241,0.3362867584330676,9.895543241566932
2145000000.0,22.16,0.0,0.0,0.0,0.05758457500784575,0.3474702833281028,9.905255141664052
2150000000.0,22.16,0.0,0.0,0.0,0.05591704176117042,0.34629295823882955,9.887498874716488
2155000000.0,22.16,0.0,0.0,0.0,0.05886,0.3365810581417106,9.898976825574868
2160000000.0,22.16,0.0,0.0,0.0,0.05218915804459158,0.3402108419554084,9.888087474133775
2165000000.0,22.16,0.0,0.0,0.0,0.06876822615758225,0.3367772579474726,9.87867
2170000000.0,22.16,0.0,0.0,0.0,0.06553071570070716,0.34001464214964644,9.865720715700707
2175000000.0,22.16,0.0,0.0,0.0,0.05886,0.3305969155064692,9.890932711233827
2180000000.0,22.16,0.0,0.0,0.0,0.07141688468776884,0.33000844234388443,9.914378442343883
2185000000.0,22.16,0.0,0.0,0.0,0.07229965755899657,0.3273596575589966,9.899368972676989
2190000000.0,22.16,0.0,0.0,0.0,0.08083448507624484,0.32373,9.894562242538122
2195000000.0,22.16,0.0,0.0,0.0,0.07033757209427571,0.32373,9.892305857364757
2200000000.0,22.16,0.0,0.0,0.0,0.07063208546472086,0.32961604273236045,9.864935829070559
2205000000.0,22.16,0.0,0.0,0.0,0.07269205717052056,0.3393279428294794,9.85502794282948
2210000000.0,22.16,0.0,0.0,0.0,0.06867,0.34335,9.864739842926598
2215000000.0,22.16,0.0,0.0,0.0,0.05748651395256514,0.3377582569762826,9.885635229071152
2220000000.0,22.16,0.0,0.0,0.0,0.07651821560418216,0.32804635687916356,9.89829
2225000000.0,22.16,0.0,0.0,0.0,0.08730891356408914,0.3183344567820446,9.882103370346133
2230000000.0,22.16,0.0,0.0,0.0,0.07318255668492556,0.3245148866301489,9.890049773260298
2235000000.0,22.16,0.0,0.0,0.0,0.05827131317561313,0.3387393434121934,9.897701313175613
2240000000.0,22.16,0.0,0.0,0.0,0.04905,0.3484512435093124,9.883378756490687
2245000000.0,22.16,0.0,0.0,0.0,0.05405314360643144,0.3381505691807057,9.893679430819294
2250000000.0,22.16,0.0,0.0,0.0,0.05886,0.32863504370355046,9.8982899125929
2255000000.0,22.16,0.0,0.0,0.0,0.06847388760133888,0.3287330561993306,9.89328694380067
2260000000.0,22.16,0.0,0.0,0.0,0.07377115610221155,0.32373,9.893581156102211
2265000000.0,22.16,0.0,0.0,0.0,0.05944851201018512,0.3283407439949074,9.879258512010185
2270000000.0,22.16,0.0,0.0,0.0,0.06710057636810576,0.32902735590797355,9.88239793227608
2275000000.0,22.16,0.0,0.0,0.0,0.07504636743256367,0.3413881767565818,9.880631823243418
2280000000.0,22.16,0.0,0.0,0.0,0.05886,0.34570422285494223,9.850417111427472
2285000000.0,22.16,0.0,0.0,0.0,0.06307834438338344,0.33638503315015034,9.8647400663003
2290000000.0,22.16,0.0,0.0,0.0,0.07691048896100489,0.35316,9.885929266558492
2295000000.0,22.16,0.0,0.0,0.0,0.0802457108447571,0.3451157108447571,9.876904289155242
2300000000.0,22.16,0.0,0.0,0.0,0.07259404467474044,0.32961595532525956,9.88455595532526
2305000000.0,22.16,0.0,0.0,0.0,0.0708281104562811,0.32373,9.87484405522814
2310000000.0,22.16,0.0,0.0,0.0,0.07377137947591379,0.32373,9.880043534606935
2315000000.0,22.16,0.0,0.0,0.0,0.09084051006780511,0.3309894899321949,9.89829
2320000000.0,22.16,0.0,0.0,0.0,0.08201164506321644,0.34688164506321645,9.8771001296207
2325000000.0,22.16,0.0,0.0,0.0,0.09172354516033544,0.35316,9.853164180641341
2330000000.0,22.16,0.0,0.0,0.0,0.0847582189701822,0.3464891094850911,9.882005445257454
2335000000.0,22.16,0.0,0.0,0.0,0.06533469070914691,0.33354,9.88848
2340000000.0,22.16,0.0,0.0,0.0,0.07534075454830753,0.3366792454516925,9.88848
2345000000.0,22.16,0.0,0.0,0.0,0.07475229109762291,0.3403088544511885,9.885438854451188
2350000000.0,22.16,0.0,0.0,0.0,0.07946086306220862,0.33059695435406955,9.884556091291861
2355000000.0,22.16,0.0,0.0,0.0,0.06170494574304946,0.32373,9.89544505425695
2360000000.0,22.16,0.0,0.0,0.0,0.07416369168033692,0.32922369168033694,9.885733154159832
2365000000.0,22.16,0.0,0.0,0.0,0.08034376218813762,0.34335,9.876021254062712
2370000000.0,22.16,0.0,0.0,0.0,0.05886,0.3407993539655935,9.86886
2375000000.0,22.16,0.0,0.0,0.0,0.05150236160542362,0.33108745386847455,9.876217638394577
2380000000.0,22.16,0.0,0.0,0.0,0.03649333868593339,0.32373,9.89829
2385000000.0,22.16,0.0,0.0,0.0,0.05660365367423654,0.3327553853030539,9.893777307348472
2390000000.0,22.16,0.0,0.0,0.0,0.05552473926864739,0.35217876788558766,9.87867
2395000000.0,22.16,0.0,0.0,0.0,0.0846604395600044,0.31392,9.882790293040003
2400000000.0,22.16,0.0,0.0,0.0,0.09613772029727721,0.31980613985136136,9.892403860148638
2405000000.0,22.16,0.0,0.0,0.0,0.05277789342847894,0.33962210657152103,9.87072394671424
2410000000.0,22.16,0.0,0.0,0.0,0.06690415318864153,0.32549584681135846,9.876904153188642
2415000000.0,22.16,0.0,0.0,0.0,0.05886,0.3285367592745676,9.872195493816955
2420000000.0,22.16,0.0,0.0,0.0,0.06042964700559647,0.3088189410167894,9.893188941016788
2425000000.0,22.16,0.0,0.0,0.0,0.06425535869185359,0.3305969057945691,9.913495358691852
2430000000.0,22.16,0.0,0.0,0.0,0.043360341599503416,0.31666689439966894,9.88573310560033
2435000000.0,22.16,0.0,0.0,0.0,0.06867,0.33481534729695345,9.87268604189086
2440000000.0,22.16,0.0,0.0,0.0,0.06749275260592752,0.3445272473940725,9.895935505211854
2445000000.0,22.16,0.0,0.0,0.0,0.06101829498238295,0.34884341003523406,9.877590852508808
2450000000.0,22.16,0.0,0.0,0.0,0.07749895241168951,0.3168631427649314,9.872784190353242
2455000000.0,22.16,0.0,0.0,0.0,0.06955294768542947,0.34246705231457053,9.90721705231457
2460000000.0,22.16,0.0,0.0,0.0,0.07691030443490304,0.3327551522174515,9.895150608869805
2465000000.0,22.16,0.0,0.0,0.0,0.05817325212033252,0.32373,9.865230730917007
2470000000.0,22.16,0.0,0.0,0.0,0.05022729595357296,0.3243186479767865,9.944396760116067
2475000000.0,22.16,0.0,0.0,0.0,0.06965109614781095,0.3340305480739055,9.896327807704377
2480000000.0,22.16,0.0,0.0,0.0,0.08711265548692655,0.3429575518289755,9.860619792684098
2485000000.0,22.16,0.0,0.0,0.0,0.05944869653628697,0.3332456517318565,9.89829
2490000000.0,22.16,0.0,0.0,0.0,0.07808750326947503,0.3231412549042126,9.89750500653895
2495000000.0,22.16,0.0,0.0,0.0,0.05905629692476297,0.29459444538714447,9.859148148462381
2500000000.0,22.16,0.0,0.0,0.0,0.07847990288099903,0.32373,9.868860097119
2505000000.0,22.16,0.0,0.0,0.0,0.05905610268676103,0.32373,9.888283897313238
2510000000.0,22.16,0.0,0.0,0.0,0.04924615124626151,0.34295769750747696,9.87886615124626
2515000000.0,22.16,0.0,0.0,0.0,0.03953425114914251,0.3338342511491425,9.907217246552571
2520000000.0,22.16,0.0,0.0,0.0,0.07691059579190596,0.3052870531560705,9.87984705315607
2525000000.0,22.16,0.0,0.0,0.0,0.0691604509549045,0.34138819618038196,9.91594819618038
2530000000.0,22.16,0.0,0.0,0.0,0.06867,0.3156856525733565,9.871802754288927
2535000000.0,22.16,0.0,0.0,0.0,0.07779334923933348,0.3504133969573339,9.859736650760667
2540000000.0,22.16,0.0,0.0,0.0,0.060429501327095014,0.35316,9.877100498672904
2545000000.0,22.16,0.0,0.0,0.0,0.04993285056642851,0.32637855169928554,9.914378597734284
2550000000.0,22.16,0.0,0.0,0.0,0.06670809906138099,0.3325590495306905,9.91791
2555000000.0,22.16,0.0,0.0,0.0,0.05120810074438101,0.32480905037219054,9.891717151116572
2560000000.0,22.16,0.0,0.0,0.0,0.0404171502750715,0.3323628497249285,9.914378549174785
2565000000.0,22.16,0.0,0.0,0.0,0.07337899928819,0.3420747498220475,9.866701501067714
2570000000.0,22.16,0.0,0.0,0.0,0.0531700502425005,0.3349133500808335,9.875923299838332
2575000000.0,22.16,0.0,0.0,0.0,0.065727100032571,0.3418785500162855,9.86199289996743
2580000000.0,22.16,0.0,0.0,0.0,0.06867,0.35159045011340445,9.875530900226808
2585000000.0,22.16,0.0,0.0,0.0,0.06867,0.35316,9.911239400842094
2590000000.0,22.16,0.0,0.0,0.0,0.084758500615285,0.3129387484617875,9.909865749692356
2595000000.0,22.16,0.0,0.0,0.0,0.06445154878571549,0.3279484512142845,9.884261548785714
2600000000.0,22.16,0.0,0.0,0.0,0.0667080505018805,0.33354,9.90221415150564
2605000000.0,22.16,0.0,0.0,0.0,0.0764199505989995,0.34128995059899947,9.877100197604001
2610000000.0,22.16,0.0,0.0,0.0,0.07848,0.3356981493038815,9.876511850696119
2615000000.0,22.16,0.0,0.0,0.0,0.07092624920676249,0.33354,9.871116249206763
2620000000.0,22.16,0.0,0.0,0.0,0.08358130178071302,0.33354,9.891226952671069
2625000000.0,22.16,0.0,0.0,0.0,0.08093244901252448,0.33354,9.89829
2630000000.0,22.16,0.0,0.0,0.0,0.07122054891540548,0.30450219566162195,9.905549451084594
2635000000.0,22.16,0.0,0.0,0.0,0.09015405354514054,0.33010675590856753,9.893777297636573
2640000000.0,22.16,0.0,0.0,0.0,0.08397349744233497,0.329223497442335,9.895543251278832
2645000000.0,22.16,0.0,0.0,0.0,0.05061939449619394,0.3446254541278545,9.912220302751901
2650000000.0,22.16,0.0,0.0,0.0,0.046107051473070516,0.3600270514730705,9.869840639688507
2655000000.0,22.16,0.0,0.0,0.0,0.05581895157018952,0.34943209685962096,9.856008951570189
2660000000.0,22.16,0.0,0.0,0.0,0.06553085166730852,0.34335,9.885733406669234
2665000000.0,22.16,0.0,0.0,0.0,0.08181550352885503,0.3236317447067174,9.885144496471144
2670000000.0,22.16,0.0,0.0,0.0,0.08829,0.2880213925538139,9.917517911169279
2675000000.0,22.16,0.0048442008113729566,0.018004090603393367,0.0,0.13930241566932416,0.36395172742131726,9.950283103917332
2680000000.0,22.16,0.0026828805799225964,0.08428660755230674,0.0,0.4367434383987344,0.19855263010332627,9.84413786299588
2685000000.0,22.16,-0.02080380210496199,0.2503408631136558,-0.006036621223902777,-0.04179591959615925,0.05375859138838591,9.830012817223228
2690000000.0,22.16,-0.0013157058840020247,0.16933012185450375,-0.003641054850620119,-0.8499421620016215,0.10006252250022521,9.846885495499954
2695000000.0,22.16,0.023312059201705197,0.11945721240429519,-0.001298885391500978,-0.6336236598815366,0.25702304694283046,9.965097199289971
2700000000.0,22.16,0.050918451972679565,0.08500393497031691,0.0004258831039804698,-1.265498391081684,0.4983494684392947,9.786453692452536
2705000000.0,22.16,0.060198263039662955,-0.11558096908012132,0.005898199887170653,-1.1408961696206616,0.5040368542551685,9.822166291489664
2710000000.0,22.16,0.028823866763131707,-0.21241343703064677,0.0041946843353182555,-0.8001052844319528,0.6307848423474485,9.705226778629068
2715000000.0,22.16,0.02658379378054557,-0.3382722602859489,0.006526361181174753,-0.17147162795601611,0.7749900000000001,9.862388669608286
2720000000.0,22.16,-0.001152307391596795,-0.32422940026268576,0.007069247199575944,0.33079251317442515,0.8409138339928384,10.189843833992839
2725000000.0,22.16,-0.02950824719752598,-0.38270330139336345,0.006600858208337249,0.5876220699316207,0.8981055529298555,10.18228891777159
2730000000.0,22.16,-0.06517202723157327,-0.34616980708154926,0.007942289539261608,1.532328893506689,0.7965709394605094,10.18140707724277
2735000000.0,22.16,-0.10590927781506151,-0.1680107149292746,0.004066931630574495,1.8277962250507622,0.5555387594012875,9.99844781566398
2740000000.0,22.16,-0.13673771964191697,-0.003658288702891005,0.001618275058392895,1.9521939915909399,0.10555230028482299,9.749177467787876
2745000000.0,22.16,-0.15003259870789562,0.18463146631508223,-0.001671542330022017,1.3797666361086662,-0.22141207322832074,9.807156219684963
2750000000.0,22.16,-0.11718113912573339,0.21677821955924012,-0.003726260561936144,0.9172396471441966,-0.5493632049270321,9.785473664613736
2755000000.0,22.16,-0.08589508190809315,0.3162673943971799,-0.00421604057137322,0.579664391501444,-0.8676947675628477,9.619587418386875
2760000000.0,22.16,-0.006227206255156381,0.25250700904352785,-0.005365828616123334,-0.4324272660456727,-0.7090647092221471,9.649901657755017
2765000000.0,22.16,0.1004695068545216,0.08440318753452461,-0.0022570364741029032,-0.24750141268051418,-0.3118575906072759,9.759184522240846
2770000000.0,22.16,0.15414111023971366,0.10869970894659522,-0.0024487261364684212,-0.2256353803926538,0.09672880596098805,9.59633588643116
2775000000.0,22.16,0.18434260090778412,0.01704517287949931,-0.0029277605715998887,-0.2874272864891728,0.5081603716460037,9.465670185823003
2780000000.0,22.16,0.19148637886266168,0.03017275294584279,-0.003747617851995514,0.17657865004588652,0.9656991539063915,9.67933198795962
2785000000.0,22.16,0.17051557588578553,0.09349884957997141,-0.007143789548925353,0.11517037371510375,1.6297402226708022,9.720041272189613
2790000000.0,22.16,0.1323946487389095,0.15534223622705587,-0.003534617275761897,-0.21680669020226695,2.1797825419240255,10.268920416592005
2795000000.0,22.16,0.024668559356301606,0.19187019957331092,-0.0015011635815245581,-1.051537103081771,1.5126922278861221,10.59842193659842
2800000000.0,22.16,-0.19793194309446893,0.03899402210038516,0.00042589575203265916,-1.1104880841618807,0.09809483326914836,9.868861359666013
2805000000.0,22.16,-0.24046683180061246,-0.017641007151787996,0.0038433836328522846,-0.8167824524478247,-0.28890204823082044,10.130788634512786
2810000000.0,22.16,-0.08874157872735161,-0.1293494403766612,0.004003099019383025,-0.8860372350883724,-0.07926567329405673,10.150012253022222
2815000000.0,22.16,-0.06709339497622062,-0.23602610962392487,0.0053232542185827,-0.5545576049820762,-0.20924779210197791,9.939296565491965
2820000000.0,22.16,-0.07571474727332803,-0.2977657783729385,0.0053232542185827,-0.02039948681369491,-0.1624520115216201,10.0046300713493
2825000000.0,22.16,-0.009480354365853691,-0.24810030122856203,0.0042053529673066435,0.6057677743611778,0.09859176206141762,9.901722457427525
2830000000.0,22.16,0.014767454490220093,-0.14447517212778474,0.002129301687433,0.7443845590193456,0.20188908539839084,9.760557270183874
2835000000.0,22.16,0.00351340754631099,-0.08190208512295337,0.0024806424420641187,0.9645194202658942,0.1695176810635768,9.699048514534685
2840000000.0,22.16,0.02428544901002396,0.04060762439465908,0.0011497869907457505,0.8872145796014458,0.2809585103271851,9.684432551635926
2845000000.0,22.16,0.03675423959102949,0.08258342359713301,-0.002203809254639041,0.7126973289106734,0.22131227374292273,9.729851913175018
2850000000.0,22.16,0.006393261305039565,0.16394252573328544,-0.0025552100875178593,0.5817286267313864,0.10006277500962776,9.73838805179878
2855000000.0,22.16,0.02841689127032327,0.17067246132248404,-0.007590942460604472,0.05630973272969733,0.17628531181535312,9.891619643639597
2860000000.0,22.16,0.04312703145780161,0.13401806282875378,-0.00442892942314621,0.09260628889586289,0.12203628889586289,9.974808555520685
2865000000.0,22.16,0.04398176218257589,0.18022526672027742,-0.0032791487564264804,-0.08574285024962852,0.16088511298375113,10.03484497740325
2870000000.0,22.16,0.069412190316604,0.12446352095016126,-0.004450198176840503,-0.43791639313296393,0.350021803433518,10.01385196723892
2875000000.0,22.16,0.0830951499295499,0.1070627504516594,0.00026614452935415963,-0.365426799943768,0.6229382389186824,10.001294218192042
2880000000.0,22.16,0.0878222118599416,0.05279456415735433,-0.00034064577253400865,-0.8754430574269305,1.028479896535099,9.940670206929802
2885000000.0,22.16,0.06866711419529652,-0.08109499256089352,0.0040988753402833025,-0.6491265232090652,0.9185092352843924,9.977846690380467
2890000000.0,22.16,-0.01710227249365095,-0.13512622872569274,0.00023422927776274883,-0.4171192914173929,0.7857812806739128,9.706996403369564
2895000000.0,22.16,-0.0362155819788823,-0.22687072352806284,0.0021825647430446784,-0.03335062608590625,0.8219798437680985,9.89829
2900000000.0,22.16,-0.04963754926034028,-0.19131602962628602,0.005323223652456631,0.44145028164510286,0.7377098031681981,9.880631493038814
2905000000.0,22.16,-0.1081817627617461,-0.18051341511088145,0.0016715201959306716,0.5589761698978617,0.39808878432948785,9.824911651409117
2910000000.0,22.16,-0.12064876226107163,-0.10784513649526044,0.003492030230169031,0.8750514347674143,0.23740143476741435,9.895543426093035
2915000000.0,22.16,-0.08780400934311941,-0.0253498403613263,0.0007239871531085814,0.7962777566203776,0.08524646532376465,9.902703650694336
2920000000.0,22.16,-0.10738370248128831,0.04065337518116542,0.0037475525037260248,0.7400640745826408,-0.275857597022476,9.800975537327457
2925000000.0,22.16,-0.0808537897657549,0.10370814547227941,0.0007452432587507038,0.34776239785922397,-0.34384089770230897,9.883083534151535
2930000000.0,22.16,-0.026737529731307406,0.07264397059719865,-0.0010646508437165,0.061215310587753105,-0.37886123250051235,9.72896888779439
2935000000.0,22.16,0.013217207688744159,0.057794638561253824,-0.001341472437093823,0.20257678504426785,-0.22651250093802502,9.661967499061976
2940000000.0,22.16,0.06693760898700617,0.09068009970157681,-0.003449481128732679,0.21110954392679543,-0.1385158294566583,9.72641902842389
2945000000.0,22.16,0.08040960498214994,0.1517191861378524,-0.005089018616793865,-0.05542735804637358,0.09888640168656401,9.7480001135629
2950000000.0,22.16,0.13549335074181865,0.08010426605712574,-0.002874538622157719,-0.16578779669557797,0.36002797410357973,9.669718547105687
2955000000.0,22.16,0.12859451285686607,0.1714780069171819,-9.582480510016879e-05,-0.042187017813070195,0.5789906769917068,9.903685213013352
2960000000.0,22.16,0.1371131222963163,0.10397675559425858,-0.0008942942293104054,-0.6819922923945231,1.303554869800149,9.933611461972614
2965000000.0,22.16,0.13669637853313346,0.06248020337294006,0.0009155872251046485,-0.8637713638735136,1.5742061502661617,10.716143422519137
2970000000.0,22.16,0.0048284428589251485,-0.10196322140720167,-0.0007452242866724731,-0.9288037619802377,0.8193278540561785,9.748788253679582
2975000000.0,22.16,-0.13298933037969163,-0.15839756386040457,0.004045648120819364,0.17118155292391554,0.3055839847896399,10.18278115571611
2980000000.0,22.16,-0.06753282056735029,-0.05808418570201856,0.00017036926245824833,-0.2840946479708465,0.6925839740976397,10.348762190087923
2985000000.0,22.16,-0.03046931731924547,-0.21968149754510766,0.0042586033748661,0.20149844364078445,0.3526674706984747,9.866114591521045
2990000000.0,22.16,-0.15250105387049662,-0.05710174355145765,0.004194705415405143,0.37062116115121163,0.024133935774739358,10.092723677305537
2995000000.0,22.16,-0.05637617872663093,-0.13941671041016196,0.0010966093094860903,0.26869816879698166,0.24338499468864994,10.00237183120302
3000000000.0,22.16,-0.047944346328909995,-0.020246097683954058,0.004258571754735725,0.6474563871731639,0.0588596503715965,9.623611107156611
3005000000.0,22.16,-0.07324045062857606,-0.06663956765977598,-0.0010114499743612655,0.045318581151785775,0.0005882497888825,9.808137209001872
3010000000.0,22.16,-0.030700779420910193,-0.05145744715995634,0.004152170016025257,0.8371902526480026,-0.04806929232819293,9.60810897222159
3015000000.0,22.16,-0.01950050017607051,0.04807046881722717,-0.001937702669441258,0.07317779785387801,-0.058565758562757586,9.575442724311728
3020000000.0,22.16,0.006387366189618292,-0.08385902449482524,-8.515933512482244e-05,0.5764388849530888,-0.10594829329938293,9.706407221238273
3025000000.0,22.16,0.02972047956010033,0.09368432040935148,-0.0010114246782569672,0.645007793784978,0.1157594101678941,9.702580441243004
3030000000.0,22.16,0.0779617146365702,0.07328374010758971,-0.0020654290240763457,0.24171581041895812,0.20130167083291672,9.748197294270572
3035000000.0,22.16,0.059166695318910466,0.12486608730088851,-0.0001490383225075517,0.4074105379759053,0.23338007685370077,9.760263358951233
3040000000.0,22.16,0.08007026852491594,0.13476947636717507,-0.003917940738262502,-0.0294329524176295,0.44302095811210956,9.9324299219187
3045000000.0,22.16,0.07620156012230157,0.11105950315536747,-0.0013520873148605657,0.09201886461848867,0.41643420427264205,9.902704204272641
3050000000.0,22.16,0.056461272713486305,0.13166081175968042,-0.003939227410030668,-0.27173954743139545,0.544455888638859,10.021896829396267
3055000000.0,22.16,0.0543320996145834,0.06880409973620703,-0.003311057683991862,-0.1654936912249369,0.7250582274544823,10.088015756038258
3060000000.0,22.16,0.04683690607076621,0.10853258152504452,-0.0022570533381723957,-0.4320343614153437,0.9441157670470577,10.241248610426085
3065000000.0,22.16,0.02264339101743916,0.03257006101811,0.0006494563978069845,-0.7354575455523755,0.6468691377099913,10.073495290253152
3070000000.0,22.16,-0.06511464141204482,-0.04297603809546266,0.0010646508437165,-0.47970691291266915,0.3959301688544017,9.902016786271867
3075000000.0,22.16,-0.030843987440624512,-0.07500131695863207,0.002874570242288089,-0.24819168597991687,0.5380797542918976,9.978732716738227
3080000000.0,22.16,-0.0331068794272312,-0.07256166903070926,0.0031939525311496,-0.2405413794759138,0.3547280445420804,9.79861896419269
3085000000.0,22.16,-0.07229390536061356,-0.1226481545953606,0.002310285827658008,-0.204538200387882,0.2080693210084932,9.923797198448472
3090000000.0,22.16,-0.04931684234719742,-0.13140512822345854,0.004748362304216325,0.09339336070353363,0.2507440801563408,9.933017219941373
3095000000.0,22.16,-0.0365668710873004,-0.12843474582412243,0.0035985068031880877,0.15696,0.24897767976667678,9.895935359533354
3100000000.0,22.16,-0.05049598365271317,-0.11590373347886221,0.004045679740949744,0.49442658919256594,0.10398491615194913,9.864935819358658
3105000000.0,22.16,-0.04338426215145189,-0.04391281960280703,0.002576441951059976,0.45479063502560635,0.12291972217629721,9.85905
3110000000.0,22.16,-0.008904071545883602,-0.02806037618373468,0.002959735901438979,0.49834860408018605,0.11438441877594419,9.81313883755189
3115000000.0,22.16,-0.0065583017288704665,0.025369841476089013,-8.519833328559474e-05,0.4519461554537616,0.1305712815154128,9.724652394948624
3120000000.0,22.16,0.015770294406752934,0.022928588178596183,-0.00025550962550484205,0.3496277333751774,0.19698528481805286,9.746823963613538
3125000000.0,22.16,0.01944729825271097,0.04421377736006206,-0.0007984947203145364,0.30901487860124877,0.17167463580374637,9.797737803496878
3130000000.0,22.16,0.023631455192623226,0.042224658112392885,-0.0010646508437165,0.23877485283154853,0.2295546079649461,9.82451892159299
3135000000.0,22.16,0.0387815028585624,0.059342071240241476,-0.0002874491191962067,0.21582,0.32667360893613606,9.865426804468068
3140000000.0,22.16,0.04751348049713904,0.06097546792619631,-0.0015331104532463435,0.12399760712047606,0.4026028269351283,9.871606739009268
3145000000.0,22.16,0.04294918361981956,0.06085842917562782,-0.0006174842299808995,0.1579416108785161,0.4357603221757032,9.875825161087851
3150000000.0,22.16,0.036747874199603646,0.07297580639665374,-0.0007452622308289287,-0.019621835549118366,0.5169876730346767,9.913005305924854
3155000000.0,22.16,0.034416315402233895,0.04395546199226738,-0.0017992665766483071,-0.03345142589701426,0.5493600000000001,9.91418207743582
3160000000.0,22.16,0.015251211832431333,0.051941909942092676,-0.0006813632173636288,-0.04002516827525168,0.5093348317247484,9.921441722758418
3165000000.0,22.16,-0.002171967783351835,0.040724607697687494,0.0,-0.11144209181062092,0.43134514671305146,9.986874853286949
3170000000.0,22.16,-0.017642244172757213,0.04319004474476247,0.0,-0.15676398472033984,0.3504127074124271,9.99658601527966
3175000000.0,22.16,-0.016508129690992204,0.02167758734492385,0.0,-0.2815481100701811,0.3301065616705656,9.98658
3180000000.0,22.16,-0.0073247441770286125,-0.00861369651062341,0.0013627664868923989,-0.22405922641399223,0.3398184617676846,9.961466152929262
3185000000.0,22.16,-0.008953760593709833,-0.012345713888787566,0.0007878281963348442,-0.22494398051283981,0.36189108559441086,9.934979276270393
3190000000.0,22.16,-0.013031339776185875,-0.038647470793337704,0.0006600902476519563,-0.2040473803807738,0.34845095215230953,9.879061904304619
3195000000.0,22.16,-0.015149995086673146,-0.05256473880348737,0.0004152070939616652,-0.11291254146862541,0.3395241620590416,9.837271675881917
3200000000.0,22.16,-0.014699149358456511,-0.06476583303244524,0.0019163917555731996,-0.06670787568767876,0.3021475649068756,9.841392124312321
3205000000.0,22.16,-0.016991512291461668,-0.0739323148912371,0.001309500269267766,0.03953535830575359,0.29204388675983883,9.85502796225328
3210000000.0,22.16,-0.014231011410318486,-0.06917328500903673,0.0012350085121269404,0.153428898803189,0.29273027529920276,9.881809449401594
3215000000.0,22.16,-0.013073939469830851,-0.05754725028113618,0.0027361594455994056,0.20316528734255287,0.27330647510496475,9.87592295020993
3220000000.0,22.16,-0.010135421729877515,-0.05173435834370303,0.002597741270880317,0.24878197526781975,0.27585732508927324,9.881024650178546
3225000000.0,22.16,-0.004631210775182828,-0.04809424516821145,0.002129301687433,0.30165781320877816,0.31686337585053376,9.892894437358244
3230000000.0,22.16,-0.002619034266674562,-0.045317131882671176,0.000979465158483032,0.38200209012762093,0.3486474627388746,9.867290149044502
3235000000.0,22.16,-0.006643475820056113,-0.023789793254655318,0.0005642717665778625,0.46803553985195545,0.32196382298403825,9.83364191149202
3240000000.0,22.16,-0.011753758974526882,0.014020106315675736,0.000511025575035759,0.45439863360198635,0.2738949482675495,9.804506211200662
3245000000.0,22.16,-0.01223283135381478,0.042303783238080366,0.0,0.42202632606046325,0.22504102181861024,9.800386326060464
3250000000.0,22.16,-0.00904949791644931,0.0766987955364456,0.0,0.3188235480709355,0.15695949498119496,9.829620252509402
3255000000.0,22.16,0.00143738156254169,0.09647773876198881,-0.0005216857749893763,0.11467769873507698,0.1321408896734089,9.863660889673408
3260000000.0,22.16,0.017255824442900025,0.08961074761834517,-0.0020867293979010574,-0.018050906572709066,0.1754031799295318,9.864543410035234
3265000000.0,22.16,0.03357535800883932,0.07427144835760127,-0.0016927741935641534,-0.1372429781180298,0.26594992444319926,9.863072290256122
3270000000.0,22.16,0.0426034870411815,0.04650933389167752,0.0,-0.21660467296834673,0.36061598109495985,9.874157336484172
3275000000.0,22.16,0.03877068877397424,0.01927962758695318,0.0004790997834008901,-0.20601,0.43213107251651073,9.864445436387054
3280000000.0,22.16,0.03314937372044162,-0.003925746780841524,0.0005961975582127314,-0.15421243547922436,0.5065887822603878,9.893581709680518
3285000000.0,22.16,0.027836717515556147,-0.01659406000437791,0.0,-0.058761453349714526,0.5564234552287346,9.924874908578449
3290000000.0,22.16,0.016554706747790617,-0.015532725162005837,0.0,-0.011379472191394721,0.5705494721913947,9.928701319521513
3295000000.0,22.16,0.00240601366435844,-0.0149051118120315,0.0,-0.00402216400142164,0.5430813439943135,9.965194328002843
3300000000.0,22.16,-0.011931161314245885,-0.020448368063978185,0.0004258672939152824,-0.005885935901459359,0.4885374872116749,9.98461812819708
3305000000.0,22.16,-0.02688935205942501,-0.033745675625084626,0.0006494300476983391,-0.015303856782638568,0.42614614321736144,9.99256403580434
3310000000.0,22.16,-0.0372802328225988,-0.05449184610288174,0.0004045742981210393,0.0017665072205650736,0.3761149499505495,9.964212814243329
3315000000.0,22.16,-0.03767416062282276,-0.06853441608488349,0.0010646508437165,0.1448950521878505,0.3081316492707165,9.920460471220204
3320000000.0,22.16,-0.04141741738496801,-0.044573397629847224,0.0014479321460432962,0.2676166710259667,0.23661668410386683,9.879846684103866
3325000000.0,22.16,-0.04426499131027406,-0.013745158171826193,0.0017566668830033252,0.2756613875048139,0.1486207895745079,9.815885741663458
3330000000.0,22.16,-0.033617721605510846,0.01765810495110442,0.0007026625371839468,0.25388163573741634,0.06847360595623606,9.79705092936251
3335000000.0,22.16,-0.016396550561983803,0.04191142884172088,0.0,0.1243905408865054,0.05228736477837365,9.813237364778374
3340000000.0,22.16,0.0005111309754704018,0.042098117253465454,0.0,0.06670735124507352,0.0651385297509853,9.813531470249016
3345000000.0,22.16,0.016592797704583082,0.04511735341082318,0.0,-0.03345281469872815,0.10585048475350485,9.809313494917836
3350000000.0,22.16,0.033979907010856056,0.026095986314323534,0.0,-0.10791,0.20208678083676782,9.82962
3355000000.0,22.16,0.0470695134431859,0.0003461105431644459,-0.0003087558170469454,-0.09937510449945104,0.3442342685038427,9.846689791001097
3360000000.0,22.16,0.05509864113915015,-0.023610271813280976,-0.0004684322054168522,-0.045517616832376165,0.5207155179036552,9.880239404208094
3365000000.0,22.16,0.04972798196927355,-0.04018672253249577,0.0013521136649692024,0.07102518433305183,0.6169513575276137,9.866996296083263
3370000000.0,22.16,0.03229753900219816,-0.03415002436627566,0.001852485364077419,0.18246665458206654,0.6619786690835868,9.906334658207447
3375000000.0,22.16,0.012522587861311652,-0.0157165973086959,0.0013308206691749593,0.23543947555739475,0.6278394755573948,9.962055131110652
3380000000.0,22.16,-0.008606688850418225,-0.005578777546144038,0.0018737783598716622,0.18599786260977863,0.5595621373902214,9.990896793914668
3385000000.0,22.16,-0.02580339662586644,-0.0046737672546496405,0.0008197740140522838,0.2113072685008727,0.5049199767547997,10.015322708253926
3390000000.0,22.16,-0.03821715414966722,0.0005961901801823106,0.0,0.18756693661326937,0.3916142781464428,9.949498265846684
3395000000.0,22.16,-0.0435547560110468,0.0020655228304632288,-0.00022358383386997312,0.16108033188760332,0.2597680086743801,9.94478900433719
3400000000.0,22.16,-0.04943115761965136,0.016825074447934588,-0.0008517135077436484,0.15499727354987272,0.15499760375447605,9.892403801877238
3405000000.0,22.16,-0.039771415308121186,0.02957218942516946,0.0,0.06680603386196034,0.09486223703372237,9.857676203171762
3410000000.0,22.16,-0.02424563539544018,0.036282724941263896,-0.0001916443401786085,0.04296720388357204,0.03924,9.808234133764842
3415000000.0,22.16,-0.00507824774638393,0.0515001427679968,-0.000883653001435013,-0.03943659799366598,0.050914364325943644,9.791851168338612
3420000000.0,22.16,0.014098870747253012,0.0532674487708669,-0.0001703513443843654,-0.10398666429396664,0.11575833214698332,9.75584899928819
3425000000.0,22.16,0.028869592236254904,0.05118866765429515,-0.0009049459972292561,-0.19669096568560965,0.165789399159094,9.78792783263258
3430000000.0,22.16,0.04318092161144149,0.03493534047284297,0.0,-0.26192733311817334,0.240542399225424,9.833740399870905
3435000000.0,22.16,0.05437474357641094,0.002882695786413839,0.0,-0.288805599350956,0.41153050081130504,9.864151466883014
3440000000.0,22.16,0.06114582875661978,-0.02910379410990472,0.0,-0.17814913227489132,0.5501454013608541,9.901821800453618
3445000000.0,22.16,0.053648628803218364,-0.041402475024538705,0.0,-0.10045332936013329,0.6332358345749585,9.928799166914992
3450000000.0,22.16,0.02844171810078644,-0.05624663841323789,0.0,0.04414533506055335,0.6778710670121108,9.943416402072664
3455000000.0,22.16,0.0044713878802088445,-0.04693835440374155,9.58258591045146e-05,0.08917296710922966,0.681402197344622,9.99639
3460000000.0,22.16,-0.01643973669673525,-0.06949274951023719,0.001149830204923893,0.10908814088888141,0.6247005311746053,9.997174867206349
3465000000.0,22.16,-0.03505642936470097,-0.07235663109445432,0.001980235960812457,0.24024737112427372,0.5803587923583879,10.00345293078613
3470000000.0,22.16,-0.04903026276430779,-0.07059987672909027,0.00019165909623945594,0.3123513436082134,0.4596953193888532,9.965782665198827
3475000000.0,22.16,-0.06657653035533909,-0.05672643484167515,0.0030342329286015095,0.439978297506883,0.27615035253900355,9.945868297506884
3480000000.0,22.16,-0.07632318204661956,-0.02067087137060611,0.0,0.4104501296207013,0.11340285645692857,9.913592856456928
3485000000.0,22.16,-0.06646897230474617,-0.004683793064938416,0.0,0.371896896924169,0.008043793848337939,9.80911689692417
3490000000.0,22.16,-0.04521813321130435,0.016328021929462637,-4.260074764932764e-05,0.34197612547656125,-0.04963880336718804,9.780373732210938
3495000000.0,22.16,-0.015805925403796047,0.03338403588297288,-0.002118647811505458,0.27428732845527326,-0.07848,9.770269160569091
3500000000.0,22.16,0.002129501015205678,0.06923732221802263,-0.0010646582217469207,0.23543870831728708,-0.0784793201669932,9.72171
3505000000.0,22.16,0.030604897112097577,0.08506466616508149,-0.002118662567566299,0.050912606472026056,0.018639680804196812,9.72171
3510000000.0,22.16,0.05490683230517856,0.08105096647107218,-0.0010859364614803223,-0.027860945420309445,0.11575868177538683,9.779393209065233
3515000000.0,22.16,0.06882209392302271,0.06958898817619132,-0.004162807027883265,-0.12458768274657683,0.2699722923945229,9.818633073098631
3520000000.0,22.16,0.07743054455034443,0.06208270581550567,-0.00017031445423226592,-0.12753,0.40652735720487354,9.866898341858883
3525000000.0,22.16,0.0767604457366059,0.055716101127031126,-0.001011425732261313,-0.17412784234447842,0.561133095502331,9.915457842344477
3530000000.0,22.16,0.07068613900200851,0.0333632010853301,-6.387160935230848e-05,-0.21346587426405875,0.6796376227921763,9.982460279962103
3535000000.0,22.16,0.05148934027745652,0.012138092190469619,0.00099013273646707,-0.24319010598940105,0.7961804239576042,10.013950105989402
3540000000.0,22.16,0.03830360422542544,-0.030507970734225925,8.516460514655156e-05,-0.2994016125615161,0.8585716125615162,10.11528795636278
3545000000.0,22.16,-0.007302277867052391,-0.0709180730557176,0.0009688397406728269,-0.04522210313622099,0.7382996359967964,9.945376622852567
3550000000.0,22.16,-0.04240475922159994,-0.06881130618854328,0.0010646508437165,0.0598416205904162,0.6553074483640745,10.05132696536287
3555000000.0,22.16,-0.060028094038030395,-0.0729102943072916,0.0029597443334737567,0.1559796905160969,0.48157158801941585,10.030136123793561
3560000000.0,22.16,-0.0899070219504865,-0.0603792113437402,0.0031939525311496,0.1495042617025426,0.2970454861741548,9.956757046810171
3565000000.0,22.16,-0.08911036537919352,-0.06229571798578713,0.0013414450329808313,0.18128907698339078,0.17226276904982768,9.90466615377076
3570000000.0,22.16,-0.07466926118328635,-0.05277762660125596,0.0010646508437165,0.2876300321156003,0.08946664525626644,9.8476699839422
3575000000.0,22.16,-0.060666674164992905,-0.029404253582285562,0.0010646508437165,0.28743286111982863,-0.02992140272111403,9.781060013919399
3580000000.0,22.16,-0.04694995677990777,0.002169329264899003,0.0001703365883235239,0.30921140861161406,-0.10673328676043288,9.746038591388386
3585000000.0,22.16,-0.022641094791217408,0.031326071715084995,-0.001767335514991709,0.21621156438811565,-0.15028947853729477,9.757614739268647
3590000000.0,22.16,0.00459634693779459,0.04058068827687613,-0.001256280427834267,0.12380157241701573,-0.08456157241701572,9.744861460537114
3595000000.0,22.16,0.03719198725907691,0.05190147062906014,-0.00020227608201488852,0.0681791508571915,0.026684037942740366,9.757222339657122
3600000000.0,22.16,0.0666787637660432,0.05944246919741058,0.0,0.0431638601486386,0.1746191188108912,9.784494209777042
3605000000.0,22.16,0.07917360631069444,0.05903784114506788,0.0,-0.022759760182397608,0.3377594903875949,9.7826300299772
3610000000.0,22.16,0.08677887087608886,0.04695099554438751,0.0,-0.07749935059959351,0.502861792038618,9.864740571319105
3615000000.0,22.16,0.08349964728535371,0.030551517563087556,0.0,-0.1260588510851885,0.6755178639066787,9.948910161736302
3620000000.0,22.16,0.06745264931643145,-0.0016995197695411392,0.0,-0.08515030780090307,0.7757753625132536,10.01169402188494
3625000000.0,22.16,0.03888134304008742,-0.016249068952058736,0.0,0.012263274524032738,0.8093251408225515,10.055250281645103
3630000000.0,22.16,0.0025168382472066583,-0.02205576401781005,0.0,0.024721058983210586,0.7706731769496318,10.057800529491605
3635000000.0,22.16,-0.02922697473386258,-0.027325785746907142,0.0,0.09123370605513706,0.6479494409172943,10.048088629394485
3640000000.0,22.16,-0.05032425608967087,-0.027229913511611394,0.0,0.09653018789210188,0.5446505636763056,10.010123646486836
3645000000.0,22.16,-0.06371175806833464,-0.03041327329908552,0.0,0.12311585399875853,0.401522096404221,9.975494487600745
3650000000.0,22.16,-0.07457276001841387,-0.01927528533095107,0.0,0.13734,0.25015393654693935,9.918890503721904
3655000000.0,22.16,-0.07629059499684847,-0.011636610607506473,0.0,0.11026411602404115,0.07063058012020582,9.87121411602404
3660000000.0,22.16,-0.06838541359852365,-0.0034068055467748144,0.0,0.07141651563556517,-0.050227839819978394,9.825695644544457
3665000000.0,22.16,-0.04642049564941676,0.0021399713734257964,0.0,0.05886,-0.10477108475291085,9.803427228811772
3670000000.0,22.16,-0.017593749311854704,0.012340276643221473,0.0,0.039435986143959864,-0.09829598614395986,9.748392629717227
3675000000.0,22.16,0.01539580510759497,0.01635983599663687,0.0,0.016676857235068572,-0.011771143410411439,9.73446314276493
3680000000.0,22.16,0.044744152899798675,0.025526596112576017,0.0,0.02236694295916943,0.117328600714186,9.735051528520415
3685000000.0,22.16,0.06305169100877829,0.0308923277602996,0.0,-0.044734458920444586,0.26565594522725944,9.756241486306815
3690000000.0,22.16,0.0694927431862111,0.020320045764918748,0.0,-0.08220772832617727,0.3967172600858726,9.81941817339058
3695000000.0,22.16,0.0657557486440171,-0.003694548733183485,0.0,-0.1084008588547086,0.549165091876951,9.897113374167533
3700000000.0,22.16,0.057738919917419085,-0.03600640011222987,0.0,0.001963581097335826,0.6768907186806072,9.945378215604183
3705000000.0,22.16,0.041130614076696825,-0.04252537697351534,0.0,0.11144188786071887,0.7450698598258987,9.9860898598259
3710000000.0,22.16,0.018979244054721504,-0.0453179248913507,0.0,0.19011859268528591,0.7594901279377013,10.017579744124598
3715000000.0,22.16,-0.009240714088960936,-0.039597881147072626,0.0,0.274582405115924,0.7050440505652406,10.020228227840581
3720000000.0,22.16,-0.03716242905494166,-0.0308923277602996,0.0,0.26565429420424297,0.6011559329215594,9.99952898323039
3725000000.0,22.16,-0.057313247614307755,-0.03206345939305256,0.0,0.27320900647559004,0.4684264146951642,9.981184427646344
3730000000.0,22.16,-0.07188706478036137,-0.024972758989021758,0.0,0.3094074724507747,0.30155802343528026,9.939687692844577
3735000000.0,22.16,-0.07946468993061398,-0.010771720594024193,0.0,0.32951811764368116,0.10663317649423176,9.887302509808425
3740000000.0,22.16,-0.07431323228644013,0.010698383178987234,0.0,0.3076410914849109,-0.041202726450127264,9.84845490941995
3745000000.0,22.16,-0.051331284705867807,0.0331920998946081,0.0,0.22965144532081444,-0.09329317274213172,9.809607309031474
3750000000.0,22.16,-0.021833871187043462,0.051129562857351235,0.0,0.1520544901252449,-0.0981,9.770759708642997
3755000000.0,22.16,0.005576889876196974,0.07220566715784327,0.0,0.08887816238178163,-0.06925816238178162,9.74152605412726
3760000000.0,22.16,0.031488706607259845,0.09592208185673462,0.0,-0.03060858763628587,-0.006277888765578887,9.73152
3765000000.0,22.16,0.05568579305927948,0.09864811938758349,0.0,-0.21052391635093914,0.09859159695911596,9.74996309252243
3770000000.0,22.16,0.07806069210689881,0.07706100637612517,0.0,-0.30862267322772674,0.27134613778226135,9.788810692910907
3775000000.0,22.16,0.0917720857678695,0.04724402295566581,0.0,-0.33599286662422867,0.4620523198472232,9.845316586598766
3780000000.0,22.16,0.08978102939844275,0.014318489814185535,0.0,-0.3198052657803527,0.6713983089710832,9.944594154485541
3785000000.0,22.16,0.07698708353942849,-0.011452701086859021,0.0,-0.3028353616717536,0.8775056027862561,10.066630482229005
3790000000.0,22.16,0.051066593976802924,-0.05392522737964335,0.0,-0.2954761693731617,0.8913353485245535,10.047204254059743
3795000000.0,22.16,-0.001264265167346814,-0.0968505105869835,0.0,-0.0951547886003479,0.7905878262866783,10.012185647979758
3800000000.0,22.16,-0.03578967357879751,-0.10524686070594663,0.0,0.11379666429396665,0.7887240738104407,10.078792966653829
3805000000.0,22.16,-0.05024035383615538,-0.1032063158259795,0.0,0.24328947815119478,0.6683528610505286,9.969608182647082
3810000000.0,22.16,-0.09219414131554375,-0.08504719384864703,0.0,0.37042574800935746,0.38886677189706775,9.953815118032752
3815000000.0,22.16,-0.10689027622157127,-0.05761109554037982,0.0,0.36444112949101126,0.20787293667662937,9.967351807185617
3820000000.0,22.16,-0.09250659083034497,-0.03959089562095873,0.0,0.347666696795667,0.04276981922599819,9.900251629005416
3825000000.0,22.16,-0.08506465718012637,-0.018429626715320155,0.0,0.36247927711189276,-0.1388121686643217,9.861992851407928
3830000000.0,22.16,-0.0636211006664093,0.0022358878769040543,0.0,0.330008102427381,-0.1962,9.809214307282144
3835000000.0,22.16,-0.02424292041847538,0.02332185572285181,0.0,0.30411,-0.1962,9.712095753058357
3840000000.0,22.16,0.0063085691184638585,0.05905320642042121,0.0,0.26016015577650153,-0.1553894303638943,9.67266
3845000000.0,22.16,0.04065023193286103,0.09212342968451359,0.0,0.12419355441683555,-0.02913472910134729,9.678742349369024
3850000000.0,22.16,0.07350121323895285,0.09959725434422373,0.0,-0.020602271287722716,0.10889227128772272,9.715824598253047
3855000000.0,22.16,0.09304973297180225,0.09282069651426995,0.0,-0.14871989951499898,0.2882194473324945,9.799209748787497
3860000000.0,22.16,0.1043881425617808,0.06442491638079427,0.0,-0.17383312502413123,0.4908937495656375,9.896328749758688
3865000000.0,22.16,0.09950125668241079,0.05148459824278956,0.0,-0.187960200583902,0.6895469269706693,9.972257550145976
3870000000.0,22.16,0.08213227956840774,0.026565054447214864,0.0,-0.24780067517010676,0.9364641785722418,10.017188102041281
3875000000.0,22.16,0.06231237242940668,-0.009586580465971214,0.0,-0.26977545160335453,1.0447636451899365,10.099394849465549
3880000000.0,22.16,0.018145890749761754,-0.05853948318173797,0.0,-0.23151336224793362,0.8652404927131049,10.068198672449586
3885000000.0,22.16,-0.04532112270597841,-0.09785103896831342,0.0,0.05650650553756506,0.7386937546146376,10.01601
3890000000.0,22.16,-0.04905929961642458,-0.08684282785979318,0.0,0.16657448002724481,0.7408486310081864,10.003060346648503
3895000000.0,22.16,-0.08137139961954527,-0.0945362516640257,0.0,0.25398158090131584,0.4188847303289473,9.961270351311404
3900000000.0,22.16,-0.12505610123457422,-0.0734958148014812,0.0,0.31784377274153774,0.1726554697302547,9.968921696988717
3905000000.0,22.16,-0.09795751975734986,-0.07086602020444009,0.0,0.3185316860492169,0.08789638640096387,9.922618193200483
3910000000.0,22.16,-0.08396813113698355,-0.05486107725081858,0.0,0.4165323721588237,-0.06572813920588139,9.850220620264706
3915000000.0,22.16,-0.0760302343422601,-0.027588695364136426,0.0,0.4024066562650666,-0.1830544479116445,9.793322239558222
3920000000.0,22.16,-0.03523300479481377,0.005581885355712154,0.0,0.44655097157610973,-0.16677,9.69777291472833
3925000000.0,22.16,0.0007480226509319677,0.04734677533391962,0.0,0.40858581385425813,-0.16971315247683152,9.625081576238415
3930000000.0,22.16,0.0218242112717716,0.0906142444906032,0.0,0.30195004428270045,-0.16166742596037426,9.644407810684278
3935000000.0,22.16,0.055154390383668435,0.1171814059788993,0.0,0.09133010637550107,0.006769893624498938,9.714450752865307
3940000000.0,22.16,0.08407473735253708,0.11794800441970067,0.0,-0.03845642447636424,0.14008825406568254,9.739760935708409
3945000000.0,22.16,0.10129208661086375,0.12017091368450175,0.0,-0.18953011952270118,0.33108941567229416,9.814219296149593
3950000000.0,22.16,0.11899128743331434,0.08948103548496503,0.0,-0.29528107672401077,0.591546299132463,9.935568613792087
3955000000.0,22.16,0.11467778050554794,0.058514414742377036,0.0,-0.3261844205282442,1.0020941887395418,10.030923350991635
3960000000.0,22.16,0.0953566431345583,0.029056237900347844,0.0,-0.5501448769182489,1.280790292515303,10.252624430943046
3965000000.0,22.16,0.031674295640635466,-0.05751832579279417,0.0,-0.5255179262469793,0.8721066895389669,9.93390099313831
3970000000.0,22.16,-0.08279461076752907,-0.11283643256349009,0.0,-0.06964984331269843,0.6101835422497355,10.018364708449946
3975000000.0,22.16,-0.04515958890276975,-0.09528545326201529,0.0,0.0721040404672404,0.7789115292926153,10.043966724179066
3980000000.0,22.16,-0.056335643810220666,-0.10370663178380873,0.0,0.1428346822941468,0.4677382488780825,9.837469546134496
3985000000.0,22.16,-0.128902410818048,-0.08687398643993681,0.0001597396286306619,0.27438562259615623,0.15696,10.024936867788469
3990000000.0,22.16,-0.09425209864104273,-0.07119610169141602,0.005238048507266658,0.26663649750866497,0.1536232824836328,9.994034669988446
3995000000.0,22.16,-0.06727856328907461,-0.06255079365524042,0.0010539959137846118,0.3534545327942453,-0.011577196765471967,9.877982756813427
4000000000.0,22.16,-0.08415943897331568,-0.033021410076598694,0.0,0.38259015539040153,-0.18638968921919688,9.809999611523997
4005000000.0,22.16,-0.041964707621003884,-0.005600018325526274,0.0,0.4020139555846396,-0.1475420888307209,9.7614401110384
4010000000.0,22.16,-0.003960545753765525,0.03642850134494496,-0.0010433662799570235,0.3829822442211224,-0.18560551155775512,9.616741831658418
4015000000.0,22.16,0.011264124417689512,0.07655744420586222,-0.004162810189896302,0.23033755221507551,-0.12929533208065333,9.670894667919347
4020000000.0,22.16,0.05671589438352672,0.08901467759465827,-0.002214456806540443,0.10320018491220187,0.04198820550618207,9.70091303425103
4025000000.0,22.16,0.08288152662681429,0.09959729861240617,-0.0031407284736987536,-0.060332829073528285,0.18884367271193675,9.748687890903978
4030000000.0,22.16,0.09316679912648372,0.07309206516672755,-0.0011923919544124311,-0.14244182622331825,0.3714080872803809,9.815690347945404
4035000000.0,22.16,0.10265283823885851,0.053544104885561876,-0.0010646508437165,-0.15627337837503377,0.638044594500946,9.920167162125372
4040000000.0,22.16,0.0935286187923209,0.02378160927376398,-8.516355114220574e-05,-0.16598527847215278,0.7745986201379862,9.954795835416459
4045000000.0,22.16,0.06262703600992699,-1.9909952026102296e-05,0.0,-0.12213410715364108,0.829435892846359,10.019640249984903
4050000000.0,22.16,0.03760117690399816,-0.02514167291338108,0.0,-0.10889092133360923,0.8956535506647355,10.04347815733278
4055000000.0,22.16,0.0048138680004373435,-0.05803543836387836,0.0028426433966488775,-0.011869233601392332,0.8850580424729805,10.01924706370947
4060000000.0,22.16,-0.02986845112653735,-0.06834296462750013,0.00038324862819208785,0.12949318290943182,0.7965712113937122,10.050541515442514
4065000000.0,22.16,-0.06652038290452317,-0.06460593741117139,0.001852509606177373,0.19835867374648675,0.6055696418872965,10.038180442084503
4070000000.0,22.16,-0.09518733902124596,-0.05658909076649952,0.00029808507704987,0.2566300743292007,0.36787302362833024,10.010319962835402
4075000000.0,22.16,-0.10631941824101779,-0.05177690322912206,0.0009049618072944435,0.22317710424007106,0.17510699611226996,9.972845683392057
4080000000.0,22.16,-0.09774741907536805,-0.04756088584584435,0.001958966153113822,0.26526287549462874,-0.017659584982095855,9.909276645256266
4085000000.0,22.16,-0.07818307320808476,-0.032726356350604835,0.0003619640644325992,0.2828223793462238,-0.09790427607734276,9.808723827191539
4090000000.0,22.16,-0.05535397474592923,-0.011479896489711035,0.0,0.30862283833002835,-0.16421995610339957,9.750158602783285
4095000000.0,22.16,-0.02525273530379987,0.025331862399266054,-0.0008623758157059573,0.31392,-0.20836471816184718,9.685706743216768
4100000000.0,22.16,0.008088132466167849,0.06369784766455373,-0.0010646508437165,0.19619880543628804,-0.1844276814496768,9.67266
4105000000.0,22.16,0.04100625571519442,0.0814732951959384,-0.0010646508437165,0.07377024318360245,-0.06033030397950305,9.6959099392041
4110000000.0,22.16,0.07287089792291992,0.08748152181922503,-0.0027255234877457636,-0.03512067815000678,0.10830383697273839,9.748001278990913
4115000000.0,22.16,0.08973865104571035,0.08759859008191516,-0.00073458305879711,-0.172166698934067,0.2755642587919426,9.82893401936044
4120000000.0,22.16,0.10644568447133745,0.05740216134746992,-0.0008091433262203496,-0.1985543199739432,0.50031200065142,9.84924
4125000000.0,22.16,0.10598942983472072,0.03675214884381887,-0.00026615401539327194,-0.1888424198768242,0.706321602463516,9.93753096147811
4130000000.0,22.16,0.08390403397070122,0.007797503294909049,0.0,-0.2009089604405896,0.9368570055073702,10.017776361542063
4135000000.0,22.16,0.058818791430548446,-0.01584426470820267,0.000777203832528985,-0.2131713803174138,1.0077813803174138,10.15021208507862
4140000000.0,22.16,0.00771733949113565,-0.0611965845950741,0.00029809350908463657,-0.14518719585467196,0.8621011112948112,9.980691587564015
4145000000.0,22.16,-0.03757534251449548,-0.07973086397208981,0.0007559108367347419,0.10516577637285775,0.7556637364184374,10.072419512791296
4150000000.0,22.16,-0.054225695767864256,-0.06455779109741092,0.0018099151825541203,0.1893329193912292,0.6533450326947504,10.05426795208598
4155000000.0,22.16,-0.08953124705976548,-0.05826066998667357,0.002129301687433,0.22023490352944905,0.374346694587967,9.968627135058771
4160000000.0,22.16,-0.11091575303184428,-0.042651465059821814,0.002129301687433,0.2220982383939824,0.16480678795486786,9.974023523212036
4165000000.0,22.16,-0.09542931362402582,-0.03372428144487319,0.0014159768422867443,0.18952887639948876,0.03227384829833849,9.933997752798977
4170000000.0,22.16,-0.0827756864823538,-0.02388681093349356,0.0017673291909656341,0.20895340498623405,-0.13282893894768938,9.836878509030285
4175000000.0,22.16,-0.0636536829818003,-0.006713250406665341,0.0028213335367850774,0.21287683781126837,-0.20257658109436583,9.787436837811269
4180000000.0,22.16,-0.027735730404515224,0.017045804038036086,0.00046841112532997184,0.20601,-0.20601,9.717785188085152
4185000000.0,22.16,0.009369567761719568,0.03938875832194228,-0.0017353896972742695,0.1503865684025657,-0.1503865684025657,9.68247
4190000000.0,22.16,0.041528620510885184,0.05216028255385303,-0.000809116976111704,0.0751440302999403,-0.02648577921415779,9.706799125542892
4195000000.0,22.16,0.07081313358388872,0.05734508803159064,-0.001298891715527053,-0.004807633345576337,0.1491136296568363,9.739662544448525
4200000000.0,22.16,0.08522447164306554,0.052202709390785314,-0.0008517029677001901,-0.045126081579960814,0.3315794684392947,9.786456489479765
4205000000.0,22.16,0.09112264623413198,0.044793132654536494,-0.0006281528619692834,-0.06641394503123946,0.5295455968957561,9.873667798447878
4210000000.0,22.16,0.09065410230425448,0.0302533597597378,-0.00044714447964433815,-0.07848,0.6863085812903859,9.946359408870993
4215000000.0,22.16,0.07020263539838446,0.01159076378565337,0.0006068598661750403,-0.07848,0.7693006912279069,10.000510691227907
4220000000.0,22.16,0.04214250647370202,-0.014233785031393928,0.00046843747543858123,-0.06199895409468954,0.8330657737790578,10.05878209181062
4225000000.0,22.16,0.013901289062364357,-0.03637539538781714,0.0,0.00490582065555821,0.8416976717377768,10.073888835868889
4230000000.0,22.16,-0.018406876843617376,-0.05123671755257607,0.0011498407449673513,0.08083489297604893,0.765767696210577,10.070357482162676
4235000000.0,22.16,-0.05271656854419287,-0.06141207236238247,0.002129301687433,0.15990382259793823,0.627740501583505,10.043673706441238
4240000000.0,22.16,-0.07921158006565943,-0.058931310817827195,0.0026829290641224844,0.21111128235691282,0.4524356352186564,9.995604870572349
4245000000.0,22.16,-0.09221924605757903,-0.0543320996145834,0.001565009894772616,0.22082318245403182,0.26790953337339535,9.95175408772984
4250000000.0,22.16,-0.09267692952667721,-0.048467694631606655,0.0005323343808951895,0.2452503302046033,0.11281392683503927,9.888479339590793
4255000000.0,22.16,-0.07851903294641234,-0.03425648091321212,2.127507772036407e-05,0.3081328438344284,-0.01344077442750774,9.82520508675865
4260000000.0,22.16,-0.060975413117970306,-0.005621704067530053,-0.0005536094586155536,0.35316,-0.12085994470849945,9.776645586273055
4265000000.0,22.16,-0.041313629352411264,0.02449392903073335,0.0,0.2793874745198747,-0.19443469705504696,9.737307651472475
4270000000.0,22.16,-0.008505005318964972,0.039481541235942934,0.0,0.15558585354335855,-0.17599048766410488,9.739760731758507
4275000000.0,22.16,0.030039186474078765,0.051085013670356685,-0.00143730567422879,0.10349541696325418,-0.03825750533857504,9.752120833926508
4280000000.0,22.16,0.06097571034719586,0.0678397503996225,-0.0017885863506121754,0.09378351686613517,0.10202483133864831,9.749962966267729
4285000000.0,22.16,0.07853921771711267,0.08462829516493973,-0.0009156177912306773,0.012359101842291012,0.23289089815770897,9.790478682616886
4290000000.0,22.16,0.08880172655662896,0.08545856917028512,-0.0016821392897147828,-0.09653056665620567,0.39946453324964537,9.833740283328103
4295000000.0,22.16,0.09286860232497317,0.077274921759016,-0.0006281349438954044,-0.16019838452788385,0.562899301653993,9.883674017677441
4300000000.0,22.16,0.08521730994271716,0.05432471024929631,-0.000851738803847948,-0.2511363340893633,0.765182088058521,9.982656751701068
4305000000.0,22.16,0.0685663271204575,0.019749145952487848,-0.0012988558793792949,-0.29380991809729917,0.9505898361945984,10.108323688769737
4310000000.0,22.16,0.03526108500839602,-0.008779791457162917,0.0008091528122594619,-0.30881846513368466,0.8836819536363195,10.098999837352899
4315000000.0,22.16,-0.024713361072370113,-0.04717745166105118,0.001341441870967781,-0.1973751884712519,0.6369623780493239,9.94910697339177
4320000000.0,22.16,-0.055006956048430075,-0.0608904034514626,0.0011498502310064995,-0.07377178737571788,0.5937017873757179,10.03563
4325000000.0,22.16,-0.048838085910031845,-0.07802700878893538,0.003566589443587966,-0.05248190384921904,0.5380760637698607,9.984126239880961
4330000000.0,22.16,-0.08080551856111887,-0.09574301341260505,0.003896612960324855,0.09868935694549356,0.30979870663428705,9.908492904630329
4335000000.0,22.16,-0.09099945671161278,-0.08450050135402654,0.0031939525311496,0.18285907361739073,0.2029683105847831,9.927915694786957
4340000000.0,22.16,-0.07098325710782553,-0.07951210322754877,0.0018311628561615612,0.2731114115915141,0.09417431401414314,9.86650500990495
4345000000.0,22.16,-0.06946070567011559,-0.05558277543478453,-0.00040454900201673967,0.3470776312071763,-0.05748710637847106,9.80460407801794
4350000000.0,22.16,-0.05166491542288762,-0.030780378952225906,0.0010646508437165,0.33648308449353087,-0.08632766202587663,9.764873831012938
4355000000.0,22.16,-0.018153821735052554,-0.0060151395613306695,0.0007558929186608629,0.3319700616374006,-0.05317003081870031,9.75114
4360000000.0,22.16,0.005669004188588377,0.013377149824439286,0.0,0.3205913081266131,-0.017264922497849222,9.748393115312231
4365000000.0,22.16,0.028012084953016082,0.045302125072467975,-0.000574929858522788,0.3417797217208972,0.06043027827910278,9.749276354354663
4370000000.0,22.16,0.05066975598418641,0.07895147567235723,-0.001575664824704455,0.23602698724186988,0.13047342441003426,9.77076
4375000000.0,22.16,0.05832464172643876,0.08788603603909838,0.0,0.07112156522961566,0.2011061897077619,9.790380679833007
4380000000.0,22.16,0.07171155652100933,0.08219648230791225,0.0,-0.03570933583869336,0.36061764182987643,9.853948970152489
4385000000.0,22.16,0.08433004671721626,0.06360098145132359,-0.0002448789376729078,-0.11546361482663615,0.5666266220803663,9.884654696213547
4390000000.0,22.16,0.0728491503575137,0.040282372372874485,-0.0010646508437165,-0.10791,0.6702197116228972,9.948321426352415
4395000000.0,22.16,0.05025060845178102,0.020252624458996026,-0.0010646508437165,-0.11615074147040742,0.7264309268380094,9.994820741470408
4400000000.0,22.16,0.026204169182148386,-0.004688344082916121,-0.0008517113997349567,-0.13930165814111659,0.7612558290705583,10.031706256394163
4405000000.0,22.16,0.0021896230300158925,-0.045332532337579466,0.0004045858921688433,-0.08181420213424202,0.7381040577526405,10.04779405775264
4410000000.0,22.16,-0.025040122272869128,-0.06719313758458924,0.002129301687433,0.04708885658958857,0.6868952577514525,10.014244114341041
4415000000.0,22.16,-0.05013754281379095,-0.07098316435544312,0.002129301687433,0.14587564331685643,0.5700576421466764,9.994525499707457
4420000000.0,22.16,-0.06911241371808798,-0.05965232821865827,0.001958948235039943,0.2323006282936063,0.398676597082866,9.934390628293606
4425000000.0,22.16,-0.08490501346589122,-0.036801111959110976,0.0010646508437165,0.21287682809936828,0.2006130388446304,9.913495242149052
4430000000.0,22.16,-0.08115489613762274,-0.03214849435566455,0.000915590387117686,0.19894697209486972,0.04375165347821654,9.884359541857695
4435000000.0,22.16,-0.06674576016998444,-0.01899782461352873,0.0001384139587016924,0.21582,-0.052876158433661585,9.855223841566339
4440000000.0,22.16,-0.04726051755347884,-0.008474461603487624,0.0008091159221073583,0.21817457248334574,-0.08201185872501858,9.816669851341599
4445000000.0,22.16,-0.023352417408239335,0.012024113490977139,-0.0011817718066239494,0.23436081366120814,-0.10683081366120814,9.720630813661208
4450000000.0,22.16,0.005964034104451185,0.05241777375936428,-0.0019163527574123443,0.2118947898972479,-0.08828913564089136,9.71288108643591
4455000000.0,22.16,0.033097941954183974,0.08319095365456321,-9.582796711320625e-05,0.0706302693394027,0.012361811462418115,9.72259298653303
4460000000.0,22.16,0.057186957729365974,0.08313620248304532,-0.0011498323129325847,-0.11340420641104207,0.14911329945223298,9.737014206411041
4465000000.0,22.16,0.07874082609601385,0.06965220877371188,-0.002054766716114037,-0.1786403601818036,0.2975389478180895,9.802937146909072
4470000000.0,22.16,0.09122900159665123,0.045792392308372946,-0.0011285393171383416,-0.20483262635122626,0.48088767601457677,9.844728181419482
4475000000.0,22.16,0.08437168294721666,0.027537587816526994,-0.00196957576085884,-0.18737117384301175,0.6440276299795763,9.93017293460753
4480000000.0,22.16,0.06719216631094521,0.0032782091029128135,0.0010646508437165,-0.20365507788825077,0.7655724870186249,9.978339948074499
4485000000.0,22.16,0.04283746441190567,-0.02120481246881462,0.0010646508437165,-0.14567806442128065,0.777345096925951,10.016304387115744
4490000000.0,22.16,0.01553951460875386,-0.05275701167583123,0.0010433483618831445,-0.09554826623278267,0.8528811383614113,10.025623712787137
4495000000.0,22.16,-0.006771695172264885,-0.07981575059654927,0.0,0.031197371579673717,0.822567190350272,10.01601
4500000000.0,22.16,-0.044733130537040325,-0.07136631390722674,0.0,0.20601,0.6768878148224783,10.016009562964495
4505000000.0,22.16,-0.08271184450607451,-0.049232222645018905,0.0,0.20601,0.43409031239450313,9.967450062478902
4510000000.0,22.16,-0.09770226836290975,-0.04481827167763111,0.0,0.20601,0.23936224797322248,9.986187775202678
4515000000.0,22.16,-0.09180391248309581,-0.03750374287616457,0.0,0.19649421230154213,0.05464003372930035,9.910453698412336
4520000000.0,22.16,-0.0793474403791763,-0.0331919354699302,0.0,0.23387075118230752,-0.045126877955768786,9.842176185430962
4525000000.0,22.16,-0.05656852904237616,-0.01581077537887518,0.0,0.2633987636780876,-0.0863283515707835,9.811471236321912
4530000000.0,22.16,-0.033363154674581355,0.0041097336930539345,0.0,0.24642702402037023,-0.15284041592870415,9.763892560050925
4535000000.0,22.16,-0.0042169712399318,0.023161913137908916,0.0,0.1448927310437273,-0.10221967147839672,9.733579835739198
4540000000.0,22.16,0.03412782432198741,0.029401864430893685,0.0,0.15539057636810574,0.028254034576740375,9.722494711815948
4545000000.0,22.16,0.05764179429816854,0.04242262094944329,0.0,0.13017843515648436,0.14636625937406256,9.730637188281172
4550000000.0,22.16,0.06827911199022603,0.04847482275932489,0.0,0.08338455810854557,0.2629090605394906,9.802152707026327
4555000000.0,22.16,0.0787282335432404,0.057536785071986535,0.0,0.04355604609836045,0.423106804081968,9.86238593085246
4560000000.0,22.16,0.0817749778662807,0.04639561331957727,0.0,-0.03845599715275999,0.5795762171604621,9.929290220007703
4565000000.0,22.16,0.06719519660799689,0.025281415729660223,0.0,-0.06611957733929577,0.6922926753661267,10.005808309357183
4570000000.0,22.16,0.049413248945417716,-0.0041925603956101225,0.0,-0.06867,0.7653768213673683,10.01601
4575000000.0,22.16,0.02333567385805558,-0.020296559403359636,0.0,0.031393066366630654,0.7666514111361142,10.049364355455543
4580000000.0,22.16,-0.006768666983221844,-0.027741019190977476,0.0,0.04905,0.7239775551949756,10.00580706623397
4585000000.0,22.16,-0.03381739230973421,-0.037599724727912294,0.0,0.11418911246499114,0.6265637203606372,10.020817167174371
4590000000.0,22.16,-0.05843873297977231,-0.03417139430438719,0.0,0.1436185783104858,0.46342279520562796,9.993642843379028
4595000000.0,22.16,-0.07493671986599344,-0.03560876005686369,0.0,0.14715,0.3045009719622097,9.954795242990553
4600000000.0,22.16,-0.0743509871886339,-0.03536385160706904,0.0,0.17854235739792357,0.16480674910726748,9.915947642602076
4605000000.0,22.16,-0.06760822768406854,-0.023375756900340466,0.0,0.2018899788931998,0.03659013719420137,9.869350052767
4610000000.0,22.16,-0.056908447759256686,-0.0011321459472222288,0.0,0.2442694477185945,-0.051405116349751166,9.77487921501909
4615000000.0,22.16,-0.03792284285742317,0.02558660540075746,0.0,0.16441452430994524,-0.12910031712670317,9.75114
4620000000.0,22.16,-0.011161466519694147,0.04085756678648813,0.0,0.07023879235838792,-0.09496017183430172,9.75114
4625000000.0,22.16,0.021306418988835615,0.0436681378848981,0.0,0.012262050824620507,0.009811078020910774,9.758497589835075
4630000000.0,22.16,0.04953687712381116,0.050771715941238506,0.0,0.014518979864389799,0.09731591945755919,9.768209489932195
4635000000.0,22.16,0.0611246306212167,0.06725713672846736,0.0,-0.0734780703810807,0.23230224046902243,9.799405560117256
4640000000.0,22.16,0.07051489025067817,0.05863311296231233,0.0,-0.17147961113789612,0.37356606177006063,9.85944303088503
4645000000.0,22.16,0.07728776625338558,0.04116046652083219,0.0,-0.2031651902235519,0.5234630435768305,9.91349595111776
4650000000.0,22.16,0.07509797788291743,0.013100137335324044,0.0,-0.24721254192402542,0.6857205354514053,9.962055451603355
4655000000.0,22.16,0.05586496132280424,-0.02032589503979031,0.0,-0.17010413415094133,0.7831329329245293,9.99030798083558
4660000000.0,22.16,0.026213154240900056,-0.03668410693668159,0.0,-0.08083376639563766,0.7977491094850911,10.009731781029817
4665000000.0,22.16,-0.0018576253976968701,-0.052261094561942424,0.0,-0.03914162816391628,0.7617460469398605,10.01601
4670000000.0,22.16,-0.028927692204203357,-0.06842821460699872,0.0,0.028842216382322174,0.680813092908531,10.01601
4675000000.0,22.16,-0.056349083955275776,-0.08457968605687773,0.0,0.14813227128772274,0.5581877287122773,9.996880227581203
4680000000.0,22.16,-0.08036354367905188,-0.08099710164809418,0.0,0.2715418908406189,0.40966414554584146,9.980301509096615
4685000000.0,22.16,-0.0884183799060327,-0.06690549769060643,0.0,0.3201003910005039,0.22955217998992178,9.964409217998993
4690000000.0,22.16,-0.08709819308670265,-0.04395131225620658,0.0,0.34805916439049167,0.04747876024278759,9.884162506828526
4695000000.0,22.16,-0.07588728095962853,-0.024578819594749994,0.0,0.30911227924732276,-0.06150933836319338,9.821477426415775
4700000000.0,22.16,-0.051340327700300975,-0.01086629096116526,0.0,0.2982243651674436,-0.11183436516744365,9.780569543540695
4705000000.0,22.16,-0.023067235089537022,0.008506429538017545,0.0,0.29076803444408034,-0.11595401722204018,9.74358602583306
4710000000.0,22.16,0.006206678915764919,0.025526606652619483,0.0,0.26330021702780215,-0.07377065108340652,9.7258301085139
4715000000.0,22.16,0.03374583056372344,0.05456985218697162,0.0,0.24946820841678208,-0.009907458917474583,9.72171
4720000000.0,22.16,0.05666685118118303,0.0837690119880507,0.0,0.12988247471292474,0.09103799184437991,9.754672150082023
4725000000.0,22.16,0.07249410553787247,0.0879924398858175,0.0,-0.003924734219647348,0.24966624377166244,9.818339142442191
4730000000.0,22.16,0.08524585001321185,0.07610145161891607,0.0,-0.09221491874574918,0.43419234561692344,9.8704299674983
4735000000.0,22.16,0.08935523272281859,0.060773087497751184,0.0,-0.13734,0.5927214876037149,9.91447695985847
4740000000.0,22.16,0.07627208457252713,0.03775677683552749,0.0,-0.14244129206881292,0.7286880889633809,9.957935168275252
4745000000.0,22.16,0.051916827299591184,0.012571231855189624,0.0,-0.14214680783406808,0.799613192165932,10.00678915299559
4750000000.0,22.16,0.021301422939121403,-0.012784817300162706,0.0,-0.16677055357830553,0.7749894464216944,10.0454401845261
4755000000.0,22.16,-0.006705416579840738,-0.048052796049900676,0.0,-0.10967413751694137,0.7503669923601699,10.05525
4760000000.0,22.16,-0.03192304123644787,-0.07077033874393092,0.0,0.04159560194475602,0.694154398055244,10.031705537713556
4765000000.0,22.16,-0.06089883327454788,-0.06792760048689092,0.0,0.1586287180984872,0.5356241489118415,10.010810792554409
4770000000.0,22.16,-0.08356371283150567,-0.053536038262006924,0.0,0.22033269265152694,0.3458988396209884,9.95734499553015
4775000000.0,22.16,-0.09017502360094047,-0.035416942859972315,0.0,0.23445918549729186,0.17461651602166517,9.86640703625677
4780000000.0,22.16,-0.08560764122093173,-0.01678845937368638,0.0,0.24956649284576493,0.0062766359304663455,9.835113507154235
4785000000.0,22.16,-0.07469801056867686,0.010398820094105607,0.0,0.20022089174250893,-0.14872071531460718,9.804309642342696
4790000000.0,22.16,-0.04932055669306964,0.034746474885531405,0.0,0.10692853479998535,-0.22406058608000587,9.77076
4795000000.0,22.16,-0.013722676691098877,0.04940329738195974,0.0,0.038258068628780686,-0.19924026176590262,9.754671227451512
4800000000.0,22.16,0.023436686265200783,0.05816478194131266,0.0,-0.07063321204513212,-0.10006088118910882,9.739368186468482
4805000000.0,22.16,0.06022669921297517,0.05225597982442733,0.0,-0.16627996665679967,0.05856784662127848,9.754965993331359
4810000000.0,22.16,0.08464968829114687,0.036049101836951244,0.0,-0.2073836802854368,0.2819415488550155,9.779589467142394
4815000000.0,22.16,0.09665879773652244,0.00545076871834424,0.0,-0.1857022712184227,0.49442587051195874,9.824519174102392
4820000000.0,22.16,0.09340082392740341,-0.019851618933196175,0.0,-0.11065661275456613,0.6957272596997727,9.870430161736301
4825000000.0,22.16,0.07664764532757837,-0.04516500199262974,0.0,-0.03629531304295313,0.8578851560388516,9.935568749758687
4830000000.0,22.16,0.045510428711597696,-0.05997469817787118,0.0,0.11850592580345926,0.899184506183045,10.00659296290173
4835000000.0,22.16,0.002624587556391335,-0.05892081609655588,0.0,0.21562436348444364,0.8570986669451867,10.06162696957037
4840000000.0,22.16,-0.033027469737649105,-0.06084767095327004,0.0,0.28331364610073645,0.7596856479104565,10.088211411977614
4845000000.0,22.16,-0.05707908263081009,-0.05135622115278289,0.0,0.3585559705415597,0.6454961178337612,10.05662283535013
4850000000.0,22.16,-0.07861164082657651,-0.03450657731062693,0.0,0.3982861884108619,0.4247702680425027,9.998351434767415
4855000000.0,22.16,-0.09985279137384155,-0.004780087835025522,0.0,0.3721900797643008,0.16304012534390125,9.9457700227898
4860000000.0,22.16,-0.09961834286317482,0.012269757013769781,0.0,0.26643931680099314,-0.03688720479437204,9.893187950402979
4865000000.0,22.16,-0.08016236692356962,0.02550542011126412,0.0,0.21876205503212054,-0.1755015614775156,9.811078438522484
4870000000.0,22.16,-0.05102678466463037,0.045653039404586725,0.0,0.13694722162437223,-0.23328208378172083,9.748196527030466
4875000000.0,22.16,-0.014651699776126202,0.059926095843082935,0.0,0.07357367432563675,-0.24279702654487026,9.7119
4880000000.0,22.16,0.02117401731282511,0.07721827360429948,0.0,-0.060038432245884316,-0.17304707296597072,9.709545505211855
4885000000.0,22.16,0.05848856125984477,0.0763837079697181,0.0,-0.17275476419684763,-0.012260127868401277,9.704346394885263
4890000000.0,22.16,0.0889548029252942,0.06043901539481318,0.0,-0.23210488494714884,0.2326956695419567,9.733482949823829
4895000000.0,22.16,0.10905808908523443,0.02742828919006897,0.0,-0.24681921968199222,0.474904096669541,9.82030097539751
4900000000.0,22.16,0.1037631802400813,-3.800705113536987e-06,0.0,-0.20600952411689524,0.6729677131791771,9.868860475883105
4905000000.0,22.16,0.0884254929839511,-0.029820563838664604,0.0,-0.14813004726260048,0.8328699527373996,9.928603948011139
4910000000.0,22.16,0.06416600043786759,-0.051777144596117264,0.0,-0.04218156943711569,0.9229253722251537,10.023073581483436
4915000000.0,22.16,0.02842957156463887,-0.06905621042232048,0.0,0.10182913655169136,0.9561798407881984,10.065256772807867
4920000000.0,22.16,-0.016912686762189787,-0.06715043354451404,0.0,0.22523817339058175,0.849936393132964,10.10940091330471
4925000000.0,22.16,-0.0600309008688821,-0.061944363529099496,0.0,0.2879243609599436,0.6533444694045448,10.075850426026705
4930000000.0,22.16,-0.08867406238825026,-0.05956750949972478,0.0,0.36434349575933495,0.488339597535296,10.018952521203325
4935000000.0,22.16,-0.10415625089286952,-0.03733330931944125,0.0,0.3702292082870921,0.2687920828709208,9.966566833148368
4940000000.0,22.16,-0.10947331304326564,-0.018580379159911706,0.0,0.3484508161857081,0.06631300925353009,9.890048928324989
4945000000.0,22.16,-0.10443533389576767,0.01927718511330878,0.0,0.29881125529031255,-0.1829579407603794,9.817748843442388
4950000000.0,22.16,-0.07446753503235858,0.038879111108130686,0.0,0.16775013466970135,-0.31686328844343287,9.72171
4955000000.0,22.16,-0.03122037030178662,0.05480071310874779,0.0,0.08210902628549026,-0.3354030337956303,9.72171
4960000000.0,22.16,0.011414808974033939,0.07098471889090187,0.0,0.010986140237461401,-0.2448563475533635,9.718570414631804
4965000000.0,22.16,0.04719492136839286,0.07846262028391277,0.0,-0.0958447608308476,-0.11310727477747275,9.683843592878336
4970000000.0,22.16,0.08175501682096196,0.0721541347255312,0.0,-0.19678869653628697,0.0937861099434611,9.705033482681435
4975000000.0,22.16,0.11153890333000695,0.05028538577441906,0.0,-0.20650059663340598,0.34727670573536706,9.756045966334058
4980000000.0,22.16,0.1249744716908885,0.03353252538023391,0.0,-0.21425001307790015,0.6141074509578744,9.851987477113674
4985000000.0,22.16,0.10680027377103496,0.01954239480992324,0.0,-0.17628560317235603,0.7662626826228268,9.921442761931727
4990000000.0,22.16,0.08062461818832124,-0.0037481937012222755,0.0,-0.16892926617239265,1.117554812300948,10.040537423119074
4995000000.0,22.16,0.06301824190440353,-0.03137224387870573,0.0,-0.2721268774310688,1.0756631042341311,10.277344907212251
5000000000.0,22.16,-0.02556947423615591,-0.07883638511923124,0.0,-0.019618251857982518,0.7357499028809991,9.927722136618023
5005000000.0,22.16,-0.06563891813706137,-0.06511704986381125,0.0,0.1551959498901595,0.7260380027838801,10.141383938754641
5010000000.0,22.16,-0.056652943403773574,-0.06810871321564614,0.0,0.14734610268676102,0.5913454376146544,10.057014924180848
5015000000.0,22.16,-0.10916407742961742,-0.07023800436303569,0.0,0.17569739223107392,0.25554709063747083,9.998155215537851
5020000000.0,22.16,-0.10977142552442852,-0.0784952207420015,0.0,0.2142507900299079,0.18874381495513814,9.96813690747757
5025000000.0,22.16,-0.08038083133738066,-0.07376279703966641,0.0,0.3276551712551517,0.03727643832646438,9.864444426349444
5030000000.0,22.16,-0.08884434627635646,-0.045457501434124636,0.0,0.38886898621028987,-0.1642214517360145,9.76683502298285
5035000000.0,22.16,-0.0686739451456255,-0.012957693295972943,0.0,0.410646795597668,-0.24956718239067183,9.71533301100583
5040000000.0,22.16,-0.018101325303454256,0.016795251982447423,0.0,0.30371642524856424,-0.18285761683237617,9.7119
5045000000.0,22.16,0.01427186588011195,0.02499422589553306,0.0,0.2496640100346401,-0.10516241605542416,9.7119
5050000000.0,22.16,0.04868805628779767,0.046665102584853436,0.0,0.30705368663133686,0.025507373262673744,9.747216392360764
5055000000.0,22.16,0.07020624615809182,0.07269759306829221,0.0,0.17422402900304026,0.14401197824771977,9.768601996374619
5060000000.0,22.16,0.08275246052898311,0.07281440626193063,0.0,0.1051626102934261,0.3037192708352927,9.796658694853287
5065000000.0,22.16,0.09249608873104326,0.08263517451936235,0.0,0.08103040323690403,0.47735637086786376,9.868468387052383
5070000000.0,22.16,0.08916358205861394,0.08141294529156565,0.0,-0.014323683265336826,0.6352971756586718,9.946163587829336
5075000000.0,22.16,0.07120923004125113,0.07009142154235753,0.0,-0.12115458433364583,0.6989629928789299,9.99884299287893
5080000000.0,22.16,0.052074847069589585,0.0422226945368541,0.0,-0.19502349071033492,0.8052059840748599,10.02268099734581
5085000000.0,22.16,0.03397195335583245,0.012522960667832324,0.0,-0.18972520245995203,0.848467196310072,10.099101588930216
5090000000.0,22.16,-0.0022969121367129967,-0.017879464196490637,0.0,-0.194434298867143,0.7408498158599982,10.001489815859998
5095000000.0,22.16,-0.04755476092291824,-0.04587573521387725,0.0,-0.04522221967902221,0.6048832145003322,10.072124387571144
5100000000.0,22.16,-0.062423521282739425,-0.04943468423179866,0.0,-0.03335429718414297,0.5081571084475711,9.953224216895142
5105000000.0,22.16,-0.0748618495485049,-0.06835379873817082,0.0,-0.008240003366000032,0.3355000168300002,9.910160000841499
5110000000.0,22.16,-0.08275450204900717,-0.06851318422134126,0.0,0.10712658957866589,0.2024772089325721,9.915751899255618
5115000000.0,22.16,-0.07266925026939773,-0.057270406553667566,0.0,0.16755519741095196,0.07082680906166808,9.865033404530834
5120000000.0,22.16,-0.0643823388212406,-0.04299079885612674,0.0,0.21385849724928496,-0.05022839339828393,9.782138704951286
5125000000.0,22.16,-0.044470740682183686,-0.026633551528720732,0.0,0.22563,-0.09319519909395199,9.790380398187905
5130000000.0,22.16,-0.01312069002265602,-0.012907976135604477,0.0,0.21837050035590502,-0.07632150106771501,9.807449499644095
5135000000.0,22.16,0.006622279792661737,0.0059622612173052415,0.0,0.244465598964856,-0.018540201811502018,9.781354401035143
5140000000.0,22.16,0.025990263838217054,0.030121152452495917,0.0,0.262123299838333,0.04237979902999799,9.784886599676666
5145000000.0,22.16,0.04557580362488604,0.059970013180390296,0.0,0.146461601097316,0.170303198967232,9.797345199935453
5150000000.0,22.16,0.06827927536089967,0.06029401406445891,0.0,0.029428999674289996,0.32569360052113605,9.841392600195427
5155000000.0,22.16,0.0771063993367955,0.05866526114886414,0.0,0.020307000389070004,0.47431500194535003,9.86581900012969
5160000000.0,22.16,0.07052026854111594,0.0582074069310619,0.0,-0.03060810204128103,0.579968102041281,9.902214501134043
5165000000.0,22.16,0.04926304202582962,0.04681445396393047,0.0,-0.09172400161964002,0.614792800323928,9.98363800323928
5170000000.0,22.16,0.03204201989065426,0.025377185726534413,0.0,-0.15970760336837603,0.6504035021052351,10.003060599157905
5175000000.0,22.16,0.017306521049765884,-0.010652181140390873,0.0,-0.12900059533650596,0.6862098015544981,9.99639
5180000000.0,22.16,-0.0019165899083902014,-0.03170156067688934,0.0,-0.05415049569300495,0.65883899630829,9.99639
5185000000.0,22.16,-0.023678413539813325,-0.04522304131213134,0.0,0.007652404274424044,0.6067479964379799,9.990209599287596
5190000000.0,22.16,-0.04384950017078057,-0.04518647568969363,0.0,0.07200610566666106,0.5095300894762009,9.962250796761909
5195000000.0,22.16,-0.05633373080961173,-0.04348718009478172,0.0,0.10408420090664201,0.3653227854937278,9.929387397280074
5200000000.0,22.16,-0.06412696410829195,-0.047298466755326146,0.0,0.12556830301128302,0.22170458594734585,9.900251696988716
5205000000.0,22.16,-0.06647975476920392,-0.045857772923652076,0.0,0.15470400330264003,0.10888998899119989,9.88848
5210000000.0,22.16,-0.05863315723049487,-0.040580595524493716,0.0,0.18383970359399704,0.01746088921800889,9.854340592812006
5215000000.0,22.16,-0.03929967480768669,-0.028028230105191558,0.0,0.21856720518047207,-0.0028445961146459607,9.818436397409764
5220000000.0,22.16,-0.014444080617785897,-0.006523089344340264,0.0,0.2793896111378961,0.0043162986077629854,9.804506298607764
5225000000.0,22.16,0.00441844418791403,0.02887169945012359,0.0,0.2761507895745079,0.02158240595742406,9.784003195531932
5230000000.0,22.16,0.021004538044724963,0.05648283764240179,0.0,0.16048997461639974,0.07632251110532512,9.78135500317295
5235000000.0,22.16,0.038301067081456225,0.06115647841652996,0.0,0.041495384847653846,0.15990401683594016,9.800778803367189
5240000000.0,22.16,0.05356570565062515,0.05411905898618465,0.0,-0.010202603561426035,0.27742822492998226,9.840607810684277
5245000000.0,22.16,0.06343491961088782,0.04139818222034702,0.0,-0.02462320187783202,0.4033884225339842,9.863856798122168
5250000000.0,22.16,0.06178456698423415,0.0255688964689868,0.0,-0.0539555098747551,0.5150261217244613,9.898290815799609
5255000000.0,22.16,0.051257219958717126,0.008174584649934827,0.0,-0.04483098549550985,0.6170500207207003,9.956758008288281
5260000000.0,22.16,0.03604504934575042,-0.00924972449565315,0.0,-0.02393670650756706,0.6812067065075671,9.972061097830812
5265000000.0,22.16,0.017117978246965516,-0.033136630721506896,0.0,-0.016185988668459887,0.7057316045326161,9.976181604532616
5270000000.0,22.16,-0.005374135569947975,-0.05203249822897892,0.0,0.10006404726854047,0.6755156787291569,9.98658
5275000000.0,22.16,-0.03308303862647298,-0.04953320545647562,0.0,0.21925380738163808,0.5572063606312636,9.968921590157816
5280000000.0,22.16,-0.057100358762534845,-0.04179430787881341,0.0,0.23544,0.41908196930801966,9.93007398976934
5285000000.0,22.16,-0.0651276368882173,-0.03483142447379143,0.0,0.24387680530956807,0.2898839601782396,9.912318402654783
5290000000.0,22.05079727670797,-0.06570261523094001,-0.020259569898387262,0.0,0.259180302751903,0.15244606422526064,9.909669394496193
5295000000.0,21.9,-0.06424389851243024,-0.0010964006166256715,0.0,0.2528033914529339,0.034235768660757684,9.87817898575489
5300000000.0,21.9,-0.04964041978070045,0.02108736986179407,0.0,0.21974358821543588,-0.05689872062298722,9.833543588215436
5305000000.0,21.9,-0.02665859973465399,0.04541051583833033,0.0,0.1464619604376196,-0.09044799391347993,9.77556597261066
5310000000.0,21.9,-0.0007809069644860809,0.06010260792926246,0.0,0.05003048429810484,-0.05984048429810484,9.729165806280758
5315000000.0,21.9,0.027694489132405714,0.06367966679801748,0.0,-0.02756744208747442,0.01775744208747442,9.744959803237498
5320000000.0,21.9,0.05501374530511177,0.05274993113381745,0.0,-0.12203681333846814,0.15813895668848957,9.747608296665382
5325000000.0,21.9,0.07509901215491957,0.03972890731285435,0.0,-0.15058360343173605,0.32324125833951256,9.779099637749097
5330000000.0,21.9,0.08058250475353361,0.028927143776368333,0.0,-0.16363100705771005,0.48167255293282557,9.872588524701985
5335000000.0,21.9,0.07109053722956758,0.0053763180673729784,0.0,-0.14420596374025962,0.6079266326337663,9.924384807251947
5340000000.0,21.9,0.05104717589923105,-0.008048850432628343,0.0,-0.08161930372309303,0.6921944297847443,9.959505126061652
5345000000.0,21.9,0.030679172245427114,-0.02408292627371335,0.0,-0.08220759235957592,0.742518796179788,10.000117592359578
5350000000.0,21.9,0.010552068749284467,-0.049434795956259325,0.0,-0.02746654515736545,0.7416362078346621,9.992466207834662
5355000000.0,21.9,-0.010470884220056513,-0.05663179059055734,0.0,0.0971200401445004,0.7212299518265995,10.009045004014451
5360000000.0,21.9,-0.04133118859828615,-0.05697233201666115,0.0,0.1859983287809833,0.5909526301033263,10.010516191776862
5365000000.0,21.9,-0.07220181167906133,-0.048631448478985324,0.0,0.2221959789565598,0.41790391582623915,9.999038804208688
5370000000.0,21.9,-0.08392558730556893,-0.04390232711049568,0.0,0.21189704305807044,0.2287673224954732,9.983243661247737
5375000000.0,21.9,-0.08522438205269618,-0.034613947610216175,0.0,0.28449,0.07357395597073957,9.900741769179517
5380000000.0,21.9,-0.07614915236529834,-0.01179624061968516,0.0,0.2774264864998649,-0.02825405400054054,9.837467477499775
5385000000.0,21.9,-0.050175606331912925,0.0015374295038741576,0.0,0.24603438161134383,-0.11772,9.782138763222688
5390000000.0,21.9,-0.01900666629313187,0.027549471819198645,0.0,0.19855356244573563,-0.10692847652858477,9.723868304694284
5395000000.0,21.9,0.009181205850255147,0.04036084149316869,0.0,0.11673795208597951,-0.04806795208597951,9.737700614374205
5400000000.0,21.9,0.03153481401008895,0.04922184386422565,0.0,0.0313915804459158,0.04708894399668945,9.76095
5405000000.0,21.9,0.04950937941177819,0.05473668972276965,0.0,-0.0037280099712800998,0.13449604487076045,9.7702700249282
5410000000.0,21.9,0.06263649023884268,0.05550315852103651,0.0,-0.03374724066207241,0.23603038640690388,9.815297715248278
5415000000.0,21.9,0.07317950094389422,0.048420148962093276,0.0,-0.10143561035975611,0.404468298417683,9.84776902589939
5420000000.0,21.9,0.08134905260212638,0.031059604971418634,0.0,-0.11928970527699706,0.587424694985947,9.894758821107988
5425000000.0,21.9,0.0745750720374221,0.006707094468365421,0.0,-0.11870036775530368,0.7445796322446964,9.940964448367046
5430000000.0,21.9,0.05183801815058353,-0.01271461509880666,0.0,-0.06592298905752988,0.8001040218849402,10.01601
5435000000.0,21.9,0.019285020737124417,-0.03528123332091315,0.0,-0.031194322043043225,0.8261975665898758,10.021111622273416
5440000000.0,21.9,-0.013632178668453593,-0.05739828257691974,0.0,0.09299922266189223,0.754975803686958,10.054072694334526
5445000000.0,21.9,-0.053246362359924415,-0.05704701665659723,0.0,0.1350844403381444,0.590952707798527,10.04112317694963
5450000000.0,21.9,-0.07136837351811222,-0.06050693664437092,0.0,0.20404884687768848,0.434581200384912,9.999332258982024
5455000000.0,21.9,-0.08058250369952928,-0.04824063381018743,0.0,0.26849895830218956,0.27477693447486934,9.93576398808634
5460000000.0,21.9,-0.07602435555526682,-0.04004826746762459,0.0,0.21307415448554154,0.16480640919076409,9.913200563676305
5465000000.0,21.9,-0.06735265271029427,-0.03336081931196868,0.0,0.29155277539572777,0.023248744640387446,9.854242356942523
5470000000.0,21.9,-0.05575755751969978,-0.008559608290560237,0.0,0.25800353124093534,-0.06415835623368357,9.789202587503626
5475000000.0,21.9,-0.04361466297441292,0.00937108862087543,0.0,0.30018514923755146,-0.14813121269061214,9.768797574618775
5480000000.0,21.9,-0.020883507192221082,0.04641125906375919,0.0,0.2232749613454496,-0.1644149613454496,9.731127493557574
5485000000.0,21.9,0.01592859419633212,0.061647110009642216,0.0,0.1632371215254712,-0.10437712152547123,9.722298813079089
5490000000.0,21.9,0.04962702775699127,0.09154841866765615,0.0,0.04551648054006481,0.013736132733261327,9.741918919909988
5495000000.0,21.9,0.08008236071936414,0.08819438525237049,0.0,-0.12841386060403862,0.20817054814320549,9.771447447136474
5500000000.0,21.9,0.0980002490935294,0.06604280653753469,0.0,-0.21582053415450536,0.4218325639416256,9.839430747816307
5505000000.0,21.9,0.09905425343934877,0.024919358290809754,0.0,-0.26438003464010035,0.6549181662724817,9.90741404849614
5510000000.0,21.9,0.07924086894576615,-0.0036836566522737597,0.0,-0.15911702272347023,0.7341812562011126,9.956169535125696
5515000000.0,21.9,0.04887062705013837,-0.031126329805092612,0.0,-0.10938096438870964,0.8023606498558066,9.966665807122258
5520000000.0,21.9,0.020331375153959354,-0.0503711099867582,0.0,0.05219102272941023,0.8232554144387543,10.00463082887751
5525000000.0,21.9,-0.008144020942932352,-0.03797297693698598,0.0,0.08681882194948821,0.7867615707340158,10.024839214632992
5530000000.0,21.9,-0.03461785013906099,-0.045302906711723566,0.0,0.13439753706807536,0.6741419110366192,10.02582
5535000000.0,21.9,-0.06296551144928295,-0.041838113301593725,0.0,0.18295703755367038,0.5211054798282548,10.016696592489266
5540000000.0,21.9,-0.0836049839094759,-0.05134979796390565,0.0,0.15931407717644075,0.3476644630586446,9.997959384784293
5545000000.0,21.9,-0.09781939881185628,-0.054140485840530814,0.0,0.21052324622983248,0.11928701508067019,9.942826753770168
5550000000.0,21.9,-0.0933157035904393,-0.048582914861824686,0.0,0.24230732340627323,-0.016678401427184006,9.884555353187453
5555000000.0,21.9,-0.07560553236246104,-0.0346629474774304,0.0,0.3238290710928907,-0.142933102689731,9.80009092890711
5560000000.0,21.9,-0.04913629876351025,0.013854311881326069,0.0,0.35080581599265814,-0.19149163198531632,9.755848368014684
5565000000.0,21.9,-0.010586721077374378,0.05916383841421301,0.0,0.2678119190655192,-0.1962,9.725535575719656
5570000000.0,21.9,0.0212444883544043,0.09520879649355438,0.0,0.08632583618865836,-0.13714304266603045,9.713273291809433
5575000000.0,21.9,0.05544775302016504,0.10103450415622216,0.0,-0.09123494917834951,-0.01912809226008093,9.761931649726115
5580000000.0,21.9,0.07324046327662824,0.09314532378793762,0.0,-0.22484660900246606,0.14832915092649152,9.779000508384806
5585000000.0,21.9,0.09154569843794844,0.05625096707085611,0.0,-0.31853167633731677,0.37199780356617806,9.853851676337317
5590000000.0,21.9,0.10004443782202885,0.01667827901211738,0.0,-0.28527414852574146,0.5809504801599049,9.901037234316172
5595000000.0,21.9,0.09601991616431699,-0.02061554398700759,0.0,-0.19521791323837911,0.7769541735232419,9.923992417352325
5600000000.0,21.9,0.07435074262506812,-0.04474698765312614,0.0,-0.05101025962750258,0.9084073052793731,9.99050487018625
5605000000.0,21.9,0.03810324180061231,-0.054055361287549446,0.0,0.03463006209280063,0.9939500709632006,10.0139500088704
5610000000.0,21.9,-0.0050643951746119145,-0.06536202426663196,0.0,0.13322099864270998,0.9186070923897709,10.046617635870076
5615000000.0,21.9,-0.051002881660336924,-0.062434009679984706,0.0,0.20228285438782856,0.7491876277718762,10.047696190935362
5620000000.0,21.9,-0.08364487539942994,-0.06395659062981633,0.0,0.24564283664702838,0.5497501076031011,10.052895709161756
5625000000.0,21.9,-0.10333677160262254,-0.05779210813872218,0.0,0.2992056555532565,0.33844259630472595,10.011104344446743
5630000000.0,21.9,-0.1099631088627679,-0.05303318998098242,0.0,0.2994009812880098,0.11026177545611776,9.98187098128801
5635000000.0,21.9,-0.0998998618947401,-0.03586870994349603,0.0,0.34442986617179866,-0.06553255124982552,9.869348858203288
