#timestamp [ns], temperature [degC], w_RS_S_x [rad s^-1], w_RS_S_y [rad s^-1], w_RS_S_z [rad s^-1], a_RS_S_x [m s^-2], a_RS_S_y [m s^-2], a_RS_S_z [m s^-2]
0,22.16,0.0,0.0,0.0,-0.2943,-1.6186500000000001,9.66285
5050505,22.16,0.0,0.0,0.0,-0.2943,-1.6284600000000002,9.69228
10101010,22.16,0.0,0.0,0.0,-0.31392000000000003,-1.6186500000000001,9.7119
15151515,22.16,0.0,0.0,0.0,-0.28449,-1.6186500000000001,9.70209
20202020,22.16,0.0,0.0,0.0,-0.27468000000000004,-1.6284600000000002,9.69228
25252525,22.16,0.0,0.0,0.0,-0.2943,-1.6186500000000001,9.69228
30303030,22.16,0.0,0.0,0.0,-0.30411,-1.6186500000000001,9.66285
35353535,22.16,0.0,0.0,0.0,-0.27468000000000004,-1.6284600000000002,9.69228
40404040,22.16,0.0,0.0,0.0,-0.30411,-1.6284600000000002,9.69228
45454545,22.16,0.0,0.0,0.0,-0.31392000000000003,-1.60884,9.68247
50505050,22.16,0.0,0.0,0.0,-0.28449,-1.60884,9.69228
55555555,22.16,0.0,0.0,0.0,-0.27468000000000004,-1.6284600000000002,9.67266
60606060,22.16,0.0,0.0,0.0,-0.2943,-1.60884,9.73152
65656565,22.16,0.0,0.0,0.0,-0.27468000000000004,-1.5990300000000002,9.66285
70707070,22.16,0.0,0.0,0.0,-0.26487,-1.6480800000000002,9.68247
75757575,22.16,0.0,0.0,0.0,-0.30411,-1.6186500000000001,9.73152
80808080,22.16,0.0,0.0,0.0,-0.2943,-1.6382700000000001,9.69228
85858585,22.16,0.0,0.0,0.0,-0.32373,-1.6284600000000002,9.70209
90909090,22.16,0.0,0.0,0.0,-0.26487,-1.60884,9.70209
95959595,22.16,0.0,0.0,0.0,-0.30411,-1.6382700000000001,9.69228
101010100,22.16,0.0,0.0,0.0,-0.28449,-1.6382700000000001,9.68247
106060605,22.16,0.0,0.0,0.0,-0.31392000000000003,-1.6284600000000002,9.69228
111111110,22.16,0.0,0.0,0.0,-0.26487,-1.5990300000000002,9.69228
116161615,22.16,0.0,0.0,0.0,-0.27468000000000004,-1.6382700000000001,9.66285
121212120,22.16,0.0,0.0,0.0,-0.31392000000000003,-1.6382700000000001,9.69228
126262625,22.16,0.0,0.0,0.0,-0.30411,-1.5794100000000002,9.7119
131313130,22.16,0.0,0.0,0.0,-0.2943,-1.60884,9.68247
136363635,22.16,0.0,0.0,0.0,-0.28449,-1.6284600000000002,9.68247
141414140,22.16,0.0,0.0,0.0,-0.28449,-1.6186500000000001,9.7119
146464645,22.16,0.0,0.0,0.0,-0.28449,-1.6186500000000001,9.67266
151515150,22.16,0.0,0.0,0.0,-0.27468000000000004,-1.6284600000000002,9.72171
156565655,22.16,0.0,0.0,0.0,-0.28449,-1.6284600000000002,9.69228
161616160,22.16,0.0,0.0,0.0,-0.26487,-1.58922,9.68247
166666665,22.16,0.0,0.0,0.0,-0.26487,-1.60884,9.69228
171717170,22.16,0.0,0.0,0.0,-0.2943,-1.6382700000000001,9.7119
176767675,22.16,0.0,0.0,0.0,-0.30411,-1.60884,9.70209
181818180,22.16,0.0,0.0,0.0,-0.28449,-1.6382700000000001,9.72171
186868685,22.16,0.0,0.0,0.0,-0.26487,-1.6186500000000001,9.72171
191919190,22.16,0.0,0.0,0.0,-0.2943,-1.6186500000000001,9.68247
196969695,22.16,0.0,0.0,0.0,-0.2943,-1.58922,9.68247
202020200,22.16,0.0,0.0,0.0,-0.30411,-1.6186500000000001,9.69228
207070705,22.16,0.0,0.0,0.0,-0.28449,-1.6382700000000001,9.67266
212121210,22.16,0.0,0.0,0.0,-0.27468000000000004,-1.6382700000000001,9.68247
217171715,22.16,0.0,0.0,0.0,-0.28449,-1.6284600000000002,9.72171
222222220,22.16,0.0,0.0,0.0,-0.25506,-1.6480800000000002,9.7119
227272725,22.16,0.0,0.0,0.0,-0.27468000000000004,-1.5990300000000002,9.7119
232323230,22.16,0.0,0.0,0.0,-0.28449,-1.60884,9.72171
237373735,22.16,0.0,0.0,0.0,-0.31392000000000003,-1.6284600000000002,9.72171
242424240,22.16,0.0,0.0,0.0,-0.28449,-1.6284600000000002,9.69228
247474745,22.16,0.0,0.0,0.0,-0.2943,-1.6382700000000001,9.69228
252525250,22.16,0.0,0.0,0.0,-0.32373,-1.6186500000000001,9.70209
257575755,22.16,0.0,0.0,0.0,-0.26487,-1.6480800000000002,9.68247
262626260,22.16,0.0,0.0,0.0,-0.30411,-1.6186500000000001,9.68247
267676765,22.16,0.0,0.0,0.0,-0.30411,-1.6480800000000002,9.70209
272727270,22.16,0.0,0.0,0.0,-0.25506,-1.6382700000000001,9.69228
277777775,22.16,0.0,0.0,0.0,-0.26487,-1.6284600000000002,9.69228
282828280,22.16,0.0,0.0,0.0,-0.28449,-1.6382700000000001,9.70209
287878785,22.16,0.0,0.0,0.0,-0.2943,-1.60884,9.69228
292929290,22.16,0.0,0.0,0.0,-0.27468000000000004,-1.6382700000000001,9.68247
297979795,22.16,0.0,0.0,0.0,-0.27468000000000004,-1.60884,9.70209
303030300,22.16,0.0,0.0,0.0,-0.28449,-1.5990300000000002,9.68247
308080805,22.16,0.0,0.0,0.0,-0.2943,-1.65789,9.66285
313131310,22.16,0.0,0.0,0.0,-0.28449,-1.6382700000000001,9.69228
318181815,22.16,0.0,0.0,0.0,-0.30411,-1.60884,9.69228
323232320,22.16,0.0,0.0,0.0,-0.31392000000000003,-1.5990300000000002,9.7119
328282825,22.16,0.0,0.0,0.0,-0.27468000000000004,-1.6284600000000002,9.69228
333333330,22.16,0.0,0.0,0.0,-0.30411,-1.6382700000000001,9.68247
338383835,22.16,0.0,0.0,0.0,-0.28449,-1.60884,9.69228
343434340,22.16,0.0,0.0,0.0,-0.25506,-1.6284600000000002,9.66285
348484845,22.16,0.0,0.0,0.0,-0.26487,-1.6186500000000001,9.70209
353535350,22.16,0.0,0.0,0.0,-0.28449,-1.60884,9.67266
358585855,22.16,0.0,0.0,0.0,-0.28449,-1.6186500000000001,9.68247
363636360,22.16,0.0,0.0,0.0,-0.28449,-1.58922,9.68247
368686865,22.16,0.0,0.0,0.0,-0.30411,-1.6382700000000001,9.67266
373737370,22.16,0.0,0.0,0.0,-0.28449,-1.6186500000000001,9.69228
378787875,22.16,0.0,0.0,0.0,-0.2943,-1.6284600000000002,9.69228
383838380,22.16,0.0,0.0,0.0,-0.28449,-1.6186500000000001,9.69228
388888885,22.16,0.0,0.0,0.0,-0.28449,-1.6382700000000001,9.69228
393939390,22.16,0.0,0.0,0.0,-0.32373,-1.6284600000000002,9.67266
398989895,22.16,0.0,0.0,0.0,-0.26487,-1.58922,9.69228
404040400,22.16,0.0,0.0,0.0,-0.28449,-1.6284600000000002,9.67266
409090905,22.16,0.0,0.0,0.0,-0.32373,-1.6480800000000002,9.7119
414141410,22.16,0.0,0.0,0.0,-0.31392000000000003,-1.58922,9.7119
419191915,22.16,0.0,0.0,0.0,-0.26487,-1.5990300000000002,9.70209
424242420,22.16,0.0,0.0,0.0,-0.28449,-1.65789,9.7119
429292925,22.16,0.0,0.0,0.0,-0.30411,-1.60884,9.69228
434343430,22.16,0.0,0.0,0.0,-0.26487,-1.6186500000000001,9.69228
439393935,22.16,0.0,0.0,0.0,-0.28449,-1.6382700000000001,9.69228
444444440,22.16,0.0,0.0,0.0,-0.2943,-1.6186500000000001,9.67266
449494945,22.16,0.0,0.0,0.0,-0.2943,-1.6186500000000001,9.7119
454545450,22.16,0.0,0.0,0.0,-0.26487,-1.6382700000000001,9.69228
459595955,22.16,0.0,0.0,0.0,-0.28449,-1.60884,9.72171
464646460,22.16,0.0,0.0,0.0,-0.28449,-1.58922,9.69228
469696965,22.16,0.0,0.0,0.0,-0.30411,-1.6284600000000002,9.67266
474747470,22.16,0.0,0.0,0.0,-0.2943,-1.6382700000000001,9.72171
479797975,22.16,0.0,0.0,0.0,-0.28449,-1.6284600000000002,9.69228
484848480,22.16,0.0,0.0,0.0,-0.27468000000000004,-1.6284600000000002,9.68247
489898985,22.16,0.0,0.0,0.0,-0.2943,-1.60884,9.69228
494949490,22.16,0.0,0.0,0.0,-0.28449,-1.60884,9.70209
499999995,22.16,0.0,0.0,0.0,-0.2943,-1.60884,9.66285
505050500,22.16,0.0,0.0,0.0,-0.27468000000000004,-1.6284600000000002,9.68247
510101005,22.16,0.0,0.0,0.0,-0.28449,-1.6186500000000001,9.70209
515151510,22.16,0.0,0.0,0.0,-0.26487,-1.6186500000000001,9.66285
520202015,22.16,0.0,0.0,0.0,-0.26487,-1.6382700000000001,9.68247
525252520,22.16,0.0,0.0,0.0,-0.2943,-1.5990300000000002,9.70209
530303025,22.16,0.0,0.0,0.0,-0.2943,-1.60884,9.68247
535353530,22.16,0.0,0.0,0.0,-0.31392000000000003,-1.6284600000000002,9.70209
540404035,22.16,0.0,0.0,0.0,-0.30411,-1.6284600000000002,9.69228
545454540,22.16,0.0,0.0,0.0,-0.30411,-1.6284600000000002,9.7119
550505045,22.16,0.0,0.0,0.0,-0.28449,-1.65789,9.69228
555555550,22.16,0.0,0.0,0.0,-0.2943,-1.60884,9.68247
560606055,22.16,0.0,0.0,0.0,-0.32373,-1.58922,9.68247
565656560,22.16,0.0,0.0,0.0,-0.2943,-1.6284600000000002,9.69228
570707065,22.16,0.0,0.0,0.0,-0.2943,-1.60884,9.69228
575757570,22.16,0.0,0.0,0.0,-0.2943,-1.6186500000000001,9.69228
580808075,22.16,0.0,0.0,0.0,-0.2943,-1.6284600000000002,9.69228
585858580,22.16,0.0,0.0,0.0,-0.28449,-1.6284600000000002,9.69228
590909085,22.16,0.0,0.0,0.0,-0.30411,-1.60884,9.69228
595959590,22.16,0.0,0.0,0.0,-0.28449,-1.6284600000000002,9.66285
601010095,22.16,0.0,0.0,0.0,-0.25506,-1.6382700000000001,9.67266
606060600,22.16,0.0,0.0,0.0,-0.28449,-1.6284600000000002,9.70209
611111105,22.16,0.0,0.0,0.0,-0.30411,-1.5990300000000002,9.68247
616161610,22.16,0.0,0.0,0.0,-0.27468000000000004,-1.6382700000000001,9.67266
621212115,22.16,0.0,0.0,0.0,-0.2943,-1.6186500000000001,9.70209
626262620,22.16,0.0,0.0,0.0,-0.31392000000000003,-1.5990300000000002,9.7119
631313125,22.16,0.0,0.0,0.0,-0.2943,-1.6186500000000001,9.68247
636363630,22.16,0.0,0.0,0.0,-0.2943,-1.6382700000000001,9.68247
641414135,22.16,0.0,0.0,0.0,-0.32373,-1.6284600000000002,9.70209
646464640,22.16,0.0,0.0,0.0,-0.2943,-1.5990300000000002,9.70209
651515145,22.16,0.0,0.0,0.0,-0.27468000000000004,-1.60884,9.68247
656565650,22.16,0.0,0.0,0.0,-0.28449,-1.6382700000000001,9.70209
661616155,22.16,0.0,0.0,0.0,-0.28449,-1.6186500000000001,9.69228
666666660,22.16,0.0,0.0,0.0,-0.27468000000000004,-1.5990300000000002,9.69228
671717165,22.16,0.0,0.0,0.0,-0.27468000000000004,-1.58922,9.68247
676767670,22.16,0.0,0.0,0.0,-0.30411,-1.6284600000000002,9.69228
681818175,22.16,0.0,0.0,0.0,-0.30411,-1.6284600000000002,9.68247
686868680,22.16,0.0,0.0,0.0,-0.26487,-1.5990300000000002,9.68247
691919185,22.16,0.0,0.0,0.0,-0.30411,-1.6382700000000001,9.68247
696969690,22.16,0.0,0.0,0.0,-0.30411,-1.6284600000000002,9.7119
702020195,22.16,0.0,0.0,0.0,-0.28449,-1.6284600000000002,9.7119
707070700,22.16,0.0,0.0,0.0,-0.27468000000000004,-1.60884,9.68247
712121205,22.16,0.0,0.0,0.0,-0.2943,-1.6382700000000001,9.68247
717171710,22.16,0.0,0.0,0.0,-0.28449,-1.6382700000000001,9.69228
722222215,22.16,0.0,0.0,0.0,-0.28449,-1.6186500000000001,9.69228
727272720,22.16,0.0,0.0,0.0,-0.30411,-1.6480800000000002,9.70209
732323225,22.16,0.0,0.0,0.0,-0.28449,-1.5990300000000002,9.68247
737373730,22.16,0.0,0.0,0.0,-0.2943,-1.6480800000000002,9.7119
742424235,22.16,0.0,0.0,0.0,-0.2943,-1.6284600000000002,9.7119
747474740,22.16,0.0,0.0,0.0,-0.28449,-1.6284600000000002,9.7119
752525245,22.16,0.0,0.0,0.0,-0.30411,-1.6382700000000001,9.70209
757575750,22.16,0.0,0.0,0.0,-0.2943,-1.6284600000000002,9.70209
762626255,22.16,0.0,0.0,0.0,-0.27468000000000004,-1.5990300000000002,9.69228
767676760,22.16,0.0,0.0,0.0,-0.28449,-1.60884,9.68247
772727265,22.16,0.0,0.0,0.0,-0.2943,-1.6284600000000002,9.7119
777777770,22.16,0.0,0.0,0.0,-0.30411,-1.6186500000000001,9.7119
782828275,22.16,0.0,0.0,0.0,-0.30411,-1.6186500000000001,9.67266
787878780,22.16,0.0,0.0,0.0,-0.26487,-1.6284600000000002,9.68247
792929285,22.16,0.0,0.0,0.0,-0.2943,-1.6186500000000001,9.72171
797979790,22.16,0.0,0.0,0.0,-0.28449,-1.60884,9.69228
803030295,22.16,0.0,0.0,0.0,-0.32373,-1.5990300000000002,9.67266
808080800,22.16,0.0,0.0,0.0,-0.30411,-1.65789,9.7119
813131305,22.16,0.0,0.0,0.0,-0.32373,-1.58922,9.70209
818181810,22.16,0.0,0.0,0.0,-0.27468000000000004,-1.6186500000000001,9.69228
823232315,22.16,0.0,0.0,0.0,-0.2943,-1.6382700000000001,9.68247
828282820,22.16,0.0,0.0,0.0,-0.34335000000000004,-1.5990300000000002,9.72171
833333325,22.16,0.0,0.0,0.0,-0.28449,-1.5990300000000002,9.67266
838383830,22.16,0.0,0.0,0.0,-0.26487,-1.6382700000000001,9.68247
843434335,22.16,0.0,0.0,0.0,-0.28449,-1.6284600000000002,9.72171
848484840,22.16,0.0,0.0,0.0,-0.30411,-1.58922,9.7119
853535345,22.16,0.0,0.0,0.0,-0.2943,-1.6382700000000001,9.72171
858585850,22.16,0.0,0.0,0.0,-0.32373,-1.6382700000000001,9.70209
863636355,22.16,0.0,0.0,0.0,-0.31392000000000003,-1.5990300000000002,9.70209
868686860,22.16,0.0,0.0,0.0,-0.2943,-1.60884,9.69228
873737365,22.16,0.0,0.0,0.0,-0.26487,-1.6382700000000001,9.69228
878787870,22.16,0.0,0.0,0.0,-0.31392000000000003,-1.5990300000000002,9.70209
883838375,22.16,0.0,0.0,0.0,-0.2943,-1.5990300000000002,9.67266
888888880,22.16,0.0,0.0,0.0,-0.27468000000000004,-1.6382700000000001,9.67266
893939385,22.16,0.0,0.0,0.0,-0.28449,-1.6186500000000001,9.7119
898989890,22.16,0.0,0.0,0.0,-0.28449,-1.58922,9.69228
904040395,22.16,0.0,0.0,0.0,-0.27468000000000004,-1.6186500000000001,9.69228
909090900,22.16,0.0,0.0,0.0,-0.27468000000000004,-1.6382700000000001,9.68247
914141405,22.16,0.0,0.0,0.0,-0.2943,-1.5990300000000002,9.7119
919191910,22.16,0.0,0.0,0.0,-0.28449,-1.5990300000000002,9.72171
924242415,22.16,0.0,0.0,0.0,-0.30411,-1.6480800000000002,9.68247
929292920,22.16,0.0,0.0,0.0,-0.33354000000000006,-1.60884,9.69228
934343425,22.16,0.0,0.0,0.0,-0.27468000000000004,-1.60884,9.68247
939393930,22.16,0.0,0.0,0.0,-0.2943,-1.6382700000000001,9.69228
944444435,22.16,0.0,0.0,0.0,-0.28449,-1.6284600000000002,9.69228
949494940,22.16,0.0,0.0,0.0,-0.30411,-1.58922,9.70209
954545445,22.16,0.0,0.0,0.0,-0.2943,-1.6186500000000001,9.7119
959595950,22.16,0.0,0.0,0.0,-0.27468000000000004,-1.6480800000000002,9.70209
964646455,22.16,0.0,0.0,0.0,-0.31392000000000003,-1.6382700000000001,9.70209
969696960,22.16,0.0,0.0,0.0,-0.2943,-1.6186500000000001,9.69228
974747465,22.16,0.0,0.0,0.0,-0.30411,-1.6284600000000002,9.68247
979797970,22.16,0.0,0.0,0.0,-0.30411,-1.6382700000000001,9.7119
984848475,22.16,0.0,0.0,0.0,-0.31392000000000003,-1.6186500000000001,9.70209
989898980,22.16,0.0,0.0,0.0,-0.2943,-1.6284600000000002,9.68247
994949485,22.16,0.0,0.0,0.0,-0.2943,-1.6284600000000002,9.70209
999999990,22.16,0.0,0.0,0.0,-0.30411,-1.60884,9.68247
1005050495,22.16,0.0,0.0,0.0,-0.28449,-1.6382700000000001,9.69228
1010101000,22.16,0.0,0.0,0.0,-0.28449,-1.6284600000000002,9.69228
1015151505,22.16,0.0,0.0,0.0,-0.2943,-1.60884,9.70209
1020202010,22.16,0.0,0.0,0.0,-0.2943,-1.6186500000000001,9.68247
1025252515,22.16,0.0,0.0,0.0,-0.27468000000000004,-1.6480800000000002,9.67266
1030303020,22.16,0.0,0.0,0.0,-0.27468000000000004,-1.6284600000000002,9.69228
1035353525,22.16,0.0,0.0,0.0,-0.27468000000000004,-1.58922,9.67266
1040404030,22.16,0.0,0.0,0.0,-0.26487,-1.6284600000000002,9.68247
1045454535,22.16,0.0,0.0,0.0,-0.31392000000000003,-1.6382700000000001,9.72171
1050505040,22.16,0.0,0.0,0.0,-0.30411,-1.58922,9.73152
1055555545,22.16,0.0,0.0,0.0,-0.27468000000000004,-1.5990300000000002,9.68247
1060606050,22.16,0.0,0.0,0.0,-0.31392000000000003,-1.65789,9.70209
1065656555,22.16,0.0,0.0,0.0,-0.31392000000000003,-1.60884,9.68247
1070707060,22.16,0.0,0.0,0.0,-0.2943,-1.5794100000000002,9.69228
1075757565,22.16,0.0,0.0,0.0,-0.27468000000000004,-1.6186500000000001,9.69228
1080808070,22.16,0.0,0.0,0.0,-0.31392000000000003,-1.6284600000000002,9.70209
1085858575,22.16,0.0,0.0,0.0,-0.32373,-1.5794100000000002,9.70209
1090909080,22.16,0.0,0.0,0.0,-0.30411,-1.6186500000000001,9.70209
1095959585,22.16,0.0,0.0,0.0,-0.27468000000000004,-1.65789,9.68247
1101010090,22.16,0.0,0.0,0.0,-0.27468000000000004,-1.5990300000000002,9.72171
1106060595,22.16,0.0,0.0,0.0,-0.25506,-1.58922,9.70209
1111111100,22.16,0.0,0.0,0.0,-0.2943,-1.65789,9.67266
1116161605,22.16,0.0,0.0,0.0,-0.31392000000000003,-1.60884,9.70209
1121212110,22.16,0.0,0.0,0.0,-0.28449,-1.58922,9.69228
1126262615,22.16,0.0,0.0,0.0,-0.25506,-1.6284600000000002,9.70209
1131313120,22.16,0.0,0.0,0.0,-0.32373,-1.6382700000000001,9.67266
1136363625,22.16,0.0,0.0,0.0,-0.28449,-1.58922,9.70209
1141414130,22.16,0.0,0.0,0.0,-0.25506,-1.60884,9.68247
1146464635,22.16,0.0,0.0,0.0,-0.2943,-1.6480800000000002,9.69228
1151515140,22.16,0.0,0.0,0.0,-0.33354000000000006,-1.5990300000000002,9.70209
1156565645,22.16,0.0,0.0,0.0,-0.25506,-1.5990300000000002,9.68247
1161616150,22.16,0.0,0.0,0.0,-0.27468000000000004,-1.6284600000000002,9.69228
1166666655,22.16,0.0,0.0,0.0,-0.32373,-1.6284600000000002,9.69228
1171717160,22.16,0.0,0.0,0.0,-0.32373,-1.5696,9.67266
1176767665,22.16,0.0,0.0,0.0,-0.26487,-1.6480800000000002,9.67266
1181818170,22.16,0.0,0.0,0.0,-0.2943,-1.6480800000000002,9.69228
1186868675,22.16,0.0,0.0,0.0,-0.28449,-1.5990300000000002,9.69228
1191919180,22.16,0.0,0.0,0.0,-0.28449,-1.6382700000000001,9.68247
1196969685,22.16,0.0,0.0,0.0,-0.30411,-1.6382700000000001,9.67266
1202020190,22.16,0.0,0.0,0.0,-0.32373,-1.5794100000000002,9.70209
1207070695,22.16,0.0,0.0,0.0,-0.26487,-1.60884,9.68247
1212121200,22.16,0.0,0.0,0.0,-0.28449,-1.65789,9.69228
1217171705,22.16,0.0,0.0,0.0,-0.2943,-1.6480800000000002,9.7119
1222222210,22.16,0.0,0.0,0.0,-0.2943,-1.58922,9.68247
1227272715,22.16,0.0,0.0,0.0,-0.26487,-1.6284600000000002,9.69228
1232323220,22.16,0.0,0.0,0.0,-0.27468000000000004,-1.65789,9.7119
1237373725,22.16,0.0,0.0,0.0,-0.28449,-1.58922,9.72171
1242424230,22.16,0.0,0.0,0.0,-0.28449,-1.6186500000000001,9.69228
1247474735,22.16,0.0,0.0,0.0,-0.27468000000000004,-1.6382700000000001,9.67266
1252525240,22.16,0.0,0.0,0.0,-0.2943,-1.60884,9.70209
1257575745,22.16,0.0,0.0,0.0,-0.27468000000000004,-1.6186500000000001,9.69228
1262626250,22.16,0.0,0.0,0.0,-0.27468000000000004,-1.60884,9.68247
1267676755,22.16,0.0,0.0,0.0,-0.30411,-1.6382700000000001,9.70209
1272727260,22.16,0.0,0.0,0.0,-0.31392000000000003,-1.6186500000000001,9.70209
1277777765,22.16,0.0,0.0,0.0,-0.30411,-1.6186500000000001,9.68247
1282828270,22.16,0.0,0.0,0.0,-0.26487,-1.6284600000000002,9.70209
1287878775,22.16,0.0,0.0,0.0,-0.2943,-1.6186500000000001,9.70209
1292929280,22.16,0.0,0.0,0.0,-0.30411,-1.6284600000000002,9.69228
1297979785,22.16,0.0,0.0,0.0,-0.2943,-1.6382700000000001,9.69228
1303030290,22.16,0.0,0.0,0.0,-0.28449,-1.60884,9.70209
1308080795,22.16,0.0,0.0,0.0,-0.30411,-1.5990300000000002,9.67266
1313131300,22.16,0.0,0.0,0.0,-0.27468000000000004,-1.6382700000000001,9.68247
1318181805,22.16,0.0,0.0,0.0,-0.30411,-1.6284600000000002,9.70209
1323232310,22.16,0.0,0.0,0.0,-0.30411,-1.60884,9.69228
1328282815,22.16,0.0,0.0,0.0,-0.27468000000000004,-1.6382700000000001,9.68247
1333333320,22.16,0.0,0.0,0.0,-0.30411,-1.6382700000000001,9.68247
1338383825,22.16,0.0,0.0,0.0,-0.31392000000000003,-1.60884,9.70209
1343434330,22.16,0.0,0.0,0.0,-0.2943,-1.6284600000000002,9.66285
1348484835,22.16,0.0,0.0,0.0,-0.2943,-1.6382700000000001,9.70209
1353535340,22.16,0.0,0.0,0.0,-0.26487,-1.6284600000000002,9.70209
1358585845,22.16,0.0,0.0,0.0,-0.27468000000000004,-1.5794100000000002,9.7119
1363636350,22.16,0.0,0.0,0.0,-0.25506,-1.6284600000000002,9.67266
1368686855,22.16,0.0,0.0,0.0,-0.2943,-1.6480800000000002,9.69228
1373737360,22.16,0.0,0.0,0.0,-0.2943,-1.6186500000000001,9.7119
1378787865,22.16,0.0,0.0,0.0,-0.2943,-1.5990300000000002,9.69228
1383838370,22.16,0.0,0.0,0.0,-0.30411,-1.65789,9.69228
1388888875,22.16,0.0,0.0,0.0,-0.2943,-1.6382700000000001,9.70209
1393939380,22.16,0.0,0.0,0.0,-0.2943,-1.5990300000000002,9.7119
1398989885,22.16,0.0,0.0,0.0,-0.27468000000000004,-1.6480800000000002,9.66285
1404040390,22.16,0.0,0.0,0.0,-0.27468000000000004,-1.6382700000000001,9.70209
1409090895,22.16,0.0,0.0,0.0,-0.30411,-1.5990300000000002,9.69228
1414141400,22.16,0.0,0.0,0.0,-0.2943,-1.6382700000000001,9.70209
1419191905,22.16,0.0,0.0,0.0,-0.31392000000000003,-1.6382700000000001,9.70209
1424242410,22.16,0.0,0.0,0.0,-0.30411,-1.58922,9.69228
1429292915,22.16,0.0,0.0,0.0,-0.25506,-1.6186500000000001,9.70209
1434343420,22.16,0.0,0.0,0.0,-0.26487,-1.65789,9.69228
1439393925,22.16,0.0,0.0,0.0,-0.28449,-1.60884,9.72171
1444444430,22.16,0.0,0.0,0.0,-0.27468000000000004,-1.60884,9.7119
1449494935,22.16,0.0,0.0,0.0,-0.27468000000000004,-1.6382700000000001,9.68247
1454545440,22.16,0.0,0.0,0.0,-0.30411,-1.6382700000000001,9.69228
1459595945,22.16,0.0,0.0,0.0,-0.33354000000000006,-1.5990300000000002,9.70209
1464646450,22.16,0.0,0.0,0.0,-0.27468000000000004,-1.6186500000000001,9.69228
1469696955,22.16,0.0,0.0,0.0,-0.2943,-1.6480800000000002,9.7119
1474747460,22.16,0.0,0.0,0.0,-0.2943,-1.5990300000000002,9.7119
1479797965,22.16,0.0,0.0,0.0,-0.28449,-1.6186500000000001,9.67266
1484848470,22.16,0.0,0.0,0.0,-0.31392000000000003,-1.6480800000000002,9.68247
1489898975,22.16,0.0,0.0,0.0,-0.30411,-1.6382700000000001,9.69228
1494949480,22.16,0.0,0.0,0.0,-0.2943,-1.58922,9.69228
1499999985,22.16,0.0,0.0,0.0,-0.28449,-1.6186500000000001,9.70209
1505050490,22.16,0.0,0.0,0.0,-0.26487,-1.6382700000000001,9.72171
1510100995,22.16,0.0,0.0,0.0,-0.30411,-1.6284600000000002,9.70209
1515151500,22.16,0.0,0.0,0.0,-0.30411,-1.6284600000000002,9.67266
1520202005,22.16,0.0,0.0,0.0,-0.28449,-1.6480800000000002,9.68247
1525252510,22.16,0.0,0.0,0.0,-0.2943,-1.6186500000000001,9.69228
1530303015,22.16,0.0,0.0,0.0,-0.2943,-1.58922,9.67266
1535353520,22.16,0.0,0.0,0.0,-0.30411,-1.6284600000000002,9.69228
1540404025,22.16,0.0,0.0,0.0,-0.30411,-1.6382700000000001,9.69228
1545454530,22.16,0.0,0.0,0.0,-0.2943,-1.6186500000000001,9.69228
1550505035,22.16,0.0,0.0,0.0,-0.27468000000000004,-1.60884,9.68247
1555555540,22.16,0.0,0.0,0.0,-0.32373,-1.6186500000000001,9.7119
1560606045,22.16,0.0,0.0,0.0,-0.2943,-1.6186500000000001,9.68247
1565656550,22.16,0.0,0.0,0.0,-0.30411,-1.60884,9.68247
1570707055,22.16,0.0,0.0,0.0,-0.24525000000000002,-1.60884,9.69228
1575757560,22.16,0.0,0.0,0.0,-0.2943,-1.6382700000000001,9.67266
1580808065,22.16,0.0,0.0,0.0,-0.32373,-1.5990300000000002,9.70209
1585858570,22.16,0.0,0.0,0.0,-0.28449,-1.60884,9.69228
1590909075,22.16,0.0,0.0,0.0,-0.26487,-1.6382700000000001,9.72171
1595959580,22.16,0.0,0.0,0.0,-0.28449,-1.60884,9.70209
1601010085,22.16,0.0,0.0,0.0,-0.28449,-1.5990300000000002,9.68247
1606060590,22.16,0.0,0.0,0.0,-0.28449,-1.6284600000000002,9.68247
1611111095,22.16,0.0,0.0,0.0,-0.27468000000000004,-1.6284600000000002,9.7119
1616161600,22.16,0.0,0.0,0.0,-0.28449,-1.58922,9.70209
1621212105,22.16,0.0,0.0,0.0,-0.27468000000000004,-1.5990300000000002,9.68247
1626262610,22.16,0.0,0.0,0.0,-0.30411,-1.6382700000000001,9.70209
1631313115,22.16,0.0,0.0,0.0,-0.2943,-1.6186500000000001,9.70209
1636363620,22.16,0.0,0.0,0.0,-0.2943,-1.60884,9.69228
1641414125,22.16,0.0,0.0,0.0,-0.27468000000000004,-1.6677000000000002,9.66285
1646464630,22.16,0.0,0.0,0.0,-0.32373,-1.6186500000000001,9.70209
1651515135,22.16,0.0,0.0,0.0,-0.28449,-1.6186500000000001,9.69228
1656565640,22.16,0.0,0.0,0.0,-0.25506,-1.6480800000000002,9.69228
1661616145,22.16,0.0,0.0,0.0,-0.2943,-1.6284600000000002,9.69228
1666666650,22.16,0.0,0.0,0.0,-0.30411,-1.58922,9.69228
1671717155,22.16,0.0,0.0,0.0,-0.27468000000000004,-1.6284600000000002,9.67266
1676767660,22.16,0.0,0.0,0.0,-0.2943,-1.6382700000000001,9.72171
1681818165,22.16,0.0,0.0,0.0,-0.31392000000000003,-1.6284600000000002,9.70209
1686868670,22.16,0.0,0.0,0.0,-0.28449,-1.60884,9.67266
1691919175,22.16,0.0,0.0,0.0,-0.27468000000000004,-1.65789,9.66285
1696969680,22.16,0.0,0.0,0.0,-0.31392000000000003,-1.6186500000000001,9.70209
1702020185,22.16,0.0,0.0,0.0,-0.27468000000000004,-1.60884,9.70209
1707070690,22.16,0.0,0.0,0.0,-0.26487,-1.65789,9.68247
1712121195,22.16,0.0,0.0,0.0,-0.2943,-1.6284600000000002,9.7119
1717171700,22.16,0.0,0.0,0.0,-0.2943,-1.58922,9.70209
1722222205,22.16,0.0,0.0,0.0,-0.2943,-1.6186500000000001,9.68247
1727272710,22.16,0.0,0.0,0.0,-0.2943,-1.69713,9.69228
1732323215,22.16,0.0,0.0,0.0,-0.28449,-1.58922,9.69228
1737373720,22.16,0.0,0.0,0.0,-0.27468000000000004,-1.60884,9.69228
1742424225,22.16,0.0,0.0,0.0,-0.2943,-1.6677000000000002,9.70209
1747474730,22.16,0.0,0.0,0.0,-0.28449,-1.6382700000000001,9.69228
1752525235,22.16,0.0,0.0,0.0,-0.28449,-1.60884,9.69228
1757575740,22.16,0.0,0.0,0.0,-0.25506,-1.6284600000000002,9.67266
1762626245,22.16,0.0,0.0,0.0,-0.30411,-1.6480800000000002,9.70209
1767676750,22.16,0.0,0.0,0.0,-0.2943,-1.60884,9.72171
1772727255,22.16,0.0,0.0,0.0,-0.25506,-1.6186500000000001,9.69228
1777777760,22.16,0.0,0.0,0.0,-0.28449,-1.6480800000000002,9.68247
1782828265,22.16,0.0,0.0,0.0,-0.30411,-1.60884,9.68247
1787878770,22.16,0.0,0.0,0.0,-0.2943,-1.5794100000000002,9.67266
1792929275,22.16,0.0,0.0,0.0,-0.28449,-1.6480800000000002,9.67266
1797979780,22.16,0.0,0.0,0.0,-0.30411,-1.60884,9.69228
1803030285,22.16,0.0,0.0,0.0,-0.28449,-1.60884,9.7119
1808080790,22.16,0.0,0.0,0.0,-0.26487,-1.6284600000000002,9.69228
1813131295,22.16,0.0,0.0,0.0,-0.28449,-1.6480800000000002,9.68247
1818181800,22.16,0.0,0.0,0.0,-0.31392000000000003,-1.60884,9.69228
1823232305,22.16,0.0,0.0,0.0,-0.2943,-1.58922,9.70209
1828282810,22.16,0.0,0.0,0.0,-0.25506,-1.6382700000000001,9.67266
1833333315,22.16,-0.003193952531149623,0.001064650843716541,0.0,-0.31392000000000003,-1.6382700000000001,9.67266
1838383820,22.16,0.0,0.0,0.0,-0.28449,-1.58922,9.69228
1843434325,22.16,-0.002129301687433082,-0.0,-0.001064650843716541,-0.27468000000000004,-1.60884,9.68247
1848484830,22.16,-0.002129301687433082,0.001064650843716541,0.0,-0.27468000000000004,-1.6775100000000003,9.68247
1853535335,22.16,0.001064650843716541,0.0,0.0,-0.30411,-1.6480800000000002,9.74133
1858585840,22.16,0.003193952531149623,-0.001064650843716541,-0.002129301687433082,-0.2943,-1.6382700000000001,9.79038
1863636345,22.16,0.004258603374866164,0.0,-0.003193952531149623,-0.26487,-1.6775100000000003,9.83943
1868686850,22.16,0.004258603374866164,0.001064650843716541,-0.003193952531149623,-0.30411,-1.6480800000000002,9.87867
1873737355,22.16,0.008517206749732328,-0.002129301687433082,-0.002129301687433082,-0.2943,-1.5794100000000002,9.84924
1878787860,22.16,0.006387905062299246,0.0,0.0,-0.26487,-1.6382700000000001,9.760950000000001
1883838365,22.16,0.003193952531149623,0.0,0.0,-0.30411,-1.6284600000000002,9.67266
1888888870,22.16,0.003193952531149623,-0.001064650843716541,0.0,-0.31392000000000003,-1.5696,9.623610000000001
1893939375,22.16,0.006387905062299246,0.0,0.0,-0.26487,-1.6186500000000001,9.623610000000001
1898989880,22.16,0.004258603374866164,0.0,0.0,-0.31392000000000003,-1.72656,9.633420000000001
1904040385,22.16,0.003193952531149623,0.005323254218582705,0.0,-0.33354000000000006,-1.6186500000000001,9.72171
1909090890,22.16,0.020245819323134222,-0.003193952531149623,0.0,-0.40221,-1.54017,9.84924
1914141395,22.16,0.011711159280881954,-0.013840460968315033,0.0,-0.13734000000000002,-1.88352,9.95715
1919191900,22.16,0.003193952531149623,0.007452555906015787,0.0,-0.20601000000000003,-1.72656,10.09449
1924242405,22.16,0.031956978604016174,0.020245819323134222,0.0,-0.44145,-1.3635900000000003,9.87867
1929292910,22.16,0.01811651763570114,-0.013840460968315033,0.0,-0.35316,-1.6186500000000001,9.72171
1934343415,22.16,0.001064650843716541,-0.023439771854283843,0.0,-0.22563,-1.9816200000000002,9.760950000000001
1939393920,22.16,0.01064650843716541,-0.002129301687433082,-0.004258603374866164,0.04905,-1.65789,9.98658
1944444425,22.16,0.054332099614583476,0.03408628029144926,0.0,-0.43164,-1.44207,9.86886
1949494930,22.16,0.02663372438543347,0.023439771854283843,0.003193952531149623,-0.48069000000000006,-1.34397,9.770760000000001
1954545435,22.16,0.021310470166850764,-0.01918116847941768,-0.001064650843716541,-0.7749900000000001,-1.8246600000000002,9.770760000000001
1959595940,22.16,-0.008517206749732328,-0.07030186227033158,-0.003193952531149623,0.06867000000000001,-1.88352,9.83943
1964646445,22.16,0.046879543708567686,0.014905111812031574,-0.005323254218582705,0.18639,-1.49112,9.79038
1969696950,22.16,0.03834488366631542,0.05326744877086694,0.001064650843716541,-0.41202000000000005,-1.55979,9.70209
1974747455,22.16,0.03408628029144926,0.011711159280881954,0.001064650843716541,-0.5493600000000001,-1.46169,9.81
1979797960,22.16,0.024504422698000388,-0.02663372438543347,-0.001064650843716541,-0.65727,-1.6480800000000002,9.83943
1984848465,22.16,0.011711159280881954,-0.06391395720803235,-0.005323254218582705,0.06867000000000001,-1.88352,9.83943
1989898970,22.16,0.05007349623971732,0.033021629447732716,0.002129301687433082,0.06867000000000001,-1.44207,9.80019
1994949475,22.16,0.05113814708343386,0.04153883619746504,0.002129301687433082,-0.5493600000000001,-1.6186500000000001,9.79038
1999999980,22.16,0.03621558197888234,-0.006387905062299246,-0.003193952531149623,-0.42183,-1.49112,9.86886
2005050485,22.16,0.04366813788489812,-0.02556907354171693,-0.001064650843716541,-0.42183,-1.6382700000000001,9.94734
2010100990,22.16,0.02556907354171693,-0.024504422698000388,-0.002129301687433082,-0.019620000000000002,-1.73637,9.84924
2015151495,22.16,0.05113814708343386,0.021310470166850764,0.0,-0.12753,-1.5794100000000002,9.87867
2020202000,22.16,0.05752605214573309,0.033021629447732716,0.0,-0.51993,-1.39302,9.83943
2025252505,22.16,0.04794419455228423,-0.021310470166850764,-0.003193952531149623,-0.34335000000000004,-1.71675,9.85905
2030303010,22.16,0.03621558197888234,-0.005323254218582705,0.0,-0.24525000000000002,-1.60884,9.91791
2035353515,22.16,0.05646140130201656,-0.013840460968315033,-0.003193952531149623,-0.21582,-1.6480800000000002,9.96696
2040404020,22.16,0.06178465552059926,0.0170518667919846,0.0,-0.16677000000000003,-1.3635900000000003,9.80019
2045454525,22.16,0.060720004676882725,0.013840460968315033,0.0,-0.43164,-1.54017,9.888480000000001
2050505030,22.16,0.046879543708567686,-0.01918116847941768,-0.003193952531149623,-0.37278,-1.7658,9.751140000000001
2055555535,22.16,0.05326744877086694,0.001064650843716541,0.0,-0.20601000000000003,-1.46169,9.86886
2060606040,22.16,0.07136651311404815,-0.001064650843716541,0.0,-0.34335000000000004,-1.49112,9.937529999999999
2065656545,22.16,0.05752605214573309,-0.001064650843716541,-0.003193952531149623,-0.10791,-1.5696,9.79038
2070707050,22.16,0.06284930636431581,0.01811651763570114,0.0,-0.47088,-1.60884,9.82962
2075757555,22.16,0.06817256058289851,-0.01064650843716541,-0.004258603374866164,-0.37278,-1.5303600000000002,9.937529999999999
2080808060,22.16,0.07777187146886733,-0.008517206749732328,-0.002129301687433082,-0.16677000000000003,-1.40283,9.937529999999999
2085858565,22.16,0.07136651311404815,0.011711159280881954,-0.002129301687433082,-0.34335000000000004,-1.5499800000000001,9.86886
2090909070,22.16,0.05646140130201656,-0.011711159280881954,-0.005323254218582705,-0.23544,-1.6775100000000003,9.84924
2095959575,22.16,0.07990117315630041,0.006387905062299246,0.001064650843716541,-0.30411,-1.54017,9.94734
2101010080,22.16,0.08948303074974927,0.0,0.0,-0.3924,-1.40283,10.025820000000001
2106060585,22.16,0.08203047484373349,-0.006387905062299246,-0.001064650843716541,-0.20601000000000003,-1.41264,9.96696
2111111090,22.16,0.07670722062515077,0.0,-0.002129301687433082,-0.28449,-1.52055,9.81
2116161595,22.16,0.07883652231258387,0.001064650843716541,-0.003193952531149623,-0.26487,-1.5499800000000001,9.78057
2121212100,22.16,0.08948303074974927,0.007452555906015787,-0.004258603374866164,-0.34335000000000004,-1.29492,9.85905
2126262605,22.16,0.09800023749948161,-0.003193952531149623,0.002129301687433082,-0.34335000000000004,-1.39302,9.819809999999999
2131313110,22.16,0.07349581480148122,-0.01811651763570114,-0.001064650843716541,-0.17658,-1.6382700000000001,9.819809999999999
2136363615,22.16,0.08841837990603273,0.002129301687433082,-0.003193952531149623,-0.25506,-1.4715,9.94734
2141414120,22.16,0.11185815176031658,0.008517206749732328,-0.001064650843716541,-0.30411,-1.26549,9.98658
2146464625,22.16,0.10012953918691468,0.011711159280881954,0.0,-0.40221,-1.34397,9.87867
2151515130,22.16,0.07777187146886733,-0.01918116847941768,-0.004258603374866164,-0.36297,-1.50093,9.908100000000001
2156565635,22.16,0.09800023749948161,-0.01918116847941768,0.0,-0.14715,-1.39302,9.82962
2161616140,22.16,0.10438814256178083,0.006387905062299246,-0.002129301687433082,-0.0981,-1.34397,9.85905
2166666645,22.16,0.1097288500728835,0.024504422698000388,0.0,-0.37278,-1.29492,9.82962
2171717150,22.16,0.09906488834319814,0.001064650843716541,0.0,-0.57879,-1.49112,9.84924
2176767655,22.16,0.09906488834319814,-0.028763026072866547,-0.002129301687433082,-0.2943,-1.45188,10.006200000000002
2181818160,22.16,0.12037535851004891,-0.005323254218582705,-0.005323254218582705,-0.08829,-1.1870100000000001,10.01601
2186868665,22.16,0.12463396188491506,0.01811651763570114,0.0,-0.23544,-1.3635900000000003,9.888480000000001
2191919170,22.16,0.10225884087434776,0.012775810124598492,0.0,-0.40221,-1.34397,9.89829
2196969675,22.16,0.11079350091660004,-0.00958185759344887,-0.003193952531149623,-0.37278,-1.22625,9.888480000000001
2202020180,22.16,0.12250466019748199,-0.023439771854283843,-0.004258603374866164,-0.14715,-1.3341600000000002,9.78057
2207070685,22.16,0.11611675513518273,0.01918116847941768,0.001064650843716541,-0.1962,-1.3537800000000002,9.81
2212121190,22.16,0.12037535851004891,0.015987215948268057,-0.001064650843716541,-0.5591700000000001,-1.3047300000000002,9.908100000000001
2217171695,22.16,0.12037535851004891,-0.022375121010567305,-0.005323254218582705,-0.34335000000000004,-1.1477700000000002,9.908100000000001
2222222200,22.16,0.1331511686346474,-0.00958185759344887,-0.003193952531149623,-0.08829,-1.22625,9.97677
2227272705,22.16,0.11398745344774965,0.01064650843716541,-0.002129301687433082,-0.22563,-1.51074,9.94734
2232323210,22.16,0.12676326357234816,0.0170518667919846,0.0,-0.44145,-1.02024,9.96696
2237373715,22.16,0.14700908289548237,-0.015987215948268057,-0.004258603374866164,-0.42183,-0.9123300000000001,9.819809999999999
2242424220,22.16,0.12250466019748199,-0.02663372438543347,-0.005323254218582705,0.039240000000000004,-1.51074,9.80019
2247474725,22.16,0.11185815176031658,0.02982767691658309,-0.002129301687433082,-0.26487,-1.40283,9.908100000000001
2252525230,22.16,0.14487978120804929,0.008517206749732328,0.0,-0.60822,-0.8240400000000001,9.91791
2257575735,22.16,0.16084954386379738,-0.02769837522915001,-0.008517206749732328,-0.20601000000000003,-1.03986,9.86886
2262626240,22.16,0.1097288500728835,-0.005323254218582705,-0.005323254218582705,-0.04905,-1.6480800000000002,10.01601
2267676745,22.16,0.1288925652597812,0.01918116847941768,0.001064650843716541,-0.3924,-1.10853,10.074869999999999
2272727250,22.16,0.1800307123432151,0.007452555906015787,0.0,-0.45126,-0.6867000000000001,9.819809999999999
2277777755,22.16,0.1555262896452147,-0.01064650843716541,-0.003193952531149623,-0.1962,-1.16739,9.7119
2282828260,22.16,0.08628907821859966,0.002129301687433082,-0.002129301687433082,-0.21582,-1.58922,9.95715
2287878765,22.16,0.16404349639494703,-0.001064650843716541,-0.003193952531149623,-0.5493600000000001,-0.7848,9.99639
2292929270,22.16,0.17257815643719931,-0.022375121010567305,-0.002129301687433082,-0.12753,-0.9711900000000001,9.819809999999999
2297979775,22.16,0.13421581947836395,0.01918116847941768,0.0,-0.18639,-1.21644,9.83943
2303030280,22.16,0.1374272253020335,-0.003193952531149623,-0.003193952531149623,-0.5493600000000001,-1.0791000000000002,10.1043
2308080785,22.16,0.17151350559348277,-0.015987215948268057,-0.004258603374866164,-0.0981,-0.87309,9.937529999999999
2313131290,22.16,0.15446163880149816,0.02769837522915001,0.001064650843716541,-0.25506,-1.03005,9.81
2318181795,22.16,0.13634512116579703,-0.001064650843716541,-0.003193952531149623,-0.49050000000000005,-1.13796,9.98658
2323232300,22.16,0.16617279808238014,-0.028763026072866547,-0.002129301687433082,-0.15696000000000002,-0.6867000000000001,9.888480000000001
2328282805,22.16,0.16510814723866357,0.002129301687433082,-0.002129301687433082,-0.06867000000000001,-1.00062,9.751140000000001
2333333310,22.16,0.1352804703220805,0.01811651763570114,-0.003193952531149623,-0.37278,-1.2851100000000002,9.751140000000001
2338383815,22.16,0.16191419470751395,0.007452555906015787,0.0,-0.59841,-0.64746,10.025820000000001
2343434320,22.16,0.18748326824923087,-0.02769837522915001,-0.003193952531149623,-0.22563,-0.6278400000000001,9.99639
2348484825,22.16,0.1480737337391989,-0.007452555906015787,-0.006387905062299246,0.05886,-1.21644,9.85905
2353535330,22.16,0.14381513036433274,0.03515093113516579,0.0,-0.51993,-0.89271,9.82962
2358585835,22.16,0.19067722078038052,-0.011711159280881954,-0.002129301687433082,-0.51012,-0.5493600000000001,9.86886
2363636340,22.16,0.17896606149949854,-0.021310470166850764,-0.004258603374866164,0.02943,-0.65727,9.68247
2368686845,22.16,0.14275047952061623,0.02982767691658309,-0.003193952531149623,-0.31392000000000003,-1.0987200000000001,9.73152
2373737350,22.16,0.14594443205176583,0.0,-0.001064650843716541,-0.5886,-0.89271,9.85905
2378787855,22.16,0.19067722078038052,-0.021310470166850764,-0.004258603374866164,-0.32373,-0.47088,9.937529999999999
2383838360,22.16,0.177901410655782,-0.013840460968315033,-0.002129301687433082,-0.08829,-0.85347,9.92772
2388888865,22.16,0.1331511686346474,0.005323254218582705,-0.004258603374866164,-0.0981,-1.03986,9.95715
2393939370,22.16,0.1832246648743647,0.01918116847941768,-0.002129301687433082,-0.44145,-0.6180300000000001,9.94734
2398989875,22.16,0.19814722997891623,-0.004258603374866164,-0.003193952531149623,-0.30411,-0.5493600000000001,9.85905
2404040380,22.16,0.16191419470751395,0.007452555906015787,-0.004258603374866164,-0.08829,-0.72594,9.888480000000001
2409090885,22.16,0.17151350559348277,0.015987215948268057,-0.002129301687433082,-0.5395500000000001,-0.56898,9.760950000000001
2414141390,22.16,0.16938420390604966,-0.021310470166850764,-0.006387905062299246,-0.28449,-0.73575,9.68247
2419191895,22.16,0.17364280728091586,0.0170518667919846,-0.003193952531149623,-0.25506,-0.49050000000000005,9.72171
2424242400,22.16,0.16831955306233315,-0.01064650843716541,-0.003193952531149623,-0.50031,-0.75537,9.95715
2429292905,22.16,0.16084954386379738,-0.02769837522915001,-0.006387905062299246,-0.08829,-0.6768900000000001,9.908100000000001
2434343410,22.16,0.1832246648743647,0.0170518667919846,-0.003193952531149623,-0.2943,-0.52974,9.98658
2439393915,22.16,0.1704488547497662,-0.014905111812031574,-0.003193952531149623,-0.24525000000000002,-0.8240400000000001,9.98658
2444444420,22.16,0.18641861740551433,0.023439771854283843,0.001064650843716541,-0.20601000000000003,-0.35316,9.888480000000001
2449494925,22.16,0.19280652246781357,0.004258603374866164,-0.004258603374866164,-0.38259000000000004,-0.52974,9.888480000000001
2454545430,22.16,0.17364280728091586,0.001064650843716541,-0.005323254218582705,-0.14715,-0.5395500000000001,9.60399
2459595935,22.16,0.1832246648743647,0.023439771854283843,0.0,-0.5493600000000001,-0.45126,9.770760000000001
2464646440,22.16,0.17470745812463237,-0.01064650843716541,-0.003193952531149623,-0.36297,-0.35316,9.82962
2469696945,22.16,0.18109536318693162,-0.013840460968315033,-0.004258603374866164,-0.24525000000000002,-0.51012,9.760950000000001
2474747450,22.16,0.15659094048893124,-0.008517206749732328,-0.002129301687433082,-0.33354000000000006,-0.6768900000000001,9.888480000000001
2479797955,22.16,0.17896606149949854,-0.008517206749732328,-0.003193952531149623,-0.25506,-0.37278,9.98658
2484848460,22.16,0.19600047499896323,-0.00958185759344887,-0.005323254218582705,-0.12753,-0.41202000000000005,10.01601
2489898965,22.16,0.18748326824923087,0.020245819323134222,-0.004258603374866164,-0.15696000000000002,-0.35316,9.7119
2494949470,22.16,0.17364280728091586,0.01918116847941768,-0.002129301687433082,-0.40221,-0.49050000000000005,9.770760000000001
2499999975,22.16,0.18748326824923087,0.003193952531149623,-0.004258603374866164,-0.44145,-0.14715,9.79038
2505050480,22.16,0.19708257913519966,0.004258603374866164,-0.005323254218582705,-0.36297,-0.21582,9.751140000000001
2510100985,22.16,0.1555262896452147,-0.007452555906015787,-0.004258603374866164,-0.34335000000000004,-0.50031,9.78057
2515151490,22.16,0.1672549022186166,-0.01064650843716541,-0.002129301687433082,-0.43164,-0.27468000000000004,9.89829
2520201995,22.16,0.18216001403064813,-0.03515093113516579,-0.00958185759344887,-0.21582,-0.35316,9.96696
2525252500,22.16,0.177901410655782,0.011711159280881954,-0.001064650843716541,0.019620000000000002,-0.26487,9.81
2530303005,22.16,0.18854791909294744,0.028763026072866547,0.0,-0.41202000000000005,-0.20601000000000003,9.80019
2535353510,22.16,0.1832246648743647,-0.002129301687433082,-0.002129301687433082,-0.27468000000000004,-0.17658,9.65304
2540404015,22.16,0.19921188082263275,0.01918116847941768,0.0,-0.27468000000000004,-0.039240000000000004,9.69228
2545454520,22.16,0.16831955306233315,0.003193952531149623,0.0,-0.51993,-0.35316,9.81
2550505025,22.16,0.16831955306233315,-0.011711159280881954,-0.005323254218582705,-0.3924,-0.009810000000000001,9.751140000000001
2555555530,22.16,0.18428931571808121,-0.02556907354171693,-0.002129301687433082,-0.31392000000000003,-0.17658,9.908100000000001
2560606035,22.16,0.14700908289548237,-0.02769837522915001,-0.005323254218582705,0.009810000000000001,-0.41202000000000005,9.908100000000001
2565656540,22.16,0.1832246648743647,0.028763026072866547,0.001064650843716541,-0.33354000000000006,-0.08829,9.87867
2570707045,22.16,0.19280652246781357,0.0,-0.003193952531149623,-0.27468000000000004,0.0,9.82962
2575757550,22.16,0.19387117331153014,0.01811651763570114,-0.002129301687433082,-0.08829,0.10791,9.58437
2580808055,22.16,0.16831955306233315,0.02769837522915001,-0.002129301687433082,-0.48069000000000006,-0.17658,9.67266
2585858560,22.16,0.1672549022186166,0.001064650843716541,-0.001064650843716541,-0.52974,0.06867000000000001,9.67266
2590909065,22.16,0.18641861740551433,-0.012775810124598492,-0.005323254218582705,-0.41202000000000005,0.1962,9.72171
2595959570,22.16,0.15233233711406508,-0.028763026072866547,-0.006387905062299246,-0.18639,-0.1962,9.73152
2601010075,22.16,0.14487978120804929,-0.01064650843716541,-0.004258603374866164,-0.20601000000000003,-0.23544,9.86886
2606060580,22.16,0.1757721089683489,0.0,-0.003193952531149623,-0.30411,0.019620000000000002,9.97677
2611111085,22.16,0.19280652246781357,0.003193952531149623,-0.001064650843716541,-0.07848000000000001,0.18639,9.86886
2616161590,22.16,0.177901410655782,0.02556907354171693,-0.005323254218582705,-0.24525000000000002,-0.009810000000000001,9.7119
2621212095,22.16,0.16404349639494703,0.022375121010567305,0.0,-0.44145,0.12753,9.73152
2626262600,22.16,0.18641861740551433,0.003193952531149623,-0.002129301687433082,-0.45126,0.27468000000000004,9.72171
2631313105,22.16,0.16084954386379738,-0.002129301687433082,-0.003193952531149623,-0.28449,0.21582,9.56475
2636363610,22.16,0.15339698795778162,-0.005323254218582705,-0.003193952531149623,-0.37278,0.10791,9.56475
2641414115,22.16,0.1416858286768997,-0.02663372438543347,-0.003193952531149623,-0.22563,-0.0981,9.80019
2646464620,22.16,0.15659094048893124,-0.003193952531149623,-0.001064650843716541,-0.18639,0.18639,9.89829
2651515125,22.16,0.177901410655782,0.002129301687433082,-0.001064650843716541,-0.27468000000000004,0.28449,9.91791
2656565630,22.16,0.15978489302008084,0.0,-0.004258603374866164,-0.0981,0.13734000000000002,9.751140000000001
2661616135,22.16,0.1672549022186166,0.02982767691658309,0.0,-0.40221,0.22563,9.70209
2666666640,22.16,0.15872024217636432,0.0,-0.002129301687433082,-0.44145,0.21582,9.760950000000001
2671717145,22.16,0.16617279808238014,0.001064650843716541,-0.001064650843716541,-0.25506,0.5395500000000001,9.67266
2676767650,22.16,0.16084954386379738,0.006387905062299246,-0.004258603374866164,-0.3924,0.2943,9.633420000000001
2681818155,22.16,0.12463396188491506,-0.023439771854283843,-0.004258603374866164,-0.25506,-0.05886,9.6138
2686868660,22.16,0.1416858286768997,0.015987215948268057,-0.001064650843716541,-0.43164,0.41202000000000005,9.80019
2691919165,22.16,0.17470745812463237,-0.024504422698000388,-0.004258603374866164,-0.32373,0.46107000000000004,9.888480000000001
2696969670,22.16,0.14275047952061623,-0.004258603374866164,-0.004258603374866164,0.11772,0.27468000000000004,9.65304
2702020175,22.16,0.1480737337391989,0.04581489286485115,0.0,-0.49050000000000005,0.3924,9.56475
2707070680,22.16,0.14594443205176583,-0.014905111812031574,-0.004258603374866164,-0.51012,0.28449,9.67266
2712121185,22.16,0.15765559133264778,0.004258603374866164,0.0,-0.17658,0.65727,9.633420000000001
2717171690,22.16,0.14275047952061623,0.008517206749732328,-0.002129301687433082,-0.51993,0.3924,9.65304
2722222195,22.16,0.12037535851004891,-0.024504422698000388,-0.006387905062299246,-0.21582,0.24525000000000002,9.633420000000001
2727272700,22.16,0.13955652698946658,0.008517206749732328,0.002129301687433082,-0.41202000000000005,0.45126,9.73152
2732323205,22.16,0.14275047952061623,-0.01811651763570114,-0.001064650843716541,-0.30411,0.49050000000000005,9.83943
2737373710,22.16,0.1374272253020335,-0.011711159280881954,-0.004258603374866164,0.009810000000000001,0.41202000000000005,9.74133
2742424215,22.16,0.13955652698946658,0.033021629447732716,0.0,-0.35316,0.47088,9.6138
2747474720,22.16,0.13208651779093086,0.002129301687433082,-0.002129301687433082,-0.46107000000000004,0.47088,9.64323
2752525225,22.16,0.1416858286768997,0.005323254218582705,-0.001064650843716541,-0.21582,0.70632,9.64323
2757575730,22.16,0.13421581947836395,0.001064650843716541,0.0,-0.42183,0.51012,9.6138
2762626235,22.16,0.11185815176031658,-0.004258603374866164,-0.002129301687433082,-0.26487,0.51993,9.5157
2767676740,22.16,0.12463396188491506,-0.002129301687433082,0.0,-0.41202000000000005,0.49050000000000005,9.64323
2772727245,22.16,0.11079350091660004,-0.0170518667919846,-0.004258603374866164,-0.27468000000000004,0.46107000000000004,9.73152
2777777750,22.16,0.12676326357234816,-0.004258603374866164,-0.001064650843716541,-0.14715,0.6867000000000001,9.72171
2782828255,22.16,0.12995721610349775,0.00958185759344887,-0.001064650843716541,-0.22563,0.60822,9.72171
2787878760,22.16,0.10759954838545042,0.007452555906015787,-0.004258603374866164,-0.25506,0.41202000000000005,9.60399
2792929265,22.16,0.11185815176031658,0.020245819323134222,-0.003193952531149623,-0.51993,0.7651800000000001,9.59418
2797979770,22.16,0.1288925652597812,-0.01064650843716541,-0.003193952531149623,-0.2943,0.8142300000000001,9.66285
2803030275,22.16,0.10332349171806432,0.001064650843716541,-0.006387905062299246,-0.11772,0.52974,9.50589
2808080780,22.16,0.08735372906231618,0.021310470166850764,0.0,-0.5886,0.51012,9.53532
2813131285,22.16,0.10438814256178083,-0.02982767691658309,-0.004258603374866164,-0.41202000000000005,0.72594,9.73152
2818181790,22.16,0.11931070766633237,-0.015987215948268057,-0.002129301687433082,0.0,0.7749900000000001,9.751140000000001
2823232295,22.16,0.09267698328089889,0.0170518667919846,-0.001064650843716541,-0.24525000000000002,0.42183,9.69228
2828282800,22.16,0.08628907821859966,0.00958185759344887,0.001064650843716541,-0.36297,0.71613,9.633420000000001
2833333305,22.16,0.12569861272863161,-0.003193952531149623,0.0,-0.35316,0.9613800000000001,9.67266
2838383810,22.16,0.10225884087434776,0.0,0.0,-0.13734000000000002,0.6670800000000001,9.56475
2843434315,22.16,0.07243116395776468,0.024504422698000388,0.0,-0.43164,0.6180300000000001,9.50589
2848484820,22.16,0.08735372906231618,-0.005323254218582705,-0.001064650843716541,-0.59841,0.9221400000000001,9.60399
2853535325,22.16,0.10012953918691468,-0.039409534510031964,-0.004258603374866164,-0.14715,0.7749900000000001,9.55494
2858585830,22.16,0.06604325889546543,0.014905111812031574,0.0,-0.08829,0.59841,9.64323
2863636335,22.16,0.07456046564519776,0.006387905062299246,0.0,-0.52974,0.73575,9.68247
2868686840,22.16,0.09693558665576507,-0.021310470166850764,-0.002129301687433082,-0.20601000000000003,0.89271,9.633420000000001
2873737345,22.16,0.08735372906231618,0.007452555906015787,0.0,-0.14715,0.72594,9.64323
2878787850,22.16,0.05965535383316618,0.015987215948268057,0.0,-0.40221,0.6670800000000001,9.66285
2883838355,22.16,0.08096582400001695,0.0,-0.002129301687433082,-0.37278,1.03005,9.58437
2888888860,22.16,0.09267698328089889,0.0,0.0,-0.33354000000000006,0.9123300000000001,9.43722
2893939365,22.16,0.03834488366631542,0.002129301687433082,-0.003193952531149623,-0.24525000000000002,0.5886,9.496080000000001
2898989870,22.16,0.05113814708343386,0.003193952531149623,-0.001064650843716541,-0.5395500000000001,0.8240400000000001,9.633420000000001
2904040375,22.16,0.07670722062515077,-0.024504422698000388,-0.002129301687433082,-0.23544,0.9319500000000001,9.68247
2909090880,22.16,0.05859070298944965,-0.003193952531149623,-0.002129301687433082,-0.02943,0.80442,9.57456
2914141385,22.16,0.04366813788489812,0.022375121010567305,0.002129301687433082,-0.35316,0.73575,9.60399
2919191890,22.16,0.06178465552059926,-0.002129301687433082,-0.001064650843716541,-0.32373,0.95157,9.6138
2924242395,22.16,0.06284930636431581,0.01064650843716541,0.002129301687433082,-0.26487,0.95157,9.53532
2929292900,22.16,0.03834488366631542,0.005323254218582705,0.0,-0.45126,0.7651800000000001,9.53532
2934343405,22.16,0.031956978604016174,-0.013840460968315033,-0.003193952531149623,-0.36297,0.8338500000000001,9.6138
2939393910,22.16,0.05326744877086694,-0.007452555906015787,-0.003193952531149623,-0.25506,0.9319500000000001,9.6138
2944444415,22.16,0.03408628029144926,0.001064650843716541,0.0,-0.26487,0.75537,9.58437
2949494920,22.16,0.031956978604016174,0.00958185759344887,0.0,-0.2943,0.95157,9.58437
2954545425,22.16,0.049008845396000776,-0.004258603374866164,0.0,-0.27468000000000004,0.94176,9.60399
2959595930,22.16,0.031956978604016174,0.003193952531149623,-0.001064650843716541,-0.1962,0.8240400000000001,9.48627
2964646435,22.16,0.022375121010567305,0.022375121010567305,0.003193952531149623,-0.50031,0.94176,9.46665
2969696940,22.16,0.02663372438543347,-0.014905111812031574,-0.003193952531149623,-0.43164,0.95157,9.60399
2974747445,22.16,0.01918116847941768,-0.022375121010567305,-0.002129301687433082,-0.15696000000000002,0.7749900000000001,9.6138
2979797950,22.16,0.00958185759344887,0.012775810124598492,0.002129301687433082,-0.35316,0.80442,9.55494
2984848455,22.16,0.01918116847941768,-0.008517206749732328,-0.001064650843716541,-0.36297,0.9123300000000001,9.68247
2989898960,22.16,0.01918116847941768,-0.003193952531149623,-0.003193952531149623,-0.13734000000000002,0.9319500000000001,9.69228
2994949465,22.16,0.011711159280881954,0.011711159280881954,-0.001064650843716541,-0.32373,0.85347,9.66285
2999999970,22.16,0.002129301687433082,0.002129301687433082,0.0,-0.30411,0.8338500000000001,9.55494
3005050475,22.16,0.013840460968315033,0.011711159280881954,-0.001064650843716541,-0.37278,0.9810000000000001,9.57456
3010100980,22.16,0.004258603374866164,-0.004258603374866164,-0.002129301687433082,-0.41202000000000005,0.90252,9.6138
3015151485,22.16,0.0,-0.01064650843716541,-0.002129301687433082,-0.18639,0.8829,9.58437
3020201990,22.16,0.001064650843716541,0.013840460968315033,0.001064650843716541,-0.32373,0.95157,9.45684
3025252495,22.16,-0.004258603374866164,0.0,0.0,-0.31392000000000003,0.9123300000000001,9.42741
3030303000,22.16,-0.00958185759344887,0.0,0.001064650843716541,-0.30411,0.8142300000000001,9.59418
3035353505,22.16,-0.014905111812031574,-0.007452555906015787,-0.001064650843716541,-0.40221,0.73575,9.80019
3040404010,22.16,-0.00958185759344887,-0.014905111812031574,0.0,-0.31392000000000003,0.89271,9.82962
3045454515,22.16,0.0,-0.005323254218582705,0.0,-0.18639,0.9123300000000001,9.79038
3050505020,22.16,-0.013840460968315033,0.003193952531149623,0.0,-0.17658,0.8142300000000001,9.64323
3055555525,22.16,-0.008517206749732328,0.021310470166850764,0.0,-0.25506,0.9613800000000001,9.50589
3060606030,22.16,-0.003193952531149623,0.022375121010567305,-0.002129301687433082,-0.40221,1.1772,9.28026
3065656535,22.16,-0.01811651763570114,0.004258603374866164,0.0,-0.31392000000000003,1.02024,9.084060000000001
3070707040,22.16,-0.05007349623971732,0.004258603374866164,0.0,-0.45126,0.85347,9.21159
3075757545,22.16,-0.04366813788489812,-0.012775810124598492,-0.001064650843716541,-0.45126,0.89271,9.54513
3080808050,22.16,-0.03089232776029963,-0.021310470166850764,0.0,-0.36297,0.9810000000000001,9.43722
3085858555,22.16,-0.05752605214573309,-0.007452555906015787,0.0,-0.13734000000000002,0.8829,9.39798
3090909060,22.16,-0.06710790973918197,-0.0170518667919846,-0.001064650843716541,-0.31392000000000003,0.63765,9.66285
3095959565,22.16,-0.05539675045830002,-0.001064650843716541,-0.001064650843716541,-0.07848000000000001,0.6278400000000001,9.908100000000001
3101010070,22.16,-0.03515093113516579,0.015987215948268057,0.001064650843716541,-0.47088,0.79461,9.94734
3106060575,22.16,-0.03515093113516579,-0.0,-0.001064650843716541,-0.3924,1.02024,9.91791
3111111080,22.16,-0.0404741853537485,-0.01918116847941768,-0.003193952531149623,-0.10791,0.8142300000000001,9.86886
3116161585,22.16,-0.06497860805174888,0.01918116847941768,-0.001064650843716541,-0.17658,0.48069000000000006,9.78057
3121212090,22.16,-0.05220279792715039,0.03089232776029963,0.002129301687433082,-0.50031,0.9711900000000001,9.53532
3126262595,22.16,-0.011711159280881954,0.002129301687433082,0.0,-0.40221,1.3635900000000003,9.28026
3131313100,22.16,-0.04794419455228423,-0.006387905062299246,0.0,-0.0981,0.8829,9.14292
3136363605,22.16,-0.10759954838545042,0.03408628029144926,0.003193952531149623,-0.44145,0.5395500000000001,9.29007
3141414110,22.16,-0.08415977653116657,-0.01064650843716541,0.003193952531149623,-0.7651800000000001,0.95157,9.48627
3146464615,22.16,-0.05539675045830002,-0.05113814708343386,-0.002129301687433082,-0.14715,1.03005,9.496080000000001
3151515120,22.16,-0.08948303074974927,-0.011711159280881954,0.003193952531149623,0.0,0.51012,9.56475
3156565625,22.16,-0.11398745344774965,0.00958185759344887,0.001064650843716541,-0.28449,0.37278,9.91791
3161616130,22.16,-0.05965535383316618,-0.003193952531149623,0.001064650843716541,-0.35316,1.00062,9.95715
3166666635,22.16,-0.04153883619746504,0.001064650843716541,0.002129301687433082,-0.13734000000000002,0.9319500000000001,9.70209
3171717140,22.16,-0.10119419003063122,0.01064650843716541,0.001064650843716541,-0.23544,0.34335000000000004,9.633420000000001
3176767645,22.16,-0.09693558665576507,0.0170518667919846,0.001064650843716541,-0.57879,0.6180300000000001,9.937529999999999
3181818150,22.16,-0.05220279792715039,-0.022375121010567305,-0.002129301687433082,-0.3924,1.01043,9.82962
3186868655,22.16,-0.06710790973918197,-0.007452555906015787,-0.002129301687433082,-0.019620000000000002,0.84366,9.4176
3191919160,22.16,-0.11079350091660004,0.02982767691658309,0.004258603374866164,-0.28449,0.57879,9.3195
3196969665,22.16,-0.09906488834319814,0.005323254218582705,0.0,-0.47088,0.6670800000000001,9.52551
3202020170,22.16,-0.07243116395776468,0.0,0.001064650843716541,-0.28449,0.9613800000000001,9.47646
3207070675,22.16,-0.09693558665576507,0.0,0.005323254218582705,-0.40221,0.80442,9.358740000000001
3212121180,22.16,-0.12356931104119852,-0.013840460968315033,0.0,-0.26487,0.60822,9.42741
3217171685,22.16,-0.11824605682261582,-0.004258603374866164,0.0,-0.30411,0.46107000000000004,9.70209
3222222190,22.16,-0.11398745344774965,-0.005323254218582705,0.005323254218582705,-0.3924,0.5493600000000001,9.819809999999999
3227272695,22.16,-0.10545279340549739,-0.006387905062299246,0.0,-0.38259000000000004,0.71613,9.770760000000001
3232323200,22.16,-0.10119419003063122,-0.022375121010567305,0.001064650843716541,-0.08829,0.60822,9.888480000000001
3237373705,22.16,-0.1171814059788993,0.011711159280881954,0.0,-0.11772,0.33354000000000006,9.908100000000001
3242424210,22.16,-0.11185815176031658,0.031956978604016174,0.002129301687433082,-0.46107000000000004,0.56898,9.79038
3247474715,22.16,-0.08628907821859966,-0.001064650843716541,0.0,-0.46107000000000004,0.94176,9.623610000000001
3252525220,22.16,-0.10332349171806432,-0.01064650843716541,-0.002129301687433082,-0.07848000000000001,0.75537,9.46665
3257575725,22.16,-0.13849187614575004,0.024504422698000388,0.001064650843716541,-0.27468000000000004,0.2943,9.4176
3262626230,22.16,-0.1374272253020335,0.007452555906015787,0.0,-0.6670800000000001,0.5395500000000001,9.50589
3267676735,22.16,-0.10438814256178083,-0.02769837522915001,-0.003193952531149623,-0.40221,0.9613800000000001,9.5157
3272727240,22.16,-0.12250466019748199,-0.02769837522915001,0.0,0.05886,0.46107000000000004,9.59418
3277777745,22.16,-0.16831955306233315,0.022375121010567305,0.003193952531149623,-0.24525000000000002,0.039240000000000004,9.65304
3282828250,22.16,-0.1416858286768997,0.00958185759344887,0.002129301687433082,-0.6768900000000001,0.50031,9.85905
3287878755,22.16,-0.10012953918691468,-0.03621558197888234,0.0,-0.27468000000000004,0.7848,9.82962
3292929260,22.16,-0.13102186694721432,-0.004258603374866164,0.001064650843716541,0.15696000000000002,0.34335000000000004,9.760950000000001
3297979765,22.16,-0.16404349639494703,0.03728023282259888,0.003193952531149623,-0.40221,0.12753,9.73152
3303030270,22.16,-0.1278279144160647,0.007452555906015787,0.002129301687433082,-0.60822,0.5886,9.7119
3308080775,22.16,-0.09800023749948161,-0.015987215948268057,0.0,-0.28449,0.7651800000000001,9.64323
3313131280,22.16,-0.16084954386379738,-0.004258603374866164,0.0,-0.05886,0.16677000000000003,9.633420000000001
3318181785,22.16,-0.17364280728091586,0.00958185759344887,0.002129301687433082,-0.46107000000000004,0.16677000000000003,9.65304
3323232290,22.16,-0.12995721610349775,-0.005323254218582705,0.002129301687433082,-0.47088,0.60822,9.770760000000001
3328282795,22.16,-0.12995721610349775,-0.02663372438543347,0.0,-0.06867000000000001,0.44145,9.70209
3333333300,22.16,-0.15659094048893124,0.011711159280881954,0.0,-0.15696000000000002,0.25506,9.56475
3338383805,22.16,-0.15233233711406508,0.01811651763570114,0.003193952531149623,-0.44145,0.31392000000000003,9.59418
3343434310,22.16,-0.13849187614575004,0.007452555906015787,0.0,-0.37278,0.40221,9.64323
3348484815,22.16,-0.15872024217636432,-0.006387905062299246,0.0,-0.41202000000000005,0.33354000000000006,9.70209
3353535320,22.16,-0.16191419470751395,-0.023439771854283843,0.0,-0.34335000000000004,0.25506,9.751140000000001
3358585825,22.16,-0.16191419470751395,-0.01918116847941768,0.003193952531149623,-0.10791,0.08829,9.85905
3363636330,22.16,-0.15659094048893124,0.022375121010567305,0.005323254218582705,-0.30411,0.14715,9.80019
3368686835,22.16,-0.1555262896452147,-0.007452555906015787,0.001064650843716541,-0.40221,0.27468000000000004,9.89829
3373737340,22.16,-0.1416858286768997,-0.013840460968315033,0.0,-0.08829,0.2943,9.82962
3378787845,22.16,-0.15765559133264778,0.01918116847941768,0.0,-0.20601000000000003,0.05886,9.68247
3383838350,22.16,-0.16510814723866357,0.024504422698000388,0.001064650843716541,-0.5591700000000001,0.18639,9.52551
3388888855,22.16,-0.14913838458291545,-0.008517206749732328,0.0,-0.50031,0.42183,9.633420000000001
3393939360,22.16,-0.15872024217636432,-0.022375121010567305,0.0,-0.20601000000000003,0.17658,9.66285
3398989865,22.16,-0.19493582415524666,-0.004258603374866164,0.0,-0.14715,-0.17658,9.67266
3404040370,22.16,-0.1704488547497662,0.007452555906015787,0.004258603374866164,-0.5591700000000001,0.14715,9.74133
3409090875,22.16,-0.15233233711406508,-0.03089232776029963,-0.001064650843716541,-0.2943,0.20601000000000003,9.937529999999999
3414141380,22.16,-0.16191419470751395,-0.01064650843716541,0.001064650843716541,0.019620000000000002,-0.019620000000000002,9.85905
3419191885,22.16,-0.1800307123432151,0.02556907354171693,0.0,-0.31392000000000003,-0.12753,9.81
3424242390,22.16,-0.15126768627034853,0.00958185759344887,0.002129301687433082,-0.44145,0.20601000000000003,9.760950000000001
3429292895,22.16,-0.14487978120804929,0.007452555906015787,0.003193952531149623,-0.26487,0.25506,9.751140000000001
3434343400,22.16,-0.17896606149949854,0.0,0.002129301687433082,-0.3924,-0.11772,9.70209
3439393905,22.16,-0.19600047499896323,-0.011711159280881954,0.0,-0.37278,-0.12753,9.68247
3444444410,22.16,-0.15872024217636432,-0.003193952531149623,0.001064650843716541,-0.40221,0.1962,9.73152
3449494915,22.16,-0.1757721089683489,-0.022375121010567305,0.0,-0.13734000000000002,-0.21582,9.84924
3454545420,22.16,-0.19387117331153014,0.005323254218582705,0.001064650843716541,-0.17658,-0.18639,9.87867
3459595925,22.16,-0.16084954386379738,0.007452555906015787,0.0,-0.44145,-0.07848000000000001,9.97677
3464646430,22.16,-0.1704488547497662,-0.023439771854283843,0.0,-0.06867000000000001,-0.22563,9.83943
3469696935,22.16,-0.16084954386379738,0.04260348704118158,0.004258603374866164,-0.31392000000000003,0.18639,9.72171
3474747440,22.16,-0.1672549022186166,-0.006387905062299246,0.0,-0.41202000000000005,-0.15696000000000002,9.78057
3479797945,22.16,-0.1832246648743647,0.004258603374866164,0.003193952531149623,-0.12753,-0.14715,9.52551
3484848450,22.16,-0.1757721089683489,0.01918116847941768,0.006387905062299246,-0.69651,-0.17658,9.69228
3489898955,22.16,-0.19174187162409706,-0.04581489286485115,0.0,-0.36297,-0.1962,9.86886
3494949460,22.16,-0.1704488547497662,-0.015987215948268057,0.0,-0.02943,-0.11772,9.87867
3499999965,22.16,-0.19067722078038052,0.002129301687433082,0.002129301687433082,-0.37278,-0.5886,9.89829
3505050470,22.16,-0.19280652246781357,-0.003193952531149623,0.002129301687433082,-0.24525000000000002,-0.23544,9.83943
3510100975,22.16,-0.13421581947836395,0.015987215948268057,0.003193952531149623,-0.31392000000000003,0.05886,9.91791
3515151480,22.16,-0.17470745812463237,-0.008517206749732328,-0.002129301687433082,-0.039240000000000004,-0.48069000000000006,9.80019
3520201985,22.16,-0.18961256993666398,0.05113814708343386,0.006387905062299246,-0.44145,-0.30411,9.633420000000001
3525252490,22.16,-0.16510814723866357,-0.011711159280881954,0.003193952531149623,-0.7651800000000001,-0.23544,9.85905
3530302995,22.16,-0.17896606149949854,-0.046879543708567686,-0.001064650843716541,-0.009810000000000001,-0.25506,9.85905
3535353500,22.16,-0.1800307123432151,0.012775810124598492,0.005323254218582705,-0.22563,-0.49050000000000005,9.888480000000001
3540404005,22.16,-0.20027653166634932,-0.011711159280881954,0.0,-0.47088,-0.6278400000000001,9.85905
3545454510,22.16,-0.15872024217636432,-0.008517206749732328,0.0,-0.12753,-0.18639,9.81
3550505015,22.16,-0.15978489302008084,0.005323254218582705,0.005323254218582705,-0.1962,-0.49050000000000005,9.91791
3555555520,22.16,-0.18535396656179778,0.01918116847941768,0.003193952531149623,-0.1962,-0.48069000000000006,9.73152
3560606025,22.16,-0.1555262896452147,0.02663372438543347,0.005323254218582705,-0.5493600000000001,-0.26487,9.7119
3565656530,22.16,-0.1672549022186166,-0.012775810124598492,0.0,-0.35316,-0.38259000000000004,9.7119
3570707035,22.16,-0.19280652246781357,-0.00958185759344887,0.0,-0.28449,-0.60822,9.84924
3575757540,22.16,-0.18854791909294744,-0.006387905062299246,0.0,-0.45126,-0.5591700000000001,9.96696
3580808045,22.16,-0.16831955306233315,-0.02982767691658309,0.001064650843716541,-0.17658,-0.5591700000000001,9.95715
3585858550,22.16,-0.17470745812463237,0.001064650843716541,0.003193952531149623,-0.0981,-0.63765,9.95715
3590909055,22.16,-0.1704488547497662,0.008517206749732328,0.003193952531149623,-0.32373,-0.6180300000000001,10.03563
3595959560,22.16,-0.15659094048893124,0.002129301687433082,0.0,-0.15696000000000002,-0.49050000000000005,9.89829
3601010065,22.16,-0.15126768627034853,0.02769837522915001,0.002129301687433082,-0.22563,-0.37278,9.74133
3606060570,22.16,-0.1629788455512305,0.015987215948268057,0.006387905062299246,-0.47088,-0.60822,9.67266
3611111075,22.16,-0.18109536318693162,-0.011711159280881954,0.001064650843716541,-0.3924,-0.59841,9.751140000000001
3616161580,22.16,-0.16404349639494703,-0.011711159280881954,0.003193952531149623,-0.3924,-0.52974,9.85905
3621212085,22.16,-0.17683675981206545,-0.021310470166850764,0.0,-0.24525000000000002,-0.7848,9.82962
3626262590,22.16,-0.1832246648743647,-0.003193952531149623,0.001064650843716541,-0.24525000000000002,-0.75537,9.937529999999999
3631313095,22.16,-0.15978489302008084,-0.00958185759344887,0.003193952531149623,-0.34335000000000004,-0.7848,10.06506
3636363600,22.16,-0.16404349639494703,-0.012775810124598492,0.0,-0.0981,-0.84366,10.03563
3641414105,22.16,-0.14913838458291545,0.03408628029144926,0.005323254218582705,-0.24525000000000002,-0.56898,9.937529999999999
3646464610,22.16,-0.1416858286768997,0.012775810124598492,0.003193952531149623,-0.42183,-0.63765,9.81
3651515115,22.16,-0.16510814723866357,0.001064650843716541,0.0,-0.20601000000000003,-0.79461,9.80019
3656565620,22.16,-0.15872024217636432,0.021310470166850764,0.004258603374866164,-0.51993,-0.65727,9.81
3661616125,22.16,-0.1672549022186166,-0.031956978604016174,-0.001064650843716541,-0.44145,-0.90252,9.87867
3666666630,22.16,-0.16404349639494703,-0.00958185759344887,0.001064650843716541,-0.13734000000000002,-0.65727,9.82962
3671717135,22.16,-0.16084954386379738,-0.002129301687433082,0.0,-0.30411,-1.01043,10.01601
3676767640,22.16,-0.16938420390604966,-0.012775810124598492,0.002129301687433082,-0.1962,-1.01043,9.92772
3681818145,22.16,-0.13421581947836395,0.01811651763570114,0.004258603374866164,-0.28449,-0.60822,9.89829
3686868650,22.16,-0.13955652698946658,-0.0,-0.001064650843716541,-0.25506,-0.8829,9.87867
3691919155,22.16,-0.16191419470751395,0.01811651763570114,0.001064650843716541,-0.17658,-0.9711900000000001,9.79038
3696969660,22.16,-0.14381513036433274,0.01918116847941768,0.003193952531149623,-0.64746,-0.7749900000000001,9.89829
3702020165,22.16,-0.14381513036433274,-0.0404741853537485,-0.001064650843716541,-0.34335000000000004,-0.9613800000000001,9.89829
3707070670,22.16,-0.15872024217636432,-0.004258603374866164,0.002129301687433082,-0.08829,-1.00062,9.89829
3712121175,22.16,-0.1555262896452147,0.0,0.002129301687433082,-0.40221,-1.1281500000000002,10.13373
3717171680,22.16,-0.1374272253020335,-0.022375121010567305,-0.001064650843716541,-0.05886,-0.94176,10.06506
3722222185,22.16,-0.12356931104119852,0.02769837522915001,0.001064650843716541,-0.20601000000000003,-0.8240400000000001,9.94734
3727272690,22.16,-0.13849187614575004,0.00958185759344887,0.002129301687433082,-0.3924,-1.05948,9.91791
3732323195,22.16,-0.13421581947836395,-0.001064650843716541,0.0,-0.28449,-0.85347,9.81
3737373700,22.16,-0.12569861272863161,0.004258603374866164,0.002129301687433082,-0.42183,-0.94176,9.83943
3742424205,22.16,-0.15233233711406508,-0.015987215948268057,0.0,-0.31392000000000003,-1.1477700000000002,9.80019
3747474710,22.16,-0.13955652698946658,-0.007452555906015787,0.003193952531149623,-0.32373,-0.9810000000000001,9.908100000000001
3752525215,22.16,-0.12144000935376545,-0.014905111812031574,0.0,-0.20601000000000003,-1.06929,9.96696
3757575720,22.16,-0.1331511686346474,0.00958185759344887,0.0,-0.07848000000000001,-1.16739,9.888480000000001
3762626225,22.16,-0.12463396188491506,0.023439771854283843,0.002129301687433082,-0.43164,-1.0987200000000001,10.045440000000001
3767676730,22.16,-0.11611675513518273,-0.01811651763570114,0.0,-0.37278,-1.0791000000000002,10.03563
3772727235,22.16,-0.1171814059788993,0.001064650843716541,0.0,-0.14715,-1.01043,9.94734
3777777740,22.16,-0.12144000935376545,0.011711159280881954,0.003193952531149623,-0.40221,-1.21644,9.937529999999999
3782828245,22.16,-0.12676326357234816,-0.00958185759344887,0.0,-0.26487,-1.21644,9.89829
3787878750,22.16,-0.10119419003063122,0.008517206749732328,0.006387905062299246,-0.36297,-0.89271,9.888480000000001
3792929255,22.16,-0.1097288500728835,-0.013840460968315033,0.0,-0.21582,-1.2360600000000002,9.92772
3797979760,22.16,-0.12463396188491506,0.007452555906015787,0.001064650843716541,-0.15696000000000002,-1.24587,9.888480000000001
3803030265,22.16,-0.10332349171806432,0.01918116847941768,0.003193952531149623,-0.50031,-1.19682,10.01601
3808080770,22.16,-0.10759954838545042,-0.02663372438543347,0.0,-0.22563,-1.0791000000000002,10.025820000000001
3813131275,22.16,-0.10012953918691468,0.011711159280881954,0.0,-0.12753,-1.13796,9.94734
3818181780,22.16,-0.11505210429146619,0.007452555906015787,-0.001064650843716541,-0.43164,-1.40283,9.94734
3823232285,22.16,-0.10653489754173388,-0.001064650843716541,0.003193952531149623,-0.30411,-1.0791000000000002,9.86886
3828282790,22.16,-0.07883652231258387,-0.003193952531149623,0.002129301687433082,-0.38259000000000004,-1.02024,9.91791
3833333295,22.16,-0.10653489754173388,-0.012775810124598492,0.0,-0.07848000000000001,-1.46169,9.89829
3838383800,22.16,-0.10545279340549739,0.020245819323134222,0.001064650843716541,-0.23544,-1.2753,9.98658
3843434305,22.16,-0.0756251164889143,0.00958185759344887,0.001064650843716541,-0.5591700000000001,-1.16739,10.01601
3848484810,22.16,-0.09054768159346581,-0.02982767691658309,-0.004258603374866164,-0.06867000000000001,-1.22625,10.006200000000002
3853535315,22.16,-0.0852244273748831,0.022375121010567305,0.0,-0.1962,-1.3635900000000003,10.01601
3858585820,22.16,-0.09587093581204853,0.0,0.004258603374866164,-0.51012,-1.34397,9.91791
3863636325,22.16,-0.07243116395776468,-0.006387905062299246,0.0,-0.30411,-1.0791000000000002,9.87867
3868686830,22.16,-0.07670722062515077,-0.001064650843716541,0.0,-0.26487,-1.29492,9.92772
3873737335,22.16,-0.09054768159346581,-0.00958185759344887,0.0,-0.08829,-1.45188,9.94734
3878787840,22.16,-0.06923721142661506,0.02663372438543347,0.001064650843716541,-0.31392000000000003,-1.10853,9.84924
3883838345,22.16,-0.07136651311404815,-0.001064650843716541,0.001064650843716541,-0.47088,-1.40283,9.908100000000001
3888888850,22.16,-0.07777187146886733,-0.015987215948268057,0.0,-0.15696000000000002,-1.4715,9.99639
3893939355,22.16,-0.06391395720803235,0.007452555906015787,0.001064650843716541,-0.38259000000000004,-1.3047300000000002,10.1043
3898989860,22.16,-0.05752605214573309,-0.006387905062299246,0.0,-0.24525000000000002,-1.24587,10.006200000000002
3904040365,22.16,-0.060720004676882725,0.00958185759344887,0.001064650843716541,-0.2943,-1.3047300000000002,9.85905
3909090870,22.16,-0.06817256058289851,0.0,0.0,-0.41202000000000005,-1.43226,9.99639
3914141375,22.16,-0.05539675045830002,-0.012775810124598492,0.0,-0.22563,-1.31454,9.937529999999999
3919191880,22.16,-0.05113814708343386,0.005323254218582705,0.0,-0.16677000000000003,-1.29492,9.908100000000001
3924242385,22.16,-0.05220279792715039,0.002129301687433082,0.0,-0.28449,-1.4813100000000001,9.96696
3929292890,22.16,-0.05113814708343386,0.001064650843716541,-0.002129301687433082,-0.27468000000000004,-1.34397,10.03563
3934343395,22.16,-0.03515093113516579,0.004258603374866164,0.0,-0.3924,-1.29492,10.01601
3939393900,22.16,-0.04153883619746504,-0.004258603374866164,0.0,-0.2943,-1.40283,9.92772
3944444405,22.16,-0.046879543708567686,-0.002129301687433082,-0.001064650843716541,-0.2943,-1.3832099999999998,9.89829
3949494910,22.16,-0.03408628029144926,-0.002129301687433082,0.0,-0.31392000000000003,-1.2851100000000002,9.908100000000001
3954545415,22.16,-0.03515093113516579,-0.003193952531149623,-0.001064650843716541,-0.13734000000000002,-1.46169,9.89829
3959595920,22.16,-0.0404741853537485,0.015987215948268057,0.0,-0.32373,-1.3832099999999998,9.89829
3964646425,22.16,-0.02663372438543347,-0.007452555906015787,0.0,-0.40221,-1.42245,10.01601
3969696930,22.16,-0.02769837522915001,-0.00958185759344887,0.0,-0.20601000000000003,-1.3243500000000001,10.025820000000001
3974747435,22.16,-0.01918116847941768,0.014905111812031574,0.002129301687433082,-0.33354000000000006,-1.45188,10.074869999999999
3979797940,22.16,-0.02663372438543347,-0.003193952531149623,-0.003193952531149623,-0.3924,-1.50093,10.006200000000002
3984848445,22.16,-0.012775810124598492,-0.001064650843716541,0.002129301687433082,-0.2943,-1.24587,10.01601
3989898950,22.16,-0.004258603374866164,-0.001064650843716541,-0.001064650843716541,-0.27468000000000004,-1.34397,9.94734
3994949455,22.16,-0.02769837522915001,-0.004258603374866164,-0.003193952531149623,-0.10791,-1.5499800000000001,9.92772
3999999960,22.16,-0.012775810124598492,0.022375121010567305,0.001064650843716541,-0.38259000000000004,-1.3243500000000001,9.937529999999999
4005050465,22.16,-0.003193952531149623,-0.008517206749732328,-0.001064650843716541,-0.46107000000000004,-1.3047300000000002,9.86886
4010100970,22.16,-0.003193952531149623,-0.013840460968315033,-0.001064650843716541,-0.13734000000000002,-1.3341600000000002,9.819809999999999
4015151475,22.16,-0.011711159280881954,0.014905111812031574,0.002129301687433082,-0.33354000000000006,-1.58922,9.86886
4020201980,22.16,-0.012775810124598492,-0.002129301687433082,-0.001064650843716541,-0.41202000000000005,-1.43226,9.91791
4025252485,22.16,0.021310470166850764,-0.004258603374866164,0.002129301687433082,-0.30411,-1.21644,10.045440000000001
4030302990,22.16,0.001064650843716541,-0.004258603374866164,-0.003193952531149623,-0.18639,-1.43226,9.99639
4035353495,22.16,-0.006387905062299246,0.008517206749732328,0.0,-0.21582,-1.40283,9.94734
4040404000,22.16,0.011711159280881954,0.007452555906015787,0.001064650843716541,-0.48069000000000006,-1.26549,9.84924
4045454505,22.16,0.004258603374866164,-0.013840460968315033,0.0,-0.22563,-1.5303600000000002,9.81
4050505010,22.16,0.001064650843716541,0.005323254218582705,0.0,-0.24525000000000002,-1.44207,9.92772
4055555515,22.16,0.024504422698000388,0.0,0.001064650843716541,-0.3924,-1.3635900000000003,10.074869999999999
4060606020,22.16,0.020245819323134222,-0.006387905062299246,-0.003193952531149623,-0.17658,-1.50093,10.11411
4065656525,22.16,0.015987215948268057,0.011711159280881954,0.002129301687433082,-0.33354000000000006,-1.5794100000000002,10.19259
4070707030,22.16,0.03515093113516579,-0.003193952531149623,0.0,-0.44145,-1.22625,10.23183
4075757535,22.16,0.04366813788489812,-0.01064650843716541,-0.002129301687433082,-0.1962,-1.39302,10.06506
4080808040,22.16,0.013840460968315033,-0.011711159280881954,0.0,-0.21582,-1.69713,10.006200000000002
4085858545,22.16,0.03408628029144926,-0.004258603374866164,-0.001064650843716541,-0.05886,-1.34397,10.06506
4090909050,22.16,0.06817256058289851,0.020245819323134222,-0.001064650843716541,-0.27468000000000004,-1.24587,9.95715
4095959555,22.16,0.049008845396000776,0.033021629447732716,0.002129301687433082,-0.40221,-1.2753,9.91791
4101010060,22.16,0.031956978604016174,-0.004258603374866164,-0.001064650843716541,-0.7749900000000001,-1.26549,9.819809999999999
4106060565,22.16,0.031956978604016174,-0.05859070298944965,-0.006387905062299246,-0.18639,-1.2556800000000001,9.74133
4111111070,22.16,0.05007349623971732,-0.015987215948268057,-0.003193952531149623,0.28449,-1.68732,9.770760000000001
4116161575,22.16,0.03408628029144926,0.05859070298944965,0.002129301687433082,-0.27468000000000004,-1.42245,9.908100000000001
4121212080,22.16,0.08096582400001695,0.02663372438543347,0.001064650843716541,-0.80442,-0.90252,9.94734
4126262585,22.16,0.06817256058289851,-0.0404741853537485,-0.004258603374866164,-0.33354000000000006,-1.31454,9.99639
4131313090,22.16,0.01918116847941768,-0.02769837522915001,-0.004258603374866164,0.08829,-2.01105,10.143540000000002
4136363595,22.16,0.05646140130201656,0.024504422698000388,0.0,-0.34335000000000004,-1.2360600000000002,10.26126
4141414100,22.16,0.10438814256178083,0.00958185759344887,0.002129301687433082,-0.40221,-0.87309,9.96696
4146464605,22.16,0.07456046564519776,0.006387905062299246,-0.006387905062299246,-0.23544,-1.20663,9.78057
4151515110,22.16,0.01918116847941768,-0.015987215948268057,-0.002129301687433082,-0.36297,-2.05029,10.05525
4156565615,22.16,0.0756251164889143,-0.012775810124598492,0.0,-0.3924,-0.9908100000000001,10.05525
4161616120,22.16,0.11398745344774965,0.0,0.003193952531149623,-0.23544,-0.89271,9.87867
4166666625,22.16,0.06710790973918197,0.004258603374866164,-0.002129301687433082,-0.11772,-1.58922,9.770760000000001
4171717130,22.16,0.05220279792715039,0.01064650843716541,0.002129301687433082,-0.36297,-1.46169,10.08468
4176767635,22.16,0.10332349171806432,-0.007452555906015787,0.0,-0.42183,-0.9123300000000001,10.025820000000001
4181818140,22.16,0.09800023749948161,-0.007452555906015787,-0.004258603374866164,-0.13734000000000002,-1.1477700000000002,9.78057
4186868645,22.16,0.05646140130201656,0.013840460968315033,0.0,-0.34335000000000004,-1.6677000000000002,9.89829
4191919150,22.16,0.08203047484373349,-0.00958185759344887,-0.004258603374866164,-0.48069000000000006,-1.06929,10.05525
4196969655,22.16,0.1171814059788993,-0.013840460968315033,-0.004258603374866164,-0.13734000000000002,-0.94176,9.888480000000001
4202020160,22.16,0.08735372906231618,0.01918116847941768,0.0,-0.10791,-1.3832099999999998,9.770760000000001
4207070665,22.16,0.06710790973918197,0.01918116847941768,-0.001064650843716541,-0.51012,-1.51074,10.045440000000001
4212121170,22.16,0.11185815176031658,-0.02769837522915001,-0.002129301687433082,-0.33354000000000006,-0.9221400000000001,10.143540000000002
4217171675,22.16,0.11931070766633237,-0.014905111812031574,-0.004258603374866164,-0.019620000000000002,-1.1870100000000001,9.97677
4222222180,22.16,0.08309512568745003,0.023439771854283843,0.0,-0.20601000000000003,-1.45188,9.95715
4227272685,22.16,0.10438814256178083,0.015987215948268057,0.0,-0.6768900000000001,-1.0791000000000002,10.06506
4232323190,22.16,0.1278279144160647,-0.033021629447732716,-0.005323254218582705,-0.34335000000000004,-0.9319500000000001,9.97677
4237373695,22.16,0.10332349171806432,-0.003193952531149623,-0.003193952531149623,-0.009810000000000001,-1.26549,9.760950000000001
4242424200,22.16,0.09161233243718235,0.01918116847941768,-0.004258603374866164,-0.28449,-1.22625,9.85905
4247474705,22.16,0.12569861272863161,0.004258603374866164,-0.003193952531149623,-0.42183,-0.94176,9.85905
4252525210,22.16,0.11931070766633237,-0.006387905062299246,-0.003193952531149623,-0.27468000000000004,-1.0987200000000001,9.83943
4257575715,22.16,0.10119419003063122,-0.00958185759344887,-0.004258603374866164,-0.23544,-1.31454,9.98658
4262626220,22.16,0.11931070766633237,-0.001064650843716541,-0.003193952531149623,-0.30411,-1.08891,10.01601
4267676725,22.16,0.1374272253020335,0.00958185759344887,-0.002129301687433082,-0.34335000000000004,-1.01043,10.01601
4272727230,22.16,0.12037535851004891,0.0,-0.001064650843716541,-0.30411,-1.03986,9.97677
4277777735,22.16,0.11611675513518273,-0.013840460968315033,-0.004258603374866164,-0.32373,-0.9613800000000001,9.92772
4282828240,22.16,0.13102186694721432,-0.003193952531149623,-0.002129301687433082,-0.15696000000000002,-1.04967,9.84924
4287878745,22.16,0.12250466019748199,0.011711159280881954,-0.003193952531149623,-0.24525000000000002,-1.21644,9.908100000000001
4292929250,22.16,0.1278279144160647,0.014905111812031574,-0.002129301687433082,-0.47088,-0.85347,9.937529999999999
4297979755,22.16,0.15126768627034853,-0.023439771854283843,-0.006387905062299246,-0.31392000000000003,-0.90252,9.97677
4303030260,22.16,0.12250466019748199,-0.011711159280881954,-0.003193952531149623,-0.039240000000000004,-1.3537800000000002,9.91791
4308080765,22.16,0.12356931104119852,0.028763026072866547,-0.002129301687433082,-0.41202000000000005,-1.00062,10.06506
4313131270,22.16,0.16617279808238014,-0.002129301687433082,0.0,-0.51012,-0.56898,9.95715
4318181775,22.16,0.16191419470751395,-0.021310470166850764,-0.005323254218582705,0.039240000000000004,-0.72594,9.69228
4323232280,22.16,0.10332349171806432,0.024504422698000388,-0.002129301687433082,-0.22563,-1.42245,9.78057
4328282785,22.16,0.11931070766633237,0.012775810124598492,-0.003193952531149623,-0.56898,-0.87309,10.03563
4333333290,22.16,0.18216001403064813,-0.03515093113516579,-0.002129301687433082,-0.30411,-0.60822,10.05525
4338383795,22.16,0.14913838458291545,-0.011711159280881954,0.0,0.02943,-0.9711900000000001,9.80019
4343434300,22.16,0.11185815176031658,0.01811651763570114,-0.001064650843716541,-0.27468000000000004,-1.2360600000000002,10.05525
4348484805,22.16,0.16510814723866357,0.002129301687433082,-0.005323254218582705,-0.44145,-0.7848,10.08468
4353535310,22.16,0.18109536318693162,0.004258603374866164,-0.004258603374866164,-0.16677000000000003,-0.5886,9.92772
4358585815,22.16,0.14275047952061623,0.01811651763570114,-0.001064650843716541,-0.25506,-0.8338500000000001,9.86886
4363636320,22.16,0.13208651779093086,-0.005323254218582705,-0.002129301687433082,-0.40221,-0.86328,9.81
4368686825,22.16,0.15233233711406508,-0.014905111812031574,-0.004258603374866164,-0.25506,-0.80442,9.78057
4373737330,22.16,0.16191419470751395,0.00958185759344887,0.0,-0.31392000000000003,-0.72594,9.819809999999999
4378787835,22.16,0.1480737337391989,-0.004258603374866164,-0.005323254218582705,-0.33354000000000006,-0.8338500000000001,10.006200000000002
4383838340,22.16,0.15659094048893124,-0.008517206749732328,-0.005323254218582705,-0.22563,-0.6670800000000001,9.94734
4388888845,22.16,0.16617279808238014,0.001064650843716541,-0.002129301687433082,-0.23544,-0.86328,10.006200000000002
4393939350,22.16,0.15126768627034853,0.011711159280881954,0.0,-0.32373,-0.75537,9.937529999999999
4398989855,22.16,0.17896606149949854,0.00958185759344887,-0.001064650843716541,-0.42183,-0.44145,9.87867
4404040360,22.16,0.1672549022186166,-0.01918116847941768,-0.005323254218582705,-0.18639,-0.6670800000000001,9.81
4409090865,22.16,0.14487978120804929,0.015987215948268057,-0.004258603374866164,-0.10791,-0.8240400000000001,9.80019
4414141370,22.16,0.15765559133264778,0.020245819323134222,-0.001064650843716541,-0.5886,-0.6278400000000001,9.92772
4419191875,22.16,0.17683675981206545,-0.028763026072866547,-0.006387905062299246,-0.34335000000000004,-0.45126,9.87867
4424242380,22.16,0.1672549022186166,-0.007452555906015787,-0.003193952531149623,-0.10791,-0.6278400000000001,9.83943
4429292885,22.16,0.14594443205176583,0.007452555906015787,0.0,-0.33354000000000006,-0.86328,9.96696
4434343390,22.16,0.16510814723866357,-0.003193952531149623,-0.002129301687433082,-0.30411,-0.52974,10.01601
4439393895,22.16,0.20559978588493202,0.00958185759344887,0.0,-0.24525000000000002,-0.20601000000000003,9.84924
4444444400,22.16,0.16084954386379738,-0.007452555906015787,-0.006387905062299246,-0.10791,-0.74556,9.79038
4449494905,22.16,0.14913838458291545,0.028763026072866547,-0.002129301687433082,-0.34335000000000004,-0.50031,9.7119
4454545410,22.16,0.1800307123432151,-0.001064650843716541,-0.002129301687433082,-0.56898,-0.44145,9.91791
4459595915,22.16,0.17151350559348277,-0.011711159280881954,-0.006387905062299246,-0.14715,-0.40221,9.74133
4464646420,22.16,0.16831955306233315,0.00958185759344887,-0.001064650843716541,-0.44145,-0.50031,9.82962
4469696925,22.16,0.14913838458291545,-0.031956978604016174,-0.006387905062299246,-0.30411,-0.75537,10.03563
4474747430,22.16,0.17257815643719931,-0.002129301687433082,-0.003193952531149623,-0.06867000000000001,-0.34335000000000004,10.006200000000002
4479797935,22.16,0.19067722078038052,0.007452555906015787,-0.005323254218582705,-0.36297,-0.41202000000000005,9.96696
4484848440,22.16,0.16938420390604966,0.001064650843716541,-0.003193952531149623,-0.02943,-0.3924,9.73152
4489898945,22.16,0.18109536318693162,0.031956978604016174,0.0,-0.37278,-0.32373,9.80019
4494949450,22.16,0.17470745812463237,-0.001064650843716541,-0.005323254218582705,-0.48069000000000006,-0.40221,9.79038
4499999955,22.16,0.18109536318693162,0.006387905062299246,0.0,-0.22563,-0.0981,9.69228
4505050460,22.16,0.17683675981206545,0.001064650843716541,-0.002129301687433082,-0.5395500000000001,-0.36297,9.81
4510100965,22.16,0.14381513036433274,-0.03621558197888234,-0.002129301687433082,-0.1962,-0.56898,9.84924
4515151470,22.16,0.17470745812463237,0.004258603374866164,-0.002129301687433082,-0.35316,-0.20601000000000003,9.99639
4520201975,22.16,0.17683675981206545,-0.023439771854283843,-0.003193952531149623,-0.20601000000000003,-0.41202000000000005,10.03563
4525252480,22.16,0.1832246648743647,0.014905111812031574,-0.001064650843716541,0.0,-0.10791,9.770760000000001
4530302985,22.16,0.18854791909294744,0.02663372438543347,0.0,-0.42183,-0.23544,9.82962
4535353490,22.16,0.17151350559348277,0.0,-0.002129301687433082,-0.24525000000000002,-0.21582,9.69228
4540403995,22.16,0.19280652246781357,0.024504422698000388,0.0,-0.50031,0.009810000000000001,9.69228
4545454500,22.16,0.1672549022186166,-0.014905111812031574,-0.007452555906015787,-0.3924,-0.13734000000000002,9.760950000000001
4550505005,22.16,0.15978489302008084,-0.01064650843716541,-0.004258603374866164,-0.1962,-0.1962,9.72171
4555555510,22.16,0.15446163880149816,-0.01064650843716541,-0.002129301687433082,-0.43164,-0.40221,9.87867
4560606015,22.16,0.16617279808238014,-0.01811651763570114,-0.003193952531149623,-0.1962,-0.14715,9.937529999999999
4565656520,22.16,0.19174187162409706,0.004258603374866164,-0.001064650843716541,-0.13734000000000002,0.0,9.92772
4570707025,22.16,0.17683675981206545,0.01064650843716541,-0.001064650843716541,-0.18639,-0.1962,9.78057
4575757530,22.16,0.17151350559348277,0.03089232776029963,0.0,-0.30411,-0.039240000000000004,9.73152
4580808035,22.16,0.18428931571808121,0.011711159280881954,-0.003193952531149623,-0.52974,0.13734000000000002,9.751140000000001
4585858540,22.16,0.18109536318693162,-0.005323254218582705,-0.001064650843716541,-0.32373,0.04905,9.69228
4590909045,22.16,0.15233233711406508,-0.006387905062299246,0.0,-0.43164,-0.11772,9.72171
4595959550,22.16,0.14700908289548237,-0.021310470166850764,-0.003193952531149623,-0.3924,-0.13734000000000002,9.89829
4601010055,22.16,0.1757721089683489,-0.01811651763570114,-0.005323254218582705,-0.12753,0.05886,9.908100000000001
4606060560,22.16,0.1704488547497662,0.007452555906015787,-0.002129301687433082,-0.10791,-0.07848000000000001,9.82962
4611111065,22.16,0.16831955306233315,0.02769837522915001,-0.002129301687433082,-0.31392000000000003,0.13734000000000002,9.70209
4616161570,22.16,0.1757721089683489,0.004258603374866164,-0.002129301687433082,-0.38259000000000004,0.11772,9.760950000000001
4621212075,22.16,0.17364280728091586,0.01064650843716541,-0.003193952531149623,-0.31392000000000003,0.1962,9.633420000000001
4626262580,22.16,0.16191419470751395,0.012775810124598492,-0.002129301687433082,-0.47088,0.13734000000000002,9.67266
4631313085,22.16,0.15233233711406508,-0.012775810124598492,-0.005323254218582705,-0.41202000000000005,0.17658,9.66285
4636363590,22.16,0.15872024217636432,-0.0170518667919846,-0.005323254218582705,-0.2943,0.05886,9.760950000000001
4641414095,22.16,0.1416858286768997,-0.014905111812031574,-0.004258603374866164,-0.24525000000000002,-0.11772,9.87867
4646464600,22.16,0.15978489302008084,0.0,-0.002129301687433082,-0.21582,0.24525000000000002,9.92772
4651515105,22.16,0.18428931571808121,0.006387905062299246,-0.004258603374866164,-0.21582,0.34335000000000004,9.82962
4656565610,22.16,0.15872024217636432,0.013840460968315033,-0.004258603374866164,-0.14715,0.04905,9.65304
4661616115,22.16,0.150203035426632,0.031956978604016174,-0.002129301687433082,-0.52974,0.25506,9.66285
4666666620,22.16,0.17151350559348277,-0.00958185759344887,-0.003193952531149623,-0.52974,0.3924,9.74133
4671717125,22.16,0.15978489302008084,-0.013840460968315033,-0.003193952531149623,-0.0981,0.31392000000000003,9.6138
4676767630,22.16,0.13849187614575004,0.00958185759344887,0.0,-0.38259000000000004,0.15696000000000002,9.60399
4681818135,22.16,0.1374272253020335,-0.022375121010567305,-0.004258603374866164,-0.36297,0.08829,9.80019
4686868640,22.16,0.16404349639494703,-0.005323254218582705,-0.004258603374866164,-0.12753,0.47088,9.83943
4691919145,22.16,0.16510814723866357,0.008517206749732328,0.0,-0.20601000000000003,0.30411,9.751140000000001
4696969650,22.16,0.1352804703220805,0.006387905062299246,-0.005323254218582705,-0.20601000000000003,0.20601000000000003,9.6138
4702020155,22.16,0.15339698795778162,0.023439771854283843,-0.001064650843716541,-0.46107000000000004,0.5395500000000001,9.65304
4707070660,22.16,0.1629788455512305,-0.005323254218582705,-0.002129301687433082,-0.36297,0.46107000000000004,9.68247
4712121165,22.16,0.1278279144160647,0.002129301687433082,-0.003193952531149623,-0.1962,0.33354000000000006,9.65304
4717171670,22.16,0.12995721610349775,0.004258603374866164,0.0,-0.5591700000000001,0.38259000000000004,9.70209
4722222175,22.16,0.13955652698946658,-0.03834488366631542,-0.003193952531149623,-0.22563,0.28449,9.79038
4727272680,22.16,0.14062117783318315,0.001064650843716541,-0.001064650843716541,-0.039240000000000004,0.40221,9.85905
4732323185,22.16,0.14381513036433274,0.01811651763570114,0.0,-0.38259000000000004,0.49050000000000005,9.81
4737373690,22.16,0.1480737337391989,-0.002129301687433082,-0.006387905062299246,-0.22563,0.5591700000000001,9.55494
4742424195,22.16,0.14381513036433274,0.02663372438543347,-0.002129301687433082,-0.30411,0.49050000000000005,9.56475
4747474700,22.16,0.12144000935376545,0.00958185759344887,-0.002129301687433082,-0.47088,0.50031,9.67266
4752525205,22.16,0.13421581947836395,-0.015987215948268057,-0.004258603374866164,-0.36297,0.71613,9.59418
4757575710,22.16,0.1352804703220805,-0.00958185759344887,-0.004258603374866164,-0.25506,0.57879,9.5157
4762626215,22.16,0.09587093581204853,-0.01064650843716541,-0.006387905062299246,-0.26487,0.21582,9.65304
4767676720,22.16,0.11292280260403312,0.0,-0.002129301687433082,-0.40221,0.5886,9.82962
4772727225,22.16,0.150203035426632,-0.015987215948268057,0.0,-0.21582,0.6278400000000001,9.82962
4777777730,22.16,0.11292280260403312,0.008517206749732328,-0.003193952531149623,-0.02943,0.51012,9.68247
4782828235,22.16,0.12144000935376545,0.02982767691658309,-0.002129301687433082,-0.49050000000000005,0.5493600000000001,9.68247
4787878740,22.16,0.12463396188491506,-0.012775810124598492,-0.004258603374866164,-0.35316,0.6180300000000001,9.70209
4792929245,22.16,0.11611675513518273,0.00958185759344887,0.0,-0.22563,0.73575,9.65304
4797979750,22.16,0.10759954838545042,0.003193952531149623,-0.001064650843716541,-0.46107000000000004,0.69651,9.47646
4803030255,22.16,0.11505210429146619,-0.013840460968315033,-0.003193952531149623,-0.22563,0.59841,9.44703
4808080760,22.16,0.10012953918691468,0.00958185759344887,0.0,-0.28449,0.52974,9.70209
4813131265,22.16,0.09267698328089889,-0.005323254218582705,-0.002129301687433082,-0.49050000000000005,0.63765,9.78057
4818181770,22.16,0.1171814059788993,-0.020245819323134222,-0.003193952531149623,-0.1962,0.89271,9.64323
4823232275,22.16,0.11611675513518273,0.006387905062299246,0.0,-0.11772,0.60822,9.55494
4828282780,22.16,0.07456046564519776,0.015987215948268057,0.0,-0.36297,0.38259000000000004,9.633420000000001
4833333285,22.16,0.10332349171806432,0.004258603374866164,0.0,-0.51012,0.9908100000000001,9.74133
4838383790,22.16,0.12676326357234816,-0.022375121010567305,-0.006387905062299246,-0.17658,0.9221400000000001,9.633420000000001
4843434295,22.16,0.07777187146886733,0.013840460968315033,-0.003193952531149623,-0.05886,0.50031,9.40779
4848484800,22.16,0.07243116395776468,0.02663372438543347,0.0,-0.71613,0.60822,9.57456
4853535305,22.16,0.09906488834319814,-0.03728023282259888,-0.002129301687433082,-0.34335000000000004,0.9221400000000001,9.79038
4858585810,22.16,0.09906488834319814,-0.013840460968315033,-0.003193952531149623,0.05886,0.80442,9.64323
4863636315,22.16,0.06710790973918197,0.023439771854283843,0.0,-0.33354000000000006,0.48069000000000006,9.56475
4868686820,22.16,0.07777187146886733,0.001064650843716541,0.0,-0.3924,0.7848,9.65304
4873737325,22.16,0.1097288500728835,0.002129301687433082,0.0,-0.25506,1.03005,9.73152
4878787830,22.16,0.06923721142661506,-0.003193952531149623,-0.004258603374866164,-0.17658,0.64746,9.60399
4883838335,22.16,0.060720004676882725,0.014905111812031574,0.0,-0.32373,0.7749900000000001,9.4176
4888888840,22.16,0.08309512568745003,0.006387905062299246,-0.001064650843716541,-0.51993,0.9810000000000001,9.54513
4893939345,22.16,0.06284930636431581,-0.021310470166850764,-0.003193952531149623,-0.21582,0.6768900000000001,9.623610000000001
4898989850,22.16,0.049008845396000776,0.011711159280881954,-0.001064650843716541,-0.38259000000000004,0.72594,9.633420000000001
4904040355,22.16,0.06604325889546543,-0.021310470166850764,-0.002129301687433082,-0.40221,0.84366,9.760950000000001
4909090860,22.16,0.07136651311404815,0.0,-0.002129301687433082,0.0,0.9123300000000001,9.57456
4914141365,22.16,0.05326744877086694,0.02982767691658309,0.0,-0.34335000000000004,0.70632,9.54513
4919191870,22.16,0.05539675045830002,-0.001064650843716541,0.0,-0.45126,0.94176,9.57456
4924242375,22.16,0.06923721142661506,-0.004258603374866164,-0.003193952531149623,-0.22563,0.94176,9.56475
4929292880,22.16,0.03728023282259888,0.00958185759344887,-0.004258603374866164,-0.42183,0.72594,9.52551
4934343385,22.16,0.031956978604016174,-0.006387905062299246,-0.001064650843716541,-0.41202000000000005,0.8142300000000001,9.623610000000001
4939393890,22.16,0.05113814708343386,-0.02663372438543347,-0.003193952531149623,-0.27468000000000004,0.89271,9.74133
4944444395,22.16,0.049008845396000776,0.0,0.0,-0.11772,0.8142300000000001,9.64323
4949494900,22.16,0.03089232776029963,0.020245819323134222,0.0,-0.25506,0.7749900000000001,9.53532
4954545405,22.16,0.044732788728614664,0.00958185759344887,0.001064650843716541,-0.43164,1.02024,9.54513
4959595910,22.16,0.046879543708567686,-0.007452555906015787,-0.002129301687433082,-0.22563,1.00062,9.53532
4964646415,22.16,0.021310470166850764,0.012775810124598492,0.001064650843716541,-0.24525000000000002,0.8142300000000001,9.47646
4969696920,22.16,0.015987215948268057,0.004258603374866164,0.0,-0.5395500000000001,0.89271,9.50589
4974747425,22.16,0.02769837522915001,-0.02769837522915001,-0.002129301687433082,-0.31392000000000003,0.95157,9.56475
4979797930,22.16,0.021310470166850764,-0.005323254218582705,-0.003193952531149623,-0.15696000000000002,0.80442,9.6138
4984848435,22.16,0.006387905062299246,0.003193952531149623,0.001064650843716541,-0.25506,0.6670800000000001,9.74133
4989898940,22.16,0.01918116847941768,0.004258603374866164,0.0,-0.38259000000000004,1.03986,9.633420000000001
4994949445,22.16,0.046879543708567686,-0.002129301687433082,0.001064650843716541,-0.26487,1.01043,9.623610000000001
4999999950,22.16,0.001064650843716541,0.003193952531149623,0.0,-0.17658,0.64746,9.60399
5005050455,22.16,-0.002129301687433082,0.021310470166850764,0.001064650843716541,-0.50031,0.95157,9.59418
5010100960,22.16,0.02769837522915001,-0.020245819323134222,0.0,-0.42183,1.1183400000000001,9.57456
5015151465,22.16,0.012775810124598492,-0.00958185759344887,-0.001064650843716541,-0.009810000000000001,0.9711900000000001,9.37836
5020201970,22.16,-0.021310470166850764,0.031956978604016174,0.001064650843716541,-0.3924,0.69651,9.44703
5025252475,22.16,-0.011711159280881954,-0.006387905062299246,-0.001064650843716541,-0.57879,0.9810000000000001,9.54513
5030302980,22.16,0.0170518667919846,-0.02556907354171693,0.0,-0.16677000000000003,1.04967,9.623610000000001
5035353485,22.16,-0.014905111812031574,-0.002129301687433082,0.002129301687433082,-0.24525000000000002,0.5886,9.751140000000001
5040403990,22.16,-0.03515093113516579,-0.003193952531149623,0.002129301687433082,-0.40221,0.60822,9.92772
5045454495,22.16,0.023439771854283843,-0.01064650843716541,0.002129301687433082,-0.34335000000000004,1.1477700000000002,9.96696
5050505000,22.16,0.012775810124598492,-0.005323254218582705,-0.002129301687433082,0.0,0.89271,9.69228
5055555505,22.16,-0.021310470166850764,0.04581489286485115,0.0,-0.20601000000000003,0.86328,9.40779
5060606010,22.16,-0.008517206749732328,0.022375121010567305,0.0,-0.69651,1.02024,9.39798
5065656515,22.16,-0.005323254218582705,-0.024504422698000388,-0.002129301687433082,-0.28449,1.05948,9.3195
5070707020,22.16,-0.02663372438543347,0.007452555906015787,0.0,-0.20601000000000003,1.00062,9.2214
5075757525,22.16,-0.04366813788489812,0.001064650843716541,-0.001064650843716541,-0.38259000000000004,0.89271,9.27045
5080808030,22.16,-0.03621558197888234,-0.006387905062299246,0.0,-0.21582,0.87309,9.33912
5085858535,22.16,-0.03515093113516579,0.01918116847941768,0.002129301687433082,-0.50031,1.01043,9.38817
5090909040,22.16,-0.05752605214573309,-0.028763026072866547,-0.001064650843716541,-0.32373,0.89271,9.5157
5095959545,22.16,-0.049008845396000776,-0.0170518667919846,0.002129301687433082,-0.1962,0.7848,9.56475
5101010050,22.16,-0.06391395720803235,-0.004258603374866164,0.0,-0.30411,0.5493600000000001,9.81
5106060555,22.16,-0.049008845396000776,0.0,0.0,-0.35316,0.72594,10.006200000000002
5111111060,22.16,-0.03089232776029963,-0.005323254218582705,0.001064650843716541,-0.32373,1.06929,10.006200000000002
5116161565,22.16,-0.03621558197888234,-0.00958185759344887,-0.002129301687433082,-0.07848000000000001,0.6867000000000001,9.82962
5121212070,22.16,-0.06817256058289851,0.02556907354171693,0.0,-0.23544,0.5886,9.73152
5126262575,22.16,-0.0404741853537485,0.023439771854283843,0.003193952531149623,-0.52974,0.9319500000000001,9.67266
5131313080,22.16,-0.02556907354171693,-0.014905111812031574,-0.004258603374866164,-0.2943,1.20663,9.39798
5136363585,22.16,-0.04260348704118158,0.01918116847941768,0.0,-0.05886,0.9711900000000001,9.24102
5141414090,22.16,-0.09800023749948161,0.015987215948268057,0.0,-0.45126,0.59841,9.28026
5146464595,22.16,-0.07243116395776468,0.0,0.001064650843716541,-0.59841,0.9908100000000001,9.27045
5151515100,22.16,-0.05752605214573309,-0.033021629447732716,-0.001064650843716541,-0.27468000000000004,1.03005,9.44703
5156565605,22.16,-0.09054768159346581,-0.005323254218582705,0.0,-0.019620000000000002,0.6278400000000001,9.42741
5161616110,22.16,-0.10866419922916695,0.005323254218582705,0.0,-0.43164,0.51012,9.64323
5166666615,22.16,-0.06923721142661506,-0.008517206749732328,0.001064650843716541,-0.45126,0.8240400000000001,9.84924
5171717120,22.16,-0.07136651311404815,-0.015987215948268057,0.0,-0.07848000000000001,0.8240400000000001,9.92772
5176767625,22.16,-0.0852244273748831,0.015987215948268057,0.001064650843716541,-0.23544,0.5591700000000001,9.86886
5181818130,22.16,-0.09693558665576507,0.001064650843716541,0.0,-0.47088,0.50031,9.85905
5186868635,22.16,-0.060720004676882725,0.003193952531149623,0.0,-0.40221,0.89271,9.82962
5191919140,22.16,-0.06923721142661506,-0.008517206749732328,-0.001064650843716541,-0.17658,0.86328,9.70209
5196969645,22.16,-0.08735372906231618,0.014905111812031574,0.0,-0.039240000000000004,0.75537,9.43722
5202020150,22.16,-0.09267698328089889,0.03089232776029963,0.003193952531149623,-0.41202000000000005,0.65727,9.29007
5207070655,22.16,-0.09267698328089889,0.008517206749732328,0.002129301687433082,-0.5395500000000001,0.8829,9.29988
5212121160,22.16,-0.10119419003063122,-0.01811651763570114,-0.002129301687433082,-0.36297,0.84366,9.42741
5217171665,22.16,-0.11398745344774965,-0.020245819323134222,0.002129301687433082,-0.22563,0.60822,9.45684
5222222170,22.16,-0.12037535851004891,-0.008517206749732328,0.001064650843716541,-0.24525000000000002,0.48069000000000006,9.60399
5227272675,22.16,-0.11292280260403312,0.0,0.001064650843716541,-0.38259000000000004,0.51993,9.74133
5232323180,22.16,-0.10012953918691468,-0.011711159280881954,0.002129301687433082,-0.26487,0.72594,9.87867
5237373685,22.16,-0.10225884087434776,-0.01811651763570114,0.0,-0.05886,0.59841,9.937529999999999
5242424190,22.16,-0.10759954838545042,0.02556907354171693,0.005323254218582705,-0.18639,0.48069000000000006,9.751140000000001
5247474695,22.16,-0.10759954838545042,0.024504422698000388,0.004258603374866164,-0.50031,0.5886,9.74133
5252525200,22.16,-0.10332349171806432,-0.006387905062299246,0.0,-0.41202000000000005,0.79461,9.69228
5257575705,22.16,-0.11292280260403312,-0.014905111812031574,-0.001064650843716541,-0.21582,0.6180300000000001,9.6138
5262626210,22.16,-0.12569861272863161,0.004258603374866164,0.001064650843716541,-0.21582,0.42183,9.52551
5267676715,22.16,-0.12463396188491506,0.013840460968315033,0.002129301687433082,-0.41202000000000005,0.57879,9.5157
5272727220,22.16,-0.11398745344774965,-0.002129301687433082,0.0,-0.38259000000000004,0.73575,9.59418
5277777725,22.16,-0.12569861272863161,-0.014905111812031574,-0.001064650843716541,-0.17658,0.56898,9.55494
5282828230,22.16,-0.1374272253020335,0.013840460968315033,0.001064650843716541,-0.16677000000000003,0.42183,9.5157
5287878735,22.16,-0.14062117783318315,0.012775810124598492,0.001064650843716541,-0.52974,0.45126,9.57456
5292929240,22.16,-0.1288925652597812,-0.00958185759344887,0.002129301687433082,-0.3924,0.73575,9.66285
5297979745,22.16,-0.13421581947836395,-0.02982767691658309,-0.002129301687433082,-0.14715,0.38259000000000004,9.79038
5303030250,22.16,-0.1629788455512305,0.004258603374866164,0.0,-0.1962,0.12753,9.770760000000001
5308080755,22.16,-0.14487978120804929,0.00958185759344887,0.004258603374866164,-0.52974,0.40221,9.89829
5313131260,22.16,-0.11292280260403312,-0.022375121010567305,0.0,-0.27468000000000004,0.64746,9.89829
5318181765,22.16,-0.1278279144160647,-0.006387905062299246,0.001064650843716541,0.04905,0.3924,9.72171
5323232270,22.16,-0.15126768627034853,0.039409534510031964,0.003193952531149623,-0.33354000000000006,0.1962,9.623610000000001
5328282775,22.16,-0.14487978120804929,0.01811651763570114,0.002129301687433082,-0.56898,0.59841,9.623610000000001
5333333280,22.16,-0.11931070766633237,-0.013840460968315033,0.0,-0.37278,0.6867000000000001,9.57456
5338383785,22.16,-0.16510814723866357,-0.01918116847941768,0.003193952531149623,-0.14715,0.12753,9.53532
5343434290,22.16,-0.17683675981206545,0.008517206749732328,0.004258603374866164,-0.35316,0.17658,9.633420000000001
5348484795,22.16,-0.14062117783318315,-0.005323254218582705,0.0,-0.50031,0.37278,9.80019
5353535300,22.16,-0.14487978120804929,-0.024504422698000388,0.0,-0.11772,0.30411,9.74133
5358585805,22.16,-0.15872024217636432,0.006387905062299246,0.001064650843716541,-0.21582,0.1962,9.79038
5363636310,22.16,-0.16084954386379738,0.0,0.003193952531149623,-0.33354000000000006,0.13734000000000002,9.819809999999999
5368686815,22.16,-0.13634512116579703,0.015987215948268057,0.001064650843716541,-0.24525000000000002,0.45126,9.70209
5373737320,22.16,-0.13955652698946658,0.01064650843716541,0.005323254218582705,-0.43164,0.35316,9.67266
5378787825,22.16,-0.17257815643719931,-0.013840460968315033,0.001064650843716541,-0.27468000000000004,0.12753,9.623610000000001
5383838330,22.16,-0.1704488547497662,0.0,0.001064650843716541,-0.36297,0.11772,9.72171
5388888835,22.16,-0.16191419470751395,-0.006387905062299246,0.005323254218582705,-0.3924,0.18639,9.770760000000001
5393939340,22.16,-0.16191419470751395,-0.015987215948268057,0.0,-0.17658,0.1962,9.83943
5398989845,22.16,-0.1629788455512305,0.003193952531149623,0.0,-0.21582,0.16677000000000003,9.80019
5404040350,22.16,-0.16510814723866357,0.0,0.0,-0.20601000000000003,0.02943,9.73152
5409090855,22.16,-0.15446163880149816,0.02556907354171693,0.005323254218582705,-0.33354000000000006,0.24525000000000002,9.6138
5414141360,22.16,-0.15446163880149816,0.007452555906015787,0.003193952531149623,-0.51012,0.20601000000000003,9.67266
5419191865,22.16,-0.177901410655782,-0.0170518667919846,0.0,-0.2943,0.05886,9.70209
5424242370,22.16,-0.1800307123432151,-0.008517206749732328,0.001064650843716541,-0.33354000000000006,-0.05886,9.78057
5429292875,22.16,-0.17364280728091586,-0.006387905062299246,0.005323254218582705,-0.36297,-0.009810000000000001,9.82962
5434343380,22.16,-0.16831955306233315,-0.01064650843716541,0.003193952531149623,-0.20601000000000003,0.019620000000000002,9.937529999999999
5439393885,22.16,-0.16510814723866357,-0.001064650843716541,0.004258603374866164,-0.24525000000000002,-0.039240000000000004,9.95715
5444444390,22.16,-0.17257815643719931,-0.007452555906015787,0.0,-0.22563,-0.20601000000000003,9.81
5449494895,22.16,-0.15978489302008084,0.028763026072866547,0.003193952531149623,-0.24525000000000002,0.20601000000000003,9.72171
5454545400,22.16,-0.150203035426632,0.012775810124598492,0.001064650843716541,-0.38259000000000004,0.06867000000000001,9.73152
5459595905,22.16,-0.18216001403064813,-0.002129301687433082,-0.001064650843716541,-0.26487,-0.10791,9.58437
5464646410,22.16,-0.17896606149949854,0.008517206749732328,0.005323254218582705,-0.5886,-0.04905,9.64323
5469696915,22.16,-0.18748326824923087,-0.03621558197888234,0.0,-0.35316,-0.18639,9.79038
5474747420,22.16,-0.17470745812463237,-0.007452555906015787,0.003193952531149623,-0.11772,-0.02943,9.79038
5479797925,22.16,-0.18109536318693162,-0.008517206749732328,0.003193952531149623,-0.31392000000000003,-0.35316,9.95715
5484848430,22.16,-0.18428931571808121,-0.011711159280881954,0.0,-0.14715,-0.26487,9.908100000000001
5489898935,22.16,-0.1555262896452147,0.020245819323134222,0.005323254218582705,-0.34335000000000004,-0.07848000000000001,9.87867
5494949440,22.16,-0.1672549022186166,0.005323254218582705,0.001064650843716541,-0.2943,-0.11772,9.81
5499999945,22.16,-0.16510814723866357,0.014905111812031574,0.004258603374866164,-0.23544,-0.10791,9.73152
5505050450,22.16,-0.16938420390604966,0.011711159280881954,0.002129301687433082,-0.52974,-0.23544,9.68247
5510100955,22.16,-0.18641861740551433,-0.014905111812031574,0.001064650843716541,-0.34335000000000004,-0.30411,9.73152
5515151460,22.16,-0.177901410655782,-0.003193952531149623,0.001064650843716541,-0.41202000000000005,-0.11772,9.87867
5520201965,22.16,-0.177901410655782,-0.03728023282259888,0.001064650843716541,-0.23544,-0.46107000000000004,9.97677
5525252470,22.16,-0.18748326824923087,0.0,0.002129301687433082,-0.05886,-0.43164,9.819809999999999
5530302975,22.16,-0.1672549022186166,0.011711159280881954,0.002129301687433082,-0.45126,-0.32373,9.92772
5535353480,22.16,-0.16617279808238014,-0.005323254218582705,0.0,-0.08829,-0.23544,9.83943
5540403985,22.16,-0.15765559133264778,0.03089232776029963,0.002129301687433082,-0.24525000000000002,-0.23544,9.73152
5545454490,22.16,-0.18641861740551433,0.00958185759344887,0.002129301687433082,-0.51012,-0.52974,9.73152
5550504995,22.16,-0.177901410655782,-0.005323254218582705,0.002129301687433082,-0.44145,-0.22563,9.751140000000001
5555555500,22.16,-0.1704488547497662,-0.015987215948268057,0.003193952531149623,-0.37278,-0.37278,9.94734
5560606005,22.16,-0.18961256993666398,-0.021310470166850764,0.002129301687433082,-0.12753,-0.6670800000000001,9.89829
5565656510,22.16,-0.18854791909294744,0.001064650843716541,0.001064650843716541,-0.33354000000000006,-0.48069000000000006,9.91791
5570707015,22.16,-0.15978489302008084,-0.00958185759344887,0.0,-0.23544,-0.27468000000000004,9.86886
5575757520,22.16,-0.1629788455512305,0.011711159280881954,0.0,0.009810000000000001,-0.52974,9.74133
5580808025,22.16,-0.18216001403064813,0.04260348704118158,0.002129301687433082,-0.43164,-0.57879,9.751140000000001
5585858530,22.16,-0.16831955306233315,0.002129301687433082,0.0,-0.63765,-0.37278,9.81
5590909035,22.16,-0.1704488547497662,-0.03834488366631542,0.0,-0.16677000000000003,-0.47088,9.908100000000001
5595959540,22.16,-0.18428931571808121,-0.002129301687433082,0.002129301687433082,-0.20601000000000003,-0.71613,9.96696
5601010045,22.16,-0.19174187162409706,-0.006387905062299246,0.005323254218582705,-0.41202000000000005,-0.80442,10.01601
5606060550,22.16,-0.16617279808238014,-0.01811651763570114,0.002129301687433082,-0.22563,-0.49050000000000005,9.99639
5611111055,22.16,-0.14913838458291545,-0.001064650843716541,0.003193952531149623,-0.10791,-0.5493600000000001,9.91791
5616161560,22.16,-0.17257815643719931,0.0170518667919846,0.004258603374866164,-0.16677000000000003,-0.75537,9.819809999999999
5621212065,22.16,-0.15446163880149816,0.03515093113516579,0.002129301687433082,-0.41202000000000005,-0.43164,9.751140000000001
5626262570,22.16,-0.14594443205176583,0.007452555906015787,0.003193952531149623,-0.50031,-0.50031,9.751140000000001
5631313075,22.16,-0.17896606149949854,-0.015987215948268057,0.001064650843716541,-0.28449,-0.70632,9.72171
5636363580,22.16,-0.18428931571808121,-0.005323254218582705,0.004258603374866164,-0.45126,-0.7651800000000001,9.87867
5641414085,22.16,-0.17683675981206545,-0.03621558197888234,0.001064650843716541,-0.28449,-0.8240400000000001,9.98658
5646464590,22.16,-0.1672549022186166,-0.003193952531149623,0.001064650843716541,-0.11772,-0.7651800000000001,9.96696
5651515095,22.16,-0.15765559133264778,0.005323254218582705,0.002129301687433082,-0.28449,-0.8240400000000001,10.045440000000001
5656565600,22.16,-0.16938420390604966,-0.004258603374866164,-0.001064650843716541,-0.12753,-0.84366,9.96696
5661616105,22.16,-0.1331511686346474,0.033021629447732716,0.003193952531149623,-0.28449,-0.50031,9.84924
5666666610,22.16,-0.1480737337391989,0.00958185759344887,0.003193952531149623,-0.41202000000000005,-0.8240400000000001,9.82962
5671717115,22.16,-0.17151350559348277,0.003193952531149623,0.0,-0.31392000000000003,-0.73575,9.751140000000001
5676767620,22.16,-0.15126768627034853,-0.005323254218582705,0.0,-0.56898,-0.75537,9.87867
5681818125,22.16,-0.16831955306233315,-0.03728023282259888,0.003193952531149623,-0.15696000000000002,-0.9810000000000001,9.888480000000001
5686868630,22.16,-0.16191419470751395,0.007452555906015787,0.004258603374866164,-0.21582,-0.86328,9.91791
5691919135,22.16,-0.15126768627034853,-0.01064650843716541,0.003193952531149623,-0.44145,-0.9613800000000001,10.06506
5696969640,22.16,-0.1480737337391989,-0.022375121010567305,0.0,0.039240000000000004,-0.87309,9.96696
5702020145,22.16,-0.13421581947836395,0.04581489286485115,0.005323254218582705,-0.24525000000000002,-0.7848,9.85905
5707070650,22.16,-0.14594443205176583,0.013840460968315033,0.002129301687433082,-0.42183,-1.01043,9.83943
5712121155,22.16,-0.14913838458291545,0.007452555906015787,0.0,-0.3924,-0.74556,9.819809999999999
5717171660,22.16,-0.13955652698946658,-0.014905111812031574,0.0,-0.51012,-0.87309,9.91791
5722222165,22.16,-0.16510814723866357,-0.03408628029144926,0.0,-0.11772,-1.24587,9.937529999999999
5727272670,22.16,-0.15446163880149816,0.011711159280881954,0.003193952531149623,-0.28449,-0.9221400000000001,10.01601
5732323175,22.16,-0.1288925652597812,-0.013840460968315033,0.0,-0.35316,-0.9908100000000001,10.08468
5737373680,22.16,-0.1352804703220805,-0.012775810124598492,-0.002129301687433082,0.06867000000000001,-1.01043,9.91791
5742424185,22.16,-0.13208651779093086,0.039409534510031964,0.002129301687433082,-0.37278,-1.04967,9.95715
5747474690,22.16,-0.13208651779093086,0.0,0.001064650843716541,-0.51012,-0.9123300000000001,9.888480000000001
5752525195,22.16,-0.11611675513518273,-0.005323254218582705,0.0,-0.24525000000000002,-0.8142300000000001,9.79038
5757575700,22.16,-0.1374272253020335,0.0,0.002129301687433082,-0.35316,-1.22625,9.84924
5762626205,22.16,-0.15126768627034853,-0.011711159280881954,0.0,-0.26487,-1.1477700000000002,9.888480000000001
5767676710,22.16,-0.10866419922916695,0.0,0.003193952531149623,-0.32373,-0.85347,9.96696
5772727215,22.16,-0.12037535851004891,-0.011711159280881954,0.003193952531149623,-0.16677000000000003,-1.26549,9.908100000000001
5777777720,22.16,-0.1416858286768997,0.011711159280881954,0.003193952531149623,-0.16677000000000003,-1.1477700000000002,10.01601
5782828225,22.16,-0.10332349171806432,0.012775810124598492,0.001064650843716541,-0.45126,-0.9319500000000001,10.03563
5787878730,22.16,-0.1097288500728835,-0.011711159280881954,0.0,-0.16677000000000003,-1.13796,9.89829
5792929235,22.16,-0.1278279144160647,0.0170518667919846,0.004258603374866164,-0.31392000000000003,-1.22625,9.87867
5797979740,22.16,-0.11611675513518273,-0.003193952531149623,0.004258603374866164,-0.52974,-1.1477700000000002,9.95715
5803030245,22.16,-0.10332349171806432,-0.02556907354171693,0.0,-0.0981,-1.1183400000000001,9.91791
5808080750,22.16,-0.10759954838545042,0.021310470166850764,0.003193952531149623,-0.24525000000000002,-1.29492,9.92772
5813131255,22.16,-0.11931070766633237,0.001064650843716541,0.0,-0.43164,-1.2360600000000002,10.045440000000001
5818181760,22.16,-0.09054768159346581,-0.00958185759344887,0.0,-0.25506,-0.9810000000000001,9.99639
5823232265,22.16,-0.09800023749948161,0.0,0.001064650843716541,-0.21582,-1.3832099999999998,9.95715
5828282770,22.16,-0.12037535851004891,0.005323254218582705,0.002129301687433082,-0.24525000000000002,-1.3047300000000002,9.92772
5833333275,22.16,-0.08415977653116657,0.007452555906015787,0.003193952531149623,-0.46107000000000004,-0.86328,9.89829
5838383780,22.16,-0.08628907821859966,-0.01811651763570114,0.0,-0.1962,-1.3341600000000002,9.81
5843434285,22.16,-0.11824605682261582,0.00958185759344887,0.001064650843716541,-0.22563,-1.46169,9.84924
5848484790,22.16,-0.0852244273748831,0.01064650843716541,0.004258603374866164,-0.6180300000000001,-1.1281500000000002,9.96696
5853535295,22.16,-0.07349581480148122,-0.028763026072866547,0.0,-0.13734000000000002,-1.03986,9.97677
5858585800,22.16,-0.08948303074974927,0.011711159280881954,0.002129301687433082,0.0,-1.46169,9.95715
5863636305,22.16,-0.10653489754173388,0.01918116847941768,0.005323254218582705,-0.51993,-1.5696,10.074869999999999
5868686810,22.16,-0.07030186227033158,-0.00958185759344887,0.0,-0.37278,-1.00062,10.12392
5873737315,22.16,-0.054332099614583476,-0.006387905062299246,0.001064650843716541,-0.14715,-1.1281500000000002,9.97677
5878787820,22.16,-0.09587093581204853,0.005323254218582705,0.0,-0.18639,-1.6382700000000001,9.908100000000001
5883838325,22.16,-0.08203047484373349,0.015987215948268057,0.001064650843716541,-0.45126,-1.15758,9.908100000000001
5888888830,22.16,-0.05113814708343386,-0.004258603374866164,0.001064650843716541,-0.45126,-1.10853,9.82962
5893939335,22.16,-0.07990117315630041,-0.022375121010567305,-0.001064650843716541,-0.02943,-1.52055,9.86886
5898989840,22.16,-0.07990117315630041,0.01918116847941768,0.002129301687433082,-0.25506,-1.39302,9.97677
5904040345,22.16,-0.054332099614583476,-0.002129301687433082,0.0,-0.38259000000000004,-1.1281500000000002,10.006200000000002
5909090850,22.16,-0.054332099614583476,-0.006387905062299246,0.0,-0.11772,-1.3047300000000002,9.87867
5914141355,22.16,-0.07349581480148122,0.014905111812031574,0.001064650843716541,-0.35316,-1.52055,9.97677
5919191860,22.16,-0.06391395720803235,-0.004258603374866164,0.0,-0.49050000000000005,-1.31454,10.025820000000001
5924242365,22.16,-0.039409534510031964,-0.011711159280881954,0.001064650843716541,-0.21582,-1.22625,9.91791
5929292870,22.16,-0.054332099614583476,0.004258603374866164,0.001064650843716541,-0.31392000000000003,-1.51074,9.97677
5934343375,22.16,-0.05646140130201656,-0.006387905062299246,0.0,-0.22563,-1.42245,10.09449
5939393880,22.16,-0.03089232776029963,0.007452555906015787,0.0,-0.28449,-1.1870100000000001,10.025820000000001
5944444385,22.16,-0.04153883619746504,0.001064650843716541,0.001064650843716541,-0.28449,-1.43226,9.908100000000001
5949494890,22.16,-0.05859070298944965,-0.005323254218582705,0.0,-0.32373,-1.5303600000000002,9.937529999999999
5954545395,22.16,-0.02982767691658309,0.0,0.001064650843716541,-0.3924,-1.1870100000000001,9.97677
5959595900,22.16,-0.031956978604016174,-0.006387905062299246,-0.003193952531149623,-0.20601000000000003,-1.34397,9.888480000000001
5964646405,22.16,-0.039409534510031964,0.008517206749732328,0.003193952531149623,-0.25506,-1.44207,9.819809999999999
5969696910,22.16,-0.031956978604016174,0.003193952531149623,0.0,-0.43164,-1.44207,9.99639
5974747415,22.16,-0.02663372438543347,-0.014905111812031574,-0.002129301687433082,-0.16677000000000003,-1.29492,9.99639
5979797920,22.16,-0.024504422698000388,0.006387905062299246,0.0,-0.15696000000000002,-1.44207,10.01601
5984848425,22.16,-0.03089232776029963,0.008517206749732328,0.0,-0.3924,-1.5499800000000001,9.98658
5989898930,22.16,-0.022375121010567305,-0.002129301687433082,-0.004258603374866164,-0.31392000000000003,-1.42245,10.08468
5994949435,22.16,-0.004258603374866164,0.003193952531149623,0.0,-0.37278,-1.21644,10.006200000000002
5999999940,22.16,-0.01918116847941768,-0.01064650843716541,-0.004258603374866164,-0.20601000000000003,-1.5696,9.97677
6005050445,22.16,-0.013840460968315033,0.0170518667919846,0.003193952531149623,-0.32373,-1.3537800000000002,9.908100000000001
6010100950,22.16,-0.004258603374866164,-0.004258603374866164,0.0,-0.43164,-1.31454,9.937529999999999
6015151455,22.16,-0.002129301687433082,-0.013840460968315033,-0.003193952531149623,-0.0981,-1.2556800000000001,9.82962
6020201960,22.16,-0.012775810124598492,0.015987215948268057,0.0,-0.22563,-1.55979,9.85905
6025252465,22.16,-0.01918116847941768,-0.0,-0.001064650843716541,-0.3924,-1.52055,9.908100000000001
6030302970,22.16,0.00958185759344887,0.004258603374866164,0.0,-0.35316,-1.2360600000000002,9.95715
6035353475,22.16,0.007452555906015787,-0.00958185759344887,-0.001064650843716541,-0.26487,-1.39302,10.01601
6040403980,22.16,-0.006387905062299246,0.006387905062299246,0.0,-0.21582,-1.42245,9.92772
6045454485,22.16,0.006387905062299246,0.006387905062299246,0.002129301687433082,-0.46107000000000004,-1.2851100000000002,9.81
6050504990,22.16,0.007452555906015787,-0.01811651763570114,0.0,-0.24525000000000002,-1.46169,9.83943
6055555495,22.16,0.005323254218582705,0.002129301687433082,0.0,-0.15696000000000002,-1.49112,9.937529999999999
6060606000,22.16,0.015987215948268057,0.00958185759344887,0.0,-0.35316,-1.3832099999999998,10.143540000000002
6065656505,22.16,0.023439771854283843,-0.006387905062299246,-0.001064650843716541,-0.27468000000000004,-1.43226,10.143540000000002
6070707010,22.16,0.01918116847941768,0.002129301687433082,-0.002129301687433082,-0.31392000000000003,-1.6382700000000001,10.212209999999999
6075757515,22.16,0.028763026072866547,0.005323254218582705,0.002129301687433082,-0.45126,-1.24587,10.2024
6080808020,22.16,0.04794419455228423,-0.011711159280881954,0.001064650843716541,-0.30411,-1.3047300000000002,10.08468
6085858525,22.16,0.01811651763570114,-0.012775810124598492,0.0,-0.1962,-1.5794100000000002,9.94734
6090909030,22.16,0.022375121010567305,-0.013840460968315033,-0.007452555906015787,-0.039240000000000004,-1.5499800000000001,10.08468
6095959535,22.16,0.06497860805174888,0.024504422698000388,0.0,-0.17658,-1.1183400000000001,9.92772
6101010040,22.16,0.05965535383316618,0.03089232776029963,0.003193952531149623,-0.36297,-1.2851100000000002,9.95715
6106060545,22.16,0.04366813788489812,0.012775810124598492,0.002129301687433082,-0.72594,-1.21644,9.78057
6111111050,22.16,0.022375121010567305,-0.06178465552059926,-0.001064650843716541,-0.33354000000000006,-1.41264,9.84924
6116161555,22.16,0.049008845396000776,-0.03515093113516579,-0.005323254218582705,0.20601000000000003,-1.49112,9.73152
6121212060,22.16,0.03834488366631542,0.04153883619746504,0.0,-0.11772,-1.51074,9.819809999999999
6126262565,22.16,0.07777187146886733,0.0404741853537485,0.002129301687433082,-0.71613,-1.00062,9.95715
6131313070,22.16,0.07136651311404815,-0.023439771854283843,-0.005323254218582705,-0.47088,-1.1477700000000002,9.98658
6136363575,22.16,0.03728023282259888,-0.044732788728614664,-0.003193952531149623,0.0,-1.9129500000000002,10.09449
6141414080,22.16,0.039409534510031964,0.01064650843716541,0.0,-0.14715,-1.43226,10.17297
6146464585,22.16,0.09800023749948161,0.023439771854283843,0.005323254218582705,-0.41202000000000005,-0.94176,10.08468
6151515090,22.16,0.07883652231258387,-0.002129301687433082,-0.004258603374866164,-0.15696000000000002,-1.13796,9.85905
6156565595,22.16,0.03834488366631542,-0.003193952531149623,0.0,-0.30411,-1.8246600000000002,9.99639
6161616100,22.16,0.05752605214573309,-0.008517206749732328,-0.004258603374866164,-0.48069000000000006,-1.2360600000000002,10.006200000000002
6166666605,22.16,0.10332349171806432,-0.007452555906015787,0.0,-0.21582,-0.9123300000000001,9.908100000000001
6171717110,22.16,0.07777187146886733,0.006387905062299246,-0.003193952531149623,-0.10791,-1.46169,9.81
6176767615,22.16,0.049008845396000776,0.004258603374866164,-0.001064650843716541,-0.37278,-1.51074,10.006200000000002
6181818120,22.16,0.09587093581204853,-0.005323254218582705,0.0,-0.38259000000000004,-0.9613800000000001,10.025820000000001
6186868625,22.16,0.09906488834319814,-0.004258603374866164,0.0,-0.18639,-1.1183400000000001,9.78057
6191919130,22.16,0.06604325889546543,0.013840460968315033,-0.001064650843716541,-0.26487,-1.60884,9.85905
6196969635,22.16,0.07136651311404815,-0.004258603374866164,-0.005323254218582705,-0.47088,-1.22625,10.06506
6202020140,22.16,0.11292280260403312,-0.014905111812031574,-0.004258603374866164,-0.22563,-0.9613800000000001,9.97677
6207070645,22.16,0.09161233243718235,0.012775810124598492,-0.002129301687433082,-0.15696000000000002,-1.29492,9.80019
6212121150,22.16,0.07349581480148122,0.012775810124598492,0.0,-0.50031,-1.4813100000000001,9.97677
6217171655,22.16,0.09906488834319814,-0.01918116847941768,-0.006387905062299246,-0.38259000000000004,-0.9613800000000001,10.045440000000001
6222222160,22.16,0.11931070766633237,-0.0170518667919846,-0.003193952531149623,-0.039240000000000004,-1.0987200000000001,9.937529999999999
6227272665,22.16,0.08628907821859966,0.014905111812031574,0.001064650843716541,-0.11772,-1.51074,9.95715
6232323170,22.16,0.10012953918691468,0.024504422698000388,0.0,-0.51012,-1.1870100000000001,10.13373
6237373675,22.16,0.12995721610349775,-0.014905111812031574,-0.003193952531149623,-0.46107000000000004,-0.8829,10.045440000000001
6242424180,22.16,0.10866419922916695,-0.01918116847941768,-0.005323254218582705,-0.04905,-1.3047300000000002,9.86886
6247474685,22.16,0.08948303074974927,0.015987215948268057,-0.003193952531149623,-0.2943,-1.2556800000000001,9.83943
6252525190,22.16,0.12569861272863161,0.006387905062299246,-0.003193952531149623,-0.46107000000000004,-0.87309,9.84924
6257575695,22.16,0.12676326357234816,-0.011711159280881954,-0.003193952531149623,-0.16677000000000003,-1.02024,9.79038
