Time,Device name,Chip Time(),Acceleration X(g),Acceleration Y(g),Acceleration Z(g),Angular velocity X(°/s),Angular velocity Y(°/s),Angular velocity Z(°/s),Angle X(°),Angle Y(°),Angle Z(°),Magnetic field X(ʯt),Magnetic field Y(ʯt),Magnetic field Z(ʯt),Temperature(℃),Quaternions 0(),Quaternions 1(),Quaternions 2(),Quaternions 3()
 15:14:32.706,c2:22:89:2b:7b:c3, 2015-01-01 00:29:47.060, 0.024, -0.031, 1.004, 0, 0, 0, -1.747, -1.478, 126.524, 56.644, -41.650, -11.760, 22.28, 0.44998, 0.00467, -0.01941, 0.89276,
 15:14:32.706,c2:22:89:2b:7b:c3, 2015-01-01 00:29:47.060, 0.024, -0.03, 1, 0, 0, 0, -1.747, -1.478, 126.524, 56.644, -41.650, -11.760, 22.28, 0.44998, 0.00467, -0.01941, 0.89276,
 15:14:32.706,c2:22:89:2b:7b:c3, 2015-01-01 00:29:47.060, 0.025, -0.033, 1.003, 0, 0, 0, -1.747, -1.478, 126.524, 56.644, -41.650, -11.760, 22.28, 0.44998, 0.00467, -0.01941, 0.89276,
 15:14:32.706,c2:22:89:2b:7b:c3, 2015-01-01 00:29:47.060, 0.027, -0.029, 1.002, 0, 0, 0, -1.747, -1.478, 126.524, 56.644, -41.650, -11.760, 22.28, 0.44998, 0.00467, -0.01941, 0.89276,
 15:14:32.737,c2:22:89:2b:7b:c3, 2015-01-01 00:29:47.060, 0.025, -0.032, 1, 0, 0, 0, -1.747, -1.478, 126.524, 56.644, -41.650, -11.760, 22.28, 0.44998, 0.00467, -0.01941, 0.89276,
 15:14:32.737,c2:22:89:2b:7b:c3, 2015-01-01 00:29:47.060, 0.028, -0.029, 1.002, 0, 0, 0, -1.747, -1.478, 126.524, 56.644, -41.650, -11.760, 22.28, 0.44998, 0.00467, -0.01941, 0.89276,
 15:14:32.737,c2:22:89:2b:7b:c3, 2015-01-01 00:29:47.060, 0.026, -0.03, 1.001, 0, 0, 0, -1.747, -1.478, 126.524, 56.644, -41.650, -11.760, 22.28, 0.44998, 0.00467, -0.01941, 0.89276,
 15:14:32.737,c2:22:89:2b:7b:c3, 2015-01-01 00:29:47.060, 0.026, -0.03, 1.002, 0, 0, 0, -1.747, -1.478, 126.524, 56.644, -41.650, -11.760, 22.28, 0.44998, 0.00467, -0.01941, 0.89276,
 15:14:32.768,c2:22:89:2b:7b:c3, 2015-01-01 00:29:47.060, 0.024, -0.032, 1.004, 0, 0, 0, -1.747, -1.478, 126.524, 56.644, -41.650, -11.760, 22.28, 0.44998, 0.00467, -0.01941, 0.89276,
 15:14:32.768,c2:22:89:2b:7b:c3, 2015-01-01 00:29:47.060, 0.025, -0.029, 1.001, 0, 0, 0, -1.747, -1.478, 126.524, 56.644, -41.650, -11.760, 22.28, 0.44998, 0.00467, -0.01941, 0.89276,
 15:14:32.768,c2:22:89:2b:7b:c3, 2015-01-01 00:29:47.060, 0.024, -0.03, 1.003, 0, 0, 0, -1.747, -1.478, 126.524, 56.644, -41.650, -11.760, 22.28, 0.44998, 0.00467, -0.01941, 0.89276,
 15:14:32.768,c2:22:89:2b:7b:c3, 2015-01-01 00:29:47.060, 0.026, -0.032, 1.003, 0, 0, 0, -1.747, -1.478, 126.524, 56.644, -41.650, -11.760, 22.28, 0.44998, 0.00467, -0.01941, 0.89276,
 15:14:32.827,c2:22:89:2b:7b:c3, 2015-01-01 00:29:47.060, 0.024, -0.031, 1.002, 0, 0, 0, -1.747, -1.478, 126.524, 56.644, -41.650, -11.760, 22.28, 0.44998, 0.00467, -0.01941, 0.89276,
 15:14:32.827,c2:22:89:2b:7b:c3, 2015-01-01 00:29:47.060, 0.027, -0.03, 1.002, 0, 0, 0, -1.747, -1.478, 126.524, 56.644, -41.650, -11.760, 22.28, 0.44998, 0.00467, -0.01941, 0.89276,
 15:14:32.827,c2:22:89:2b:7b:c3, 2015-01-01 00:29:47.060, 0.024, -0.031, 1.003, 0, 0, 0, -1.747, -1.478, 126.524, 56.644, -41.650, -11.760, 22.28, 0.44998, 0.00467, -0.01941, 0.89276,
 15:14:32.827,c2:22:89:2b:7b:c3, 2015-01-01 00:29:47.060, 0.025, -0.031, 1.001, 0, 0, 0, -1.747, -1.478, 126.524, 56.644, -41.650, -11.760, 22.28, 0.44998, 0.00467, -0.01941, 0.89276,
 15:14:32.856,c2:22:89:2b:7b:c3, 2015-01-01 00:29:47.060, 0.027, -0.03, 1.004, 0, 0, 0, -1.747, -1.478, 126.524, 56.644, -41.650, -11.760, 22.28, 0.44998, 0.00467, -0.01941, 0.89276,
 15:14:32.857,c2:22:89:2b:7b:c3, 2015-01-01 00:29:47.060, 0.024, -0.027, 1.001, 0, 0, 0, -1.747, -1.478, 126.524, 56.644, -41.650, -11.760, 22.28, 0.44998, 0.00467, -0.01941, 0.89276,
 15:14:32.857,c2:22:89:2b:7b:c3, 2015-01-01 00:29:47.060, 0.024, -0.03, 1.003, 0, 0, 0, -1.747, -1.478, 126.524, 56.644, -41.650, -11.760, 22.28, 0.44998, 0.00467, -0.01941, 0.89276,
 15:14:32.857,c2:22:89:2b:7b:c3, 2015-01-01 00:29:47.060, 0.026, -0.03, 1.001, 0, 0, 0, -1.747, -1.478, 126.524, 56.644, -41.650, -11.760, 22.28, 0.44998, 0.00467, -0.01941, 0.89276,
 15:14:32.886,c2:22:89:2b:7b:c3, 2015-01-01 00:29:47.060, 0.026, -0.029, 1.002, 0, 0, 0, -1.747, -1.478, 126.524, 56.742, -41.748, -11.760, 22.28, 0.44998, 0.00467, -0.01941, 0.89276,
 15:14:32.886,c2:22:89:2b:7b:c3, 2015-01-01 00:29:47.060, 0.025, -0.03, 1.004, 0, 0, 0, -1.747, -1.478, 126.524, 56.742, -41.748, -11.760, 22.28, 0.44998, 0.00467, -0.01941, 0.89276,
 15:14:32.886,c2:22:89:2b:7b:c3, 2015-01-01 00:29:47.060, 0.027, -0.033, 1.002, 0, 0, 0, -1.747, -1.478, 126.524, 56.742, -41.748, -11.760, 22.28, 0.44998, 0.00467, -0.01941, 0.89276,
 15:14:32.886,c2:22:89:2b:7b:c3, 2015-01-01 00:29:47.060, 0.025, -0.032, 1.003, 0, 0, 0, -1.747, -1.478, 126.524, 56.742, -41.748, -11.760, 22.28, 0.44998, 0.00467, -0.01941, 0.89276,
 15:14:32.947,c2:22:89:2b:7b:c3, 2015-01-01 00:29:47.060, 0.025, -0.031, 1.001, 0, 0, 0, -1.747, -1.478, 126.524, 56.742, -41.748, -11.760, 22.28, 0.44998, 0.00467, -0.01941, 0.89276,
 15:14:32.947,c2:22:89:2b:7b:c3, 2015-01-01 00:29:47.060, 0.025, -0.03, 0.998, 0, 0, 0, -1.747, -1.478, 126.524, 56.742, -41.748, -11.760, 22.28, 0.44998, 0.00467, -0.01941, 0.89276,
 15:14:32.947,c2:22:89:2b:7b:c3, 2015-01-01 00:29:47.060, 0.025, -0.027, 1.005, 0, 0, 0, -1.747, -1.478, 126.524, 56.742, -41.748, -11.760, 22.28, 0.44998, 0.00467, -0.01941, 0.89276,
 15:14:32.947,c2:22:89:2b:7b:c3, 2015-01-01 00:29:47.060, 0.026, -0.033, 1.002, 0, 0, 0, -1.747, -1.478, 126.524, 56.742, -41.748, -11.760, 22.28, 0.44998, 0.00467, -0.01941, 0.89276,
 15:14:32.976,c2:22:89:2b:7b:c3, 2015-01-01 00:29:47.060, 0.024, -0.031, 1.002, 0, 0, 0, -1.747, -1.478, 126.524, 56.742, -41.748, -11.760, 22.28, 0.44998, 0.00467, -0.01941, 0.89276,
 15:14:32.976,c2:22:89:2b:7b:c3, 2015-01-01 00:29:47.060, 0.025, -0.029, 1.004, 0, 0, 0, -1.747, -1.478, 126.524, 56.742, -41.748, -11.760, 22.28, 0.44998, 0.00467, -0.01941, 0.89276,
 15:14:32.976,c2:22:89:2b:7b:c3, 2015-01-01 00:29:47.060, 0.028, -0.031, 1.003, 0, 0, 0, -1.747, -1.478, 126.524, 56.742, -41.748, -11.760, 22.28, 0.44998, 0.00467, -0.01941, 0.89276,
 15:14:32.976,c2:22:89:2b:7b:c3, 2015-01-01 00:29:47.060, 0.025, -0.03, 1.002, 0, 0, 0, -1.747, -1.478, 126.524, 56.742, -41.748, -11.760, 22.28, 0.44998, 0.00467, -0.01941, 0.89276,
 15:14:33.036,c2:22:89:2b:7b:c3, 2015-01-01 00:29:47.060, 0.028, -0.03, 1.005, 0, 0, 0, -1.747, -1.478, 126.524, 56.742, -41.748, -11.760, 22.28, 0.44998, 0.00467, -0.01941, 0.89276,
 15:14:33.036,c2:22:89:2b:7b:c3, 2015-01-01 00:29:47.060, 0.028, -0.031, 1.002, 0, 0, 0, -1.747, -1.478, 126.524, 56.742, -41.748, -11.760, 22.28, 0.44998, 0.00467, -0.01941, 0.89276,
 15:14:33.036,c2:22:89:2b:7b:c3, 2015-01-01 00:29:47.060, 0.024, -0.034, 1.001, 0, 0, 0, -1.747, -1.478, 126.524, 56.742, -41.748, -11.760, 22.28, 0.44998, 0.00467, -0.01941, 0.89276,
 15:14:33.036,c2:22:89:2b:7b:c3, 2015-01-01 00:29:47.060, 0.021, -0.028, 1.003, 0, 0, 0, -1.747, -1.478, 126.524, 56.742, -41.748, -11.760, 22.28, 0.44998, 0.00467, -0.01941, 0.89276,
 15:14:33.066,c2:22:89:2b:7b:c3, 2015-01-01 00:29:47.420, 0.03, -0.03, 1.001, 0, 0, 0, -1.747, -1.478, 126.524, 56.742, -41.748, -11.760, 22.28, 0.44998, 0.00467, -0.01941, 0.89276,
 15:14:33.066,c2:22:89:2b:7b:c3, 2015-01-01 00:29:47.420, 0.029, -0.029, 1.003, 0, 0, 0, -1.747, -1.478, 126.524, 56.742, -41.748, -11.760, 22.28, 0.44998, 0.00467, -0.01941, 0.89276,
 15:14:33.066,c2:22:89:2b:7b:c3, 2015-01-01 00:29:47.420, 0.025, -0.031, 1.002, 0, 0, 0, -1.747, -1.478, 126.524, 56.742, -41.748, -11.760, 22.28, 0.44998, 0.00467, -0.01941, 0.89276,
 15:14:33.066,c2:22:89:2b:7b:c3, 2015-01-01 00:29:47.420, 0.026, -0.03, 1.002, 0, 0, 0, -1.747, -1.478, 126.524, 56.742, -41.748, -11.760, 22.28, 0.44998, 0.00467, -0.01941, 0.89276,
 15:14:33.095,c2:22:89:2b:7b:c3, 2015-01-01 00:29:47.420, 0.027, -0.032, 1.001, 0, 0, 0, -1.747, -1.478, 126.524, 56.742, -41.748, -11.760, 22.28, 0.44998, 0.00467, -0.01941, 0.89276,
 15:14:33.095,c2:22:89:2b:7b:c3, 2015-01-01 00:29:47.420, 0.025, -0.032, 1.003, 0, 0, 0, -1.747, -1.478, 126.524, 56.742, -41.748, -11.760, 22.28, 0.44998, 0.00467, -0.01941, 0.89276,
 15:14:33.095,c2:22:89:2b:7b:c3, 2015-01-01 00:29:47.420, 0.025, -0.033, 1.001, 0, 0, 0, -1.747, -1.478, 126.524, 56.742, -41.748, -11.760, 22.28, 0.44998, 0.00467, -0.01941, 0.89276,
 15:14:33.095,c2:22:89:2b:7b:c3, 2015-01-01 00:29:47.420, 0.029, -0.029, 0.999, 0, 0, 0, -1.747, -1.478, 126.524, 56.742, -41.748, -11.760, 22.28, 0.44998, 0.00467, -0.01941, 0.89276,
 15:14:33.156,c2:22:89:2b:7b:c3, 2015-01-01 00:29:47.420, 0.024, -0.03, 1.001, 0, 0, 0, -1.747, -1.478, 126.524, 56.742, -41.748, -11.760, 22.28, 0.44998, 0.00467, -0.01941, 0.89276,
 15:14:33.156,c2:22:89:2b:7b:c3, 2015-01-01 00:29:47.420, 0.026, -0.031, 1, 0, 0, 0, -1.747, -1.478, 126.524, 56.742, -41.748, -11.760, 22.28, 0.44998, 0.00467, -0.01941, 0.89276,
 15:14:33.156,c2:22:89:2b:7b:c3, 2015-01-01 00:29:47.420, 0.024, -0.031, 1.004, 0, 0, 0, -1.747, -1.478, 126.524, 56.742, -41.748, -11.760, 22.28, 0.44998, 0.00467, -0.01941, 0.89276,
 15:14:33.156,c2:22:89:2b:7b:c3, 2015-01-01 00:29:47.420, 0.026, -0.032, 1.001, 0, 0, 0, -1.747, -1.478, 126.524, 56.742, -41.748, -11.760, 22.28, 0.44998, 0.00467, -0.01941, 0.89276,
 15:14:33.186,c2:22:89:2b:7b:c3, 2015-01-01 00:29:47.420, 0.025, -0.032, 1, 0, 0, 0, -1.747, -1.478, 126.524, 56.742, -41.748, -11.760, 22.28, 0.44998, 0.00467, -0.01941, 0.89276,
 15:14:33.186,c2:22:89:2b:7b:c3, 2015-01-01 00:29:47.420, 0.025, -0.027, 1.004, 0, 0, 0, -1.747, -1.478, 126.524, 56.742, -41.748, -11.760, 22.28, 0.44998, 0.00467, -0.01941, 0.89276,
 15:14:33.186,c2:22:89:2b:7b:c3, 2015-01-01 00:29:47.420, 0.026, -0.03, 1.002, 0, 0, 0, -1.747, -1.478, 126.524, 56.742, -41.748, -11.760, 22.28, 0.44998, 0.00467, -0.01941, 0.89276,
 15:14:33.186,c2:22:89:2b:7b:c3, 2015-01-01 00:29:47.420, 0.025, -0.029, 1.002, 0, 0, 0, -1.747, -1.478, 126.524, 56.742, -41.748, -11.760, 22.28, 0.44998, 0.00467, -0.01941, 0.89276,
 15:14:33.217,c2:22:89:2b:7b:c3, 2015-01-01 00:29:47.420, 0.027, -0.03, 1.002, 0, 0, 0, -1.747, -1.478, 126.524, 56.742, -41.748, -11.760, 22.28, 0.44998, 0.00467, -0.01941, 0.89276,
 15:14:33.217,c2:22:89:2b:7b:c3, 2015-01-01 00:29:47.420, 0.025, -0.028, 1.002, 0, 0, 0, -1.747, -1.478, 126.524, 56.742, -41.748, -11.760, 22.28, 0.44998, 0.00467, -0.01941, 0.89276,
 15:14:33.217,c2:22:89:2b:7b:c3, 2015-01-01 00:29:47.420, 0.024, -0.029, 1.001, 0, 0, 0, -1.747, -1.478, 126.524, 56.742, -41.748, -11.760, 22.28, 0.44998, 0.00467, -0.01941, 0.89276,
 15:14:33.217,c2:22:89:2b:7b:c3, 2015-01-01 00:29:47.420, 0.026, -0.031, 1.001, 0, 0, 0, -1.747, -1.478, 126.524, 56.742, -41.748, -11.760, 22.28, 0.44998, 0.00467, -0.01941, 0.89276,
 15:14:33.277,c2:22:89:2b:7b:c3, 2015-01-01 00:29:47.420, 0.025, -0.031, 1.004, 0, 0, 0, -1.747, -1.478, 126.524, 56.742, -41.748, -11.760, 22.28, 0.44998, 0.00467, -0.01941, 0.89276,
 15:14:33.277,c2:22:89:2b:7b:c3, 2015-01-01 00:29:47.420, 0.026, -0.028, 1.002, 0, 0, 0, -1.747, -1.478, 126.524, 56.742, -41.748, -11.760, 22.28, 0.44998, 0.00467, -0.01941, 0.89276,
 15:14:33.277,c2:22:89:2b:7b:c3, 2015-01-01 00:29:47.420, 0.023, -0.03, 1.001, 0, 0, 0, -1.747, -1.478, 126.524, 56.742, -41.748, -11.760, 22.28, 0.44998, 0.00467, -0.01941, 0.89276,
 15:14:33.277,c2:22:89:2b:7b:c3, 2015-01-01 00:29:47.420, 0.025, -0.03, 1, 0, 0, 0, -1.747, -1.478, 126.524, 56.742, -41.748, -11.760, 22.28, 0.44998, 0.00467, -0.01941, 0.89276,
 15:14:33.307,c2:22:89:2b:7b:c3, 2015-01-01 00:29:47.420, 0.026, -0.032, 1.002, 0, 0, 0, -1.747, -1.478, 126.524, 56.644, -41.650, -11.662, 22.28, 0.44998, 0.00467, -0.01941, 0.89276,
 15:14:33.307,c2:22:89:2b:7b:c3, 2015-01-01 00:29:47.420, 0.027, -0.031, 1.002, 0, 0, 0, -1.747, -1.478, 126.524, 56.644, -41.650, -11.662, 22.28, 0.44998, 0.00467, -0.01941, 0.89276,
 15:14:33.307,c2:22:89:2b:7b:c3, 2015-01-01 00:29:47.420, 0.024, -0.033, 1.001, 0, 0, 0, -1.747, -1.478, 126.524, 56.644, -41.650, -11.662, 22.28, 0.44998, 0.00467, -0.01941, 0.89276,
 15:14:33.307,c2:22:89:2b:7b:c3, 2015-01-01 00:29:47.420, 0.025, -0.03, 1.001, 0, 0, 0, -1.747, -1.478, 126.524, 56.644, -41.650, -11.662, 22.28, 0.44998, 0.00467, -0.01941, 0.89276,
 15:14:33.337,c2:22:89:2b:7b:c3, 2015-01-01 00:29:47.420, 0.028, -0.031, 1.003, 0, 0, 0, -1.747, -1.478, 126.524, 56.644, -41.650, -11.662, 22.28, 0.44998, 0.00467, -0.01941, 0.89276,
 15:14:33.337,c2:22:89:2b:7b:c3, 2015-01-01 00:29:47.420, 0.026, -0.033, 1, 0, 0, 0, -1.747, -1.478, 126.524, 56.644, -41.650, -11.662, 22.28, 0.44998, 0.00467, -0.01941, 0.89276,
 15:14:33.337,c2:22:89:2b:7b:c3, 2015-01-01 00:29:47.420, 0.023, -0.03, 1.003, 0, 0, 0, -1.747, -1.478, 126.524, 56.644, -41.650, -11.662, 22.28, 0.44998, 0.00467, -0.01941, 0.89276,
 15:14:33.337,c2:22:89:2b:7b:c3, 2015-01-01 00:29:47.420, 0.026, -0.031, 1.003, 0, 0, 0, -1.747, -1.478, 126.524, 56.644, -41.650, -11.662, 22.28, 0.44998, 0.00467, -0.01941, 0.89276,
 15:14:33.398,c2:22:89:2b:7b:c3, 2015-01-01 00:29:47.420, 0.026, -0.031, 1.002, 0, 0, 0, -1.747, -1.478, 126.524, 56.644, -41.650, -11.662, 22.28, 0.44998, 0.00467, -0.01941, 0.89276,
 15:14:33.398,c2:22:89:2b:7b:c3, 2015-01-01 00:29:47.420, 0.023, -0.031, 1.001, 0, 0, 0, -1.747, -1.478, 126.524, 56.644, -41.650, -11.662, 22.28, 0.44998, 0.00467, -0.01941, 0.89276,
 15:14:33.398,c2:22:89:2b:7b:c3, 2015-01-01 00:29:47.420, 0.025, -0.029, 1.001, 0, 0, 0, -1.747, -1.478, 126.524, 56.644, -41.650, -11.662, 22.28, 0.44998, 0.00467, -0.01941, 0.89276,
 15:14:33.398,c2:22:89:2b:7b:c3, 2015-01-01 00:29:47.420, 0.027, -0.032, 1, 0, 0, 0, -1.747, -1.478, 126.524, 56.644, -41.650, -11.662, 22.28, 0.44998, 0.00467, -0.01941, 0.89276,
 15:14:33.427,c2:22:89:2b:7b:c3, 2015-01-01 00:29:47.805, 0.026, -0.028, 1.004, 0, 0, 0, -1.747, -1.478, 126.524, 56.644, -41.650, -11.662, 22.28, 0.44998, 0.00467, -0.01941, 0.89276,
 15:14:33.427,c2:22:89:2b:7b:c3, 2015-01-01 00:29:47.805, 0.025, -0.031, 1.001, 0, 0, 0, -1.747, -1.478, 126.524, 56.644, -41.650, -11.662, 22.28, 0.44998, 0.00467, -0.01941, 0.89276,
 15:14:33.427,c2:22:89:2b:7b:c3, 2015-01-01 00:29:47.805, 0.029, -0.029, 1.002, 0, 0, 0, -1.747, -1.478, 126.524, 56.644, -41.650, -11.662, 22.28, 0.44998, 0.00467, -0.01941, 0.89276,
 15:14:33.427,c2:22:89:2b:7b:c3, 2015-01-01 00:29:47.805, 0.023, -0.032, 1.003, 0, 0, 0, -1.747, -1.478, 126.524, 56.644, -41.650, -11.662, 22.28, 0.44998, 0.00467, -0.01941, 0.89276,
 15:14:33.457,c2:22:89:2b:7b:c3, 2015-01-01 00:29:47.805, 0.024, -0.03, 1.003, 0, 0, 0, -1.747, -1.478, 126.524, 56.644, -41.650, -11.662, 22.28, 0.44998, 0.00467, -0.01941, 0.89276,
 15:14:33.457,c2:22:89:2b:7b:c3, 2015-01-01 00:29:47.805, 0.026, -0.029, 1.003, 0, 0, 0, -1.747, -1.478, 126.524, 56.644, -41.650, -11.662, 22.28, 0.44998, 0.00467, -0.01941, 0.89276,
 15:14:33.457,c2:22:89:2b:7b:c3, 2015-01-01 00:29:47.805, 0.026, -0.031, 1.001, 0, 0, 0, -1.747, -1.478, 126.524, 56.644, -41.650, -11.662, 22.28, 0.44998, 0.00467, -0.01941, 0.89276,
 15:14:33.457,c2:22:89:2b:7b:c3, 2015-01-01 00:29:47.805, 0.026, -0.029, 1.002, 0, 0, 0, -1.747, -1.478, 126.524, 56.644, -41.650, -11.662, 22.28, 0.44998, 0.00467, -0.01941, 0.89276,
 15:14:33.517,c2:22:89:2b:7b:c3, 2015-01-01 00:29:47.805, 0.026, -0.029, 1.001, 0, 0, 0, -1.747, -1.478, 126.524, 56.644, -41.650, -11.662, 22.28, 0.44998, 0.00467, -0.01941, 0.89276,
 15:14:33.517,c2:22:89:2b:7b:c3, 2015-01-01 00:29:47.805, 0.026, -0.032, 1.004, 0, 0, 0, -1.747, -1.478, 126.524, 56.644, -41.650, -11.662, 22.28, 0.44998, 0.00467, -0.01941, 0.89276,
 15:14:33.517,c2:22:89:2b:7b:c3, 2015-01-01 00:29:47.805, 0.024, -0.031, 1.002, 0, 0, 0, -1.747, -1.478, 126.524, 56.644, -41.650, -11.662, 22.28, 0.44998, 0.00467, -0.01941, 0.89276,
 15:14:33.517,c2:22:89:2b:7b:c3, 2015-01-01 00:29:47.805, 0.026, -0.03, 1.003, 0, 0, 0, -1.747, -1.478, 126.524, 56.644, -41.650, -11.662, 22.28, 0.44998, 0.00467, -0.01941, 0.89276,
 15:14:33.547,c2:22:89:2b:7b:c3, 2015-01-01 00:29:47.805, 0.027, -0.029, 1.004, 0, 0, 0, -1.747, -1.478, 126.524, 56.644, -41.650, -11.662, 22.28, 0.44998, 0.00467, -0.01941, 0.89276,
 15:14:33.547,c2:22:89:2b:7b:c3, 2015-01-01 00:29:47.805, 0.025, -0.033, 1.001, 0, 0, 0, -1.747, -1.478, 126.524, 56.644, -41.650, -11.662, 22.28, 0.44998, 0.00467, -0.01941, 0.89276,
 15:14:33.547,c2:22:89:2b:7b:c3, 2015-01-01 00:29:47.805, 0.023, -0.029, 1, 0, 0, 0, -1.747, -1.478, 126.524, 56.644, -41.650, -11.662, 22.28, 0.44998, 0.00467, -0.01941, 0.89276,
 15:14:33.547,c2:22:89:2b:7b:c3, 2015-01-01 00:29:47.805, 0.028, -0.029, 1.001, 0, 0, 0, -1.747, -1.478, 126.524, 56.644, -41.650, -11.662, 22.28, 0.44998, 0.00467, -0.01941, 0.89276,
 15:14:33.576,c2:22:89:2b:7b:c3, 2015-01-01 00:29:47.805, 0.027, -0.033, 1.002, 0, 0, 0, -1.747, -1.478, 126.524, 56.644, -41.650, -11.662, 22.28, 0.44998, 0.00467, -0.01941, 0.89276,
 15:14:33.576,c2:22:89:2b:7b:c3, 2015-01-01 00:29:47.805, 0.025, -0.031, 1.003, 0, 0, 0, -1.747, -1.478, 126.524, 56.644, -41.650, -11.662, 22.28, 0.44998, 0.00467, -0.01941, 0.89276,
 15:14:33.576,c2:22:89:2b:7b:c3, 2015-01-01 00:29:47.805, 0.029, -0.03, 1.001, 0, 0, 0, -1.747, -1.478, 126.524, 56.644, -41.650, -11.662, 22.28, 0.44998, 0.00467, -0.01941, 0.89276,
 15:14:33.576,c2:22:89:2b:7b:c3, 2015-01-01 00:29:47.805, 0.026, -0.032, 1.001, 0, 0, 0, -1.747, -1.478, 126.524, 56.644, -41.650, -11.662, 22.28, 0.44998, 0.00467, -0.01941, 0.89276,
 15:14:33.637,c2:22:89:2b:7b:c3, 2015-01-01 00:29:47.805, 0.024, -0.032, 1.001, 0, 0, 0, -1.747, -1.478, 126.524, 56.644, -41.650, -11.662, 22.28, 0.44998, 0.00467, -0.01941, 0.89276,
 15:14:33.637,c2:22:89:2b:7b:c3, 2015-01-01 00:29:47.805, 0.026, -0.031, 1.003, 0, 0, 0, -1.747, -1.478, 126.524, 56.644, -41.650, -11.662, 22.28, 0.44998, 0.00467, -0.01941, 0.89276,
 15:14:33.637,c2:22:89:2b:7b:c3, 2015-01-01 00:29:47.805, 0.027, -0.029, 1.001, 0, 0, 0, -1.747, -1.478, 126.524, 56.644, -41.650, -11.662, 22.28, 0.44998, 0.00467, -0.01941, 0.89276,
 15:14:33.637,c2:22:89:2b:7b:c3, 2015-01-01 00:29:47.805, 0.023, -0.032, 1.001, 0, 0, 0, -1.747, -1.478, 126.524, 56.644, -41.650, -11.662, 22.28, 0.44998, 0.00467, -0.01941, 0.89276,
 15:14:33.667,c2:22:89:2b:7b:c3, 2015-01-01 00:29:47.805, 0.022, -0.027, 1.003, 0, 0, 0, -1.747, -1.478, 126.524, 56.742, -41.748, -11.662, 22.28, 0.44998, 0.00467, -0.01941, 0.89276,
 15:14:33.667,c2:22:89:2b:7b:c3, 2015-01-01 00:29:47.805, 0.025, -0.031, 1.003, 0, 0, 0, -1.747, -1.478, 126.524, 56.742, -41.748, -11.662, 22.28, 0.44998, 0.00467, -0.01941, 0.89276,
 15:14:33.667,c2:22:89:2b:7b:c3, 2015-01-01 00:29:47.805, 0.027, -0.033, 1.003, 0, 0, 0, -1.747, -1.478, 126.524, 56.742, -41.748, -11.662, 22.28, 0.44998, 0.00467, -0.01941, 0.89276,
 15:14:33.667,c2:22:89:2b:7b:c3, 2015-01-01 00:29:47.805, 0.026, -0.03, 1.003, 0, 0, 0, -1.747, -1.478, 126.524, 56.742, -41.748, -11.662, 22.28, 0.44998, 0.00467, -0.01941, 0.89276,
 15:14:33.697,c2:22:89:2b:7b:c3, 2015-01-01 00:29:47.805, 0.025, -0.03, 1.003, 0, 0, 0, -1.747, -1.478, 126.524, 56.742, -41.748, -11.662, 22.28, 0.44998, 0.00467, -0.01941, 0.89276,
 15:14:33.697,c2:22:89:2b:7b:c3, 2015-01-01 00:29:47.805, 0.027, -0.033, 1.002, 0, 0, 0, -1.747, -1.478, 126.524, 56.742, -41.748, -11.662, 22.28, 0.44998, 0.00467, -0.01941, 0.89276,
 15:14:33.697,c2:22:89:2b:7b:c3, 2015-01-01 00:29:47.805, 0.022, -0.032, 1, 0, 0, 0, -1.747, -1.478, 126.524, 56.742, -41.748, -11.662, 22.28, 0.44998, 0.00467, -0.01941, 0.89276,
 15:14:33.697,c2:22:89:2b:7b:c3, 2015-01-01 00:29:47.805, 0.025, -0.029, 1.002, 0, 0, 0, -1.747, -1.478, 126.524, 56.742, -41.748, -11.662, 22.28, 0.44998, 0.00467, -0.01941, 0.89276,
 15:14:33.757,c2:22:89:2b:7b:c3, 2015-01-01 00:29:47.805, 0.026, -0.028, 1, 0, 0, 0, -1.747, -1.478, 126.524, 56.742, -41.748, -11.662, 22.28, 0.44998, 0.00467, -0.01941, 0.89276,
 15:14:33.757,c2:22:89:2b:7b:c3, 2015-01-01 00:29:47.805, 0.026, -0.031, 1.002, 0, 0, 0, -1.747, -1.478, 126.524, 56.742, -41.748, -11.662, 22.28, 0.44998, 0.00467, -0.01941, 0.89276,
 15:14:33.757,c2:22:89:2b:7b:c3, 2015-01-01 00:29:47.805, 0.026, -0.032, 1.002, 0, 0, 0, -1.747, -1.478, 126.524, 56.742, -41.748, -11.662, 22.28, 0.44998, 0.00467, -0.01941, 0.89276,
 15:14:33.757,c2:22:89:2b:7b:c3, 2015-01-01 00:29:47.805, 0.023, -0.029, 1.002, 0, 0, 0, -1.747, -1.478, 126.524, 56.742, -41.748, -11.662, 22.28, 0.44998, 0.00467, -0.01941, 0.89276,
 15:14:33.787,c2:22:89:2b:7b:c3, 2015-01-01 00:29:48.165, 0.027, -0.031, 1.003, 0, 0, 0, -1.747, -1.478, 126.524, 56.742, -41.748, -11.662, 22.28, 0.44998, 0.00467, -0.01941, 0.89276,
 15:14:33.787,c2:22:89:2b:7b:c3, 2015-01-01 00:29:48.165, 0.025, -0.03, 1.003, 0, 0, 0, -1.747, -1.478, 126.524, 56.742, -41.748, -11.662, 22.28, 0.44998, 0.00467, -0.01941, 0.89276,
 15:14:33.787,c2:22:89:2b:7b:c3, 2015-01-01 00:29:48.165, 0.026, -0.031, 1.002, 0, 0, 0, -1.747, -1.478, 126.524, 56.742, -41.748, -11.662, 22.28, 0.44998, 0.00467, -0.01941, 0.89276,
 15:14:33.787,c2:22:89:2b:7b:c3, 2015-01-01 00:29:48.165, 0.028, -0.029, 1.001, 0, 0, 0, -1.747, -1.478, 126.524, 56.742, -41.748, -11.662, 22.28, 0.44998, 0.00467, -0.01941, 0.89276,
 15:14:33.817,c2:22:89:2b:7b:c3, 2015-01-01 00:29:48.165, 0.023, -0.029, 1.002, 0, 0, 0, -1.747, -1.478, 126.524, 56.742, -41.748, -11.662, 22.28, 0.44998, 0.00467, -0.01941, 0.89276,
 15:14:33.817,c2:22:89:2b:7b:c3, 2015-01-01 00:29:48.165, 0.024, -0.029, 1.002, 0, 0, 0, -1.747, -1.478, 126.524, 56.742, -41.748, -11.662, 22.28, 0.44998, 0.00467, -0.01941, 0.89276,
 15:14:33.817,c2:22:89:2b:7b:c3, 2015-01-01 00:29:48.165, 0.029, -0.03, 1.001, 0, 0, 0, -1.747, -1.478, 126.524, 56.742, -41.748, -11.662, 22.28, 0.44998, 0.00467, -0.01941, 0.89276,
 15:14:33.817,c2:22:89:2b:7b:c3, 2015-01-01 00:29:48.165, 0.024, -0.033, 1.001, 0, 0, 0, -1.747, -1.478, 126.524, 56.742, -41.748, -11.662, 22.28, 0.44998, 0.00467, -0.01941, 0.89276,
 15:14:33.878,c2:22:89:2b:7b:c3, 2015-01-01 00:29:48.165, 0.023, -0.029, 1.005, 0, 0, 0, -1.747, -1.478, 126.524, 56.742, -41.748, -11.662, 22.28, 0.44998, 0.00467, -0.01941, 0.89276,
 15:14:33.878,c2:22:89:2b:7b:c3, 2015-01-01 00:29:48.165, 0.026, -0.029, 1.002, 0, 0, 0, -1.747, -1.478, 126.524, 56.742, -41.748, -11.662, 22.28, 0.44998, 0.00467, -0.01941, 0.89276,
 15:14:33.878,c2:22:89:2b:7b:c3, 2015-01-01 00:29:48.165, 0.027, -0.033, 1.004, 0, 0, 0, -1.747, -1.478, 126.524, 56.742, -41.748, -11.662, 22.28, 0.44998, 0.00467, -0.01941, 0.89276,
 15:14:33.878,c2:22:89:2b:7b:c3, 2015-01-01 00:29:48.165, 0.025, -0.031, 1, 0, 0, 0, -1.747, -1.478, 126.524, 56.742, -41.748, -11.662, 22.28, 0.44998, 0.00467, -0.01941, 0.89276,
 15:14:33.906,c2:22:89:2b:7b:c3, 2015-01-01 00:29:48.165, 0.027, -0.032, 1.002, 0, 0, 0, -1.747, -1.478, 126.524, 56.742, -41.748, -11.662, 22.28, 0.44998, 0.00467, -0.01941, 0.89276,
 15:14:33.906,c2:22:89:2b:7b:c3, 2015-01-01 00:29:48.165, 0.026, -0.029, 1.002, 0, 0, 0, -1.747, -1.478, 126.524, 56.742, -41.748, -11.662, 22.28, 0.44998, 0.00467, -0.01941, 0.89276,
 15:14:33.906,c2:22:89:2b:7b:c3, 2015-01-01 00:29:48.165, 0.024, -0.03, 1.003, 0, 0, 0, -1.747, -1.478, 126.524, 56.742, -41.748, -11.662, 22.28, 0.44998, 0.00467, -0.01941, 0.89276,
 15:14:33.906,c2:22:89:2b:7b:c3, 2015-01-01 00:29:48.165, 0.025, -0.031, 1.002, 0, 0, 0, -1.747, -1.478, 126.524, 56.742, -41.748, -11.662, 22.28, 0.44998, 0.00467, -0.01941, 0.89276,
 15:14:33.936,c2:22:89:2b:7b:c3, 2015-01-01 00:29:48.165, 0.027, -0.031, 1, 0, 0, 0, -1.747, -1.478, 126.524, 56.742, -41.748, -11.662, 22.28, 0.44998, 0.00467, -0.01941, 0.89276,
 15:14:33.936,c2:22:89:2b:7b:c3, 2015-01-01 00:29:48.165, 0.025, -0.034, 1.002, 0, 0, 0, -1.747, -1.478, 126.524, 56.742, -41.748, -11.662, 22.28, 0.44998, 0.00467, -0.01941, 0.89276,
 15:14:33.936,c2:22:89:2b:7b:c3, 2015-01-01 00:29:48.165, 0.025, -0.029, 1.002, 0, 0, 0, -1.747, -1.478, 126.524, 56.742, -41.748, -11.662, 22.28, 0.44998, 0.00467, -0.01941, 0.89276,
 15:14:33.936,c2:22:89:2b:7b:c3, 2015-01-01 00:29:48.165, 0.029, -0.031, 1.002, 0, 0, 0, -1.747, -1.478, 126.524, 56.742, -41.748, -11.662, 22.28, 0.44998, 0.00467, -0.01941, 0.89276,
 15:14:33.996,c2:22:89:2b:7b:c3, 2015-01-01 00:29:48.165, 0.025, -0.03, 1.003, 0, 0, 0, -1.747, -1.478, 126.524, 56.742, -41.748, -11.662, 22.28, 0.44998, 0.00467, -0.01941, 0.89276,
 15:14:33.996,c2:22:89:2b:7b:c3, 2015-01-01 00:29:48.165, 0.024, -0.032, 1.003, 0, 0, 0, -1.747, -1.478, 126.524, 56.742, -41.748, -11.662, 22.28, 0.44998, 0.00467, -0.01941, 0.89276,
 15:14:33.996,c2:22:89:2b:7b:c3, 2015-01-01 00:29:48.165, 0.025, -0.03, 1.002, 0, 0, 0, -1.747, -1.478, 126.524, 56.742, -41.748, -11.662, 22.28, 0.44998, 0.00467, -0.01941, 0.89276,
 15:14:33.996,c2:22:89:2b:7b:c3, 2015-01-01 00:29:48.165, 0.028, -0.031, 1.002, 0, 0, 0, -1.747, -1.478, 126.524, 56.742, -41.748, -11.662, 22.28, 0.44998, 0.00467, -0.01941, 0.89276,
 15:14:34.086,c2:22:89:2b:7b:c3, 2015-01-01 00:29:48.165, 0.025, -0.035, 1.003, 0, 0, 0, -1.747, -1.478, 126.524, 56.742, -41.552, -11.564, 22.28, 0.44998, 0.00467, -0.01941, 0.89276,
 15:14:34.086,c2:22:89:2b:7b:c3, 2015-01-01 00:29:48.165, 0.023, -0.028, 1.001, 0, 0, 0, -1.747, -1.478, 126.524, 56.742, -41.552, -11.564, 22.28, 0.44998, 0.00467, -0.01941, 0.89276,
 15:14:34.086,c2:22:89:2b:7b:c3, 2015-01-01 00:29:48.165, 0.026, -0.03, 1.001, 0, 0, 0, -1.747, -1.478, 126.524, 56.742, -41.552, -11.564, 22.28, 0.44998, 0.00467, -0.01941, 0.89276,
 15:14:34.086,c2:22:89:2b:7b:c3, 2015-01-01 00:29:48.165, 0.027, -0.032, 1.003, 0, 0, 0, -1.747, -1.478, 126.524, 56.742, -41.552, -11.564, 22.28, 0.44998, 0.00467, -0.01941, 0.89276,
 15:14:34.086,c2:22:89:2b:7b:c3, 2015-01-01 00:29:48.165, 0.022, -0.031, 1.003, 0, 0, 0, -1.747, -1.478, 126.524, 56.742, -41.552, -11.564, 22.28, 0.44998, 0.00467, -0.01941, 0.89276,
 15:14:34.086,c2:22:89:2b:7b:c3, 2015-01-01 00:29:48.165, 0.025, -0.029, 1, 0, 0, 0, -1.747, -1.478, 126.524, 56.742, -41.552, -11.564, 22.28, 0.44998, 0.00467, -0.01941, 0.89276,
 15:14:34.086,c2:22:89:2b:7b:c3, 2015-01-01 00:29:48.165, 0.025, -0.031, 1.001, 0, 0, 0, -1.747, -1.478, 126.524, 56.742, -41.552, -11.564, 22.28, 0.44998, 0.00467, -0.01941, 0.89276,
 15:14:34.086,c2:22:89:2b:7b:c3, 2015-01-01 00:29:48.165, 0.025, -0.031, 1.002, 0, 0, 0, -1.747, -1.478, 126.524, 56.742, -41.552, -11.564, 22.28, 0.44998, 0.00467, -0.01941, 0.89276,
 15:14:34.116,c2:22:89:2b:7b:c3, 2015-01-01 00:29:48.165, 0.026, -0.025, 1.004, 0, 0, 0, -1.747, -1.478, 126.524, 56.742, -41.552, -11.564, 22.28, 0.44998, 0.00467, -0.01941, 0.89276,
 15:14:34.116,c2:22:89:2b:7b:c3, 2015-01-01 00:29:48.165, 0.028, -0.031, 1, 0, 0, 0, -1.747, -1.478, 126.524, 56.742, -41.552, -11.564, 22.28, 0.44998, 0.00467, -0.01941, 0.89276,
 15:14:34.116,c2:22:89:2b:7b:c3, 2015-01-01 00:29:48.165, 0.024, -0.03, 1, 0, 0, 0, -1.747, -1.478, 126.524, 56.742, -41.552, -11.564, 22.28, 0.44998, 0.00467, -0.01941, 0.89276,
 15:14:34.116,c2:22:89:2b:7b:c3, 2015-01-01 00:29:48.165, 0.023, -0.031, 1.003, 0, 0, 0, -1.747, -1.478, 126.524, 56.742, -41.552, -11.564, 22.28, 0.44998, 0.00467, -0.01941, 0.89276,
 15:14:34.146,c2:22:89:2b:7b:c3, 2015-01-01 00:29:48.165, 0.026, -0.03, 1.002, 0, 0, 0, -1.747, -1.478, 126.524, 56.742, -41.552, -11.564, 22.28, 0.44998, 0.00467, -0.01944, 0.89276,
 15:14:34.146,c2:22:89:2b:7b:c3, 2015-01-01 00:29:48.165, 0.026, -0.031, 1, 0, 0, 0, -1.747, -1.478, 126.524, 56.742, -41.552, -11.564, 22.28, 0.44998, 0.00467, -0.01944, 0.89276,
 15:14:34.146,c2:22:89:2b:7b:c3, 2015-01-01 00:29:48.165, 0.025, -0.031, 1.003, 0, 0, 0, -1.747, -1.478, 126.524, 56.742, -41.552, -11.564, 22.28, 0.44998, 0.00467, -0.01944, 0.89276,
 15:14:34.146,c2:22:89:2b:7b:c3, 2015-01-01 00:29:48.165, 0.025, -0.029, 1.003, 0, 0, 0, -1.747, -1.478, 126.524, 56.742, -41.552, -11.564, 22.28, 0.44998, 0.00467, -0.01944, 0.89276,
 15:14:34.176,c2:22:89:2b:7b:c3, 2015-01-01 00:29:48.165, 0.024, -0.034, 1.003, 0, 0, 0, -1.747, -1.478, 126.524, 56.742, -41.552, -11.564, 22.28, 0.44998, 0.00467, -0.01944, 0.89276,
 15:14:34.176,c2:22:89:2b:7b:c3, 2015-01-01 00:29:48.165, 0.021, -0.029, 1.003, 0, 0, 0, -1.747, -1.478, 126.524, 56.742, -41.552, -11.564, 22.28, 0.44998, 0.00467, -0.01944, 0.89276,
 15:14:34.176,c2:22:89:2b:7b:c3, 2015-01-01 00:29:48.165, 0.027, -0.029, 1.001, 0, 0, 0, -1.747, -1.478, 126.524, 56.742, -41.552, -11.564, 22.28, 0.44998, 0.00467, -0.01944, 0.89276,
 15:14:34.176,c2:22:89:2b:7b:c3, 2015-01-01 00:29:48.165, 0.025, -0.033, 1.003, 0, 0, 0, -1.747, -1.478, 126.524, 56.742, -41.552, -11.564, 22.28, 0.44998, 0.00467, -0.01944, 0.89276,
 15:14:34.237,c2:22:89:2b:7b:c3, 2015-01-01 00:29:48.165, 0.024, -0.031, 1.003, 0, 0, 0, -1.747, -1.478, 126.524, 56.742, -41.552, -11.564, 22.28, 0.44998, 0.00467, -0.01944, 0.89276,
 15:14:34.237,c2:22:89:2b:7b:c3, 2015-01-01 00:29:48.165, 0.028, -0.027, 1.001, 0, 0, 0, -1.747, -1.478, 126.524, 56.742, -41.552, -11.564, 22.28, 0.44998, 0.00467, -0.01944, 0.89276,
 15:14:34.237,c2:22:89:2b:7b:c3, 2015-01-01 00:29:48.165, 0.028, -0.03, 1.002, 0, 0, 0, -1.747, -1.478, 126.524, 56.742, -41.552, -11.564, 22.28, 0.44998, 0.00467, -0.01944, 0.89276,
 15:14:34.237,c2:22:89:2b:7b:c3, 2015-01-01 00:29:48.165, 0.024, -0.034, 1.003, 0, 0, 0, -1.747, -1.478, 126.524, 56.742, -41.552, -11.564, 22.28, 0.44998, 0.00467, -0.01944, 0.89276,
 15:14:34.296,c2:22:89:2b:7b:c3, 2015-01-01 00:29:48.165, 0.024, -0.029, 1.004, 0, 0, 0, -1.747, -1.478, 126.524, 56.742, -41.552, -11.564, 22.22, 0.44998, 0.00467, -0.01944, 0.89276,
 15:14:34.296,c2:22:89:2b:7b:c3, 2015-01-01 00:29:48.165, 0.027, -0.026, 1, 0, 0, 0, -1.747, -1.478, 126.524, 56.742, -41.552, -11.564, 22.22, 0.44998, 0.00467, -0.01944, 0.89276,
 15:14:34.296,c2:22:89:2b:7b:c3, 2015-01-01 00:29:48.165, 0.027, -0.034, 1.001, 0, 0, 0, -1.747, -1.478, 126.524, 56.742, -41.552, -11.564, 22.22, 0.44998, 0.00467, -0.01944, 0.89276,
 15:14:34.296,c2:22:89:2b:7b:c3, 2015-01-01 00:29:48.165, 0.024, -0.032, 1.003, 0, 0, 0, -1.747, -1.478, 126.524, 56.742, -41.552, -11.564, 22.22, 0.44998, 0.00467, -0.01944, 0.89276,
 15:14:34.296,c2:22:89:2b:7b:c3, 2015-01-01 00:29:48.165, 0.025, -0.029, 1.002, 0, 0, 0, -1.747, -1.478, 126.524, 56.742, -41.552, -11.564, 22.22, 0.44998, 0.00467, -0.01944, 0.89276,
 15:14:34.296,c2:22:89:2b:7b:c3, 2015-01-01 00:29:48.165, 0.026, -0.031, 1.001, 0, 0, 0, -1.747, -1.478, 126.524, 56.742, -41.552, -11.564, 22.22, 0.44998, 0.00467, -0.01944, 0.89276,
 15:14:34.296,c2:22:89:2b:7b:c3, 2015-01-01 00:29:48.165, 0.024, -0.029, 1.003, 0, 0, 0, -1.747, -1.478, 126.524, 56.742, -41.552, -11.564, 22.22, 0.44998, 0.00467, -0.01944, 0.89276,
 15:14:34.296,c2:22:89:2b:7b:c3, 2015-01-01 00:29:48.165, 0.021, -0.03, 1.005, 0, 0, 0, -1.747, -1.478, 126.524, 56.742, -41.552, -11.564, 22.22, 0.44998, 0.00467, -0.01944, 0.89276,
 15:14:34.356,c2:22:89:2b:7b:c3, 2015-01-01 00:29:48.165, 0.028, -0.03, 1.001, 0, 0, 0, -1.747, -1.478, 126.524, 56.742, -41.552, -11.564, 22.22, 0.44998, 0.00467, -0.01944, 0.89276,
 15:14:34.356,c2:22:89:2b:7b:c3, 2015-01-01 00:29:48.165, 0.024, -0.031, 1.001, 0, 0, 0, -1.747, -1.478, 126.524, 56.742, -41.552, -11.564, 22.22, 0.44998, 0.00467, -0.01944, 0.89276,
 15:14:34.356,c2:22:89:2b:7b:c3, 2015-01-01 00:29:48.165, 0.025, -0.033, 1.004, 0, 0, 0, -1.747, -1.478, 126.524, 56.742, -41.552, -11.564, 22.22, 0.44998, 0.00467, -0.01944, 0.89276,
 15:14:34.356,c2:22:89:2b:7b:c3, 2015-01-01 00:29:48.165, 0.026, -0.027, 1.002, 0, 0, 0, -1.747, -1.478, 126.524, 56.742, -41.552, -11.564, 22.22, 0.44998, 0.00467, -0.01944, 0.89276,
 15:14:34.385,c2:22:89:2b:7b:c3, 2015-01-01 00:29:48.730, 0.023, -0.029, 1, 0, 0, 0, -1.747, -1.478, 126.524, 56.742, -41.552, -11.564, 22.22, 0.44998, 0.00467, -0.01944, 0.89276,
 15:14:34.385,c2:22:89:2b:7b:c3, 2015-01-01 00:29:48.730, 0.025, -0.031, 1.002, 0, 0, 0, -1.747, -1.478, 126.524, 56.742, -41.552, -11.564, 22.22, 0.44998, 0.00467, -0.01944, 0.89276,
 15:14:34.385,c2:22:89:2b:7b:c3, 2015-01-01 00:29:48.730, 0.027, -0.029, 1.001, 0, 0, 0, -1.747, -1.478, 126.524, 56.742, -41.552, -11.564, 22.22, 0.44998, 0.00467, -0.01944, 0.89276,
 15:14:34.385,c2:22:89:2b:7b:c3, 2015-01-01 00:29:48.730, 0.026, -0.029, 1.002, 0, 0, 0, -1.747, -1.478, 126.524, 56.742, -41.552, -11.564, 22.22, 0.44998, 0.00467, -0.01944, 0.89276,
 15:14:34.417,c2:22:89:2b:7b:c3, 2015-01-01 00:29:48.730, 0.024, -0.03, 1.002, 0, 0, 0, -1.747, -1.478, 126.524, 56.742, -41.552, -11.564, 22.22, 0.44998, 0.00467, -0.01944, 0.89276,
 15:14:34.417,c2:22:89:2b:7b:c3, 2015-01-01 00:29:48.730, 0.025, -0.032, 1.002, 0, 0, 0, -1.747, -1.478, 126.524, 56.742, -41.552, -11.564, 22.22, 0.44998, 0.00467, -0.01944, 0.89276,
 15:14:34.417,c2:22:89:2b:7b:c3, 2015-01-01 00:29:48.730, 0.027, -0.031, 1.003, 0, 0, 0, -1.747, -1.478, 126.524, 56.742, -41.552, -11.564, 22.22, 0.44998, 0.00467, -0.01944, 0.89276,
 15:14:34.417,c2:22:89:2b:7b:c3, 2015-01-01 00:29:48.730, 0.024, -0.029, 1.001, 0, 0, 0, -1.747, -1.478, 126.524, 56.742, -41.552, -11.564, 22.22, 0.44998, 0.00467, -0.01944, 0.89276,
 15:14:34.477,c2:22:89:2b:7b:c3, 2015-01-01 00:29:48.730, 0.026, -0.029, 1.002, 0, 0, 0, -1.747, -1.478, 126.524, 56.742, -41.552, -11.564, 22.22, 0.44998, 0.00467, -0.01944, 0.89276,
 15:14:34.477,c2:22:89:2b:7b:c3, 2015-01-01 00:29:48.730, 0.026, -0.028, 1.003, 0, 0, 0, -1.747, -1.478, 126.524, 56.742, -41.552, -11.564, 22.22, 0.44998, 0.00467, -0.01944, 0.89276,
 15:14:34.477,c2:22:89:2b:7b:c3, 2015-01-01 00:29:48.730, 0.023, -0.029, 1.003, 0, 0, 0, -1.747, -1.478, 126.524, 56.742, -41.552, -11.564, 22.22, 0.44998, 0.00467, -0.01944, 0.89276,
 15:14:34.477,c2:22:89:2b:7b:c3, 2015-01-01 00:29:48.730, 0.025, -0.03, 1.001, 0, 0, 0, -1.747, -1.478, 126.524, 56.742, -41.552, -11.564, 22.22, 0.44998, 0.00467, -0.01944, 0.89276,
 15:14:34.507,c2:22:89:2b:7b:c3, 2015-01-01 00:29:48.730, 0.025, -0.03, 1.003, 0, 0, 0, -1.747, -1.478, 126.524, 56.742, -41.552, -11.564, 22.22, 0.44998, 0.00467, -0.01944, 0.89276,
 15:14:34.507,c2:22:89:2b:7b:c3, 2015-01-01 00:29:48.730, 0.027, -0.033, 1, 0, 0, 0, -1.747, -1.478, 126.524, 56.742, -41.552, -11.564, 22.22, 0.44998, 0.00467, -0.01944, 0.89276,
 15:14:34.507,c2:22:89:2b:7b:c3, 2015-01-01 00:29:48.730, 0.026, -0.03, 1.002, 0, 0, 0, -1.747, -1.478, 126.524, 56.742, -41.552, -11.564, 22.22, 0.44998, 0.00467, -0.01944, 0.89276,
 15:14:34.507,c2:22:89:2b:7b:c3, 2015-01-01 00:29:48.730, 0.023, -0.029, 1.003, 0, 0, 0, -1.747, -1.478, 126.524, 56.742, -41.552, -11.564, 22.22, 0.44998, 0.00467, -0.01944, 0.89276,
 15:14:34.567,c2:22:89:2b:7b:c3, 2015-01-01 00:29:48.730, 0.026, -0.031, 1.001, 0, 0, 0, -1.741, -1.478, 126.524, 56.742, -41.552, -11.564, 22.22, 0.44998, 0.00467, -0.01944, 0.89276,
 15:14:34.567,c2:22:89:2b:7b:c3, 2015-01-01 00:29:48.730, 0.027, -0.03, 1.003, 0, 0, 0, -1.741, -1.478, 126.524, 56.742, -41.552, -11.564, 22.22, 0.44998, 0.00467, -0.01944, 0.89276,
 15:14:34.567,c2:22:89:2b:7b:c3, 2015-01-01 00:29:48.730, 0.025, -0.031, 1.004, 0, 0, 0, -1.741, -1.478, 126.524, 56.742, -41.552, -11.564, 22.22, 0.44998, 0.00467, -0.01944, 0.89276,
 15:14:34.567,c2:22:89:2b:7b:c3, 2015-01-01 00:29:48.730, 0.024, -0.031, 1.001, 0, 0, 0, -1.741, -1.478, 126.524, 56.742, -41.552, -11.564, 22.22, 0.44998, 0.00467, -0.01944, 0.89276,
 15:14:34.597,c2:22:89:2b:7b:c3, 2015-01-01 00:29:48.730, 0.026, -0.032, 1.002, 0, 0, 0, -1.741, -1.478, 126.524, 56.644, -41.650, -11.858, 22.22, 0.44998, 0.00467, -0.01944, 0.89276,
 15:14:34.597,c2:22:89:2b:7b:c3, 2015-01-01 00:29:48.730, 0.025, -0.032, 1.004, 0, 0, 0, -1.741, -1.478, 126.524, 56.644, -41.650, -11.858, 22.22, 0.44998, 0.00467, -0.01944, 0.89276,
 15:14:34.597,c2:22:89:2b:7b:c3, 2015-01-01 00:29:48.730, 0.025, -0.029, 1.002, 0, 0, 0, -1.741, -1.478, 126.524, 56.644, -41.650, -11.858, 22.22, 0.44998, 0.00467, -0.01944, 0.89276,
 15:14:34.597,c2:22:89:2b:7b:c3, 2015-01-01 00:29:48.730, 0.024, -0.03, 1.003, 0, 0, 0, -1.741, -1.478, 126.524, 56.644, -41.650, -11.858, 22.22, 0.44998, 0.00467, -0.01944, 0.89276,
 15:14:34.626,c2:22:89:2b:7b:c3, 2015-01-01 00:29:48.730, 0.027, -0.032, 1.003, 0, 0, 0, -1.741, -1.478, 126.524, 56.644, -41.650, -11.858, 22.22, 0.44998, 0.00467, -0.01944, 0.89276,
 15:14:34.626,c2:22:89:2b:7b:c3, 2015-01-01 00:29:48.730, 0.027, -0.031, 1.001, 0, 0, 0, -1.741, -1.478, 126.524, 56.644, -41.650, -11.858, 22.22, 0.44998, 0.00467, -0.01944, 0.89276,
 15:14:34.626,c2:22:89:2b:7b:c3, 2015-01-01 00:29:48.730, 0.026, -0.031, 1.002, 0, 0, 0, -1.741, -1.478, 126.524, 56.644, -41.650, -11.858, 22.22, 0.44998, 0.00467, -0.01944, 0.89276,
 15:14:34.626,c2:22:89:2b:7b:c3, 2015-01-01 00:29:48.730, 0.028, -0.027, 1, 0, 0, 0, -1.741, -1.478, 126.524, 56.644, -41.650, -11.858, 22.22, 0.44998, 0.00467, -0.01944, 0.89276,
 15:14:34.686,c2:22:89:2b:7b:c3, 2015-01-01 00:29:48.730, 0.027, -0.031, 1.002, 0, 0, 0, -1.741, -1.478, 126.524, 56.644, -41.650, -11.858, 22.22, 0.44998, 0.00467, -0.01941, 0.89276,
 15:14:34.686,c2:22:89:2b:7b:c3, 2015-01-01 00:29:48.730, 0.025, -0.03, 1.003, 0, 0, 0, -1.741, -1.478, 126.524, 56.644, -41.650, -11.858, 22.22, 0.44998, 0.00467, -0.01941, 0.89276,
 15:14:34.686,c2:22:89:2b:7b:c3, 2015-01-01 00:29:48.730, 0.024, -0.032, 1.004, 0, 0, 0, -1.741, -1.478, 126.524, 56.644, -41.650, -11.858, 22.22, 0.44998, 0.00467, -0.01941, 0.89276,
 15:14:34.686,c2:22:89:2b:7b:c3, 2015-01-01 00:29:48.730, 0.027, -0.029, 1.002, 0, 0, 0, -1.741, -1.478, 126.524, 56.644, -41.650, -11.858, 22.22, 0.44998, 0.00467, -0.01941, 0.89276,
 15:14:34.716,c2:22:89:2b:7b:c3, 2015-01-01 00:29:49.085, 0.024, -0.032, 1, 0, 0, 0, -1.741, -1.478, 126.524, 56.644, -41.650, -11.858, 22.22, 0.44998, 0.00467, -0.01941, 0.89276,
 15:14:34.716,c2:22:89:2b:7b:c3, 2015-01-01 00:29:49.085, 0.026, -0.031, 1.001, 0, 0, 0, -1.741, -1.478, 126.524, 56.644, -41.650, -11.858, 22.22, 0.44998, 0.00467, -0.01941, 0.89276,
 15:14:34.716,c2:22:89:2b:7b:c3, 2015-01-01 00:29:49.085, 0.024, -0.03, 1.004, 0, 0, 0, -1.741, -1.478, 126.524, 56.644, -41.650, -11.858, 22.22, 0.44998, 0.00467, -0.01941, 0.89276,
 15:14:34.716,c2:22:89:2b:7b:c3, 2015-01-01 00:29:49.085, 0.026, -0.028, 1.004, 0, 0, 0, -1.741, -1.478, 126.524, 56.644, -41.650, -11.858, 22.22, 0.44998, 0.00467, -0.01941, 0.89276,
 15:14:34.746,c2:22:89:2b:7b:c3, 2015-01-01 00:29:49.085, 0.027, -0.029, 1, 0, 0, 0, -1.741, -1.478, 126.524, 56.644, -41.650, -11.858, 22.22, 0.44998, 0.00467, -0.01941, 0.89276,
 15:14:34.746,c2:22:89:2b:7b:c3, 2015-01-01 00:29:49.085, 0.025, -0.034, 1.004, 0, 0, 0, -1.741, -1.478, 126.524, 56.644, -41.650, -11.858, 22.22, 0.44998, 0.00467, -0.01941, 0.89276,
 15:14:34.746,c2:22:89:2b:7b:c3, 2015-01-01 00:29:49.085, 0.025, -0.029, 1.004, 0, 0, 0, -1.741, -1.478, 126.524, 56.644, -41.650, -11.858, 22.22, 0.44998, 0.00467, -0.01941, 0.89276,
 15:14:34.746,c2:22:89:2b:7b:c3, 2015-01-01 00:29:49.085, 0.027, -0.029, 1.001, 0, 0, 0, -1.741, -1.478, 126.524, 56.644, -41.650, -11.858, 22.22, 0.44998, 0.00467, -0.01941, 0.89276,
 15:14:34.806,c2:22:89:2b:7b:c3, 2015-01-01 00:29:49.085, 0.028, -0.031, 1.002, 0, 0, 0, -1.741, -1.478, 126.524, 56.644, -41.650, -11.858, 22.22, 0.44998, 0.00467, -0.01941, 0.89276,
 15:14:34.806,c2:22:89:2b:7b:c3, 2015-01-01 00:29:49.085, 0.027, -0.03, 1.001, 0, 0, 0, -1.741, -1.478, 126.524, 56.644, -41.650, -11.858, 22.22, 0.44998, 0.00467, -0.01941, 0.89276,
 15:14:34.806,c2:22:89:2b:7b:c3, 2015-01-01 00:29:49.085, 0.023, -0.025, 0.992, 0, 0, 0, -1.741, -1.478, 126.524, 56.644, -41.650, -11.858, 22.22, 0.44998, 0.00467, -0.01941, 0.89276,
 15:14:34.806,c2:22:89:2b:7b:c3, 2015-01-01 00:29:49.085, 0.014, -0.026, 0.977, 0, 0, 0, -1.741, -1.478, 126.524, 56.644, -41.650, -11.858, 22.22, 0.44998, 0.00467, -0.01941, 0.89276,
 15:14:34.836,c2:22:89:2b:7b:c3, 2015-01-01 00:29:49.085, 0.011, -0.028, 0.963, -0.549, -0.122, 0, -1.747, -1.478, 126.524, 56.644, -41.650, -11.858, 22.22, 0.44998, 0.00467, -0.01941, 0.89276,
 15:14:34.836,c2:22:89:2b:7b:c3, 2015-01-01 00:29:49.085, 0.018, -0.035, 0.958, -0.61, -0.916, 0, -1.752, -1.483, 126.524, 56.644, -41.650, -11.858, 22.22, 0.44998, 0.00467, -0.01941, 0.89276,
 15:14:34.836,c2:22:89:2b:7b:c3, 2015-01-01 00:29:49.085, 0.023, -0.044, 0.963, 0, -1.16, 0, -1.758, -1.494, 126.524, 56.644, -41.650, -11.858, 22.22, 0.44998, 0.00467, -0.01941, 0.89276,
 15:14:34.836,c2:22:89:2b:7b:c3, 2015-01-01 00:29:49.085, 0.009, -0.04, 0.978, 0.671, -1.404, 0, -1.752, -1.505, 126.524, 56.644, -41.650, -11.858, 22.22, 0.44998, 0.00467, -0.01941, 0.89276,
 15:14:34.866,c2:22:89:2b:7b:c3, 2015-01-01 00:29:49.085, 0.012, -0.021, 0.982, 1.099, -0.732, 0, -1.741, -1.516, 126.524, 56.644, -41.650, -11.858, 22.22, 0.44998, 0.00467, -0.01941, 0.89276,
 15:14:34.866,c2:22:89:2b:7b:c3, 2015-01-01 00:29:49.085, 0.043, -0.01, 0.978, -0.122, -2.075, 0, -1.736, -1.527, 126.524, 56.644, -41.650, -11.858, 22.22, 0.44998, 0.00467, -0.01941, 0.89276,
 15:14:34.866,c2:22:89:2b:7b:c3, 2015-01-01 00:29:49.085, 0.044, -0.051, 0.991, -0.671, -2.93, 0, -1.741, -1.555, 126.524, 56.644, -41.650, -11.858, 22.22, 0.44998, 0.00467, -0.01941, 0.89276,
 15:14:34.866,c2:22:89:2b:7b:c3, 2015-01-01 00:29:49.085, 0.005, -0.043, 0.998, 0.122, -0.061, 0, -1.747, -1.566, 126.524, 56.644, -41.650, -11.858, 22.22, 0.44998, 0.00467, -0.01941, 0.89276,
 15:14:34.927,c2:22:89:2b:7b:c3, 2015-01-01 00:29:49.085, -0.002, -0.01, 1.01, -0.183, -0.488, 0, -1.741, -1.566, 126.524, 56.644, -41.650, -11.858, 22.22, 0.44998, 0.00467, -0.01941, 0.89276,
 15:14:34.927,c2:22:89:2b:7b:c3, 2015-01-01 00:29:49.085, 0.058, -0.035, 0.993, -0.244, -2.38, 0, -1.747, -1.582, 126.524, 56.644, -41.650, -11.858, 22.22, 0.44998, 0.00467, -0.01941, 0.89276,
 15:14:34.927,c2:22:89:2b:7b:c3, 2015-01-01 00:29:49.085, 0.015, -0.05, 0.978, -0.061, -3.601, 0, -1.747, -1.615, 126.524, 56.644, -41.650, -11.858, 22.22, 0.44998, 0.00467, -0.01941, 0.89276,
 15:14:34.927,c2:22:89:2b:7b:c3, 2015-01-01 00:29:49.085, 0.05, -0.023, 1.014, 2.808, -1.221, 0, -1.73, -1.631, 126.524, 56.644, -41.650, -11.858, 22.22, 0.44998, 0.00467, -0.01941, 0.89276,
 15:14:34.956,c2:22:89:2b:7b:c3, 2015-01-01 00:29:49.085, 0.032, 0.002, 0.999, -0.916, -1.953, 0.305, -1.725, -1.648, 126.524, 56.644, -41.650, -11.564, 22.22, 0.44998, 0.00467, -0.01941, 0.89276,
 15:14:34.956,c2:22:89:2b:7b:c3, 2015-01-01 00:29:49.085, 0.007, -0.055, 0.997, -1.709, -1.16, 0.244, -1.747, -1.659, 126.53, 56.644, -41.650, -11.564, 22.22, 0.44998, 0.00467, -0.01941, 0.89276,
 15:14:34.956,c2:22:89:2b:7b:c3, 2015-01-01 00:29:49.085, 0.001, -0.019, 0.973, 1.404, -1.282, 0, -1.741, -1.67, 126.53, 56.644, -41.650, -11.564, 22.22, 0.44998, 0.00467, -0.01941, 0.89276,
 15:14:34.956,c2:22:89:2b:7b:c3, 2015-01-01 00:29:49.085, 0.045, -0.009, 0.971, -1.038, -2.075, 0.061, -1.741, -1.686, 126.53, 56.644, -41.650, -11.564, 22.22, 0.44998, 0.00467, -0.01941, 0.89276,
 15:14:34.987,c2:22:89:2b:7b:c3, 2015-01-01 00:29:49.085, 0.065, -0.061, 0.993, -0.732, -3.845, 0.244, -1.752, -1.719, 126.53, 56.644, -41.650, -11.564, 22.22, 0.44998, 0.00467, -0.01941, 0.89276,
 15:14:34.987,c2:22:89:2b:7b:c3, 2015-01-01 00:29:49.085, -0.024, -0.056, 0.987, 0.549, -1.831, 0, -1.752, -1.747, 126.53, 56.644, -41.650, -11.564, 22.22, 0.44998, 0.00467, -0.01941, 0.89276,
 15:14:34.987,c2:22:89:2b:7b:c3, 2015-01-01 00:29:49.085, 0.003, -0.001, 0.98, 1.587, -0.671, -0.244, -1.736, -1.747, 126.53, 56.644, -41.650, -11.564, 22.22, 0.44998, 0.00467, -0.01941, 0.89276,
 15:14:34.987,c2:22:89:2b:7b:c3, 2015-01-01 00:29:49.085, 0.083, -0.007, 0.965, 0, -4.944, -0.061, -1.736, -1.785, 126.53, 56.644, -41.650, -11.564, 22.22, 0.44998, 0.00467, -0.01941, 0.89276,
 15:14:35.047,c2:22:89:2b:7b:c3, 2015-01-01 00:29:49.085, 0.041, -0.065, 1, -1.648, -4.333, 0.305, -1.747, -1.835, 126.535, 56.644, -41.650, -11.564, 22.22, 0.44992, 0.0069, -0.02045, 0.89276,
 15:14:35.047,c2:22:89:2b:7b:c3, 2015-01-01 00:29:49.085, -0.01, -0.053, 1.009, 1.709, -0.244, 0.122, -1.741, -1.84, 126.535, 56.644, -41.650, -11.564, 22.22, 0.44992, 0.0069, -0.02045, 0.89276,
 15:14:35.047,c2:22:89:2b:7b:c3, 2015-01-01 00:29:49.085, 0.037, 0.026, 0.989, 0.854, -2.075, -0.061, -1.725, -1.851, 126.535, 56.644, -41.650, -11.564, 22.22, 0.44992, 0.0069, -0.02045, 0.89276,
 15:14:35.047,c2:22:89:2b:7b:c3, 2015-01-01 00:29:49.085, 0.074, -0.049, 1.005, -2.136, -5.005, 0.061, -1.741, -1.895, 126.541, 56.644, -41.650, -11.564, 22.22, 0.44992, 0.0069, -0.02045, 0.89276,
 15:14:35.076,c2:22:89:2b:7b:c3, 2015-01-01 00:29:49.445, 0.031, -0.057, 1.023, 0.854, -3.113, 0.061, -1.741, -1.934, 126.541, 56.644, -41.650, -11.564, 22.22, 0.44992, 0.0069, -0.02045, 0.89276,
 15:14:35.076,c2:22:89:2b:7b:c3, 2015-01-01 00:29:49.445, 0.007, 0, 1.006, 2.014, -0.671, 0, -1.725, -1.939, 126.541, 56.644, -41.650, -11.564, 22.22, 0.44992, 0.0069, -0.02045, 0.89276,
 15:14:35.076,c2:22:89:2b:7b:c3, 2015-01-01 00:29:49.445, 0.044, -0.009, 0.984, -1.892, -2.869, 0.061, -1.73, -1.961, 126.541, 56.644, -41.650, -11.564, 22.22, 0.44992, 0.0069, -0.02045, 0.89276,
 15:14:35.076,c2:22:89:2b:7b:c3, 2015-01-01 00:29:49.445, 0.056, -0.044, 0.984, -0.732, -4.517, -0.122, -1.741, -2, 126.546, 56.644, -41.650, -11.564, 22.22, 0.44992, 0.0069, -0.02045, 0.89276,
 15:14:35.106,c2:22:89:2b:7b:c3, 2015-01-01 00:29:49.445, 0, -0.045, 0.977, -0.366, -1.343, 0.061, -1.747, -2.021, 126.546, 56.644, -41.650, -11.564, 22.22, 0.44992, 0.0069, -0.02045, 0.89276,
 15:14:35.106,c2:22:89:2b:7b:c3, 2015-01-01 00:29:49.445, 0.03, -0.029, 0.981, 0.061, -2.075, 0.244, -1.747, -2.032, 126.546, 56.644, -41.650, -11.564, 22.22, 0.44992, 0.0069, -0.02045, 0.89276,
 15:14:35.106,c2:22:89:2b:7b:c3, 2015-01-01 00:29:49.445, 0.039, -0.027, 0.982, -0.488, -4.7, 0.183, -1.747, -2.076, 126.552, 56.644, -41.650, -11.564, 22.22, 0.44992, 0.0069, -0.02045, 0.89276,
 15:14:35.106,c2:22:89:2b:7b:c3, 2015-01-01 00:29:49.445, 0.045, -0.057, 0.992, 0.732, -3.906, 0, -1.747, -2.115, 126.552, 56.644, -41.650, -11.564, 22.22, 0.44992, 0.0069, -0.02045, 0.89276,
 15:14:35.166,c2:22:89:2b:7b:c3, 2015-01-01 00:29:49.445, 0.041, -0.022, 0.994, 1.953, -3.052, 0.061, -1.73, -2.148, 126.557, 56.644, -41.650, -11.564, 22.22, 0.44992, 0.0069, -0.02045, 0.89276,
 15:14:35.166,c2:22:89:2b:7b:c3, 2015-01-01 00:29:49.445, 0.044, -0.014, 1.013, -0.122, -3.784, 0.183, -1.725, -2.181, 126.557, 56.644, -41.650, -11.564, 22.22, 0.44992, 0.0069, -0.02045, 0.89276,
 15:14:35.166,c2:22:89:2b:7b:c3, 2015-01-01 00:29:49.445, 0.037, -0.033, 1.017, 0, -3.967, -0.061, -1.73, -2.219, 126.562, 56.644, -41.650, -11.564, 22.22, 0.44992, 0.0069, -0.02045, 0.89276,
 15:14:35.166,c2:22:89:2b:7b:c3, 2015-01-01 00:29:49.445, 0.043, -0.011, 0.992, 0.61, -2.319, 0, -1.725, -2.241, 126.562, 56.644, -41.650, -11.564, 22.22, 0.44992, 0.0069, -0.02045, 0.89276,
 15:14:35.196,c2:22:89:2b:7b:c3, 2015-01-01 00:29:49.445, 0.046, -0.03, 0.986, -1.953, -3.113, 0.183, -1.736, -2.274, 126.562, 56.644, -41.650, -11.564, 22.22, 0.44992, 0.0069, -0.02045, 0.89276,
 15:14:35.196,c2:22:89:2b:7b:c3, 2015-01-01 00:29:49.445, 0.031, -0.053, 1.003, -1.526, -3.601, 0.244, -1.752, -2.307, 126.568, 56.644, -41.650, -11.564, 22.22, 0.44992, 0.0069, -0.02045, 0.89276,
 15:14:35.196,c2:22:89:2b:7b:c3, 2015-01-01 00:29:49.445, 0.02, -0.039, 1.004, 1.343, -3.113, -0.183, -1.747, -2.335, 126.568, 56.644, -41.650, -11.564, 22.22, 0.44992, 0.0069, -0.02045, 0.89276,
 15:14:35.196,c2:22:89:2b:7b:c3, 2015-01-01 00:29:49.445, 0.053, -0.01, 0.989, 1.038, -3.662, -0.122, -1.736, -2.368, 126.568, 56.644, -41.650, -11.564, 22.22, 0.44992, 0.0069, -0.02045, 0.89276,
 15:14:35.227,c2:22:89:2b:7b:c3, 2015-01-01 00:29:49.445, 0.079, -0.04, 0.996, 0.122, -5.005, 0.183, -1.736, -2.411, 126.573, 56.644, -41.650, -11.564, 22.22, 0.44992, 0.0069, -0.02045, 0.89276,
 15:14:35.227,c2:22:89:2b:7b:c3, 2015-01-01 00:29:49.445, 0.026, -0.037, 1.008, 0, -3.54, 0.183, -1.736, -2.455, 126.573, 56.644, -41.650, -11.564, 22.22, 0.44992, 0.0069, -0.02045, 0.89276,
 15:14:35.227,c2:22:89:2b:7b:c3, 2015-01-01 00:29:49.445, 0.024, -0.015, 1.001, 0.671, -2.075, -0.061, -1.73, -2.472, 126.573, 56.644, -41.650, -11.564, 22.22, 0.44992, 0.0069, -0.02045, 0.89276,
 15:14:35.227,c2:22:89:2b:7b:c3, 2015-01-01 00:29:49.445, 0.054, -0.007, 0.978, -0.793, -3.784, -0.061, -1.73, -2.505, 126.579, 56.644, -41.650, -11.564, 22.22, 0.44992, 0.0069, -0.02045, 0.89276,
 15:14:35.286,c2:22:89:2b:7b:c3, 2015-01-01 00:29:49.445, 0.063, -0.048, 0.984, -1.648, -4.333, 0.122, -1.747, -2.549, 126.579, 56.644, -41.650, -11.564, 22.22, 0.44992, 0.0069, -0.02045, 0.89276,
 15:14:35.286,c2:22:89:2b:7b:c3, 2015-01-01 00:29:49.445, 0.025, -0.058, 0.995, -0.244, -3.296, 0.244, -1.758, -2.582, 126.584, 56.644, -41.650, -11.564, 22.22, 0.44992, 0.0069, -0.02045, 0.89276,
 15:14:35.286,c2:22:89:2b:7b:c3, 2015-01-01 00:29:49.445, 0.033, -0.029, 1.004, 1.526, -3.235, 0, -1.747, -2.609, 126.584, 56.644, -41.650, -11.564, 22.22, 0.44992, 0.0069, -0.02045, 0.89276,
 15:14:35.286,c2:22:89:2b:7b:c3, 2015-01-01 00:29:49.445, 0.071, -0.016, 1.002, 0.916, -5.066, 0, -1.736, -2.653, 126.59, 56.644, -41.650, -11.564, 22.22, 0.44992, 0.0069, -0.02045, 0.89276,
 15:14:35.317,c2:22:89:2b:7b:c3, 2015-01-01 00:29:49.445, 0.07, -0.032, 1, 0.305, -5.005, 0, -1.73, -2.703, 126.59, 56.154, -41.748, -11.270, 22.22, 0.44992, 0.0069, -0.02045, 0.89276,
 15:14:35.317,c2:22:89:2b:7b:c3, 2015-01-01 00:29:49.445, 0.045, -0.03, 1.007, 0.244, -3.235, 0.122, -1.73, -2.741, 126.595, 56.154, -41.748, -11.270, 22.22, 0.44992, 0.0069, -0.02045, 0.89276,
 15:14:35.317,c2:22:89:2b:7b:c3, 2015-01-01 00:29:49.445, 0.041, -0.017, 1.004, -0.488, -2.869, 0, -1.73, -2.769, 126.595, 56.154, -41.748, -11.270, 22.22, 0.44992, 0.0069, -0.02045, 0.89276,
 15:14:35.317,c2:22:89:2b:7b:c3, 2015-01-01 00:29:49.445, 0.056, -0.027, 1, -0.793, -4.272, 0, -1.741, -2.802, 126.595, 56.154, -41.748, -11.270, 22.22, 0.44992, 0.0069, -0.02045, 0.89276,
 15:14:35.377,c2:22:89:2b:7b:c3, 2015-01-01 00:29:49.445, 0.052, -0.046, 0.994, -0.305, -3.601, 0, -1.747, -2.84, 126.601, 56.154, -41.748, -11.270, 22.22, 0.44992, 0.0069, -0.02045, 0.89276,
 15:14:35.377,c2:22:89:2b:7b:c3, 2015-01-01 00:29:49.445, 0.043, -0.039, 0.996, -0.061, -3.479, 0.183, -1.747, -2.873, 126.601, 56.154, -41.748, -11.270, 22.22, 0.44992, 0.0069, -0.02045, 0.89276,
 15:14:35.377,c2:22:89:2b:7b:c3, 2015-01-01 00:29:49.445, 0.051, -0.03, 0.998, 0, -3.906, 0.061, -1.747, -2.911, 126.606, 56.154, -41.748, -11.270, 22.22, 0.44992, 0.0069, -0.02045, 0.89276,
 15:14:35.377,c2:22:89:2b:7b:c3, 2015-01-01 00:29:49.445, 0.057, -0.033, 0.995, 0.549, -4.456, 0, -1.741, -2.95, 126.612, 56.154, -41.748, -11.270, 22.22, 0.44992, 0.0069, -0.02045, 0.89276,
 15:14:35.406,c2:22:89:2b:7b:c3, 2015-01-01 00:29:49.445, 0.054, -0.027, 0.991, 0.427, -4.089, -0.244, -1.736, -2.994, 126.612, 56.154, -41.748, -11.270, 22.22, 0.44937, 0.01584, -0.02502, 0.89279,
 15:14:35.406,c2:22:89:2b:7b:c3, 2015-01-01 00:29:49.445, 0.067, -0.029, 0.999, -0.366, -4.15, 0.122, -1.736, -3.032, 126.617, 56.154, -41.748, -11.270, 22.22, 0.44937, 0.01584, -0.02502, 0.89279,
 15:14:35.406,c2:22:89:2b:7b:c3, 2015-01-01 00:29:49.445, 0.061, -0.037, 1.013, 0, -4.333, 0.061, -1.736, -3.071, 126.617, 56.154, -41.748, -11.270, 22.22, 0.44937, 0.01584, -0.02502, 0.89279,
 15:14:35.406,c2:22:89:2b:7b:c3, 2015-01-01 00:29:49.445, 0.042, -0.031, 1.01, 0.488, -3.174, 0.061, -1.736, -3.104, 126.623, 56.154, -41.748, -11.270, 22.22, 0.44937, 0.01584, -0.02502, 0.89279,
 15:14:35.467,c2:22:89:2b:7b:c3, 2015-01-01 00:29:49.445, 0.062, -0.007, 0.995, 0.244, -3.54, 0, -1.73, -3.137, 126.628, 56.154, -41.748, -11.270, 22.22, 0.44937, 0.01584, -0.02502, 0.89279,
 15:14:35.467,c2:22:89:2b:7b:c3, 2015-01-01 00:29:49.445, 0.072, -0.034, 0.992, -1.404, -4.578, 0.061, -1.741, -3.181, 126.628, 56.154, -41.748, -11.270, 22.22, 0.44937, 0.01584, -0.02502, 0.89279,
 15:14:35.467,c2:22:89:2b:7b:c3, 2015-01-01 00:29:49.445, 0.041, -0.055, 1.001, -0.61, -3.967, 0.061, -1.752, -3.219, 126.634, 56.154, -41.748, -11.270, 22.22, 0.44937, 0.01584, -0.02502, 0.89279,
 15:14:35.467,c2:22:89:2b:7b:c3, 2015-01-01 00:29:49.445, 0.052, -0.021, 1.001, 1.648, -3.357, -0.183, -1.741, -3.252, 126.634, 56.154, -41.748, -11.270, 22.22, 0.44937, 0.01584, -0.02502, 0.89279,
 15:14:35.467,c2:22:89:2b:7b:c3, 2015-01-01 00:29:49.445, 0.079, -0.009, 0.996, -0.061, -4.822, 0.061, -1.736, -3.296, 126.639, 56.154, -41.748, -11.270, 22.22, 0.44937, 0.01584, -0.02502, 0.89279,
 15:14:35.467,c2:22:89:2b:7b:c3, 2015-01-01 00:29:49.445, 0.078, -0.052, 1.009, -0.549, -5.066, 0.183, -1.741, -3.34, 126.645, 56.154, -41.748, -11.270, 22.22, 0.44937, 0.01584, -0.02502, 0.89279,
 15:14:35.467,c2:22:89:2b:7b:c3, 2015-01-01 00:29:49.445, 0.047, -0.036, 1.011, 0.977, -3.174, 0.122, -1.736, -3.378, 126.65, 56.154, -41.748, -11.270, 22.22, 0.44937, 0.01584, -0.02502, 0.89279,
 15:14:35.467,c2:22:89:2b:7b:c3, 2015-01-01 00:29:49.445, 0.057, -0.005, 1.005, 0.549, -3.235, -0.122, -1.73, -3.406, 126.65, 56.154, -41.748, -11.270, 22.22, 0.44937, 0.01584, -0.02502, 0.89279,
 15:14:35.556,c2:22:89:2b:7b:c3, 2015-01-01 00:29:49.830, 0.08, -0.021, 0.993, -1.16, -4.761, 0.244, -1.736, -3.45, 126.656, 56.154, -41.748, -11.270, 22.22, 0.44937, 0.01584, -0.02502, 0.89279,
 15:14:35.556,c2:22:89:2b:7b:c3, 2015-01-01 00:29:49.830, 0.059, -0.05, 0.992, -0.854, -3.906, 0.244, -1.747, -3.488, 126.661, 56.154, -41.748, -11.270, 22.22, 0.44937, 0.01584, -0.02502, 0.89279,
 15:14:35.556,c2:22:89:2b:7b:c3, 2015-01-01 00:29:49.830, 0.048, -0.034, 1.002, 0.427, -2.991, 0.061, -1.747, -3.521, 126.667, 56.154, -41.748, -11.270, 22.22, 0.44937, 0.01584, -0.02502, 0.89279,
 15:14:35.556,c2:22:89:2b:7b:c3, 2015-01-01 00:29:49.830, 0.067, -0.022, 1, 0.366, -3.906, 0.122, -1.741, -3.554, 126.672, 56.154, -41.748, -11.270, 22.22, 0.44937, 0.01584, -0.02502, 0.89279,
 15:14:35.556,c2:22:89:2b:7b:c3, 2015-01-01 00:29:49.830, 0.082, -0.034, 1.001, 0.183, -5.127, 0, -1.741, -3.604, 126.672, 56.154, -41.748, -11.270, 22.22, 0.44937, 0.01584, -0.02502, 0.89279,
 15:14:35.556,c2:22:89:2b:7b:c3, 2015-01-01 00:29:49.830, 0.06, -0.035, 0.999, 0.122, -3.906, 0.122, -1.741, -3.642, 126.678, 56.154, -41.748, -11.270, 22.22, 0.44937, 0.01584, -0.02502, 0.89279,
 15:14:35.556,c2:22:89:2b:7b:c3, 2015-01-01 00:29:49.830, 0.069, -0.025, 1.005, 0, -3.418, 0, -1.736, -3.675, 126.683, 56.154, -41.748, -11.270, 22.22, 0.44937, 0.01584, -0.02502, 0.89279,
 15:14:35.556,c2:22:89:2b:7b:c3, 2015-01-01 00:29:49.830, 0.077, -0.028, 1.008, -0.305, -4.333, 0, -1.736, -3.713, 126.689, 56.154, -41.748, -11.270, 22.22, 0.44937, 0.01584, -0.02502, 0.89279,
 15:14:35.586,c2:22:89:2b:7b:c3, 2015-01-01 00:29:49.830, 0.066, -0.03, 1.006, 0, -3.845, 0, -1.741, -3.752, 126.689, 56.154, -41.748, -11.270, 22.22, 0.44937, 0.01584, -0.02502, 0.89279,
 15:14:35.586,c2:22:89:2b:7b:c3, 2015-01-01 00:29:49.830, 0.067, -0.022, 0.997, 0.122, -3.296, 0.061, -1.741, -3.79, 126.694, 56.154, -41.748, -11.270, 22.22, 0.44937, 0.01584, -0.02502, 0.89279,
 15:14:35.586,c2:22:89:2b:7b:c3, 2015-01-01 00:29:49.830, 0.081, -0.029, 1.002, -0.488, -4.028, 0, -1.741, -3.823, 126.7, 56.154, -41.748, -11.270, 22.22, 0.44937, 0.01584, -0.02502, 0.89279,
 15:14:35.586,c2:22:89:2b:7b:c3, 2015-01-01 00:29:49.830, 0.062, -0.041, 1.004, -0.122, -4.028, 0.061, -1.747, -3.867, 126.705, 56.154, -41.748, -11.270, 22.22, 0.44937, 0.01584, -0.02502, 0.89279,
 15:14:35.646,c2:22:89:2b:7b:c3, 2015-01-01 00:29:49.830, 0.062, -0.025, 0.999, 0.854, -3.235, 0.122, -1.741, -3.9, 126.711, 56.154, -41.748, -11.270, 22.22, 0.44937, 0.01584, -0.02502, 0.89279,
 15:14:35.646,c2:22:89:2b:7b:c3, 2015-01-01 00:29:49.830, 0.089, -0.015, 0.995, -0.122, -4.028, 0.183, -1.736, -3.933, 126.716, 56.154, -41.748, -11.270, 22.22, 0.44937, 0.01584, -0.02502, 0.89279,
 15:14:35.646,c2:22:89:2b:7b:c3, 2015-01-01 00:29:49.830, 0.095, -0.05, 1.01, -0.305, -4.578, 0.244, -1.741, -3.977, 126.722, 56.154, -41.748, -11.270, 22.22, 0.44937, 0.01584, -0.02502, 0.89279,
 15:14:35.646,c2:22:89:2b:7b:c3, 2015-01-01 00:29:49.830, 0.057, -0.041, 1.016, 1.099, -3.235, 0.061, -1.736, -4.016, 126.727, 56.154, -41.748, -11.270, 22.22, 0.44937, 0.01584, -0.02502, 0.89279,
 15:14:35.676,c2:22:89:2b:7b:c3, 2015-01-01 00:29:49.830, 0.073, -0.003, 1.007, 0.977, -2.808, 0, -1.725, -4.043, 126.733, 56.154, -41.748, -11.270, 22.22, 0.44937, 0.01584, -0.02502, 0.89279,
 15:14:35.676,c2:22:89:2b:7b:c3, 2015-01-01 00:29:49.830, 0.096, -0.017, 0.996, -1.343, -4.395, 0, -1.73, -4.081, 126.733, 56.154, -41.748, -11.270, 22.22, 0.44937, 0.01584, -0.02502, 0.89279,
 15:14:35.676,c2:22:89:2b:7b:c3, 2015-01-01 00:29:49.830, 0.071, -0.052, 0.998, -1.038, -3.723, 0, -1.747, -4.12, 126.738, 56.154, -41.748, -11.270, 22.22, 0.44937, 0.01584, -0.02502, 0.89279,
 15:14:35.676,c2:22:89:2b:7b:c3, 2015-01-01 00:29:49.830, 0.05, -0.029, 0.998, 0.671, -2.502, 0, -1.741, -4.147, 126.744, 56.154, -41.748, -11.270, 22.22, 0.44937, 0.01584, -0.02502, 0.89279,
 15:14:35.706,c2:22:89:2b:7b:c3, 2015-01-01 00:29:49.830, 0.084, -0.018, 0.992, -0.305, -3.357, 0, -1.741, -4.175, 126.749, 55.272, -42.140, -10.486, 22.22, 0.44937, 0.01584, -0.02502, 0.89279,
 15:14:35.706,c2:22:89:2b:7b:c3, 2015-01-01 00:29:49.830, 0.102, -0.048, 0.999, -0.244, -5.31, 0, -1.747, -4.224, 126.755, 55.272, -42.140, -10.486, 22.22, 0.44937, 0.01584, -0.02502, 0.89279,
 15:14:35.706,c2:22:89:2b:7b:c3, 2015-01-01 00:29:49.830, 0.069, -0.048, 1.013, 1.16, -3.601, 0, -1.741, -4.268, 126.755, 55.272, -42.140, -10.486, 22.22, 0.44937, 0.01584, -0.02502, 0.89279,
 15:14:35.706,c2:22:89:2b:7b:c3, 2015-01-01 00:29:49.830, 0.076, -0.005, 1.016, 1.465, -2.625, 0, -1.725, -4.29, 126.76, 55.272, -42.140, -10.486, 22.22, 0.44937, 0.01584, -0.02502, 0.89279,
 15:14:35.768,c2:22:89:2b:7b:c3, 2015-01-01 00:29:49.830, 0.1, -0.01, 1.003, -0.549, -4.272, 0, -1.725, -4.329, 126.766, 55.272, -42.140, -10.486, 22.22, 0.44937, 0.01584, -0.02502, 0.89279,
 15:14:35.768,c2:22:89:2b:7b:c3, 2015-01-01 00:29:49.830, 0.085, -0.045, 1.005, -0.916, -3.906, 0, -1.736, -4.373, 126.771, 55.272, -42.140, -10.486, 22.22, 0.44937, 0.01584, -0.02502, 0.89279,
 15:14:35.768,c2:22:89:2b:7b:c3, 2015-01-01 00:29:49.830, 0.061, -0.032, 1.004, 0.305, -1.892, 0, -1.736, -4.395, 126.777, 55.272, -42.140, -10.486, 22.22, 0.44937, 0.01584, -0.02502, 0.89279,
 15:14:35.768,c2:22:89:2b:7b:c3, 2015-01-01 00:29:49.830, 0.09, -0.013, 1.008, -0.305, -3.235, 0, -1.736, -4.422, 126.782, 55.272, -42.140, -10.486, 22.22, 0.44937, 0.01584, -0.02502, 0.89279,
 15:14:35.796,c2:22:89:2b:7b:c3, 2015-01-01 00:29:49.830, 0.086, -0.047, 1.002, -0.977, -4.272, 0, -1.741, -4.46, 126.788, 55.272, -42.140, -10.486, 22.22, 0.44806, 0.02731, -0.03064, 0.89301,
 15:14:35.796,c2:22:89:2b:7b:c3, 2015-01-01 00:29:49.830, 0.076, -0.047, 1.002, 0.732, -3.174, 0, -1.741, -4.493, 126.793, 55.272, -42.140, -10.486, 22.22, 0.44806, 0.02731, -0.03064, 0.89301,
 15:14:35.796,c2:22:89:2b:7b:c3, 2015-01-01 00:29:49.830, 0.086, -0.014, 1, 1.038, -2.869, 0, -1.73, -4.521, 126.799, 55.272, -42.140, -10.486, 22.22, 0.44806, 0.02731, -0.03064, 0.89301,
 15:14:35.796,c2:22:89:2b:7b:c3, 2015-01-01 00:29:49.830, 0.098, -0.027, 1.003, -0.61, -4.028, 0, -1.73, -4.559, 126.804, 55.272, -42.140, -10.486, 22.22, 0.44806, 0.02731, -0.03064, 0.89301,
 15:14:35.827,c2:22:89:2b:7b:c3, 2015-01-01 00:29:49.830, 0.075, -0.037, 1.003, 0.122, -3.54, 0, -1.73, -4.598, 126.81, 55.272, -42.140, -10.486, 22.22, 0.44806, 0.02731, -0.03064, 0.89301,
 15:14:35.828,c2:22:89:2b:7b:c3, 2015-01-01 00:29:49.830, 0.073, -0.017, 0.996, 0.183, -1.953, 0, -1.73, -4.62, 126.81, 55.272, -42.140, -10.486, 22.22, 0.44806, 0.02731, -0.03064, 0.89301,
 15:14:35.828,c2:22:89:2b:7b:c3, 2015-01-01 00:29:49.830, 0.11, -0.024, 1.004, -0.305, -3.784, 0, -1.73, -4.647, 126.815, 55.272, -42.140, -10.486, 22.22, 0.44806, 0.02731, -0.03064, 0.89301,
 15:14:35.829,c2:22:89:2b:7b:c3, 2015-01-01 00:29:49.830, 0.086, -0.05, 1.014, -0.366, -3.967, 0, -1.736, -4.691, 126.821, 55.272, -42.140, -10.486, 22.22, 0.44806, 0.02731, -0.03064, 0.89301,
 15:14:35.885,c2:22:89:2b:7b:c3, 2015-01-01 00:29:50.220, 0.067, -0.036, 1.014, 0.977, -1.648, 0, -1.73, -4.713, 126.826, 55.272, -42.140, -10.486, 22.22, 0.44806, 0.02731, -0.03064, 0.89301,
 15:14:35.885,c2:22:89:2b:7b:c3, 2015-01-01 00:29:50.220, 0.102, -0.001, 0.999, 0.488, -2.869, 0, -1.719, -4.735, 126.832, 55.272, -42.140, -10.486, 22.22, 0.44806, 0.02731, -0.03064, 0.89301,
 15:14:35.885,c2:22:89:2b:7b:c3, 2015-01-01 00:29:50.220, 0.11, -0.039, 1.004, -1.587, -4.15, 0, -1.73, -4.779, 126.843, 55.272, -42.140, -10.486, 22.22, 0.44806, 0.02731, -0.03064, 0.89301,
 15:14:35.885,c2:22:89:2b:7b:c3, 2015-01-01 00:29:50.220, 0.076, -0.054, 1.012, 0.61, -2.747, 0, -1.736, -4.807, 126.848, 55.272, -42.140, -10.486, 22.22, 0.44806, 0.02731, -0.03064, 0.89301,
 15:14:35.946,c2:22:89:2b:7b:c3, 2015-01-01 00:29:50.220, 0.062, 0, 1.004, 1.038, -1.526, 0, -1.725, -4.823, 126.848, 55.272, -42.140, -10.486, 22.22, 0.44806, 0.02731, -0.03064, 0.89301,
 15:14:35.946,c2:22:89:2b:7b:c3, 2015-01-01 00:29:50.220, 0.113, -0.019, 0.992, -1.282, -3.174, 0, -1.73, -4.85, 126.854, 55.272, -42.140, -10.486, 22.22, 0.44806, 0.02731, -0.03064, 0.89301,
 15:14:35.946,c2:22:89:2b:7b:c3, 2015-01-01 00:29:50.220, 0.111, -0.056, 1.002, -0.244, -4.456, 0, -1.736, -4.894, 126.859, 55.272, -42.140, -10.486, 22.22, 0.44806, 0.02731, -0.03064, 0.89301,
 15:14:35.946,c2:22:89:2b:7b:c3, 2015-01-01 00:29:50.220, 0.056, -0.04, 1.014, 0.916, -1.404, 0, -1.73, -4.916, 126.865, 55.272, -42.140, -10.486, 22.22, 0.44806, 0.02731, -0.03064, 0.89301,
 15:14:35.976,c2:22:89:2b:7b:c3, 2015-01-01 00:29:50.220, 0.091, 0, 1.015, 0.671, -2.197, 0, -1.719, -4.933, 126.87, 55.272, -42.140, -10.486, 22.22, 0.44806, 0.02731, -0.03064, 0.89301,
 15:14:35.976,c2:22:89:2b:7b:c3, 2015-01-01 00:29:50.220, 0.124, -0.025, 0.988, -1.221, -4.089, 0, -1.73, -4.971, 126.876, 55.272, -42.140, -10.486, 22.22, 0.44806, 0.02731, -0.03064, 0.89301,
 15:14:35.976,c2:22:89:2b:7b:c3, 2015-01-01 00:29:50.220, 0.081, -0.067, 0.995, -0.366, -2.563, 0.061, -1.741, -5.004, 126.887, 55.272, -42.140, -10.486, 22.22, 0.44806, 0.02731, -0.03064, 0.89301,
 15:14:35.976,c2:22:89:2b:7b:c3, 2015-01-01 00:29:50.220, 0.071, -0.013, 1.014, 1.404, -1.404, -0.061, -1.725, -5.015, 126.892, 55.272, -42.140, -10.486, 22.22, 0.44806, 0.02731, -0.03064, 0.89301,
 15:14:36.008,c2:22:89:2b:7b:c3, 2015-01-01 00:29:50.220, 0.107, -0.001, 1.007, -0.61, -3.052, 0, -1.725, -5.037, 126.898, 55.272, -42.140, -10.486, 22.22, 0.44806, 0.02731, -0.03064, 0.89301,
 15:14:36.008,c2:22:89:2b:7b:c3, 2015-01-01 00:29:50.220, 0.105, -0.062, 0.989, -0.977, -3.357, 0, -1.741, -5.076, 126.903, 55.272, -42.140, -10.486, 22.22, 0.44806, 0.02731, -0.03064, 0.89301,
 15:14:36.008,c2:22:89:2b:7b:c3, 2015-01-01 00:29:50.220, 0.082, -0.039, 1.005, 1.221, -1.831, 0.122, -1.73, -5.098, 126.909, 55.272, -42.140, -10.486, 22.22, 0.44806, 0.02731, -0.03064, 0.89301,
 15:14:36.008,c2:22:89:2b:7b:c3, 2015-01-01 00:29:50.220, 0.105, -0.004, 1.026, 0.305, -2.502, -0.061, -1.719, -5.114, 126.914, 55.272, -42.140, -10.486, 22.22, 0.44806, 0.02731, -0.03064, 0.89301,
 15:14:36.066,c2:22:89:2b:7b:c3, 2015-01-01 00:29:50.220, 0.11, -0.031, 1.017, -0.244, -3.357, 0.061, -1.725, -5.147, 126.92, 55.272, -42.140, -10.486, 22.22, 0.44806, 0.02731, -0.03064, 0.89301,
 15:14:36.066,c2:22:89:2b:7b:c3, 2015-01-01 00:29:50.220, 0.08, -0.037, 1.004, 0.061, -1.526, 0.244, -1.725, -5.169, 126.925, 55.272, -42.140, -10.486, 22.22, 0.44806, 0.02731, -0.03064, 0.89301,
 15:14:36.066,c2:22:89:2b:7b:c3, 2015-01-01 00:29:50.220, 0.091, -0.017, 1.001, 0, -1.404, 0, -1.725, -5.18, 126.931, 55.272, -42.140, -10.486, 22.22, 0.44806, 0.02731, -0.03064, 0.89301,
 15:14:36.066,c2:22:89:2b:7b:c3, 2015-01-01 00:29:50.220, 0.122, -0.029, 1.011, -0.732, -2.869, 0, -1.73, -5.208, 126.936, 55.272, -42.140, -10.486, 22.22, 0.44806, 0.02731, -0.03064, 0.89301,
 15:14:36.097,c2:22:89:2b:7b:c3, 2015-01-01 00:29:50.220, 0.083, -0.05, 1.006, 0.122, -2.197, 0.122, -1.73, -5.235, 126.942, 54.782, -42.336, -9.800, 22.22, 0.44806, 0.02731, -0.03064, 0.89301,
 15:14:36.097,c2:22:89:2b:7b:c3, 2015-01-01 00:29:50.220, 0.079, -0.019, 0.998, 1.16, -0.732, 0.122, -1.725, -5.24, 126.947, 54.782, -42.336, -9.800, 22.22, 0.44806, 0.02731, -0.03064, 0.89301,
 15:14:36.097,c2:22:89:2b:7b:c3, 2015-01-01 00:29:50.220, 0.125, -0.009, 0.991, 0.061, -2.502, 0, -1.719, -5.262, 126.953, 54.782, -42.336, -9.800, 22.22, 0.44806, 0.02731, -0.03064, 0.89301,
 15:14:36.097,c2:22:89:2b:7b:c3, 2015-01-01 00:29:50.220, 0.103, -0.047, 1.004, -1.099, -3.174, 0.122, -1.73, -5.295, 126.958, 54.782, -42.336, -9.800, 22.22, 0.44806, 0.02731, -0.03064, 0.89301,
 15:14:36.127,c2:22:89:2b:7b:c3, 2015-01-01 00:29:50.220, 0.08, -0.037, 1.017, 1.16, -0.793, -0.061, -1.725, -5.312, 126.964, 54.782, -42.336, -9.800, 22.22, 0.44806, 0.02731, -0.03064, 0.89301,
 15:14:36.127,c2:22:89:2b:7b:c3, 2015-01-01 00:29:50.220, 0.095, -0.002, 0.993, 0.061, -1.099, 0, -1.719, -5.317, 126.969, 54.782, -42.336, -9.800, 22.22, 0.44806, 0.02731, -0.03064, 0.89301,
 15:14:36.127,c2:22:89:2b:7b:c3, 2015-01-01 00:29:50.220, 0.135, -0.043, 1.009, -1.038, -2.869, 0.183, -1.73, -5.345, 126.974, 54.782, -42.336, -9.800, 22.22, 0.44806, 0.02731, -0.03064, 0.89301,
 15:14:36.127,c2:22:89:2b:7b:c3, 2015-01-01 00:29:50.220, 0.085, -0.045, 1.017, 0.488, -1.892, 0, -1.725, -5.367, 126.98, 54.782, -42.336, -9.800, 22.22, 0.44806, 0.02731, -0.03064, 0.89301,
 15:14:36.156,c2:22:89:2b:7b:c3, 2015-01-01 00:29:50.220, 0.084, -0.015, 1.021, 1.099, 0.122, 0, -1.714, -5.372, 126.985, 54.782, -42.336, -9.800, 22.22, 0.44635, 0.03522, -0.03436, 0.89343,
 15:14:36.156,c2:22:89:2b:7b:c3, 2015-01-01 00:29:50.220, 0.123, -0.017, 0.999, -0.732, -2.136, 0, -1.719, -5.383, 126.991, 54.782, -42.336, -9.800, 22.22, 0.44635, 0.03522, -0.03436, 0.89343,
 15:14:36.156,c2:22:89:2b:7b:c3, 2015-01-01 00:29:50.220, 0.11, -0.051, 1.009, -0.549, -2.441, 0, -1.725, -5.411, 127.002, 54.782, -42.336, -9.800, 22.22, 0.44635, 0.03522, -0.03436, 0.89343,
 15:14:36.156,c2:22:89:2b:7b:c3, 2015-01-01 00:29:50.220, 0.081, -0.037, 1.016, 0.916, -0.61, 0, -1.719, -5.427, 127.002, 54.782, -42.336, -9.800, 22.22, 0.44635, 0.03522, -0.03436, 0.89343,
 15:14:36.217,c2:22:89:2b:7b:c3, 2015-01-01 00:29:50.220, 0.097, -0.007, 1.001, 0.061, -0.549, 0.122, -1.714, -5.427, 127.007, 54.782, -42.336, -9.800, 22.22, 0.44635, 0.03522, -0.03436, 0.89343,
 15:14:36.217,c2:22:89:2b:7b:c3, 2015-01-01 00:29:50.220, 0.124, -0.039, 1, -0.977, -2.747, 0.122, -1.725, -5.449, 127.013, 54.782, -42.336, -9.800, 22.22, 0.44635, 0.03522, -0.03436, 0.89343,
 15:14:36.217,c2:22:89:2b:7b:c3, 2015-01-01 00:29:50.220, 0.077, -0.053, 0.99, 0, -0.916, 0.305, -1.73, -5.466, 127.024, 54.782, -42.336, -9.800, 22.22, 0.44635, 0.03522, -0.03436, 0.89343,
 15:14:36.217,c2:22:89:2b:7b:c3, 2015-01-01 00:29:50.220, 0.096, -0.018, 0.995, 1.343, -0.061, -0.061, -1.719, -5.471, 127.029, 54.782, -42.336, -9.800, 22.22, 0.44635, 0.03522, -0.03436, 0.89343,
 15:14:36.246,c2:22:89:2b:7b:c3, 2015-01-01 00:29:50.575, 0.126, -0.01, 0.997, -0.488, -2.441, 0.122, -1.714, -5.488, 127.035, 54.782, -42.336, -9.800, 22.22, 0.44635, 0.03522, -0.03436, 0.89343,
 15:14:36.246,c2:22:89:2b:7b:c3, 2015-01-01 00:29:50.575, 0.101, -0.062, 1.007, -0.854, -1.648, 0.061, -1.73, -5.51, 127.04, 54.782, -42.336, -9.800, 22.22, 0.44635, 0.03522, -0.03436, 0.89343,
 15:14:36.246,c2:22:89:2b:7b:c3, 2015-01-01 00:29:50.575, 0.082, -0.027, 1.011, 1.648, -0.183, 0, -1.719, -5.515, 127.046, 54.782, -42.336, -9.800, 22.22, 0.44635, 0.03522, -0.03436, 0.89343,
 15:14:36.246,c2:22:89:2b:7b:c3, 2015-01-01 00:29:50.575, 0.132, -0.001, 1.01, 0.305, -0.977, 0, -1.708, -5.521, 127.046, 54.782, -42.336, -9.800, 22.22, 0.44635, 0.03522, -0.03436, 0.89343,
 15:14:36.276,c2:22:89:2b:7b:c3, 2015-01-01 00:29:50.575, 0.117, -0.043, 1.021, -1.343, -2.258, 0.122, -1.719, -5.543, 127.051, 54.782, -42.336, -9.800, 22.22, 0.44635, 0.03522, -0.03436, 0.89343,
 15:14:36.276,c2:22:89:2b:7b:c3, 2015-01-01 00:29:50.575, 0.082, -0.044, 1.027, 0.61, 0.427, 0.061, -1.719, -5.548, 127.062, 54.782, -42.336, -9.800, 22.22, 0.44635, 0.03522, -0.03436, 0.89343,
 15:14:36.276,c2:22:89:2b:7b:c3, 2015-01-01 00:29:50.575, 0.096, -0.004, 1.01, 0.305, 0.244, 0, -1.714, -5.548, 127.062, 54.782, -42.336, -9.800, 22.22, 0.44635, 0.03522, -0.03436, 0.89343,
 15:14:36.276,c2:22:89:2b:7b:c3, 2015-01-01 00:29:50.575, 0.15, -0.033, 1.02, -0.793, -2.197, 0.061, -1.719, -5.559, 127.068, 54.782, -42.336, -9.800, 22.22, 0.44635, 0.03522, -0.03436, 0.89343,
 15:14:36.337,c2:22:89:2b:7b:c3, 2015-01-01 00:29:50.575, 0.076, -0.054, 1.015, 0, -0.61, 0.183, -1.719, -5.576, 127.073, 54.782, -42.336, -9.800, 22.22, 0.44635, 0.03522, -0.03436, 0.89343,
 15:14:36.338,c2:22:89:2b:7b:c3, 2015-01-01 00:29:50.575, 0.067, -0.012, 1, 1.099, 1.404, 0, -1.714, -5.565, 127.079, 54.782, -42.336, -9.800, 22.22, 0.44635, 0.03522, -0.03436, 0.89343,
 15:14:36.338,c2:22:89:2b:7b:c3, 2015-01-01 00:29:50.575, 0.126, 0, 0.977, -0.671, -0.854, 0.122, -1.714, -5.57, 127.084, 54.782, -42.336, -9.800, 22.22, 0.44635, 0.03522, -0.03436, 0.89343,
 15:14:36.338,c2:22:89:2b:7b:c3, 2015-01-01 00:29:50.575, 0.121, -0.061, 0.991, -1.648, -2.441, 0, -1.73, -5.592, 127.09, 54.782, -42.336, -9.800, 22.22, 0.44635, 0.03522, -0.03436, 0.89343,
 15:14:36.367,c2:22:89:2b:7b:c3, 2015-01-01 00:29:50.575, 0.072, -0.056, 1.002, 1.221, 0.977, 0.122, -1.725, -5.598, 127.095, 54.782, -42.336, -9.800, 22.22, 0.44635, 0.03522, -0.03436, 0.89343,
 15:14:36.367,c2:22:89:2b:7b:c3, 2015-01-01 00:29:50.575, 0.092, 0.003, 0.997, 1.343, 0.488, -0.061, -1.708, -5.587, 127.101, 54.782, -42.336, -9.800, 22.22, 0.44635, 0.03522, -0.03436, 0.89343,
 15:14:36.367,c2:22:89:2b:7b:c3, 2015-01-01 00:29:50.575, 0.143, -0.024, 1.001, -0.977, -1.892, 0.244, -1.714, -5.603, 127.106, 54.782, -42.336, -9.800, 22.22, 0.44635, 0.03522, -0.03436, 0.89343,
 15:14:36.367,c2:22:89:2b:7b:c3, 2015-01-01 00:29:50.575, 0.094, -0.046, 1.005, -0.183, -0.916, 0, -1.719, -5.62, 127.112, 54.782, -42.336, -9.800, 22.22, 0.44635, 0.03522, -0.03436, 0.89343,
 15:14:36.397,c2:22:89:2b:7b:c3, 2015-01-01 00:29:50.575, 0.075, -0.025, 1.007, 0.61, 1.526, -0.061, -1.714, -5.609, 127.117, 54.782, -42.336, -9.800, 22.22, 0.44635, 0.03522, -0.03436, 0.89343,
 15:14:36.397,c2:22:89:2b:7b:c3, 2015-01-01 00:29:50.575, 0.117, -0.012, 0.996, -0.732, -0.244, -0.122, -1.714, -5.603, 127.117, 54.782, -42.336, -9.800, 22.22, 0.44635, 0.03522, -0.03436, 0.89343,
 15:14:36.397,c2:22:89:2b:7b:c3, 2015-01-01 00:29:50.575, 0.127, -0.054, 1.005, -0.671, -1.77, 0.061, -1.725, -5.62, 127.123, 54.782, -42.336, -9.800, 22.22, 0.44635, 0.03522, -0.03436, 0.89343,
 15:14:36.397,c2:22:89:2b:7b:c3, 2015-01-01 00:29:50.575, 0.081, -0.053, 1.019, 0.793, 0.61, 0, -1.719, -5.625, 127.128, 54.782, -42.336, -9.800, 22.22, 0.44635, 0.03522, -0.03436, 0.89343,
 15:14:36.458,c2:22:89:2b:7b:c3, 2015-01-01 00:29:50.575, 0.108, -0.006, 1.012, 1.465, 0.61, 0, -1.708, -5.614, 127.134, 54.782, -42.336, -9.800, 22.22, 0.44635, 0.03522, -0.03436, 0.89343,
 15:14:36.458,c2:22:89:2b:7b:c3, 2015-01-01 00:29:50.575, 0.124, -0.018, 1.01, -0.916, -1.099, 0, -1.708, -5.625, 127.139, 54.782, -42.336, -9.800, 22.22, 0.44635, 0.03522, -0.03436, 0.89343,
 15:14:36.458,c2:22:89:2b:7b:c3, 2015-01-01 00:29:50.575, 0.093, -0.044, 1.006, -0.427, 0.427, 0.061, -1.719, -5.625, 127.145, 54.782, -42.336, -9.800, 22.22, 0.44635, 0.03522, -0.03436, 0.89343,
 15:14:36.458,c2:22:89:2b:7b:c3, 2015-01-01 00:29:50.575, 0.081, -0.013, 0.992, 0.244, 1.16, 0, -1.714, -5.62, 127.15, 54.782, -42.336, -9.800, 22.22, 0.44635, 0.03522, -0.03436, 0.89343,
 15:14:36.486,c2:22:89:2b:7b:c3, 2015-01-01 00:29:50.575, 0.11, -0.024, 0.989, -1.038, 0, 0.061, -1.719, -5.614, 127.156, 54.390, -42.532, -9.506, 22.22, 0.44635, 0.03522, -0.03436, 0.89343,
 15:14:36.486,c2:22:89:2b:7b:c3, 2015-01-01 00:29:50.575, 0.118, -0.056, 0.992, -0.305, -0.977, 0, -1.725, -5.625, 127.161, 54.390, -42.532, -9.506, 22.22, 0.44635, 0.03522, -0.03436, 0.89343,
 15:14:36.486,c2:22:89:2b:7b:c3, 2015-01-01 00:29:50.575, 0.099, -0.04, 1.008, 1.282, 0.366, 0, -1.719, -5.625, 127.167, 54.390, -42.532, -9.506, 22.22, 0.44635, 0.03522, -0.03436, 0.89343,
 15:14:36.486,c2:22:89:2b:7b:c3, 2015-01-01 00:29:50.575, 0.117, -0.019, 1.024, 0.793, 0.549, -0.061, -1.708, -5.62, 127.167, 54.390, -42.532, -9.506, 22.22, 0.44635, 0.03522, -0.03436, 0.89343,
 15:14:36.516,c2:22:89:2b:7b:c3, 2015-01-01 00:29:50.575, 0.12, -0.018, 1.032, -0.122, 0, -0.061, -1.708, -5.62, 127.172, 54.390, -42.532, -9.506, 22.22, 0.44635, 0.03522, -0.03436, 0.89343,
 15:14:36.516,c2:22:89:2b:7b:c3, 2015-01-01 00:29:50.575, 0.092, -0.034, 1.036, -0.671, 1.343, 0, -1.714, -5.614, 127.178, 54.390, -42.532, -9.506, 22.22, 0.44635, 0.03522, -0.03436, 0.89343,
 15:14:36.516,c2:22:89:2b:7b:c3, 2015-01-01 00:29:50.575, 0.098, -0.026, 1.02, -0.244, 1.465, 0, -1.714, -5.603, 127.183, 54.390, -42.532, -9.506, 22.22, 0.44635, 0.03522, -0.03436, 0.89343,
 15:14:36.516,c2:22:89:2b:7b:c3, 2015-01-01 00:29:50.575, 0.116, -0.035, 1.007, -0.427, 0.122, 0.061, -1.719, -5.598, 127.189, 54.390, -42.532, -9.506, 22.22, 0.44635, 0.03522, -0.03436, 0.89343,
 15:14:36.576,c2:22:89:2b:7b:c3, 2015-01-01 00:29:50.575, 0.083, -0.056, 0.996, 0, 0.732, 0, -1.725, -5.598, 127.194, 54.390, -42.532, -9.506, 22.22, 0.44479, 0.03708, -0.03513, 0.89413,
 15:14:36.576,c2:22:89:2b:7b:c3, 2015-01-01 00:29:50.575, 0.098, -0.016, 0.998, 1.526, 1.77, 0.061, -1.708, -5.581, 127.194, 54.390, -42.532, -9.506, 22.22, 0.44479, 0.03708, -0.03513, 0.89413,
 15:14:36.576,c2:22:89:2b:7b:c3, 2015-01-01 00:29:50.575, 0.135, -0.007, 1.002, 0.183, 0, 0, -1.703, -5.576, 127.2, 54.390, -42.532, -9.506, 22.22, 0.44479, 0.03708, -0.03513, 0.89413,
 15:14:36.576,c2:22:89:2b:7b:c3, 2015-01-01 00:29:50.575, 0.093, -0.038, 1.005, -0.61, 0.732, 0, -1.708, -5.576, 127.205, 54.390, -42.532, -9.506, 22.22, 0.44479, 0.03708, -0.03513, 0.89413,
 15:14:36.607,c2:22:89:2b:7b:c3, 2015-01-01 00:29:50.965, 0.083, -0.023, 1, 0.366, 2.319, -0.244, -1.708, -5.559, 127.205, 54.390, -42.532, -9.506, 22.22, 0.44479, 0.03708, -0.03513, 0.89413,
 15:14:36.607,c2:22:89:2b:7b:c3, 2015-01-01 00:29:50.965, 0.093, -0.019, 0.988, -1.587, 2.747, 0.183, -1.719, -5.532, 127.211, 54.390, -42.532, -9.506, 22.22, 0.44479, 0.03708, -0.03513, 0.89413,
 15:14:36.607,c2:22:89:2b:7b:c3, 2015-01-01 00:29:50.965, 0.134, -0.057, 1.018, -0.793, -0.061, 0.122, -1.73, -5.532, 127.216, 54.390, -42.532, -9.506, 22.22, 0.44479, 0.03708, -0.03513, 0.89413,
 15:14:36.607,c2:22:89:2b:7b:c3, 2015-01-01 00:29:50.965, 0.071, -0.055, 1.011, 0.977, 0.854, 0, -1.725, -5.526, 127.222, 54.390, -42.532, -9.506, 22.22, 0.44479, 0.03708, -0.03513, 0.89413,
 15:14:36.666,c2:22:89:2b:7b:c3, 2015-01-01 00:29:50.965, 0.104, -0.008, 1.009, 2.991, 2.014, -0.061, -1.697, -5.51, 127.222, 54.390, -42.532, -9.506, 22.22, 0.44479, 0.03708, -0.03513, 0.89413,
 15:14:36.666,c2:22:89:2b:7b:c3, 2015-01-01 00:29:50.965, 0.158, 0.02, 1.003, 0.061, 0, 0, -1.686, -5.504, 127.227, 54.390, -42.532, -9.506, 22.22, 0.44479, 0.03708, -0.03513, 0.89413,
 15:14:36.666,c2:22:89:2b:7b:c3, 2015-01-01 00:29:50.965, 0.1, -0.05, 1.033, -2.869, 1.221, 0.305, -1.708, -5.499, 127.233, 54.390, -42.532, -9.506, 22.22, 0.44479, 0.03708, -0.03513, 0.89413,
 15:14:36.666,c2:22:89:2b:7b:c3, 2015-01-01 00:29:50.965, 0.045, -0.049, 1.019, 0.122, 4.15, -0.122, -1.719, -5.466, 127.238, 54.390, -42.532, -9.506, 22.22, 0.44479, 0.03708, -0.03513, 0.89413,
 15:14:36.696,c2:22:89:2b:7b:c3, 2015-01-01 00:29:50.965, 0.095, 0, 0.999, 0.549, 2.991, -0.183, -1.708, -5.433, 127.238, 54.390, -42.532, -9.506, 22.22, 0.44479, 0.03708, -0.03513, 0.89413,
 15:14:36.696,c2:22:89:2b:7b:c3, 2015-01-01 00:29:50.965, 0.166, -0.048, 0.998, -1.587, -1.16, 0.061, -1.725, -5.438, 127.244, 54.390, -42.532, -9.506, 22.22, 0.44479, 0.03708, -0.03513, 0.89413,
 15:14:36.696,c2:22:89:2b:7b:c3, 2015-01-01 00:29:50.965, 0.072, -0.078, 1.024, 0.732, 1.221, 0, -1.725, -5.438, 127.244, 54.390, -42.532, -9.506, 22.22, 0.44479, 0.03708, -0.03513, 0.89413,
 15:14:36.696,c2:22:89:2b:7b:c3, 2015-01-01 00:29:50.965, 0.056, 0.002, 1.005, 2.686, 4.456, -0.305, -1.697, -5.4, 127.244, 54.390, -42.532, -9.506, 22.22, 0.44479, 0.03708, -0.03513, 0.89413,
 15:14:36.726,c2:22:89:2b:7b:c3, 2015-01-01 00:29:50.965, 0.112, 0.012, 0.961, -1.038, 1.709, -0.183, -1.697, -5.378, 127.244, 54.390, -42.532, -9.506, 22.22, 0.44479, 0.03708, -0.03513, 0.89413,
 15:14:36.726,c2:22:89:2b:7b:c3, 2015-01-01 00:29:50.965, 0.145, -0.062, 0.993, -1.892, -0.793, 0.122, -1.719, -5.378, 127.249, 54.390, -42.532, -9.506, 22.22, 0.44479, 0.03708, -0.03513, 0.89413,
 15:14:36.726,c2:22:89:2b:7b:c3, 2015-01-01 00:29:50.965, 0.057, -0.063, 1.003, 0.305, 3.479, -0.122, -1.719, -5.361, 127.255, 54.390, -42.532, -9.506, 22.22, 0.44479, 0.03708, -0.03513, 0.89413,
 15:14:36.726,c2:22:89:2b:7b:c3, 2015-01-01 00:29:50.965, 0.065, -0.014, 1, 0.977, 4.517, 0, -1.708, -5.317, 127.255, 54.390, -42.532, -9.506, 22.22, 0.44479, 0.03708, -0.03513, 0.89413,
 15:14:36.757,c2:22:89:2b:7b:c3, 2015-01-01 00:29:50.965, 0.129, -0.011, 1.005, -1.038, 0.305, 0, -1.714, -5.306, 127.26, 54.390, -42.532, -9.506, 22.22, 0.44479, 0.03708, -0.03513, 0.89413,
 15:14:36.757,c2:22:89:2b:7b:c3, 2015-01-01 00:29:50.965, 0.103, -0.073, 1.011, -0.244, 0.61, 0.122, -1.725, -5.306, 127.266, 54.390, -42.532, -9.506, 22.22, 0.44479, 0.03708, -0.03513, 0.89413,
 15:14:36.757,c2:22:89:2b:7b:c3, 2015-01-01 00:29:50.965, 0.079, -0.032, 1.019, 2.258, 3.296, -0.061, -1.703, -5.284, 127.266, 54.390, -42.532, -9.506, 22.22, 0.44479, 0.03708, -0.03513, 0.89413,
 15:14:36.757,c2:22:89:2b:7b:c3, 2015-01-01 00:29:50.965, 0.112, 0.01, 1.008, 0.671, 2.563, -0.061, -1.692, -5.257, 127.266, 54.390, -42.532, -9.506, 22.22, 0.44479, 0.03708, -0.03513, 0.89413,
 15:14:36.816,c2:22:89:2b:7b:c3, 2015-01-01 00:29:50.965, 0.117, -0.038, 1.021, -1.709, 1.282, 0.122, -1.708, -5.246, 127.271, 54.390, -42.532, -9.506, 22.22, 0.44479, 0.03708, -0.03513, 0.89413,
 15:14:36.816,c2:22:89:2b:7b:c3, 2015-01-01 00:29:50.965, 0.088, -0.04, 1.025, 0.305, 3.54, 0, -1.708, -5.219, 127.271, 54.390, -42.532, -9.506, 22.22, 0.44479, 0.03708, -0.03513, 0.89413,
 15:14:36.816,c2:22:89:2b:7b:c3, 2015-01-01 00:29:50.965, 0.083, -0.012, 1.02, -0.305, 3.601, 0, -1.708, -5.18, 127.277, 54.390, -42.532, -9.506, 22.22, 0.44479, 0.03708, -0.03513, 0.89413,
 15:14:36.816,c2:22:89:2b:7b:c3, 2015-01-01 00:29:50.965, 0.106, -0.036, 1.016, -0.854, 2.136, 0, -1.714, -5.158, 127.277, 54.390, -42.532, -9.506, 22.22, 0.44479, 0.03708, -0.03513, 0.89413,
 15:14:36.876,c2:22:89:2b:7b:c3, 2015-01-01 00:29:50.965, 0.087, -0.047, 0.999, 0.244, 1.892, 0, -1.714, -5.142, 127.277, 54.684, -42.532, -9.800, 22.22, 0.44479, 0.03708, -0.03513, 0.89413,
 15:14:36.876,c2:22:89:2b:7b:c3, 2015-01-01 00:29:50.965, 0.078, -0.021, 0.995, 0.793, 3.662, -0.061, -1.708, -5.114, 127.282, 54.684, -42.532, -9.800, 22.22, 0.44479, 0.03708, -0.03513, 0.89413,
 15:14:36.876,c2:22:89:2b:7b:c3, 2015-01-01 00:29:50.965, 0.104, -0.017, 0.988, -0.305, 2.502, 0, -1.708, -5.087, 127.282, 54.684, -42.532, -9.800, 22.22, 0.44479, 0.03708, -0.03513, 0.89413,
 15:14:36.876,c2:22:89:2b:7b:c3, 2015-01-01 00:29:50.965, 0.092, -0.038, 0.985, -0.549, 1.953, -0.122, -1.714, -5.07, 127.282, 54.684, -42.532, -9.800, 22.22, 0.44479, 0.03708, -0.03513, 0.89413,
 15:14:36.878,c2:22:89:2b:7b:c3, 2015-01-01 00:29:50.965, 0.066, -0.038, 0.995, 0, 3.601, -0.122, -1.714, -5.037, 127.288, 54.684, -42.532, -9.800, 22.22, 0.44479, 0.03708, -0.03513, 0.89413,
 15:14:36.878,c2:22:89:2b:7b:c3, 2015-01-01 00:29:50.965, 0.105, -0.012, 0.999, 0.549, 2.625, -0.061, -1.708, -5.01, 127.288, 54.684, -42.532, -9.800, 22.22, 0.44479, 0.03708, -0.03513, 0.89413,
 15:14:36.878,c2:22:89:2b:7b:c3, 2015-01-01 00:29:50.965, 0.117, -0.049, 1.014, -0.427, 1.648, 0, -1.714, -4.993, 127.293, 54.684, -42.532, -9.800, 22.22, 0.44479, 0.03708, -0.03513, 0.89413,
 15:14:36.878,c2:22:89:2b:7b:c3, 2015-01-01 00:29:50.965, 0.07, -0.044, 1.025, 0.854, 3.479, 0, -1.708, -4.971, 127.293, 54.684, -42.532, -9.800, 22.22, 0.44479, 0.03708, -0.03513, 0.89413,
 15:14:36.938,c2:22:89:2b:7b:c3, 2015-01-01 00:29:50.965, 0.084, -0.003, 1.023, 1.16, 3.845, -0.183, -1.697, -4.933, 127.293, 54.684, -42.532, -9.800, 22.22, 0.444, 0.03241, -0.03275, 0.89478,
 15:14:36.938,c2:22:89:2b:7b:c3, 2015-01-01 00:29:50.965, 0.114, -0.019, 1.01, -0.977, 2.258, 0.061, -1.703, -4.911, 127.293, 54.684, -42.532, -9.800, 22.22, 0.444, 0.03241, -0.03275, 0.89478,
 15:14:36.938,c2:22:89:2b:7b:c3, 2015-01-01 00:29:50.965, 0.09, -0.056, 1.007, -0.427, 2.869, 0, -1.708, -4.889, 127.293, 54.684, -42.532, -9.800, 22.22, 0.444, 0.03241, -0.03275, 0.89478,
 15:14:36.938,c2:22:89:2b:7b:c3, 2015-01-01 00:29:50.965, 0.054, -0.018, 1.008, 0.366, 4.7, 0.122, -1.708, -4.845, 127.299, 54.684, -42.532, -9.800, 22.22, 0.444, 0.03241, -0.03275, 0.89478,
 15:14:36.966,c2:22:89:2b:7b:c3, 2015-01-01 00:29:51.320, 0.091, -0.011, 0.996, -0.427, 4.089, -0.183, -1.708, -4.801, 127.299, 54.684, -42.532, -9.800, 22.22, 0.444, 0.03241, -0.03275, 0.89478,
 15:14:36.966,c2:22:89:2b:7b:c3, 2015-01-01 00:29:51.320, 0.106, -0.043, 0.984, -0.793, 1.831, 0.061, -1.719, -4.785, 127.299, 54.684, -42.532, -9.800, 22.22, 0.444, 0.03241, -0.03275, 0.89478,
 15:14:36.966,c2:22:89:2b:7b:c3, 2015-01-01 00:29:51.320, 0.071, -0.051, 1.007, 0.671, 3.54, 0.061, -1.714, -4.757, 127.299, 54.684, -42.532, -9.800, 22.22, 0.444, 0.03241, -0.03275, 0.89478,
 15:14:36.966,c2:22:89:2b:7b:c3, 2015-01-01 00:29:51.320, 0.081, -0.012, 1.019, 1.526, 3.906, -0.122, -1.703, -4.719, 127.299, 54.684, -42.532, -9.800, 22.22, 0.444, 0.03241, -0.03275, 0.89478,
 15:14:36.997,c2:22:89:2b:7b:c3, 2015-01-01 00:29:51.320, 0.102, -0.014, 1.002, -0.366, 2.93, 0, -1.697, -4.691, 127.299, 54.684, -42.532, -9.800, 22.22, 0.444, 0.03241, -0.03275, 0.89478,
 15:14:36.998,c2:22:89:2b:7b:c3, 2015-01-01 00:29:51.320, 0.087, -0.048, 0.996, -0.549, 2.93, 0, -1.708, -4.664, 127.299, 54.684, -42.532, -9.800, 22.22, 0.444, 0.03241, -0.03275, 0.89478,
 15:14:36.998,c2:22:89:2b:7b:c3, 2015-01-01 00:29:51.320, 0.064, -0.015, 1.005, 0.366, 4.395, -0.122, -1.703, -4.625, 127.299, 54.684, -42.532, -9.800, 22.22, 0.444, 0.03241, -0.03275, 0.89478,
 15:14:36.998,c2:22:89:2b:7b:c3, 2015-01-01 00:29:51.320, 0.086, -0.014, 1.01, -0.732, 4.333, -0.122, -1.703, -4.587, 127.299, 54.684, -42.532, -9.800, 22.22, 0.444, 0.03241, -0.03275, 0.89478,
 15:14:37.057,c2:22:89:2b:7b:c3, 2015-01-01 00:29:51.320, 0.1, -0.045, 1.003, -0.854, 2.502, 0, -1.714, -4.559, 127.299, 54.684, -42.532, -9.800, 22.22, 0.444, 0.03241, -0.03275, 0.89478,
 15:14:37.057,c2:22:89:2b:7b:c3, 2015-01-01 00:29:51.320, 0.061, -0.052, 1.006, 0.427, 3.967, -0.183, -1.714, -4.526, 127.299, 54.684, -42.532, -9.800, 22.22, 0.444, 0.03241, -0.03275, 0.89478,
 15:14:37.057,c2:22:89:2b:7b:c3, 2015-01-01 00:29:51.320, 0.085, -0.021, 1.014, 1.587, 4.089, -0.183, -1.697, -4.488, 127.299, 54.684, -42.532, -9.800, 22.22, 0.444, 0.03241, -0.03275, 0.89478,
 15:14:37.057,c2:22:89:2b:7b:c3, 2015-01-01 00:29:51.320, 0.113, -0.009, 1.014, 0, 2.563, -0.061, -1.692, -4.46, 127.299, 54.684, -42.532, -9.800, 22.22, 0.444, 0.03241, -0.03275, 0.89478,
 15:14:37.086,c2:22:89:2b:7b:c3, 2015-01-01 00:29:51.320, 0.08, -0.045, 1.018, -0.793, 3.54, -0.122, -1.703, -4.433, 127.299, 54.684, -42.532, -9.800, 22.22, 0.444, 0.03241, -0.03275, 0.89478,
 15:14:37.086,c2:22:89:2b:7b:c3, 2015-01-01 00:29:51.320, 0.057, -0.02, 1.006, 0.305, 5.615, -0.061, -1.697, -4.384, 127.293, 54.684, -42.532, -9.800, 22.22, 0.444, 0.03241, -0.03275, 0.89478,
 15:14:37.086,c2:22:89:2b:7b:c3, 2015-01-01 00:29:51.320, 0.081, -0.004, 0.993, -1.099, 4.456, 0, -1.703, -4.34, 127.293, 54.684, -42.532, -9.800, 22.22, 0.444, 0.03241, -0.03275, 0.89478,
 15:14:37.086,c2:22:89:2b:7b:c3, 2015-01-01 00:29:51.320, 0.093, -0.052, 1.003, -1.465, 2.563, 0.061, -1.719, -4.312, 127.293, 54.684, -42.532, -9.800, 22.22, 0.444, 0.03241, -0.03275, 0.89478,
 15:14:37.117,c2:22:89:2b:7b:c3, 2015-01-01 00:29:51.320, 0.062, -0.053, 1.007, 1.038, 4.211, 0, -1.714, -4.279, 127.293, 54.684, -42.532, -9.800, 22.22, 0.444, 0.03241, -0.03275, 0.89478,
 15:14:37.117,c2:22:89:2b:7b:c3, 2015-01-01 00:29:51.320, 0.055, -0.016, 0.998, 1.282, 5.127, -0.183, -1.703, -4.23, 127.293, 54.684, -42.532, -9.800, 22.22, 0.444, 0.03241, -0.03275, 0.89478,
 15:14:37.117,c2:22:89:2b:7b:c3, 2015-01-01 00:29:51.320, 0.098, -0.013, 0.997, 0, 3.052, -0.122, -1.697, -4.197, 127.293, 54.684, -42.532, -9.800, 22.22, 0.444, 0.03241, -0.03275, 0.89478,
 15:14:37.117,c2:22:89:2b:7b:c3, 2015-01-01 00:29:51.320, 0.085, -0.036, 1.009, -0.366, 2.991, 0, -1.703, -4.169, 127.293, 54.684, -42.532, -9.800, 22.22, 0.444, 0.03241, -0.03275, 0.89478,
 15:14:37.177,c2:22:89:2b:7b:c3, 2015-01-01 00:29:51.320, 0.062, -0.035, 1.015, 0.488, 5.432, -0.061, -1.697, -4.125, 127.288, 54.684, -42.532, -9.800, 22.22, 0.444, 0.03241, -0.03275, 0.89478,
 15:14:37.177,c2:22:89:2b:7b:c3, 2015-01-01 00:29:51.320, 0.077, -0.012, 1.005, 0.305, 4.944, 0.122, -1.697, -4.076, 127.288, 54.684, -42.532, -9.800, 22.22, 0.444, 0.03241, -0.03275, 0.89478,
 15:14:37.177,c2:22:89:2b:7b:c3, 2015-01-01 00:29:51.320, 0.086, -0.03, 1.008, -0.61, 3.662, 0, -1.697, -4.043, 127.288, 54.684, -42.532, -9.800, 22.22, 0.444, 0.03241, -0.03275, 0.89478,
 15:14:37.177,c2:22:89:2b:7b:c3, 2015-01-01 00:29:51.320, 0.066, -0.042, 1.018, 0, 4.395, 0.061, -1.703, -4.005, 127.288, 54.684, -42.532, -9.800, 22.22, 0.444, 0.03241, -0.03275, 0.89478,
 15:14:37.207,c2:22:89:2b:7b:c3, 2015-01-01 00:29:51.320, 0.062, -0.012, 1.007, 0.488, 5.066, -0.122, -1.697, -3.955, 127.288, 55.174, -42.238, -10.290, 22.22, 0.444, 0.03241, -0.03275, 0.89478,
 15:14:37.207,c2:22:89:2b:7b:c3, 2015-01-01 00:29:51.320, 0.068, -0.032, 0.993, -1.038, 4.517, 0, -1.703, -3.911, 127.282, 55.174, -42.238, -10.290, 22.22, 0.444, 0.03241, -0.03275, 0.89478,
 15:14:37.207,c2:22:89:2b:7b:c3, 2015-01-01 00:29:51.320, 0.071, -0.043, 0.993, -0.061, 4.15, 0, -1.708, -3.873, 127.282, 55.174, -42.238, -10.290, 22.22, 0.444, 0.03241, -0.03275, 0.89478,
 15:14:37.207,c2:22:89:2b:7b:c3, 2015-01-01 00:29:51.320, 0.067, -0.035, 1.007, 0.61, 4.395, -0.061, -1.703, -3.834, 127.282, 55.174, -42.238, -10.290, 22.22, 0.444, 0.03241, -0.03275, 0.89478,
 15:14:37.236,c2:22:89:2b:7b:c3, 2015-01-01 00:29:51.320, 0.08, -0.033, 1.021, 0.244, 4.395, 0.061, -1.697, -3.79, 127.282, 55.174, -42.238, -10.290, 22.22, 0.444, 0.03241, -0.03275, 0.89478,
 15:14:37.236,c2:22:89:2b:7b:c3, 2015-01-01 00:29:51.320, 0.062, -0.031, 1.009, 0.732, 4.395, 0, -1.692, -3.752, 127.277, 55.174, -42.238, -10.290, 22.22, 0.444, 0.03241, -0.03275, 0.89478,
 15:14:37.236,c2:22:89:2b:7b:c3, 2015-01-01 00:29:51.320, 0.054, -0.012, 1.002, 0.061, 5.31, -0.305, -1.692, -3.708, 127.277, 55.174, -42.238, -10.290, 22.22, 0.444, 0.03241, -0.03275, 0.89478,
 15:14:37.236,c2:22:89:2b:7b:c3, 2015-01-01 00:29:51.320, 0.077, -0.016, 1, -0.671, 4.761, 0, -1.692, -3.658, 127.271, 55.174, -42.238, -10.290, 22.22, 0.444, 0.03241, -0.03275, 0.89478,
 15:14:37.296,c2:22:89:2b:7b:c3, 2015-01-01 00:29:51.320, 0.075, -0.039, 1.005, -1.099, 3.967, 0, -1.703, -3.62, 127.271, 55.174, -42.238, -10.290, 22.22, 0.44415, 0.0224, -0.02759, 0.89517,
 15:14:37.296,c2:22:89:2b:7b:c3, 2015-01-01 00:29:51.320, 0.045, -0.045, 1.008, 0.549, 5.493, -0.061, -1.703, -3.571, 127.266, 55.174, -42.238, -10.290, 22.22, 0.44415, 0.0224, -0.02759, 0.89517,
 15:14:37.296,c2:22:89:2b:7b:c3, 2015-01-01 00:29:51.320, 0.051, -0.017, 0.992, 0.732, 5.188, -0.244, -1.692, -3.521, 127.266, 55.174, -42.238, -10.290, 22.22, 0.44415, 0.0224, -0.02759, 0.89517,
 15:14:37.296,c2:22:89:2b:7b:c3, 2015-01-01 00:29:51.320, 0.075, -0.026, 0.998, -0.61, 4.15, 0.305, -1.697, -3.483, 127.266, 55.174, -42.238, -10.290, 22.22, 0.44415, 0.0224, -0.02759, 0.89517,
 15:14:37.327,c2:22:89:2b:7b:c3, 2015-01-01 00:29:51.680, 0.064, -0.053, 1.008, -0.244, 4.333, 0.061, -1.703, -3.444, 127.26, 55.174, -42.238, -10.290, 22.22, 0.44415, 0.0224, -0.02759, 0.89517,
 15:14:37.327,c2:22:89:2b:7b:c3, 2015-01-01 00:29:51.680, 0.047, -0.028, 1.014, 1.221, 5.31, -0.183, -1.697, -3.395, 127.255, 55.174, -42.238, -10.290, 22.22, 0.44415, 0.0224, -0.02759, 0.89517,
 15:14:37.327,c2:22:89:2b:7b:c3, 2015-01-01 00:29:51.680, 0.06, -0.017, 1.004, 0.305, 5.005, -0.183, -1.692, -3.351, 127.255, 55.174, -42.238, -10.290, 22.22, 0.44415, 0.0224, -0.02759, 0.89517,
 15:14:37.327,c2:22:89:2b:7b:c3, 2015-01-01 00:29:51.680, 0.082, -0.026, 1.013, -0.122, 3.845, -0.183, -1.692, -3.307, 127.249, 55.174, -42.238, -10.290, 22.22, 0.44415, 0.0224, -0.02759, 0.89517,
 15:14:37.386,c2:22:89:2b:7b:c3, 2015-01-01 00:29:51.680, 0.045, -0.032, 1.012, -0.671, 5.066, 0, -1.692, -3.268, 127.249, 55.174, -42.238, -10.290, 22.22, 0.44415, 0.0224, -0.02759, 0.89517,
 15:14:37.386,c2:22:89:2b:7b:c3, 2015-01-01 00:29:51.680, 0.042, -0.03, 1.009, -0.061, 6.165, 0.061, -1.692, -3.208, 127.244, 55.174, -42.238, -10.290, 22.22, 0.44415, 0.0224, -0.02759, 0.89517,
 15:14:37.386,c2:22:89:2b:7b:c3, 2015-01-01 00:29:51.680, 0.064, -0.023, 0.992, -0.305, 4.822, -0.061, -1.697, -3.159, 127.244, 55.174, -42.238, -10.290, 22.22, 0.44415, 0.0224, -0.02759, 0.89517,
 15:14:37.386,c2:22:89:2b:7b:c3, 2015-01-01 00:29:51.680, 0.055, -0.045, 0.999, -0.854, 4.395, 0.061, -1.703, -3.12, 127.238, 55.174, -42.238, -10.290, 22.22, 0.44415, 0.0224, -0.02759, 0.89517,
 15:14:37.416,c2:22:89:2b:7b:c3, 2015-01-01 00:29:51.680, 0.042, -0.041, 1.008, 0.671, 5.676, 0, -1.703, -3.071, 127.238, 55.174, -42.238, -10.290, 22.22, 0.44415, 0.0224, -0.02759, 0.89517,
 15:14:37.416,c2:22:89:2b:7b:c3, 2015-01-01 00:29:51.680, 0.054, -0.012, 1.001, 0.427, 4.883, -0.183, -1.692, -3.021, 127.233, 55.174, -42.238, -10.290, 22.22, 0.44415, 0.0224, -0.02759, 0.89517,
 15:14:37.416,c2:22:89:2b:7b:c3, 2015-01-01 00:29:51.680, 0.061, -0.041, 0.997, -0.61, 4.272, -0.122, -1.697, -2.977, 127.227, 55.174, -42.238, -10.290, 22.22, 0.44415, 0.0224, -0.02759, 0.89517,
 15:14:37.416,c2:22:89:2b:7b:c3, 2015-01-01 00:29:51.680, 0.057, -0.041, 1.012, 0.854, 4.578, 0, -1.697, -2.933, 127.227, 55.174, -42.238, -10.290, 22.22, 0.44415, 0.0224, -0.02759, 0.89517,
 15:14:37.446,c2:22:89:2b:7b:c3, 2015-01-01 00:29:51.680, 0.046, -0.016, 1.013, 0.305, 5.371, -0.183, -1.686, -2.884, 127.222, 55.174, -42.238, -10.290, 22.22, 0.44415, 0.0224, -0.02759, 0.89517,
 15:14:37.447,c2:22:89:2b:7b:c3, 2015-01-01 00:29:51.680, 0.058, -0.028, 1.012, -0.305, 5.066, 0, -1.692, -2.834, 127.216, 55.174, -42.238, -10.290, 22.22, 0.44415, 0.0224, -0.02759, 0.89517,
 15:14:37.447,c2:22:89:2b:7b:c3, 2015-01-01 00:29:51.680, 0.043, -0.029, 1.002, 0, 5.066, 0, -1.692, -2.791, 127.211, 55.174, -42.238, -10.290, 22.22, 0.44415, 0.0224, -0.02759, 0.89517,
 15:14:37.447,c2:22:89:2b:7b:c3, 2015-01-01 00:29:51.680, 0.037, -0.029, 1.001, -0.488, 6.104, -0.061, -1.697, -2.736, 127.211, 55.174, -42.238, -10.290, 22.22, 0.44415, 0.0224, -0.02759, 0.89517,
 15:14:37.506,c2:22:89:2b:7b:c3, 2015-01-01 00:29:51.680, 0.055, -0.032, 1, 0, 4.944, -0.061, -1.697, -2.686, 127.205, 55.174, -42.238, -10.290, 22.22, 0.44415, 0.0224, -0.02759, 0.89517,
 15:14:37.506,c2:22:89:2b:7b:c3, 2015-01-01 00:29:51.680, 0.039, -0.039, 0.998, -0.366, 4.944, 0, -1.703, -2.637, 127.2, 55.174, -42.238, -10.290, 22.22, 0.44415, 0.0224, -0.02759, 0.89517,
 15:14:37.506,c2:22:89:2b:7b:c3, 2015-01-01 00:29:51.680, 0.041, -0.031, 1.008, 0.732, 5.31, -0.183, -1.697, -2.587, 127.2, 55.174, -42.238, -10.290, 22.22, 0.44415, 0.0224, -0.02759, 0.89517,
 15:14:37.506,c2:22:89:2b:7b:c3, 2015-01-01 00:29:51.680, 0.044, -0.015, 0.998, 0.122, 5.005, -0.061, -1.692, -2.538, 127.194, 55.174, -42.238, -10.290, 22.22, 0.44415, 0.0224, -0.02759, 0.89517,
 15:14:37.537,c2:22:89:2b:7b:c3, 2015-01-01 00:29:51.680, 0.055, -0.039, 1.005, -0.488, 4.822, 0.061, -1.697, -2.494, 127.189, 56.154, -41.944, -11.074, 22.22, 0.44415, 0.0224, -0.02759, 0.89517,
 15:14:37.537,c2:22:89:2b:7b:c3, 2015-01-01 00:29:51.680, 0.038, -0.03, 1.007, 0.427, 5.432, 0, -1.697, -2.444, 127.183, 56.154, -41.944, -11.074, 22.22, 0.44415, 0.0224, -0.02759, 0.89517,
 15:14:37.537,c2:22:89:2b:7b:c3, 2015-01-01 00:29:51.680, 0.034, -0.021, 1.004, 0.183, 6.104, 0, -1.692, -2.39, 127.178, 56.154, -41.944, -11.074, 22.22, 0.44415, 0.0224, -0.02759, 0.89517,
 15:14:37.537,c2:22:89:2b:7b:c3, 2015-01-01 00:29:51.680, 0.041, -0.023, 1.001, -0.549, 5.127, -0.061, -1.697, -2.34, 127.172, 56.154, -41.944, -11.074, 22.22, 0.44415, 0.0224, -0.02759, 0.89517,
 15:14:37.567,c2:22:89:2b:7b:c3, 2015-01-01 00:29:51.680, 0.042, -0.034, 1.002, -0.671, 5.066, 0, -1.703, -2.291, 127.167, 56.154, -41.944, -11.074, 22.22, 0.44415, 0.0224, -0.02759, 0.89517,
 15:14:37.567,c2:22:89:2b:7b:c3, 2015-01-01 00:29:51.680, 0.033, -0.04, 1.001, -0.183, 5.615, 0.122, -1.703, -2.236, 127.167, 56.154, -41.944, -11.074, 22.22, 0.44415, 0.0224, -0.02759, 0.89517,
 15:14:37.567,c2:22:89:2b:7b:c3, 2015-01-01 00:29:51.680, 0.04, -0.032, 1.008, 0.732, 5.432, 0, -1.697, -2.186, 127.161, 56.154, -41.944, -11.074, 22.22, 0.44415, 0.0224, -0.02759, 0.89517,
 15:14:37.567,c2:22:89:2b:7b:c3, 2015-01-01 00:29:51.680, 0.043, -0.024, 1.011, 0.305, 4.639, -0.122, -1.692, -2.142, 127.156, 56.154, -41.944, -11.074, 22.22, 0.44415, 0.0224, -0.02759, 0.89517,
 15:14:37.627,c2:22:89:2b:7b:c3, 2015-01-01 00:29:51.680, 0.027, -0.031, 1.005, 0, 5.676, -0.122, -1.692, -2.087, 127.15, 56.154, -41.944, -11.074, 22.22, 0.44504, 0.01031, -0.02167, 0.89514,
 15:14:37.627,c2:22:89:2b:7b:c3, 2015-01-01 00:29:51.680, 0.042, -0.02, 1, 0, 5.676, 0, -1.692, -2.032, 127.145, 56.154, -41.944, -11.074, 22.22, 0.44504, 0.01031, -0.02167, 0.89514,
 15:14:37.627,c2:22:89:2b:7b:c3, 2015-01-01 00:29:51.680, 0.031, -0.034, 0.997, -0.732, 5.31, 0.061, -1.697, -1.983, 127.139, 56.154, -41.944, -11.074, 22.22, 0.44504, 0.01031, -0.02167, 0.89514,
 15:14:37.627,c2:22:89:2b:7b:c3, 2015-01-01 00:29:51.680, 0.022, -0.046, 1, 0, 5.859, 0, -1.703, -1.934, 127.134, 56.154, -41.944, -11.074, 22.22, 0.44504, 0.01031, -0.02167, 0.89514,
 15:14:37.657,c2:22:89:2b:7b:c3, 2015-01-01 00:29:52.005, 0.02, -0.011, 0.993, 0.854, 5.798, -0.122, -1.692, -1.873, 127.128, 56.154, -41.944, -11.074, 22.22, 0.44504, 0.01031, -0.02167, 0.89514,
 15:14:37.657,c2:22:89:2b:7b:c3, 2015-01-01 00:29:52.005, 0.04, -0.032, 0.991, -0.977, 5.188, 0, -1.703, -1.824, 127.123, 56.154, -41.944, -11.074, 22.22, 0.44504, 0.01031, -0.02167, 0.89514,
 15:14:37.657,c2:22:89:2b:7b:c3, 2015-01-01 00:29:52.005, 0.049, -0.052, 1.003, 0.305, 4.395, -0.122, -1.703, -1.78, 127.117, 56.154, -41.944, -11.074, 22.22, 0.44504, 0.01031, -0.02167, 0.89514,
 15:14:37.657,c2:22:89:2b:7b:c3, 2015-01-01 00:29:52.005, 0.012, -0.031, 1.014, 1.099, 5.493, -0.061, -1.692, -1.736, 127.112, 56.154, -41.944, -11.074, 22.22, 0.44504, 0.01031, -0.02167, 0.89514,
 15:14:37.686,c2:22:89:2b:7b:c3, 2015-01-01 00:29:52.005, 0.021, -0.011, 1.014, 0.916, 6.104, -0.061, -1.681, -1.675, 127.106, 56.154, -41.944, -11.074, 22.22, 0.44504, 0.01031, -0.02167, 0.89514,
 15:14:37.686,c2:22:89:2b:7b:c3, 2015-01-01 00:29:52.005, 0.049, -0.014, 0.996, -0.793, 4.639, 0.061, -1.686, -1.626, 127.101, 56.154, -41.944, -11.074, 22.22, 0.44504, 0.01031, -0.02167, 0.89514,
 15:14:37.686,c2:22:89:2b:7b:c3, 2015-01-01 00:29:52.005, 0.017, -0.043, 1, -1.648, 5.432, 0, -1.703, -1.582, 127.095, 56.154, -41.944, -11.074, 22.22, 0.44504, 0.01031, -0.02167, 0.89514,
 15:14:37.686,c2:22:89:2b:7b:c3, 2015-01-01 00:29:52.005, 0.01, -0.042, 1.006, 0.854, 6.226, -0.061, -1.703, -1.522, 127.09, 56.154, -41.944, -11.074, 22.22, 0.44504, 0.01031, -0.02167, 0.89514,
 15:14:37.776,c2:22:89:2b:7b:c3, 2015-01-01 00:29:52.005, 0.017, -0.008, 0.995, 0.244, 5.493, -0.183, -1.697, -1.467, 127.084, 56.154, -41.944, -11.074, 22.22, 0.44504, 0.01031, -0.02167, 0.89514,
 15:14:37.776,c2:22:89:2b:7b:c3, 2015-01-01 00:29:52.005, 0.032, -0.042, 0.995, -0.977, 4.578, -0.061, -1.703, -1.423, 127.073, 56.154, -41.944, -11.074, 22.22, 0.44504, 0.01031, -0.02167, 0.89514,
 15:14:37.776,c2:22:89:2b:7b:c3, 2015-01-01 00:29:52.005, 0.014, -0.042, 0.995, 0.366, 5.127, -0.244, -1.703, -1.373, 127.068, 56.154, -41.944, -11.074, 22.22, 0.44504, 0.01031, -0.02167, 0.89514,
 15:14:37.776,c2:22:89:2b:7b:c3, 2015-01-01 00:29:52.005, 0.026, -0.031, 1.006, 0.854, 5.371, -0.061, -1.697, -1.318, 127.062, 56.154, -41.944, -11.074, 22.22, 0.44504, 0.01031, -0.02167, 0.89514,
 15:14:37.776,c2:22:89:2b:7b:c3, 2015-01-01 00:29:52.005, 0.025, -0.025, 1.013, 0.427, 4.822, 0.061, -1.692, -1.274, 127.057, 56.154, -41.944, -11.074, 22.22, 0.44504, 0.01031, -0.02167, 0.89514,
 15:14:37.776,c2:22:89:2b:7b:c3, 2015-01-01 00:29:52.005, 0.025, -0.024, 1.013, 0.488, 5.249, 0, -1.686, -1.225, 127.051, 56.154, -41.944, -11.074, 22.22, 0.44504, 0.01031, -0.02167, 0.89514,
 15:14:37.776,c2:22:89:2b:7b:c3, 2015-01-01 00:29:52.005, 0.003, -0.02, 1.001, -0.854, 6.042, -0.122, -1.692, -1.17, 127.046, 56.154, -41.944, -11.074, 22.22, 0.44504, 0.01031, -0.02167, 0.89514,
 15:14:37.776,c2:22:89:2b:7b:c3, 2015-01-01 00:29:52.005, 0.024, -0.032, 1, -0.732, 5.676, -0.122, -1.703, -1.115, 127.035, 56.154, -41.944, -11.074, 22.22, 0.44504, 0.01031, -0.02167, 0.89514,
 15:14:37.836,c2:22:89:2b:7b:c3, 2015-01-01 00:29:52.005, 0.013, -0.033, 0.998, -0.305, 4.822, -0.061, -1.703, -1.066, 127.029, 56.154, -41.944, -11.074, 22.22, 0.44504, 0.01031, -0.02167, 0.89514,
 15:14:37.836,c2:22:89:2b:7b:c3, 2015-01-01 00:29:52.005, 0.005, -0.043, 1.001, 0.183, 5.798, 0, -1.703, -1.011, 127.024, 56.154, -41.944, -11.074, 22.22, 0.44504, 0.01031, -0.02167, 0.89514,
 15:14:37.836,c2:22:89:2b:7b:c3, 2015-01-01 00:29:52.005, 0.007, -0.021, 0.99, 0.366, 5.249, 0, -1.697, -0.961, 127.018, 56.154, -41.944, -11.074, 22.22, 0.44504, 0.01031, -0.02167, 0.89514,
 15:14:37.836,c2:22:89:2b:7b:c3, 2015-01-01 00:29:52.005, 0.019, -0.035, 0.989, -0.427, 5.005, 0, -1.703, -0.912, 127.013, 56.154, -41.944, -11.074, 22.22, 0.44504, 0.01031, -0.02167, 0.89514,
 15:14:37.867,c2:22:89:2b:7b:c3, 2015-01-01 00:29:52.005, 0.025, -0.042, 1.003, 0.61, 4.761, 0, -1.703, -0.862, 127.007, 56.154, -41.944, -11.074, 22.22, 0.44504, 0.01031, -0.02167, 0.89514,
 15:14:37.867,c2:22:89:2b:7b:c3, 2015-01-01 00:29:52.005, 0.005, -0.024, 1.014, 0.793, 5.127, 0, -1.692, -0.818, 127.002, 56.154, -41.944, -11.074, 22.22, 0.44504, 0.01031, -0.02167, 0.89514,
 15:14:37.867,c2:22:89:2b:7b:c3, 2015-01-01 00:29:52.005, 0.005, -0.023, 1.008, 0, 5.737, 0, -1.692, -0.764, 126.991, 56.154, -41.944, -11.074, 22.22, 0.44504, 0.01031, -0.02167, 0.89514,
 15:14:37.867,c2:22:89:2b:7b:c3, 2015-01-01 00:29:52.005, 0.012, -0.019, 0.994, -0.305, 5.249, 0, -1.692, -0.709, 126.985, 56.154, -41.944, -11.074, 22.22, 0.44504, 0.01031, -0.02167, 0.89514,
 15:14:37.898,c2:22:89:2b:7b:c3, 2015-01-01 00:29:52.005, 0.003, -0.038, 0.996, -1.099, 5.493, 0, -1.703, -0.659, 126.98, 57.036, -41.454, -12.054, 22.22, 0.44504, 0.01031, -0.02167, 0.89514,
 15:14:37.898,c2:22:89:2b:7b:c3, 2015-01-01 00:29:52.005, 0.009, -0.04, 1, 0.122, 4.944, 0, -1.703, -0.61, 126.974, 57.036, -41.454, -12.054, 22.22, 0.44504, 0.01031, -0.02167, 0.89514,
 15:14:37.898,c2:22:89:2b:7b:c3, 2015-01-01 00:29:52.005, -0.006, -0.032, 0.997, 0.244, 5.066, 0, -1.703, -0.56, 126.969, 57.036, -41.454, -12.054, 22.22, 0.44504, 0.01031, -0.02167, 0.89514,
 15:14:37.898,c2:22:89:2b:7b:c3, 2015-01-01 00:29:52.005, 0.003, -0.033, 1, 0.366, 5.127, 0, -1.703, -0.511, 126.964, 57.036, -41.454, -12.054, 22.22, 0.44504, 0.01031, -0.02167, 0.89514,
 15:14:37.957,c2:22:89:2b:7b:c3, 2015-01-01 00:29:52.005, 0.014, -0.02, 1, 0.305, 4.883, 0, -1.697, -0.461, 126.958, 57.036, -41.454, -12.054, 22.22, 0.44504, 0.01031, -0.02167, 0.89514,
 15:14:37.957,c2:22:89:2b:7b:c3, 2015-01-01 00:29:52.005, 0.012, -0.033, 1.008, -0.244, 4.7, 0, -1.697, -0.417, 126.947, 57.036, -41.454, -12.054, 22.22, 0.44504, 0.01031, -0.02167, 0.89514,
 15:14:37.957,c2:22:89:2b:7b:c3, 2015-01-01 00:29:52.005, -0.006, -0.03, 1.006, 0.183, 5.493, 0, -1.697, -0.363, 126.942, 57.036, -41.454, -12.054, 22.22, 0.44504, 0.01031, -0.02167, 0.89514,
 15:14:37.957,c2:22:89:2b:7b:c3, 2015-01-01 00:29:52.005, -0.001, -0.018, 1.001, 0.183, 5.615, 0, -1.692, -0.313, 126.936, 57.036, -41.454, -12.054, 22.22, 0.44504, 0.01031, -0.02167, 0.89514,
 15:14:37.987,c2:22:89:2b:7b:c3, 2015-01-01 00:29:52.005, -0.004, -0.029, 0.99, -1.038, 5.31, 0, -1.697, -0.258, 126.931, 57.036, -41.454, -12.054, 22.22, 0.44662, -0.00394, -0.01456, 0.89453,
 15:14:37.987,c2:22:89:2b:7b:c3, 2015-01-01 00:29:52.005, 0.001, -0.04, 0.987, -0.427, 5.066, 0, -1.708, -0.209, 126.92, 57.036, -41.454, -12.054, 22.22, 0.44662, -0.00394, -0.01456, 0.89453,
 15:14:37.987,c2:22:89:2b:7b:c3, 2015-01-01 00:29:52.005, -0.004, -0.037, 0.992, 0, 5.127, 0, -1.708, -0.159, 126.914, 57.036, -41.454, -12.054, 22.22, 0.44662, -0.00394, -0.01456, 0.89453,
 15:14:37.988,c2:22:89:2b:7b:c3, 2015-01-01 00:29:52.005, -0.009, -0.036, 0.997, 0.244, 4.883, 0, -1.708, -0.115, 126.909, 57.036, -41.454, -12.054, 22.22, 0.44662, -0.00394, -0.01456, 0.89453,
 15:14:38.017,c2:22:89:2b:7b:c3, 2015-01-01 00:29:52.005, 0.001, -0.028, 0.998, 1.038, 4.883, 0, -1.697, -0.066, 126.903, 57.036, -41.454, -12.054, 22.22, 0.44662, -0.00394, -0.01456, 0.89453,
 15:14:38.017,c2:22:89:2b:7b:c3, 2015-01-01 00:29:52.005, 0.002, -0.025, 1.003, 0, 4.456, 0, -1.697, -0.022, 126.898, 57.036, -41.454, -12.054, 22.22, 0.44662, -0.00394, -0.01456, 0.89453,
 15:14:38.017,c2:22:89:2b:7b:c3, 2015-01-01 00:29:52.005, 0, -0.034, 1.008, 0, 5.005, 0, -1.697, 0.016, 126.892, 57.036, -41.454, -12.054, 22.22, 0.44662, -0.00394, -0.01456, 0.89453,
 15:14:38.017,c2:22:89:2b:7b:c3, 2015-01-01 00:29:52.005, -0.001, -0.024, 1.009, 0.183, 4.822, 0, -1.697, 0.066, 126.881, 57.036, -41.454, -12.054, 22.22, 0.44662, -0.00394, -0.01456, 0.89453,
 15:14:38.076,c2:22:89:2b:7b:c3, 2015-01-01 00:29:52.395, -0.012, -0.033, 1.003, -0.549, 5.31, 0, -1.703, 0.115, 126.876, 57.036, -41.454, -12.054, 22.22, 0.44662, -0.00394, -0.01456, 0.89453,
 15:14:38.076,c2:22:89:2b:7b:c3, 2015-01-01 00:29:52.395, -0.008, -0.026, 0.999, 0.122, 5.066, 0, -1.703, 0.165, 126.87, 57.036, -41.454, -12.054, 22.22, 0.44662, -0.00394, -0.01456, 0.89453,
 15:14:38.076,c2:22:89:2b:7b:c3, 2015-01-01 00:29:52.395, -0.009, -0.028, 0.988, -0.488, 4.883, 0, -1.703, 0.214, 126.865, 57.036, -41.454, -12.054, 22.22, 0.44662, -0.00394, -0.01456, 0.89453,
 15:14:38.076,c2:22:89:2b:7b:c3, 2015-01-01 00:29:52.395, -0.016, -0.042, 0.989, -0.61, 4.822, 0, -1.714, 0.258, 126.854, 57.036, -41.454, -12.054, 22.22, 0.44662, -0.00394, -0.01456, 0.89453,
 15:14:38.106,c2:22:89:2b:7b:c3, 2015-01-01 00:29:52.395, -0.014, -0.031, 0.988, 0.549, 4.7, 0, -1.708, 0.308, 126.848, 57.036, -41.454, -12.054, 22.22, 0.44662, -0.00394, -0.01456, 0.89453,
 15:14:38.106,c2:22:89:2b:7b:c3, 2015-01-01 00:29:52.395, -0.011, -0.032, 0.995, 0, 4.456, 0, -1.708, 0.352, 126.843, 57.036, -41.454, -12.054, 22.22, 0.44662, -0.00394, -0.01456, 0.89453,
 15:14:38.106,c2:22:89:2b:7b:c3, 2015-01-01 00:29:52.395, 0, -0.034, 1.004, 0.61, 4.211, 0, -1.703, 0.39, 126.837, 57.036, -41.454, -12.054, 22.22, 0.44662, -0.00394, -0.01456, 0.89453,
 15:14:38.106,c2:22:89:2b:7b:c3, 2015-01-01 00:29:52.395, -0.02, -0.024, 1.006, 0.305, 4.578, 0, -1.697, 0.434, 126.826, 57.036, -41.454, -12.054, 22.22, 0.44662, -0.00394, -0.01456, 0.89453,
 15:14:38.136,c2:22:89:2b:7b:c3, 2015-01-01 00:29:52.395, -0.012, -0.028, 1, -0.244, 5.188, 0, -1.703, 0.483, 126.821, 57.036, -41.454, -12.054, 22.22, 0.44662, -0.00394, -0.01456, 0.89453,
 15:14:38.136,c2:22:89:2b:7b:c3, 2015-01-01 00:29:52.395, 0.001, -0.026, 0.998, -0.183, 3.906, 0, -1.703, 0.527, 126.815, 57.036, -41.454, -12.054, 22.22, 0.44662, -0.00394, -0.01456, 0.89453,
 15:14:38.136,c2:22:89:2b:7b:c3, 2015-01-01 00:29:52.395, -0.024, -0.042, 1.004, -0.61, 4.7, 0, -1.708, 0.566, 126.804, 57.036, -41.454, -12.054, 22.22, 0.44662, -0.00394, -0.01456, 0.89453,
 15:14:38.136,c2:22:89:2b:7b:c3, 2015-01-01 00:29:52.395, -0.026, -0.03, 1.001, 0.671, 5.066, 0, -1.708, 0.615, 126.799, 57.036, -41.454, -12.054, 22.22, 0.44662, -0.00394, -0.01456, 0.89453,
 15:14:38.166,c2:22:89:2b:7b:c3, 2015-01-01 00:29:52.395, -0.016, -0.016, 0.99, -0.305, 4.7, 0, -1.703, 0.665, 126.793, 57.036, -41.454, -12.054, 22.22, 0.44662, -0.00394, -0.01456, 0.89453,
 15:14:38.166,c2:22:89:2b:7b:c3, 2015-01-01 00:29:52.395, -0.014, -0.045, 0.99, -0.977, 4.028, 0, -1.714, 0.709, 126.788, 57.036, -41.454, -12.054, 22.22, 0.44662, -0.00394, -0.01456, 0.89453,
 15:14:38.166,c2:22:89:2b:7b:c3, 2015-01-01 00:29:52.395, -0.015, -0.037, 1.001, 0.793, 4.15, 0, -1.714, 0.747, 126.777, 57.036, -41.454, -12.054, 22.22, 0.44662, -0.00394, -0.01456, 0.89453,
 15:14:38.166,c2:22:89:2b:7b:c3, 2015-01-01 00:29:52.395, -0.027, -0.026, 1.001, 0.549, 4.7, 0, -1.708, 0.791, 126.771, 57.036, -41.454, -12.054, 22.22, 0.44662, -0.00394, -0.01456, 0.89453,
 15:14:38.228,c2:22:89:2b:7b:c3, 2015-01-01 00:29:52.395, -0.014, -0.025, 1.004, 0.305, 4.395, 0, -1.703, 0.835, 126.766, 57.036, -41.454, -12.054, 22.22, 0.44662, -0.00394, -0.01456, 0.89453,
 15:14:38.228,c2:22:89:2b:7b:c3, 2015-01-01 00:29:52.395, -0.018, -0.02, 0.996, 0, 3.967, 0, -1.703, 0.873, 126.755, 57.036, -41.454, -12.054, 22.22, 0.44662, -0.00394, -0.01456, 0.89453,
 15:14:38.228,c2:22:89:2b:7b:c3, 2015-01-01 00:29:52.395, -0.03, -0.031, 0.993, -1.038, 4.883, 0, -1.714, 0.917, 126.749, 57.036, -41.454, -12.054, 22.22, 0.44662, -0.00394, -0.01456, 0.89453,
 15:14:38.228,c2:22:89:2b:7b:c3, 2015-01-01 00:29:52.395, -0.017, -0.035, 0.989, 0.122, 4.333, 0, -1.714, 0.961, 126.744, 57.036, -41.454, -12.054, 22.22, 0.44662, -0.00394, -0.01456, 0.89453,
 15:14:38.258,c2:22:89:2b:7b:c3, 2015-01-01 00:29:52.395, -0.025, -0.034, 0.991, -0.305, 3.662, 0, -1.714, 1, 126.733, 58.016, -41.160, -12.740, 22.22, 0.44662, -0.00394, -0.01456, 0.89453,
 15:14:38.258,c2:22:89:2b:7b:c3, 2015-01-01 00:29:52.395, -0.034, -0.041, 1, 0.366, 4.456, 0, -1.714, 1.044, 126.727, 58.016, -41.160, -12.740, 22.22, 0.44662, -0.00394, -0.01456, 0.89453,
 15:14:38.258,c2:22:89:2b:7b:c3, 2015-01-01 00:29:52.395, -0.016, -0.017, 0.996, 1.099, 3.723, 0, -1.708, 1.082, 126.722, 58.016, -41.160, -12.740, 22.22, 0.44662, -0.00394, -0.01456, 0.89453,
 15:14:38.258,c2:22:89:2b:7b:c3, 2015-01-01 00:29:52.395, -0.022, -0.025, 1, -0.183, 3.479, 0, -1.703, 1.115, 126.711, 58.016, -41.160, -12.740, 22.22, 0.44662, -0.00394, -0.01456, 0.89453,
 15:14:38.286,c2:22:89:2b:7b:c3, 2015-01-01 00:29:52.395, -0.03, -0.04, 0.999, -0.061, 4.395, 0, -1.708, 1.154, 126.705, 58.016, -41.160, -12.740, 22.22, 0.44662, -0.00394, -0.01456, 0.89453,
 15:14:38.286,c2:22:89:2b:7b:c3, 2015-01-01 00:29:52.395, -0.029, -0.019, 0.995, 0.122, 4.089, 0, -1.708, 1.198, 126.7, 58.016, -41.160, -12.740, 22.22, 0.44662, -0.00394, -0.01456, 0.89453,
 15:14:38.286,c2:22:89:2b:7b:c3, 2015-01-01 00:29:52.395, -0.02, -0.038, 0.998, -1.099, 3.723, 0, -1.714, 1.236, 126.689, 58.016, -41.160, -12.740, 22.22, 0.44662, -0.00394, -0.01456, 0.89453,
 15:14:38.286,c2:22:89:2b:7b:c3, 2015-01-01 00:29:52.395, -0.028, -0.044, 1.002, 0.488, 3.601, 0, -1.714, 1.269, 126.683, 58.016, -41.160, -12.740, 22.22, 0.44662, -0.00394, -0.01456, 0.89453,
 15:14:38.347,c2:22:89:2b:7b:c3, 2015-01-01 00:29:52.395, -0.043, -0.025, 0.996, 0.305, 4.456, 0, -1.714, 1.313, 126.672, 58.016, -41.160, -12.740, 22.22, 0.44833, -0.01636, -0.00854, 0.89362,
 15:14:38.347,c2:22:89:2b:7b:c3, 2015-01-01 00:29:52.395, -0.03, -0.025, 0.992, -0.061, 3.784, 0, -1.714, 1.351, 126.667, 58.016, -41.160, -12.740, 22.22, 0.44833, -0.01636, -0.00854, 0.89362,
 15:14:38.347,c2:22:89:2b:7b:c3, 2015-01-01 00:29:52.395, -0.027, -0.032, 0.982, -0.427, 2.93, 0, -1.714, 1.384, 126.661, 58.016, -41.160, -12.740, 22.22, 0.44833, -0.01636, -0.00854, 0.89362,
 15:14:38.347,c2:22:89:2b:7b:c3, 2015-01-01 00:29:52.395, -0.036, -0.035, 0.991, 0, 3.662, 0, -1.719, 1.417, 126.656, 58.016, -41.160, -12.740, 22.22, 0.44833, -0.01636, -0.00854, 0.89362,
 15:14:38.377,c2:22:89:2b:7b:c3, 2015-01-01 00:29:52.720, -0.026, -0.031, 1, 0.244, 3.54, 0, -1.714, 1.456, 126.645, 58.016, -41.160, -12.740, 22.22, 0.44833, -0.01636, -0.00854, 0.89362,
 15:14:38.377,c2:22:89:2b:7b:c3, 2015-01-01 00:29:52.720, -0.03, -0.029, 1.004, 0.244, 3.113, 0, -1.714, 1.489, 126.639, 58.016, -41.160, -12.740, 22.22, 0.44833, -0.01636, -0.00854, 0.89362,
 15:14:38.378,c2:22:89:2b:7b:c3, 2015-01-01 00:29:52.720, -0.034, -0.029, 1.004, 0.183, 3.906, 0, -1.714, 1.522, 126.628, 58.016, -41.160, -12.740, 22.22, 0.44833, -0.01636, -0.00854, 0.89362,
 15:14:38.378,c2:22:89:2b:7b:c3, 2015-01-01 00:29:52.720, -0.031, -0.018, 0.996, 0.122, 3.54, 0, -1.708, 1.56, 126.623, 58.016, -41.160, -12.740, 22.22, 0.44833, -0.01636, -0.00854, 0.89362,
 15:14:38.406,c2:22:89:2b:7b:c3, 2015-01-01 00:29:52.720, -0.039, -0.033, 0.988, -1.038, 3.174, 0, -1.719, 1.593, 126.617, 58.016, -41.160, -12.740, 22.22, 0.44833, -0.01636, -0.00854, 0.89362,
 15:14:38.406,c2:22:89:2b:7b:c3, 2015-01-01 00:29:52.720, -0.047, -0.038, 0.986, -0.244, 3.845, 0, -1.725, 1.631, 126.606, 58.016, -41.160, -12.740, 22.22, 0.44833, -0.01636, -0.00854, 0.89362,
 15:14:38.406,c2:22:89:2b:7b:c3, 2015-01-01 00:29:52.720, -0.031, -0.025, 0.984, 0.183, 3.235, 0, -1.719, 1.664, 126.601, 58.016, -41.160, -12.740, 22.22, 0.44833, -0.01636, -0.00854, 0.89362,
 15:14:38.406,c2:22:89:2b:7b:c3, 2015-01-01 00:29:52.720, -0.031, -0.043, 0.994, -0.488, 2.502, 0, -1.725, 1.692, 126.595, 58.016, -41.160, -12.740, 22.22, 0.44833, -0.01636, -0.00854, 0.89362,
 15:14:38.466,c2:22:89:2b:7b:c3, 2015-01-01 00:29:52.720, -0.032, -0.043, 1.005, 1.099, 2.686, 0, -1.719, 1.719, 126.59, 58.016, -41.160, -12.740, 22.22, 0.44833, -0.01636, -0.00854, 0.89362,
 15:14:38.466,c2:22:89:2b:7b:c3, 2015-01-01 00:29:52.720, -0.046, -0.013, 1, 0.61, 3.296, 0, -1.708, 1.752, 126.579, 58.016, -41.160, -12.740, 22.22, 0.44833, -0.01636, -0.00854, 0.89362,
 15:14:38.466,c2:22:89:2b:7b:c3, 2015-01-01 00:29:52.720, -0.027, -0.022, 0.999, -0.244, 3.113, 0, -1.708, 1.785, 126.573, 58.016, -41.160, -12.740, 22.22, 0.44833, -0.01636, -0.00854, 0.89362,
 15:14:38.466,c2:22:89:2b:7b:c3, 2015-01-01 00:29:52.720, -0.034, -0.027, 0.995, -0.671, 2.502, 0, -1.714, 1.813, 126.562, 58.016, -41.160, -12.740, 22.22, 0.44833, -0.01636, -0.00854, 0.89362,
 15:14:38.497,c2:22:89:2b:7b:c3, 2015-01-01 00:29:52.720, -0.059, -0.037, 0.997, -0.793, 3.601, 0, -1.719, 1.846, 126.557, 58.016, -41.160, -12.740, 22.22, 0.44833, -0.01636, -0.00854, 0.89362,
 15:14:38.497,c2:22:89:2b:7b:c3, 2015-01-01 00:29:52.720, -0.042, -0.031, 0.984, -0.061, 3.54, 0, -1.725, 1.879, 126.546, 58.016, -41.160, -12.740, 22.22, 0.44833, -0.01636, -0.00854, 0.89362,
 15:14:38.497,c2:22:89:2b:7b:c3, 2015-01-01 00:29:52.720, -0.027, -0.038, 0.983, -0.305, 2.075, 0, -1.725, 1.906, 126.541, 58.016, -41.160, -12.740, 22.22, 0.44833, -0.01636, -0.00854, 0.89362,
 15:14:38.497,c2:22:89:2b:7b:c3, 2015-01-01 00:29:52.720, -0.041, -0.054, 0.999, 0.183, 2.441, 0, -1.73, 1.928, 126.535, 58.016, -41.160, -12.740, 22.22, 0.44833, -0.01636, -0.00854, 0.89362,
 15:14:38.556,c2:22:89:2b:7b:c3, 2015-01-01 00:29:52.720, -0.045, -0.021, 1.013, 1.587, 2.441, 0, -1.714, 1.956, 126.524, 58.016, -41.160, -12.740, 22.22, 0.44833, -0.01636, -0.00854, 0.89362,
 15:14:38.556,c2:22:89:2b:7b:c3, 2015-01-01 00:29:52.720, -0.038, -0.009, 0.995, 0.183, 2.869, 0, -1.708, 1.983, 126.519, 58.016, -41.160, -12.740, 22.22, 0.44833, -0.01636, -0.00854, 0.89362,
 15:14:38.556,c2:22:89:2b:7b:c3, 2015-01-01 00:29:52.720, -0.033, -0.035, 0.981, -0.61, 2.563, 0, -1.714, 2.01, 126.513, 58.016, -41.160, -12.740, 22.22, 0.44833, -0.01636, -0.00854, 0.89362,
 15:14:38.556,c2:22:89:2b:7b:c3, 2015-01-01 00:29:52.720, -0.055, -0.029, 0.996, -0.732, 2.808, 0, -1.719, 2.038, 126.508, 58.016, -41.160, -12.740, 22.22, 0.44833, -0.01636, -0.00854, 0.89362,
 15:14:38.585,c2:22:89:2b:7b:c3, 2015-01-01 00:29:52.720, -0.056, -0.031, 0.998, -0.549, 2.93, 0, -1.725, 2.065, 126.497, 58.016, -41.160, -12.740, 22.22, 0.44833, -0.01636, -0.00854, 0.89362,
 15:14:38.585,c2:22:89:2b:7b:c3, 2015-01-01 00:29:52.720, -0.043, -0.038, 0.968, 0, 2.38, 0, -1.73, 2.093, 126.491, 58.016, -41.160, -12.740, 22.22, 0.44833, -0.01636, -0.00854, 0.89362,
 15:14:38.585,c2:22:89:2b:7b:c3, 2015-01-01 00:29:52.720, -0.043, -0.041, 0.976, -0.061, 1.892, 0, -1.73, 2.115, 126.486, 58.016, -41.160, -12.740, 22.22, 0.44833, -0.01636, -0.00854, 0.89362,
 15:14:38.585,c2:22:89:2b:7b:c3, 2015-01-01 00:29:52.720, -0.046, -0.039, 1.001, 0.366, 1.77, 0, -1.725, 2.137, 126.48, 58.016, -41.160, -12.740, 22.22, 0.44833, -0.01636, -0.00854, 0.89362,
 15:14:38.618,c2:22:89:2b:7b:c3, 2015-01-01 00:29:52.720, -0.034, -0.023, 1.007, 1.099, 1.892, 0, -1.719, 2.153, 126.469, 58.702, -41.062, -13.230, 22.22, 0.44833, -0.01636, -0.00854, 0.89362,
 15:14:38.618,c2:22:89:2b:7b:c3, 2015-01-01 00:29:52.720, -0.038, -0.022, 0.994, 0.122, 2.197, 0, -1.714, 2.175, 126.464, 58.702, -41.062, -13.230, 22.22, 0.44833, -0.01636, -0.00854, 0.89362,
 15:14:38.618,c2:22:89:2b:7b:c3, 2015-01-01 00:29:52.720, -0.042, -0.03, 1.003, -0.305, 2.197, 0, -1.714, 2.197, 126.458, 58.702, -41.062, -13.230, 22.22, 0.44833, -0.01636, -0.00854, 0.89362,
 15:14:38.618,c2:22:89:2b:7b:c3, 2015-01-01 00:29:52.720, -0.047, -0.024, 1.006, -0.305, 2.38, 0, -1.719, 2.225, 126.447, 58.702, -41.062, -13.230, 22.22, 0.44833, -0.01636, -0.00854, 0.89362,
 15:14:38.646,c2:22:89:2b:7b:c3, 2015-01-01 00:29:52.720, -0.052, -0.034, 0.997, -1.099, 2.625, 0, -1.73, 2.252, 126.442, 58.702, -41.062, -13.230, 22.22, 0.44833, -0.01636, -0.00854, 0.89362,
 15:14:38.646,c2:22:89:2b:7b:c3, 2015-01-01 00:29:52.720, -0.044, -0.034, 0.989, 0.061, 2.075, 0, -1.73, 2.274, 126.436, 58.702, -41.062, -13.230, 22.22, 0.44833, -0.01636, -0.00854, 0.89362,
 15:14:38.646,c2:22:89:2b:7b:c3, 2015-01-01 00:29:52.720, -0.056, -0.041, 0.977, -0.61, 1.587, 0, -1.736, 2.291, 126.431, 58.702, -41.062, -13.230, 22.22, 0.44833, -0.01636, -0.00854, 0.89362,
 15:14:38.646,c2:22:89:2b:7b:c3, 2015-01-01 00:29:52.720, -0.051, -0.036, 0.987, 0.671, 1.892, 0, -1.73, 2.313, 126.425, 58.702, -41.062, -13.230, 22.22, 0.44833, -0.01636, -0.00854, 0.89362,
 15:14:38.706,c2:22:89:2b:7b:c3, 2015-01-01 00:29:52.720, -0.05, -0.022, 0.981, 0.122, 1.404, 0, -1.73, 2.329, 126.414, 58.702, -41.062, -13.230, 22.22, 0.4502, -0.02469, -0.00449, 0.89252,
 15:14:38.706,c2:22:89:2b:7b:c3, 2015-01-01 00:29:52.720, -0.038, -0.032, 0.988, -0.061, 1.221, 0, -1.73, 2.34, 126.409, 58.702, -41.062, -13.230, 22.22, 0.4502, -0.02469, -0.00449, 0.89252,
 15:14:38.706,c2:22:89:2b:7b:c3, 2015-01-01 00:29:52.720, -0.052, -0.038, 0.987, 0, 1.282, 0, -1.73, 2.357, 126.403, 58.702, -41.062, -13.230, 22.22, 0.4502, -0.02469, -0.00449, 0.89252,
 15:14:38.706,c2:22:89:2b:7b:c3, 2015-01-01 00:29:52.720, -0.049, -0.023, 0.999, 0.732, 1.77, 0, -1.725, 2.373, 126.398, 58.702, -41.062, -13.230, 22.22, 0.4502, -0.02469, -0.00449, 0.89252,
 15:14:38.738,c2:22:89:2b:7b:c3, 2015-01-01 00:29:52.720, -0.043, -0.029, 1.003, -0.122, 0.977, 0, -1.725, 2.39, 126.387, 58.702, -41.062, -13.230, 22.22, 0.4502, -0.02469, -0.00449, 0.89252,
 15:14:38.738,c2:22:89:2b:7b:c3, 2015-01-01 00:29:52.720, -0.043, -0.034, 1.004, -0.061, 1.526, 0, -1.725, 2.401, 126.381, 58.702, -41.062, -13.230, 22.22, 0.4502, -0.02469, -0.00449, 0.89252,
 15:14:38.738,c2:22:89:2b:7b:c3, 2015-01-01 00:29:52.720, -0.05, -0.031, 0.998, 0.305, 1.587, 0, -1.725, 2.417, 126.376, 58.702, -41.062, -13.230, 22.22, 0.4502, -0.02469, -0.00449, 0.89252,
 15:14:38.738,c2:22:89:2b:7b:c3, 2015-01-01 00:29:52.720, -0.058, -0.022, 0.992, -0.183, 1.648, 0, -1.725, 2.433, 126.37, 58.702, -41.062, -13.230, 22.22, 0.4502, -0.02469, -0.00449, 0.89252,
 15:14:38.796,c2:22:89:2b:7b:c3, 2015-01-01 00:29:53.110, -0.039, -0.035, 0.994, -0.122, 1.221, 0, -1.73, 2.45, 126.359, 58.702, -41.062, -13.230, 22.22, 0.4502, -0.02469, -0.00449, 0.89252,
 15:14:38.796,c2:22:89:2b:7b:c3, 2015-01-01 00:29:53.110, -0.048, -0.033, 0.989, -0.305, 0.793, 0, -1.73, 2.461, 126.354, 58.702, -41.062, -13.230, 22.22, 0.4502, -0.02469, -0.00449, 0.89252,
 15:14:38.796,c2:22:89:2b:7b:c3, 2015-01-01 00:29:53.110, -0.064, -0.04, 0.984, 0.183, 1.648, 0, -1.73, 2.477, 126.348, 58.702, -41.062, -13.230, 22.22, 0.4502, -0.02469, -0.00449, 0.89252,
 15:14:38.796,c2:22:89:2b:7b:c3, 2015-01-01 00:29:53.110, -0.055, -0.023, 0.98, 0.122, 1.343, 0, -1.73, 2.494, 126.343, 58.702, -41.062, -13.230, 22.22, 0.4502, -0.02469, -0.00449, 0.89252,
 15:14:38.826,c2:22:89:2b:7b:c3, 2015-01-01 00:29:53.110, -0.035, -0.034, 0.983, -0.366, 0.122, 0, -1.73, 2.499, 126.337, 58.702, -41.062, -13.230, 22.22, 0.4502, -0.02469, -0.00449, 0.89252,
 15:14:38.826,c2:22:89:2b:7b:c3, 2015-01-01 00:29:53.110, -0.052, -0.048, 0.991, 0, 0.488, 0, -1.736, 2.505, 126.332, 58.702, -41.062, -13.230, 22.22, 0.4502, -0.02469, -0.00449, 0.89252,
 15:14:38.826,c2:22:89:2b:7b:c3, 2015-01-01 00:29:53.110, -0.066, -0.027, 0.99, 1.16, 1.221, 0, -1.73, 2.516, 126.321, 58.702, -41.062, -13.230, 22.22, 0.4502, -0.02469, -0.00449, 0.89252,
 15:14:38.826,c2:22:89:2b:7b:c3, 2015-01-01 00:29:53.110, -0.048, -0.013, 0.989, -0.183, 0.61, 0, -1.725, 2.527, 126.315, 58.702, -41.062, -13.230, 22.22, 0.4502, -0.02469, -0.00449, 0.89252,
 15:14:38.856,c2:22:89:2b:7b:c3, 2015-01-01 00:29:53.110, -0.029, -0.042, 0.992, -0.793, -0.305, 0, -1.736, 2.527, 126.31, 58.702, -41.062, -13.230, 22.22, 0.4502, -0.02469, -0.00449, 0.89252,
 15:14:38.856,c2:22:89:2b:7b:c3, 2015-01-01 00:29:53.110, -0.059, -0.044, 1.003, 0.366, 0.366, 0, -1.736, 2.527, 126.304, 58.702, -41.062, -13.230, 22.22, 0.4502, -0.02469, -0.00449, 0.89252,
 15:14:38.856,c2:22:89:2b:7b:c3, 2015-01-01 00:29:53.110, -0.059, -0.021, 1.001, 0.977, 1.526, 0, -1.725, 2.543, 126.299, 58.702, -41.062, -13.230, 22.22, 0.4502, -0.02469, -0.00449, 0.89252,
 15:14:38.856,c2:22:89:2b:7b:c3, 2015-01-01 00:29:53.110, -0.038, -0.012, 0.99, -0.244, -0.122, 0, -1.725, 2.549, 126.293, 58.702, -41.062, -13.230, 22.22, 0.4502, -0.02469, -0.00449, 0.89252,
 15:14:38.916,c2:22:89:2b:7b:c3, 2015-01-01 00:29:53.110, -0.049, -0.042, 0.99, -0.977, -0.061, 0, -1.736, 2.549, 126.288, 58.702, -41.062, -13.230, 22.22, 0.4502, -0.02469, -0.00449, 0.89252,
 15:14:38.916,c2:22:89:2b:7b:c3, 2015-01-01 00:29:53.110, -0.067, -0.036, 0.99, 0.366, 1.099, 0, -1.736, 2.56, 126.282, 58.702, -41.062, -13.230, 22.22, 0.4502, -0.02469, -0.00449, 0.89252,
 15:14:38.916,c2:22:89:2b:7b:c3, 2015-01-01 00:29:53.110, -0.053, -0.021, 0.986, 0.122, 0.549, 0, -1.736, 2.571, 126.277, 58.702, -41.062, -13.230, 22.22, 0.4502, -0.02469, -0.00449, 0.89252,
 15:14:38.916,c2:22:89:2b:7b:c3, 2015-01-01 00:29:53.110, -0.043, -0.037, 0.989, -0.366, -0.549, 0, -1.736, 2.565, 126.271, 58.702, -41.062, -13.230, 22.22, 0.4502, -0.02469, -0.00449, 0.89252,
 15:14:38.947,c2:22:89:2b:7b:c3, 2015-01-01 00:29:53.110, -0.054, -0.041, 0.997, 0.854, -0.122, 0, -1.736, 2.565, 126.266, 58.702, -41.062, -13.230, 22.22, 0.4502, -0.02469, -0.00449, 0.89252,
 15:14:38.947,c2:22:89:2b:7b:c3, 2015-01-01 00:29:53.110, -0.054, -0.023, 1, 0.671, 0.244, 0, -1.725, 2.571, 126.26, 58.702, -41.062, -13.230, 22.22, 0.4502, -0.02469, -0.00449, 0.89252,
 15:14:38.947,c2:22:89:2b:7b:c3, 2015-01-01 00:29:53.110, -0.04, -0.025, 0.999, -0.122, -0.488, 0, -1.725, 2.571, 126.255, 58.702, -41.062, -13.230, 22.22, 0.4502, -0.02469, -0.00449, 0.89252,
 15:14:38.947,c2:22:89:2b:7b:c3, 2015-01-01 00:29:53.110, -0.049, -0.035, 1, -0.244, -0.122, 0, -1.73, 2.571, 126.255, 58.702, -41.062, -13.230, 22.22, 0.4502, -0.02469, -0.00449, 0.89252,
 15:14:38.976,c2:22:89:2b:7b:c3, 2015-01-01 00:29:53.110, -0.058, -0.028, 1, -0.244, 0.549, 0, -1.736, 2.576, 126.244, 58.996, -40.866, -13.328, 22.22, 0.4502, -0.02469, -0.00449, 0.89252,
 15:14:38.976,c2:22:89:2b:7b:c3, 2015-01-01 00:29:53.110, -0.039, -0.029, 1.002, -0.244, -0.061, 0, -1.736, 2.582, 126.238, 58.996, -40.866, -13.328, 22.22, 0.4502, -0.02469, -0.00449, 0.89252,
 15:14:38.976,c2:22:89:2b:7b:c3, 2015-01-01 00:29:53.110, -0.046, -0.039, 1.003, -0.183, -0.366, 0, -1.736, 2.576, 126.233, 58.996, -40.866, -13.328, 22.22, 0.4502, -0.02469, -0.00449, 0.89252,
