Time,Device name,Chip Time(),Acceleration X(g),Acceleration Y(g),Acceleration Z(g),Angular velocity X(°/s),Angular velocity Y(°/s),Angular velocity Z(°/s),Angle X(°),Angle Y(°),Angle Z(°),Magnetic field X(ʯt),Magnetic field Y(ʯt),Magnetic field Z(ʯt),Temperature(℃),Quaternions 0(),Quaternions 1(),Quaternions 2(),Quaternions 3()
 15:48:42.354,c2:22:89:2b:7b:c3, 2015-01-01 01:03:42.120, 0.026, -0.03, 1.003, 0, 0, 0, -1.736, -1.478, 126.002, 57.820, -41.846, -13.132, 22.22, 0.45401, 0.00461, -0.01941, 0.89072,
 15:48:42.354,c2:22:89:2b:7b:c3, 2015-01-01 01:03:42.120, 0.025, -0.031, 1.002, 0, 0, 0, -1.736, -1.478, 126.002, 57.820, -41.846, -13.132, 22.22, 0.45401, 0.00461, -0.01941, 0.89072,
 15:48:42.354,c2:22:89:2b:7b:c3, 2015-01-01 01:03:42.120, 0.025, -0.032, 1.003, 0, 0, 0, -1.736, -1.478, 126.002, 57.820, -41.846, -13.132, 22.22, 0.45401, 0.00461, -0.01941, 0.89072,
 15:48:42.354,c2:22:89:2b:7b:c3, 2015-01-01 01:03:42.120, 0.025, -0.03, 1.003, 0, 0, 0, -1.736, -1.478, 126.002, 57.820, -41.846, -13.132, 22.22, 0.45401, 0.00461, -0.01941, 0.89072,
 15:48:42.384,c2:22:89:2b:7b:c3, 2015-01-01 01:03:42.120, 0.023, -0.031, 1.004, 0, 0, 0, -1.736, -1.478, 126.002, 57.820, -41.846, -13.132, 22.22, 0.45401, 0.00461, -0.01938, 0.89072,
 15:48:42.384,c2:22:89:2b:7b:c3, 2015-01-01 01:03:42.120, 0.025, -0.03, 1, 0, 0, 0, -1.736, -1.478, 126.002, 57.820, -41.846, -13.132, 22.22, 0.45401, 0.00461, -0.01938, 0.89072,
 15:48:42.384,c2:22:89:2b:7b:c3, 2015-01-01 01:03:42.120, 0.027, -0.032, 1, 0, 0, 0, -1.736, -1.478, 126.002, 57.820, -41.846, -13.132, 22.22, 0.45401, 0.00461, -0.01938, 0.89072,
 15:48:42.384,c2:22:89:2b:7b:c3, 2015-01-01 01:03:42.120, 0.023, -0.029, 1.002, 0, 0, 0, -1.736, -1.478, 126.002, 57.820, -41.846, -13.132, 22.22, 0.45401, 0.00461, -0.01938, 0.89072,
 15:48:42.413,c2:22:89:2b:7b:c3, 2015-01-01 01:03:42.120, 0.025, -0.03, 1.003, 0, 0, 0, -1.736, -1.478, 126.002, 57.820, -41.846, -13.132, 22.22, 0.45401, 0.00461, -0.01938, 0.89072,
 15:48:42.413,c2:22:89:2b:7b:c3, 2015-01-01 01:03:42.120, 0.027, -0.028, 1.001, 0, 0, 0, -1.736, -1.478, 126.002, 57.820, -41.846, -13.132, 22.22, 0.45401, 0.00461, -0.01938, 0.89072,
 15:48:42.413,c2:22:89:2b:7b:c3, 2015-01-01 01:03:42.120, 0.026, -0.031, 1.002, 0, 0, 0, -1.736, -1.478, 126.002, 57.820, -41.846, -13.132, 22.22, 0.45401, 0.00461, -0.01938, 0.89072,
 15:48:42.413,c2:22:89:2b:7b:c3, 2015-01-01 01:03:42.120, 0.025, -0.032, 1.002, 0, 0, 0, -1.736, -1.478, 126.002, 57.820, -41.846, -13.132, 22.22, 0.45401, 0.00461, -0.01938, 0.89072,
 15:48:42.473,c2:22:89:2b:7b:c3, 2015-01-01 01:03:42.505, 0.025, -0.029, 1.002, 0, 0, 0, -1.736, -1.478, 126.002, 57.820, -41.846, -13.132, 22.22, 0.45401, 0.00461, -0.01938, 0.89072,
 15:48:42.473,c2:22:89:2b:7b:c3, 2015-01-01 01:03:42.505, 0.029, -0.032, 1.001, 0, 0, 0, -1.736, -1.478, 126.002, 57.820, -41.846, -13.132, 22.22, 0.45401, 0.00461, -0.01938, 0.89072,
 15:48:42.473,c2:22:89:2b:7b:c3, 2015-01-01 01:03:42.505, 0.026, -0.031, 1.002, 0, 0, 0, -1.736, -1.478, 126.002, 57.820, -41.846, -13.132, 22.22, 0.45401, 0.00461, -0.01938, 0.89072,
 15:48:42.473,c2:22:89:2b:7b:c3, 2015-01-01 01:03:42.505, 0.026, -0.03, 1.001, 0, 0, 0, -1.736, -1.478, 126.002, 57.820, -41.846, -13.132, 22.22, 0.45401, 0.00461, -0.01938, 0.89072,
 15:48:42.502,c2:22:89:2b:7b:c3, 2015-01-01 01:03:42.505, 0.028, -0.029, 1.002, 0, 0, 0, -1.736, -1.478, 126.002, 57.820, -41.846, -13.132, 22.22, 0.45401, 0.00461, -0.01938, 0.89072,
 15:48:42.502,c2:22:89:2b:7b:c3, 2015-01-01 01:03:42.505, 0.024, -0.032, 1.002, 0, 0, 0, -1.736, -1.478, 126.002, 57.820, -41.846, -13.132, 22.22, 0.45401, 0.00461, -0.01938, 0.89072,
 15:48:42.502,c2:22:89:2b:7b:c3, 2015-01-01 01:03:42.505, 0.024, -0.029, 1.004, 0, 0, 0, -1.736, -1.478, 126.002, 57.820, -41.846, -13.132, 22.22, 0.45401, 0.00461, -0.01938, 0.89072,
 15:48:42.502,c2:22:89:2b:7b:c3, 2015-01-01 01:03:42.505, 0.025, -0.03, 1.003, 0, 0, 0, -1.736, -1.478, 126.002, 57.820, -41.846, -13.132, 22.22, 0.45401, 0.00461, -0.01938, 0.89072,
 15:48:42.534,c2:22:89:2b:7b:c3, 2015-01-01 01:03:42.505, 0.026, -0.031, 1.003, 0, 0, 0, -1.736, -1.478, 126.002, 57.820, -41.846, -13.132, 22.22, 0.45401, 0.00461, -0.01938, 0.89072,
 15:48:42.534,c2:22:89:2b:7b:c3, 2015-01-01 01:03:42.505, 0.025, -0.03, 1.004, 0, 0, 0, -1.736, -1.478, 126.002, 57.820, -41.846, -13.132, 22.22, 0.45401, 0.00461, -0.01938, 0.89072,
 15:48:42.534,c2:22:89:2b:7b:c3, 2015-01-01 01:03:42.505, 0.024, -0.029, 1.002, 0, 0, 0, -1.736, -1.478, 126.002, 57.820, -41.846, -13.132, 22.22, 0.45401, 0.00461, -0.01938, 0.89072,
 15:48:42.534,c2:22:89:2b:7b:c3, 2015-01-01 01:03:42.505, 0.027, -0.026, 1.001, 0, 0, 0, -1.736, -1.478, 126.002, 57.820, -41.846, -13.132, 22.22, 0.45401, 0.00461, -0.01938, 0.89072,
 15:48:42.594,c2:22:89:2b:7b:c3, 2015-01-01 01:03:42.505, 0.025, -0.031, 1.003, 0, 0, 0, -1.736, -1.478, 126.002, 57.820, -41.846, -13.132, 22.22, 0.45401, 0.00461, -0.01938, 0.89072,
 15:48:42.594,c2:22:89:2b:7b:c3, 2015-01-01 01:03:42.505, 0.025, -0.028, 1.001, 0, 0, 0, -1.736, -1.478, 126.002, 57.820, -41.846, -13.132, 22.22, 0.45401, 0.00461, -0.01938, 0.89072,
 15:48:42.594,c2:22:89:2b:7b:c3, 2015-01-01 01:03:42.505, 0.022, -0.03, 1, 0, 0, 0, -1.736, -1.478, 126.002, 57.820, -41.846, -13.132, 22.22, 0.45401, 0.00461, -0.01938, 0.89072,
 15:48:42.594,c2:22:89:2b:7b:c3, 2015-01-01 01:03:42.505, 0.027, -0.029, 1.003, 0, 0, 0, -1.736, -1.478, 126.002, 57.820, -41.846, -13.132, 22.22, 0.45401, 0.00461, -0.01938, 0.89072,
 15:48:42.624,c2:22:89:2b:7b:c3, 2015-01-01 01:03:42.505, 0.024, -0.031, 1.003, 0, 0, 0, -1.736, -1.478, 126.002, 57.820, -41.846, -13.132, 22.22, 0.45401, 0.00461, -0.01938, 0.89072,
 15:48:42.624,c2:22:89:2b:7b:c3, 2015-01-01 01:03:42.505, 0.026, -0.026, 1.002, 0, 0, 0, -1.736, -1.478, 126.002, 57.820, -41.846, -13.132, 22.22, 0.45401, 0.00461, -0.01938, 0.89072,
 15:48:42.624,c2:22:89:2b:7b:c3, 2015-01-01 01:03:42.505, 0.027, -0.029, 1.003, 0, 0, 0, -1.736, -1.478, 126.002, 57.820, -41.846, -13.132, 22.22, 0.45401, 0.00461, -0.01938, 0.89072,
 15:48:42.624,c2:22:89:2b:7b:c3, 2015-01-01 01:03:42.505, 0.023, -0.033, 1.001, 0, 0, 0, -1.736, -1.478, 126.002, 57.820, -41.846, -13.132, 22.22, 0.45401, 0.00461, -0.01938, 0.89072,
 15:48:42.653,c2:22:89:2b:7b:c3, 2015-01-01 01:03:42.505, 0.025, -0.028, 1.001, 0, 0, 0, -1.736, -1.478, 126.002, 57.820, -41.846, -13.230, 22.22, 0.45401, 0.00461, -0.01938, 0.89072,
 15:48:42.653,c2:22:89:2b:7b:c3, 2015-01-01 01:03:42.505, 0.026, -0.029, 1.001, 0, 0, 0, -1.736, -1.478, 126.002, 57.820, -41.846, -13.230, 22.22, 0.45401, 0.00461, -0.01938, 0.89072,
 15:48:42.653,c2:22:89:2b:7b:c3, 2015-01-01 01:03:42.505, 0.025, -0.032, 1.003, 0, 0, 0, -1.736, -1.478, 126.002, 57.820, -41.846, -13.230, 22.22, 0.45401, 0.00461, -0.01938, 0.89072,
 15:48:42.653,c2:22:89:2b:7b:c3, 2015-01-01 01:03:42.505, 0.025, -0.029, 1.003, 0, 0, 0, -1.736, -1.478, 126.002, 57.820, -41.846, -13.230, 22.22, 0.45401, 0.00461, -0.01938, 0.89072,
 15:48:42.713,c2:22:89:2b:7b:c3, 2015-01-01 01:03:42.505, 0.024, -0.029, 1.003, 0, 0, 0, -1.736, -1.478, 126.002, 57.820, -41.846, -13.230, 22.22, 0.45401, 0.00461, -0.01938, 0.89072,
 15:48:42.713,c2:22:89:2b:7b:c3, 2015-01-01 01:03:42.505, 0.027, -0.031, 1, 0, 0, 0, -1.736, -1.478, 126.002, 57.820, -41.846, -13.230, 22.22, 0.45401, 0.00461, -0.01938, 0.89072,
 15:48:42.713,c2:22:89:2b:7b:c3, 2015-01-01 01:03:42.505, 0.023, -0.03, 1.003, 0, 0, 0, -1.736, -1.478, 126.002, 57.820, -41.846, -13.230, 22.22, 0.45401, 0.00461, -0.01938, 0.89072,
 15:48:42.713,c2:22:89:2b:7b:c3, 2015-01-01 01:03:42.505, 0.023, -0.031, 1.001, 0, 0, 0, -1.736, -1.478, 126.002, 57.820, -41.846, -13.230, 22.22, 0.45401, 0.00461, -0.01938, 0.89072,
 15:48:42.743,c2:22:89:2b:7b:c3, 2015-01-01 01:03:42.505, 0.027, -0.029, 1.004, 0, 0, 0, -1.736, -1.478, 126.002, 57.820, -41.846, -13.230, 22.22, 0.45401, 0.00461, -0.01935, 0.89072,
 15:48:42.743,c2:22:89:2b:7b:c3, 2015-01-01 01:03:42.505, 0.026, -0.032, 1.002, 0, 0, 0, -1.736, -1.478, 126.002, 57.820, -41.846, -13.230, 22.22, 0.45401, 0.00461, -0.01935, 0.89072,
 15:48:42.743,c2:22:89:2b:7b:c3, 2015-01-01 01:03:42.505, 0.024, -0.029, 1.003, 0, 0, 0, -1.736, -1.478, 126.002, 57.820, -41.846, -13.230, 22.22, 0.45401, 0.00461, -0.01935, 0.89072,
 15:48:42.743,c2:22:89:2b:7b:c3, 2015-01-01 01:03:42.505, 0.026, -0.03, 1.004, 0, 0, 0, -1.736, -1.478, 126.002, 57.820, -41.846, -13.230, 22.22, 0.45401, 0.00461, -0.01935, 0.89072,
 15:48:42.773,c2:22:89:2b:7b:c3, 2015-01-01 01:03:42.505, 0.026, -0.031, 1.002, 0, 0, 0, -1.736, -1.478, 126.002, 57.820, -41.846, -13.230, 22.22, 0.45401, 0.00461, -0.01935, 0.89072,
 15:48:42.773,c2:22:89:2b:7b:c3, 2015-01-01 01:03:42.505, 0.024, -0.032, 1.001, 0, 0, 0, -1.736, -1.478, 126.002, 57.820, -41.846, -13.230, 22.22, 0.45401, 0.00461, -0.01935, 0.89072,
 15:48:42.773,c2:22:89:2b:7b:c3, 2015-01-01 01:03:42.505, 0.025, -0.029, 1.005, 0, 0, 0, -1.736, -1.478, 126.002, 57.820, -41.846, -13.230, 22.22, 0.45401, 0.00461, -0.01935, 0.89072,
 15:48:42.773,c2:22:89:2b:7b:c3, 2015-01-01 01:03:42.505, 0.027, -0.032, 1.001, 0, 0, 0, -1.736, -1.478, 126.002, 57.820, -41.846, -13.230, 22.22, 0.45401, 0.00461, -0.01935, 0.89072,
 15:48:42.834,c2:22:89:2b:7b:c3, 2015-01-01 01:03:42.865, 0.026, -0.03, 1, 0, 0, 0, -1.736, -1.478, 126.002, 57.820, -41.846, -13.230, 22.22, 0.45401, 0.00461, -0.01935, 0.89072,
 15:48:42.834,c2:22:89:2b:7b:c3, 2015-01-01 01:03:42.865, 0.024, -0.029, 1.001, 0, 0, 0, -1.736, -1.478, 126.002, 57.820, -41.846, -13.230, 22.22, 0.45401, 0.00461, -0.01935, 0.89072,
 15:48:42.834,c2:22:89:2b:7b:c3, 2015-01-01 01:03:42.865, 0.025, -0.031, 1.003, 0, 0, 0, -1.736, -1.478, 126.002, 57.820, -41.846, -13.230, 22.22, 0.45401, 0.00461, -0.01935, 0.89072,
 15:48:42.834,c2:22:89:2b:7b:c3, 2015-01-01 01:03:42.865, 0.026, -0.035, 1.001, 0, 0, 0, -1.736, -1.478, 126.002, 57.820, -41.846, -13.230, 22.22, 0.45401, 0.00461, -0.01935, 0.89072,
 15:48:42.864,c2:22:89:2b:7b:c3, 2015-01-01 01:03:42.865, 0.025, -0.03, 1.002, 0, 0, 0, -1.736, -1.478, 126.002, 57.820, -41.846, -13.230, 22.22, 0.45401, 0.00461, -0.01935, 0.89072,
 15:48:42.864,c2:22:89:2b:7b:c3, 2015-01-01 01:03:42.865, 0.027, -0.03, 1.002, 0, 0, 0, -1.736, -1.478, 126.002, 57.820, -41.846, -13.230, 22.22, 0.45401, 0.00461, -0.01935, 0.89072,
 15:48:42.864,c2:22:89:2b:7b:c3, 2015-01-01 01:03:42.865, 0.025, -0.033, 1.004, 0, 0, 0, -1.736, -1.472, 126.002, 57.820, -41.846, -13.230, 22.22, 0.45401, 0.00461, -0.01935, 0.89072,
 15:48:42.864,c2:22:89:2b:7b:c3, 2015-01-01 01:03:42.865, 0.024, -0.031, 1.002, 0, 0, 0, -1.736, -1.472, 126.002, 57.820, -41.846, -13.230, 22.22, 0.45401, 0.00461, -0.01935, 0.89072,
 15:48:42.893,c2:22:89:2b:7b:c3, 2015-01-01 01:03:42.865, 0.026, -0.03, 1.002, 0, 0, 0, -1.736, -1.472, 126.002, 57.820, -41.846, -13.230, 22.22, 0.45401, 0.00461, -0.01935, 0.89072,
 15:48:42.893,c2:22:89:2b:7b:c3, 2015-01-01 01:03:42.865, 0.027, -0.031, 1.004, 0, 0, 0, -1.736, -1.472, 126.002, 57.820, -41.846, -13.230, 22.22, 0.45401, 0.00461, -0.01935, 0.89072,
 15:48:42.893,c2:22:89:2b:7b:c3, 2015-01-01 01:03:42.865, 0.026, -0.031, 1, 0, 0, 0, -1.736, -1.472, 126.002, 57.820, -41.846, -13.230, 22.22, 0.45401, 0.00461, -0.01935, 0.89072,
 15:48:42.893,c2:22:89:2b:7b:c3, 2015-01-01 01:03:42.865, 0.024, -0.029, 1.002, 0, 0, 0, -1.736, -1.472, 126.002, 57.820, -41.846, -13.230, 22.22, 0.45401, 0.00461, -0.01935, 0.89072,
 15:48:42.952,c2:22:89:2b:7b:c3, 2015-01-01 01:03:42.865, 0.028, -0.031, 1.004, 0, 0, 0, -1.736, -1.472, 126.002, 57.820, -41.846, -13.230, 22.22, 0.45401, 0.00461, -0.01935, 0.89072,
 15:48:42.952,c2:22:89:2b:7b:c3, 2015-01-01 01:03:42.865, 0.027, -0.031, 1.004, 0, 0, 0, -1.736, -1.472, 126.002, 57.820, -41.846, -13.230, 22.22, 0.45401, 0.00461, -0.01935, 0.89072,
 15:48:42.952,c2:22:89:2b:7b:c3, 2015-01-01 01:03:42.865, 0.024, -0.033, 1.003, 0, 0, 0, -1.736, -1.472, 126.002, 57.820, -41.846, -13.230, 22.22, 0.45401, 0.00461, -0.01935, 0.89072,
 15:48:42.952,c2:22:89:2b:7b:c3, 2015-01-01 01:03:42.865, 0.026, -0.03, 1.003, 0, 0, 0, -1.736, -1.478, 126.002, 57.820, -41.846, -13.230, 22.22, 0.45401, 0.00461, -0.01935, 0.89072,
 15:48:42.984,c2:22:89:2b:7b:c3, 2015-01-01 01:03:42.865, 0.027, -0.031, 1.004, 0, 0, 0, -1.736, -1.478, 126.002, 57.820, -41.846, -13.230, 22.22, 0.45401, 0.00461, -0.01935, 0.89072,
 15:48:42.984,c2:22:89:2b:7b:c3, 2015-01-01 01:03:42.865, 0.023, -0.032, 1.003, 0, 0, 0, -1.736, -1.478, 126.002, 57.820, -41.846, -13.230, 22.22, 0.45401, 0.00461, -0.01935, 0.89072,
 15:48:42.984,c2:22:89:2b:7b:c3, 2015-01-01 01:03:42.865, 0.024, -0.03, 1.004, 0, 0, 0, -1.736, -1.478, 126.002, 57.820, -41.846, -13.230, 22.22, 0.45401, 0.00461, -0.01935, 0.89072,
 15:48:42.984,c2:22:89:2b:7b:c3, 2015-01-01 01:03:42.865, 0.025, -0.029, 1.002, 0, 0, 0, -1.736, -1.478, 126.002, 57.820, -41.846, -13.230, 22.22, 0.45401, 0.00461, -0.01935, 0.89072,
 15:48:43.013,c2:22:89:2b:7b:c3, 2015-01-01 01:03:42.865, 0.026, -0.031, 1.003, 0, 0, 0, -1.736, -1.478, 126.002, 57.918, -41.846, -13.132, 22.22, 0.45401, 0.00461, -0.01935, 0.89072,
 15:48:43.013,c2:22:89:2b:7b:c3, 2015-01-01 01:03:42.865, 0.026, -0.028, 1.003, 0, 0, 0, -1.736, -1.478, 126.002, 57.918, -41.846, -13.132, 22.22, 0.45401, 0.00461, -0.01935, 0.89072,
 15:48:43.013,c2:22:89:2b:7b:c3, 2015-01-01 01:03:42.865, 0.026, -0.03, 1.002, 0, 0, 0, -1.736, -1.478, 126.002, 57.918, -41.846, -13.132, 22.22, 0.45401, 0.00461, -0.01935, 0.89072,
 15:48:43.013,c2:22:89:2b:7b:c3, 2015-01-01 01:03:42.865, 0.027, -0.031, 1.002, 0, 0, 0, -1.736, -1.478, 126.002, 57.918, -41.846, -13.132, 22.22, 0.45401, 0.00461, -0.01935, 0.89072,
 15:48:43.105,c2:22:89:2b:7b:c3, 2015-01-01 01:03:42.865, 0.026, -0.031, 1.001, 0, 0, 0, -1.736, -1.478, 126.002, 57.918, -41.846, -13.132, 22.22, 0.45401, 0.00461, -0.01935, 0.89072,
 15:48:43.105,c2:22:89:2b:7b:c3, 2015-01-01 01:03:42.865, 0.025, -0.03, 1.004, 0, 0, 0, -1.736, -1.478, 126.002, 57.918, -41.846, -13.132, 22.22, 0.45401, 0.00461, -0.01935, 0.89072,
 15:48:43.105,c2:22:89:2b:7b:c3, 2015-01-01 01:03:42.865, 0.026, -0.03, 1, 0, 0, 0, -1.736, -1.478, 126.002, 57.918, -41.846, -13.132, 22.22, 0.45401, 0.00461, -0.01935, 0.89072,
 15:48:43.105,c2:22:89:2b:7b:c3, 2015-01-01 01:03:42.865, 0.024, -0.028, 1.002, 0, 0, 0, -1.736, -1.478, 126.002, 57.918, -41.846, -13.132, 22.22, 0.45401, 0.00461, -0.01935, 0.89072,
 15:48:43.105,c2:22:89:2b:7b:c3, 2015-01-01 01:03:42.865, 0.028, -0.03, 1.005, 0, 0, 0, -1.736, -1.478, 126.002, 57.918, -41.846, -13.132, 22.22, 0.45401, 0.00461, -0.01935, 0.89072,
 15:48:43.105,c2:22:89:2b:7b:c3, 2015-01-01 01:03:42.865, 0.028, -0.029, 1.001, 0, 0, 0, -1.736, -1.478, 126.002, 57.918, -41.846, -13.132, 22.22, 0.45401, 0.00461, -0.01935, 0.89072,
 15:48:43.105,c2:22:89:2b:7b:c3, 2015-01-01 01:03:42.865, 0.023, -0.032, 1.002, 0, 0, 0, -1.736, -1.478, 126.002, 57.918, -41.846, -13.132, 22.22, 0.45401, 0.00461, -0.01935, 0.89072,
 15:48:43.105,c2:22:89:2b:7b:c3, 2015-01-01 01:03:42.865, 0.029, -0.028, 1.002, 0, 0, 0, -1.736, -1.478, 126.002, 57.918, -41.846, -13.132, 22.22, 0.45401, 0.00461, -0.01935, 0.89072,
 15:48:43.132,c2:22:89:2b:7b:c3, 2015-01-01 01:03:42.865, 0.027, -0.03, 1.001, 0, 0, 0, -1.736, -1.478, 126.002, 57.918, -41.846, -13.132, 22.22, 0.45401, 0.00458, -0.01938, 0.89072,
 15:48:43.132,c2:22:89:2b:7b:c3, 2015-01-01 01:03:42.865, 0.025, -0.034, 1.003, 0, 0, 0, -1.736, -1.478, 126.002, 57.918, -41.846, -13.132, 22.22, 0.45401, 0.00458, -0.01938, 0.89072,
 15:48:43.132,c2:22:89:2b:7b:c3, 2015-01-01 01:03:42.865, 0.025, -0.029, 1.002, 0, 0, 0, -1.736, -1.478, 126.002, 57.918, -41.846, -13.132, 22.22, 0.45401, 0.00458, -0.01938, 0.89072,
 15:48:43.132,c2:22:89:2b:7b:c3, 2015-01-01 01:03:42.865, 0.026, -0.029, 1.001, 0, 0, 0, -1.736, -1.478, 126.002, 57.918, -41.846, -13.132, 22.22, 0.45401, 0.00458, -0.01938, 0.89072,
 15:48:43.194,c2:22:89:2b:7b:c3, 2015-01-01 01:03:42.865, 0.025, -0.034, 1.001, 0, 0, 0, -1.736, -1.478, 126.002, 57.918, -41.846, -13.132, 22.22, 0.45401, 0.00458, -0.01938, 0.89072,
 15:48:43.194,c2:22:89:2b:7b:c3, 2015-01-01 01:03:42.865, 0.026, -0.029, 1.002, 0, 0, 0, -1.741, -1.478, 126.002, 57.918, -41.846, -13.132, 22.22, 0.45401, 0.00458, -0.01938, 0.89072,
 15:48:43.194,c2:22:89:2b:7b:c3, 2015-01-01 01:03:42.865, 0.026, -0.028, 1, 0, 0, 0, -1.741, -1.478, 126.002, 57.918, -41.846, -13.132, 22.22, 0.45401, 0.00458, -0.01938, 0.89072,
 15:48:43.194,c2:22:89:2b:7b:c3, 2015-01-01 01:03:42.865, 0.027, -0.03, 1.003, 0, 0, 0, -1.741, -1.478, 126.002, 57.918, -41.846, -13.132, 22.22, 0.45401, 0.00458, -0.01938, 0.89072,
 15:48:43.223,c2:22:89:2b:7b:c3, 2015-01-01 01:03:43.250, 0.022, -0.032, 1.003, 0, 0, 0, -1.741, -1.478, 126.002, 57.918, -41.846, -13.132, 22.22, 0.45401, 0.00458, -0.01938, 0.89072,
 15:48:43.223,c2:22:89:2b:7b:c3, 2015-01-01 01:03:43.250, 0.023, -0.029, 1.005, 0, 0, 0, -1.741, -1.478, 126.002, 57.918, -41.846, -13.132, 22.22, 0.45401, 0.00458, -0.01938, 0.89072,
 15:48:43.223,c2:22:89:2b:7b:c3, 2015-01-01 01:03:43.250, 0.027, -0.031, 1.003, 0, 0, 0, -1.741, -1.478, 126.002, 57.918, -41.846, -13.132, 22.22, 0.45401, 0.00458, -0.01938, 0.89072,
 15:48:43.223,c2:22:89:2b:7b:c3, 2015-01-01 01:03:43.250, 0.028, -0.033, 1.001, 0, 0, 0, -1.741, -1.478, 126.002, 57.918, -41.846, -13.132, 22.22, 0.45401, 0.00458, -0.01938, 0.89072,
 15:48:43.252,c2:22:89:2b:7b:c3, 2015-01-01 01:03:43.250, 0.026, -0.032, 1.002, 0, 0, 0, -1.741, -1.478, 126.002, 57.918, -41.846, -13.132, 22.22, 0.45401, 0.00458, -0.01938, 0.89072,
 15:48:43.252,c2:22:89:2b:7b:c3, 2015-01-01 01:03:43.250, 0.028, -0.03, 1, 0, 0, 0, -1.741, -1.478, 126.002, 57.918, -41.846, -13.132, 22.22, 0.45401, 0.00458, -0.01938, 0.89072,
 15:48:43.252,c2:22:89:2b:7b:c3, 2015-01-01 01:03:43.250, 0.026, -0.032, 1.001, 0, 0, 0, -1.741, -1.478, 126.002, 57.918, -41.846, -13.132, 22.22, 0.45401, 0.00458, -0.01938, 0.89072,
 15:48:43.252,c2:22:89:2b:7b:c3, 2015-01-01 01:03:43.250, 0.023, -0.034, 1.002, 0, 0, 0, -1.741, -1.478, 126.002, 57.918, -41.846, -13.132, 22.22, 0.45401, 0.00458, -0.01938, 0.89072,
 15:48:43.313,c2:22:89:2b:7b:c3, 2015-01-01 01:03:43.250, 0.026, -0.028, 1.004, 0, 0, 0, -1.741, -1.478, 126.002, 57.918, -41.846, -13.132, 22.22, 0.45401, 0.00458, -0.01938, 0.89072,
 15:48:43.313,c2:22:89:2b:7b:c3, 2015-01-01 01:03:43.250, 0.026, -0.031, 1.002, 0, 0, 0, -1.741, -1.478, 126.002, 57.918, -41.846, -13.132, 22.22, 0.45401, 0.00458, -0.01938, 0.89072,
 15:48:43.313,c2:22:89:2b:7b:c3, 2015-01-01 01:03:43.250, 0.026, -0.032, 1.001, 0, 0, 0, -1.741, -1.478, 126.002, 57.918, -41.846, -13.132, 22.22, 0.45401, 0.00458, -0.01938, 0.89072,
 15:48:43.313,c2:22:89:2b:7b:c3, 2015-01-01 01:03:43.250, 0.026, -0.03, 1.004, 0, 0, 0, -1.741, -1.478, 126.002, 57.918, -41.846, -13.132, 22.22, 0.45401, 0.00458, -0.01938, 0.89072,
 15:48:43.343,c2:22:89:2b:7b:c3, 2015-01-01 01:03:43.250, 0.026, -0.029, 1.003, 0, 0, 0, -1.741, -1.478, 126.002, 57.918, -41.846, -13.132, 22.22, 0.45401, 0.00458, -0.01938, 0.89072,
 15:48:43.343,c2:22:89:2b:7b:c3, 2015-01-01 01:03:43.250, 0.025, -0.031, 1.002, 0, 0, 0, -1.741, -1.478, 126.002, 57.918, -41.846, -13.132, 22.22, 0.45401, 0.00458, -0.01938, 0.89072,
 15:48:43.343,c2:22:89:2b:7b:c3, 2015-01-01 01:03:43.250, 0.027, -0.029, 1.002, 0, 0, 0, -1.741, -1.478, 126.002, 57.918, -41.846, -13.132, 22.22, 0.45401, 0.00458, -0.01938, 0.89072,
 15:48:43.343,c2:22:89:2b:7b:c3, 2015-01-01 01:03:43.250, 0.026, -0.03, 1.002, 0, 0, 0, -1.741, -1.478, 126.002, 57.918, -41.846, -13.132, 22.22, 0.45401, 0.00458, -0.01938, 0.89072,
 15:48:43.373,c2:22:89:2b:7b:c3, 2015-01-01 01:03:43.250, 0.025, -0.029, 1.002, 0, 0, 0, -1.741, -1.478, 126.002, 57.918, -41.846, -13.132, 22.22, 0.45401, 0.00458, -0.01938, 0.89072,
 15:48:43.373,c2:22:89:2b:7b:c3, 2015-01-01 01:03:43.250, 0.026, -0.031, 1.003, 0, 0, 0, -1.741, -1.478, 126.002, 57.918, -41.846, -13.132, 22.22, 0.45401, 0.00458, -0.01938, 0.89072,
 15:48:43.373,c2:22:89:2b:7b:c3, 2015-01-01 01:03:43.250, 0.027, -0.03, 1.001, 0, 0, 0, -1.741, -1.478, 126.002, 57.918, -41.846, -13.132, 22.22, 0.45401, 0.00458, -0.01938, 0.89072,
 15:48:43.373,c2:22:89:2b:7b:c3, 2015-01-01 01:03:43.250, 0.027, -0.03, 1.002, 0, 0, 0, -1.741, -1.478, 126.002, 57.918, -41.846, -13.132, 22.22, 0.45401, 0.00458, -0.01938, 0.89072,
 15:48:43.435,c2:22:89:2b:7b:c3, 2015-01-01 01:03:43.250, 0.025, -0.031, 1.001, 0, 0, 0, -1.741, -1.478, 126.002, 57.918, -41.846, -13.132, 22.22, 0.45401, 0.00458, -0.01938, 0.89072,
 15:48:43.435,c2:22:89:2b:7b:c3, 2015-01-01 01:03:43.250, 0.024, -0.026, 1.002, 0, 0, 0, -1.741, -1.478, 126.002, 57.918, -41.846, -13.132, 22.22, 0.45401, 0.00458, -0.01938, 0.89072,
 15:48:43.435,c2:22:89:2b:7b:c3, 2015-01-01 01:03:43.250, 0.026, -0.03, 1.002, 0, 0, 0, -1.741, -1.478, 126.002, 57.918, -41.846, -13.132, 22.22, 0.45401, 0.00458, -0.01938, 0.89072,
 15:48:43.435,c2:22:89:2b:7b:c3, 2015-01-01 01:03:43.250, 0.025, -0.032, 1.003, 0, 0, 0, -1.741, -1.478, 126.002, 57.918, -41.846, -13.132, 22.22, 0.45401, 0.00458, -0.01938, 0.89072,
 15:48:43.464,c2:22:89:2b:7b:c3, 2015-01-01 01:03:43.250, 0.026, -0.03, 1.001, 0, 0, 0, -1.741, -1.478, 126.002, 57.820, -41.944, -13.230, 22.22, 0.45401, 0.00458, -0.01938, 0.89072,
 15:48:43.464,c2:22:89:2b:7b:c3, 2015-01-01 01:03:43.250, 0.027, -0.029, 1.001, 0, 0, 0, -1.741, -1.478, 126.002, 57.820, -41.944, -13.230, 22.22, 0.45401, 0.00458, -0.01938, 0.89072,
 15:48:43.464,c2:22:89:2b:7b:c3, 2015-01-01 01:03:43.250, 0.026, -0.031, 1.002, 0, 0, 0, -1.741, -1.478, 126.002, 57.820, -41.944, -13.230, 22.22, 0.45401, 0.00458, -0.01938, 0.89072,
 15:48:43.464,c2:22:89:2b:7b:c3, 2015-01-01 01:03:43.250, 0.023, -0.031, 1.002, 0, 0, 0, -1.741, -1.478, 126.002, 57.820, -41.944, -13.230, 22.22, 0.45401, 0.00458, -0.01938, 0.89072,
 15:48:43.495,c2:22:89:2b:7b:c3, 2015-01-01 01:03:43.250, 0.025, -0.029, 1.004, 0, 0, 0, -1.741, -1.478, 126.002, 57.820, -41.944, -13.230, 22.22, 0.45401, 0.00458, -0.01938, 0.89072,
 15:48:43.495,c2:22:89:2b:7b:c3, 2015-01-01 01:03:43.250, 0.027, -0.029, 1.003, 0, 0, 0, -1.741, -1.478, 126.002, 57.820, -41.944, -13.230, 22.22, 0.45401, 0.00458, -0.01938, 0.89072,
 15:48:43.495,c2:22:89:2b:7b:c3, 2015-01-01 01:03:43.250, 0.026, -0.029, 1.001, 0, 0, 0, -1.741, -1.478, 126.002, 57.820, -41.944, -13.230, 22.22, 0.45401, 0.00458, -0.01938, 0.89072,
 15:48:43.495,c2:22:89:2b:7b:c3, 2015-01-01 01:03:43.250, 0.026, -0.031, 1.003, 0, 0, 0, -1.741, -1.478, 126.002, 57.820, -41.944, -13.230, 22.22, 0.45401, 0.00458, -0.01938, 0.89072,
 15:48:43.553,c2:22:89:2b:7b:c3, 2015-01-01 01:03:43.250, 0.025, -0.028, 1.005, 0, 0, 0, -1.741, -1.478, 126.002, 57.820, -41.944, -13.230, 22.22, 0.45401, 0.00461, -0.01938, 0.89072,
 15:48:43.553,c2:22:89:2b:7b:c3, 2015-01-01 01:03:43.250, 0.026, -0.031, 1.002, 0, 0, 0, -1.741, -1.478, 126.002, 57.820, -41.944, -13.230, 22.22, 0.45401, 0.00461, -0.01938, 0.89072,
 15:48:43.553,c2:22:89:2b:7b:c3, 2015-01-01 01:03:43.250, 0.023, -0.03, 1.003, 0, 0, 0, -1.741, -1.478, 126.002, 57.820, -41.944, -13.230, 22.22, 0.45401, 0.00461, -0.01938, 0.89072,
 15:48:43.553,c2:22:89:2b:7b:c3, 2015-01-01 01:03:43.250, 0.025, -0.032, 1.002, 0, 0, 0, -1.741, -1.478, 126.002, 57.820, -41.944, -13.230, 22.22, 0.45401, 0.00461, -0.01938, 0.89072,
 15:48:43.584,c2:22:89:2b:7b:c3, 2015-01-01 01:03:43.640, 0.028, -0.034, 1.003, 0, 0, 0, -1.741, -1.478, 126.002, 57.820, -41.944, -13.230, 22.22, 0.45401, 0.00461, -0.01938, 0.89072,
 15:48:43.584,c2:22:89:2b:7b:c3, 2015-01-01 01:03:43.640, 0.023, -0.031, 1, 0, 0, 0, -1.741, -1.478, 126.002, 57.820, -41.944, -13.230, 22.22, 0.45401, 0.00461, -0.01938, 0.89072,
 15:48:43.584,c2:22:89:2b:7b:c3, 2015-01-01 01:03:43.640, 0.025, -0.028, 1.001, 0, 0, 0, -1.741, -1.478, 126.002, 57.820, -41.944, -13.230, 22.22, 0.45401, 0.00461, -0.01938, 0.89072,
 15:48:43.584,c2:22:89:2b:7b:c3, 2015-01-01 01:03:43.640, 0.025, -0.032, 1.002, 0, 0, 0, -1.741, -1.478, 126.002, 57.820, -41.944, -13.230, 22.22, 0.45401, 0.00461, -0.01938, 0.89072,
 15:48:43.643,c2:22:89:2b:7b:c3, 2015-01-01 01:03:43.640, 0.024, -0.029, 1.003, 0, 0, 0, -1.741, -1.478, 126.002, 57.820, -41.944, -13.230, 22.22, 0.45401, 0.00461, -0.01938, 0.89072,
 15:48:43.643,c2:22:89:2b:7b:c3, 2015-01-01 01:03:43.640, 0.024, -0.03, 1.003, 0, 0, 0, -1.741, -1.478, 126.002, 57.820, -41.944, -13.230, 22.22, 0.45401, 0.00461, -0.01938, 0.89072,
 15:48:43.643,c2:22:89:2b:7b:c3, 2015-01-01 01:03:43.640, 0.029, -0.03, 1.002, 0, 0, 0, -1.736, -1.478, 126.002, 57.820, -41.944, -13.230, 22.22, 0.45401, 0.00461, -0.01938, 0.89072,
 15:48:43.643,c2:22:89:2b:7b:c3, 2015-01-01 01:03:43.640, 0.027, -0.032, 1.003, 0, 0, 0, -1.736, -1.478, 126.002, 57.820, -41.944, -13.230, 22.22, 0.45401, 0.00461, -0.01938, 0.89072,
 15:48:43.733,c2:22:89:2b:7b:c3, 2015-01-01 01:03:43.640, 0.023, -0.028, 1.004, 0, 0, 0, -1.736, -1.478, 126.002, 57.820, -41.944, -13.230, 22.22, 0.45401, 0.00461, -0.01938, 0.89072,
 15:48:43.733,c2:22:89:2b:7b:c3, 2015-01-01 01:03:43.640, 0.028, -0.029, 1.001, 0, 0, 0, -1.736, -1.478, 126.002, 57.820, -41.944, -13.230, 22.22, 0.45401, 0.00461, -0.01938, 0.89072,
 15:48:43.733,c2:22:89:2b:7b:c3, 2015-01-01 01:03:43.640, 0.027, -0.034, 1.003, 0, 0, 0, -1.736, -1.478, 126.002, 57.820, -41.944, -13.230, 22.22, 0.45401, 0.00461, -0.01938, 0.89072,
 15:48:43.733,c2:22:89:2b:7b:c3, 2015-01-01 01:03:43.640, 0.025, -0.031, 1.002, 0, 0, 0, -1.736, -1.478, 126.002, 57.820, -41.944, -13.230, 22.22, 0.45401, 0.00461, -0.01938, 0.89072,
 15:48:43.735,c2:22:89:2b:7b:c3, 2015-01-01 01:03:43.640, 0.028, -0.029, 1.002, 0, 0, 0, -1.736, -1.478, 126.002, 57.820, -41.944, -13.230, 22.22, 0.45401, 0.00461, -0.01938, 0.89072,
 15:48:43.735,c2:22:89:2b:7b:c3, 2015-01-01 01:03:43.640, 0.028, -0.033, 1, 0, 0, 0, -1.736, -1.478, 126.002, 57.820, -41.944, -13.230, 22.22, 0.45401, 0.00461, -0.01938, 0.89072,
 15:48:43.735,c2:22:89:2b:7b:c3, 2015-01-01 01:03:43.640, 0.024, -0.029, 1.003, 0, 0, 0, -1.736, -1.478, 126.002, 57.820, -41.944, -13.230, 22.22, 0.45401, 0.00461, -0.01938, 0.89072,
 15:48:43.735,c2:22:89:2b:7b:c3, 2015-01-01 01:03:43.640, 0.025, -0.029, 1.001, 0, 0, 0, -1.736, -1.478, 126.002, 57.820, -41.944, -13.230, 22.22, 0.45401, 0.00461, -0.01938, 0.89072,
 15:48:43.764,c2:22:89:2b:7b:c3, 2015-01-01 01:03:43.640, 0.027, -0.028, 0.999, 0, 0, 0, -1.736, -1.478, 126.002, 57.820, -41.944, -13.230, 22.22, 0.45401, 0.00461, -0.01938, 0.89072,
 15:48:43.764,c2:22:89:2b:7b:c3, 2015-01-01 01:03:43.640, 0.025, -0.033, 1.001, 0, 0, 0, -1.736, -1.478, 126.002, 57.820, -41.944, -13.230, 22.22, 0.45401, 0.00461, -0.01938, 0.89072,
 15:48:43.764,c2:22:89:2b:7b:c3, 2015-01-01 01:03:43.640, 0.024, -0.032, 1.002, 0, 0, 0, -1.736, -1.478, 126.002, 57.820, -41.944, -13.230, 22.22, 0.45401, 0.00461, -0.01938, 0.89072,
 15:48:43.764,c2:22:89:2b:7b:c3, 2015-01-01 01:03:43.640, 0.027, -0.027, 1.001, 0, 0, 0, -1.736, -1.478, 126.002, 57.820, -41.944, -13.230, 22.22, 0.45401, 0.00461, -0.01938, 0.89072,
 15:48:43.794,c2:22:89:2b:7b:c3, 2015-01-01 01:03:43.640, 0.025, -0.032, 1.003, 0, 0, 0, -1.736, -1.478, 126.002, 57.820, -41.944, -13.132, 22.22, 0.45401, 0.00461, -0.01938, 0.89072,
 15:48:43.794,c2:22:89:2b:7b:c3, 2015-01-01 01:03:43.640, 0.024, -0.032, 1.002, 0, 0, 0, -1.736, -1.478, 126.002, 57.820, -41.944, -13.132, 22.22, 0.45401, 0.00461, -0.01938, 0.89072,
 15:48:43.794,c2:22:89:2b:7b:c3, 2015-01-01 01:03:43.640, 0.026, -0.029, 1.004, 0, 0, 0, -1.736, -1.478, 126.002, 57.820, -41.944, -13.132, 22.22, 0.45401, 0.00461, -0.01938, 0.89072,
 15:48:43.794,c2:22:89:2b:7b:c3, 2015-01-01 01:03:43.640, 0.028, -0.03, 1.001, 0, 0, 0, -1.736, -1.478, 126.002, 57.820, -41.944, -13.132, 22.22, 0.45401, 0.00461, -0.01938, 0.89072,
 15:48:43.823,c2:22:89:2b:7b:c3, 2015-01-01 01:03:43.640, 0.026, -0.032, 1.004, 0, 0, 0, -1.736, -1.478, 126.002, 57.820, -41.944, -13.132, 22.22, 0.45401, 0.00461, -0.01938, 0.89072,
 15:48:43.823,c2:22:89:2b:7b:c3, 2015-01-01 01:03:43.640, 0.027, -0.029, 1.002, 0, 0, 0, -1.736, -1.478, 126.002, 57.820, -41.944, -13.132, 22.22, 0.45401, 0.00461, -0.01938, 0.89072,
 15:48:43.823,c2:22:89:2b:7b:c3, 2015-01-01 01:03:43.640, 0.027, -0.032, 1.002, 0, 0, 0, -1.736, -1.478, 126.002, 57.820, -41.944, -13.132, 22.22, 0.45401, 0.00461, -0.01938, 0.89072,
 15:48:43.823,c2:22:89:2b:7b:c3, 2015-01-01 01:03:43.640, 0.026, -0.033, 1.004, 0, 0, 0, -1.736, -1.478, 126.002, 57.820, -41.944, -13.132, 22.22, 0.45401, 0.00461, -0.01938, 0.89072,
 15:48:43.883,c2:22:89:2b:7b:c3, 2015-01-01 01:03:43.640, 0.024, -0.029, 1.002, 0, 0, 0, -1.736, -1.478, 126.002, 57.820, -41.944, -13.132, 22.22, 0.45401, 0.00461, -0.01938, 0.89072,
 15:48:43.883,c2:22:89:2b:7b:c3, 2015-01-01 01:03:43.640, 0.029, -0.028, 1.001, 0, 0, 0, -1.736, -1.478, 126.002, 57.820, -41.944, -13.132, 22.22, 0.45401, 0.00461, -0.01938, 0.89072,
 15:48:43.883,c2:22:89:2b:7b:c3, 2015-01-01 01:03:43.640, 0.028, -0.029, 1, 0, 0, 0, -1.736, -1.478, 126.002, 57.820, -41.944, -13.132, 22.22, 0.45401, 0.00461, -0.01938, 0.89072,
 15:48:43.883,c2:22:89:2b:7b:c3, 2015-01-01 01:03:43.640, 0.027, -0.03, 1, 0, 0, 0, -1.736, -1.478, 126.002, 57.820, -41.944, -13.132, 22.22, 0.45401, 0.00461, -0.01938, 0.89072,
 15:48:43.944,c2:22:89:2b:7b:c3, 2015-01-01 01:03:43.965, 0.025, -0.03, 1.002, 0, 0, 0, -1.736, -1.478, 126.002, 57.820, -41.944, -13.132, 22.22, 0.45401, 0.00461, -0.01938, 0.89072,
 15:48:43.944,c2:22:89:2b:7b:c3, 2015-01-01 01:03:43.965, 0.028, -0.032, 1.003, 0, 0, 0, -1.736, -1.478, 126.002, 57.820, -41.944, -13.132, 22.22, 0.45401, 0.00461, -0.01938, 0.89072,
 15:48:43.944,c2:22:89:2b:7b:c3, 2015-01-01 01:03:43.965, 0.022, -0.029, 1.002, 0, 0, 0, -1.736, -1.478, 126.002, 57.820, -41.944, -13.132, 22.22, 0.45401, 0.00461, -0.01938, 0.89072,
 15:48:43.944,c2:22:89:2b:7b:c3, 2015-01-01 01:03:43.965, 0.025, -0.033, 1.001, 0, 0, 0, -1.736, -1.478, 126.002, 57.820, -41.944, -13.132, 22.22, 0.45401, 0.00461, -0.01938, 0.89072,
 15:48:43.944,c2:22:89:2b:7b:c3, 2015-01-01 01:03:43.965, 0.027, -0.029, 1.001, 0, 0, 0, -1.736, -1.478, 126.002, 57.820, -41.944, -13.132, 22.22, 0.45401, 0.00461, -0.01938, 0.89072,
 15:48:43.944,c2:22:89:2b:7b:c3, 2015-01-01 01:03:43.965, 0.026, -0.03, 1.002, 0, 0, 0, -1.736, -1.478, 126.002, 57.820, -41.944, -13.132, 22.22, 0.45401, 0.00461, -0.01938, 0.89072,
 15:48:43.944,c2:22:89:2b:7b:c3, 2015-01-01 01:03:43.965, 0.026, -0.028, 1.003, 0, 0, 0, -1.736, -1.478, 126.002, 57.820, -41.944, -13.132, 22.22, 0.45401, 0.00461, -0.01938, 0.89072,
 15:48:43.945,c2:22:89:2b:7b:c3, 2015-01-01 01:03:43.965, 0.027, -0.028, 1.002, 0, 0, 0, -1.736, -1.478, 126.002, 57.820, -41.944, -13.132, 22.22, 0.45401, 0.00461, -0.01938, 0.89072,
 15:48:44.003,c2:22:89:2b:7b:c3, 2015-01-01 01:03:43.965, 0.025, -0.032, 1.001, 0, 0, 0, -1.736, -1.478, 126.002, 57.820, -41.944, -13.132, 22.22, 0.45401, 0.00461, -0.01938, 0.89072,
 15:48:44.003,c2:22:89:2b:7b:c3, 2015-01-01 01:03:43.965, 0.025, -0.03, 1.003, 0, 0, 0, -1.736, -1.478, 126.002, 57.820, -41.944, -13.132, 22.22, 0.45401, 0.00461, -0.01938, 0.89072,
 15:48:44.003,c2:22:89:2b:7b:c3, 2015-01-01 01:03:43.965, 0.025, -0.03, 1.002, 0, 0, 0, -1.736, -1.478, 126.002, 57.820, -41.944, -13.132, 22.22, 0.45401, 0.00461, -0.01938, 0.89072,
 15:48:44.003,c2:22:89:2b:7b:c3, 2015-01-01 01:03:43.965, 0.027, -0.029, 1.003, 0, 0, 0, -1.736, -1.478, 126.002, 57.820, -41.944, -13.132, 22.22, 0.45401, 0.00461, -0.01938, 0.89072,
 15:48:44.063,c2:22:89:2b:7b:c3, 2015-01-01 01:03:43.965, 0.025, -0.032, 1.002, 0, 0, 0, -1.736, -1.478, 126.002, 57.820, -41.944, -13.132, 22.22, 0.45401, 0.00461, -0.01938, 0.89072,
 15:48:44.063,c2:22:89:2b:7b:c3, 2015-01-01 01:03:43.965, 0.023, -0.027, 1.003, 0, 0, 0, -1.736, -1.478, 126.002, 57.820, -41.944, -13.132, 22.22, 0.45401, 0.00461, -0.01938, 0.89072,
 15:48:44.063,c2:22:89:2b:7b:c3, 2015-01-01 01:03:43.965, 0.026, -0.032, 1.001, 0, 0, 0, -1.736, -1.478, 126.002, 57.820, -41.944, -13.132, 22.22, 0.45401, 0.00461, -0.01938, 0.89072,
 15:48:44.063,c2:22:89:2b:7b:c3, 2015-01-01 01:03:43.965, 0.023, -0.033, 1.002, 0, 0, 0, -1.736, -1.478, 126.002, 57.820, -41.944, -13.132, 22.22, 0.45401, 0.00461, -0.01938, 0.89072,
 15:48:44.063,c2:22:89:2b:7b:c3, 2015-01-01 01:03:43.965, 0.024, -0.029, 1.003, 0, 0, 0, -1.736, -1.478, 126.002, 57.820, -41.944, -13.132, 22.22, 0.45401, 0.00461, -0.01938, 0.89072,
 15:48:44.063,c2:22:89:2b:7b:c3, 2015-01-01 01:03:43.965, 0.026, -0.031, 1.003, 0, 0, 0, -1.736, -1.478, 126.002, 57.820, -41.944, -13.132, 22.22, 0.45401, 0.00461, -0.01938, 0.89072,
 15:48:44.063,c2:22:89:2b:7b:c3, 2015-01-01 01:03:43.965, 0.027, -0.033, 0.999, 0, 0, 0, -1.736, -1.478, 126.002, 57.820, -41.944, -13.132, 22.22, 0.45401, 0.00461, -0.01938, 0.89072,
 15:48:44.063,c2:22:89:2b:7b:c3, 2015-01-01 01:03:43.965, 0.028, -0.032, 1.002, 0, 0, 0, -1.736, -1.478, 126.002, 57.820, -41.944, -13.132, 22.22, 0.45401, 0.00461, -0.01938, 0.89072,
 15:48:44.123,c2:22:89:2b:7b:c3, 2015-01-01 01:03:43.965, 0.026, -0.03, 1.004, 0, 0, 0, -1.736, -1.478, 126.002, 57.820, -41.944, -13.132, 22.22, 0.45401, 0.00461, -0.01938, 0.89072,
 15:48:44.123,c2:22:89:2b:7b:c3, 2015-01-01 01:03:43.965, 0.027, -0.032, 1.002, 0, 0, 0, -1.736, -1.478, 126.002, 57.820, -41.944, -13.132, 22.22, 0.45401, 0.00461, -0.01938, 0.89072,
 15:48:44.123,c2:22:89:2b:7b:c3, 2015-01-01 01:03:43.965, 0.026, -0.032, 1.001, 0, 0, 0, -1.736, -1.478, 126.002, 57.820, -41.944, -13.132, 22.22, 0.45401, 0.00461, -0.01938, 0.89072,
 15:48:44.123,c2:22:89:2b:7b:c3, 2015-01-01 01:03:43.965, 0.023, -0.028, 1.004, 0, 0, 0, -1.736, -1.478, 126.002, 57.820, -41.944, -13.132, 22.22, 0.45401, 0.00461, -0.01938, 0.89072,
 15:48:44.184,c2:22:89:2b:7b:c3, 2015-01-01 01:03:43.965, 0.028, -0.03, 1.002, 0, 0, 0, -1.736, -1.478, 126.002, 57.918, -41.846, -13.034, 22.22, 0.45401, 0.00461, -0.01938, 0.89072,
 15:48:44.184,c2:22:89:2b:7b:c3, 2015-01-01 01:03:43.965, 0.026, -0.029, 1.001, 0, 0, 0, -1.736, -1.478, 126.002, 57.918, -41.846, -13.034, 22.22, 0.45401, 0.00461, -0.01938, 0.89072,
 15:48:44.184,c2:22:89:2b:7b:c3, 2015-01-01 01:03:43.965, 0.027, -0.03, 1.003, 0, 0, 0, -1.741, -1.478, 126.002, 57.918, -41.846, -13.034, 22.22, 0.45401, 0.00461, -0.01938, 0.89072,
 15:48:44.184,c2:22:89:2b:7b:c3, 2015-01-01 01:03:43.965, 0.024, -0.03, 1.001, 0, 0, 0, -1.741, -1.478, 126.002, 57.918, -41.846, -13.034, 22.22, 0.45401, 0.00461, -0.01938, 0.89072,
 15:48:44.184,c2:22:89:2b:7b:c3, 2015-01-01 01:03:43.965, 0.028, -0.032, 1.003, 0, 0, 0, -1.741, -1.478, 126.002, 57.918, -41.846, -13.034, 22.22, 0.45401, 0.00461, -0.01938, 0.89072,
 15:48:44.184,c2:22:89:2b:7b:c3, 2015-01-01 01:03:43.965, 0.025, -0.031, 1.003, 0, 0, 0, -1.741, -1.478, 126.002, 57.918, -41.846, -13.034, 22.22, 0.45401, 0.00461, -0.01938, 0.89072,
 15:48:44.184,c2:22:89:2b:7b:c3, 2015-01-01 01:03:43.965, 0.028, -0.029, 1.003, 0, 0, 0, -1.741, -1.478, 126.002, 57.918, -41.846, -13.034, 22.22, 0.45401, 0.00461, -0.01938, 0.89072,
 15:48:44.184,c2:22:89:2b:7b:c3, 2015-01-01 01:03:43.965, 0.027, -0.03, 1.002, 0, 0, 0, -1.741, -1.478, 126.002, 57.918, -41.846, -13.034, 22.22, 0.45401, 0.00461, -0.01938, 0.89072,
 15:48:44.244,c2:22:89:2b:7b:c3, 2015-01-01 01:03:43.965, 0.025, -0.032, 1.001, 0, 0, 0, -1.741, -1.478, 126.002, 57.918, -41.846, -13.034, 22.22, 0.45401, 0.00461, -0.01938, 0.89072,
 15:48:44.244,c2:22:89:2b:7b:c3, 2015-01-01 01:03:43.965, 0.025, -0.029, 1.003, 0, 0, 0, -1.741, -1.478, 126.002, 57.918, -41.846, -13.034, 22.22, 0.45401, 0.00461, -0.01938, 0.89072,
 15:48:44.244,c2:22:89:2b:7b:c3, 2015-01-01 01:03:43.965, 0.028, -0.03, 1.002, 0, 0, 0, -1.741, -1.478, 126.002, 57.918, -41.846, -13.034, 22.22, 0.45401, 0.00461, -0.01938, 0.89072,
 15:48:44.244,c2:22:89:2b:7b:c3, 2015-01-01 01:03:43.965, 0.028, -0.031, 1.002, 0, 0, 0, -1.741, -1.478, 126.002, 57.918, -41.846, -13.034, 22.22, 0.45401, 0.00461, -0.01938, 0.89072,
 15:48:44.274,c2:22:89:2b:7b:c3, 2015-01-01 01:03:43.965, 0.024, -0.027, 1.001, 0, 0, 0, -1.741, -1.478, 126.002, 57.918, -41.846, -13.034, 22.22, 0.45401, 0.00461, -0.01941, 0.89072,
 15:48:44.274,c2:22:89:2b:7b:c3, 2015-01-01 01:03:43.965, 0.026, -0.03, 1.001, 0, 0, 0, -1.741, -1.478, 126.002, 57.918, -41.846, -13.034, 22.22, 0.45401, 0.00461, -0.01941, 0.89072,
 15:48:44.274,c2:22:89:2b:7b:c3, 2015-01-01 01:03:43.965, 0.024, -0.029, 1.003, 0, 0, 0, -1.741, -1.478, 126.002, 57.918, -41.846, -13.034, 22.22, 0.45401, 0.00461, -0.01941, 0.89072,
 15:48:44.274,c2:22:89:2b:7b:c3, 2015-01-01 01:03:43.965, 0.025, -0.031, 1.002, 0, 0, 0, -1.741, -1.478, 126.002, 57.918, -41.846, -13.034, 22.22, 0.45401, 0.00461, -0.01941, 0.89072,
 15:48:44.303,c2:22:89:2b:7b:c3, 2015-01-01 01:03:43.965, 0.027, -0.031, 1.003, 0, 0, 0, -1.741, -1.478, 126.002, 57.918, -41.846, -13.034, 22.22, 0.45401, 0.00461, -0.01941, 0.89072,
 15:48:44.303,c2:22:89:2b:7b:c3, 2015-01-01 01:03:43.965, 0.024, -0.031, 1.005, 0, 0, 0, -1.741, -1.478, 126.002, 57.918, -41.846, -13.034, 22.22, 0.45401, 0.00461, -0.01941, 0.89072,
 15:48:44.303,c2:22:89:2b:7b:c3, 2015-01-01 01:03:43.965, 0.026, -0.033, 1.004, 0, 0, 0, -1.741, -1.478, 126.002, 57.918, -41.846, -13.034, 22.22, 0.45401, 0.00461, -0.01941, 0.89072,
 15:48:44.303,c2:22:89:2b:7b:c3, 2015-01-01 01:03:43.965, 0.024, -0.029, 1.003, 0, 0, 0, -1.741, -1.478, 126.002, 57.918, -41.846, -13.034, 22.22, 0.45401, 0.00461, -0.01941, 0.89072,
 15:48:44.363,c2:22:89:2b:7b:c3, 2015-01-01 01:03:44.380, 0.026, -0.03, 1.001, 0, 0, 0, -1.741, -1.478, 126.002, 57.918, -41.846, -13.034, 22.22, 0.45401, 0.00461, -0.01941, 0.89072,
 15:48:44.363,c2:22:89:2b:7b:c3, 2015-01-01 01:03:44.380, 0.026, -0.031, 1.001, 0, 0, 0, -1.741, -1.478, 126.002, 57.918, -41.846, -13.034, 22.22, 0.45401, 0.00461, -0.01941, 0.89072,
 15:48:44.363,c2:22:89:2b:7b:c3, 2015-01-01 01:03:44.380, 0.025, -0.03, 1.004, 0, 0, 0, -1.741, -1.478, 126.002, 57.918, -41.846, -13.034, 22.22, 0.45401, 0.00461, -0.01941, 0.89072,
 15:48:44.363,c2:22:89:2b:7b:c3, 2015-01-01 01:03:44.380, 0.027, -0.031, 1.002, 0, 0, 0, -1.741, -1.478, 126.002, 57.918, -41.846, -13.034, 22.22, 0.45401, 0.00461, -0.01941, 0.89072,
 15:48:44.393,c2:22:89:2b:7b:c3, 2015-01-01 01:03:44.380, 0.028, -0.03, 1.001, 0, 0, 0, -1.741, -1.478, 126.002, 57.918, -41.846, -13.034, 22.22, 0.45401, 0.00461, -0.01941, 0.89072,
 15:48:44.393,c2:22:89:2b:7b:c3, 2015-01-01 01:03:44.380, 0.024, -0.03, 1.001, 0, 0, 0, -1.741, -1.478, 126.002, 57.918, -41.846, -13.034, 22.22, 0.45401, 0.00461, -0.01941, 0.89072,
 15:48:44.393,c2:22:89:2b:7b:c3, 2015-01-01 01:03:44.380, 0.025, -0.03, 1.002, 0, 0, 0, -1.741, -1.478, 126.002, 57.918, -41.846, -13.034, 22.22, 0.45401, 0.00461, -0.01941, 0.89072,
 15:48:44.393,c2:22:89:2b:7b:c3, 2015-01-01 01:03:44.380, 0.027, -0.03, 1.001, 0, 0, 0, -1.741, -1.478, 126.002, 57.918, -41.846, -13.034, 22.22, 0.45401, 0.00461, -0.01941, 0.89072,
 15:48:44.452,c2:22:89:2b:7b:c3, 2015-01-01 01:03:44.380, 0.024, -0.033, 1.002, 0, 0, 0, -1.741, -1.478, 126.002, 57.918, -41.846, -13.034, 22.22, 0.45401, 0.00461, -0.01941, 0.89072,
 15:48:44.452,c2:22:89:2b:7b:c3, 2015-01-01 01:03:44.380, 0.026, -0.028, 1.002, 0, 0, 0, -1.741, -1.478, 126.002, 57.918, -41.846, -13.034, 22.22, 0.45401, 0.00461, -0.01941, 0.89072,
 15:48:44.452,c2:22:89:2b:7b:c3, 2015-01-01 01:03:44.380, 0.027, -0.029, 1, 0, 0, 0, -1.741, -1.478, 126.002, 57.918, -41.846, -13.034, 22.22, 0.45401, 0.00461, -0.01941, 0.89072,
 15:48:44.452,c2:22:89:2b:7b:c3, 2015-01-01 01:03:44.380, 0.025, -0.033, 1.005, 0, 0, 0, -1.741, -1.478, 126.002, 57.918, -41.846, -13.034, 22.22, 0.45401, 0.00461, -0.01941, 0.89072,
 15:48:44.485,c2:22:89:2b:7b:c3, 2015-01-01 01:03:44.380, 0.025, -0.03, 1, 0, 0, 0, -1.741, -1.478, 126.002, 57.918, -41.846, -13.034, 22.22, 0.45401, 0.00461, -0.01941, 0.89072,
 15:48:44.485,c2:22:89:2b:7b:c3, 2015-01-01 01:03:44.380, 0.028, -0.029, 1.003, 0, 0, 0, -1.741, -1.483, 126.002, 57.918, -41.846, -13.034, 22.22, 0.45401, 0.00461, -0.01941, 0.89072,
 15:48:44.485,c2:22:89:2b:7b:c3, 2015-01-01 01:03:44.380, 0.027, -0.031, 1.003, 0, 0, 0, -1.741, -1.483, 126.002, 57.918, -41.846, -13.034, 22.22, 0.45401, 0.00461, -0.01941, 0.89072,
 15:48:44.485,c2:22:89:2b:7b:c3, 2015-01-01 01:03:44.380, 0.025, -0.031, 1.004, 0, 0, 0, -1.741, -1.483, 126.002, 57.918, -41.846, -13.034, 22.22, 0.45401, 0.00461, -0.01941, 0.89072,
 15:48:44.514,c2:22:89:2b:7b:c3, 2015-01-01 01:03:44.380, 0.027, -0.03, 1.002, 0, 0, 0, -1.741, -1.483, 126.002, 57.918, -41.846, -13.034, 22.22, 0.45401, 0.00461, -0.01941, 0.89072,
 15:48:44.514,c2:22:89:2b:7b:c3, 2015-01-01 01:03:44.380, 0.028, -0.03, 1.001, 0, 0, 0, -1.741, -1.483, 126.002, 57.918, -41.846, -13.034, 22.22, 0.45401, 0.00461, -0.01941, 0.89072,
 15:48:44.514,c2:22:89:2b:7b:c3, 2015-01-01 01:03:44.380, 0.023, -0.031, 1.004, 0, 0, 0, -1.741, -1.483, 126.002, 57.918, -41.846, -13.034, 22.22, 0.45401, 0.00461, -0.01941, 0.89072,
 15:48:44.514,c2:22:89:2b:7b:c3, 2015-01-01 01:03:44.380, 0.025, -0.027, 1.004, 0, 0, 0, -1.741, -1.483, 126.002, 57.918, -41.846, -13.034, 22.22, 0.45401, 0.00461, -0.01941, 0.89072,
 15:48:44.544,c2:22:89:2b:7b:c3, 2015-01-01 01:03:44.380, 0.027, -0.031, 1.004, 0, 0, 0, -1.741, -1.483, 126.002, 57.918, -41.846, -13.132, 22.22, 0.45401, 0.00461, -0.01941, 0.89072,
 15:48:44.544,c2:22:89:2b:7b:c3, 2015-01-01 01:03:44.380, 0.025, -0.031, 1, 0, 0, 0, -1.741, -1.483, 126.002, 57.918, -41.846, -13.132, 22.22, 0.45401, 0.00461, -0.01941, 0.89072,
 15:48:44.544,c2:22:89:2b:7b:c3, 2015-01-01 01:03:44.380, 0.024, -0.029, 1.002, 0, 0, 0, -1.741, -1.483, 126.002, 57.918, -41.846, -13.132, 22.22, 0.45401, 0.00461, -0.01941, 0.89072,
 15:48:44.544,c2:22:89:2b:7b:c3, 2015-01-01 01:03:44.380, 0.027, -0.028, 1.002, 0, 0, 0, -1.741, -1.483, 126.002, 57.918, -41.846, -13.132, 22.22, 0.45401, 0.00461, -0.01941, 0.89072,
 15:48:44.604,c2:22:89:2b:7b:c3, 2015-01-01 01:03:44.380, 0.025, -0.032, 1, 0, 0, 0, -1.741, -1.483, 126.002, 57.918, -41.846, -13.132, 22.22, 0.45401, 0.00461, -0.01941, 0.89072,
 15:48:44.604,c2:22:89:2b:7b:c3, 2015-01-01 01:03:44.380, 0.025, -0.032, 1.003, 0, 0, 0, -1.741, -1.483, 126.002, 57.918, -41.846, -13.132, 22.22, 0.45401, 0.00461, -0.01941, 0.89072,
 15:48:44.604,c2:22:89:2b:7b:c3, 2015-01-01 01:03:44.380, 0.027, -0.027, 1.001, 0, 0, 0, -1.741, -1.483, 126.002, 57.918, -41.846, -13.132, 22.22, 0.45401, 0.00461, -0.01941, 0.89072,
 15:48:44.604,c2:22:89:2b:7b:c3, 2015-01-01 01:03:44.380, 0.026, -0.03, 1.003, 0, 0, 0, -1.741, -1.483, 126.002, 57.918, -41.846, -13.132, 22.22, 0.45401, 0.00461, -0.01941, 0.89072,
 15:48:44.634,c2:22:89:2b:7b:c3, 2015-01-01 01:03:44.380, 0.026, -0.029, 1.002, 0, 0, 0, -1.736, -1.483, 126.002, 57.918, -41.846, -13.132, 22.22, 0.45401, 0.00464, -0.01941, 0.89072,
 15:48:44.634,c2:22:89:2b:7b:c3, 2015-01-01 01:03:44.380, 0.025, -0.028, 1.004, 0, 0, 0, -1.736, -1.483, 126.002, 57.918, -41.846, -13.132, 22.22, 0.45401, 0.00464, -0.01941, 0.89072,
 15:48:44.634,c2:22:89:2b:7b:c3, 2015-01-01 01:03:44.380, 0.027, -0.031, 1, 0, 0, 0, -1.736, -1.483, 126.002, 57.918, -41.846, -13.132, 22.22, 0.45401, 0.00464, -0.01941, 0.89072,
 15:48:44.634,c2:22:89:2b:7b:c3, 2015-01-01 01:03:44.380, 0.026, -0.031, 1.002, 0, 0, 0, -1.736, -1.483, 126.002, 57.918, -41.846, -13.132, 22.22, 0.45401, 0.00464, -0.01941, 0.89072,
 15:48:44.663,c2:22:89:2b:7b:c3, 2015-01-01 01:03:44.380, 0.026, -0.03, 1, 0, 0, 0, -1.736, -1.483, 126.002, 57.918, -41.846, -13.132, 22.22, 0.45401, 0.00464, -0.01941, 0.89072,
 15:48:44.663,c2:22:89:2b:7b:c3, 2015-01-01 01:03:44.380, 0.027, -0.029, 1.001, 0, 0, 0, -1.736, -1.483, 126.002, 57.918, -41.846, -13.132, 22.22, 0.45401, 0.00464, -0.01941, 0.89072,
 15:48:44.663,c2:22:89:2b:7b:c3, 2015-01-01 01:03:44.380, 0.025, -0.033, 1.001, 0, 0, 0, -1.736, -1.483, 126.002, 57.918, -41.846, -13.132, 22.22, 0.45401, 0.00464, -0.01941, 0.89072,
 15:48:44.663,c2:22:89:2b:7b:c3, 2015-01-01 01:03:44.380, 0.026, -0.029, 1.002, 0, 0, 0, -1.736, -1.483, 126.002, 57.918, -41.846, -13.132, 22.22, 0.45401, 0.00464, -0.01941, 0.89072,
 15:48:44.724,c2:22:89:2b:7b:c3, 2015-01-01 01:03:44.740, 0.024, -0.029, 1.002, 0, 0, 0, -1.736, -1.483, 126.002, 57.918, -41.846, -13.132, 22.22, 0.45401, 0.00464, -0.01941, 0.89072,
 15:48:44.724,c2:22:89:2b:7b:c3, 2015-01-01 01:03:44.740, 0.026, -0.034, 1, 0, 0, 0, -1.736, -1.483, 126.002, 57.918, -41.846, -13.132, 22.22, 0.45401, 0.00464, -0.01941, 0.89072,
 15:48:44.724,c2:22:89:2b:7b:c3, 2015-01-01 01:03:44.740, 0.025, -0.03, 1, 0, 0, 0, -1.736, -1.483, 126.002, 57.918, -41.846, -13.132, 22.22, 0.45401, 0.00464, -0.01941, 0.89072,
 15:48:44.724,c2:22:89:2b:7b:c3, 2015-01-01 01:03:44.740, 0.026, -0.028, 1.003, 0, 0, 0, -1.736, -1.483, 126.002, 57.918, -41.846, -13.132, 22.22, 0.45401, 0.00464, -0.01941, 0.89072,
 15:48:44.754,c2:22:89:2b:7b:c3, 2015-01-01 01:03:44.740, 0.026, -0.033, 1.004, 0, 0, 0, -1.736, -1.483, 126.002, 57.918, -41.846, -13.132, 22.22, 0.45401, 0.00464, -0.01941, 0.89072,
 15:48:44.754,c2:22:89:2b:7b:c3, 2015-01-01 01:03:44.740, 0.023, -0.032, 1.001, 0, 0, 0, -1.736, -1.483, 126.002, 57.918, -41.846, -13.132, 22.22, 0.45401, 0.00464, -0.01941, 0.89072,
 15:48:44.754,c2:22:89:2b:7b:c3, 2015-01-01 01:03:44.740, 0.024, -0.029, 1, 0, 0, 0, -1.736, -1.483, 126.002, 57.918, -41.846, -13.132, 22.22, 0.45401, 0.00464, -0.01941, 0.89072,
 15:48:44.754,c2:22:89:2b:7b:c3, 2015-01-01 01:03:44.740, 0.026, -0.03, 1.004, 0, 0, 0, -1.736, -1.483, 126.002, 57.918, -41.846, -13.132, 22.22, 0.45401, 0.00464, -0.01941, 0.89072,
 15:48:44.783,c2:22:89:2b:7b:c3, 2015-01-01 01:03:44.740, 0.026, -0.03, 1.001, 0, 0, 0, -1.736, -1.483, 126.002, 57.918, -41.846, -13.132, 22.22, 0.45401, 0.00464, -0.01941, 0.89072,
 15:48:44.783,c2:22:89:2b:7b:c3, 2015-01-01 01:03:44.740, 0.025, -0.028, 1.004, 0, 0, 0, -1.736, -1.483, 126.002, 57.918, -41.846, -13.132, 22.22, 0.45401, 0.00464, -0.01941, 0.89072,
 15:48:44.783,c2:22:89:2b:7b:c3, 2015-01-01 01:03:44.740, 0.027, -0.028, 1.003, 0, 0, 0, -1.736, -1.483, 126.002, 57.918, -41.846, -13.132, 22.22, 0.45401, 0.00464, -0.01941, 0.89072,
 15:48:44.783,c2:22:89:2b:7b:c3, 2015-01-01 01:03:44.740, 0.026, -0.029, 1.001, 0, 0, 0, -1.736, -1.483, 126.002, 57.918, -41.846, -13.132, 22.22, 0.45401, 0.00464, -0.01941, 0.89072,
 15:48:44.844,c2:22:89:2b:7b:c3, 2015-01-01 01:03:44.740, 0.028, -0.028, 1.003, 0, 0, 0, -1.736, -1.483, 126.002, 57.918, -41.846, -13.132, 22.22, 0.45401, 0.00464, -0.01941, 0.89072,
 15:48:44.844,c2:22:89:2b:7b:c3, 2015-01-01 01:03:44.740, 0.026, -0.028, 1.002, 0, 0, 0, -1.736, -1.483, 126.002, 57.918, -41.846, -13.132, 22.22, 0.45401, 0.00464, -0.01941, 0.89072,
 15:48:44.844,c2:22:89:2b:7b:c3, 2015-01-01 01:03:44.740, 0.026, -0.029, 1.001, 0, 0, 0, -1.736, -1.483, 126.002, 57.918, -41.846, -13.132, 22.22, 0.45401, 0.00464, -0.01941, 0.89072,
 15:48:44.844,c2:22:89:2b:7b:c3, 2015-01-01 01:03:44.740, 0.027, -0.032, 1.003, 0, 0, 0, -1.736, -1.483, 126.002, 57.918, -41.846, -13.132, 22.22, 0.45401, 0.00464, -0.01941, 0.89072,
 15:48:44.873,c2:22:89:2b:7b:c3, 2015-01-01 01:03:44.740, 0.024, -0.031, 1.002, 0, 0, 0, -1.736, -1.483, 126.002, 57.918, -41.846, -13.132, 22.22, 0.45401, 0.00464, -0.01941, 0.89072,
 15:48:44.873,c2:22:89:2b:7b:c3, 2015-01-01 01:03:44.740, 0.026, -0.028, 1.003, 0, 0, 0, -1.736, -1.483, 126.002, 57.918, -41.846, -13.132, 22.22, 0.45401, 0.00464, -0.01941, 0.89072,
 15:48:44.874,c2:22:89:2b:7b:c3, 2015-01-01 01:03:44.740, 0.024, -0.031, 1.003, 0, 0, 0, -1.736, -1.483, 126.002, 57.918, -41.846, -13.132, 22.22, 0.45401, 0.00464, -0.01941, 0.89072,
 15:48:44.874,c2:22:89:2b:7b:c3, 2015-01-01 01:03:44.740, 0.027, -0.03, 1.002, 0, 0, 0, -1.736, -1.483, 126.002, 57.918, -41.846, -13.132, 22.22, 0.45401, 0.00464, -0.01941, 0.89072,
 15:48:44.904,c2:22:89:2b:7b:c3, 2015-01-01 01:03:44.740, 0.033, -0.027, 1, 0, 0, 0, -1.736, -1.483, 126.002, 57.820, -41.846, -13.034, 22.22, 0.45401, 0.00464, -0.01941, 0.89072,
 15:48:44.904,c2:22:89:2b:7b:c3, 2015-01-01 01:03:44.740, 0.016, -0.03, 0.986, 0, 0, 0, -1.736, -1.483, 126.002, 57.820, -41.846, -13.034, 22.22, 0.45401, 0.00464, -0.01941, 0.89072,
 15:48:44.904,c2:22:89:2b:7b:c3, 2015-01-01 01:03:44.740, -0.025, -0.014, 0.94, -0.977, 0.305, 0, -1.741, -1.483, 126.002, 57.820, -41.846, -13.034, 22.22, 0.45401, 0.00464, -0.01941, 0.89072,
 15:48:44.904,c2:22:89:2b:7b:c3, 2015-01-01 01:03:44.740, 0.029, -0.005, 0.885, -3.113, 0.793, 0, -1.763, -1.472, 126.002, 57.820, -41.846, -13.034, 22.22, 0.45401, 0.00464, -0.01941, 0.89072,
 15:48:44.965,c2:22:89:2b:7b:c3, 2015-01-01 01:03:44.740, 0.007, -0.127, 0.879, -14.954, 1.587, 0.671, -1.884, -1.467, 126.002, 57.820, -41.846, -13.034, 22.22, 0.45401, 0.00464, -0.01941, 0.89072,
 15:48:44.965,c2:22:89:2b:7b:c3, 2015-01-01 01:03:44.740, -0.084, -0.319, 0.885, -14.282, 1.038, 0.916, -2.043, -1.445, 126.013, 57.820, -41.846, -13.034, 22.22, 0.45401, 0.00464, -0.01941, 0.89072,
 15:48:44.965,c2:22:89:2b:7b:c3, 2015-01-01 01:03:44.740, -0.223, -0.34, 0.838, 2.319, -0.793, 0.427, -2.076, -1.445, 126.019, 57.820, -41.846, -13.034, 22.22, 0.45401, 0.00464, -0.01941, 0.89072,
 15:48:44.965,c2:22:89:2b:7b:c3, 2015-01-01 01:03:44.740, -0.115, -0.103, 0.807, 22.583, -6.897, -0.854, -1.923, -1.478, 126.019, 57.820, -41.846, -13.034, 22.22, 0.45401, 0.00464, -0.01941, 0.89072,
 15:48:44.993,c2:22:89:2b:7b:c3, 2015-01-01 01:03:44.740, 0.356, 0.074, 0.785, 24.292, -22.888, -0.671, -1.703, -1.67, 126.019, 57.820, -41.846, -13.034, 22.22, 0.45392, 0.00314, -0.02161, 0.89072,
 15:48:44.993,c2:22:89:2b:7b:c3, 2015-01-01 01:03:44.740, 0.059, 0.226, 0.958, 10.254, -14.771, -0.61, -1.56, -1.851, 126.024, 57.820, -41.846, -13.034, 22.22, 0.45392, 0.00314, -0.02161, 0.89072,
 15:48:44.993,c2:22:89:2b:7b:c3, 2015-01-01 01:03:44.740, 0.229, 0.162, 1.06, -12.451, 2.93, 0.427, -1.642, -1.84, 126.03, 57.820, -41.846, -13.034, 22.22, 0.45392, 0.00314, -0.02161, 0.89072,
 15:48:44.993,c2:22:89:2b:7b:c3, 2015-01-01 01:03:44.740, -0.203, -0.058, 0.912, -25.33, 4.7, 1.221, -1.857, -1.785, 126.035, 57.820, -41.846, -13.034, 22.22, 0.45392, 0.00314, -0.02161, 0.89072,
 15:48:45.052,c2:22:89:2b:7b:c3, 2015-01-01 01:03:44.740, -0.129, -0.376, 1.059, -21.118, 1.77, 0.427, -2.093, -1.747, 126.041, 57.820, -41.846, -13.034, 22.22, 0.45392, 0.00314, -0.02161, 0.89072,
 15:48:45.052,c2:22:89:2b:7b:c3, 2015-01-01 01:03:44.740, 0.054, -0.416, 0.822, 3.601, -13.611, 0.183, -2.148, -1.835, 126.057, 57.820, -41.846, -13.034, 22.22, 0.45392, 0.00314, -0.02161, 0.89072,
 15:48:45.052,c2:22:89:2b:7b:c3, 2015-01-01 01:03:44.740, -0.025, -0.144, 0.952, 16.296, -12.756, -0.488, -2.032, -1.956, 126.063, 57.820, -41.846, -13.034, 22.22, 0.45392, 0.00314, -0.02161, 0.89072,
 15:48:45.052,c2:22:89:2b:7b:c3, 2015-01-01 01:03:44.740, 0.284, -0.013, 1.102, 24.841, -18.555, -0.916, -1.824, -2.115, 126.063, 57.820, -41.846, -13.034, 22.22, 0.45392, 0.00314, -0.02161, 0.89072,
 15:48:45.112,c2:22:89:2b:7b:c3, 2015-01-01 01:03:45.095, -0.005, 0.343, 1.027, 17.212, -11.414, -0.732, -1.62, -2.274, 126.068, 57.820, -41.846, -13.034, 22.22, 0.45392, 0.00314, -0.02161, 0.89072,
 15:48:45.112,c2:22:89:2b:7b:c3, 2015-01-01 01:03:45.095, 0.228, 0.119, 1.135, -10.254, -0.488, 0.854, -1.664, -2.285, 126.068, 57.820, -41.846, -13.034, 22.22, 0.45392, 0.00314, -0.02161, 0.89072,
 15:48:45.112,c2:22:89:2b:7b:c3, 2015-01-01 01:03:45.095, -0.02, -0.004, 0.938, -24.536, -4.7, 1.587, -1.868, -2.34, 126.085, 57.820, -41.846, -13.034, 22.22, 0.45392, 0.00314, -0.02161, 0.89072,
 15:48:45.112,c2:22:89:2b:7b:c3, 2015-01-01 01:03:45.095, -0.17, -0.266, 0.96, -16.785, 7.141, 0.183, -2.076, -2.291, 126.09, 57.820, -41.846, -13.034, 22.22, 0.45392, 0.00314, -0.02161, 0.89072,
 15:48:45.114,c2:22:89:2b:7b:c3, 2015-01-01 01:03:45.095, -0.021, -0.325, 0.842, -1.282, -2.625, 0.061, -2.148, -2.28, 126.096, 57.820, -41.846, -13.034, 22.22, 0.45392, 0.00314, -0.02161, 0.89072,
 15:48:45.114,c2:22:89:2b:7b:c3, 2015-01-01 01:03:45.095, -0.033, -0.125, 0.866, 4.944, -15.259, 0.061, -2.12, -2.395, 126.101, 57.820, -41.846, -13.034, 22.22, 0.45392, 0.00314, -0.02161, 0.89072,
 15:48:45.114,c2:22:89:2b:7b:c3, 2015-01-01 01:03:45.095, 0.106, -0.146, 0.993, 13.794, -19.165, -0.183, -2.032, -2.571, 126.112, 57.820, -41.846, -13.034, 22.22, 0.45392, 0.00314, -0.02161, 0.89072,
 15:48:45.114,c2:22:89:2b:7b:c3, 2015-01-01 01:03:45.095, 0.141, 0.01, 0.887, 17.7, -18.25, -0.549, -1.879, -2.747, 126.118, 57.820, -41.846, -13.034, 22.22, 0.45392, 0.00314, -0.02161, 0.89072,
 15:48:45.173,c2:22:89:2b:7b:c3, 2015-01-01 01:03:45.095, 0.08, 0.151, 0.943, 5.432, -12.024, -0.244, -1.796, -2.878, 126.123, 57.820, -41.846, -13.034, 22.22, 0.45392, 0.00314, -0.02161, 0.89072,
 15:48:45.173,c2:22:89:2b:7b:c3, 2015-01-01 01:03:45.095, 0.124, 0.077, 0.96, -10.925, -7.507, 0.854, -1.873, -2.955, 126.134, 57.820, -41.846, -13.034, 22.22, 0.45392, 0.00314, -0.02161, 0.89072,
 15:48:45.173,c2:22:89:2b:7b:c3, 2015-01-01 01:03:45.095, -0.029, -0.121, 0.943, -14.526, -3.113, 0.488, -2.032, -2.999, 126.145, 57.820, -41.846, -13.034, 22.22, 0.45392, 0.00314, -0.02161, 0.89072,
 15:48:45.173,c2:22:89:2b:7b:c3, 2015-01-01 01:03:45.095, -0.025, -0.201, 1.019, -7.08, -2.075, 0.244, -2.142, -3.01, 126.156, 57.820, -41.846, -13.034, 22.22, 0.45392, 0.00314, -0.02161, 0.89072,
 15:48:45.203,c2:22:89:2b:7b:c3, 2015-01-01 01:03:45.095, 0.039, -0.146, 1.023, 1.892, -12.817, 0.183, -2.148, -3.109, 126.161, 57.820, -41.846, -13.034, 22.22, 0.45392, 0.00314, -0.02161, 0.89072,
 15:48:45.203,c2:22:89:2b:7b:c3, 2015-01-01 01:03:45.095, 0.063, -0.151, 1.058, 6.47, -16.235, 0.305, -2.115, -3.252, 126.172, 57.820, -41.846, -13.034, 22.22, 0.45392, 0.00314, -0.02161, 0.89072,
 15:48:45.203,c2:22:89:2b:7b:c3, 2015-01-01 01:03:45.095, 0.187, -0.065, 1.054, 12.878, -16.663, 0, -2.016, -3.411, 126.183, 57.820, -41.846, -13.034, 22.22, 0.45392, 0.00314, -0.02161, 0.89072,
 15:48:45.203,c2:22:89:2b:7b:c3, 2015-01-01 01:03:45.095, 0.083, 0.158, 1.028, 9.888, -14.526, -0.366, -1.912, -3.56, 126.189, 57.820, -41.846, -13.034, 22.22, 0.45392, 0.00314, -0.02161, 0.89072,
 15:48:45.233,c2:22:89:2b:7b:c3, 2015-01-01 01:03:45.095, 0.056, 0.223, 1.019, 1.099, -8.484, -0.061, -1.89, -3.647, 126.2, 57.820, -41.846, -13.034, 22.22, 0.45392, 0.00314, -0.02161, 0.89072,
 15:48:45.233,c2:22:89:2b:7b:c3, 2015-01-01 01:03:45.095, 0.141, 0.095, 0.945, -6.287, -9.46, 0.427, -1.939, -3.735, 126.205, 57.820, -41.846, -13.034, 22.22, 0.45392, 0.00314, -0.02161, 0.89072,
 15:48:45.233,c2:22:89:2b:7b:c3, 2015-01-01 01:03:45.095, 0.007, -0.039, 0.951, -12.573, -6.287, 0.854, -2.049, -3.807, 126.216, 57.820, -41.846, -13.034, 22.22, 0.45392, 0.00314, -0.02161, 0.89072,
 15:48:45.233,c2:22:89:2b:7b:c3, 2015-01-01 01:03:45.095, 0.01, -0.126, 0.996, -6.714, -5.188, 0.244, -2.137, -3.851, 126.222, 57.820, -41.846, -13.034, 22.22, 0.45392, 0.00314, -0.02161, 0.89072,
 15:48:45.323,c2:22:89:2b:7b:c3, 2015-01-01 01:03:45.095, -0.017, -0.107, 0.9, -0.732, -7.263, -0.061, -2.159, -3.917, 126.233, 57.820, -41.846, -13.034, 22.22, 0.45392, 0.00314, -0.02161, 0.89072,
 15:48:45.323,c2:22:89:2b:7b:c3, 2015-01-01 01:03:45.095, 0.067, -0.11, 0.93, 3.418, -13.672, 0, -2.142, -4.032, 126.238, 57.820, -41.846, -13.034, 22.22, 0.45392, 0.00314, -0.02161, 0.89072,
 15:48:45.323,c2:22:89:2b:7b:c3, 2015-01-01 01:03:45.095, 0.162, -0.062, 1.003, 8.667, -18.005, 0, -2.071, -4.191, 126.249, 57.820, -41.846, -13.034, 22.22, 0.45392, 0.00314, -0.02161, 0.89072,
 15:48:45.323,c2:22:89:2b:7b:c3, 2015-01-01 01:03:45.095, 0.145, 0.083, 1.048, 12.146, -17.944, 0, -1.961, -4.362, 126.26, 57.820, -41.846, -13.034, 22.22, 0.45392, 0.00314, -0.02161, 0.89072,
 15:48:45.323,c2:22:89:2b:7b:c3, 2015-01-01 01:03:45.095, 0.093, 0.159, 1.034, 3.967, -7.69, 0.061, -1.895, -4.455, 126.266, 57.820, -41.846, -13.034, 22.22, 0.45392, 0.00314, -0.02161, 0.89072,
 15:48:45.323,c2:22:89:2b:7b:c3, 2015-01-01 01:03:45.095, 0.136, 0.114, 0.987, -7.507, -9.705, 0.305, -1.939, -4.543, 126.277, 57.820, -41.846, -13.034, 22.22, 0.45392, 0.00314, -0.02161, 0.89072,
 15:48:45.323,c2:22:89:2b:7b:c3, 2015-01-01 01:03:45.095, 0.074, -0.046, 1.059, -12.207, -7.568, 0.305, -2.043, -4.625, 126.288, 57.820, -41.846, -13.034, 22.22, 0.45392, 0.00314, -0.02161, 0.89072,
 15:48:45.323,c2:22:89:2b:7b:c3, 2015-01-01 01:03:45.095, 0.058, -0.133, 1.078, -1.526, -6.714, 0, -2.087, -4.686, 126.293, 57.820, -41.846, -13.034, 22.22, 0.45392, 0.00314, -0.02161, 0.89072,
 15:48:45.353,c2:22:89:2b:7b:c3, 2015-01-01 01:03:45.095, 0.042, -0.047, 1.029, 3.784, -8.85, 0, -2.054, -4.768, 126.304, 56.840, -42.434, -12.642, 22.22, 0.45392, 0.00314, -0.02161, 0.89072,
 15:48:45.353,c2:22:89:2b:7b:c3, 2015-01-01 01:03:45.095, 0.238, -0.001, 1.054, 4.822, -15.32, 0, -2, -4.894, 126.31, 56.840, -42.434, -12.642, 22.22, 0.45392, 0.00314, -0.02161, 0.89072,
 15:48:45.353,c2:22:89:2b:7b:c3, 2015-01-01 01:03:45.095, 0.092, 0.008, 1.064, 2.258, -13.306, 0.244, -1.961, -5.037, 126.321, 56.840, -42.434, -12.642, 22.22, 0.45392, 0.00314, -0.02161, 0.89072,
 15:48:45.353,c2:22:89:2b:7b:c3, 2015-01-01 01:03:45.095, 0.084, 0.084, 1.049, 2.075, -5.92, 0, -1.934, -5.109, 126.326, 56.840, -42.434, -12.642, 22.22, 0.45392, 0.00314, -0.02161, 0.89072,
 15:48:45.415,c2:22:89:2b:7b:c3, 2015-01-01 01:03:45.095, 0.117, 0.107, 0.966, -1.587, -9.277, 0, -1.923, -5.191, 126.332, 56.840, -42.434, -12.642, 22.22, 0.45392, 0.00314, -0.02161, 0.89072,
 15:48:45.415,c2:22:89:2b:7b:c3, 2015-01-01 01:03:45.095, 0.11, -0.03, 0.981, -6.653, -9.033, 0.488, -1.972, -5.279, 126.343, 56.840, -42.434, -12.642, 22.22, 0.45392, 0.00314, -0.02161, 0.89072,
 15:48:45.415,c2:22:89:2b:7b:c3, 2015-01-01 01:03:45.095, 0.079, -0.08, 1.02, -0.122, -7.935, 0.305, -1.989, -5.356, 126.354, 56.840, -42.434, -12.642, 22.22, 0.45392, 0.00314, -0.02161, 0.89072,
 15:48:45.415,c2:22:89:2b:7b:c3, 2015-01-01 01:03:45.095, 0.076, 0.005, 1.014, 2.38, -7.568, 0.061, -1.956, -5.427, 126.359, 56.840, -42.434, -12.642, 22.22, 0.45392, 0.00314, -0.02161, 0.89072,
 15:48:45.443,c2:22:89:2b:7b:c3, 2015-01-01 01:03:45.095, 0.189, 0.004, 1.03, 1.465, -12.024, 0.061, -1.934, -5.532, 126.365, 56.840, -42.434, -12.642, 22.22, 0.45142, 0.03357, -0.03647, 0.8909,
 15:48:45.443,c2:22:89:2b:7b:c3, 2015-01-01 01:03:45.095, 0.092, -0.011, 1.031, 0.793, -8.179, 0.061, -1.917, -5.63, 126.376, 56.840, -42.434, -12.642, 22.22, 0.45142, 0.03357, -0.03647, 0.8909,
 15:48:45.443,c2:22:89:2b:7b:c3, 2015-01-01 01:03:45.095, 0.099, 0.045, 1.052, 0.671, -6.348, 0, -1.895, -5.691, 126.381, 56.840, -42.434, -12.642, 22.22, 0.45142, 0.03357, -0.03647, 0.8909,
 15:48:45.443,c2:22:89:2b:7b:c3, 2015-01-01 01:03:45.095, 0.145, 0.025, 1.044, -1.831, -7.568, 0.183, -1.901, -5.762, 126.392, 56.840, -42.434, -12.642, 22.22, 0.45142, 0.03357, -0.03647, 0.8909,
 15:48:45.474,c2:22:89:2b:7b:c3, 2015-01-01 01:03:45.095, 0.149, -0.018, 1.081, -0.183, -8.423, 0.244, -1.901, -5.839, 126.398, 56.840, -42.434, -12.642, 22.22, 0.45142, 0.03357, -0.03647, 0.8909,
 15:48:45.474,c2:22:89:2b:7b:c3, 2015-01-01 01:03:45.095, 0.084, 0.014, 1.079, 1.099, -5.249, 0, -1.879, -5.9, 126.403, 56.840, -42.434, -12.642, 22.22, 0.45142, 0.03357, -0.03647, 0.8909,
 15:48:45.474,c2:22:89:2b:7b:c3, 2015-01-01 01:03:45.095, 0.14, 0.021, 1.039, -0.183, -6.226, 0, -1.868, -5.955, 126.414, 56.840, -42.434, -12.642, 22.22, 0.45142, 0.03357, -0.03647, 0.8909,
 15:48:45.474,c2:22:89:2b:7b:c3, 2015-01-01 01:03:45.095, 0.147, 0.013, 1.052, -1.099, -7.751, -0.061, -1.862, -6.031, 126.42, 56.840, -42.434, -12.642, 22.22, 0.45142, 0.03357, -0.03647, 0.8909,
 15:48:45.533,c2:22:89:2b:7b:c3, 2015-01-01 01:03:45.545, 0.099, -0.025, 1.053, -0.977, -4.15, 0.183, -1.862, -6.081, 126.431, 56.840, -42.434, -12.642, 22.22, 0.45142, 0.03357, -0.03647, 0.8909,
 15:48:45.533,c2:22:89:2b:7b:c3, 2015-01-01 01:03:45.545, 0.105, 0.007, 1.019, 1.953, -4.883, 0.305, -1.84, -6.13, 126.436, 56.840, -42.434, -12.642, 22.22, 0.45142, 0.03357, -0.03647, 0.8909,
 15:48:45.533,c2:22:89:2b:7b:c3, 2015-01-01 01:03:45.545, 0.149, 0.031, 1.016, 1.221, -5.798, 0.183, -1.813, -6.185, 126.442, 56.840, -42.434, -12.642, 22.22, 0.45142, 0.03357, -0.03647, 0.8909,
 15:48:45.533,c2:22:89:2b:7b:c3, 2015-01-01 01:03:45.545, 0.16, 0.02, 1.042, -1.221, -5.554, 0.244, -1.807, -6.246, 126.453, 56.840, -42.434, -12.642, 22.22, 0.45142, 0.03357, -0.03647, 0.8909,
 15:48:45.564,c2:22:89:2b:7b:c3, 2015-01-01 01:03:45.545, 0.106, 0.003, 1.055, -1.709, -3.662, 0, -1.807, -6.284, 126.458, 56.840, -42.434, -12.642, 22.22, 0.45142, 0.03357, -0.03647, 0.8909,
 15:48:45.564,c2:22:89:2b:7b:c3, 2015-01-01 01:03:45.545, 0.087, -0.039, 1.043, -1.892, -2.258, 0.244, -1.818, -6.312, 126.464, 56.840, -42.434, -12.642, 22.22, 0.45142, 0.03357, -0.03647, 0.8909,
 15:48:45.564,c2:22:89:2b:7b:c3, 2015-01-01 01:03:45.545, 0.18, -0.014, 1.054, 2.319, -4.822, -0.061, -1.796, -6.35, 126.469, 56.840, -42.434, -12.642, 22.22, 0.45142, 0.03357, -0.03647, 0.8909,
 15:48:45.564,c2:22:89:2b:7b:c3, 2015-01-01 01:03:45.545, 0.143, 0.005, 1.06, 1.892, -5.127, 0, -1.763, -6.405, 126.48, 56.840, -42.434, -12.642, 22.22, 0.45142, 0.03357, -0.03647, 0.8909,
 15:48:45.594,c2:22:89:2b:7b:c3, 2015-01-01 01:03:45.545, 0.122, 0.007, 1.087, -0.244, -1.099, 0.061, -1.752, -6.427, 126.486, 56.840, -42.434, -12.642, 22.22, 0.45142, 0.03357, -0.03647, 0.8909,
 15:48:45.594,c2:22:89:2b:7b:c3, 2015-01-01 01:03:45.545, 0.139, -0.008, 1.06, -2.991, -0.854, 0.183, -1.769, -6.438, 126.491, 56.840, -42.434, -12.642, 22.22, 0.45142, 0.03357, -0.03647, 0.8909,
 15:48:45.594,c2:22:89:2b:7b:c3, 2015-01-01 01:03:45.545, 0.064, -0.088, 1.053, -3.54, -1.892, 0.427, -1.796, -6.454, 126.502, 56.840, -42.434, -12.642, 22.22, 0.45142, 0.03357, -0.03647, 0.8909,
 15:48:45.594,c2:22:89:2b:7b:c3, 2015-01-01 01:03:45.545, 0.138, -0.046, 1.048, 7.69, -2.93, -0.122, -1.741, -6.476, 126.508, 56.840, -42.434, -12.642, 22.22, 0.45142, 0.03357, -0.03647, 0.8909,
 15:48:45.654,c2:22:89:2b:7b:c3, 2015-01-01 01:03:45.545, 0.172, 0.2, 1.018, 11.047, -4.517, -0.488, -1.615, -6.526, 126.508, 56.840, -42.434, -12.642, 22.22, 0.45142, 0.03357, -0.03647, 0.8909,
 15:48:45.654,c2:22:89:2b:7b:c3, 2015-01-01 01:03:45.545, 0.185, 0.23, 1.029, 0.061, -1.648, -0.122, -1.571, -6.548, 126.513, 56.840, -42.434, -12.642, 22.22, 0.45142, 0.03357, -0.03647, 0.8909,
 15:48:45.654,c2:22:89:2b:7b:c3, 2015-01-01 01:03:45.545, 0.191, 0.075, 1.05, -11.414, 1.587, 0.366, -1.642, -6.542, 126.519, 56.840, -42.434, -12.642, 22.22, 0.45142, 0.03357, -0.03647, 0.8909,
 15:48:45.654,c2:22:89:2b:7b:c3, 2015-01-01 01:03:45.545, 0.037, -0.105, 1.063, -13.977, 4.883, 0.671, -1.763, -6.504, 126.53, 56.840, -42.434, -12.642, 22.22, 0.45142, 0.03357, -0.03647, 0.8909,
 15:48:45.685,c2:22:89:2b:7b:c3, 2015-01-01 01:03:45.545, 0.026, -0.23, 1.11, -5.676, 7.629, 0.122, -1.835, -6.427, 126.535, 56.840, -42.434, -12.642, 22.22, 0.45142, 0.03357, -0.03647, 0.8909,
 15:48:45.686,c2:22:89:2b:7b:c3, 2015-01-01 01:03:45.545, 0.058, -0.132, 1.024, 9.033, -1.953, -0.305, -1.774, -6.422, 126.541, 56.840, -42.434, -12.642, 22.22, 0.45142, 0.03357, -0.03647, 0.8909,
 15:48:45.686,c2:22:89:2b:7b:c3, 2015-01-01 01:03:45.545, 0.3, -0.008, 1.058, 13.977, -8.057, -0.305, -1.637, -6.493, 126.546, 56.840, -42.434, -12.642, 22.22, 0.45142, 0.03357, -0.03647, 0.8909,
 15:48:45.686,c2:22:89:2b:7b:c3, 2015-01-01 01:03:45.545, 0.149, 0.247, 1.03, 10.742, -2.014, -0.366, -1.5, -6.548, 126.546, 56.840, -42.434, -12.642, 22.22, 0.45142, 0.03357, -0.03647, 0.8909,
 15:48:45.715,c2:22:89:2b:7b:c3, 2015-01-01 01:03:45.545, 0.129, 0.178, 1.066, -4.395, 6.775, 0, -1.483, -6.498, 126.546, 55.566, -43.316, -11.564, 22.22, 0.45142, 0.03357, -0.03647, 0.8909,
 15:48:45.715,c2:22:89:2b:7b:c3, 2015-01-01 01:03:45.545, 0.155, 0.04, 1.018, -13.367, 4.761, 0.488, -1.577, -6.454, 126.557, 55.566, -43.316, -11.564, 22.22, 0.45142, 0.03357, -0.03647, 0.8909,
 15:48:45.716,c2:22:89:2b:7b:c3, 2015-01-01 01:03:45.545, 0.099, -0.13, 1.099, -8.972, 6.409, 0.122, -1.659, -6.4, 126.562, 55.566, -43.316, -11.564, 22.22, 0.45142, 0.03357, -0.03647, 0.8909,
 15:48:45.716,c2:22:89:2b:7b:c3, 2015-01-01 01:03:45.545, 0.096, -0.127, 1.12, 0.671, 5.31, -0.061, -1.659, -6.345, 126.562, 55.566, -43.316, -11.564, 22.22, 0.45142, 0.03357, -0.03647, 0.8909,
 15:48:45.772,c2:22:89:2b:7b:c3, 2015-01-01 01:03:45.545, 0.084, -0.089, 1.063, 5.005, 3.662, 0, -1.615, -6.312, 126.568, 55.566, -43.316, -11.564, 22.22, 0.45142, 0.03357, -0.03647, 0.8909,
 15:48:45.772,c2:22:89:2b:7b:c3, 2015-01-01 01:03:45.545, 0.271, 0.056, 1.086, 12.451, -3.235, -0.488, -1.5, -6.323, 126.568, 55.566, -43.316, -11.564, 22.22, 0.45142, 0.03357, -0.03647, 0.8909,
 15:48:45.772,c2:22:89:2b:7b:c3, 2015-01-01 01:03:45.545, 0.078, 0.145, 1.048, 3.418, 5.005, -0.366, -1.423, -6.306, 126.568, 55.566, -43.316, -11.564, 22.22, 0.45142, 0.03357, -0.03647, 0.8909,
 15:48:45.772,c2:22:89:2b:7b:c3, 2015-01-01 01:03:45.545, 0.159, 0.093, 1.04, -3.235, 7.08, 0, -1.434, -6.235, 126.568, 55.566, -43.316, -11.564, 22.22, 0.45142, 0.03357, -0.03647, 0.8909,
 15:48:45.834,c2:22:89:2b:7b:c3, 2015-01-01 01:03:45.545, 0.104, 0.023, 1.005, -7.08, 7.446, 0, -1.483, -6.174, 126.573, 55.566, -43.316, -11.564, 22.22, 0.44946, 0.0434, -0.03647, 0.89145,
 15:48:45.834,c2:22:89:2b:7b:c3, 2015-01-01 01:03:45.545, 0.108, -0.097, 1.074, -4.578, 8.301, 0.183, -1.522, -6.092, 126.573, 55.566, -43.316, -11.564, 22.22, 0.44946, 0.0434, -0.03647, 0.89145,
 15:48:45.834,c2:22:89:2b:7b:c3, 2015-01-01 01:03:45.545, 0.103, -0.074, 1.072, 2.502, 6.348, -0.305, -1.505, -6.031, 126.573, 55.566, -43.316, -11.564, 22.22, 0.44946, 0.0434, -0.03647, 0.89145,
 15:48:45.834,c2:22:89:2b:7b:c3, 2015-01-01 01:03:45.545, 0.134, -0.008, 1.049, 3.479, 5.737, 0, -1.456, -5.977, 126.579, 55.566, -43.316, -11.564, 22.22, 0.44946, 0.0434, -0.03647, 0.89145,
 15:48:45.834,c2:22:89:2b:7b:c3, 2015-01-01 01:03:45.545, 0.164, 0.017, 1.046, 3.601, 5.31, -0.183, -1.412, -5.933, 126.579, 55.566, -43.316, -11.564, 22.22, 0.44946, 0.0434, -0.03647, 0.89145,
 15:48:45.834,c2:22:89:2b:7b:c3, 2015-01-01 01:03:45.545, 0.123, 0.064, 1.053, 1.16, 7.935, -0.122, -1.384, -5.867, 126.579, 55.566, -43.316, -11.564, 22.22, 0.44946, 0.0434, -0.03647, 0.89145,
 15:48:45.834,c2:22:89:2b:7b:c3, 2015-01-01 01:03:45.545, 0.095, 0.061, 1.057, -0.916, 9.705, -0.122, -1.373, -5.784, 126.579, 55.566, -43.316, -11.564, 22.22, 0.44946, 0.0434, -0.03647, 0.89145,
 15:48:45.834,c2:22:89:2b:7b:c3, 2015-01-01 01:03:45.545, 0.119, 0.022, 1.045, -2.808, 9.46, 0.122, -1.384, -5.691, 126.579, 55.566, -43.316, -11.564, 22.22, 0.44946, 0.0434, -0.03647, 0.89145,
 15:48:45.895,c2:22:89:2b:7b:c3, 2015-01-01 01:03:45.545, 0.138, -0.025, 1.055, -2.625, 8.179, -0.183, -1.401, -5.614, 126.579, 55.566, -43.316, -11.564, 22.22, 0.44946, 0.0434, -0.03647, 0.89145,
 15:48:45.895,c2:22:89:2b:7b:c3, 2015-01-01 01:03:45.545, 0.093, -0.055, 1.071, -0.183, 9.705, -0.183, -1.401, -5.532, 126.579, 55.566, -43.316, -11.564, 22.22, 0.44946, 0.0434, -0.03647, 0.89145,
 15:48:45.895,c2:22:89:2b:7b:c3, 2015-01-01 01:03:45.545, 0.098, 0, 1.052, 3.906, 10.193, -0.61, -1.357, -5.438, 126.579, 55.566, -43.316, -11.564, 22.22, 0.44946, 0.0434, -0.03647, 0.89145,
 15:48:45.895,c2:22:89:2b:7b:c3, 2015-01-01 01:03:45.545, 0.122, 0.036, 1.025, 2.014, 8.972, -0.061, -1.324, -5.35, 126.579, 55.566, -43.316, -11.564, 22.22, 0.44946, 0.0434, -0.03647, 0.89145,
 15:48:45.924,c2:22:89:2b:7b:c3, 2015-01-01 01:03:45.930, 0.124, 0.009, 1.016, -1.221, 9.949, 0.244, -1.318, -5.268, 126.579, 55.566, -43.316, -11.564, 22.22, 0.44946, 0.0434, -0.03647, 0.89145,
 15:48:45.924,c2:22:89:2b:7b:c3, 2015-01-01 01:03:45.930, 0.104, 0, 1.027, -1.526, 10.925, 0, -1.318, -5.169, 126.579, 55.566, -43.316, -11.564, 22.22, 0.44946, 0.0434, -0.03647, 0.89145,
 15:48:45.924,c2:22:89:2b:7b:c3, 2015-01-01 01:03:45.930, 0.096, -0.007, 1.041, -1.465, 12.329, 0.244, -1.318, -5.059, 126.573, 55.566, -43.316, -11.564, 22.22, 0.44946, 0.0434, -0.03647, 0.89145,
 15:48:45.924,c2:22:89:2b:7b:c3, 2015-01-01 01:03:45.930, 0.088, 0.004, 1.04, 0.122, 10.498, -0.183, -1.307, -4.96, 126.573, 55.566, -43.316, -11.564, 22.22, 0.44946, 0.0434, -0.03647, 0.89145,
 15:48:45.953,c2:22:89:2b:7b:c3, 2015-01-01 01:03:45.930, 0.14, 0.007, 1.037, 1.16, 10.254, -0.427, -1.291, -4.861, 126.573, 55.566, -43.316, -11.564, 22.22, 0.44946, 0.0434, -0.03647, 0.89145,
 15:48:45.953,c2:22:89:2b:7b:c3, 2015-01-01 01:03:45.930, 0.14, -0.017, 1.039, -1.709, 10.925, -0.305, -1.291, -4.757, 126.568, 55.566, -43.316, -11.564, 22.22, 0.44946, 0.0434, -0.03647, 0.89145,
 15:48:45.953,c2:22:89:2b:7b:c3, 2015-01-01 01:03:45.930, 0.048, -0.066, 1.055, -5.92, 14.893, 0, -1.335, -4.625, 126.568, 55.566, -43.316, -11.564, 22.22, 0.44946, 0.0434, -0.03647, 0.89145,
 15:48:45.953,c2:22:89:2b:7b:c3, 2015-01-01 01:03:45.930, 0.06, -0.09, 1.059, -2.38, 14.526, -0.183, -1.362, -4.482, 126.568, 55.566, -43.316, -11.564, 22.22, 0.44946, 0.0434, -0.03647, 0.89145,
 15:48:46.014,c2:22:89:2b:7b:c3, 2015-01-01 01:03:45.930, 0.04, -0.079, 1.021, 0.061, 11.23, -0.122, -1.362, -4.367, 126.562, 55.566, -43.316, -11.564, 22.22, 0.44946, 0.0434, -0.03647, 0.89145,
 15:48:46.014,c2:22:89:2b:7b:c3, 2015-01-01 01:03:45.930, 0.129, -0.065, 1.032, 5.249, 9.277, -0.427, -1.318, -4.279, 126.562, 55.566, -43.316, -11.564, 22.22, 0.44946, 0.0434, -0.03647, 0.89145,
 15:48:46.014,c2:22:89:2b:7b:c3, 2015-01-01 01:03:45.930, 0.131, 0.066, 1.041, 8.301, 7.446, -0.488, -1.241, -4.208, 126.557, 55.566, -43.316, -11.564, 22.22, 0.44946, 0.0434, -0.03647, 0.89145,
 15:48:46.014,c2:22:89:2b:7b:c3, 2015-01-01 01:03:45.930, 0.075, 0.064, 1.022, 0.916, 14.465, 0, -1.208, -4.087, 126.557, 55.566, -43.316, -11.564, 22.22, 0.44946, 0.0434, -0.03647, 0.89145,
 15:48:46.044,c2:22:89:2b:7b:c3, 2015-01-01 01:03:45.930, 0.087, 0.015, 0.973, -5.554, 13.611, 0.183, -1.247, -3.955, 126.552, 55.566, -43.316, -11.564, 22.22, 0.44946, 0.0434, -0.03647, 0.89145,
 15:48:46.044,c2:22:89:2b:7b:c3, 2015-01-01 01:03:45.930, 0.058, -0.042, 1.014, -6.165, 16.235, 0, -1.296, -3.807, 126.552, 55.566, -43.316, -11.564, 22.22, 0.44946, 0.0434, -0.03647, 0.89145,
 15:48:46.044,c2:22:89:2b:7b:c3, 2015-01-01 01:03:45.930, 0.021, -0.112, 1.017, -4.761, 15.991, -0.061, -1.351, -3.658, 126.546, 55.566, -43.316, -11.564, 22.22, 0.44946, 0.0434, -0.03647, 0.89145,
 15:48:46.044,c2:22:89:2b:7b:c3, 2015-01-01 01:03:45.930, 0.001, -0.104, 0.994, 0.61, 15.198, 0, -1.357, -3.51, 126.546, 55.566, -43.316, -11.564, 22.22, 0.44946, 0.0434, -0.03647, 0.89145,
 15:48:46.074,c2:22:89:2b:7b:c3, 2015-01-01 01:03:45.930, 0.079, -0.051, 1.004, 5.371, 9.766, -0.488, -1.318, -3.406, 126.541, 55.566, -43.316, -11.564, 22.22, 0.44946, 0.0434, -0.03647, 0.89145,
 15:48:46.074,c2:22:89:2b:7b:c3, 2015-01-01 01:03:45.930, 0.16, -0.024, 1.022, 5.92, 8.728, -0.366, -1.258, -3.329, 126.535, 55.566, -43.316, -11.564, 22.22, 0.44946, 0.0434, -0.03647, 0.89145,
 15:48:46.074,c2:22:89:2b:7b:c3, 2015-01-01 01:03:45.930, 0.074, 0.01, 1.049, 2.563, 11.902, -0.061, -1.225, -3.23, 126.53, 55.566, -43.316, -11.564, 22.22, 0.44946, 0.0434, -0.03647, 0.89145,
 15:48:46.074,c2:22:89:2b:7b:c3, 2015-01-01 01:03:45.930, 0.076, 0.048, 1.04, -1.77, 16.113, -0.305, -1.225, -3.087, 126.524, 55.566, -43.316, -11.564, 22.22, 0.44946, 0.0434, -0.03647, 0.89145,
 15:48:46.164,c2:22:89:2b:7b:c3, 2015-01-01 01:03:45.930, 0.015, -0.026, 0.966, -6.287, 16.724, 0.061, -1.28, -2.933, 126.519, 55.566, -43.316, -11.564, 22.22, 0.44946, 0.0434, -0.03647, 0.89145,
 15:48:46.164,c2:22:89:2b:7b:c3, 2015-01-01 01:03:45.930, 0.038, -0.079, 1.03, -4.517, 16.663, -0.122, -1.329, -2.774, 126.513, 55.566, -43.316, -11.564, 22.22, 0.44946, 0.0434, -0.03647, 0.89145,
 15:48:46.164,c2:22:89:2b:7b:c3, 2015-01-01 01:03:45.930, 0.042, -0.069, 1.024, -0.977, 14.526, -0.305, -1.346, -2.637, 126.508, 55.566, -43.316, -11.564, 22.22, 0.44946, 0.0434, -0.03647, 0.89145,
 15:48:46.164,c2:22:89:2b:7b:c3, 2015-01-01 01:03:45.930, 0.04, -0.09, 1.002, 0.549, 12.817, -0.305, -1.346, -2.51, 126.508, 55.566, -43.316, -11.564, 22.22, 0.44946, 0.0434, -0.03647, 0.89145,
 15:48:46.164,c2:22:89:2b:7b:c3, 2015-01-01 01:03:45.930, 0.027, -0.047, 0.997, 4.7, 12.512, -0.305, -1.313, -2.395, 126.502, 55.566, -43.316, -11.564, 22.22, 0.44946, 0.0434, -0.03647, 0.89145,
 15:48:46.164,c2:22:89:2b:7b:c3, 2015-01-01 01:03:45.930, 0.098, 0.038, 1.019, 3.479, 11.597, -0.61, -1.269, -2.285, 126.491, 55.566, -43.316, -11.564, 22.22, 0.44946, 0.0434, -0.03647, 0.89145,
 15:48:46.164,c2:22:89:2b:7b:c3, 2015-01-01 01:03:45.930, 0.075, -0.024, 1.003, -2.258, 13.306, -0.122, -1.28, -2.17, 126.486, 55.566, -43.316, -11.564, 22.22, 0.44946, 0.0434, -0.03647, 0.89145,
 15:48:46.164,c2:22:89:2b:7b:c3, 2015-01-01 01:03:45.930, 0.008, -0.045, 1.004, -2.502, 16.113, -0.183, -1.307, -2.027, 126.48, 55.566, -43.316, -11.564, 22.22, 0.44946, 0.0434, -0.03647, 0.89145,
 15:48:46.194,c2:22:89:2b:7b:c3, 2015-01-01 01:03:45.930, -0.013, 0.003, 1.004, -1.465, 17.517, -0.305, -1.318, -1.862, 126.475, 56.840, -42.238, -12.152, 22.22, 0.44946, 0.0434, -0.03647, 0.89145,
 15:48:46.194,c2:22:89:2b:7b:c3, 2015-01-01 01:03:45.930, 0.049, -0.033, 1.013, -3.052, 14.404, -0.061, -1.346, -1.714, 126.469, 56.840, -42.238, -12.152, 22.22, 0.44946, 0.0434, -0.03647, 0.89145,
 15:48:46.196,c2:22:89:2b:7b:c3, 2015-01-01 01:03:45.930, 0.056, -0.082, 1.018, -0.305, 11.902, -0.183, -1.362, -1.604, 126.464, 56.840, -42.238, -12.152, 22.22, 0.44946, 0.0434, -0.03647, 0.89145,
 15:48:46.196,c2:22:89:2b:7b:c3, 2015-01-01 01:03:45.930, -0.021, -0.066, 1.001, 1.709, 14.709, 0, -1.357, -1.478, 126.458, 56.840, -42.238, -12.152, 22.22, 0.44946, 0.0434, -0.03647, 0.89145,
 15:48:46.254,c2:22:89:2b:7b:c3, 2015-01-01 01:03:45.930, 0, -0.022, 0.98, 3.113, 14.648, -0.122, -1.34, -1.335, 126.453, 56.840, -42.238, -12.152, 22.22, 0.44946, 0.0434, -0.03647, 0.89145,
 15:48:46.254,c2:22:89:2b:7b:c3, 2015-01-01 01:03:45.930, 0.066, 0, 0.965, 1.221, 11.597, -0.061, -1.329, -1.219, 126.442, 56.840, -42.238, -12.152, 22.22, 0.44946, 0.0434, -0.03647, 0.89145,
 15:48:46.254,c2:22:89:2b:7b:c3, 2015-01-01 01:03:45.930, 0.029, -0.046, 0.979, -1.16, 11.78, -0.061, -1.34, -1.115, 126.436, 56.840, -42.238, -12.152, 22.22, 0.44946, 0.0434, -0.03647, 0.89145,
 15:48:46.254,c2:22:89:2b:7b:c3, 2015-01-01 01:03:45.930, -0.061, -0.075, 0.966, -1.465, 17.212, -0.183, -1.368, -0.967, 126.431, 56.840, -42.238, -12.152, 22.22, 0.44946, 0.0434, -0.03647, 0.89145,
 15:48:46.283,c2:22:89:2b:7b:c3, 2015-01-01 01:03:45.930, -0.008, -0.033, 0.945, -0.122, 15.93, -0.427, -1.379, -0.807, 126.42, 56.840, -42.238, -12.152, 22.22, 0.45053, 0.00427, -0.01514, 0.89255,
 15:48:46.283,c2:22:89:2b:7b:c3, 2015-01-01 01:03:45.930, 0.036, -0.065, 0.958, -1.343, 11.78, -0.305, -1.401, -0.692, 126.414, 56.840, -42.238, -12.152, 22.22, 0.45053, 0.00427, -0.01514, 0.89255,
 15:48:46.283,c2:22:89:2b:7b:c3, 2015-01-01 01:03:45.930, 0.017, -0.117, 1.008, 0.427, 12.512, 0, -1.417, -0.582, 126.409, 56.840, -42.238, -12.152, 22.22, 0.45053, 0.00427, -0.01514, 0.89255,
 15:48:46.283,c2:22:89:2b:7b:c3, 2015-01-01 01:03:45.930, -0.021, -0.051, 1.015, 1.77, 14.526, 0, -1.406, -0.45, 126.403, 56.840, -42.238, -12.152, 22.22, 0.45053, 0.00427, -0.01514, 0.89255,
 15:48:46.313,c2:22:89:2b:7b:c3, 2015-01-01 01:03:45.930, 0.012, -0.041, 0.984, -0.366, 12.451, 0, -1.412, -0.324, 126.392, 56.840, -42.238, -12.152, 22.22, 0.45053, 0.00427, -0.01514, 0.89255,
 15:48:46.313,c2:22:89:2b:7b:c3, 2015-01-01 01:03:45.930, 0.002, -0.085, 0.966, -0.61, 10.925, -0.183, -1.428, -0.22, 126.387, 56.840, -42.238, -12.152, 22.22, 0.45053, 0.00427, -0.01514, 0.89255,
 15:48:46.313,c2:22:89:2b:7b:c3, 2015-01-01 01:03:45.930, -0.015, -0.064, 0.953, 1.099, 14.221, -0.427, -1.428, -0.093, 126.376, 56.840, -42.238, -12.152, 22.22, 0.45053, 0.00427, -0.01514, 0.89255,
 15:48:46.313,c2:22:89:2b:7b:c3, 2015-01-01 01:03:45.930, 0.017, -0.04, 0.955, -1.465, 12.817, -0.244, -1.439, 0.027, 126.37, 56.840, -42.238, -12.152, 22.22, 0.45053, 0.00427, -0.01514, 0.89255,
 15:48:46.372,c2:22:89:2b:7b:c3, 2015-01-01 01:03:46.380, -0.021, -0.09, 0.988, -2.93, 10.925, 0.244, -1.472, 0.132, 126.365, 56.840, -42.238, -12.152, 22.22, 0.45053, 0.00427, -0.01514, 0.89255,
 15:48:46.372,c2:22:89:2b:7b:c3, 2015-01-01 01:03:46.380, -0.046, -0.063, 1.011, 0.732, 13.123, -0.122, -1.483, 0.253, 126.354, 56.840, -42.238, -12.152, 22.22, 0.45053, 0.00427, -0.01514, 0.89255,
 15:48:46.372,c2:22:89:2b:7b:c3, 2015-01-01 01:03:46.380, -0.016, -0.021, 0.956, 0.488, 12.207, -0.122, -1.478, 0.379, 126.348, 56.840, -42.238, -12.152, 22.22, 0.45053, 0.00427, -0.01514, 0.89255,
 15:48:46.372,c2:22:89:2b:7b:c3, 2015-01-01 01:03:46.380, 0.002, -0.098, 0.926, -2.136, 9.827, 0, -1.511, 0.478, 126.337, 56.840, -42.238, -12.152, 22.22, 0.45053, 0.00427, -0.01514, 0.89255,
 15:48:46.404,c2:22:89:2b:7b:c3, 2015-01-01 01:03:46.380, -0.066, -0.099, 0.946, 1.16, 10.925, -0.183, -1.516, 0.571, 126.332, 56.840, -42.238, -12.152, 22.22, 0.45053, 0.00427, -0.01514, 0.89255,
 15:48:46.404,c2:22:89:2b:7b:c3, 2015-01-01 01:03:46.380, 0.001, -0.009, 0.981, 3.296, 12.451, -0.732, -1.494, 0.692, 126.321, 56.840, -42.238, -12.152, 22.22, 0.45053, 0.00427, -0.01514, 0.89255,
 15:48:46.404,c2:22:89:2b:7b:c3, 2015-01-01 01:03:46.380, 0, -0.037, 0.983, -2.808, 9.216, 0.183, -1.522, 0.786, 126.315, 56.840, -42.238, -12.152, 22.22, 0.45053, 0.00427, -0.01514, 0.89255,
 15:48:46.404,c2:22:89:2b:7b:c3, 2015-01-01 01:03:46.380, -0.018, -0.109, 0.989, -1.648, 9.521, 0.061, -1.555, 0.879, 126.31, 56.840, -42.238, -12.152, 22.22, 0.45053, 0.00427, -0.01514, 0.89255,
 15:48:46.463,c2:22:89:2b:7b:c3, 2015-01-01 01:03:46.380, -0.095, -0.081, 0.94, 1.038, 13.062, -0.244, -1.566, 0.994, 126.299, 56.840, -42.238, -12.152, 22.22, 0.45053, 0.00427, -0.01514, 0.89255,
 15:48:46.463,c2:22:89:2b:7b:c3, 2015-01-01 01:03:46.380, -0.024, -0.035, 0.946, 0.671, 10.437, -0.183, -1.566, 1.11, 126.293, 56.840, -42.238, -12.152, 22.22, 0.45053, 0.00427, -0.01514, 0.89255,
 15:48:46.463,c2:22:89:2b:7b:c3, 2015-01-01 01:03:46.380, -0.012, -0.085, 0.954, -1.465, 6.897, -0.183, -1.593, 1.181, 126.282, 56.840, -42.238, -12.152, 22.22, 0.45053, 0.00427, -0.01514, 0.89255,
 15:48:46.463,c2:22:89:2b:7b:c3, 2015-01-01 01:03:46.380, -0.031, -0.098, 0.96, 1.282, 8.85, -0.183, -1.599, 1.258, 126.277, 56.840, -42.238, -12.152, 22.22, 0.45053, 0.00427, -0.01514, 0.89255,
 15:48:46.493,c2:22:89:2b:7b:c3, 2015-01-01 01:03:46.380, -0.077, -0.047, 0.955, 2.441, 10.376, -0.183, -1.593, 1.357, 126.266, 56.840, -42.238, -12.152, 22.22, 0.45053, 0.00427, -0.01514, 0.89255,
 15:48:46.493,c2:22:89:2b:7b:c3, 2015-01-01 01:03:46.380, -0.023, -0.029, 0.964, -1.16, 8.667, 0, -1.604, 1.45, 126.255, 56.840, -42.238, -12.152, 22.22, 0.45053, 0.00427, -0.01514, 0.89255,
 15:48:46.493,c2:22:89:2b:7b:c3, 2015-01-01 01:03:46.380, -0.013, -0.084, 0.95, -1.465, 6.714, -0.122, -1.637, 1.516, 126.249, 56.840, -42.238, -12.152, 22.22, 0.45053, 0.00427, -0.01514, 0.89255,
 15:48:46.493,c2:22:89:2b:7b:c3, 2015-01-01 01:03:46.380, -0.096, -0.103, 0.939, -1.526, 9.949, 0.183, -1.664, 1.604, 126.244, 56.840, -42.238, -12.152, 22.22, 0.45053, 0.00427, -0.01514, 0.89255,
 15:48:46.524,c2:22:89:2b:7b:c3, 2015-01-01 01:03:46.380, -0.062, -0.051, 0.951, 1.587, 8.606, -0.366, -1.67, 1.697, 126.233, 56.840, -42.238, -12.152, 22.22, 0.45053, 0.00427, -0.01514, 0.89255,
 15:48:46.524,c2:22:89:2b:7b:c3, 2015-01-01 01:03:46.380, -0.016, -0.067, 0.945, -1.099, 6.531, 0, -1.686, 1.769, 126.227, 56.840, -42.238, -12.152, 22.22, 0.45053, 0.00427, -0.01514, 0.89255,
 15:48:46.524,c2:22:89:2b:7b:c3, 2015-01-01 01:03:46.380, -0.048, -0.11, 0.967, 0.183, 5.188, 0.122, -1.703, 1.818, 126.216, 56.840, -42.238, -12.152, 22.22, 0.45053, 0.00427, -0.01514, 0.89255,
 15:48:46.524,c2:22:89:2b:7b:c3, 2015-01-01 01:03:46.380, -0.094, -0.058, 0.952, 2.625, 7.446, -0.183, -1.697, 1.89, 126.211, 56.840, -42.238, -12.152, 22.22, 0.45053, 0.00427, -0.01514, 0.89255,
 15:48:46.644,c2:22:89:2b:7b:c3, 2015-01-01 01:03:46.380, -0.034, -0.005, 0.928, 1.892, 6.592, -0.305, -1.686, 1.961, 126.2, 59.486, -41.062, -13.622, 22.22, 0.45053, 0.00427, -0.01514, 0.89255,
 15:48:46.644,c2:22:89:2b:7b:c3, 2015-01-01 01:03:46.380, -0.004, -0.042, 0.941, -2.441, 3.235, 0, -1.714, 2, 126.194, 59.486, -41.062, -13.622, 22.22, 0.45053, 0.00427, -0.01514, 0.89255,
 15:48:46.644,c2:22:89:2b:7b:c3, 2015-01-01 01:03:46.380, -0.079, -0.104, 0.96, -3.784, 6.836, 0.244, -1.763, 2.054, 126.189, 59.486, -41.062, -13.622, 22.22, 0.45053, 0.00427, -0.01514, 0.89255,
 15:48:46.644,c2:22:89:2b:7b:c3, 2015-01-01 01:03:46.380, -0.113, -0.103, 0.928, -0.488, 8.362, 0, -1.791, 2.137, 126.178, 59.486, -41.062, -13.622, 22.22, 0.45053, 0.00427, -0.01514, 0.89255,
 15:48:46.644,c2:22:89:2b:7b:c3, 2015-01-01 01:03:46.380, -0.109, -0.067, 0.915, 1.709, 4.456, 0, -1.791, 2.197, 126.172, 59.486, -41.062, -13.622, 22.22, 0.45053, 0.00427, -0.01514, 0.89255,
 15:48:46.644,c2:22:89:2b:7b:c3, 2015-01-01 01:03:46.380, -0.008, -0.029, 0.956, 5.005, -0.793, -0.244, -1.763, 2.208, 126.167, 59.486, -41.062, -13.622, 22.22, 0.45053, 0.00427, -0.01514, 0.89255,
 15:48:46.644,c2:22:89:2b:7b:c3, 2015-01-01 01:03:46.380, 0.042, 0.001, 0.952, 4.395, -0.183, -0.427, -1.725, 2.203, 126.156, 59.486, -41.062, -13.622, 22.22, 0.45053, 0.00427, -0.01514, 0.89255,
 15:48:46.644,c2:22:89:2b:7b:c3, 2015-01-01 01:03:46.380, -0.029, -0.022, 0.961, -3.235, 4.639, 0.122, -1.747, 2.236, 126.151, 59.486, -41.062, -13.622, 22.22, 0.45053, 0.00427, -0.01514, 0.89255,
 15:48:46.646,c2:22:89:2b:7b:c3, 2015-01-01 01:03:46.380, -0.137, -0.082, 0.982, -8.789, 8.606, 0.122, -1.835, 2.313, 126.14, 59.486, -41.062, -13.622, 22.22, 0.45053, 0.00427, -0.01514, 0.89255,
 15:48:46.646,c2:22:89:2b:7b:c3, 2015-01-01 01:03:46.380, -0.094, -0.21, 0.966, -9.094, 8.85, 0.183, -1.939, 2.411, 126.134, 59.486, -41.062, -13.622, 22.22, 0.45224, -0.02423, -0.00513, 0.89151,
 15:48:46.646,c2:22:89:2b:7b:c3, 2015-01-01 01:03:46.380, -0.093, -0.188, 0.902, -0.732, 1.831, 0.122, -1.983, 2.444, 126.134, 59.486, -41.062, -13.622, 22.22, 0.45224, -0.02423, -0.00513, 0.89151,
 15:48:46.646,c2:22:89:2b:7b:c3, 2015-01-01 01:03:46.380, -0.144, -0.171, 0.914, 7.08, -0.977, -0.061, -1.95, 2.444, 126.129, 59.486, -41.062, -13.622, 22.22, 0.45224, -0.02423, -0.00513, 0.89151,
 15:48:46.703,c2:22:89:2b:7b:c3, 2015-01-01 01:03:46.380, -0.01, -0.021, 0.974, 15.381, -5.371, -0.549, -1.835, 2.411, 126.123, 59.486, -41.062, -13.622, 22.22, 0.45224, -0.02423, -0.00513, 0.89151,
 15:48:46.703,c2:22:89:2b:7b:c3, 2015-01-01 01:03:46.380, 0.053, 0.138, 0.945, 12.634, -6.042, -0.61, -1.708, 2.351, 126.112, 59.486, -41.062, -13.622, 22.22, 0.45224, -0.02423, -0.00513, 0.89151,
 15:48:46.703,c2:22:89:2b:7b:c3, 2015-01-01 01:03:46.380, 0.08, 0.142, 0.973, -2.441, -1.831, 0.183, -1.697, 2.329, 126.112, 59.486, -41.062, -13.622, 22.22, 0.45224, -0.02423, -0.00513, 0.89151,
 15:48:46.703,c2:22:89:2b:7b:c3, 2015-01-01 01:03:46.380, -0.114, -0.019, 0.918, -16.663, 8.606, 0.61, -1.84, 2.39, 126.107, 59.486, -41.062, -13.622, 22.22, 0.45224, -0.02423, -0.00513, 0.89151,
 15:48:46.734,c2:22:89:2b:7b:c3, 2015-01-01 01:03:46.765, -0.232, -0.176, 0.932, -16.113, 12.756, 0.244, -2.021, 2.516, 126.101, 59.486, -41.062, -13.622, 22.22, 0.45224, -0.02423, -0.00513, 0.89151,
 15:48:46.734,c2:22:89:2b:7b:c3, 2015-01-01 01:03:46.765, -0.092, -0.287, 0.877, -4.395, 1.221, 0, -2.104, 2.565, 126.096, 59.486, -41.062, -13.622, 22.22, 0.45224, -0.02423, -0.00513, 0.89151,
 15:48:46.734,c2:22:89:2b:7b:c3, 2015-01-01 01:03:46.765, -0.095, -0.137, 0.921, 5.92, -6.348, -0.061, -2.082, 2.521, 126.096, 59.486, -41.062, -13.622, 22.22, 0.45224, -0.02423, -0.00513, 0.89151,
 15:48:46.734,c2:22:89:2b:7b:c3, 2015-01-01 01:03:46.765, 0.007, -0.125, 0.993, 15.747, -9.399, -0.488, -1.972, 2.45, 126.09, 59.486, -41.062, -13.622, 22.22, 0.45224, -0.02423, -0.00513, 0.89151,
 15:48:46.764,c2:22:89:2b:7b:c3, 2015-01-01 01:03:46.765, 0.009, 0.068, 0.943, 14.038, -9.094, -0.488, -1.835, 2.362, 126.085, 59.486, -41.062, -13.622, 22.22, 0.45224, -0.02423, -0.00513, 0.89151,
 15:48:46.764,c2:22:89:2b:7b:c3, 2015-01-01 01:03:46.765, 0.017, 0.129, 0.945, 1.282, -2.502, -0.061, -1.807, 2.329, 126.079, 59.486, -41.062, -13.622, 22.22, 0.45224, -0.02423, -0.00513, 0.89151,
 15:48:46.764,c2:22:89:2b:7b:c3, 2015-01-01 01:03:46.765, -0.045, 0.061, 0.934, -10.803, 1.587, 0.366, -1.89, 2.34, 126.079, 59.486, -41.062, -13.622, 22.22, 0.45224, -0.02423, -0.00513, 0.89151,
 15:48:46.764,c2:22:89:2b:7b:c3, 2015-01-01 01:03:46.765, -0.209, -0.12, 0.924, -16.602, 6.836, 0.549, -2.054, 2.401, 126.074, 59.486, -41.062, -13.622, 22.22, 0.45224, -0.02423, -0.00513, 0.89151,
 15:48:46.822,c2:22:89:2b:7b:c3, 2015-01-01 01:03:46.765, -0.119, -0.262, 0.941, -8.423, 0.549, 0.183, -2.175, 2.439, 126.074, 59.486, -41.062, -13.622, 22.22, 0.45224, -0.02423, -0.00513, 0.89151,
 15:48:46.822,c2:22:89:2b:7b:c3, 2015-01-01 01:03:46.765, -0.108, -0.197, 0.886, 5.005, -6.531, -0.122, -2.175, 2.401, 126.068, 59.486, -41.062, -13.622, 22.22, 0.45224, -0.02423, -0.00513, 0.89151,
 15:48:46.822,c2:22:89:2b:7b:c3, 2015-01-01 01:03:46.765, -0.033, -0.109, 0.964, 10.62, -10.925, -0.183, -2.098, 2.313, 126.068, 59.486, -41.062, -13.622, 22.22, 0.45224, -0.02423, -0.00513, 0.89151,
 15:48:46.822,c2:22:89:2b:7b:c3, 2015-01-01 01:03:46.765, 0.036, 0, 0.96, 12.39, -12.695, -0.244, -1.989, 2.197, 126.068, 59.486, -41.062, -13.622, 22.22, 0.45224, -0.02423, -0.00513, 0.89151,
 15:48:46.853,c2:22:89:2b:7b:c3, 2015-01-01 01:03:46.765, 0.009, 0.067, 0.947, 4.211, -6.897, 0, -1.939, 2.12, 126.063, 59.486, -41.062, -13.622, 22.22, 0.45224, -0.02423, -0.00513, 0.89151,
 15:48:46.853,c2:22:89:2b:7b:c3, 2015-01-01 01:03:46.765, -0.035, 0.055, 0.965, -5.432, -2.747, 0.244, -1.978, 2.093, 126.063, 59.486, -41.062, -13.622, 22.22, 0.45224, -0.02423, -0.00513, 0.89151,
 15:48:46.853,c2:22:89:2b:7b:c3, 2015-01-01 01:03:46.765, -0.114, -0.041, 0.953, -11.414, 0.732, 0.305, -2.087, 2.098, 126.063, 59.486, -41.062, -13.622, 22.22, 0.45224, -0.02423, -0.00513, 0.89151,
 15:48:46.853,c2:22:89:2b:7b:c3, 2015-01-01 01:03:46.765, -0.104, -0.179, 0.945, -10.132, -0.305, 0.305, -2.208, 2.104, 126.063, 59.486, -41.062, -13.622, 22.22, 0.45224, -0.02423, -0.00513, 0.89151,
 15:48:46.885,c2:22:89:2b:7b:c3, 2015-01-01 01:03:46.765, -0.115, -0.199, 0.916, -0.732, -7.08, 0.183, -2.247, 2.06, 126.063, 59.486, -41.062, -13.622, 22.22, 0.45224, -0.02423, -0.00513, 0.89151,
 15:48:46.885,c2:22:89:2b:7b:c3, 2015-01-01 01:03:46.765, -0.041, -0.126, 0.953, 8.362, -10.62, 0, -2.197, 1.972, 126.063, 59.486, -41.062, -13.622, 22.22, 0.45224, -0.02423, -0.00513, 0.89151,
 15:48:46.885,c2:22:89:2b:7b:c3, 2015-01-01 01:03:46.765, 0.044, -0.029, 0.945, 10.193, -13.855, -0.183, -2.115, 1.851, 126.063, 59.486, -41.062, -13.622, 22.22, 0.45224, -0.02423, -0.00513, 0.89151,
 15:48:46.885,c2:22:89:2b:7b:c3, 2015-01-01 01:03:46.765, -0.004, 0.015, 0.959, 2.502, -11.963, 0.305, -2.076, 1.736, 126.068, 59.486, -41.062, -13.622, 22.22, 0.45224, -0.02423, -0.00513, 0.89151,
 15:48:46.943,c2:22:89:2b:7b:c3, 2015-01-01 01:03:46.765, -0.063, 0.006, 0.951, -1.953, -5.737, 0.061, -2.093, 1.675, 126.068, 59.486, -41.062, -13.622, 22.22, 0.45224, -0.02423, -0.00513, 0.89151,
 15:48:46.943,c2:22:89:2b:7b:c3, 2015-01-01 01:03:46.765, -0.056, -0.01, 0.913, -4.944, -3.662, 0.183, -2.148, 1.642, 126.068, 59.486, -41.062, -13.622, 22.22, 0.45224, -0.02423, -0.00513, 0.89151,
 15:48:46.943,c2:22:89:2b:7b:c3, 2015-01-01 01:03:46.765, -0.065, -0.091, 0.919, -9.277, -6.104, 0.366, -2.241, 1.593, 126.068, 59.486, -41.062, -13.622, 22.22, 0.45224, -0.02423, -0.00513, 0.89151,
 15:48:46.943,c2:22:89:2b:7b:c3, 2015-01-01 01:03:46.765, -0.046, -0.183, 0.961, -2.502, -9.399, 0, -2.296, 1.522, 126.074, 59.486, -41.062, -13.622, 22.22, 0.45224, -0.02423, -0.00513, 0.89151,
 15:48:46.975,c2:22:89:2b:7b:c3, 2015-01-01 01:03:46.765, -0.057, -0.132, 0.969, 4.578, -10.864, -0.061, -2.28, 1.423, 126.074, 59.584, -41.160, -14.112, 22.22, 0.45224, -0.02423, -0.00513, 0.89151,
 15:48:46.975,c2:22:89:2b:7b:c3, 2015-01-01 01:03:46.765, -0.018, -0.065, 1, 5.676, -12.817, 0.122, -2.236, 1.313, 126.079, 59.584, -41.160, -14.112, 22.22, 0.45224, -0.02423, -0.00513, 0.89151,
 15:48:46.975,c2:22:89:2b:7b:c3, 2015-01-01 01:03:46.765, 0.014, -0.017, 0.999, 5.798, -15.747, 0, -2.186, 1.176, 126.079, 59.584, -41.160, -14.112, 22.22, 0.45224, -0.02423, -0.00513, 0.89151,
 15:48:46.975,c2:22:89:2b:7b:c3, 2015-01-01 01:03:46.765, -0.012, 0.007, 0.938, 4.822, -12.695, 0, -2.153, 1.049, 126.085, 59.584, -41.160, -14.112, 22.22, 0.45224, -0.02423, -0.00513, 0.89151,
 15:48:47.004,c2:22:89:2b:7b:c3, 2015-01-01 01:03:46.765, -0.021, 0.051, 0.948, 2.747, -10.681, 0.183, -2.131, 0.945, 126.085, 59.584, -41.160, -14.112, 22.22, 0.45224, -0.02423, -0.00513, 0.89151,
 15:48:47.004,c2:22:89:2b:7b:c3, 2015-01-01 01:03:46.765, 0.033, 0.084, 0.985, -0.244, -12.207, 0.122, -2.126, 0.84, 126.09, 59.584, -41.160, -14.112, 22.22, 0.45224, -0.02423, -0.00513, 0.89151,
 15:48:47.004,c2:22:89:2b:7b:c3, 2015-01-01 01:03:46.765, 0.004, 0, 0.971, -6.897, -9.338, 0.244, -2.181, 0.742, 126.09, 59.584, -41.160, -14.112, 22.22, 0.45224, -0.02423, -0.00513, 0.89151,
 15:48:47.004,c2:22:89:2b:7b:c3, 2015-01-01 01:03:46.765, -0.062, -0.077, 0.96, -7.935, -6.287, 0.549, -2.263, 0.676, 126.096, 59.584, -41.160, -14.112, 22.22, 0.45224, -0.02423, -0.00513, 0.89151,
 15:48:47.063,c2:22:89:2b:7b:c3, 2015-01-01 01:03:46.765, -0.119, -0.105, 0.958, -5.554, -8.057, 0.305, -2.324, 0.61, 126.096, 59.584, -41.160, -14.112, 22.22, 0.45303, -0.01431, -0.0145, 0.8912,
 15:48:47.063,c2:22:89:2b:7b:c3, 2015-01-01 01:03:46.765, -0.039, -0.129, 0.923, 1.526, -12.085, 0, -2.34, 0.511, 126.101, 59.584, -41.160, -14.112, 22.22, 0.45303, -0.01431, -0.0145, 0.8912,
 15:48:47.063,c2:22:89:2b:7b:c3, 2015-01-01 01:03:46.765, 0.02, -0.065, 0.948, 8.362, -18.127, -0.122, -2.28, 0.357, 126.107, 59.584, -41.160, -14.112, 22.22, 0.45303, -0.01431, -0.0145, 0.8912,
 15:48:47.063,c2:22:89:2b:7b:c3, 2015-01-01 01:03:46.765, 0.034, 0.018, 1.001, 7.69, -18.921, 0.122, -2.197, 0.176, 126.112, 59.584, -41.160, -14.112, 22.22, 0.45303, -0.01431, -0.0145, 0.8912,
 15:48:47.093,c2:22:89:2b:7b:c3, 2015-01-01 01:03:47.125, 0.061, 0.053, 0.987, 6.042, -15.503, 0.061, -2.137, 0.027, 126.118, 59.584, -41.160, -14.112, 22.22, 0.45303, -0.01431, -0.0145, 0.8912,
 15:48:47.093,c2:22:89:2b:7b:c3, 2015-01-01 01:03:47.125, 0.044, 0.092, 0.965, -0.244, -12.939, 0.183, -2.115, -0.099, 126.118, 59.584, -41.160, -14.112, 22.22, 0.45303, -0.01431, -0.0145, 0.8912,
 15:48:47.093,c2:22:89:2b:7b:c3, 2015-01-01 01:03:47.125, -0.01, 0.025, 0.979, -8.606, -9.705, 0.61, -2.175, -0.192, 126.123, 59.584, -41.160, -14.112, 22.22, 0.45303, -0.01431, -0.0145, 0.8912,
 15:48:47.093,c2:22:89:2b:7b:c3, 2015-01-01 01:03:47.125, -0.023, -0.059, 0.982, -8.606, -7.812, 0.305, -2.258, -0.269, 126.129, 59.584, -41.160, -14.112, 22.22, 0.45303, -0.01431, -0.0145, 0.8912,
 15:48:47.123,c2:22:89:2b:7b:c3, 2015-01-01 01:03:47.125, -0.043, -0.121, 0.966, -5.737, -10.437, 0.549, -2.324, -0.357, 126.134, 59.584, -41.160, -14.112, 22.22, 0.45303, -0.01431, -0.0145, 0.8912,
 15:48:47.123,c2:22:89:2b:7b:c3, 2015-01-01 01:03:47.125, -0.05, -0.118, 0.989, 1.709, -14.465, 0.305, -2.318, -0.483, 126.14, 59.584, -41.160, -14.112, 22.22, 0.45303, -0.01431, -0.0145, 0.8912,
 15:48:47.123,c2:22:89:2b:7b:c3, 2015-01-01 01:03:47.125, 0.05, -0.038, 0.985, 9.949, -18.921, -0.183, -2.241, -0.648, 126.145, 59.584, -41.160, -14.112, 22.22, 0.45303, -0.01431, -0.0145, 0.8912,
 15:48:47.123,c2:22:89:2b:7b:c3, 2015-01-01 01:03:47.125, 0.101, 0.04, 0.981, 7.019, -20.081, 0.061, -2.153, -0.84, 126.151, 59.584, -41.160, -14.112, 22.22, 0.45303, -0.01431, -0.0145, 0.8912,
 15:48:47.212,c2:22:89:2b:7b:c3, 2015-01-01 01:03:47.125, 0.032, 0.045, 0.988, 2.319, -16.724, 0.122, -2.12, -1.011, 126.156, 59.584, -41.160, -14.112, 22.22, 0.45303, -0.01431, -0.0145, 0.8912,
 15:48:47.212,c2:22:89:2b:7b:c3, 2015-01-01 01:03:47.125, 0.055, 0.079, 1, -0.366, -11.658, 0.244, -2.109, -1.126, 126.161, 59.584, -41.160, -14.112, 22.22, 0.45303, -0.01431, -0.0145, 0.8912,
 15:48:47.212,c2:22:89:2b:7b:c3, 2015-01-01 01:03:47.125, 0.018, 0.036, 0.963, -7.935, -10.376, 0.427, -2.159, -1.225, 126.167, 59.584, -41.160, -14.112, 22.22, 0.45303, -0.01431, -0.0145, 0.8912,
 15:48:47.212,c2:22:89:2b:7b:c3, 2015-01-01 01:03:47.125, -0.017, -0.077, 0.997, -9.216, -10.62, 0.671, -2.247, -1.324, 126.172, 59.584, -41.160, -14.112, 22.22, 0.45303, -0.01431, -0.0145, 0.8912,
 15:48:47.214,c2:22:89:2b:7b:c3, 2015-01-01 01:03:47.125, -0.017, -0.096, 1.008, -1.465, -11.475, 0.122, -2.274, -1.434, 126.178, 59.584, -41.160, -14.112, 22.22, 0.45303, -0.01431, -0.0145, 0.8912,
 15:48:47.214,c2:22:89:2b:7b:c3, 2015-01-01 01:03:47.125, 0.017, -0.066, 0.986, 3.845, -16.418, 0, -2.247, -1.571, 126.183, 59.584, -41.160, -14.112, 22.22, 0.45303, -0.01431, -0.0145, 0.8912,
 15:48:47.214,c2:22:89:2b:7b:c3, 2015-01-01 01:03:47.125, 0.069, -0.017, 1.004, 7.202, -20.02, -0.061, -2.175, -1.758, 126.189, 59.584, -41.160, -14.112, 22.22, 0.45303, -0.01431, -0.0145, 0.8912,
 15:48:47.214,c2:22:89:2b:7b:c3, 2015-01-01 01:03:47.125, 0.11, 0.052, 1.018, 7.446, -18.738, -0.122, -2.098, -1.945, 126.2, 59.584, -41.160, -14.112, 22.22, 0.45303, -0.01431, -0.0145, 0.8912,
 15:48:47.243,c2:22:89:2b:7b:c3, 2015-01-01 01:03:47.125, 0.071, 0.082, 1, 0.488, -12.817, 0.122, -2.071, -2.082, 126.2, 59.584, -41.160, -14.112, 22.22, 0.45303, -0.01431, -0.0145, 0.8912,
 15:48:47.243,c2:22:89:2b:7b:c3, 2015-01-01 01:03:47.125, 0.048, 0.033, 1.001, -5.432, -12.024, 0.671, -2.109, -2.197, 126.211, 59.584, -41.160, -14.112, 22.22, 0.45303, -0.01431, -0.0145, 0.8912,
 15:48:47.243,c2:22:89:2b:7b:c3, 2015-01-01 01:03:47.125, 0.01, -0.027, 1.033, -5.066, -10.376, 0.549, -2.159, -2.302, 126.216, 59.584, -41.160, -14.112, 22.22, 0.45303, -0.01431, -0.0145, 0.8912,
 15:48:47.243,c2:22:89:2b:7b:c3, 2015-01-01 01:03:47.125, 0.019, -0.05, 1.022, -2.625, -11.597, 0.366, -2.186, -2.406, 126.222, 59.584, -41.160, -14.112, 22.22, 0.45303, -0.01431, -0.0145, 0.8912,
 15:48:47.304,c2:22:89:2b:7b:c3, 2015-01-01 01:03:47.125, 0.036, -0.059, 0.99, 0.244, -15.442, 0.244, -2.181, -2.549, 126.227, 59.584, -41.160, -14.112, 22.22, 0.45303, -0.01431, -0.0145, 0.8912,
 15:48:47.304,c2:22:89:2b:7b:c3, 2015-01-01 01:03:47.125, 0.06, -0.049, 1.005, 4.578, -16.479, 0.061, -2.148, -2.703, 126.238, 59.584, -41.160, -14.112, 22.22, 0.45303, -0.01431, -0.0145, 0.8912,
 15:48:47.304,c2:22:89:2b:7b:c3, 2015-01-01 01:03:47.125, 0.097, 0.019, 1.013, 6.897, -16.602, -0.183, -2.076, -2.867, 126.244, 59.584, -41.160, -14.112, 22.22, 0.45303, -0.01431, -0.0145, 0.8912,
 15:48:47.304,c2:22:89:2b:7b:c3, 2015-01-01 01:03:47.125, 0.082, 0.076, 1.003, 2.869, -14.771, 0, -2.032, -3.016, 126.249, 59.584, -41.160, -14.112, 22.22, 0.45303, -0.01431, -0.0145, 0.8912,
 15:48:47.335,c2:22:89:2b:7b:c3, 2015-01-01 01:03:47.125, 0.116, 0.024, 1.032, -2.441, -12.39, 0.183, -2.038, -3.137, 126.255, 57.624, -42.140, -13.328, 22.22, 0.45303, -0.01431, -0.0145, 0.8912,
 15:48:47.335,c2:22:89:2b:7b:c3, 2015-01-01 01:03:47.125, 0.038, -0.009, 1.023, -5.066, -12.085, 0.488, -2.071, -3.257, 126.26, 57.624, -42.140, -13.328, 22.22, 0.45303, -0.01431, -0.0145, 0.8912,
 15:48:47.335,c2:22:89:2b:7b:c3, 2015-01-01 01:03:47.125, 0.021, -0.046, 1.045, -2.747, -9.644, 0.305, -2.098, -3.351, 126.271, 57.624, -42.140, -13.328, 22.22, 0.45303, -0.01431, -0.0145, 0.8912,
 15:48:47.335,c2:22:89:2b:7b:c3, 2015-01-01 01:03:47.125, 0.071, -0.022, 0.995, 1.465, -12.39, 0, -2.087, -3.466, 126.277, 57.624, -42.140, -13.328, 22.22, 0.45303, -0.01431, -0.0145, 0.8912,
 15:48:47.363,c2:22:89:2b:7b:c3, 2015-01-01 01:03:47.125, 0.117, -0.027, 1.017, 1.465, -15.747, 0.183, -2.06, -3.609, 126.282, 57.624, -42.140, -13.328, 22.22, 0.45303, -0.01431, -0.0145, 0.8912,
 15:48:47.363,c2:22:89:2b:7b:c3, 2015-01-01 01:03:47.125, 0.104, -0.011, 1.05, 4.15, -15.808, 0.122, -2.021, -3.763, 126.293, 57.624, -42.140, -13.328, 22.22, 0.45303, -0.01431, -0.0145, 0.8912,
 15:48:47.363,c2:22:89:2b:7b:c3, 2015-01-01 01:03:47.125, 0.074, 0.072, 1.044, 3.601, -10.437, 0.061, -1.967, -3.878, 126.293, 57.624, -42.140, -13.328, 22.22, 0.45303, -0.01431, -0.0145, 0.8912,
 15:48:47.363,c2:22:89:2b:7b:c3, 2015-01-01 01:03:47.125, 0.105, 0.059, 1.019, -2.747, -11.658, 0.427, -1.972, -3.983, 126.304, 57.624, -42.140, -13.328, 22.22, 0.45303, -0.01431, -0.0145, 0.8912,
 15:48:47.423,c2:22:89:2b:7b:c3, 2015-01-01 01:03:47.125, 0.083, -0.023, 1.037, -4.883, -11.414, 0.61, -2.005, -4.098, 126.31, 57.624, -42.140, -13.328, 22.22, 0.45184, 0.0224, -0.03061, 0.89124,
 15:48:47.423,c2:22:89:2b:7b:c3, 2015-01-01 01:03:47.125, 0.049, -0.032, 1.044, 0.488, -9.644, 0.061, -2, -4.197, 126.315, 57.624, -42.140, -13.328, 22.22, 0.45184, 0.0224, -0.03061, 0.89124,
 15:48:47.423,c2:22:89:2b:7b:c3, 2015-01-01 01:03:47.125, 0.119, 0.011, 1.046, 2.075, -10.437, 0, -1.972, -4.296, 126.321, 57.624, -42.140, -13.328, 22.22, 0.45184, 0.0224, -0.03061, 0.89124,
 15:48:47.423,c2:22:89:2b:7b:c3, 2015-01-01 01:03:47.125, 0.115, 0.009, 1.049, 0.427, -13.306, 0.427, -1.95, -4.422, 126.332, 57.624, -42.140, -13.328, 22.22, 0.45184, 0.0224, -0.03061, 0.89124,
 15:48:47.453,c2:22:89:2b:7b:c3, 2015-01-01 01:03:47.480, 0.094, 0.011, 1.056, 1.099, -9.644, 0.122, -1.934, -4.526, 126.337, 57.624, -42.140, -13.328, 22.22, 0.45184, 0.0224, -0.03061, 0.89124,
 15:48:47.453,c2:22:89:2b:7b:c3, 2015-01-01 01:03:47.480, 0.099, 0.031, 1.037, -0.854, -8.972, 0.061, -1.923, -4.614, 126.343, 57.624, -42.140, -13.328, 22.22, 0.45184, 0.0224, -0.03061, 0.89124,
 15:48:47.453,c2:22:89:2b:7b:c3, 2015-01-01 01:03:47.480, 0.12, 0, 1.052, -2.258, -9.888, 0.366, -1.928, -4.713, 126.348, 57.624, -42.140, -13.328, 22.22, 0.45184, 0.0224, -0.03061, 0.89124,
 15:48:47.453,c2:22:89:2b:7b:c3, 2015-01-01 01:03:47.480, 0.079, -0.027, 1.057, 0, -9.155, 0.122, -1.923, -4.807, 126.354, 57.624, -42.140, -13.328, 22.22, 0.45184, 0.0224, -0.03061, 0.89124,
 15:48:47.483,c2:22:89:2b:7b:c3, 2015-01-01 01:03:47.480, 0.107, 0.012, 1.045, 1.526, -8.179, 0, -1.895, -4.883, 126.359, 57.624, -42.140, -13.328, 22.22, 0.45184, 0.0224, -0.03061, 0.89124,
 15:48:47.483,c2:22:89:2b:7b:c3, 2015-01-01 01:03:47.480, 0.142, 0.016, 1.041, 0.549, -10.132, 0.122, -1.879, -4.977, 126.365, 57.624, -42.140, -13.328, 22.22, 0.45184, 0.0224, -0.03061, 0.89124,
 15:48:47.483,c2:22:89:2b:7b:c3, 2015-01-01 01:03:47.480, 0.1, 0.005, 1.061, 0.488, -8.179, 0.305, -1.862, -5.07, 126.376, 57.624, -42.140, -13.328, 22.22, 0.45184, 0.0224, -0.03061, 0.89124,
 15:48:47.483,c2:22:89:2b:7b:c3, 2015-01-01 01:03:47.480, 0.114, 0.034, 1.058, 0.549, -6.775, 0, -1.846, -5.136, 126.381, 57.624, -42.140, -13.328, 22.22, 0.45184, 0.0224, -0.03061, 0.89124,
 15:48:47.542,c2:22:89:2b:7b:c3, 2015-01-01 01:03:47.480, 0.11, 0.005, 1.046, -3.296, -7.629, 0.366, -1.851, -5.208, 126.387, 57.624, -42.140, -13.328, 22.22, 0.45184, 0.0224, -0.03061, 0.89124,
 15:48:47.542,c2:22:89:2b:7b:c3, 2015-01-01 01:03:47.480, 0.121, -0.043, 1.066, 0, -7.324, 0.061, -1.857, -5.284, 126.392, 57.624, -42.140, -13.328, 22.22, 0.45184, 0.0224, -0.03061, 0.89124,
 15:48:47.542,c2:22:89:2b:7b:c3, 2015-01-01 01:03:47.480, 0.113, 0.022, 1.063, 3.418, -6.897, -0.244, -1.813, -5.35, 126.398, 57.624, -42.140, -13.328, 22.22, 0.45184, 0.0224, -0.03061, 0.89124,
 15:48:47.542,c2:22:89:2b:7b:c3, 2015-01-01 01:03:47.480, 0.13, 0.053, 1.063, 0.305, -6.104, 0.244, -1.791, -5.416, 126.403, 57.624, -42.140, -13.328, 22.22, 0.45184, 0.0224, -0.03061, 0.89124,
 15:48:47.573,c2:22:89:2b:7b:c3, 2015-01-01 01:03:47.480, 0.134, 0.011, 1.059, -1.282, -5.981, 0.122, -1.791, -5.477, 126.409, 57.624, -42.140, -13.328, 22.22, 0.45184, 0.0224, -0.03061, 0.89124,
 15:48:47.573,c2:22:89:2b:7b:c3, 2015-01-01 01:03:47.480, 0.103, -0.019, 1.058, -3.113, -3.906, 0.366, -1.802, -5.521, 126.414, 57.624, -42.140, -13.328, 22.22, 0.45184, 0.0224, -0.03061, 0.89124,
 15:48:47.573,c2:22:89:2b:7b:c3, 2015-01-01 01:03:47.480, 0.119, -0.059, 1.07, -0.793, -3.845, 0.183, -1.807, -5.559, 126.42, 57.624, -42.140, -13.328, 22.22, 0.45184, 0.0224, -0.03061, 0.89124,
 15:48:47.573,c2:22:89:2b:7b:c3, 2015-01-01 01:03:47.480, 0.136, 0.005, 1.087, 3.784, -5.554, -0.183, -1.769, -5.614, 126.425, 57.624, -42.140, -13.328, 22.22, 0.45184, 0.0224, -0.03061, 0.89124,
 15:48:47.603,c2:22:89:2b:7b:c3, 2015-01-01 01:03:47.480, 0.128, 0.04, 1.07, 0.977, -3.967, -0.061, -1.736, -5.658, 126.431, 57.624, -42.140, -13.328, 22.22, 0.45184, 0.0224, -0.03061, 0.89124,
 15:48:47.603,c2:22:89:2b:7b:c3, 2015-01-01 01:03:47.480, 0.133, -0.003, 1.05, -3.357, -2.808, 0.122, -1.747, -5.691, 126.436, 57.624, -42.140, -13.328, 22.22, 0.45184, 0.0224, -0.03061, 0.89124,
 15:48:47.603,c2:22:89:2b:7b:c3, 2015-01-01 01:03:47.480, 0.074, -0.054, 1.048, -3.174, -2.136, 0.305, -1.774, -5.718, 126.442, 57.624, -42.140, -13.328, 22.22, 0.45184, 0.0224, -0.03061, 0.89124,
 15:48:47.603,c2:22:89:2b:7b:c3, 2015-01-01 01:03:47.480, 0.058, -0.069, 1.047, 2.197, -1.587, 0.244, -1.763, -5.735, 126.447, 57.624, -42.140, -13.328, 22.22, 0.45184, 0.0224, -0.03061, 0.89124,
 15:48:47.663,c2:22:89:2b:7b:c3, 2015-01-01 01:03:47.480, 0.224, 0.104, 1.034, 11.108, -7.019, -0.244, -1.664, -5.784, 126.453, 57.624, -42.140, -13.328, 22.22, 0.45184, 0.0224, -0.03061, 0.89124,
 15:48:47.663,c2:22:89:2b:7b:c3, 2015-01-01 01:03:47.480, 0.142, 0.242, 1.047, 5.066, -3.967, -0.244, -1.571, -5.839, 126.458, 57.624, -42.140, -13.328, 22.22, 0.45184, 0.0224, -0.03061, 0.89124,
 15:48:47.663,c2:22:89:2b:7b:c3, 2015-01-01 01:03:47.480, 0.19, 0.151, 1.076, -4.517, -0.61, 0, -1.577, -5.85, 126.458, 57.624, -42.140, -13.328, 22.22, 0.45184, 0.0224, -0.03061, 0.89124,
 15:48:47.663,c2:22:89:2b:7b:c3, 2015-01-01 01:03:47.480, 0.174, 0.001, 1.065, -11.536, 1.953, 0.549, -1.659, -5.845, 126.464, 57.624, -42.140, -13.328, 22.22, 0.45184, 0.0224, -0.03061, 0.89124,
 15:48:47.725,c2:22:89:2b:7b:c3, 2015-01-01 01:03:47.480, 0.023, -0.18, 1.115, -12.268, 6.531, 0.732, -1.769, -5.801, 126.475, 56.056, -43.120, -12.054, 22.22, 0.45184, 0.0224, -0.03061, 0.89124,
 15:48:47.725,c2:22:89:2b:7b:c3, 2015-01-01 01:03:47.480, 0.005, -0.194, 1.131, 0.183, 3.357, 0.061, -1.791, -5.751, 126.48, 56.056, -43.120, -12.054, 22.22, 0.45184, 0.0224, -0.03061, 0.89124,
 15:48:47.725,c2:22:89:2b:7b:c3, 2015-01-01 01:03:47.480, 0.194, -0.059, 1.049, 12.329, -4.15, -0.305, -1.686, -5.779, 126.48, 56.056, -43.120, -12.054, 22.22, 0.45184, 0.0224, -0.03061, 0.89124,
 15:48:47.725,c2:22:89:2b:7b:c3, 2015-01-01 01:03:47.480, 0.242, 0.174, 1.091, 15.015, -11.108, -0.244, -1.538, -5.872, 126.486, 56.056, -43.120, -12.054, 22.22, 0.45184, 0.0224, -0.03061, 0.89124,
 15:48:47.725,c2:22:89:2b:7b:c3, 2015-01-01 01:03:47.480, 0.052, 0.216, 1.059, 5.615, 4.639, -0.244, -1.445, -5.872, 126.486, 56.056, -43.120, -12.054, 22.22, 0.45184, 0.0224, -0.03061, 0.89124,
 15:48:47.725,c2:22:89:2b:7b:c3, 2015-01-01 01:03:47.480, 0.151, 0.119, 0.958, -6.47, 3.906, 0.244, -1.472, -5.823, 126.491, 56.056, -43.120, -12.054, 22.22, 0.45184, 0.0224, -0.03061, 0.89124,
 15:48:47.725,c2:22:89:2b:7b:c3, 2015-01-01 01:03:47.480, 0.128, -0.017, 0.998, -12.085, 3.784, 0.549, -1.566, -5.795, 126.491, 56.056, -43.120, -12.054, 22.22, 0.45184, 0.0224, -0.03061, 0.89124,
 15:48:47.725,c2:22:89:2b:7b:c3, 2015-01-01 01:03:47.480, 0.099, -0.18, 1.12, -5.92, 5.432, 0.183, -1.631, -5.746, 126.497, 56.056, -43.120, -12.054, 22.22, 0.45184, 0.0224, -0.03061, 0.89124,
 15:48:47.784,c2:22:89:2b:7b:c3, 2015-01-01 01:03:47.480, 0.013, -0.117, 1.094, 4.272, 5.554, -0.122, -1.604, -5.696, 126.502, 56.056, -43.120, -12.054, 22.22, 0.45184, 0.0224, -0.03061, 0.89124,
 15:48:47.784,c2:22:89:2b:7b:c3, 2015-01-01 01:03:47.480, 0.215, 0.007, 1.059, 8.85, 1.831, -0.305, -1.516, -5.669, 126.502, 56.056, -43.120, -12.054, 22.22, 0.45184, 0.0224, -0.03061, 0.89124,
 15:48:47.784,c2:22:89:2b:7b:c3, 2015-01-01 01:03:47.480, 0.212, 0.08, 1.118, 4.578, -3.601, 0, -1.439, -5.702, 126.502, 56.056, -43.120, -12.054, 22.22, 0.45184, 0.0224, -0.03061, 0.89124,
 15:48:47.784,c2:22:89:2b:7b:c3, 2015-01-01 01:03:47.480, 0.079, 0.085, 1.13, -0.061, 8.179, 0.244, -1.423, -5.658, 126.508, 56.056, -43.120, -12.054, 22.22, 0.45184, 0.0224, -0.03061, 0.89124,
 15:48:47.844,c2:22:89:2b:7b:c3, 2015-01-01 01:03:47.480, 0.119, 0.104, 1.037, -2.441, 7.202, -0.061, -1.417, -5.587, 126.508, 56.056, -43.120, -12.054, 22.22, 0.45004, 0.03821, -0.03409, 0.89148,
 15:48:47.844,c2:22:89:2b:7b:c3, 2015-01-01 01:03:47.480, 0.11, 0.014, 1.022, -6.958, 7.507, 0.366, -1.467, -5.521, 126.513, 56.056, -43.120, -12.054, 22.22, 0.45004, 0.03821, -0.03409, 0.89148,
 15:48:47.844,c2:22:89:2b:7b:c3, 2015-01-01 01:03:47.480, 0.133, -0.121, 1.096, -3.662, 5.371, 0.122, -1.505, -5.466, 126.513, 56.056, -43.120, -12.054, 22.22, 0.45004, 0.03821, -0.03409, 0.89148,
 15:48:47.844,c2:22:89:2b:7b:c3, 2015-01-01 01:03:47.480, 0.044, -0.059, 1.069, 4.883, 7.08, -0.366, -1.467, -5.411, 126.513, 56.056, -43.120, -12.054, 22.22, 0.45004, 0.03821, -0.03409, 0.89148,
 15:48:47.875,c2:22:89:2b:7b:c3, 2015-01-01 01:03:47.480, 0.137, 0.016, 1.032, 4.272, 7.751, -0.183, -1.412, -5.334, 126.513, 56.056, -43.120, -12.054, 22.22, 0.45004, 0.03821, -0.03409, 0.89148,
 15:48:47.875,c2:22:89:2b:7b:c3, 2015-01-01 01:03:47.480, 0.156, 0.067, 1.026, 2.625, 3.052, -0.183, -1.368, -5.301, 126.513, 56.056, -43.120, -12.054, 22.22, 0.45004, 0.03821, -0.03409, 0.89148,
 15:48:47.875,c2:22:89:2b:7b:c3, 2015-01-01 01:03:47.480, 0.085, 0.027, 1.047, -1.526, 9.033, 0, -1.368, -5.235, 126.513, 56.056, -43.120, -12.054, 22.22, 0.45004, 0.03821, -0.03409, 0.89148,
 15:48:47.875,c2:22:89:2b:7b:c3, 2015-01-01 01:03:47.480, 0.096, 0.044, 1.041, -0.366, 9.521, -0.366, -1.357, -5.147, 126.513, 56.056, -43.120, -12.054, 22.22, 0.45004, 0.03821, -0.03409, 0.89148,
 15:48:47.933,c2:22:89:2b:7b:c3, 2015-01-01 01:03:47.925, 0.118, 0.021, 1.038, -2.869, 9.033, -0.122, -1.368, -5.059, 126.513, 56.056, -43.120, -12.054, 22.22, 0.45004, 0.03821, -0.03409, 0.89148,
 15:48:47.933,c2:22:89:2b:7b:c3, 2015-01-01 01:03:47.925, 0.117, -0.057, 1.057, -2.563, 7.874, 0.061, -1.39, -4.988, 126.513, 56.056, -43.120, -12.054, 22.22, 0.45004, 0.03821, -0.03409, 0.89148,
 15:48:47.933,c2:22:89:2b:7b:c3, 2015-01-01 01:03:47.925, 0.085, -0.048, 1.066, 2.38, 9.583, 0, -1.368, -4.905, 126.513, 56.056, -43.120, -12.054, 22.22, 0.45004, 0.03821, -0.03409, 0.89148,
 15:48:47.933,c2:22:89:2b:7b:c3, 2015-01-01 01:03:47.925, 0.11, 0.036, 1.067, 2.808, 9.155, -0.183, -1.324, -4.818, 126.508, 56.056, -43.120, -12.054, 22.22, 0.45004, 0.03821, -0.03409, 0.89148,
 15:48:47.933,c2:22:89:2b:7b:c3, 2015-01-01 01:03:47.925, 0.114, 0.048, 1.063, 0.244, 8.972, 0, -1.302, -4.735, 126.508, 56.056, -43.120, -12.054, 22.22, 0.45004, 0.03821, -0.03409, 0.89148,
 15:48:47.933,c2:22:89:2b:7b:c3, 2015-01-01 01:03:47.925, 0.104, 0.043, 1.056, 1.221, 9.583, -0.671, -1.285, -4.653, 126.508, 56.056, -43.120, -12.054, 22.22, 0.45004, 0.03821, -0.03409, 0.89148,
 15:48:47.933,c2:22:89:2b:7b:c3, 2015-01-01 01:03:47.925, 0.073, 0.014, 1.022, -1.953, 11.841, -0.061, -1.291, -4.548, 126.502, 56.056, -43.120, -12.054, 22.22, 0.45004, 0.03821, -0.03409, 0.89148,
 15:48:47.933,c2:22:89:2b:7b:c3, 2015-01-01 01:03:47.925, 0.114, -0.024, 1.024, -0.732, 11.047, 0, -1.296, -4.438, 126.502, 56.056, -43.120, -12.054, 22.22, 0.45004, 0.03821, -0.03409, 0.89148,
 15:48:47.994,c2:22:89:2b:7b:c3, 2015-01-01 01:03:47.925, 0.073, -0.037, 1.062, 0.488, 10.681, 0.061, -1.285, -4.34, 126.502, 56.056, -43.120, -12.054, 22.22, 0.45004, 0.03821, -0.03409, 0.89148,
 15:48:47.994,c2:22:89:2b:7b:c3, 2015-01-01 01:03:47.925, 0.092, -0.008, 1.026, 0.427, 12.207, -0.122, -1.269, -4.235, 126.497, 56.056, -43.120, -12.054, 22.22, 0.45004, 0.03821, -0.03409, 0.89148,
 15:48:47.994,c2:22:89:2b:7b:c3, 2015-01-01 01:03:47.925, 0.123, 0.031, 1.021, 0.488, 10.803, -0.061, -1.252, -4.136, 126.491, 56.056, -43.120, -12.054, 22.22, 0.45004, 0.03821, -0.03409, 0.89148,
 15:48:47.994,c2:22:89:2b:7b:c3, 2015-01-01 01:03:47.925, 0.097, -0.012, 1.019, -3.479, 12.512, -0.244, -1.263, -4.032, 126.486, 56.056, -43.120, -12.054, 22.22, 0.45004, 0.03821, -0.03409, 0.89148,
 15:48:48.023,c2:22:89:2b:7b:c3, 2015-01-01 01:03:47.925, 0.05, -0.094, 1.005, -5.737, 15.747, 0, -1.313, -3.895, 126.486, 56.056, -43.120, -12.054, 22.22, 0.45004, 0.03821, -0.03409, 0.89148,
 15:48:48.023,c2:22:89:2b:7b:c3, 2015-01-01 01:03:47.925, 0.042, -0.094, 1.015, -3.113, 14.771, -0.061, -1.346, -3.752, 126.486, 56.056, -43.120, -12.054, 22.22, 0.45004, 0.03821, -0.03409, 0.89148,
 15:48:48.023,c2:22:89:2b:7b:c3, 2015-01-01 01:03:47.925, 0.003, -0.124, 1.021, -0.977, 12.756, 0.061, -1.362, -3.631, 126.48, 56.056, -43.120, -12.054, 22.22, 0.45004, 0.03821, -0.03409, 0.89148,
 15:48:48.023,c2:22:89:2b:7b:c3, 2015-01-01 01:03:47.925, 0.065, -0.081, 1.034, 6.653, 10.071, -0.488, -1.318, -3.527, 126.48, 56.056, -43.120, -12.054, 22.22, 0.45004, 0.03821, -0.03409, 0.89148,
 15:48:48.053,c2:22:89:2b:7b:c3, 2015-01-01 01:03:47.925, 0.178, 0.021, 1.018, 9.399, 6.531, -0.732, -1.23, -3.466, 126.475, 56.056, -43.120, -12.054, 22.22, 0.45004, 0.03821, -0.03409, 0.89148,
 15:48:48.053,c2:22:89:2b:7b:c3, 2015-01-01 01:03:47.925, 0.05, 0.092, 1.008, 2.136, 11.475, -0.305, -1.187, -3.384, 126.469, 56.056, -43.120, -12.054, 22.22, 0.45004, 0.03821, -0.03409, 0.89148,
 15:48:48.053,c2:22:89:2b:7b:c3, 2015-01-01 01:03:47.925, 0.129, 0.023, 1.05, -2.258, 15.198, -0.427, -1.198, -3.235, 126.464, 56.056, -43.120, -12.054, 22.22, 0.45004, 0.03821, -0.03409, 0.89148,
 15:48:48.053,c2:22:89:2b:7b:c3, 2015-01-01 01:03:47.925, 0.039, 0.01, 1.02, -8.423, 15.686, 0.183, -1.252, -3.098, 126.458, 56.056, -43.120, -12.054, 22.22, 0.45004, 0.03821, -0.03409, 0.89148,
 15:48:48.113,c2:22:89:2b:7b:c3, 2015-01-01 01:03:47.925, 0.006, -0.148, 1.06, -8.911, 17.578, 0.122, -1.346, -2.933, 126.458, 56.056, -43.120, -12.054, 22.22, 0.45004, 0.03821, -0.03409, 0.89148,
 15:48:48.113,c2:22:89:2b:7b:c3, 2015-01-01 01:03:47.925, 0.013, -0.133, 1.006, 0.305, 15.503, -0.305, -1.368, -2.785, 126.453, 56.056, -43.120, -12.054, 22.22, 0.45004, 0.03821, -0.03409, 0.89148,
 15:48:48.113,c2:22:89:2b:7b:c3, 2015-01-01 01:03:47.925, 0.012, -0.067, 0.976, 4.028, 11.78, -0.305, -1.329, -2.664, 126.447, 56.056, -43.120, -12.054, 22.22, 0.45004, 0.03821, -0.03409, 0.89148,
 15:48:48.113,c2:22:89:2b:7b:c3, 2015-01-01 01:03:47.925, 0.104, -0.042, 1.016, 5.92, 7.935, -0.305, -1.28, -2.582, 126.442, 56.056, -43.120, -12.054, 22.22, 0.45004, 0.03821, -0.03409, 0.89148,
 15:48:48.143,c2:22:89:2b:7b:c3, 2015-01-01 01:03:47.925, 0.091, 0.006, 1.002, 7.019, 8.789, -0.549, -1.214, -2.51, 126.436, 56.742, -42.336, -12.152, 22.22, 0.45004, 0.03821, -0.03409, 0.89148,
 15:48:48.143,c2:22:89:2b:7b:c3, 2015-01-01 01:03:47.925, 0.063, 0.067, 0.985, -0.977, 15.381, -0.244, -1.198, -2.384, 126.431, 56.742, -42.336, -12.152, 22.22, 0.45004, 0.03821, -0.03409, 0.89148,
 15:48:48.143,c2:22:89:2b:7b:c3, 2015-01-01 01:03:47.925, 0.037, 0.003, 0.981, -6.775, 16.174, 0, -1.247, -2.23, 126.425, 56.742, -42.336, -12.152, 22.22, 0.45004, 0.03821, -0.03409, 0.89148,
 15:48:48.143,c2:22:89:2b:7b:c3, 2015-01-01 01:03:47.925, 0.034, -0.062, 1.022, -8.118, 17.456, 0, -1.324, -2.065, 126.42, 56.742, -42.336, -12.152, 22.22, 0.45004, 0.03821, -0.03409, 0.89148,
 15:48:48.174,c2:22:89:2b:7b:c3, 2015-01-01 01:03:47.925, -0.052, -0.137, 0.991, -5.066, 17.029, 0.061, -1.384, -1.912, 126.414, 56.742, -42.336, -12.152, 22.22, 0.45004, 0.03821, -0.03409, 0.89148,
 15:48:48.174,c2:22:89:2b:7b:c3, 2015-01-01 01:03:47.925, 0.011, -0.11, 0.988, 1.648, 13.733, -0.427, -1.39, -1.769, 126.409, 56.742, -42.336, -12.152, 22.22, 0.45004, 0.03821, -0.03409, 0.89148,
 15:48:48.174,c2:22:89:2b:7b:c3, 2015-01-01 01:03:47.925, 0.057, -0.064, 0.988, 5.92, 9.521, -0.549, -1.346, -1.67, 126.403, 56.742, -42.336, -12.152, 22.22, 0.45004, 0.03821, -0.03409, 0.89148,
 15:48:48.174,c2:22:89:2b:7b:c3, 2015-01-01 01:03:47.925, 0.065, -0.031, 1.022, 5.554, 8.179, -0.061, -1.291, -1.599, 126.398, 56.742, -42.336, -12.152, 22.22, 0.45004, 0.03821, -0.03409, 0.89148,
 15:48:48.233,c2:22:89:2b:7b:c3, 2015-01-01 01:03:47.925, 0.048, 0.029, 1.029, 5.249, 12.024, -0.671, -1.241, -1.494, 126.387, 56.742, -42.336, -12.152, 22.22, 0.4509, 0.00754, -0.01669, 0.89233,
 15:48:48.233,c2:22:89:2b:7b:c3, 2015-01-01 01:03:47.925, 0.062, 0.066, 1, -1.404, 15.625, -0.305, -1.236, -1.357, 126.381, 56.742, -42.336, -12.152, 22.22, 0.4509, 0.00754, -0.01669, 0.89233,
 15:48:48.233,c2:22:89:2b:7b:c3, 2015-01-01 01:03:47.925, 0.03, -0.018, 0.993, -7.874, 15.686, -0.061, -1.302, -1.208, 126.376, 56.742, -42.336, -12.152, 22.22, 0.4509, 0.00754, -0.01669, 0.89233,
 15:48:48.233,c2:22:89:2b:7b:c3, 2015-01-01 01:03:47.925, -0.064, -0.099, 1.007, -6.958, 18.616, 0, -1.379, -1.044, 126.37, 56.742, -42.336, -12.152, 22.22, 0.4509, 0.00754, -0.01669, 0.89233,
 15:48:48.263,c2:22:89:2b:7b:c3, 2015-01-01 01:03:48.285, -0.015, -0.083, 1.011, -0.732, 16.357, -0.427, -1.406, -0.879, 126.365, 56.742, -42.336, -12.152, 22.22, 0.4509, 0.00754, -0.01669, 0.89233,
 15:48:48.263,c2:22:89:2b:7b:c3, 2015-01-01 01:03:48.285, 0.025, -0.074, 0.968, 0.61, 10.803, -0.061, -1.406, -0.764, 126.359, 56.742, -42.336, -12.152, 22.22, 0.4509, 0.00754, -0.01669, 0.89233,
 15:48:48.263,c2:22:89:2b:7b:c3, 2015-01-01 01:03:48.285, 0.027, -0.117, 1.007, 3.296, 9.583, -0.061, -1.39, -0.676, 126.354, 56.742, -42.336, -12.152, 22.22, 0.4509, 0.00754, -0.01669, 0.89233,
 15:48:48.263,c2:22:89:2b:7b:c3, 2015-01-01 01:03:48.285, 0.001, -0.019, 0.984, 6.348, 12.329, -0.427, -1.34, -0.566, 126.343, 56.742, -42.336, -12.152, 22.22, 0.4509, 0.00754, -0.01669, 0.89233,
 15:48:48.293,c2:22:89:2b:7b:c3, 2015-01-01 01:03:48.285, 0.015, 0.045, 0.964, 1.038, 12.085, 0, -1.318, -0.45, 126.337, 56.742, -42.336, -12.152, 22.22, 0.4509, 0.00754, -0.01669, 0.89233,
 15:48:48.293,c2:22:89:2b:7b:c3, 2015-01-01 01:03:48.285, 0.013, -0.032, 0.946, -3.418, 12.451, -0.061, -1.357, -0.341, 126.332, 56.742, -42.336, -12.152, 22.22, 0.4509, 0.00754, -0.01669, 0.89233,
 15:48:48.293,c2:22:89:2b:7b:c3, 2015-01-01 01:03:48.285, -0.028, -0.058, 0.958, -1.831, 15.32, -0.305, -1.39, -0.203, 126.321, 56.742, -42.336, -12.152, 22.22, 0.4509, 0.00754, -0.01669, 0.89233,
 15:48:48.293,c2:22:89:2b:7b:c3, 2015-01-01 01:03:48.285, -0.042, -0.064, 0.963, -3.357, 16.113, -0.244, -1.428, -0.055, 126.315, 56.742, -42.336, -12.152, 22.22, 0.4509, 0.00754, -0.01669, 0.89233,
 15:48:48.354,c2:22:89:2b:7b:c3, 2015-01-01 01:03:48.285, -0.001, -0.113, 0.982, -2.197, 12.329, 0, -1.467, 0.066, 126.304, 56.742, -42.336, -12.152, 22.22, 0.4509, 0.00754, -0.01669, 0.89233,
 15:48:48.354,c2:22:89:2b:7b:c3, 2015-01-01 01:03:48.285, -0.018, -0.112, 1.02, 2.197, 10.132, 0.061, -1.467, 0.165, 126.299, 56.742, -42.336, -12.152, 22.22, 0.4509, 0.00754, -0.01669, 0.89233,
 15:48:48.354,c2:22:89:2b:7b:c3, 2015-01-01 01:03:48.285, -0.015, -0.057, 1.006, 4.211, 11.169, -0.244, -1.439, 0.269, 126.288, 56.742, -42.336, -12.152, 22.22, 0.4509, 0.00754, -0.01669, 0.89233,
 15:48:48.354,c2:22:89:2b:7b:c3, 2015-01-01 01:03:48.285, 0.016, -0.038, 0.942, 2.502, 10.376, -0.366, -1.423, 0.368, 126.282, 56.742, -42.336, -12.152, 22.22, 0.4509, 0.00754, -0.01669, 0.89233,
 15:48:48.412,c2:22:89:2b:7b:c3, 2015-01-01 01:03:48.285, 0.005, -0.044, 0.951, -1.526, 10.986, 0, -1.434, 0.467, 126.271, 56.742, -42.336, -12.152, 22.22, 0.4509, 0.00754, -0.01669, 0.89233,
 15:48:48.412,c2:22:89:2b:7b:c3, 2015-01-01 01:03:48.285, -0.026, -0.083, 0.97, -2.93, 12.329, -0.122, -1.472, 0.582, 126.266, 56.742, -42.336, -12.152, 22.22, 0.4509, 0.00754, -0.01669, 0.89233,
 15:48:48.412,c2:22:89:2b:7b:c3, 2015-01-01 01:03:48.285, -0.06, -0.075, 0.978, -2.502, 13.977, -0.061, -1.505, 0.714, 126.26, 56.742, -42.336, -12.152, 22.22, 0.4509, 0.00754, -0.01669, 0.89233,
 15:48:48.412,c2:22:89:2b:7b:c3, 2015-01-01 01:03:48.285, -0.04, -0.079, 0.985, -1.648, 11.23, -0.061, -1.533, 0.829, 126.249, 56.742, -42.336, -12.152, 22.22, 0.4509, 0.00754, -0.01669, 0.89233,
 15:48:48.414,c2:22:89:2b:7b:c3, 2015-01-01 01:03:48.285, -0.009, -0.095, 0.964, 0.122, 8.484, -0.183, -1.544, 0.917, 126.244, 56.742, -42.336, -12.152, 22.22, 0.4509, 0.00754, -0.01669, 0.89233,
 15:48:48.414,c2:22:89:2b:7b:c3, 2015-01-01 01:03:48.285, -0.042, -0.093, 0.93, 2.38, 8.911, -0.488, -1.544, 1, 126.233, 56.742, -42.336, -12.152, 22.22, 0.4509, 0.00754, -0.01669, 0.89233,
 15:48:48.414,c2:22:89:2b:7b:c3, 2015-01-01 01:03:48.285, -0.031, -0.035, 0.961, 2.869, 10.559, -0.122, -1.522, 1.099, 126.222, 56.742, -42.336, -12.152, 22.22, 0.4509, 0.00754, -0.01669, 0.89233,
 15:48:48.414,c2:22:89:2b:7b:c3, 2015-01-01 01:03:48.285, -0.014, -0.012, 0.971, -0.977, 8.301, -0.244, -1.533, 1.187, 126.216, 56.742, -42.336, -12.152, 22.22, 0.4509, 0.00754, -0.01669, 0.89233,
 15:48:48.474,c2:22:89:2b:7b:c3, 2015-01-01 01:03:48.285, -0.026, -0.084, 0.97, -2.319, 10.193, 0.061, -1.566, 1.28, 126.211, 56.742, -42.336, -12.152, 22.22, 0.4509, 0.00754, -0.01669, 0.89233,
 15:48:48.474,c2:22:89:2b:7b:c3, 2015-01-01 01:03:48.285, -0.082, -0.067, 0.974, -0.977, 10.498, 0, -1.593, 1.379, 126.2, 56.742, -42.336, -12.152, 22.22, 0.4509, 0.00754, -0.01669, 0.89233,
 15:48:48.474,c2:22:89:2b:7b:c3, 2015-01-01 01:03:48.285, -0.041, -0.062, 0.968, -0.183, 9.277, -0.366, -1.604, 1.478, 126.189, 56.742, -42.336, -12.152, 22.22, 0.4509, 0.00754, -0.01669, 0.89233,
 15:48:48.474,c2:22:89:2b:7b:c3, 2015-01-01 01:03:48.285, -0.04, -0.098, 0.93, 0, 7.08, 0.122, -1.626, 1.549, 126.183, 56.742, -42.336, -12.152, 22.22, 0.4509, 0.00754, -0.01669, 0.89233,
 15:48:48.503,c2:22:89:2b:7b:c3, 2015-01-01 01:03:48.285, -0.049, -0.056, 0.962, 1.77, 8.362, -0.244, -1.62, 1.626, 126.178, 59.094, -41.160, -13.524, 22.22, 0.4509, 0.00754, -0.01669, 0.89233,
 15:48:48.504,c2:22:89:2b:7b:c3, 2015-01-01 01:03:48.285, -0.021, -0.044, 0.971, 0.427, 7.629, -0.183, -1.626, 1.703, 126.167, 59.094, -41.160, -13.524, 22.22, 0.4509, 0.00754, -0.01669, 0.89233,
 15:48:48.504,c2:22:89:2b:7b:c3, 2015-01-01 01:03:48.285, -0.052, -0.075, 0.945, -1.038, 7.446, 0.061, -1.648, 1.774, 126.161, 59.094, -41.160, -13.524, 22.22, 0.4509, 0.00754, -0.01669, 0.89233,
 15:48:48.504,c2:22:89:2b:7b:c3, 2015-01-01 01:03:48.285, -0.067, -0.062, 0.956, 0.61, 8.301, -0.061, -1.659, 1.857, 126.156, 59.094, -41.160, -13.524, 22.22, 0.4509, 0.00754, -0.01669, 0.89233,
 15:48:48.534,c2:22:89:2b:7b:c3, 2015-01-01 01:03:48.285, -0.041, -0.042, 0.949, -1.587, 6.958, -0.122, -1.675, 1.934, 126.145, 59.094, -41.160, -13.524, 22.22, 0.4509, 0.00754, -0.01669, 0.89233,
 15:48:48.534,c2:22:89:2b:7b:c3, 2015-01-01 01:03:48.285, -0.066, -0.119, 0.931, -2.38, 6.836, 0.122, -1.719, 2, 126.14, 59.094, -41.160, -13.524, 22.22, 0.4509, 0.00754, -0.01669, 0.89233,
 15:48:48.534,c2:22:89:2b:7b:c3, 2015-01-01 01:03:48.285, -0.081, -0.087, 0.944, 2.258, 6.165, -0.061, -1.719, 2.06, 126.134, 59.094, -41.160, -13.524, 22.22, 0.4509, 0.00754, -0.01669, 0.89233,
 15:48:48.534,c2:22:89:2b:7b:c3, 2015-01-01 01:03:48.285, -0.056, -0.018, 0.947, 3.113, 5.066, -0.244, -1.703, 2.115, 126.123, 59.094, -41.160, -13.524, 22.22, 0.4509, 0.00754, -0.01669, 0.89233,
 15:48:48.594,c2:22:89:2b:7b:c3, 2015-01-01 01:03:48.285, -0.008, -0.046, 0.934, 0.122, 3.418, 0.061, -1.708, 2.153, 126.118, 59.094, -41.160, -13.524, 22.22, 0.45258, -0.02304, -0.00504, 0.89136,
 15:48:48.595,c2:22:89:2b:7b:c3, 2015-01-01 01:03:48.285, -0.062, -0.053, 0.952, -1.648, 4.7, 0, -1.73, 2.197, 126.112, 59.094, -41.160, -13.524, 22.22, 0.45258, -0.02304, -0.00504, 0.89136,
 15:48:48.595,c2:22:89:2b:7b:c3, 2015-01-01 01:03:48.285, -0.096, -0.088, 0.949, -3.052, 7.446, -0.061, -1.774, 2.274, 126.101, 59.094, -41.160, -13.524, 22.22, 0.45258, -0.02304, -0.00504, 0.89136,
 15:48:48.595,c2:22:89:2b:7b:c3, 2015-01-01 01:03:48.285, -0.112, -0.095, 0.916, -0.122, 5.188, -0.061, -1.796, 2.335, 126.096, 59.094, -41.160, -13.524, 22.22, 0.45258, -0.02304, -0.00504, 0.89136,
 15:48:48.623,c2:22:89:2b:7b:c3, 2015-01-01 01:03:48.640, -0.062, -0.054, 0.934, 4.15, 1.831, -0.183, -1.78, 2.368, 126.09, 59.094, -41.160, -13.524, 22.22, 0.45258, -0.02304, -0.00504, 0.89136,
