#timestamp [ns], temperature [degC], w_RS_S_x [rad s^-1], w_RS_S_y [rad s^-1], w_RS_S_z [rad s^-1], a_RS_S_x [m s^-2], a_RS_S_y [m s^-2], a_RS_S_z [m s^-2]
0.0,22.28,0.0,0.0,0.0,-0.28449,-0.26487,9.82962
5000000.0,22.28,0.0,0.0,0.0,-0.30391380019423797,-0.255158099902881,9.810196199805763
10000000.0,22.28,0.0,0.0,0.0,-0.294496199805762,-0.235832399611524,9.838841400582714
15000000.0,22.28,0.0,0.0,0.0,-0.284784299708643,-0.23544,9.858461400582714
20000000.0,22.28,0.0,0.0,0.0,-0.293907600388476,-0.25427520077695204,9.81196199805762
25000000.0,22.28,0.0,0.0,0.0,-0.303619500485595,-0.23642099902881,9.82863900097119
30000000.0,22.28,0.0,0.0,0.0,-0.294888599417286,-0.25388280116542805,9.848062801165428
35000000.0,22.28,0.0,0.0,0.0,-0.303423300679833,-0.264183300679833,9.840116699320166
40000000.0,22.28,0.0,0.0,0.0,-0.30411,-0.22876919689219197,9.83943
45000000.0,22.28,0.0,0.0,0.0,-0.30411,-0.261338403496284,9.830502899125928
50000000.0,22.28,0.0,0.0,0.0,-0.32176800194238003,-0.25604099902881,9.85610700291357
55000000.0,22.28,0.0,0.0,0.0,-0.288806395726764,-0.246329098931691,9.824126395726765
60000000.0,22.28,0.0,0.0,0.0,-0.301755602330856,-0.253882801165428,9.828442801165428
65000000.0,22.28,0.0,0.0,0.0,-0.30411,-0.25506,9.82962
70000000.0,22.28,0.0,0.0,0.0,-0.312546601359666,-0.238186797280668,9.854929804078997
75000000.0,22.28,0.0,0.0,0.0,-0.288904495629645,-0.22710149854321499,9.834034495629645
80000000.0,22.28,0.0,0.0,0.0,-0.292730401553904,-0.25035120466171207,9.82962
85000000.0,22.28,0.0,0.0,0.0,-0.30244230165102304,-0.271344603302046,9.837762301651024
90000000.0,22.28,0.0,0.0,0.0,-0.312154201748142,-0.258591596503716,9.83943
95000000.0,22.28,0.0,0.0,0.0,-0.30597389815473897,-0.239167796309478,9.83943
100000000.0,22.28,0.0,0.0,0.0,-0.30411,-0.24328800194238,9.82373399611524
105000000.0,22.28,0.0,0.0,0.0,-0.296360097960501,-0.252999902039499,9.81981
110000000.0,22.28,0.0,0.0,0.0,-0.2943,-0.23975639572676397,9.827461802136618
115000000.0,22.28,0.0,0.0,0.0,-0.27919259553252596,-0.23544,9.82962
120000000.0,22.28,0.0,0.0,0.0,-0.28959120466171206,-0.24289560233085603,9.82962
125000000.0,22.28,0.0,0.0,0.0,-0.30901500485595,-0.25260750242797503,9.822262497572025
130000000.0,22.28,0.0,0.0,0.0,-0.29214179242471794,-0.23328179242471792,9.827069402525094
135000000.0,22.28,0.0,0.0,0.0,-0.29165130262221306,-0.23279130262221304,9.82962
140000000.0,22.28,0.0,0.0,0.0,-0.3154896081579961,-0.23544,9.822556797280669
145000000.0,22.28,0.0,0.0,0.0,-0.3028346915506469,-0.24240510281645103,9.81981
150000000.0,22.28,0.0,0.0,0.0,-0.30116700291357,-0.25211700291357003,9.82667700291357
155000000.0,22.28,0.0,0.0,0.0,-0.31764780602137804,-0.25506,9.82962
160000000.0,22.28,0.0,0.0,0.0,-0.3037175906765759,-0.24171839378438395,9.836290803107808
165000000.0,22.28,0.0,0.0,0.0,-0.2943,-0.24858540640985408,9.832857296795073
170000000.0,22.28,0.0,0.0,0.0,-0.31372380990613813,-0.26153460330204603,9.836094603302046
175000000.0,22.28,0.0,0.0,0.0,-0.29822398640333986,-0.23298748300417482,9.845806503399166
180000000.0,22.28,0.0,0.0,0.0,-0.28449,-0.2472120174814202,9.824126386014864
185000000.0,22.28,0.0,0.0,0.0,-0.3030309107802091,-0.25868969640659695,9.840901517967016
190000000.0,22.28,0.0,0.0,0.0,-0.3017555926189559,-0.2368133889284339,9.846885592618955
195000000.0,22.28,0.0,0.0,0.0,-0.2943,-0.23759820757528208,9.821477688637078
200000000.0,22.28,0.0,0.0,0.0,-0.30018600388476,-0.2629080116542801,9.81588600388476
205000000.0,22.28,0.0,0.0,0.0,-0.3214737119456371,-0.25152838407248385,9.82559790398188
210000000.0,22.28,0.0,0.0,0.0,-0.31078078368400786,-0.22975019592100196,9.823930195921003
215000000.0,22.28,0.0,0.0,0.0,-0.28870829582388297,-0.24240511252835112,9.825401704176118
220000000.0,22.28,0.0,0.0,0.0,-0.3009708128197081,-0.25506,9.835113604273236
225000000.0,22.28,0.0,0.0,0.0,-0.30852449562964496,-0.23887348688893487,9.83943
230000000.0,22.28,0.0,0.0,0.0,-0.2935151910650519,-0.24152221340242214,9.834132595532527
235000000.0,22.28,0.0,0.0,0.0,-0.30008791369377913,-0.26545860912918606,9.82962
240000000.0,22.28,0.0,0.0,0.0,-0.3037175906765759,-0.25937638601486385,9.82962
245000000.0,22.28,0.0,0.0,0.0,-0.2842937904823379,-0.24024689524116896,9.82962
250000000.0,22.28,0.0,0.0,0.0,-0.2943000194238002,-0.2452500097119001,9.82962
255000000.0,22.28,0.0,0.0,0.0,-0.31392,-0.2598669049530691,9.83442690495307
260000000.0,22.28,0.0,0.0,0.0,-0.31392,-0.24132597474905976,9.83943
265000000.0,22.28,0.0,0.0,0.0,-0.30008788455807883,-0.22965211544192116,9.83943
270000000.0,22.28,0.0,0.0,0.0,-0.2935152104888521,-0.2542752104888521,9.843942605244425
275000000.0,22.28,0.0,0.0,0.0,-0.308524505341545,-0.2560409893169099,9.844825494658455
280000000.0,22.28,0.0,0.0,0.0,-0.29665437824534374,-0.24956640543866407,9.835113594561337
285000000.0,22.28,0.0,0.0,0.0,-0.27889830553578304,-0.25506,9.833838305535783
290000000.0,22.28,0.0,0.0,0.0,-0.28449,-0.25506,9.83943
295000000.0,22.28,0.0,0.0,0.0,-0.2925342114600421,-0.25103789426997897,9.83943
300000000.0,22.28,0.0,0.0,0.0,-0.30018599417285996,-0.24525,9.83943
305000000.0,22.28,0.0,0.0,0.0,-0.2981259059242591,-0.24525,9.831778188151482
310000000.0,22.28,0.0,0.0,0.0,-0.30411,-0.24897780602137806,9.81981
315000000.0,22.28,0.0,0.0,0.0,-0.30048029388150294,-0.2659491183554912,9.81981
320000000.0,22.28,0.0,0.0,0.0,-0.2943,-0.2668319689219197,9.826873212431233
325000000.0,22.28,0.0,0.0,0.0,-0.29773350631273504,-0.23544,9.835996493687265
330000000.0,22.28,0.0,0.0,0.0,-0.30411,-0.24211081281970814,9.832955406409853
335000000.0,22.28,0.0,0.0,0.0,-0.2943980804790808,-0.25182269349302694,9.83943
340000000.0,22.28,0.0,0.0,0.0,-0.28409761981227616,-0.24838920660409206,9.83943
345000000.0,22.28,0.0,0.0,0.0,-0.30106889329878894,-0.25201889329878896,9.836388893298789
350000000.0,22.28,0.0,0.0,0.0,-0.29724300679833005,-0.24819300679833006,9.83550601359666
355000000.0,22.28,0.0,0.0,0.0,-0.3069549068954491,-0.2465252793136528,9.840705279313653
360000000.0,22.28,0.0,0.0,0.0,-0.3029327720297277,-0.22837680699256807,9.817063193007431
365000000.0,22.28,0.0,0.0,0.0,-0.2799774141793741,-0.23544,9.817946121269062
370000000.0,22.28,0.0,0.0,0.0,-0.29174939281319395,-0.24054121437361214,9.831778178439581
375000000.0,22.28,0.0,0.0,0.0,-0.2918475218517752,-0.2526074927160749,9.8198100291357
380000000.0,22.28,0.0,0.0,0.0,-0.3021479630947796,-0.24289559261895594,9.846885592618955
385000000.0,22.28,0.0,0.0,0.0,-0.2738952299126523,-0.2376963074781631,9.837173692521837
390000000.0,22.28,0.0,0.0,0.0,-0.29979358484943586,-0.24956641515056416,9.831778207575283
395000000.0,22.28,0.0,0.0,0.0,-0.28449,-0.25868967698279677,9.841490107672401
400000000.0,22.28,0.0,0.0,0.0,-0.27860397669143977,-0.23544,9.84727799223048
405000000.0,22.28,0.0,0.0,0.0,-0.2625156314665563,-0.23730390786663907,9.83943
410000000.0,22.28,0.0,0.0,0.0,-0.2960658079637581,-0.24171838407248383,9.837664192036241
415000000.0,22.28,0.0,0.0,0.0,-0.2991068758173687,-0.22896541612175417,9.827952291939123
420000000.0,22.28,0.0,0.0,0.0,-0.27781921631599216,-0.24681960815799608,9.826088432631984
425000000.0,22.28,0.0,0.0,0.0,-0.3001860330204603,-0.24917396697953967,9.857578491744885
430000000.0,22.28,0.0,0.0,0.0,-0.3266729582388296,-0.21994022505670227,9.843746366591065
435000000.0,22.28,0.0,0.0,0.0,-0.2870406168987062,-0.2503512337974123,9.811275308449353
440000000.0,22.28,0.0,0.0,0.0,-0.30411,-0.28213558290705587,9.822164417092944
445000000.0,22.28,0.0,0.0,0.0,-0.3019517827128178,-0.2627117827128178,9.83835089135641
450000000.0,22.28,0.0,0.0,0.0,-0.28252798251857986,-0.24623100874071008,9.830601008740711
455000000.0,22.28,0.0,0.0,0.0,-0.26840163535131634,-0.25506,9.838547091162171
460000000.0,22.28,0.0,0.0,0.0,-0.30411,-0.2542751910650519,9.82962
465000000.0,22.28,0.0,0.0,0.0,-0.30548341806413415,-0.24456329096793292,9.82962
470000000.0,22.28,0.0,0.0,0.0,-0.3225527817416278,-0.2366172182583722,9.829031390870814
475000000.0,22.28,0.0,0.0,0.0,-0.3046005092263051,-0.2545694907736949,9.821772036905221
480000000.0,22.28,0.0,0.0,0.0,-0.3127427720297277,-0.24603481864684817,9.857480362706303
485000000.0,22.28,0.0,0.0,0.0,-0.28449,-0.2645756905794569,9.820398618841086
490000000.0,22.28,0.0,0.0,0.0,-0.2850786285529863,-0.2548637904823379,9.83943
495000000.0,22.28,0.0,0.0,0.0,-0.3138218903852189,-0.2451518903852189,9.839724328844344
500000000.0,22.28,0.0,0.0,0.0,-0.3041099902880999,-0.2354400291357003,9.868859951440498
505000000.0,22.28,0.0,0.0,0.0,-0.2943980901909809,-0.2645757294270573,9.820300450954905
510000000.0,22.28,0.0,0.0,0.0,-0.3039138099061381,-0.26487,9.810196190093862
515000000.0,22.28,0.0,0.0,0.0,-0.30411,-0.2268071599869716,9.829031420006514
520000000.0,22.28,0.0,0.0,0.0,-0.30411,-0.2444652202007522,9.82962
525000000.0,22.28,0.0,0.0,0.0,-0.2947904898025049,-0.2638890203949902,9.82962
530000000.0,22.28,0.0,0.0,0.0,-0.32196423088384235,-0.22798435882154358,9.820398589705386
535000000.0,22.28,0.0,0.0,0.0,-0.2872367584330676,-0.2712465519586655,9.828933310391733
540000000.0,22.28,0.0,0.0,0.0,-0.3025404209777042,-0.2837052104888521,9.82962
545000000.0,22.28,0.0,0.0,0.0,-0.2862557788280578,-0.23092733648417335,9.83854711058597
550000000.0,22.28,0.0,0.0,0.0,-0.28449,-0.2344590106830901,9.83060098931691
555000000.0,22.28,0.0,0.0,0.0,-0.3019518215604182,-0.25290182156041824,9.820889089219792
560000000.0,22.28,0.0,0.0,0.0,-0.3127428108773281,-0.25506,9.81981
565000000.0,22.28,0.0,0.0,0.0,-0.3395241329233413,-0.2379905780511058,9.836879421948895
570000000.0,22.28,0.0,0.0,0.0,-0.30960355571373555,-0.25231322214313223,9.83943
575000000.0,22.28,0.0,0.0,0.0,-0.30411,-0.2467214888313149,9.83943
580000000.0,22.28,0.0,0.0,0.0,-0.2958695887341959,-0.2534904112658041,9.83943
585000000.0,22.28,0.0,0.0,0.0,-0.3024423113629231,-0.2632023113629231,9.83943
590000000.0,22.28,0.0,0.0,0.0,-0.27997736561987363,-0.24073736561987366,9.823341577079916
595000000.0,22.28,0.0,0.0,0.0,-0.30646444622864444,-0.2433861115571611,9.81186388844284
600000000.0,22.28,0.0,0.0,0.0,-0.32176801165428015,-0.24525,9.81
605000000.0,22.28,0.0,0.0,0.0,-0.30048026474580264,-0.25299991175139913,9.840999647005596
610000000.0,22.28,0.0,0.0,0.0,-0.3096036236970362,-0.2627118118485181,9.818632752605929
615000000.0,22.28,0.0,0.0,0.0,-0.3063662880543629,-0.2573162880543629,9.81
620000000.0,22.28,0.0,0.0,0.0,-0.2817431638717316,-0.25506,9.817455612042757
625000000.0,22.28,0.0,0.0,0.0,-0.28203751213987516,-0.25506,9.83452502427975
630000000.0,22.28,0.0,0.0,0.0,-0.29900882447398824,-0.24054117552601176,9.824911175526012
635000000.0,22.28,0.0,0.0,0.0,-0.30411,-0.27124656167056566,9.826971312334113
640000000.0,22.28,0.0,0.0,0.0,-0.30411,-0.2562371502750715,9.822556787568768
645000000.0,22.28,0.0,0.0,0.0,-0.3110751125283511,-0.2382848874716489,9.82677511252835
650000000.0,22.28,0.0,0.0,0.0,-0.29331896212358965,-0.2629080505018805,9.83648701262547
655000000.0,22.28,0.0,0.0,0.0,-0.29125891272258914,-0.26114217455482175,9.832661087277412
660000000.0,22.28,0.0,0.0,0.0,-0.3009708128197081,-0.24171837436058374,9.809607561540876
665000000.0,22.28,0.0,0.0,0.0,-0.30411,-0.2551581387504814,9.833053564584135
670000000.0,22.28,0.0,0.0,0.0,-0.2782115479442155,-0.25839538698605385,9.829816160958162
675000000.0,22.28,0.0,0.0,0.0,-0.27762302622213025,-0.26143651311106514,9.83256302622213
680000000.0,22.28,0.0,0.0,0.0,-0.29704682641636826,-0.26487,9.845708413208184
685000000.0,22.28,0.0,0.0,0.0,-0.2917493733893937,-0.2525093733893937,9.843059686694698
690000000.0,22.28,0.0,0.0,0.0,-0.2966544268048443,-0.24525,9.833347786597578
695000000.0,22.28,0.0,0.0,0.0,-0.29812588650045885,-0.2512341134995411,9.82962
700000000.0,22.28,0.0,0.0,0.0,-0.2884139864033399,-0.24917398640333988,9.83550601359666
705000000.0,22.28,0.0,0.0,0.0,-0.29606582738755827,-0.23367417261244172,9.833642086306222
710000000.0,22.28,0.0,0.0,0.0,-0.3097998137908981,-0.24269944137269442,9.82962
715000000.0,22.28,0.0,0.0,0.0,-0.3083282861119828,-0.2382848583359486,9.835211713888018
720000000.0,22.28,0.0,0.0,0.0,-0.30960361398513614,-0.23112361398513614,9.822949158044592
725000000.0,22.28,0.0,0.0,0.0,-0.3193155140822551,-0.24623102816451028,9.826186542246766
730000000.0,22.28,0.0,0.0,0.0,-0.31843258582062584,-0.25506,9.823537757461878
735000000.0,22.28,0.0,0.0,0.0,-0.31392,-0.24986068572350686,9.820398628552987
740000000.0,22.28,0.0,0.0,0.0,-0.3037175712527757,-0.25035121437361213,9.82962
745000000.0,22.28,0.0,0.0,0.0,-0.29930311447073116,-0.23504754211707543,9.824616885529268
750000000.0,22.28,0.0,0.0,0.0,-0.3139200291357003,-0.23053504370355044,9.82471501456785
755000000.0,22.28,0.0,0.0,0.0,-0.31892308533503083,-0.25005691466496915,9.82962
760000000.0,22.28,0.0,0.0,0.0,-0.31392,-0.2456423704758237,9.82962
765000000.0,22.28,0.0,0.0,0.0,-0.30008785542237854,-0.23082928514079284,9.834230714859208
770000000.0,22.28,0.0,0.0,0.0,-0.2890026149563262,-0.2436804598253046,9.834917385043674
775000000.0,22.28,0.0,0.0,0.0,-0.2943,-0.26928451505344514,9.82962
780000000.0,22.28,0.0,0.0,0.0,-0.3115656606022566,-0.25309792424717925,9.833936415150564
785000000.0,22.28,0.0,0.0,0.0,-0.3166667390092674,-0.2340666304953663,9.835211684752316
790000000.0,22.28,0.0,0.0,0.0,-0.2984202153448022,-0.2576106460344064,9.82962
795000000.0,22.28,0.0,0.0,0.0,-0.30813211544192115,-0.2626136536742365,9.82962
800000000.0,22.28,0.0,0.0,0.0,-0.2982239378438394,-0.22955393784383937,9.83746803107808
805000000.0,22.28,0.0,0.0,0.0,-0.2823318312723183,-0.22513957818079577,9.841588168727682
810000000.0,22.28,0.0,0.0,0.0,-0.3129390786663908,-0.25506,9.833347815733278
815000000.0,22.28,0.0,0.0,0.0,-0.3324608525088085,-0.2478005683392057,9.83943
820000000.0,22.28,0.0,0.0,0.0,-0.2997935362899353,-0.23190838407248385,9.83943
825000000.0,22.28,0.0,0.0,0.0,-0.28841406409854065,-0.23936406409854064,9.83943
830000000.0,22.28,0.0,0.0,0.0,-0.31392,-0.25819916775649165,9.83943
835000000.0,22.28,0.0,0.0,0.0,-0.30744536756225366,-0.23553805134338052,9.83943
840000000.0,22.28,0.0,0.0,0.0,-0.28802156736801565,-0.2252376489479765,9.836290783684008
845000000.0,22.28,0.0,0.0,0.0,-0.28684446565244465,-0.24220888358688883,9.826578883586889
850000000.0,22.28,0.0,0.0,0.0,-0.30803396697953966,-0.24132603302046035,9.828639049530691
855000000.0,22.28,0.0,0.0,0.0,-0.29998983321469835,-0.2493701667853017,9.84639508339265
860000000.0,22.28,0.0,0.0,0.0,-0.31392,-0.2436804501134045,9.836683183295532
865000000.0,22.28,0.0,0.0,0.0,-0.31656871680158716,-0.2569238495952385,9.824322566396827
870000000.0,22.28,0.0,0.0,0.0,-0.3160781493038815,-0.24564246759482466,9.815101233797412
875000000.0,22.28,0.0,0.0,0.0,-0.2893949660083497,-0.26977496600834966,9.82962
880000000.0,22.28,0.0,0.0,0.0,-0.27938883418588834,-0.25035116581411165,9.827265582907057
885000000.0,22.28,0.0,0.0,0.0,-0.2920436828099368,-0.24897790314037904,9.817553682809937
890000000.0,22.28,0.0,0.0,0.0,-0.28880643457436433,-0.28998356542563564,9.818632869148729
895000000.0,22.28,0.0,0.0,0.0,-0.30411,-0.2643794130784941,9.84924
900000000.0,22.28,0.0,0.0,0.0,-0.3021479825185798,-0.22759201748142016,9.845315965037159
905000000.0,22.28,0.0,0.0,0.0,-0.29616391757853916,-0.24103175273561753,9.83148391757854
910000000.0,22.28,0.0,0.0,0.0,-0.30411,-0.26487,9.83943
915000000.0,22.28,0.0,0.0,0.0,-0.30411,-0.2581991289088913,9.837762282227223
920000000.0,22.28,0.0,0.0,0.0,-0.30097076426020763,-0.23033885360968853,9.82962
925000000.0,22.28,0.0,0.0,0.0,-0.28449,-0.25947455390104557,9.82962
930000000.0,22.28,0.0,0.0,0.0,-0.28861025419240255,-0.2776229096793291,9.826873163871731
935000000.0,22.28,0.0,0.0,0.0,-0.3126446818387468,-0.23799063632250636,9.81382595448376
940000000.0,22.28,0.0,0.0,0.0,-0.30057834522488347,-0.2574144365167444,9.837075563483255
945000000.0,22.28,0.0,0.0,0.0,-0.27683823671098234,-0.27036352657803525,9.820889118355492
950000000.0,22.28,0.0,0.0,0.0,-0.29331898154738983,-0.23740203690522038,9.82962
955000000.0,22.28,0.0,0.0,0.0,-0.28449,-0.25594291854972917,9.827854162900541
960000000.0,22.28,0.0,0.0,0.0,-0.28449,-0.26487,9.812354455940545
965000000.0,22.28,0.0,0.0,0.0,-0.28449,-0.26212312502413126,9.838056562512065
970000000.0,22.28,0.0,0.0,0.0,-0.28390138115891383,-0.22621861884108618,9.820987237682173
975000000.0,22.28,0.0,0.0,0.0,-0.27664207575282074,-0.23593051893820519,9.837958443185384
980000000.0,22.28,0.0,0.0,0.0,-0.3131351619293516,-0.24525,9.81
985000000.0,22.28,0.0,0.0,0.0,-0.2940056808675568,-0.2449556808675568,9.811177276529774
990000000.0,22.28,0.0,0.0,0.0,-0.2848824384591244,-0.2356362192295622,9.84924
995000000.0,22.28,0.0,0.0,0.0,-0.30430623865336237,-0.24534811932668119,9.848945642019956
1000000000.0,22.28,0.0,0.0,0.0,-0.32372998057619984,-0.2550599611523996,9.8198100582714
1005000000.0,22.28,0.0,0.0,0.0,-0.3140180804790808,-0.23563616095816162,9.848945758562758
1010000000.0,22.28,0.0,0.0,0.0,-0.3043061803819618,-0.2546676392360764,9.820398541145886
1015000000.0,22.28,0.0,0.0,0.0,-0.30411,-0.2455442802848428,9.81981
1020000000.0,22.28,0.0,0.0,0.0,-0.2946923801877238,-0.23583238018772382,9.829227619812276
1025000000.0,22.28,0.0,0.0,0.0,-0.2943,-0.28203759954697605,9.838939519909395
1030000000.0,22.28,0.0,0.0,0.0,-0.3127428400130284,-0.2660471599869716,9.830208579993487
1035000000.0,22.28,0.0,0.0,0.0,-0.2865500396891004,-0.2466233597927336,9.82962
1040000000.0,22.28,0.0,0.0,0.0,-0.3025404404015044,-0.2542752202007522,9.847670440401505
1045000000.0,22.28,0.0,0.0,0.0,-0.30411,-0.2639871202978712,9.831385759404258
1050000000.0,22.28,0.0,0.0,0.0,-0.30411,-0.2295539184200392,9.82962
1055000000.0,22.28,0.0,0.0,0.0,-0.2691863180315632,-0.23436092049210921,9.820889079507891
1060000000.0,22.28,0.0,0.0,0.0,-0.2994012823569128,-0.2527056411784564,9.828442820589228
1065000000.0,22.28,0.0,0.0,0.0,-0.30411,-0.24652527931365278,9.838154720686347
1070000000.0,22.28,0.0,0.0,0.0,-0.2872367584330676,-0.24525,9.83943
1075000000.0,22.28,0.0,0.0,0.0,-0.2928285208805852,-0.24525,9.83943
1080000000.0,22.28,0.0,0.0,0.0,-0.31902126293311267,-0.2534904209777042,9.831189579022295
1085000000.0,22.28,0.0,0.0,0.0,-0.31558767892517675,-0.23063303677553038,9.813335357850354
1090000000.0,22.28,0.0,0.0,0.0,-0.2897873364841734,-0.24976266351582666,9.850221105859712
1095000000.0,22.28,0.0,0.0,0.0,-0.3003822425381224,-0.25506,9.835211636192817
1100000000.0,22.28,0.0,0.0,0.0,-0.30411,-0.27860406409854066,9.81392395726764
1105000000.0,22.28,0.0,0.0,0.0,-0.30411,-0.24574039268350395,9.833249764389898
1110000000.0,22.28,0.0,0.0,0.0,-0.28880635687916356,-0.26604728624167284,9.831778178439581
1115000000.0,22.28,0.0,0.0,0.0,-0.3298123299452233,-0.25957255668492557,9.82962
1120000000.0,22.28,0.0,0.0,0.0,-0.3060718912267189,-0.2625156217546562,9.814708756490688
1125000000.0,22.28,0.0,0.0,0.0,-0.2869424781482248,-0.2575124781482248,9.8394300874071
1130000000.0,22.28,0.0,0.0,0.0,-0.2990088438977884,-0.24054115610221158,9.827461734153317
1135000000.0,22.28,0.0,0.0,0.0,-0.28978735590797355,-0.23544,9.826971322046013
1140000000.0,22.28,0.0,0.0,0.0,-0.29155322214313223,-0.23544,9.822556777856867
1145000000.0,22.28,0.0,0.0,0.0,-0.2943,-0.24240512224025124,9.826775122240251
1150000000.0,22.28,0.0,0.0,0.0,-0.30803404467474044,-0.24525,9.836487022337371
1155000000.0,22.28,0.0,0.0,0.0,-0.29361323269653233,-0.25878784486897843,9.825892155131022
1160000000.0,22.28,0.0,0.0,0.0,-0.28449,-0.25819917746839177,9.81981
1165000000.0,22.28,0.0,0.0,0.0,-0.30420816788618166,-0.25506,9.81981
1170000000.0,22.28,0.0,0.0,0.0,-0.3074453772741538,-0.23563613182246132,9.826284622725847
1175000000.0,22.28,0.0,0.0,0.0,-0.27860390870813906,-0.25113609129186093,9.823243477177035
1180000000.0,22.28,0.0,0.0,0.0,-0.30254053752050536,-0.25859157707991576,9.838645268760253
1185000000.0,22.28,0.0,0.0,0.0,-0.29282838491398383,-0.24269935396559356,9.836879353965594
1190000000.0,22.28,0.0,0.0,0.0,-0.27468,-0.23544,9.835702223114323
1195000000.0,22.28,0.0,0.0,0.0,-0.28664824642288245,-0.2593764928457649,9.83344587678856
1200000000.0,22.28,0.0,0.0,0.0,-0.30607204661712045,-0.2570219300743193,9.82373397669144
1205000000.0,22.28,0.0,0.0,0.0,-0.31392,-0.23946207659432078,9.814022076594322
1210000000.0,22.28,0.0,0.0,0.0,-0.3025403529944035,-0.24681964700559647,9.832759294011193
1215000000.0,22.28,0.0,0.0,0.0,-0.2998917235999172,-0.25506,9.832464829200248
1220000000.0,22.28,0.0,0.0,0.0,-0.2986163763029638,-0.24956637630296377,9.836290871091109
1225000000.0,22.28,0.0,0.0,0.0,-0.2781134286175343,-0.2560410475883105,9.83844895241169
1230000000.0,22.28,0.0,0.0,0.0,-0.28605969556509697,-0.2542751522174515,9.840214847782548
1235000000.0,22.28,0.0,0.0,0.0,-0.29891067601160676,-0.25044932398839326,9.838841352023215
1240000000.0,22.28,0.0,0.0,0.0,-0.2840975518289755,-0.26526244817102446,9.819417551828975
1245000000.0,22.28,0.0,0.0,0.0,-0.3046987450957874,-0.2596706274521063,9.820006248365264
1250000000.0,22.28,0.0,0.0,0.0,-0.313919902880999,-0.2354399514404995,9.82962
1255000000.0,22.28,0.0,0.0,0.0,-0.28949307562313076,-0.2352438487537385,9.815199226869392
1260000000.0,22.28,0.0,0.0,0.0,-0.29861647342196473,-0.24995882447398823,9.80489882447399
1265000000.0,22.28,0.0,0.0,0.0,-0.30008782628667824,-0.24583855085778553,9.81
1270000000.0,22.28,0.0,0.0,0.0,-0.28900262466822624,-0.23544,9.78743687665887
1275000000.0,22.28,0.0,0.0,0.0,-0.3031290495306905,-0.24868357429603574,9.78743714859207
1280000000.0,22.28,0.0,0.0,0.0,-0.31823642486246423,-0.26487,9.82844284972493
1285000000.0,22.28,0.0,0.0,0.0,-0.31529335008083353,-0.24377837520208376,9.847866649919167
1290000000.0,22.28,0.0,0.0,0.0,-0.29998977494329776,-0.2405413503402135,9.85905
1295000000.0,22.28,0.0,0.0,0.0,-0.2902778748461788,-0.27065787484617876,9.85502787484618
1300000000.0,22.28,0.0,0.0,0.0,-0.2884140252509403,-0.24132584849435848,9.84531597474906
1305000000.0,22.28,0.0,0.0,0.0,-0.2866481493038815,-0.20983592534805925,9.824126298607764
1310000000.0,22.28,0.0,0.0,0.0,-0.2970469526710695,-0.22327565089035653,9.781550872774108
1315000000.0,22.28,0.0,0.0,0.0,-0.32991027445770277,-0.23906972554229727,9.754769725542296
1320000000.0,22.28,0.0,0.0,0.0,-0.32373,-0.24878162563941625,9.775076502557665
1325000000.0,22.28,0.0,0.0,0.0,-0.3065623713173237,-0.26536057720960576,9.810490577209606
1330000000.0,22.28,0.0,0.0,0.0,-0.27468,-0.2778191483326915,9.839626277500964
1335000000.0,22.28,0.0,0.0,0.0,-0.27468,-0.25192069627690694,9.852575348138453
1340000000.0,22.28,0.0,0.0,0.0,-0.27468,-0.22563,9.833151547944215
1345000000.0,22.28,-0.0016502229841190883,0.002310312177766699,0.0,-0.2655566216249662,-0.24995900900009008,9.786357612624876
1350000000.0,22.28,-0.005642652317509384,0.007771954004942414,0.0,-0.2923384195540842,-0.2805657902229579,9.70895697377787
1355000000.0,22.28,-0.004844147057151331,0.005738442340466153,0.0,-0.38229551576525517,-0.20002566312675663,9.713469705276998
1360000000.0,22.28,-0.002555176359378759,-0.003449491668776109,0.0,-0.3143122150854222,-0.18952970191099702,9.766051437747315
1365000000.0,22.28,-0.009842120761274551,-0.007569647356801485,0.0,-0.2728161795404618,-0.32373,9.837566179540461
1370000000.0,22.28,-0.016408509502636545,-0.004343798546138684,0.0,-0.30960375966363757,-0.3160781201681812,9.874353759663638
1375000000.0,22.28,-0.006121716264762541,-0.00798485234275454,0.0,-0.31882462609184625,-0.2722272596304726,9.920362526707725
1380000000.0,22.28,0.001575689066804433,0.0015331146692637745,0.0012775955577198203,-0.24878197526781975,-0.21778213402422134,9.91594786597578
1385000000.0,22.28,-0.0014626414332821504,0.0039391789258308016,0.004098891150348489,-0.32382775027447747,-0.25731632690196327,9.867388365490184
1390000000.0,22.28,-0.014705765862098045,-0.0033216989118672324,-0.0009369044629988674,-0.2450540429917404,-0.28429404299174044,9.827461773000918
1395000000.0,22.28,-0.0063879050622992,-0.0008943184714103803,-0.0031407052856031294,-0.2974389832303898,-0.35522012709620127,9.823930254192403
1400000000.0,22.28,-0.0051103063425663505,-0.0010646065755339756,0.0008517177237610317,-0.25702229912652297,-0.3276535105202351,9.83550594561336
1405000000.0,22.28,0.00040457324411669347,0.009890579682356702,0.00040457324411669347,-0.33403036354780363,-0.16961465438604656,9.817946072709562
1410000000.0,22.28,0.0017460214391105495,0.0004045405699819372,0.0015543813149493243,-0.2731100713493007,-0.12811906558849065,9.79057589873686
1415000000.0,22.28,-0.003260852381381258,-0.004013677006997629,-0.00034067633866006835,-0.20826682220886822,-0.26820545496935455,9.693751362576613
1420000000.0,22.28,-0.016963863234771892,0.009709561813992625,0.0031939525311496,-0.373957393072574,-0.2719329793456298,9.654609627581797
1425000000.0,22.28,-0.0043650504357635065,-0.0059088031708896035,0.0028745512702098635,-0.3992663910638639,-0.19129472321084723,9.667264583036747
1430000000.0,22.28,-0.0010221070123019166,-0.0018524653379949066,0.001213704976289239,-0.2350479888644799,-0.15048626105706261,9.704640849984308
1435000000.0,22.28,-0.01578043683139135,0.004588605811516121,0.0019908940527573827,-0.3659132787315328,-0.4005420491416205,9.794598606604687
1440000000.0,22.28,-0.025311380934981764,-0.009626589676115445,0.000936889706938004,-0.4265382126242821,-0.3131349482675495,9.906138419554084
1445000000.0,22.28,-0.001171146388813788,-0.02392754868526479,-0.00035134391664413424,-0.22474656671956567,-0.25594343328043434,10.031313487730435
1450000000.0,22.28,-0.010965912860118169,-0.0073442506872930385,-0.002342207403275547,-0.08044261961922619,-0.42281102816451027,9.99246588734196
1455000000.0,22.28,-0.012115671392746573,0.021511155376175088,0.005035789289321288,-0.29057270870932705,-0.39897165431971654,9.953618286953484
1460000000.0,22.28,0.006261577129528418,0.01158335809193823,0.0019589513970529803,-0.4277151492375515,-0.06867,9.904567917901279
1465000000.0,22.28,0.014366391927234198,-0.000712035607764915,0.0,-0.16245382764693828,-0.09133203904362039,9.74358598698546
1470000000.0,22.28,-0.021374352316246473,0.017732177490975734,0.0,-0.2536874851425749,-0.3888682286820823,9.64499588565896
1475000000.0,22.28,-0.021469242219491955,0.010219688323321444,0.0,-0.5326825988985261,-0.32176731239747314,9.676584229200843
1480000000.0,22.28,-0.004216014221264576,-0.01807392848209958,-8.517830720304725e-05,-0.3935765675610657,-0.10359400246114003,9.75388700123057
1485000000.0,22.28,-0.00412081319667081,-0.01673191658484705,-0.002097359031728598,-0.18727298653302987,-0.2433868787972688,9.820398657688687
1490000000.0,22.28,-0.03378813408214726,-0.006281424273262793,-0.0010433546859092194,-0.21758606047316062,-0.4957967343463674,9.838645084234152
1495000000.0,22.28,-0.018914752397074925,-0.001043351523896182,0.0,-0.3030305805756058,-0.2734043224984432,9.799993741922838
1500000000.0,22.28,0.007452533771924438,0.0010646951637353038,9.486039112374702e-09,-0.1962,-0.14715026222130262,9.780569766914398
1505000000.0,22.28,7.450335118859043e-05,0.01583803476497469,0.0031620225234973466,-0.1962,-0.23455736309537364,9.702874566137446
1510000000.0,22.28,-0.019840963467622735,0.022247382007880057,0.0021505915212142075,-0.4557733919083339,-0.33157829329938293,9.750159146649692
1515000000.0,22.28,-0.014032602504805928,-0.010688673120754433,-0.0009688418486815185,-0.4801014588541146,-0.22886697630236977,9.85581302369763
1520000000.0,22.28,-0.016923420224084877,-0.02399273066392153,-0.0031087868719986986,-0.27350215046812154,-0.3103886657175866,9.877885259048352
1525000000.0,22.28,-0.02312039588944837,-0.011339362306234614,-0.001171109498661645,-0.23691141113611414,-0.39779576659165766,9.887989529621295
1530000000.0,22.28,-0.01441639054132044,-0.005642633345431171,0.0009368991929771164,-0.2077757108447571,-0.2823314136606141,9.860815710844758
1535000000.0,22.28,2.1338317981078186e-05,0.0055681595063642245,7.452232326681332e-05,-0.1968866701844667,-0.2108166912912669,9.758693372029134
1540000000.0,22.28,-0.007750687359256863,0.01815774641526733,0.0,-0.2954775290391753,-0.3684641384277414,9.78724091965061
1545000000.0,22.28,-0.017252609021216135,0.011414601732589302,0.0,-0.4380169501465695,-0.3201000899316009,9.826088520039086
1550000000.0,22.28,-0.0027697851907352525,-0.009475461124760085,0.001916378053516644,-0.4071148494655485,-0.19031357850353575,9.873765150534451
1555000000.0,22.28,-0.014345779731853496,-0.01455378686746559,0.00023421662971059897,-0.20139860530778605,-0.263889302040093,9.800091628163917
1560000000.0,22.28,-0.024419280226945065,0.0038328088072506934,0.0,-0.21111132120451323,-0.35237547271015474,9.755848678795486
1565000000.0,22.28,-0.020011576343314894,0.004535405996165198,-0.0018524990661339148,-0.29263257358422573,-0.32029634800876344,9.75114
1570000000.0,22.28,-0.009094525206726555,0.0015117942693565062,-0.0002980956170933282,-0.2872367390092674,-0.2886101085139011,9.742703369504634
1575000000.0,22.28,-0.009262468980561213,0.004684476992807528,0.0018099130745454287,-0.32618265296242654,-0.2511358776300588,9.791361183554912
1580000000.0,22.28,-0.014053407790326933,-4.2606017671024086e-05,0.0003406816086818144,-0.28409741586237414,-0.21228827724158278,9.808430430689604
1585000000.0,22.28,-0.014021448270553028,-0.0010646508437165,0.0008836635414784712,-0.24211067685310678,-0.3037179694406797,9.769288346066382
1590000000.0,22.28,-0.020838909071778898,0.0006813832434461994,0.00019163380013515027,-0.3158823088384231,-0.4122165397222654,9.809215385303053
1595000000.0,22.28,-0.024099862101935758,-0.00928379570449456,0.0008623705456842282,-0.39710904784769047,-0.3521786901903869,9.88337904784769
1600000000.0,22.28,-0.013418047387459562,-0.0142663314242433,-0.0014905212996448199,-0.24721134736031347,-0.1844274095164741,9.89044196892192
1605000000.0,22.28,-0.011487585987055385,-0.003130026113571313,-0.0012882241375430149,-0.10526089472240895,-0.34864821055518214,9.849730344124003
1610000000.0,22.28,-0.027502962892550057,0.019943958871632635,0.0005962112602692271,-0.2697757818079578,-0.4710764814508648,9.808822674910727
1615000000.0,22.28,-0.013088494768762546,0.010799512476942212,0.001884435397812242,-0.5050195528664956,-0.24878059617800596,9.845512388216624
1620000000.0,22.28,0.0006388246559707314,-0.01223553478856806,0.000511025575035759,-0.3131341616036416,-0.08711242240132422,9.844138737066887
1625000000.0,22.28,-0.015184443335331445,-0.002932088002426201,0.0015969831166029978,-0.1397920896722209,-0.36051879411068793,9.780569747490597
1630000000.0,22.28,-0.03706737137493884,0.01000775229147707,0.0013414566270286226,-0.3982872664317727,-0.5481831799295318,9.804506589964767
1635000000.0,22.28,-0.019274789205921877,-0.008221292023139311,0.0018418494062237558,-0.4573420094525201,-0.28517539792555396,9.884261985821219
1640000000.0,22.28,0.0016183245965971805,-0.01752032007748834,0.002129301687433,-0.15892072579870725,-0.1271373770147738,9.858657377014774
1645000000.0,22.28,-0.0155457482669152,0.0060972442881887315,0.0006174905540069745,-0.06298026390430264,-0.36561988222959885,9.741918152669882
1650000000.0,22.28,-0.03270227245497545,0.0226945475676113,0.0014905181376317824,-0.3296172178722722,-0.46401296795072966,9.70209
1655000000.0,22.28,-0.015634387164124495,0.004987878726959168,0.0006600765455954606,-0.461756796439168,-0.2376952391691524,9.735934660731946
1660000000.0,22.28,-0.0063879050622992,-0.010774298032061206,-0.002171898219065012,-0.28409669718176694,-0.13734,9.731127503269475
1665000000.0,22.28,-0.02351926862881511,-0.0002873890409485283,0.0003726453444730998,-0.20277273234062732,-0.37395836426258366,9.701991802978117
1670000000.0,22.28,-0.041103247838746956,0.004279885830616919,0.0007239555329781899,-0.41319823800788236,-0.509923897313239,9.74407705950197
1675000000.0,22.28,-0.025723432668228477,-0.016194136388120832,-0.001384053158660567,-0.43065854451188545,-0.30312789381457894,9.872784520557845
1680000000.0,22.28,-0.010135451241999174,-0.022545443896834303,-0.001447921605999838,-0.13773112735261125,-0.2428958936878589,9.908884702104046
1685000000.0,22.28,-0.02020748962571799,0.006605515283342401,0.0009475499068916213,-0.0679836600201366,-0.4786309800604098,9.82412600725076
1690000000.0,22.28,-0.02703828814351102,0.026995730610039854,0.0034494758587108997,-0.39985717565867174,-0.4281074808657748,9.792734465652446
1695000000.0,22.28,-0.007139860186166615,0.003189966252156201,-0.00028748073932660396,-0.4650914744565148,-0.12026948060639481,9.824126531693366
1700000000.0,22.28,-0.007463099612571021,-0.013201666878470264,-0.0012775702616155127,-0.19227487730434878,-0.2491754529002545,9.809999834897699
1705000000.0,22.28,-0.03861082675988815,0.009219653095074078,0.0,-0.24986179288011792,-0.5491645285867452,9.761440334412104
1710000000.0,22.28,-0.03579694382431482,0.00843927128393357,0.0,-0.5077663307233633,-0.35884817247978174,9.769779166073493
1715000000.0,22.28,-0.008407516863038141,-0.017768411274832127,0.0,-0.3244150677209507,-0.16255173331181733,9.801563466623636
1720000000.0,22.28,-0.022921212342577938,-0.007885968730649003,0.0,-0.06278366591063667,-0.4304644036289441,9.804506366591065
1725000000.0,22.28,-0.041432363840463365,0.014967983724179991,0.0046844928028727095,-0.3109788093269882,-0.5135527293607273,9.805585533506056
1730000000.0,22.28,-0.015743411110138574,-0.0004699740409871943,0.004492801032498512,-0.4593036287460363,-0.2530969919047699,9.836487168015871
1735000000.0,22.28,-0.006535636782271944,-0.010771775471365215,-0.000628154969977975,-0.22141065529090653,-0.3100953469108535,9.869448667400587
1740000000.0,22.28,-0.03422322787092451,0.00848378085073198,0.0006388088459055689,-0.27232688430166885,-0.5010949351896493,9.888872467594824
1745000000.0,22.28,-0.03268937551956995,0.0012238705371870294,-6.390112147399308e-05,-0.4262443305273433,-0.3598297153749972,9.868271196632811
1750000000.0,22.28,-0.012252185465418019,-0.013316836309134567,-0.001596965198529169,-0.22072374230893743,-0.2697754418914544,9.795284694075146
1755000000.0,22.28,-0.02365455470002991,0.010772316486612345,0.0005216826129763388,-0.18825495675184958,-0.4152578795090788,9.74633306591123
1760000000.0,22.28,-0.03174399278384336,0.01508440916517052,0.0005536147286372827,-0.4234001811601018,-0.39200681372456814,9.774291839301219
1765000000.0,22.28,-0.016426114105255803,-0.00869823832015284,-0.0010007792343641915,-0.3395228315287283,-0.2239619228869192,9.75928192288692
1770000000.0,22.28,-0.018809840830443136,-0.0006945327770407784,-0.0006600723295780773,-0.19227634380126343,-0.31568693454416935,9.684039462479495
1775000000.0,22.28,-0.03904482436686696,0.008792912584476387,0.0015437474651043526,-0.3467842929766429,-0.5081581379089813,9.715824413726946
1780000000.0,22.28,-0.03353463230036367,-0.0028107007409444744,0.0011924014404515377,-0.40613348138453487,-0.3441333133023331,9.797835738297458
1785000000.0,22.28,-0.013840460968315,-0.006845708687892809,-0.0009156072511872192,-0.2604549799277498,-0.22180503613005037,9.790281657299616
1790000000.0,22.28,-0.030847092710214852,-0.0020866703736576765,0.00010648395104948189,-0.20954187814881878,-0.5046275125952752,9.75114
1795000000.0,22.28,-0.04341217795763492,0.006196275478181433,0.0023209312715508257,-0.37170191110591916,-0.5177703356397034,9.831582697314428
1800000000.0,22.28,-0.019174111211893247,-0.00575621356216587,-0.0002129415519902349,-0.3982847413377475,-0.30214824473988244,9.94734
1805000000.0,22.28,-0.017190370392891924,-0.010199214237067666,-0.0017140840534278765,-0.1481306494004065,-0.4122168310792683,9.88995097410061
1810000000.0,22.28,-0.03529999369977324,0.0166790912347778,0.00014906256460750565,-0.28213742816807424,-0.5012908242146082,9.833740516413705
1815000000.0,22.28,-0.03097743861122449,0.0016013226943974238,0.0013414524110112393,-0.47136926610309265,-0.4273231769496318,9.913888146779382
1820000000.0,22.28,-0.016406754671794584,-0.018919238585145985,0.0,-0.20561710508157105,-0.33903345859473455,9.914770375784205
1825000000.0,22.28,-0.02039428393898117,0.006867024871782665,0.0011178949272499467,-0.20012485076244851,-0.420359598901496,9.815395251860952
1830000000.0,22.28,-0.03685433390855317,0.008453292980206122,0.0028319673866300504,-0.3431536933633369,-0.5012897559055977,9.740741080090011
1835000000.0,22.28,-0.020335773807833378,0.0017779630408106058,0.002480640334055427,-0.32373,-0.2584933217866332,9.701894013856041
1840000000.0,22.28,-0.014697921909920154,-0.0013201941973604722,0.00217187608497375,-0.2735022281633223,-0.35433866533148667,9.728773057040831
1845000000.0,22.28,-0.04333809223406992,0.0012085554911883461,0.000990136952484484,-0.2549629392704294,-0.542688196566482,9.699048864163089
1850000000.0,22.28,-0.03621550398256067,0.005968877720946739,0.0022357550723564813,-0.45126,-0.34727392813193925,9.721710359340303
1855000000.0,22.28,-0.025941759992359495,-0.019900038251360948,-0.000308752655033908,-0.3118581344736814,-0.37905897649838977,9.7846901279377
1860000000.0,22.28,-0.038472657451146,-0.0036999646394813117,0.00012777378483067362,-0.11065864254168643,-0.5042341806413418,9.795481525154415
1865000000.0,22.28,-0.040101537901266616,0.011154769393359644,0.0020441138941909133,-0.4205540117176401,-0.502467692844577,9.851103791323839
1870000000.0,22.28,-0.03067478083135346,-0.01253311468651859,4.2601801653699336e-05,-0.2513317278074173,-0.37160236412992365,9.816866818387469
1875000000.0,22.28,-0.021829808449538066,0.006920238389190069,0.002661619204258731,-0.2035581919728819,-0.3924016024635161,9.822263119133632
1880000000.0,22.28,-0.0426034870411815,0.006728565590894126,0.0008091306781681997,-0.3551221825837218,-0.6502057775311578,9.928504507866045
1885000000.0,22.28,-0.0362327573598301,-0.0013840858327953565,-0.00024487366765117875,-0.3878873267722733,-0.416630297247503,9.891423366138634
1890000000.0,22.28,-0.018188131978256524,-0.0095818575934488,-0.0008304236739624428,-0.31019113538151133,-0.3680717873757179,9.941061159468212
1895000000.0,22.28,-0.03206348363515246,-0.004886663484453004,0.0008943226874277635,-0.13155287297012874,-0.5152216416972164,9.847179863191899
1900000000.0,22.28,-0.037067238570391334,0.011924073428759124,0.0040456692009062855,-0.3217685166730852,-0.5415107452225074,9.821771667853017
1905000000.0,22.28,-0.02080671587405783,0.005887466960917201,0.002587089502961503,-0.38876944894619453,-0.2802718110070181,9.736228503981284
1910000000.0,22.28,-0.015525875775240179,-0.0018737130116022955,0.000574923534496731,-0.20954167419891673,-0.3464900903870009,9.663830814502708
1915000000.0,22.28,-0.0426034870411815,0.012211508845898887,0.0026509684903442345,-0.2806653274870533,-0.5262081024273811,9.638619634769196
1920000000.0,22.28,-0.0415813979469535,0.00016745440480046316,-0.00017034818237132794,-0.5007012438954125,-0.44694326435673265,9.716608911881089
1925000000.0,22.28,-0.035576775240985445,-0.01779441504801683,-0.0009049491592422936,-0.24525,-0.3830807617357076,9.74133
1930000000.0,22.28,-0.03523863623636091,0.0007878050082392083,0.00014905518657708485,-0.2521171874396719,-0.4840265621259656,9.75094406241554
1935000000.0,22.28,-0.05276471637848419,-0.007037329839975797,0.0009262421550365366,-0.30067668792526686,-0.6958218341829183,9.816376687925267
1940000000.0,22.28,-0.033617784845771555,-0.004386365565648954,0.00012776219078284177,-0.324514197085242,-0.3841602782791028,9.869645139139552
1945000000.0,22.28,-0.02436608778962462,-0.0035665188252968303,0.0010646508437165,-0.18854827555858275,-0.5438665511171656,9.937627759986379
1950000000.0,22.28,-0.0404741853537485,0.010752977632153998,0.0009581816487279013,-0.23249802266308023,-0.5748658484943585,9.871803492393335
1955000000.0,22.28,-0.03855773141191887,0.008930730201342222,0.0,-0.4576359303970593,-0.5236571164764713,9.979516496211765
1960000000.0,22.28,-0.020543987666527347,-0.017646600562784814,0.0,-0.3033242101631421,-0.3802364375542644,9.902606133505461
1965000000.0,22.28,-0.03636464138147678,0.001193697019137713,0.00022358910389170918,-0.09545278854292788,-0.5739828328256283,9.833249356490093
1970000000.0,22.28,-0.037769934835714364,0.01551762264475233,0.002874536514149031,-0.4447849790862498,-0.505410893880909,9.749962723470226
1975000000.0,22.28,-0.02839036913434555,-0.008038076400205365,-0.002022828276427018,-0.3374635396559354,-0.42575353965593543,9.726614616379946
1980000000.0,22.28,-0.022247454734179866,0.0011924214665341123,8.518041521173889e-05,-0.22759219229562191,-0.32883266144672657,9.636559507672994
1985000000.0,22.28,-0.04482914352511312,0.004194715955448601,0.002065414268015504,-0.27909507834365077,-0.6802245517626456,9.709839630106297
1990000000.0,22.28,-0.047517901181431794,0.0019163295693167303,-2.129721181162636e-05,-0.4202600907731009,-0.46911385211973855,9.645388625186987
1995000000.0,22.28,-0.02684691326559096,-0.008538508177561311,-0.0010753015576310048,-0.34197605749326054,-0.38455277500962776,9.750551167497111
2000000000.0,22.28,-0.04794421563237112,-0.010646424116817734,-0.0021292848233634668,-0.20601042732360428,-0.578790388476004,9.692280621561606
2005000000.0,22.28,-0.05321423736146821,0.010433662799570625,0.002086732559914047,-0.31284132839191325,-0.675909389447194,9.84767102311551
2010000000.0,22.28,-0.04177336177140025,-0.009177370777688449,0.004216025815312378,-0.45812758562757583,-0.5615239314979393,9.96460606850206
2015000000.0,22.28,-0.03224439610308194,-0.017860511885167043,-0.0009049744553465905,-0.11850339099753393,-0.5782014782779148,9.995507217416872
2020000000.0,22.28,-0.036045254876597876,0.0033636880259782995,0.003023625428865184,-0.2491745885411459,-0.6164605569443057,9.96813708229177
2025000000.0,22.28,-0.040261272259875594,0.0042586033748661,0.00015968482040467843,-0.2643795393331954,-0.6739472359991725,9.985599078666391
2030000000.0,22.28,-0.02446176819612938,0.0072609315919196565,0.0,-0.30175575772125757,-0.44635401424214016,9.829815529684655
2035000000.0,22.28,-0.016508864833105295,0.011413074203832016,0.00297038872336219,-0.2949866604725666,-0.4498866790548668,9.7103299256708
2040000000.0,22.28,-0.039494809785634785,0.0009368454387555115,0.0012349863780356856,-0.31235047924910475,-0.5685881151191812,9.638913322628133
2045000000.0,22.28,-0.03863232646148554,0.012594875522577717,0.0010646508437165,-0.358555698608357,-0.44488290417492904,9.615565720556656
2050000000.0,22.28,-0.036428503504789975,-0.011072481131515266,0.00010646076295383212,-0.3982861592751616,-0.5464175176442753,9.657945199093952
2055000000.0,22.28,-0.04475900772603099,-0.004365025139659182,0.0018950871657310926,-0.2537840214295402,-0.4980534205886342,9.601733420588634
2060000000.0,22.28,-0.04862558411975646,-0.0069415408710233875,0.0002555075174961504,-0.3304012401433124,-0.6545239602475397,9.784102480286625
2065000000.0,22.28,-0.05456634891842878,-0.011157558254301087,0.0,-0.2921415593391156,-0.6512857796695578,9.835604220330442
2070000000.0,22.28,-0.04164767921758549,-0.004386326567488189,0.0,-0.2760533597927336,-0.64746,9.949106322694464
2075000000.0,22.28,-0.03397978896236937,-0.00047907975731833466,0.0,-0.30803416121754157,-0.5724131372605314,9.958621459695616
2080000000.0,22.28,-0.036598873821252535,-0.004471555466899861,0.0,-0.14087075156840753,-0.6827766060225661,10.023073523212036
2085000000.0,22.28,-0.03639656822711598,0.01413185318688397,0.0,-0.32775319346283194,-0.6411812760110128,9.872783190027532
2090000000.0,22.28,-0.03359652768612513,0.001514862009480776,0.0,-0.34864727821277275,-0.5956630376170304,9.863562721787227
2095000000.0,22.28,-0.028709771449289666,-0.000404558488055852,0.0,-0.27978087445710875,-0.4853001709928017,9.805290874457109
2100000000.0,22.28,-0.03877080155243928,0.005962075712540328,0.0,-0.28841412236994124,-0.5709425710597257,9.688355469730256
2105000000.0,22.28,-0.04406207200914807,0.0007239270748608945,0.0,-0.3485495862096959,-0.6216598226612983,9.631850236451601
2110000000.0,22.28,-0.042241492410622895,0.003087509686269625,0.0,-0.3323626360631264,-0.5054105442525054,9.615958159015781
2115000000.0,22.28,-0.035800336940764156,-0.003939252706135009,0.0,-0.29351503567465037,-0.5615248929760489,9.681783669732036
2120000000.0,22.28,-0.05109146618128924,-0.0015330704010812508,0.0,-0.2621230764646308,-0.6631564117845642,9.724456923535369
2125000000.0,22.28,-0.04766489252382718,-0.0039924630615293735,0.0,-0.4022108255115082,-0.6646273761732738,9.797737871480178
2130000000.0,22.28,-0.04315709649979708,-0.013214630872742472,0.0,-0.32059005529150053,-0.6500105586273056,9.877885530981555
2135000000.0,22.28,-0.04338068665769317,-0.007425279189320186,0.0,-0.20306658530186583,-0.7190734146981341,9.948419390288693
2140000000.0,22.28,-0.04290158476628355,0.0057065871671224296,0.0,-0.3107815897717159,-0.6890540674645408,9.974023241566933
2145000000.0,22.28,-0.036556234075442416,-0.0025126483380292913,0.0,-0.2863534416954344,-0.6392194333437944,9.907118583359486
2150000000.0,22.28,-0.030359979677347878,0.0022358256906476618,0.0,-0.24132591647765916,-0.6072388747164887,9.844334791194148
2155000000.0,22.28,-0.03757838957194423,0.011530200436761215,0.0,-0.2828225930080259,-0.6322547092914471,9.775468465133685
2160000000.0,22.28,-0.040814869070439005,0.007324756825080782,0.0,-0.31745168391081685,-0.567409896535099,9.697773264356734
2165000000.0,22.28,-0.03548094094984619,0.0035452827457372275,0.0,-0.3303027420525274,-0.5560309682101097,9.666087257947472
2170000000.0,22.28,-0.046383957189189445,-0.0031301146499363563,0.0,-0.34001464214964644,-0.7178967694418678,9.675799284299293
2175000000.0,22.28,-0.056035559304205486,-0.0036197945289605524,0.0,-0.3752327112338271,-0.6862087818049879,9.778118133701481
2180000000.0,22.28,-0.043205878118996635,-0.0130425700369817,0.0,-0.2982233648417336,-0.6152831153122311,9.823341557656116
2185000000.0,22.28,-0.041869273160365594,-0.009779887904056098,0.0,-0.15254486338494863,-0.7565482185840822,9.807449315117994
2190000000.0,22.28,-0.04977542170271081,0.010274156814329527,0.003960528837859712,-0.2623205485293055,-0.7889198171568982,9.84884794030498
2195000000.0,22.28,-0.041151643433174546,-0.0009621689990044618,0.0024912552118222194,-0.3809224279057243,-0.6656078604713785,9.914574855811448
2200000000.0,22.28,-0.02961471428450587,-0.007452509529824544,0.0,-0.2217047607615476,-0.5846758290705583,9.866897487211675
2205000000.0,22.28,-0.039206994823258005,0.011263763844530704,0.0006281486459519001,-0.21788091376010915,-0.7194665135664652,9.785082343023124
2210000000.0,22.28,-0.05103170529255821,0.013890321404159408,0.00044714869566172145,-0.4024070156053702,-0.7273126702478268,9.743880471220205
2215000000.0,22.28,-0.03687239776332823,-0.0011924836527905536,0.000606855650157657,-0.40799734069167337,-0.5678021116205212,9.77625394418974
2220000000.0,22.28,-0.036438379663740354,-0.010305834206513962,0.00046844169145596453,-0.2652617100666171,-0.692587509229275,9.804506356879164
2225000000.0,22.28,-0.05635502064339294,-0.004098844774157299,0.0,-0.2501554321795543,-0.8382644567820446,9.81098108643591
2230000000.0,22.28,-0.047146782346269026,0.00040455321803412286,0.0,-0.3525718764658188,-0.7067113604382136,9.830404886630149
2235000000.0,22.28,-0.033085517921154495,-0.007271617087977591,0.0005642696585691708,-0.23063166739761667,-0.6764001511829015,9.82383196976342
2240000000.0,22.28,-0.04184608033037739,0.006610076288443196,0.0016182740043885493,-0.17030238316762383,-0.7710662175465622,9.784493782453438
2245000000.0,22.28,-0.04737991540767587,0.015264918174059392,0.0010433483618831445,-0.37013230294792304,-0.7145597022970971,9.76095
2250000000.0,22.28,-0.03675655333791368,-0.0031940379055016115,0.0,-0.34334877630058774,-0.6229348688893487,9.746234868889347
2255000000.0,22.28,-0.03761891709304536,-0.0012987694510229464,0.0,-0.23965860660468605,-0.6947449884120499,9.712292224797322
2260000000.0,22.28,-0.05458767775037076,0.005025099577246014,0.0010220743381671262,-0.3735657218535572,-0.8036353755911538,9.739368438977884
2265000000.0,22.28,-0.05176863897111286,-0.009079104708457028,0.0016289110162465584,-0.39769660809166607,-0.7318251201018513,9.80882297597963
2270000000.0,22.28,-0.0404741853537485,-0.014190535656381634,0.0005749066704271799,-0.2499582708956827,-0.7316308141166081,9.861208508644184
2275000000.0,22.28,-0.05150128594802178,-0.005269978514918878,0.0,-0.22170635351316353,-0.8887863535131635,9.89829
2280000000.0,22.28,-0.05138584437689114,0.0,0.0009369023549901539,-0.3080344428626444,-0.8110895599845955,9.902606444286263
2285000000.0,22.28,-0.030881647534263385,-0.0018312187183918644,0.0012136923282370891,-0.25751139041541393,-0.7036717882172179,9.891226622466466
2290000000.0,22.28,-0.03603137666314637,0.006927681629650245,0.0008943163634016677,-0.18364391168803912,-0.7981419558440196,9.794695599350955
2295000000.0,22.28,-0.04507308431252446,0.016256801508072374,0.002129301687433,-0.3631671807076718,-0.7752835421804355,9.708368578310486
2300000000.0,22.28,-0.0394095345100319,-0.0010647478121163954,-2.4242099993642546e-08,-0.3884748384567484,-0.6611938213010383,9.715823821301038
2305000000.0,22.28,-0.04190765350182668,-0.005536087208125342,-0.0015330777791116841,-0.2507437790874378,-0.7026910611216106,9.68462811045628
2310000000.0,22.28,-0.04986061476597473,0.0034068340048921094,0.0014692230338288477,-0.3380533627726336,-0.8230592243448922,9.695027069213872
2315000000.0,22.28,-0.053309995764294585,-0.00871537002039601,0.0013414503030025476,-0.3833740805424408,-0.8208022953051229,9.756928214762683
2320000000.0,22.28,-0.044105119343622365,-0.015810559204311757,0.0007665583886362092,-0.2633001296207013,-0.7828382253160824,9.839038095695381
2325000000.0,22.28,-0.04213056660879999,-0.007612199620250946,0.0017566689910120169,-0.20846227419832275,-0.8485654516033546,9.894365819358658
2330000000.0,22.28,-0.04859830949379088,0.0032578757867148555,0.0014266370422403615,-0.22994712411927123,-0.875640102168001,9.86218910948509
2335000000.0,22.28,-0.0383980423754968,0.008176498790941808,0.00177796198680626,-0.31735327322713275,-0.7752838918088389,9.846002654645426
2340000000.0,22.28,-0.03178669366190558,0.003960481407664162,0.001746037249175769,-0.2656545272898453,-0.7475224545169246,9.820594527289845
2345000000.0,22.28,-0.042789922889294625,0.003374977777544071,0.0022038124166520786,-0.28341176542741764,-0.8051065633535658,9.774487708902377
2350000000.0,22.28,-0.04538375682783494,0.0030874032318307394,0.0,-0.37964649789476496,-0.7759708630622086,9.755063908708138
2355000000.0,22.28,-0.041575872009513494,-0.006803074212104429,0.0006175074180765077,-0.28135043405560434,-0.7752846202013463,9.749864837229147
2360000000.0,22.28,-0.04866818697541448,0.0,0.0012349800540096033,-0.2668326876025269,-0.8542553042418531,9.779000537520504
2365000000.0,22.28,-0.05125522377815875,-0.0022996857059521666,-0.0004897294172284785,-0.35688752437627524,-0.9001650487525504,9.808136237811864
2370000000.0,22.28,-0.044703098065507,-0.007963578319038496,0.0007878366283696108,-0.2833122475871225,-0.8142300000000001,9.842373230172033
2375000000.0,22.28,-0.042337339349814325,-0.0031938924529018886,-0.00026616771744976766,-0.20601018452610187,-0.8387554613152547,9.861502177079322
2380000000.0,22.28,-0.04524802004017159,0.006643426281851846,-0.00029808718505856173,-0.2425033386859334,-0.8982033226281332,9.81
2385000000.0,22.28,-0.044426782152313,0.006228182297738032,0.0023741764090885473,-0.29194615590916156,-0.8218811514393115,9.805487307348473
2390000000.0,22.28,-0.0364498102026407,0.00025547589736573187,0.0027254960836327717,-0.35453279650252795,-0.7463454499203546,9.777430521462705
2395000000.0,22.28,-0.04220269606574164,-0.004152087803686322,0.000617487391993937,-0.2612404395600044,-0.8699511721600117,9.733580146520001
2400000000.0,22.28,-0.05837771716927684,0.00340686246300944,-0.00085171561575234,-0.313920699256807,-0.9182156736801567,9.751140233085602
2405000000.0,22.28,-0.04698264188664063,-0.0028320422209386323,0.0,-0.39249711900097123,-0.8576881598572816,9.79410789342848
2410000000.0,22.28,-0.04026444766395185,-0.01183883609731274,0.0003832844643398337,-0.22563,-0.8550401617363017,9.813531693622718
2415000000.0,22.28,-0.04937083686454631,0.0014053187503418186,0.002129301687433,-0.24731070981020709,-0.9532377469084775,9.841294228359342
2420000000.0,22.28,-0.04823941745461485,-0.0019589524510573264,0.0019589524510573264,-0.33432423593284233,-0.9284174128824741,9.890441764972017
2425000000.0,22.28,-0.03270222397077558,-0.00042583988980227614,0.0010646508437165,-0.2310253586918536,-0.7759716594380166,9.840410717383707
2430000000.0,22.28,-0.03402495235743733,0.005283183444217273,0.0009155946031350693,-0.2252382607976826,-0.9050710247985102,9.78076586960116
2435000000.0,22.28,-0.05174267258916429,0.015761282997892607,0.00027681948536861827,-0.35482812567258126,-0.9529423594670235,9.729362083781721
2440000000.0,22.28,-0.041027783218316224,-0.0019185431512306218,0.0018737751978586247,-0.409272299512623,-0.7745979791525799,9.781747247394073
2445000000.0,22.28,-0.03868755373194998,-0.013877194557576411,0.0,-0.2420125575264256,-0.8555306224031062,9.781746820070468
2450000000.0,22.28,-0.0500734962397173,0.003619833527121388,0.0,-0.23544095176620952,-0.9456837144701372,9.716805237941552
2455000000.0,22.28,-0.04920951159868935,0.005342862500742021,0.0,-0.40319052314570525,-0.8988906337980064,9.765364738427147
2460000000.0,22.28,-0.04098664522135381,-0.014708160801874343,0.0,-0.30371697882686977,-0.962949695565097,9.810784847782548
2465000000.0,22.28,-0.047103135974472354,0.00014906151060315977,0.0,-0.19463097455600975,-0.979626504240665,9.82530398303734
2470000000.0,22.28,-0.04930583786795549,0.0017459961430062439,0.0,-0.29881216820892165,-0.9590254080928541,9.895346760116068
2475000000.0,22.28,-0.03738670834161348,-0.0034600369822560227,0.0,-0.21631054807390548,-0.9226305480739054,9.846296711556567
2480000000.0,22.28,-0.0397935540819273,0.011498202972830815,0.00012777378483064977,-0.23308651524946514,-0.9335197926840979,9.791949792684099
2485000000.0,22.28,-0.04865692931050562,0.005972623134028969,0.003098118240010316,-0.4102539103911391,-0.9679521690504217,9.82873695519557
2490000000.0,22.28,-0.03725893455678283,-0.007346064576935835,0.0,-0.3504125228863252,-0.8646537385568375,9.79940500653895
2495000000.0,22.28,-0.03635422958097357,-0.0020760428478387456,1.0651767918850638e-05,-0.21631074231190744,-0.9330296330861962,9.760655554612855
2500000000.0,22.28,-0.05007346453319313,0.003193947261127871,0.0010646455736947709,-0.26487053415450534,-1.0398593201669932,9.731520194238001
2505000000.0,22.28,-0.04373215969850907,0.0021399429153083935,1.064122787539242e-05,-0.37170143522281435,-0.9038927188073271,9.770367794626477
2510000000.0,22.28,-0.036364596059289905,-0.005174240138175098,0.001043363117943986,-0.24779996620139966,-0.883292302492523,9.789987697507478
2515000000.0,22.28,-0.043444598319210645,-0.003257820978488874,0.0010646508437165,-0.21670275344742754,-1.0636992281662923,9.780864251149143
2520000000.0,22.28,-0.047773173621401314,0.009070888934647699,0.003108791088016082,-0.3288317873757179,-1.0222017552601177,9.789987648947978
2525000000.0,22.28,-0.03882480121885859,-0.005589496770340995,-0.0008517419658609802,-0.34285954904509547,-0.9456836076392361,9.864936392360764
2530000000.0,22.28,-0.04034643791902649,-0.0013840194305215128,-0.0010646508437165,-0.25113550857785505,-0.94176,9.813531305146714
2535000000.0,22.28,-0.047421331402604246,0.001905741041658635,0.001905741041658635,-0.27262004771800047,-1.0329934923933348,9.782629952282
2540000000.0,22.28,-0.04892367868284546,0.00017033342631048642,0.00017033342631048642,-0.30175574800935745,-0.9947337533177375,9.771544750663546
2545000000.0,22.28,-0.040273424117881124,0.0,0.0009688376326641352,-0.25947425283214254,-0.955101402265714,9.77076
2550000000.0,22.28,-0.040367725644799,0.006707337943369277,0.0001064597089494863,-0.290376198122762,-0.933911900938619,9.717785702815856
2555000000.0,22.28,-0.04901762060421506,-0.00012780118894361626,-0.0009475446368698921,-0.311761899255619,-1.0891070933005709,9.764285697766857
2560000000.0,22.28,-0.045373646558968424,-0.0010646508437165,-0.00012775270474372938,-0.3570842486246425,-0.9876701038510011,9.822557098349572
2565000000.0,22.28,-0.04102778216431192,-0.01404735827190846,0.0018525032821512981,-0.26908775195747753,-1.00532899928819,9.89789799857638
2570000000.0,22.28,-0.037727369924212745,-0.0031537340233881595,0.004876117116968754,-0.1791301507275015,-1.0526132495958325,9.840606800646668
2575000000.0,22.28,-0.041805026049005996,0.011604770190223608,0.003513336928019803,-0.300186800260568,-1.0844956500488565,9.82962
2580000000.0,22.28,-0.04081486274641293,0.002214403052318882,0.0005110160889966629,-0.389653600907236,-0.957062798185528,9.804898649659787
2585000000.0,22.28,-0.03428852580733811,-0.004418328247435981,-0.0026509969484615715,-0.23936299578952996,-0.9238076497894765,9.767620599157906
2590000000.0,22.28,-0.0435121710561839,-8.513930904228886e-05,0.0011711432268006888,-0.2623197521534975,-1.08302500615285,9.680507496923575
2595000000.0,22.28,-0.04926438347962294,0.006238886765874181,0.0012669290337400801,-0.33824920323809204,-1.0309323455476234,9.678742300809523
2600000000.0,22.28,-0.038135367334710096,-0.0010647056519425225,0.0002129246879207017,-0.38455220200752205,-0.9476455959849559,9.721710252509402
2605000000.0,22.28,-0.0444165955631646,-0.00992258979433925,0.0,-0.26065083981700843,-1.1024489131779893,9.754769851796999
2610000000.0,22.28,-0.0468795437085676,-0.001745961360862927,0.0,-0.25623740278447404,-1.1248144479116444,9.845120357657303
2615000000.0,22.28,-0.040307811286123665,0.00024486418161206633,0.0016395733242088673,-0.31019250475942506,-1.0125874888946749,9.883967501586474
2620000000.0,22.28,-0.0334900426810713,-0.0032365606568293243,-0.0011072589693962485,-0.24171784020607842,-1.070467810684278,9.873568698219287
2625000000.0,22.28,-0.04314897999246263,0.0053233206208564855,0.0018631666441180279,-0.2893955098747551,-1.128150203949902,9.861502449012525
2630000000.0,22.28,-0.042927392339151105,-0.0001491121028117555,-0.0007452833109158185,-0.35021725542297255,-1.0290682337310824,9.85905
2635000000.0,22.28,-0.02988082613972535,-0.003971153201665547,0.00020230032411484248,-0.24838838109258382,-0.9478418929097189,9.751629732274298
2640000000.0,22.28,-0.035534277785762,0.001873830006084651,0.001831205016335326,-0.23426300511533005,-1.0944047794131477,9.655393989769339
2645000000.0,22.28,-0.04924872621050825,0.005014511049587876,0.0028852093621547755,-0.3566924220152242,-1.1088239403683395,9.675210908255709
2650000000.0,22.28,-0.03835000783803325,-0.0021293575496634087,0.0024486913543249472,-0.3678747426346474,-0.9859042279039423,9.712881154419211
2655000000.0,22.28,-0.035630051998653545,-0.008261712934292613,0.0013946870085055386,-0.23131887173658872,-1.1042148376845484,9.71494104842981
2660000000.0,22.28,-0.050323528411981996,0.0027256014840673828,0.0010646508437165,-0.2232759616711596,-1.2372376650057766,9.798621071675012
2665000000.0,22.28,-0.04146995215813419,0.0013839899183999173,0.00035132916058328175,-0.34384127646641277,-1.0683074470671745,9.878866510586565
2670000000.0,22.28,-0.027762203624324067,-0.004940002428377519,0.0,-0.26938161463061616,-1.0229872148923722,9.891815348138453
2675000000.0,22.28,-0.041124455926715715,0.0033004965604467775,0.0,-0.20601,-1.170824487214645,9.837467584330676
2680000000.0,22.28,-0.04665541509268095,0.0071544423708485285,0.0020441465683256246,-0.3880851096177511,-1.1481616712190168,9.835113808223138
2685000000.0,22.28,-0.02997660351462993,-0.01039148289339421,0.0011817454565153408,-0.33599119617741197,-1.0060147177064471,9.824518591388387
2690000000.0,22.28,-0.03253198645886052,-0.004392857541268863,0.0006600891936476105,-0.20267423424984232,-1.067132792750428,9.718766216249662
2695000000.0,22.28,-0.04721349346060773,0.007921025001584717,0.0010646508437165,-0.2783105899014059,-1.1978015234714154,9.716707371124274
2700000000.0,22.28,-0.04197158669267876,0.001916303219208151,0.00042585464586313254,-0.37866631466556316,-1.0477063217836633,9.709937632890176
2705000000.0,22.28,-0.02949758383555931,-0.006334701030930947,0.0012562993999124918,-0.292238901713789,-1.0494749559103496,9.722985667789656
2710000000.0,22.28,-0.04039927339444889,-0.0048121875373773795,0.0033643080915513063,-0.21582,-1.234687494854475,9.779589263192493
2715000000.0,22.28,-0.04263220475460541,0.0033324086500251394,0.0030448899665420372,-0.29969629103426293,-1.1369774179314742,9.82255701094247
2720000000.0,22.28,-0.02846484929743856,-0.003279227806752498,0.002129301687433,-0.3245144301708443,-1.0324046113309462,9.82294904150179
2725000000.0,22.28,-0.03760937683318484,-0.0040988310721008035,0.0009581742706974805,-0.2349489177715892,-1.2007454820359549,9.793813341210434
2730000000.0,22.28,-0.047189485315061175,0.005578804950256991,0.0005749172104706382,-0.3347186847552869,-1.2554831106493312,9.833544530269746
2735000000.0,22.28,-0.036268728040011536,-0.0022039367891648863,0.0010646508437165,-0.38827905626269055,-1.061636818773568,9.831875821883159
2740000000.0,22.28,-0.027102153428837265,-0.007835789778146978,0.001618275058392895,-0.2115024291333243,-1.0641900773091009,9.759772480672725
2745000000.0,22.28,-0.04132432860236199,0.004972017810381856,0.0010433462538744528,-0.2279856796399568,-1.2572504530933046,9.73652315331833
2750000000.0,22.28,-0.04687071262084423,0.004790830247318117,0.0,-0.36787526707725265,-1.1771982907055831,9.760950213661802
2755000000.0,22.28,-0.02893327728683802,-0.00530197281683621,0.0005216847209850305,-0.32029569731145696,-1.0010121859497219,9.727693511361736
2760000000.0,22.28,-0.034563267245384534,-0.0033216757237716507,4.25743975406821e-05,-0.23583229278062293,-1.2211515340941153,9.710330828877508
2765000000.0,22.28,-0.047563334470727324,0.003002350351144818,-0.0005642591185257126,-0.30862356672253566,-1.3383766350889663,9.778804522240845
2770000000.0,22.28,-0.03297890327356616,0.001000707562068692,-0.0004897452272936659,-0.38415938478429384,-1.0688963087057632,9.846101230431412
2775000000.0,22.28,-0.023972155773383224,-0.006760550406772378,-0.0005855521143199557,-0.2393624907707249,-1.1006839404376394,9.839919907088499
2780000000.0,22.28,-0.0424835667118466,0.005544039740029571,0.0,-0.191884895955949,-1.3337680859834808,9.793519361994495
2785000000.0,22.28,-0.04484902596935376,0.01152931776859729,0.0004578057336023012,-0.3954420196198202,-1.235567606665076,9.839528478666985
2790000000.0,22.28,-0.02395076897120224,-0.007835877260507662,0.0010646508437165,-0.36689237422792376,-1.0068979664607798,9.812745932921558
2795000000.0,22.28,-0.028976074079295693,-0.005791606319669265,0.0006281381059084418,-0.17608922855239229,-1.1665098687655986,9.737798617158086
2800000000.0,22.28,-0.04495274753052166,0.00809139953406469,0.0012775987197328497,-0.2609475772125758,-1.3557405315607052,9.745253782453437
2805000000.0,22.28,-0.03885575632432722,0.004705626644010757,0.002778732789135746,-0.39338045516240455,-1.1164749558410496,9.710232136548722
2810000000.0,22.28,-0.025356202608017787,-0.007558991372865256,0.001320155199199613,-0.28880574502945744,-1.0541835278749352,9.658729308772093
2815000000.0,22.28,-0.041023751582578406,7.459083354930274e-05,0.00039392674621957193,-0.22670926403399264,-1.2918809230859094,9.665695829525959
2820000000.0,22.28,-0.04840623280448535,0.004769594167758476,0.0006813705953940495,-0.32647805982768063,-1.3545622255695222,9.788418273875582
2825000000.0,22.28,-0.02662749653293535,-0.0048442387555294505,0.0,-0.3713069087051691,-1.0800813292334133,9.826677109744471
2830000000.0,22.28,-0.021831425655058502,-0.009134626685448136,0.0,-0.1930609099387091,-1.2184036490806365,9.83943
2835000000.0,22.28,-0.04011221601929411,0.004567429810204281,0.0,-0.2578076810635768,-1.3608423189364232,9.871803550664735
2840000000.0,22.28,-0.03472495106278546,0.005663798806699569,0.0,-0.3723877654907777,-1.170920110583001,9.896719682873297
2845000000.0,22.28,-0.023216249152665878,-0.00874072945135019,0.0,-0.32549458426434585,-1.0759623472999236,9.776547292132173
2850000000.0,22.28,-0.0352627344388034,-0.0014904991655535576,0.0,-0.21189666429396664,-1.2890344428626446,9.722691387504813
2855000000.0,22.28,-0.04207279250098209,0.0006175095260851992,0.0,-0.3113697327296973,-1.267156202716362,9.759380178180201
2860000000.0,22.28,-0.026207833903422552,-0.00025556443373088043,0.0,-0.3311851555834515,-1.0818468555520686,9.698557733375177
2865000000.0,22.28,-0.02783689458828626,-0.00322582562256717,0.0,-0.27203124435081244,-1.1736701807740018,9.632341289544312
2870000000.0,22.28,-0.0426034870411815,0.004769623679880204,0.0,-0.2954778689556787,-1.356918196566482,9.697773934477839
2875000000.0,22.28,-0.03648160529773666,0.0005322648166083905,0.0,-0.36051699740917,-1.2115346649394467,9.751140223373703
2880000000.0,22.28,-0.021949351739056124,-0.005408377717559717,0.0,-0.273109896535099,-1.2074157509892576,9.766443264356733
2885000000.0,22.28,-0.0353106591697486,0.0013095266193763704,0.0,-0.23534262848962628,-1.3544672043389723,9.769093476790935
2890000000.0,22.28,-0.036598783176878806,0.0011923845763820045,0.0,-0.33138174386521746,-1.3555440598217405,9.92772
2895000000.0,22.28,-0.02573939326597087,-0.0016821361277017453,0.0,-0.2969479689852797,-1.1451220310147203,9.911238750144788
2900000000.0,22.28,-0.026207974086000542,0.0017034902557481058,0.0,-0.21582056329020566,-1.2792249575933496,9.839429718354896
2905000000.0,22.28,-0.03951593835675108,0.006696598693089785,0.0,-0.31666747711367477,-1.386544610034046,9.811373738556838
2910000000.0,22.28,-0.028975894898556905,-0.0018312239884135868,0.0,-0.3872980086743801,-1.2382170130115702,9.836093865197638
2915000000.0,22.28,-0.021331800052797084,-0.004599267065474102,0.0,-0.2646734602777346,-1.1209904552317047,9.71817794703698
2920000000.0,22.28,-0.02970282223998502,0.00012780118894366917,0.0,-0.22994691045746912,-1.3608427462600277,9.654609656717497
2925000000.0,22.28,-0.04165997616533686,0.0055893860998846795,0.0,-0.3217686817753868,-1.271375090966151,9.665793113629231
2930000000.0,22.28,-0.020203319759902055,-0.0005749793967270973,0.0,-0.39161394794183946,-1.1530680260290804,9.675602715441327
2935000000.0,22.28,-0.03274480785435538,-0.007601470910014887,0.0,-0.21238678504426786,-1.2573482130796823,9.634695357008853
2940000000.0,22.28,-0.03229773504700652,0.010476052746350726,0.0,-0.27036434237764345,-1.3459325710597259,9.657357085271672
2945000000.0,22.28,-0.03955650425397758,-0.0059194338587215305,0.0,-0.36748179915671797,-1.4042019127196192,9.769583257624731
2950000000.0,22.28,-0.016184512879195718,-0.002129301687433,0.0,-0.24819317190063173,-1.2076127763065279,9.847278458401684
2955000000.0,22.28,-0.028081674449550682,-0.0017460024670323247,0.0,-0.2693822556160225,-1.464533809450738,9.920558872191988
2960000000.0,22.28,-0.030507551015872388,0.002384836609042158,0.0,-0.23073229239452295,-1.2909957125277571,9.94734
2965000000.0,22.28,-0.01436340546639594,0.0044288725069115634,0.0,-0.3891616057602161,-1.2486170303662703,9.938412151309622
2970000000.0,22.28,-0.02156601141248593,-0.006558161546292418,0.0,-0.22052926150949262,-1.2898192615094928,9.814512080801821
2975000000.0,22.28,-0.025675551168740273,0.00702664539792223,0.0,-0.2987150200722502,-1.3601560954993612,9.73250111557161
2980000000.0,22.28,-0.027357636704233496,-0.0013627970530184397,0.0,-0.3763106738732067,-1.2898180475219805,9.747607879053678
2985000000.0,22.28,-0.019277005932569927,-0.008133856937123013,0.0,-0.2271017899002179,-1.1723940856607409,9.66196692605987
2990000000.0,22.28,-0.02267331148805176,0.00413080745594419,0.0,-0.27487625807716254,-1.334748774231488,9.633812516154324
2995000000.0,22.28,-0.03713109331567404,-0.0020014678243546386,0.0,-0.28498079087140793,-1.361528678340087,9.653138158174283
3000000000.0,22.28,-0.02237513365861945,0.010646407252748201,0.0,-0.33354017481420173,-1.157581281970813,9.6628499417286
3005000000.0,22.28,-0.024483142350258207,-0.006217662280362447,0.0,-0.36267587510555876,-1.371243084107431,9.65313804163148
3010000000.0,22.28,-0.03702479276138077,-0.008474633406195961,0.0,-0.15146511375595115,-1.392627716931277,9.758792443122024
3015000000.0,22.28,-0.021789467711830064,0.009038993709138857,0.0,-0.3469809298179093,-1.231252104433121,9.846591827064819
3020000000.0,22.28,-0.020288398990696614,-0.008815423577325374,0.0,-0.20247746144197462,-1.367514879898149,9.830404682680246
3025000000.0,22.28,-0.02934864142744719,0.00963521129343424,0.0,-0.24279779378497793,-1.4106782350279823,9.848259117513992
3030000000.0,22.28,-0.02382300783442374,-0.0003620515467932777,0.005003890901799416,-0.4573435536446355,-1.4310829177082292,9.95067604739526
3035000000.0,22.28,-0.015502486727656056,-0.016922989430046317,0.00037259580626889353,-0.16068579565805796,-1.2589161799265618,9.95715
3040000000.0,22.28,-0.013925626627465897,0.01325912253874572,0.0009794851845656026,-0.2095420723868207,-1.309046813338468,9.848846891419768
3045000000.0,22.28,-0.031295439929769145,0.0024075917334879637,9.581215704801893e-05,-0.33187306889113066,-1.466301705473017,9.794794204272643
3050000000.0,22.28,-0.019606938804933128,0.00010645865494514047,0.0,-0.30803376302963764,-1.2340963412074635,9.755063763029638
3055000000.0,22.28,-0.01336325564541371,0.001895091381748476,0.0,-0.34776479669854793,-1.1804371219808711,9.637637528583774
3060000000.0,22.28,-0.023097060250510643,-0.005365891856384107,0.0009368991929771164,-0.24956568675805688,-1.4189200642312008,9.545914265068543
3065000000.0,22.28,-0.0337669496488006,0.0038008745835810907,0.0001383981486365051,-0.29518331673763315,-1.4262757213981572,9.612132835805529
3070000000.0,22.28,-0.013161372465117182,0.0016608294298510345,0.0018312123943657467,-0.40534991557279915,-1.1777868706990688,9.657356638524266
3075000000.0,22.28,-0.015931410893355688,-0.010699825246998614,-0.0005855774104242552,-0.2050274470671745,-1.329746873748269,9.66285
3080000000.0,22.28,-0.03314950441698053,0.006899080305952137,0.0025126019618381045,-0.2162127589518276,-1.5283991965060921,9.73701413842774
3085000000.0,22.28,-0.03002991505444149,0.006228174919707691,0.0014266191241664992,-0.41290427821574277,-1.380658081706681,9.848848319069083
3090000000.0,22.28,-0.011288310154328966,-0.01126412968771123,0.0001916306381221128,-0.2823305395896054,-1.223306099706861,9.86886
3095000000.0,22.28,-0.01695280396458267,-0.0028318799042693753,-0.0008623737076972656,-0.16578839883338398,-1.498774084433141,9.86886
3100000000.0,22.28,-0.03366053104602061,0.0076655448882015365,0.0023422579954841564,-0.2962631440618314,-1.5225116387173163,9.908100301068902
3105000000.0,22.28,-0.010351861833309235,0.0011710504744183378,0.0015117911073434756,-0.4032896427980964,-1.1232419844550199,9.863660277823703
3110000000.0,22.28,-0.0031939525311496,-0.011860295625793603,0.0010646508437165,-0.22288162939151632,-1.3492699975448,9.772721395919813
3115000000.0,22.28,-0.03601233946127609,0.0039500056584710445,-0.0022145000207186944,-0.16677,-1.6233602521233028,9.75114
3120000000.0,22.28,-0.02070498588001947,0.014449969512853562,0.0008517535599087654,-0.47990774529477753,-1.2301703638646038,9.77350698180677
3125000000.0,22.28,1.0540043455728454e-07,-0.015978753019079004,0.0005323122468039272,-0.31391781482247816,-1.1698431676931318,9.706994393006244
3130000000.0,22.28,-0.01860191061986951,-0.006136755057950114,0.0,-0.06592186247711862,-1.5815714222142143,9.675210539203507
3135000000.0,22.28,-0.03285133818159597,0.01817582979504096,0.003108806898081246,-0.37503940557429405,-1.494747812297978,9.808725856978658
3140000000.0,22.28,-0.005242710817735988,-0.006949474551800776,0.0004258272417501691,-0.41123434612974347,-1.0382871674911716,9.767227607120477
3145000000.0,22.28,-0.0004152734962354649,-0.010097871788332116,0.0012030753424616505,-0.14292968410089682,-1.2827590209196902,9.634007744770077
3150000000.0,22.28,-0.04122676113066667,0.008517339554279864,0.0006387772257751426,-0.24819477436414777,-1.77855599806356,9.738388284884383
3155000000.0,22.28,-0.027382721333792326,0.004620491550985855,0.0,-0.4892261094880611,-1.2864776394835764,9.82049688384627
3160000000.0,22.28,0.010062392135945803,-0.016663160753913674,0.0,-0.29900640621086405,-1.00062,9.749569663449497
3165000000.0,22.28,-0.018658990743580187,-0.008086305928472842,0.0,-0.051697531949775305,-1.5921685328694855,9.652745146713052
3170000000.0,22.28,-0.041858264862517744,0.022497158938305492,0.0035133811962023446,-0.3398217249661173,-1.7022294759434948,9.830799170350291
3175000000.0,22.28,-0.005595157361155956,0.0015381929485957652,0.0018631055118659653,-0.5645659316939593,-1.1688572447309724,9.924776876658868
3180000000.0,22.28,0.008772662621015514,-0.026889347843407643,-0.0013627664868923989,-0.16794306156513056,-1.1516961618689616,9.760948455807885
3185000000.0,22.28,-0.024870895015480173,0.003220146180625369,0.0005536452947633116,-0.06729796102567963,-1.6461217118882172,9.709742171188822
3190000000.0,22.28,-0.03270213332640178,0.021203971459740397,0.0008091211921290873,-0.4451808361342084,-1.5293755920942558,9.780178095695382
3195000000.0,22.28,0.0045608688404966576,-0.0055189872489638594,0.0012988874995096696,-0.4662676244058763,-1.1089201658745016,9.7381900552915
3200000000.0,22.28,-0.0010684115485011976,-0.012995633806604066,0.00021290993185986017,-0.17461601100286012,-1.3655561644627618,9.639305440594555
3205000000.0,22.28,-0.03634318705390256,0.006377058234461381,0.00019165066420468346,-0.1995370185852702,-1.582156301973763,9.679233509292635
3210000000.0,22.28,-0.018113386551643674,0.00918454611097836,0.0010646508437165,-0.4292869717087697,-1.2541071577792715,9.674621376496013
3215000000.0,22.28,-0.0005962586904648031,-0.006664836272128518,-0.0001490646726161973,-0.3354018392319184,-1.263530497900705,9.594277662867377
3220000000.0,22.28,-0.02334713765856851,-0.0029808866066465666,0.0013201941973604644,-0.20169366254463664,-1.5860825512498256,9.652648600714185
3225000000.0,22.28,-0.024867294709422477,0.005802340299927095,0.0026083877687774395,-0.3624813166109132,-1.4155796173451962,9.797247876984578
3230000000.0,22.28,-0.0029170139432899266,-0.00733437248944897,-0.0001703713704669361,-0.3368735805726358,-1.1877949254777493,9.753100745222508
3235000000.0,22.28,-0.013370857124755851,-0.004564744881002803,-0.00043648638769941254,-0.1540163716400637,-1.5139811329956114,9.668049362835994
3240000000.0,22.28,-0.03199957829766113,0.011327932786781042,0.0032791519184395676,-0.32726430612384305,-1.6472933749397338,9.810394099194042
3245000000.0,22.28,-0.011836556095846433,-0.000850173832018325,0.0036943179062317397,-0.43968306545583064,-1.250575522427955,9.902507858788379
3250000000.0,22.28,0.0026615517479806243,-0.01384916009815002,0.0010646371416600043,-0.19619797992477978,-1.2115377144760773,9.731518232434182
3255000000.0,22.28,-0.024600173757353818,0.0013309850938529478,0.0005216857749893763,-0.1498001541628015,-1.6243424554277246,9.680705338040452
3260000000.0,22.28,-0.027443295792927022,0.01234991542657013,0.0010646508437165,-0.36846499307494995,-1.5283938840967388,9.827266359859063
3265000000.0,22.28,0.0051293320195039405,-0.0009263907696493278,0.0005642580645213668,-0.3746424413697244,-1.1599338926503389,9.814707785300678
3270000000.0,22.28,-0.0024688834339406593,-0.008368093592916157,0.0004897462812980117,-0.19639537429425374,-1.3620238298546383,9.686393364841733
3275000000.0,22.28,-0.03142472221944248,0.0025552448696612613,0.0020228504105183256,-0.25555234477542343,-1.5774469821928698,9.690809326968292
3280000000.0,22.28,-0.017597515269382396,0.0011496984543807008,0.0017885926746382503,-0.39907060886980605,-1.3227779153074792,9.730734754029548
3285000000.0,22.28,0.0015010676671291167,-0.007292823655415479,0.0,-0.2602574495916745,-1.2308625504083255,9.612131087663512
3290000000.0,22.28,-0.018915723670719017,0.004691932915877344,0.0,-0.22170791712907917,-1.5042671254161712,9.547092639043028
3295000000.0,22.28,-0.02835833372625874,0.006131866032873905,0.0004365137918124039,-0.4285994760127948,-1.4889591119402912,9.648233804015637
3300000000.0,22.28,-0.008101672188715535,-0.014273379257564882,-0.0006388183319446694,-0.3511958847481588,-1.2380218718029188,9.688355615408756
3305000000.0,22.28,-0.008385838948312479,-0.008847039388010045,-0.0019482901430950784,-0.14548210741302106,-1.4252001381743014,9.66834385678264
3310000000.0,22.28,-0.031850548407188276,0.01388973518767678,0.0008091485962420786,-0.2580052502472525,-1.684179899901099,9.755653692977237
3315000000.0,22.28,-0.019781289093641814,0.00853866004058091,0.0013414460869851643,-0.47450976438989767,-1.4175417805051178,9.884458350729284
3320000000.0,22.28,0.0029383733413579256,-0.015337360428389124,-0.0007665626046535924,-0.3358917560323176,-1.239201586019616,9.87474503269475
3325000000.0,22.28,-0.015497009844615073,-0.011775477010532694,-0.0013840320785736505,-0.09564782292067822,-1.5470384208509842,9.787437129168271
3330000000.0,22.28,-0.029289241768467894,0.016018325042043726,0.0010859649195976934,-0.2709549812939498,-1.5572368774310688,9.796854535318746
3335000000.0,22.28,-0.005387006725443933,0.008288678425967274,0.0021399271052432722,-0.4781379748757798,-1.2788310817730109,9.75476898743789
3340000000.0,22.28,-0.001751802652947475,-0.012574677671856289,0.0,-0.270754702490147,-1.3141494165137941,9.66991294049803
3345000000.0,22.28,-0.02461095829526271,-0.0016927172773295025,0.0,-0.19512213447962135,-1.5070123299452234,9.649312329945223
3350000000.0,22.28,-0.024286086941834532,0.004471491172634738,0.0006388046298881339,-0.32078693493026933,-1.4469733732567338,9.645191609581616
3355000000.0,22.28,-0.00577039342820528,0.0024700465363756505,0.0012030342362921637,-0.2968502089989021,-1.3321993033369932,9.60399
3360000000.0,22.28,-0.011120004753331168,0.006132332196533625,-0.0004684322054168522,-0.2852755179036552,-1.5017155179036552,9.636952383167623
3365000000.0,22.28,-0.02473383407006208,-0.0014373141062635657,0.0007771880224637976,-0.36032123463891236,-1.481405681639757,9.734953826805437
3370000000.0,22.28,-0.011349114058114668,-0.006707335835360656,0.0,-0.30979868721048687,-1.2725546400805463,9.745253345417932
3375000000.0,22.28,-0.010651042625630977,-0.006121621404371442,-0.00026616982545845926,-0.1741271722233717,-1.518099794436398,9.687375393331955
3380000000.0,22.28,-0.02650587365828549,0.01001197808863839,-0.0005536041885938246,-0.21503736653067365,-1.679076908249769,9.769191450439115
3385000000.0,22.28,-0.012065172299383625,0.010272430337932322,0.0008197740140522838,-0.4452754397530544,-1.328272685008727,9.872685439753054
3390000000.0,22.28,-0.0029211046378286327,-0.015749145774996514,0.0,-0.3190189612127896,-1.2700054314073543,9.796069075686491
3395000000.0,22.28,-0.02040562430003432,-0.009539099799151955,0.0006707515016099402,-0.1041836507636365,-1.6319926551008266,9.742802489157025
3400000000.0,22.28,-0.0268429559285202,0.009794759093273953,0.002981015195176728,-0.3021489245728892,-1.6500384337902843,9.855125867918158
3405000000.0,22.28,-0.00010639330667564255,0.005174160033844782,0.0017247200112815398,-0.38965240634352405,-1.22625,9.809606541791366
3410000000.0,22.28,0.0018065131329860267,-0.0011498660410716869,0.0,-0.2819389363538894,-1.3039481143469813,9.675406535059366
3415000000.0,22.28,-0.028944023915147988,-0.005663913693173218,0.0003619956845629739,-0.24564319598733195,-1.6161958416930584,9.656572130658223
3420000000.0,22.28,-0.024203289906908836,-0.0016182476542799039,0.001788598998664269,-0.33550166785301666,-1.4110703335706032,9.720140333570603
3425000000.0,22.28,0.003087386367761211,0.0012243556902037439,0.00031940969297448773,-0.2869421673674217,-1.4852377254848772,9.742802897056828
3430000000.0,22.28,-0.010627709613064789,0.0028745934303836397,0.0018311849902527553,-0.2727193324726933,-1.9137329345382295,9.983836397934462
3435000000.0,22.28,-0.010403559865254968,0.0037131668905718827,0.0,-0.43507316639623167,-1.5997126300340268,10.395166833603769
3440000000.0,22.28,0.03255309605789859,-0.02156600087244247,-0.0002555307055917585,-0.3252957913812579,-1.140317874529379,10.408408329553183
3445000000.0,22.28,0.016738994863343286,-0.015235692067686912,-0.0015437074129392005,0.11173248733542487,-1.59569500148995,10.156977491805273
3450000000.0,22.28,-0.018221099091627602,0.04687576190641732,0.0028745354601446816,-0.3825933506055335,-1.5960834483581348,9.8413901236609
3455000000.0,22.28,0.002109739816022424,0.004011820456096921,-0.0003833034364180674,-0.7719449405554495,-1.1078417564877177,9.551797578756975
3460000000.0,22.28,0.02020016336246152,-0.0388968796170651,-0.0039178859300365194,-0.22405858542858584,-0.9778672518094725,9.112311859111118
3465000000.0,22.28,-0.018915188374741456,-0.006503597590136693,0.0,-0.005103622924836234,-1.8298578866271789,9.001755647979756
3470000000.0,22.28,-0.0390023385748064,0.01941424925529743,0.0,-0.3411926762076268,-1.6011839537630395,9.232193359020533
3475000000.0,22.28,0.03344740188125683,0.005961986122170962,5.3239867516028444e-05,-0.44782467756194677,-1.0447683748852838,9.563279647460996
3480000000.0,22.28,0.01934977866045898,-0.0014904011431493764,0.0010646508437165,-0.20365688430166887,-1.5268311713878118,9.73426896303439
3485000000.0,22.28,-0.027026967203783926,0.012945424840896424,0.0010646508437165,-0.38818298614692986,-1.8952879384833794,10.04446103075831
3490000000.0,22.28,-0.004513490826789304,-0.01643452379858596,0.0010433504698918361,-0.5579890038124901,-1.3247425355781253,10.32698598316406
3495000000.0,22.28,0.03471394756843272,-0.037673340175472754,0.0,-0.019030992682909927,-1.3477003796749039,10.180620306504002
3500000000.0,22.28,-0.0085172067497323,0.02876310723120113,0.0,0.03923490125244901,-1.71674700873477,9.966959388150293
3505000000.0,22.28,-0.0085172067497323,0.04035715503521478,0.0,-0.6891576060314759,-1.2894234044615343,9.879552287276223
3510000000.0,22.28,0.0228008543768156,-0.03676905006268548,0.0,-0.41770782285137825,-1.0063078228513782,9.436432063833221
3515000000.0,22.28,-0.006526001074542379,-0.028017696385759447,0.0,0.054252645458226445,-1.6667237792260376,9.199031561408216
3520000000.0,22.28,-0.035065261402756155,0.024460819073855323,0.0,-0.2421130562686306,-1.6590669948846701,9.352070362320204
3525000000.0,22.28,0.013377440401342255,0.01549146058084932,0.0,-0.5160079171290792,-1.0521180495217806,9.35874
3530000000.0,22.28,0.021991891354453428,-0.013116706750166802,0.0,-0.29920328584963285,-1.3798772740745728,9.432511748528118
3535000000.0,22.28,-0.031124510127065203,-0.006984049920294661,0.0,-0.18413294470552943,-2.014095700429957,9.847771589841015
3540000000.0,22.28,-0.009668231780894102,0.0024274710848306118,0.0,-0.3570853752050538,-1.3832048429810482,10.21260494412935
3545000000.0,22.28,0.0410211963650265,-0.0016502461722146247,0.0,-0.25672680485416804,-1.1458066228525663,10.125586804854168
3550000000.0,22.28,0.0007483942824970391,0.006494437497548529,0.0,-0.12164303463713035,-1.7108685509963855,9.946357689864678
3555000000.0,22.28,-0.021329978335876014,0.012190289630408796,-0.0018950934897571676,-0.5008036073224361,-1.6359144951742448,10.041222597670926
3560000000.0,22.28,0.016877656806805225,-0.020967957787177756,0.0006813990535113868,-0.39396835532288355,-1.083412112778821,9.839428271281783
3565000000.0,22.28,0.015876160279286698,-0.013512590315930079,0.00013839709463215927,-0.005784922428549222,-1.3006121543588216,9.36619199921592
3570000000.0,22.28,-0.027227831697519595,0.02767496247510745,0.0009156072511872192,-0.254670096346801,-1.7404934591194345,9.266133322628134
3575000000.0,22.28,-0.011447426037010777,0.009637504530430583,0.0037795331035868776,-0.604298499843085,-1.3214029724750298,9.385718541601285
3580000000.0,22.28,0.023863103922172196,-0.022415148588033285,-0.0011072821574918401,-0.33589168804901687,-1.1371743655535436,9.473713756297638
3585000000.0,22.28,-0.009966344884092398,-0.009126865965056085,-0.00036196617244129087,-0.05483601987326017,-1.7534448314772484,9.567693696343238
3590000000.0,22.28,-0.025100687712491212,0.014770546576116709,0.000873021259598733,-0.24309382221183823,-1.722634605371146,9.906140789257709
3595000000.0,22.28,0.02341228637561273,0.008818534047822457,0.00020227608201488852,-0.4452772267426723,-1.2184959801148598,10.127747226742672
3600000000.0,22.28,0.02407846370570693,-0.004684562367159488,0.0,-0.26094404208094035,-1.3989085872501859,10.04543895111479
3605000000.0,22.28,-0.015724703984416093,-0.001564983544663963,0.0,-0.2602597901595979,-1.6729992205927924,9.977260149886002
3610000000.0,22.28,-0.008116319220582847,-0.007473917412092456,0.0008304352680102468,-0.351198701199187,-1.4128333250833331,9.921048779280488
3615000000.0,22.28,0.01567462834161873,-0.003843336202656692,0.0002448620736033747,-0.19904328500813287,-1.2337047573955475,9.651271812620719
3620000000.0,22.28,0.0010686487340365002,0.018112519745381122,0.002427426816648087,-0.25152938439819383,-1.4228444391105444,9.403079582774396
3625000000.0,22.28,-0.01571678937938948,0.006125929794004403,0.0007984652081928787,-0.4537141194593412,-1.446974577532346,9.385717852056379
3630000000.0,22.28,0.0005279789930356035,-0.01970914747245328,-0.0007878492764217607,-0.28507641423976415,-1.3814437064412373,9.434277352541974
3635000000.0,22.28,0.00045773089929380256,-0.006413711114635942,0.0004897547133327783,-0.12723492333934924,-1.5641083769543838,9.547289188477192
3640000000.0,22.28,-0.0028958579680605895,0.014108674110788502,0.0018312071243440176,-0.2817450382684504,-1.5252576687578765,9.753888496863185
3645000000.0,22.28,0.010424815521649313,0.005562400426618689,0.0006174821219722079,-0.39495102479851024,-1.3768324380037245,9.903392049597022
3650000000.0,22.28,0.007031839099369481,-0.008943159417999573,0.0007452632848332745,-0.2678115111657151,-1.547039197802992,9.985599496278097
3655000000.0,22.28,-0.007090682485956887,-0.008368109402981345,-0.00040458273015580594,-0.23985485496994857,-1.590887203042072,10.05358279695793
3660000000.0,22.28,0.004216187077977333,-0.0005961427499868131,-0.00034068055467746856,-0.27507261327332616,-1.3294486407200865,9.97480693363337
3665000000.0,22.28,0.012424483072023809,0.004269273060858864,0.0,-0.24505337287063372,-1.3018860254469604,9.710818550788485
3670000000.0,22.28,-0.0054937994997666904,0.007431286098317131,0.0007026772932447883,-0.30980072670950726,-1.525260795989708,9.539243287146533
3675000000.0,22.28,-0.007984803858554573,-0.0018632551804830255,0.0017566816390641668,-0.41054914244219143,-1.420976287143563,9.512266571382467
3680000000.0,22.28,0.007324929681793553,-0.015640337709807037,8.51487950813642e-05,-0.24681738413287382,-1.295704585561246,9.446636813724568
3685000000.0,22.28,-0.0002450328223074019,0.002581257264947078,-0.00039391304416307627,-0.10643814211648142,-1.532324863068149,9.432511486306815
3690000000.0,22.28,-0.009837389353044967,0.021267946361518603,0.0013201826033126043,-0.368074496995845,-1.5680291098711914,9.617333606867035
3695000000.0,22.28,0.0056002582929419,-0.0034429971358998536,0.0008304120799146387,-0.4617557669777577,-1.333373190413632,9.817456748335067
3700000000.0,22.28,0.010227559092134467,-0.020032873555126524,0.0,-0.18834926901369267,-1.4499207309863076,9.919872503076425
3705000000.0,22.28,-0.005546979289035026,0.0009299869460834588,0.0025126072318598087,-0.14342349537323495,-1.680061607512516,9.98206783179108
3710000000.0,22.28,0.0003621611632452903,0.013670101191895809,0.002406087444662594,-0.358066801557468,-1.4404966527604666,10.000510127937702
3715000000.0,22.28,0.018545621500502242,0.0006386338811841114,0.0004577920315458055,-0.39956050624640504,-1.22625,9.873371012492811
3720000000.0,22.28,0.0012325944965998342,-0.007920994435458672,-0.0005962123142735729,-0.26526124389541245,-1.4954399405702994,9.681683899382339
3725000000.0,22.28,-0.01763743260836105,0.0007453655232548392,0.00010648078903640278,-0.27173801295118016,-1.5666551188049511,9.593198855292687
3730000000.0,22.28,0.002024508324796788,0.0005535240842635273,0.0004897315252371701,-0.33354,-1.2876583540259836,9.510205385689154
3735000000.0,22.28,0.009015007334829598,-0.0019376172950893449,0.0,-0.22955254904212546,-1.3297480391762804,9.426232509808425
3740000000.0,22.28,-0.009974349649687396,0.006600914070567575,0.0027681316134255374,-0.2801756340603564,-1.588044180255242,9.52001799819028
3745000000.0,22.28,-0.007769690850266865,0.0003085829603342218,0.0031513349194307373,-0.4220263454842635,-1.4923926085411263,9.723673454842634
3750000000.0,22.28,0.00904961912694908,-0.012243508417837981,0.0005323175168256563,-0.26977259630472594,-1.3832110197495102,9.829620145678502
3755000000.0,22.28,0.004471375232156715,-0.0002766034144777354,0.0010433736579874443,-0.15117275642732758,-1.5672473504728734,9.897113675236437
3760000000.0,22.28,-0.003832703406816101,0.012307339975025151,0.0011072210252397988,-0.3280484449376845,-1.5413449359618492,9.985403238200933
3765000000.0,22.28,0.008451035164667345,0.0001382379399759645,0.0,-0.42016149556331495,-1.3094376299102763,9.946848403040883
3770000000.0,22.28,0.006929456452017249,-0.01269065395148666,0.0,-0.2682038622177386,-1.411269602336796,9.783119208673192
3775000000.0,22.28,-0.01177231755475164,-0.0037793433828046848,-0.0009582016748104718,-0.19669115992361158,-1.5754851201018514,9.66039713337577
3780000000.0,22.28,-0.006269737403961393,0.008048752410224142,-0.0011923930084167711,-0.31863004817340046,-1.3726128504971284,9.585938792358387
3785000000.0,22.28,0.006079132381182678,0.003790093173127671,-0.0013734235248330214,-0.3403076501755765,-1.2896242174198422,9.474889517770995
3790000000.0,22.28,-0.006480599388098548,-0.0010646508437165,-0.0027467911874356865,-0.26997164169721644,-1.5238873876374741,9.477834651475447
3795000000.0,22.28,-0.014319076652703471,-0.003683739918617081,-0.000383242304166001,-0.2920434788600348,-1.576955657166957,9.655003474266435
3800000000.0,22.28,0.004265745031853318,-0.004045609122658594,0.0012775649915937434,-0.22759111427471113,-1.3851711142747112,9.786456295241763
3805000000.0,22.28,0.010401510276050095,0.0060473130439867755,0.0008304437000450133,-0.21052363470583635,-1.4254932433192324,9.832955843445358
3810000000.0,22.28,-0.004450328873379389,0.008176406038559417,0.0017247263353076148,-0.3464902360655024,-1.5692070079625702,9.909866614051467
3815000000.0,22.28,-0.0026507956336315405,-0.006586112652981713,0.0006707219894882363,-0.36630406616764066,-1.437065195658652,9.969510451796404
3820000000.0,22.28,0.009326268917618013,-0.010614979642314906,0.00038328235633114204,-0.21974325801083258,-1.3620218097794181,9.872389819226
3825000000.0,22.28,-0.0016503136284928424,0.004152251174359962,0.0006920149852824794,-0.20159646584846466,-1.495044297184143,9.687374257039643
3830000000.0,22.28,-0.005578657389648645,0.011306535444556605,0.0,-0.34119306468363064,-1.4371631401711316,9.60359715364107
3835000000.0,22.28,0.003907260512226322,-0.0006389521904965794,-0.0007026857252795548,-0.3865125101945251,-1.3173858683735586,9.535613629587536
3840000000.0,22.28,-0.0012351002105050867,-0.010476059070376813,-0.0011072125932050324,-0.24250290165042904,-1.4593369425730696,9.492156372936963
3845000000.0,22.28,-0.008666209236092102,0.0005855984905112027,0.0007346009768709656,-0.25231409621414097,-1.542915903785859,9.562004096214142
3850000000.0,22.28,0.000851850528308655,0.003300393268020831,0.0006388067378968256,-0.3041092521836925,-1.4410884765285847,9.678546897379569
3855000000.0,22.28,0.008761970800931497,0.0032259489410756256,0.002129301687433,-0.25535482415124827,-1.4413845729387458,9.783709799029998
3860000000.0,22.28,-0.002257092336333235,0.0046417718987279534,0.0009368601948163211,-0.32608499980695,-1.5433087501447875,9.869645624734556
3865000000.0,22.28,-0.0024486154660121103,-0.007335501345382091,-0.002129301687433,-0.3375608237592082,-1.4744422492701226,9.93674489970805
3870000000.0,22.28,0.004492802086502868,-0.008346732086839444,-0.0015756669327131466,-0.205617299319573,-1.4359887772113877,9.882593248298932
3875000000.0,22.28,0.0010646181695817796,0.006920312169494251,0.0005323417589256102,-0.22563150534451504,-1.5082868225949684,9.785474247327743
3880000000.0,22.28,-8.510663490748352e-05,0.010305672943849053,0.0018737773058673164,-0.3845523768217238,-1.3949804927131049,9.683646295627863
3885000000.0,22.28,0.0049186377602877815,-0.006707382211551812,0.000574895076379376,-0.3721897398477974,-1.3045357619980578,9.569359869923899
3890000000.0,22.28,-0.003985773416897771,-0.010688946868145439,-0.0008304194579450595,-0.20601,-1.5203544800272448,9.503536204468661
3895000000.0,22.28,-0.013864739440058177,0.005600112702112076,0.00022358488787431894,-0.24103298614692986,-1.5335952572960525,9.579171229589912
3900000000.0,22.28,0.003619870417273442,0.008304186147416149,0.0004258356737849078,-0.3590454697302547,-1.3263120757528208,9.641268303011282
3905000000.0,22.28,0.006142895428087396,-0.0014692346278766706,-0.0017247179032728482,-0.29665409660024095,-1.399399154747892,9.687571806799518
3910000000.0,22.28,-0.008325561355549328,-0.002619016348600719,0.00019164539418295432,-0.27193350378823505,-1.6492559848470603,9.789989270835292
3915000000.0,22.28,-0.003467612992706171,-0.00036199779257166555,0.0008836519474306672,-0.3007744479116445,-1.4738522707630228,9.961956671867467
3920000000.0,22.28,0.014621604098889587,-0.0011071872971007168,-0.00017035239838871123,-0.2703629147283292,-1.285111903532419,9.91398485788055
3925000000.0,22.28,0.004418143796675407,0.004897426976832488,-0.00042582724175012625,-0.221216796053068,-1.5087789148609891,9.785965271284754
3930000000.0,22.28,-0.01039085968308684,0.006281315710815208,0.002448655518177245,-0.3684639053421391,-1.5593948519207486,9.754082618322325
3935000000.0,22.28,0.004950667898352859,-0.00828303333419982,-0.0019908887827356533,-0.36905021275100214,-1.26588301146123,9.688943224212233
3940000000.0,22.28,0.00715429586424444,-0.01141289923911064,-0.0008091180301160498,-0.15303638264886382,-1.3718328489527287,9.529433617351136
3945000000.0,22.28,-0.010529388528262285,0.007090624515717843,0.0009475309348133964,-0.22317941567229416,-1.6243381142083813,9.4992201195227
3950000000.0,22.28,-0.007345915962323108,0.010326921671460734,-0.00010647341100598197,-0.4326203094839031,-1.415581695691817,9.609876460344065
3955000000.0,22.28,0.011530060254183178,-0.01161533236777304,-0.0010646508437165,-0.3355004635774046,-1.2955112119184122,9.66814786092678
3960000000.0,22.28,-0.001916454995833921,-0.009198441378565791,-0.001149831258928239,-0.16480876918248769,-1.6021695076729952,9.73426803069198
3965000000.0,22.28,-0.00992234526533102,0.007303488071386466,-0.001980233852803765,-0.263988101199781,-1.6156063584928635,9.88141710806147
3970000000.0,22.28,0.013904348387732496,0.004812154863242716,-6.38874194174958e-05,-0.3767032288751323,-1.3163060313374604,9.912611905987617
3975000000.0,22.28,0.013627329695542471,-0.003140711609629221,-0.0010114099221961257,-0.28399942279039425,-1.3557438530305386,9.82716711395197
3980000000.0,22.28,-0.010518725166295633,-0.002257084958302766,0.0,-0.2774273411470734,-1.5739153177058534,9.779785045386552
3985000000.0,22.28,-0.006877493242945321,-0.005163514589952038,6.389585145226236e-05,-0.34070060336540603,-1.437948716346187,9.7562399615385
3990000000.0,22.28,0.011476843574762786,0.0001065071391450522,0.0020866988317749806,-0.25506,-1.3082629950173301,9.60261605749326
3995000000.0,22.28,-0.00012785915918266116,0.005312599288650811,0.0,-0.25653266397122665,-1.481702710392327,9.535909065588491
4000000000.0,22.28,-0.012775717372215967,0.004258502190448901,0.0,-0.4022095338287954,-1.52054898996239,9.594180543866406
4005000000.0,22.28,-0.0011816695682024085,-0.008389549959384035,0.0,-0.3439381332460813,-1.3942942886998428,9.662163844546239
4010000000.0,22.28,0.001022081716197547,-0.00434374162990401,0.0,-0.2087557095478571,-1.4507032673366327,9.73976102311551
4015000000.0,22.28,-0.0020335085024632054,0.00813403400985311,0.0,-0.28213622389246223,-1.5565535578521357,9.807940445905905
4020000000.0,22.28,0.000936918165055341,0.004428913613080986,0.0,-0.3786667808367678,-1.4091071506611714,9.847670712334708
4025000000.0,22.28,0.005110357988779325,-0.004844237701525115,0.0,-0.3173529527344295,-1.4214691563615915,9.877198734542388
4030000000.0,22.28,0.0003193527767398254,-0.0053232542185827,0.0,-0.22170521722085218,-1.5238862610570627,9.814119652054597
4035000000.0,22.28,-0.0009901337904714158,-0.0003725852662254357,0.0,-0.26143689187516894,-1.4391262162496623,9.76438310812483
4040000000.0,22.28,0.00677124749687804,0.0,0.0,-0.2738952784721528,-1.3329819368063194,9.63459610138986
4045000000.0,22.28,0.0006706703432753092,0.004844203973386045,0.0,-0.2925343571385436,-1.449330499969805,9.57004692858437
4050000000.0,22.28,-0.007665554374240679,-0.000425911562097786,0.0,-0.3649326293311263,-1.4881772359991723,9.573579078666391
4055000000.0,22.28,0.0009582712390972629,-0.008645033234780204,0.0,-0.26800825483788254,-1.403810212364902,9.626945872581057
4060000000.0,22.28,0.003066202988418896,-0.0002128445835904557,0.0,-0.21189560569685606,-1.479348788606288,9.64205287886063
4065000000.0,22.28,-0.000511066681205233,0.012179708480781174,0.0,-0.31696212645072125,-1.5081895579154956,9.76271690540847
4070000000.0,22.28,0.002597782377049845,0.0010219446956326612,0.0,-0.38416007432920074,-1.4179365303964653,9.839626753384067
4075000000.0,22.28,0.0059088379530330155,-0.013748951585303027,0.0,-0.25064415441624155,-1.436184316607943,9.84924
4080000000.0,22.28,-0.004343878650468997,-0.0007691947818016295,0.0,-0.20914904150179042,-1.5327152717401527,9.84924
4085000000.0,22.28,0.0006814454297025688,0.006547645744934168,0.0,-0.32000331084713307,-1.4115595511141954,9.808528103268882
4090000000.0,22.28,0.00911348019625796,-0.00040464491641217185,0.0,-0.34335,-1.3269000438966005,9.695614367236544
4095000000.0,22.28,0.00029799864869358914,-0.003854053318844995,0.0,-0.2797805636763056,-1.4893559498901596,9.617036743216767
4100000000.0,22.28,-0.008943136229904006,-0.0017034154214395129,0.0,-0.2962623185503232,-1.5225119203624193,9.596141920362419
4105000000.0,22.28,0.001128651041598993,-0.0019057336636282142,0.0,-0.30411,-1.373300385040704,9.6096799594694
4110000000.0,22.28,0.00508903969688077,0.0011924436006253707,0.0,-0.25054684117726844,-1.418330678150007,9.60614812016818
4115000000.0,22.28,-0.0045142236708272596,0.005408460983903039,0.0,-0.3034240193604402,-1.5327153591472535,9.694635359147254
4120000000.0,22.28,-0.0009794092962527512,-0.0017035281999045228,0.0,-0.3535527201042272,-1.4554104796352048,9.81863384033874
4125000000.0,22.28,0.007452625470302549,-0.007452590688159162,0.0,-0.2599638782755388,-1.42245,9.841882419876825
4130000000.0,22.28,0.00012765362833522774,0.000936997215381272,0.0,-0.2038515593391156,-1.5313422033044222,9.82491103955941
4135000000.0,22.28,-0.002416748698620542,0.008921826370040228,0.0,-0.32510484571344844,-1.4836634361910344,9.812648619682587
4140000000.0,22.28,0.0070693863281496485,-0.0008518515823129832,0.0,-0.3657167195854672,-1.3388675133674752,9.753493756683737
4145000000.0,22.28,0.003087400069817698,-0.009102808402256551,0.0,-0.2515271118135711,-1.4342236102330361,9.654903014371829
4150000000.0,22.28,-0.0059621147107011725,-0.003193865048788917,0.004471586033025861,-0.21974416121754162,-1.5391895642613957,9.63047708060877
4155000000.0,22.28,-0.00043641049938653725,0.00440770704564313,0.004184051539477635,-0.31362674917656747,-1.4108724244704243,9.61311305788233
4160000000.0,22.28,0.0046418952172364225,0.0034920196901255546,0.00029806715897602327,-0.32647647678796476,-1.357311761606018,9.590648238393982
4165000000.0,22.28,-0.00252331907802638,-1.0672848005766934e-05,-0.0003513259985702443,-0.28762887639948875,-1.5476278652035786,9.663243370801533
4170000000.0,22.28,-0.008495940104046668,-0.0017673291909656341,0.0,-0.2941040429917404,-1.5411497850412978,9.773311490969716
4175000000.0,22.28,0.0028747156948878173,-0.0014372698380809873,0.0,-0.25947393233943933,-1.4082244457732447,9.822753162188732
4180000000.0,22.28,0.00481216013326437,0.0023422759135580187,-0.0006813853514548911,-0.24799696238296964,-1.4514887366807876,9.80450607523406
4185000000.0,22.28,-0.0012243925803559104,0.0022463868141927284,0.0002768268633990391,-0.323044194174642,-1.50093,9.802740762577208
4190000000.0,22.28,0.0020867863141357697,-0.005536272712890165,0.000404558488055852,-0.3264763116856631,-1.4157780605998809,9.797835437228555
4195000000.0,22.28,0.004673808360819112,-0.006984074162394633,-0.001298891715527053,-0.2562365481372655,-1.399495088897051,9.712585640723058
4200000000.0,22.28,-0.0021293902237981286,0.00042594002021512437,-0.00021290360783378544,-0.24328824473988245,-1.487196897379569,9.627533510520236
4205000000.0,22.28,-0.0045034464763912905,0.0042586033748661,0.0010646508437165,-0.31293981677079813,-1.4551162381979625,9.61556596335416
4210000000.0,22.28,0.0011285920173556485,-0.0006814475377113103,0.0010646508437165,-0.33609035467740356,-1.3971401182258012,9.612230236451602
4215000000.0,22.28,-0.0012031354207094336,-0.0042586033748661,0.0010646508437165,-0.28458752690077527,-1.4713049461984495,9.637540691227906
4220000000.0,22.28,-0.0035346141137488317,-0.0018737499017543692,0.0010646508437165,-0.29351577377905774,-1.5138789540946898,9.723280501652805
4225000000.0,22.28,0.0037263670163751365,0.0,0.0004790839733357028,-0.30754325380333253,-1.446974179344442,9.792342328262222
4230000000.0,22.28,0.006217525259797489,0.0011498407449673513,0.0011498407449673513,-0.28900251783732517,-1.4452098573013985,9.81
4235000000.0,22.28,0.0003086862527601148,0.0010007539382598917,0.0010007539382598917,-0.31568629355876293,-1.4865093822597937,9.830797529039176
4240000000.0,22.28,-0.0015330704010812503,-0.0027681368834472668,-0.0011072547533788652,-0.3076410235016102,-1.4554110235016102,9.823733588215436
4245000000.0,22.28,0.002171923515169295,-0.001522388067036421,-0.0010433399298483779,-0.24966408772984086,-1.42245,9.74515499300565
4250000000.0,22.28,0.0015969314703901025,0.005323307972804287,0.0005323343808951895,-0.27468082551150824,-1.4371652476534524,9.653039339590793
4255000000.0,22.28,-0.0010646508437165,0.00434370368574761,0.000542962960718432,-0.34295793059307933,-1.427845086758651,9.608993017351729
4260000000.0,22.28,0.00046847331158633904,-0.003577289695706721,0.0005110413851009464,-0.3158811725461117,-1.4169566482361666,9.613407765490777
4265000000.0,22.28,-0.0008730676357899957,-0.004450186582792657,0.0005642559565126751,-0.24642686862996868,-1.4737570455825706,9.632831565685017
4270000000.0,22.28,-0.002299609817639241,0.0018738394921238115,0.0009794967786134067,-0.252706097637761,-1.4889612194226123,9.692869512335895
4275000000.0,22.28,0.004311917022686371,0.002927744761534701,0.0016501997960234182,-0.2977337491102375,-1.4474654169632541,9.768798332146984
4280000000.0,22.28,0.005365759051836526,-0.0009369107870249204,0.0005961954502040397,-0.29665406746454065,-1.4766018650709187,9.79901296626773
4285000000.0,22.28,-0.0013734266868460588,-0.0016714927918176613,0.0,-0.28311676646196765,-1.5121132335380325,9.83109191615492
4290000000.0,22.28,-0.0014053029402766896,-0.0006174884459982828,0.0,-0.28605943334379436,-1.4556068833908689,9.834328300031384
4295000000.0,22.28,0.0028107144430009647,0.0008730317996421911,0.00043651589982109557,-0.2626134497243345,-1.4050865502756655,9.759968165747782
4300000000.0,22.28,0.0019162990031907877,0.002129301687433,0.0010646508437165,-0.2766426681787267,-1.4499185846563858,9.682469582388297
4305000000.0,22.28,-0.0019482838190690035,5.3187167298698445e-05,0.001895096651770244,-0.33903393447783936,-1.4605121310443212,9.64921401638054
4310000000.0,22.28,0.0020228820306487307,-0.00440768174953883,0.0019802233127603694,-0.3219632791176328,-1.41264,9.635774232566842
4315000000.0,22.28,0.0017778850444891041,-0.003236465796438251,0.0,-0.2369110809315108,-1.456197405764374,9.630869567627396
4320000000.0,22.28,-0.003492036554195088,0.004429002149446035,0.0007665668206709757,-0.2519218908406189,-1.5056382126242822,9.675015155197352
4325000000.0,22.28,0.0008517936120740004,0.005536111450225265,0.0013840278625562672,-0.3404071680158717,-1.4239205759127058,9.745254336031742
4330000000.0,22.28,0.004215962575051663,-0.0021719424872475366,-0.0003619904145412448,-0.31646967484439675,-1.397141293365713,9.780766452315165
4335000000.0,22.28,-0.001405375666576526,-0.004279841562434395,-0.0007133069270723767,-0.24848738420217384,-1.500734305213043,9.809902152606522
4340000000.0,22.28,-0.0022144188623840575,0.0013627896749880387,0.0,-0.2770349900950499,-1.499359304109193,9.82962
4345000000.0,22.28,0.004109607212532374,0.0026083487706166676,0.0,-0.3146064468107645,-1.3974340780179408,9.805290524828706
4350000000.0,22.28,0.0053231625202046235,-0.0017034596896220475,0.0003194044229527586,-0.29135691550646914,-1.407736267402963,9.730538408545284
4355000000.0,22.28,-0.002746817537544303,-0.0025764366810382966,0.0007558929186608629,-0.2901799691812997,-1.4993600616374005,9.673935046228051
4360000000.0,22.28,-0.0018737119575979195,-0.0010646508437165,0.0,-0.2876286918733869,-1.4330436143712362,9.644799345936693
4365000000.0,22.28,0.0031087436578204966,-0.0007771859144551059,0.0,-0.24525,-1.3659454174186543,9.618312430430224
4370000000.0,22.28,-0.0019377290195499595,0.0013840921568214143,0.0,-0.2682061639380616,-1.4748361639380616,9.621844794174049
4375000000.0,22.28,-0.005589352371745594,0.0034600506843125937,-0.0002661719334671509,-0.3359925849791259,-1.5156441502087414,9.699638434770385
4380000000.0,22.28,0.0012776271778501948,-0.0018737762518629705,-0.0008091254081464706,-0.3198051492375515,-1.4444244850762449,9.78527897015249
4385000000.0,22.28,0.0038539805925452073,-0.0010646508437165,0.0002448789376729078,-0.24299361482663615,-1.467674696213547,9.804702770346728
4390000000.0,22.28,-0.0005961859641649274,-0.00012772108461333285,0.0008304184039407136,-0.2548645674343457,-1.5032837178361371,9.817651714729518
4395000000.0,22.28,0.002629752436867216,0.0018524368798775695,0.0,-0.32785037073520373,-1.4297088877943889,9.805879629264798
4400000000.0,22.28,0.007026630641861437,-0.0038327708630942494,0.0,-0.32765331628223315,-1.4047929401119292,9.774683316282234
4405000000.0,22.28,-0.000149106832790068,-0.005174147385792632,0.0,-0.26487,-1.4873920288763203,9.7025800721908
4410000000.0,22.28,-0.003790082633084245,0.0001916464481873001,0.0,-0.2719335426358354,-1.4573729147283292,9.659318228682084
4415000000.0,22.28,0.0028319526305692257,0.0012456507940066786,0.0,-0.3007744284878443,-1.3996911430243113,9.641562214243923
4420000000.0,22.28,0.00021288358175119884,0.0017885947826468858,0.0,-0.2891990575595906,-1.4401084292659843,9.641268429265983
4425000000.0,22.28,-0.003939189465874213,-0.0006388278179837569,0.0,-0.3065620702484207,-1.48131,9.694242687602527
4430000000.0,22.28,-0.0016821203176365582,-0.0036623615484708298,0.0,-0.2607495418576954,-1.479936513952565,9.76095
4435000000.0,22.28,0.001341478761119898,0.0005536558348067826,0.0,-0.2456430891564309,-1.4715,9.76477615843366
4440000000.0,22.28,0.0028106501487358752,0.004003068453256946,0.0,-0.31627457248334573,-1.4667908550333086,9.79391185872502
4445000000.0,22.28,0.00035136288872235897,0.0011923339841733833,0.0,-0.325985695628457,-1.4333391863387919,9.815493254644833
4450000000.0,22.28,0.0027680546711082786,-0.005855532737247541,0.0,-0.2638889135640891,-1.4440321728718217,9.774683481384535
4455000000.0,22.28,-0.0008729949094900875,-0.0007771669423768812,0.0,-0.2594749326651493,-1.4581580538678804,9.71729506733485
4460000000.0,22.28,0.0010646508437165,0.0019589387490008305,0.0,-0.30411,-1.421665113369851,9.669520453479405
4465000000.0,22.28,0.0009155809010785737,-0.0002236049139568965,0.0,-0.3020496398181964,-1.4160739336363393,9.632046426545463
4470000000.0,22.28,-0.0013202047374038786,-0.0029383986374622276,0.0,-0.2752686868243869,-1.461101313175613,9.61556606047316
4475000000.0,22.28,-0.005003802365434369,0.0009049249171423397,0.0,-0.28449,-1.4508988261569884,9.645192347686024
4480000000.0,22.28,0.0010646508437165,-0.0019589197769226056,0.0,-0.28409751298137514,-1.4342224350931245,9.68482492211175
4485000000.0,22.28,0.000968803904525069,0.00216125066716348,0.0,-0.2761519355787193,-1.4818987742314877,9.743096322694463
4490000000.0,22.28,-0.002086696723766289,0.003108742603816176,0.0,-0.32373,-1.4991634150842343,9.800582574425727
4495000000.0,22.28,3.1967951808702743e-05,-0.0010966187955252027,0.0,-0.3230426888301269,-1.412541812690018,9.819613625380036
4500000000.0,22.28,0.003193905100954038,-0.00425856543070965,0.0,-0.2550598251857983,-1.4028309614781096,9.800189475557396
4505000000.0,22.28,-0.002076116628142953,-4.2548047432037356e-05,0.0,-0.23563602499156025,-1.5096618625464187,9.74191807497468
4510000000.0,22.28,-0.002129301687433,0.004173469335845574,0.0,-0.312351100810711,-1.4338288991892891,9.731716112398662
4515000000.0,22.28,0.009230627509274015,-0.0019377216415194833,0.0,-0.3234357876984579,-1.3941968492061685,9.712488424603084
4520000000.0,22.28,0.0014052628881115019,-0.0031513760256002225,0.0,-0.25780618543096184,-1.4777791901601918,9.693064624408846
4525000000.0,22.28,-0.003992488357633618,0.0008517588299305134,0.0,-0.2736991757853917,-1.4906295878926958,9.75751711524887
4530000000.0,22.28,0.004748428706490131,0.0030662135284623606,0.0,-0.32078743994907444,-1.3712406561324069,9.770171487989813
4535000000.0,22.28,0.007303523907534224,0.0012136828421979834,0.0,-0.2963598357391984,-1.4274537166085373,9.72514305956533
4540000000.0,22.28,-0.0013628392131922436,8.516249713785991e-05,0.0,-0.30332528818405285,-1.4954370172883702,9.748785864552158
4545000000.0,22.28,0.0007772238586115556,-0.0038753673947261647,0.004844209243407774,-0.2951828117188281,-1.4473668703129687,9.760067188281171
4550000000.0,22.28,0.009688409000776433,-0.003300408024081703,-0.0004259178861238614,-0.2501545581085456,-1.4155827348651273,9.76095
4555000000.0,22.28,0.00685631302561612,0.0034388894390615056,-0.0010646508437165,-0.2539809884754099,-1.473756919327869,9.76968098847541
4560000000.0,22.28,0.0035771979973286505,0.0014478963098955504,0.0017460562212539617,-0.3413888857252888,-1.48131,9.805291554290116
4565000000.0,22.28,0.006898975959521817,-0.0026403725846557164,0.0012030458303399676,-0.3360904226607042,-1.4557056339910563,9.818534788669648
4570000000.0,22.28,0.0074525559060157,-0.0031939525311496,0.00014904148452058916,-0.24917311233233114,-1.45188,9.811373311233234
4575000000.0,22.28,0.0029277415995215845,-0.0004790639472531475,0.0,-0.26045576659165764,-1.5019115331833153,9.784984233408343
4580000000.0,22.28,0.003917934414236419,0.00804884727061526,0.002682949090205087,-0.3307939116880391,-1.4200946214289463,9.74760804415598
4585000000.0,22.28,0.014877128152158895,-0.0019058506581106326,0.0005429429346358785,-0.3677771671743717,-1.3621180547093807,9.74133
4590000000.0,22.28,0.009180344625032035,-0.010369766948118319,0.0,-0.21189421689514215,-1.5146657831048578,9.717197132534272
4595000000.0,22.28,0.0022782946877537196,0.0012244937647730506,0.0008623768697103031,-0.1924723785047238,-1.462571918224019,9.743684757009447
4600000000.0,22.28,0.01128541530547508,0.01022071597755861,0.0002129204719033184,-0.3296175189411752,-1.371437195854672,9.649114838456748
4605000000.0,22.28,0.008793957724818403,-0.002587266575691593,0.0,-0.2932200949806009,-1.4855298205921983,9.6701099366796
4610000000.0,22.28,0.009113430658053655,0.0019164686978904184,0.0,-0.29763566863115665,-1.5817651163497513,9.812552122243222
4615000000.0,22.28,0.013680811984058038,-0.0039393054063523,0.0,-0.30411,-1.4857231553874317,9.977654423894244
4620000000.0,22.28,0.021391531515800234,0.0008943943597232865,0.0,-0.2817429307861293,-1.3624117231445174,9.91908603340656
4625000000.0,22.28,0.010650715607823642,-0.0015970347628159924,0.0,-0.3114679491753795,-1.4813117967015181,9.83697687115447
4630000000.0,22.28,0.0040243509090077696,-0.007133209453302009,-0.0039392569221524095,-0.2729135704746357,-1.5448789798643898,9.827069489932196
4635000000.0,22.28,0.015641971779397034,0.0008092518886679608,-0.0022144346724492308,-0.2264144398827444,-1.4497205395896053,9.843942780058628
4640000000.0,22.28,0.0248451696549516,0.00962451209531978,0.0004684659335559185,-0.2935161913907619,-1.398513419747134,9.79979696911497
4645000000.0,22.28,0.017550389698355186,0.004152040373490739,0.0003087389529774123,-0.3585559511177595,-1.455706712011967,9.759674429329344
4650000000.0,22.28,0.015343209219455398,-0.006388003084703371,-0.0007452653928419662,-0.37278,-1.4195061871139618,9.771741270962012
4655000000.0,22.28,0.018925691528047517,-0.014001613895822058,-0.0017992697386613446,-0.2035552395552524,-1.3794820191644204,9.79410798083558
4660000000.0,22.28,0.01952184692608641,0.0035719071719727755,0.0007665879007578923,-0.18089712411927125,-1.446779795663998,9.686784861246549
4665000000.0,22.28,0.014176193318164027,0.0127758101245984,0.0028426275865836683,-0.3571841840766419,-1.5141739530601397,9.672856743672167
4670000000.0,22.28,0.020857510831624286,-0.001980457301725143,0.0010859143273890945,-0.40574123716341237,-1.3361192787255929,9.737602834964028
4675000000.0,22.28,0.02418500773500412,-0.014437432718637906,-0.0006920329033563584,-0.26486818387468186,-1.3380854529002546,9.76095
4680000000.0,22.28,0.013207805503452873,-0.004094354819316659,0.0009795083726612107,-0.16480754548307547,-1.593931708908317,9.754671509096614
4685000000.0,22.28,0.010806255443826402,0.007889131884084596,0.002800041594995178,-0.283118602011086,-1.5215282699848827,9.83148508300655
4690000000.0,22.28,0.03126924679865607,0.004045574340515215,0.000553578892489563,-0.3751345821952458,-1.2119243937784439,9.830011671219017
4695000000.0,22.28,0.031562889541127244,-0.005845022205911033,-0.0010646508437165,-0.26290617610516176,-1.412056324516063,9.80019
4700000000.0,22.28,0.008523940213298713,-0.0006386517992579901,-0.00042585042984574924,-0.2275926390430264,-1.6951691867941918,9.853164821626748
4705000000.0,22.28,0.016725613396956395,0.002182484638714436,0.0,-0.3476678622236786,-1.4336284649950848,9.92320794833388
4710000000.0,22.28,0.04280545576861764,-0.006792581598841815,0.0,-0.2868423873058239,-1.21644,9.84492195325022
4715000000.0,22.28,0.033380160861913546,-0.003215106398370209,0.0,-0.15146566733425668,-1.5016213707441137,9.787535374749654
4720000000.0,22.28,0.012613035827389775,0.01214694287230654,0.0005962144222822646,-0.315492900492129,-1.5684203246309032,9.805683691680338
4725000000.0,22.28,0.026785896884896413,0.002775667122462768,-0.00010648500505378608,-0.4492976328901763,-1.2468475124566751,9.750648490447984
4730000000.0,22.28,0.04030380133522936,-0.014680383363999527,-0.0016395722702045215,-0.2303353087661531,-1.2698097074846972,9.675602540627127
4735000000.0,22.28,0.01971456061414956,0.0005230558251301427,-0.00043647690166030034,-0.15244905549049056,-1.6090393270375933,9.699834527745246
4740000000.0,22.28,0.015936482313020015,0.010952878178439786,-4.260601767105683e-05,-0.3731748858579489,-1.5158366886281671,9.838254549307445
4745000000.0,22.28,0.04508269842180426,-0.0028214747733674578,-0.0016076327765131568,-0.37022700368577005,-1.165033388017634,9.857675309676955
4750000000.0,22.28,0.04420885935850567,-0.005855489523069382,-0.0005322953827343942,-0.21581944642169446,-1.4126468274657682,9.800190184526102
4755000000.0,22.28,0.016191393367728978,0.00206548277829808,0.0010646508437165,-0.25849488540254884,-1.6698561680762616,9.910946839563568
4760000000.0,22.28,0.0314031741027603,0.003279084462161435,0.0005536084046112077,-0.38062892457288927,-1.2866742374772424,9.96421218296982
4765000000.0,22.28,0.054150998479876034,-0.004439704509573565,-0.0010007918824163414,-0.2979270159221702,-1.1706309096219092,9.783608601030986
4770000000.0,22.28,0.03176640556422185,-0.0018310184575661935,-0.0006600533574998527,-0.19227692651526926,-1.5178061648488617,9.70189500446985
4775000000.0,22.28,0.022844826124937392,0.004684383186420745,0.0005855478983025724,-0.36002941146479417,-1.5239800683001006,9.832564298481042
4780000000.0,22.28,0.04546465259442957,-0.0065583902652355044,0.0,-0.37081521462705214,-1.2164376788558768,9.813137157393172
4785000000.0,22.28,0.04896918896629455,-0.0048332929203980975,0.0,-0.18069964234269642,-1.2942380400870805,9.662751249399813
4790000000.0,22.28,0.027264982396041783,0.009858697104900031,-0.0013414903551677308,-0.2789993772800938,-1.5423273626399738,9.710136153840061
4795000000.0,22.28,0.030634034181020977,0.0029808202043727847,-0.0031939525311496,-0.42084806862878066,-1.3422988539264886,9.833642193137122
4800000000.0,22.28,0.05113809649122522,-0.010007728049377159,-0.0019163411633646005,-0.28056404208094043,-1.1830873052793731,9.784492694720628
4805000000.0,22.28,0.039217684483497044,-0.004833373024728429,-0.0004152239580311983,-0.16461198666271987,-1.4453116865739168,9.74417592664496
4810000000.0,22.28,0.03163773544372828,0.005472335755268369,-0.00025549592344834644,-0.2735052291404523,-1.5774442628608427,9.877102081712621
4815000000.0,22.28,0.052969291986963964,0.0031193153214090817,0.0010646508437165,-0.39534206474402067,-1.239785368334454,9.982950206474403
4820000000.0,22.28,0.06130963114003458,-0.005025172303545803,-0.00046848701364287076,-0.2735012084138121,-1.2168360512859606,9.92026290203653
4825000000.0,22.28,0.03557662873438136,-0.0026615253978719733,-0.0020760386318214286,-0.21484031207770313,-1.5028931246380313,9.840411562319016
4830000000.0,22.28,0.03645607544637485,0.0010006801579556823,-0.0007239829370911812,-0.32412296290172965,-1.4559967287726674,9.898682962901729
4835000000.0,22.28,0.06035804377446307,-0.003566529365340289,-0.0014266117461360617,-0.3046969095466691,-1.1516921217185212,9.8630699399763
4840000000.0,22.28,0.0566741784293288,0.0003406984727513475,0.0003406984727513475,-0.2240615281343153,-1.1646475245148753,9.696203529944036
4845000000.0,22.28,0.041518806503633626,0.000734598868862274,0.000734598868862274,-0.3193159705415597,-1.4532528353501284,9.67805597054156
4850000000.0,22.28,0.03994735168330398,-0.0006388109539142089,-0.0006388109539142089,-0.3413876231782762,-1.3420057390696574,9.738387847848879
4855000000.0,22.28,0.0585907029894496,-0.003055578624613007,-0.001820542708373017,-0.2940050398821504,-1.2028049487229495,9.78027503988215
4860000000.0,22.28,0.05441224116331426,-0.0017459044446282521,-0.0007665383625536386,-0.24250310560033106,-1.2984527327960274,9.748001366398015
4865000000.0,22.28,0.04539764634159533,0.006015225989686948,0.0,-0.2751719174518192,-1.3699660275160601,9.81686794496788
4870000000.0,22.28,0.05062713521045453,-0.001469351622359142,-0.00027681948536861827,-0.33667749730967494,-1.3239572216243725,9.893581389187814
4875000000.0,22.28,0.05513070078933689,-0.00851708343122384,-0.00026613188130200974,-0.2158203787641038,-1.2802044318538444,9.900742215926922
4880000000.0,22.28,0.061358692312288445,0.002342283291588424,0.0016182487082842495,-0.25702247394072475,-1.238414494788145,9.86925202084742
4885000000.0,22.28,0.05375720875422143,0.0036942251538493176,-0.00024487999167725365,-0.28753081534420816,-1.2752031335084315,9.841686394885263
4890000000.0,22.28,0.056099450939640416,-0.003683619762121731,-0.0008304173499363678,-0.2778197698942977,-1.3475004602114047,9.840606820070468
4895000000.0,22.28,0.06015581196063074,0.0007877797121349157,0.0004471739917660211,-0.31548921968199223,-1.2433188295229882,9.816180585238506
4900000000.0,22.28,0.06476561590755,-0.0027680198889648367,0.0017034206914612218,-0.27860371447013715,-1.2007441903532419,9.831581619293516
4905000000.0,22.28,0.060464529833521206,0.0031939525311496,-0.00020229400008876748,-0.26997196218991965,-1.2369439480111395,9.80764598109496
4910000000.0,22.28,0.06238077719049907,0.0012774775092330864,-0.001256298345908146,-0.32471052314570525,-1.3172864185165643,9.834132313887423
4915000000.0,22.28,0.057930764518423425,-0.0049185418458922905,-0.001767299678843951,-0.28282220453202206,-1.2417473178325733,9.804996613596067
4920000000.0,22.28,0.0699611532575367,0.005919365348439043,0.0,-0.27624969556509693,-1.0724317802576178,9.777430608869807
4925000000.0,22.28,0.0656172324468939,-0.001650177661932156,0.0,-0.2741888303644883,-1.3111075522843756,9.763893191324431
4930000000.0,22.28,0.05307594672127495,0.0012137123543196598,0.0,-0.2419164194273642,-1.371239597535296,9.795678453352686
4935000000.0,22.28,0.06678027231549633,0.0001914915095484126,0.0,-0.3779774787273748,-1.1644460414354605,9.880827624861276
4940000000.0,22.28,0.07717343705425128,-0.010475976858037826,0.0,-0.21464270404642705,-1.1061778069321782,9.824910816185708
4945000000.0,22.28,0.06404163191645441,0.006973515146858198,0.0,-0.22867311706453117,-1.3036508039493082,9.800092764456227
4950000000.0,22.28,0.058271485125266025,0.009368697862559,0.0,-0.4071145192609452,-1.272354788600348,9.875726711556567
