#timestamp [ns], temperature [degC], w_RS_S_x [rad s^-1], w_RS_S_y [rad s^-1], w_RS_S_z [rad s^-1], a_RS_S_x [m s^-2], a_RS_S_y [m s^-2], a_RS_S_z [m s^-2]
0,22.28,0.0,0.0,0.0,-0.32373,-0.26487,9.82962
5050505,22.28,0.0,0.0,0.0,-0.30411,-0.21582,9.819809999999999
10101010,22.28,0.0,0.0,0.0,-0.2943,-0.23544,9.819809999999999
15151515,22.28,0.0,0.0,0.0,-0.32373,-0.25506,9.81
20202020,22.28,0.0,0.0,0.0,-0.33354000000000006,-0.25506,9.82962
25252525,22.28,0.0,0.0,0.0,-0.27468000000000004,-0.22563,9.82962
30303030,22.28,0.0,0.0,0.0,-0.28449,-0.24525000000000002,9.81
35353535,22.28,0.0,0.0,0.0,-0.30411,-0.24525000000000002,9.819809999999999
40404040,22.28,0.0,0.0,0.0,-0.32373,-0.23544,9.83943
45454545,22.28,0.0,0.0,0.0,-0.28449,-0.24525000000000002,9.83943
50505050,22.28,0.0,0.0,0.0,-0.30411,-0.22563,9.83943
55555555,22.28,0.0,0.0,0.0,-0.32373,-0.24525000000000002,9.83943
60606060,22.28,0.0,0.0,0.0,-0.26487,-0.26487,9.83943
65656565,22.28,0.0,0.0,0.0,-0.30411,-0.25506,9.83943
70707070,22.28,0.0,0.0,0.0,-0.32373,-0.25506,9.83943
75757575,22.28,0.0,0.0,0.0,-0.30411,-0.23544,9.83943
80808080,22.28,0.0,0.0,0.0,-0.2943,-0.24525000000000002,9.84924
85858585,22.28,0.0,0.0,0.0,-0.2943,-0.26487,9.82962
90909090,22.28,0.0,0.0,0.0,-0.30411,-0.24525000000000002,9.79038
95959595,22.28,0.0,0.0,0.0,-0.30411,-0.27468000000000004,9.84924
101010100,22.28,0.0,0.0,0.0,-0.31392000000000003,-0.24525000000000002,9.83943
106060605,22.28,0.0,0.0,0.0,-0.30411,-0.22563,9.79038
111111110,22.28,0.0,0.0,0.0,-0.27468000000000004,-0.24525000000000002,9.81
116161615,22.28,0.0,0.0,0.0,-0.31392000000000003,-0.26487,9.83943
121212120,22.28,0.0,0.0,0.0,-0.30411,-0.23544,9.83943
126262625,22.28,0.0,0.0,0.0,-0.27468000000000004,-0.24525000000000002,9.82962
131313130,22.28,0.0,0.0,0.0,-0.2943,-0.26487,9.79038
136363635,22.28,0.0,0.0,0.0,-0.32373,-0.26487,9.82962
141414140,22.28,0.0,0.0,0.0,-0.30411,-0.25506,9.85905
146464645,22.28,0.0,0.0,0.0,-0.2943,-0.25506,9.84924
151515150,22.28,0.0,0.0,0.0,-0.2943,-0.27468000000000004,9.82962
156565655,22.28,0.0,0.0,0.0,-0.2943,-0.23544,9.82962
161616160,22.28,0.0,0.0,0.0,-0.28449,-0.26487,9.81
166666665,22.28,0.0,0.0,0.0,-0.30411,-0.24525000000000002,9.82962
171717170,22.28,0.0,0.0,0.0,-0.25506,-0.25506,9.819809999999999
176767675,22.28,0.0,0.0,0.0,-0.2943,-0.26487,9.83943
181818180,22.28,0.0,0.0,0.0,-0.2943,-0.25506,9.83943
186868685,22.28,0.0,0.0,0.0,-0.32373,-0.24525000000000002,9.83943
191919190,22.28,0.0,0.0,0.0,-0.28449,-0.25506,9.83943
196969695,22.28,0.0,0.0,0.0,-0.28449,-0.28449,9.84924
202020200,22.28,0.0,0.0,0.0,-0.30411,-0.23544,9.82962
207070705,22.28,0.0,0.0,0.0,-0.28449,-0.24525000000000002,9.819809999999999
212121210,22.28,0.0,0.0,0.0,-0.2943,-0.25506,9.819809999999999
217171715,22.28,0.0,0.0,0.0,-0.30411,-0.23544,9.81
222222220,22.28,0.0,0.0,0.0,-0.31392000000000003,-0.23544,9.82962
227272725,22.28,0.0,0.0,0.0,-0.30411,-0.26487,9.82962
232323230,22.28,0.0,0.0,0.0,-0.33354000000000006,-0.23544,9.84924
237373735,22.28,0.0,0.0,0.0,-0.31392000000000003,-0.23544,9.82962
242424240,22.28,0.0,0.0,0.0,-0.2943,-0.23544,9.84924
247474745,22.28,0.0,0.0,0.0,-0.32373,-0.26487,9.84924
252525250,22.28,0.0,0.0,0.0,-0.32373,-0.24525000000000002,9.83943
257575755,22.28,0.0,0.0,0.0,-0.2943,-0.23544,9.82962
262626260,22.28,0.0,0.0,0.0,-0.28449,-0.27468000000000004,9.83943
267676765,22.28,0.0,0.0,0.0,-0.31392000000000003,-0.26487,9.84924
272727270,22.28,0.0,0.0,0.0,-0.30411,-0.24525000000000002,9.83943
277777775,22.28,0.0,0.0,0.0,-0.27468000000000004,-0.24525000000000002,9.83943
282828280,22.28,0.0,0.0,0.0,-0.32373,-0.26487,9.80019
287878785,22.28,0.0,0.0,0.0,-0.28449,-0.25506,9.819809999999999
292929290,22.28,0.0,0.0,0.0,-0.30411,-0.22563,9.81
297979795,22.28,0.0,0.0,0.0,-0.30411,-0.26487,9.83943
303030300,22.28,0.0,0.0,0.0,-0.2943,-0.25506,9.82962
308080805,22.28,0.0,0.0,0.0,-0.31392000000000003,-0.22563,9.83943
313131310,22.28,0.0,0.0,0.0,-0.27468000000000004,-0.23544,9.83943
318181815,22.28,0.0,0.0,0.0,-0.30411,-0.23544,9.83943
323232320,22.28,0.0,0.0,0.0,-0.32373,-0.25506,9.85905
328282825,22.28,0.0,0.0,0.0,-0.31392000000000003,-0.23544,9.84924
333333330,22.28,0.0,0.0,0.0,-0.30411,-0.25506,9.83943
338383835,22.28,0.0,0.0,0.0,-0.28449,-0.23544,9.83943
343434340,22.28,0.0,0.0,0.0,-0.28449,-0.26487,9.81
348484845,22.28,0.0,0.0,0.0,-0.30411,-0.26487,9.83943
353535350,22.28,0.0,0.0,0.0,-0.28449,-0.26487,9.83943
358585855,22.28,0.0,0.0,0.0,-0.30411,-0.22563,9.819809999999999
363636360,22.28,0.0,0.0,0.0,-0.30411,-0.27468000000000004,9.82962
368686865,22.28,0.0,0.0,0.0,-0.2943,-0.25506,9.84924
373737370,22.28,0.0,0.0,0.0,-0.2943,-0.23544,9.83943
378787875,22.28,0.0,0.0,0.0,-0.26487,-0.23544,9.819809999999999
383838380,22.28,0.0,0.0,0.0,-0.33354000000000006,-0.27468000000000004,9.819809999999999
388888885,22.28,0.0,0.0,0.0,-0.34335000000000004,-0.24525000000000002,9.819809999999999
393939390,22.28,0.0,0.0,0.0,-0.30411,-0.23544,9.81
398989895,22.28,0.0,0.0,0.0,-0.28449,-0.25506,9.81
404040400,22.28,0.0,0.0,0.0,-0.31392000000000003,-0.24525000000000002,9.82962
409090905,22.28,0.0,0.0,0.0,-0.32373,-0.23544,9.83943
414141410,22.28,0.0,0.0,0.0,-0.2943,-0.25506,9.82962
419191915,22.28,0.0,0.0,0.0,-0.27468000000000004,-0.26487,9.82962
424242420,22.28,0.0,0.0,0.0,-0.2943,-0.23544,9.819809999999999
429292925,22.28,0.0,0.0,0.0,-0.2943,-0.23544,9.84924
434343430,22.28,0.0,0.0,0.0,-0.2943,-0.22563,9.82962
439393935,22.28,0.0,0.0,0.0,-0.30411,-0.22563,9.81
444444440,22.28,0.0,0.0,0.0,-0.31392000000000003,-0.24525000000000002,9.82962
449494945,22.28,0.0,0.0,0.0,-0.31392000000000003,-0.25506,9.82962
454545450,22.28,0.0,0.0,0.0,-0.2943,-0.20601000000000003,9.84924
459595955,22.28,0.0,0.0,0.0,-0.27468000000000004,-0.28449,9.819809999999999
464646460,22.28,0.0,0.0,0.0,-0.2943,-0.27468000000000004,9.81
469696965,22.28,0.0,0.0,0.0,-0.31392000000000003,-0.26487,9.83943
474747470,22.28,0.0,0.0,0.0,-0.31392000000000003,-0.23544,9.819809999999999
479797975,22.28,0.0,0.0,0.0,-0.2943,-0.22563,9.81
484848480,22.28,0.0,0.0,0.0,-0.32373,-0.26487,9.81
489898985,22.28,0.0,0.0,0.0,-0.33354000000000006,-0.24525000000000002,9.84924
494949490,22.28,0.0,0.0,0.0,-0.26487,-0.22563,9.83943
499999995,22.28,0.0,0.0,0.0,-0.2943,-0.28449,9.83943
505050500,22.28,0.0,0.0,0.0,-0.31392000000000003,-0.25506,9.85905
510101005,22.28,0.0,0.0,0.0,-0.2943,-0.26487,9.819809999999999
515151510,22.28,0.0,0.0,0.0,-0.28449,-0.25506,9.82962
520202015,22.28,0.0,0.0,0.0,-0.2943,-0.24525000000000002,9.83943
525252520,22.28,0.0,0.0,0.0,-0.31392000000000003,-0.24525000000000002,9.81
530303025,22.28,0.0,0.0,0.0,-0.30411,-0.24525000000000002,9.82962
535353530,22.28,0.0,0.0,0.0,-0.30411,-0.23544,9.86886
540404035,22.28,0.0,0.0,0.0,-0.32373,-0.24525000000000002,9.819809999999999
545454540,22.28,0.0,0.0,0.0,-0.30411,-0.24525000000000002,9.819809999999999
550505045,22.28,0.0,0.0,0.0,-0.2943,-0.25506,9.84924
555555550,22.28,0.0,0.0,0.0,-0.30411,-0.23544,9.84924
560606055,22.28,0.0,0.0,0.0,-0.31392000000000003,-0.23544,9.81
565656560,22.28,0.0,0.0,0.0,-0.31392000000000003,-0.26487,9.82962
570707065,22.28,0.0,0.0,0.0,-0.2943,-0.25506,9.82962
575757570,22.28,0.0,0.0,0.0,-0.30411,-0.23544,9.83943
580808075,22.28,0.0,0.0,0.0,-0.30411,-0.25506,9.819809999999999
585858580,22.28,0.0,0.0,0.0,-0.2943,-0.25506,9.84924
590909085,22.28,0.0,0.0,0.0,-0.28449,-0.24525000000000002,9.84924
595959590,22.28,0.0,0.0,0.0,-0.32373,-0.22563,9.82962
601010095,22.28,0.0,0.0,0.0,-0.30411,-0.23544,9.819809999999999
606060600,22.28,0.0,0.0,0.0,-0.27468000000000004,-0.23544,9.82962
611111105,22.28,0.0,0.0,0.0,-0.2943,-0.27468000000000004,9.819809999999999
616161610,22.28,0.0,0.0,0.0,-0.30411,-0.24525000000000002,9.83943
621212115,22.28,0.0,0.0,0.0,-0.28449,-0.23544,9.82962
626262620,22.28,0.0,0.0,0.0,-0.27468000000000004,-0.26487,9.819809999999999
631313125,22.28,0.0,0.0,0.0,-0.2943,-0.25506,9.81
636363630,22.28,0.0,0.0,0.0,-0.30411,-0.23544,9.82962
641414135,22.28,0.0,0.0,0.0,-0.2943,-0.22563,9.819809999999999
646464640,22.28,0.0,0.0,0.0,-0.31392000000000003,-0.25506,9.82962
651515145,22.28,0.0,0.0,0.0,-0.28449,-0.25506,9.85905
656565650,22.28,0.0,0.0,0.0,-0.2943,-0.24525000000000002,9.83943
661616155,22.28,0.0,0.0,0.0,-0.31392000000000003,-0.24525000000000002,9.83943
666666660,22.28,0.0,0.0,0.0,-0.30411,-0.23544,9.82962
671717165,22.28,0.0,0.0,0.0,-0.32373,-0.25506,9.819809999999999
676767670,22.28,0.0,0.0,0.0,-0.27468000000000004,-0.23544,9.83943
681818175,22.28,0.0,0.0,0.0,-0.31392000000000003,-0.23544,9.83943
686868680,22.28,0.0,0.0,0.0,-0.28449,-0.25506,9.819809999999999
691919185,22.28,0.0,0.0,0.0,-0.28449,-0.27468000000000004,9.819809999999999
696969690,22.28,0.0,0.0,0.0,-0.27468000000000004,-0.25506,9.83943
702020195,22.28,0.0,0.0,0.0,-0.30411,-0.25506,9.79038
707070700,22.28,0.0,0.0,0.0,-0.28449,-0.28449,9.83943
712121205,22.28,0.0,0.0,0.0,-0.30411,-0.24525000000000002,9.82962
717171710,22.28,0.0,0.0,0.0,-0.27468000000000004,-0.23544,9.82962
722222215,22.28,0.0,0.0,0.0,-0.28449,-0.25506,9.819809999999999
727272720,22.28,0.0,0.0,0.0,-0.2943,-0.26487,9.81
732323225,22.28,0.0,0.0,0.0,-0.32373,-0.24525000000000002,9.84924
737373730,22.28,0.0,0.0,0.0,-0.2943,-0.25506,9.81
742424235,22.28,0.0,0.0,0.0,-0.30411,-0.24525000000000002,9.819809999999999
747474740,22.28,0.0,0.0,0.0,-0.27468000000000004,-0.24525000000000002,9.83943
752525245,22.28,0.0,0.0,0.0,-0.2943,-0.25506,9.82962
757575750,22.28,0.0,0.0,0.0,-0.30411,-0.25506,9.82962
762626255,22.28,0.0,0.0,0.0,-0.30411,-0.25506,9.83943
767676760,22.28,0.0,0.0,0.0,-0.2943,-0.23544,9.819809999999999
772727265,22.28,0.0,0.0,0.0,-0.31392000000000003,-0.25506,9.83943
777777770,22.28,0.0,0.0,0.0,-0.30411,-0.24525000000000002,9.819809999999999
782828275,22.28,0.0,0.0,0.0,-0.28449,-0.24525000000000002,9.82962
787878780,22.28,0.0,0.0,0.0,-0.31392000000000003,-0.25506,9.82962
792929285,22.28,0.0,0.0,0.0,-0.30411,-0.23544,9.82962
797979790,22.28,0.0,0.0,0.0,-0.30411,-0.25506,9.84924
803030295,22.28,0.0,0.0,0.0,-0.30411,-0.24525000000000002,9.82962
808080800,22.28,0.0,0.0,0.0,-0.2943,-0.25506,9.84924
813131305,22.28,0.0,0.0,0.0,-0.28449,-0.24525000000000002,9.82962
818181810,22.28,0.0,0.0,0.0,-0.30411,-0.24525000000000002,9.83943
823232315,22.28,0.0,0.0,0.0,-0.2943,-0.24525000000000002,9.82962
828282820,22.28,0.0,0.0,0.0,-0.31392000000000003,-0.24525000000000002,9.82962
833333325,22.28,0.0,0.0,0.0,-0.27468000000000004,-0.25506,9.82962
838383830,22.28,0.0,0.0,0.0,-0.2943,-0.25506,9.83943
843434335,22.28,0.0,0.0,0.0,-0.28449,-0.22563,9.819809999999999
848484840,22.28,0.0,0.0,0.0,-0.2943,-0.26487,9.81
853535345,22.28,0.0,0.0,0.0,-0.2943,-0.26487,9.84924
858585850,22.28,0.0,0.0,0.0,-0.28449,-0.23544,9.81
863636355,22.28,0.0,0.0,0.0,-0.2943,-0.26487,9.819809999999999
868686860,22.28,0.0,0.0,0.0,-0.30411,-0.25506,9.82962
873737365,22.28,0.0,0.0,0.0,-0.30411,-0.25506,9.82962
878787870,22.28,0.0,0.0,0.0,-0.35316,-0.25506,9.83943
883838375,22.28,0.0,0.0,0.0,-0.33354000000000006,-0.24525000000000002,9.83943
888888880,22.28,0.0,0.0,0.0,-0.28449,-0.25506,9.82962
893939385,22.28,0.0,0.0,0.0,-0.30411,-0.24525000000000002,9.81
898989890,22.28,0.0,0.0,0.0,-0.31392000000000003,-0.24525000000000002,9.81
904040395,22.28,0.0,0.0,0.0,-0.32373,-0.24525000000000002,9.83943
909090900,22.28,0.0,0.0,0.0,-0.28449,-0.23544,9.84924
914141405,22.28,0.0,0.0,0.0,-0.2943,-0.25506,9.83943
919191910,22.28,0.0,0.0,0.0,-0.2943,-0.26487,9.819809999999999
924242415,22.28,0.0,0.0,0.0,-0.31392000000000003,-0.24525000000000002,9.83943
929292920,22.28,0.0,0.0,0.0,-0.30411,-0.26487,9.819809999999999
934343425,22.28,0.0,0.0,0.0,-0.28449,-0.24525000000000002,9.81
939393930,22.28,0.0,0.0,0.0,-0.31392000000000003,-0.25506,9.84924
944444435,22.28,0.0,0.0,0.0,-0.30411,-0.26487,9.83943
949494940,22.28,0.0,0.0,0.0,-0.31392000000000003,-0.25506,9.82962
954545445,22.28,0.0,0.0,0.0,-0.28449,-0.26487,9.819809999999999
959595950,22.28,0.0,0.0,0.0,-0.2943,-0.27468000000000004,9.82962
964646455,22.28,0.0,0.0,0.0,-0.31392000000000003,-0.25506,9.85905
969696960,22.28,0.0,0.0,0.0,-0.28449,-0.22563,9.82962
974747465,22.28,0.0,0.0,0.0,-0.30411,-0.25506,9.82962
979797970,22.28,0.0,0.0,0.0,-0.32373,-0.24525000000000002,9.81
984848475,22.28,0.0,0.0,0.0,-0.28449,-0.23544,9.82962
989898980,22.28,0.0,0.0,0.0,-0.30411,-0.26487,9.80019
994949485,22.28,0.0,0.0,0.0,-0.30411,-0.25506,9.83943
999999990,22.28,0.0,0.0,0.0,-0.33354000000000006,-0.26487,9.83943
1005050495,22.28,0.0,0.0,0.0,-0.2943,-0.22563,9.819809999999999
1010101000,22.28,0.0,0.0,0.0,-0.2943,-0.24525000000000002,9.819809999999999
1015151505,22.28,0.0,0.0,0.0,-0.30411,-0.27468000000000004,9.819809999999999
1020202010,22.28,0.0,0.0,0.0,-0.30411,-0.22563,9.82962
1025252515,22.28,0.0,0.0,0.0,-0.28449,-0.22563,9.82962
1030303020,22.28,0.0,0.0,0.0,-0.32373,-0.24525000000000002,9.83943
1035353525,22.28,0.0,0.0,0.0,-0.31392000000000003,-0.24525000000000002,9.83943
1040404030,22.28,0.0,0.0,0.0,-0.30411,-0.26487,9.82962
1045454535,22.28,0.0,0.0,0.0,-0.31392000000000003,-0.24525000000000002,9.83943
1050505040,22.28,0.0,0.0,0.0,-0.31392000000000003,-0.23544,9.82962
1055555545,22.28,0.0,0.0,0.0,-0.31392000000000003,-0.24525000000000002,9.83943
1060606050,22.28,0.0,0.0,0.0,-0.2943,-0.24525000000000002,9.83943
1065656555,22.28,0.0,0.0,0.0,-0.2943,-0.24525000000000002,9.82962
1070707060,22.28,0.0,0.0,0.0,-0.30411,-0.23544,9.81
1075757565,22.28,0.0,0.0,0.0,-0.30411,-0.25506,9.819809999999999
1080808070,22.28,0.0,0.0,0.0,-0.31392000000000003,-0.24525000000000002,9.83943
1085858575,22.28,0.0,0.0,0.0,-0.27468000000000004,-0.24525000000000002,9.84924
1090909080,22.28,0.0,0.0,0.0,-0.27468000000000004,-0.24525000000000002,9.83943
1095959585,22.28,0.0,0.0,0.0,-0.28449,-0.27468000000000004,9.82962
1101010090,22.28,0.0,0.0,0.0,-0.32373,-0.22563,9.84924
1106060595,22.28,0.0,0.0,0.0,-0.31392000000000003,-0.24525000000000002,9.819809999999999
1111111100,22.28,0.0,0.0,0.0,-0.28449,-0.25506,9.819809999999999
1116161605,22.28,0.0,0.0,0.0,-0.30411,-0.24525000000000002,9.819809999999999
1121212110,22.28,0.0,0.0,0.0,-0.30411,-0.22563,9.86886
1126262615,22.28,0.0,0.0,0.0,-0.26487,-0.24525000000000002,9.85905
1131313120,22.28,0.0,0.0,0.0,-0.2943,-0.25506,9.82962
1136363625,22.28,0.0,0.0,0.0,-0.2943,-0.24525000000000002,9.82962
1141414130,22.28,0.0,0.0,0.0,-0.2943,-0.25506,9.84924
1146464635,22.28,0.0,0.0,0.0,-0.30411,-0.26487,9.82962
1151515140,22.28,0.0,0.0,0.0,-0.30411,-0.26487,9.82962
1156565645,22.28,0.0,0.0,0.0,-0.2943,-0.24525000000000002,9.81
1161616150,22.28,0.0,0.0,0.0,-0.2943,-0.25506,9.819809999999999
1166666655,22.28,0.0,0.0,0.0,-0.28449,-0.25506,9.81
1171717160,22.28,0.0,0.0,0.0,-0.30411,-0.24525000000000002,9.82962
1176767665,22.28,0.0,0.0,0.0,-0.2943,-0.26487,9.83943
1181818170,22.28,0.0,0.0,0.0,-0.32373,-0.24525000000000002,9.84924
1186868675,22.28,0.0,0.0,0.0,-0.30411,-0.26487,9.82962
1191919180,22.28,0.0,0.0,0.0,-0.2943,-0.24525000000000002,9.83943
1196969685,22.28,0.0,0.0,0.0,-0.31392000000000003,-0.25506,9.819809999999999
1202020190,22.28,0.0,0.0,0.0,-0.2943,-0.24525000000000002,9.819809999999999
1207070695,22.28,0.0,0.0,0.0,-0.28449,-0.25506,9.83943
1212121200,22.28,0.0,0.0,0.0,-0.30411,-0.25506,9.82962
1217171705,22.28,0.0,0.0,0.0,-0.31392000000000003,-0.24525000000000002,9.83943
1222222210,22.28,0.0,0.0,0.0,-0.31392000000000003,-0.25506,9.82962
1227272715,22.28,0.0,0.0,0.0,-0.31392000000000003,-0.25506,9.819809999999999
1232323220,22.28,0.0,0.0,0.0,-0.31392000000000003,-0.27468000000000004,9.82962
1237373725,22.28,0.0,0.0,0.0,-0.2943,-0.24525000000000002,9.819809999999999
1242424230,22.28,0.0,0.0,0.0,-0.27468000000000004,-0.23544,9.81
1247474735,22.28,0.0,0.0,0.0,-0.2943,-0.24525000000000002,9.82962
1252525240,22.28,0.0,0.0,0.0,-0.32373,-0.25506,9.819809999999999
1257575745,22.28,0.0,0.0,0.0,-0.28449,-0.25506,9.83943
1262626250,22.28,0.0,0.0,0.0,-0.2943,-0.23544,9.82962
1267676755,22.28,0.0,0.0,0.0,-0.31392000000000003,-0.25506,9.81
1272727260,22.28,0.0,0.0,0.0,-0.28449,-0.24525000000000002,9.819809999999999
1277777765,22.28,0.0,0.0,0.0,-0.28449,-0.22563,9.819809999999999
1282828270,22.28,0.0,0.0,0.0,-0.31392000000000003,-0.26487,9.83943
1287878775,22.28,0.0,0.0,0.0,-0.32373,-0.23544,9.819809999999999
1292929280,22.28,0.0,0.0,0.0,-0.30411,-0.22563,9.83943
1297979785,22.28,0.0,0.0,0.0,-0.27468000000000004,-0.25506,9.82962
1303030290,22.28,0.0,0.0,0.0,-0.31392000000000003,-0.27468000000000004,9.83943
1308080795,22.28,0.0,0.0,0.0,-0.2943,-0.24525000000000002,9.82962
1313131300,22.28,0.0,0.0,0.0,-0.30411,-0.24525000000000002,9.83943
1318181805,22.28,0.0,0.0,0.0,-0.34335000000000004,-0.23544,9.81
1323232310,22.28,0.0,0.0,0.0,-0.31392000000000003,-0.23544,9.82962
1328282815,22.28,0.0,0.0,0.0,-0.30411,-0.24525000000000002,9.83943
1333333320,22.28,0.0,0.0,0.0,-0.33354000000000006,-0.23544,9.83943
1338383825,22.28,0.0,0.0,0.0,-0.31392000000000003,-0.22563,9.82962
1343434330,22.28,0.0,0.0,0.0,-0.26487,-0.23544,9.81
1348484835,22.28,0.0,0.0,0.0,-0.28449,-0.27468000000000004,9.81
1353535340,22.28,0.0,0.0,0.0,-0.30411,-0.24525000000000002,9.819809999999999
1358585845,22.28,0.0,0.0,0.0,-0.30411,-0.20601000000000003,9.82962
1363636350,22.28,0.0,0.0,0.0,-0.30411,-0.25506,9.83943
1368686855,22.28,0.0,0.0,0.0,-0.31392000000000003,-0.27468000000000004,9.83943
1373737360,22.28,0.0,0.0,0.0,-0.2943,-0.24525000000000002,9.819809999999999
1378787865,22.28,0.0,0.0,0.0,-0.28449,-0.25506,9.82962
1383838370,22.28,0.0,0.0,0.0,-0.30411,-0.25506,9.83943
1388888875,22.28,0.0,0.0,0.0,-0.30411,-0.23544,9.83943
1393939380,22.28,0.0,0.0,0.0,-0.2943,-0.24525000000000002,9.81
1398989885,22.28,0.0,0.0,0.0,-0.2943,-0.24525000000000002,9.84924
1404040390,22.28,0.0,0.0,0.0,-0.31392000000000003,-0.27468000000000004,9.84924
1409090895,22.28,0.0,0.0,0.0,-0.28449,-0.22563,9.819809999999999
1414141400,22.28,0.0,0.0,0.0,-0.30411,-0.24525000000000002,9.819809999999999
1419191905,22.28,0.0,0.0,0.0,-0.30411,-0.25506,9.83943
1424242410,22.28,0.0,0.0,0.0,-0.31392000000000003,-0.22563,9.83943
1429292915,22.28,0.0,0.0,0.0,-0.30411,-0.23544,9.819809999999999
1434343420,22.28,0.0,0.0,0.0,-0.30411,-0.25506,9.82962
1439393925,22.28,0.0,0.0,0.0,-0.28449,-0.25506,9.85905
1444444430,22.28,0.0,0.0,0.0,-0.30411,-0.23544,9.82962
1449494935,22.28,0.0,0.0,0.0,-0.27468000000000004,-0.24525000000000002,9.819809999999999
1454545440,22.28,0.0,0.0,0.0,-0.28449,-0.26487,9.82962
1459595945,22.28,0.0,0.0,0.0,-0.31392000000000003,-0.24525000000000002,9.83943
1464646450,22.28,0.0,0.0,0.0,-0.26487,-0.24525000000000002,9.82962
1469696955,22.28,0.0,0.0,0.0,-0.2943,-0.25506,9.83943
1474747460,22.28,0.0,0.0,0.0,-0.30411,-0.25506,9.82962
1479797965,22.28,0.0,0.0,0.0,-0.30411,-0.24525000000000002,9.84924
1484848470,22.28,0.0,0.0,0.0,-0.30411,-0.26487,9.83943
1489898975,22.28,0.0,0.0,0.0,-0.26487,-0.25506,9.80019
1494949480,22.28,0.0,0.0,0.0,-0.30411,-0.25506,9.82962
1499999985,22.28,0.0,0.0,0.0,-0.30411,-0.25506,9.82962
1505050490,22.28,0.0,0.0,0.0,-0.31392000000000003,-0.25506,9.83943
1510100995,22.28,0.0,0.0,0.0,-0.28449,-0.24525000000000002,9.83943
1515151500,22.28,0.0,0.0,0.0,-0.30411,-0.25506,9.82962
1520202005,22.28,0.0,0.0,0.0,-0.2943,-0.22563,9.84924
1525252510,22.28,0.0,0.0,0.0,-0.28449,-0.24525000000000002,9.819809999999999
1530303015,22.28,0.0,0.0,0.0,-0.2943,-0.24525000000000002,9.81
1535353520,22.28,0.0,0.0,0.0,-0.31392000000000003,-0.26487,9.82962
1540404025,22.28,0.0,0.0,0.0,-0.28449,-0.26487,9.82962
1545454530,22.28,0.0,0.0,0.0,-0.27468000000000004,-0.22563,9.82962
1550505035,22.28,0.0,0.0,0.0,-0.31392000000000003,-0.22563,9.81
1555555540,22.28,0.0,0.0,0.0,-0.31392000000000003,-0.27468000000000004,9.83943
1560606045,22.28,0.0,0.0,0.0,-0.2943,-0.23544,9.82962
1565656550,22.28,0.0,0.0,0.0,-0.28449,-0.24525000000000002,9.819809999999999
1570707055,22.28,0.0,0.0,0.0,-0.2943,-0.26487,9.84924
1575757560,22.28,0.0,0.0,0.0,-0.30411,-0.24525000000000002,9.819809999999999
1580808065,22.28,0.0,0.0,0.0,-0.28449,-0.22563,9.83943
1585858570,22.28,0.0,0.0,0.0,-0.27468000000000004,-0.24525000000000002,9.82962
1590909075,22.28,0.0,0.0,0.0,-0.2943,-0.27468000000000004,9.82962
1595959580,22.28,0.0,0.0,0.0,-0.31392000000000003,-0.23544,9.82962
1601010085,22.28,0.0,0.0,0.0,-0.2943,-0.23544,9.83943
1606060590,22.28,0.0,0.0,0.0,-0.30411,-0.24525000000000002,9.81
1611111095,22.28,0.0,0.0,0.0,-0.2943,-0.25506,9.83943
1616161600,22.28,0.0,0.0,0.0,-0.33354000000000006,-0.26487,9.83943
1621212105,22.28,0.0,0.0,0.0,-0.31392000000000003,-0.25506,9.82962
1626262610,22.28,0.0,0.0,0.0,-0.28449,-0.24525000000000002,9.819809999999999
1631313115,22.28,0.0,0.0,0.0,-0.30411,-0.24525000000000002,9.82962
1636363620,22.28,0.0,0.0,0.0,-0.31392000000000003,-0.24525000000000002,9.84924
1641414125,22.28,0.0,0.0,0.0,-0.31392000000000003,-0.22563,9.83943
1646464630,22.28,0.0,0.0,0.0,-0.28449,-0.23544,9.81
1651515135,22.28,0.0,0.0,0.0,-0.26487,-0.25506,9.819809999999999
1656565640,22.28,0.0,0.0,0.0,-0.30411,-0.25506,9.84924
1661616145,22.28,0.0,0.0,0.0,-0.30411,-0.24525000000000002,9.83943
1666666650,22.28,0.0,0.0,0.0,-0.2943,-0.24525000000000002,9.819809999999999
1671717155,22.28,0.0,0.0,0.0,-0.30411,-0.25506,9.80019
1676767660,22.28,0.0,0.0,0.0,-0.33354000000000006,-0.22563,9.83943
1681818165,22.28,0.0,0.0,0.0,-0.28449,-0.23544,9.83943
1686868670,22.28,0.0,0.0,0.0,-0.28449,-0.25506,9.82962
1691919175,22.28,0.0,0.0,0.0,-0.27468000000000004,-0.26487,9.819809999999999
1696969680,22.28,0.0,0.0,0.0,-0.31392000000000003,-0.26487,9.819809999999999
1702020185,22.28,0.0,0.0,0.0,-0.30411,-0.25506,9.82962
1707070690,22.28,0.0,0.0,0.0,-0.31392000000000003,-0.26487,9.81
1712121195,22.28,0.0,0.0,0.0,-0.30411,-0.26487,9.82962
1717171700,22.28,0.0,0.0,0.0,-0.2943,-0.23544,9.819809999999999
1722222205,22.28,0.0,0.0,0.0,-0.32373,-0.25506,9.82962
1727272710,22.28,0.0,0.0,0.0,-0.2943,-0.26487,9.819809999999999
1732323215,22.28,0.0,0.0,0.0,-0.31392000000000003,-0.24525000000000002,9.82962
1737373720,22.28,0.0,0.0,0.0,-0.31392000000000003,-0.22563,9.83943
1742424225,22.28,0.0,0.0,0.0,-0.32373,-0.24525000000000002,9.819809999999999
1747474730,22.28,0.0,0.0,0.0,-0.2943,-0.27468000000000004,9.819809999999999
1752525235,22.28,0.0,0.0,0.0,-0.30411,-0.26487,9.82962
1757575740,22.28,0.0,0.0,0.0,-0.27468000000000004,-0.22563,9.82962
1762626245,22.28,0.0,0.0,0.0,-0.25506,-0.25506,9.819809999999999
1767676750,22.28,0.0,0.0,0.0,-0.28449,-0.27468000000000004,9.819809999999999
1772727255,22.28,0.0,0.0,0.0,-0.30411,-0.24525000000000002,9.85905
1777777760,22.28,0.0,0.0,0.0,-0.28449,-0.24525000000000002,9.83943
1782828265,22.28,0.0,0.0,0.0,-0.30411,-0.27468000000000004,9.82962
1787878770,22.28,0.0,0.0,0.0,-0.31392000000000003,-0.24525000000000002,9.82962
1792929275,22.28,0.0,0.0,0.0,-0.30411,-0.25506,9.83943
1797979780,22.28,0.0,0.0,0.0,-0.27468000000000004,-0.25506,9.82962
1803030285,22.28,0.0,0.0,0.0,-0.30411,-0.26487,9.81
1808080790,22.28,0.0,0.0,0.0,-0.30411,-0.23544,9.81
1813131295,22.28,0.0,0.0,0.0,-0.27468000000000004,-0.26487,9.83943
1818181800,22.28,0.0,0.0,0.0,-0.27468000000000004,-0.26487,9.85905
1823232305,22.28,0.0,0.0,0.0,-0.30411,-0.24525000000000002,9.819809999999999
1828282810,22.28,0.0,0.0,0.0,-0.30411,-0.25506,9.83943
1833333315,22.28,0.0,0.0,0.0,-0.2943,-0.27468000000000004,9.81
1838383820,22.28,0.0,0.0,0.0,-0.28449,-0.23544,9.83943
1843434325,22.28,0.0,0.0,0.0,-0.31392000000000003,-0.24525000000000002,9.84924
1848484830,22.28,0.0,0.0,0.0,-0.2943,-0.22563,9.819809999999999
1853535335,22.28,0.0,0.0,0.0,-0.31392000000000003,-0.23544,9.819809999999999
1858585840,22.28,0.0,0.0,0.0,-0.31392000000000003,-0.25506,9.819809999999999
1863636345,22.28,0.0,0.0,0.0,-0.28449,-0.24525000000000002,9.82962
1868686850,22.28,0.0,0.0,0.0,-0.30411,-0.25506,9.83943
1873737355,22.28,0.0,0.0,0.0,-0.2943,-0.22563,9.83943
1878787860,22.28,0.0,0.0,0.0,-0.30411,-0.23544,9.82962
1883838365,22.28,0.0,0.0,0.0,-0.2943,-0.24525000000000002,9.819809999999999
1888888870,22.28,0.0,0.0,0.0,-0.32373,-0.24525000000000002,9.85905
1893939375,22.28,0.0,0.0,0.0,-0.30411,-0.23544,9.82962
1898989880,22.28,0.0,0.0,0.0,-0.2943,-0.24525000000000002,9.819809999999999
1904040385,22.28,0.0,0.0,0.0,-0.31392000000000003,-0.27468000000000004,9.819809999999999
1909090890,22.28,0.0,0.0,0.0,-0.31392000000000003,-0.26487,9.83943
1914141395,22.28,0.0,0.0,0.0,-0.27468000000000004,-0.24525000000000002,9.82962
1919191900,22.28,0.0,0.0,0.0,-0.28449,-0.27468000000000004,9.83943
1924242405,22.28,0.0,0.0,0.0,-0.30411,-0.25506,9.81
1929292910,22.28,0.0,0.0,0.0,-0.2943,-0.23544,9.85905
1934343415,22.28,0.0,0.0,0.0,-0.2943,-0.24525000000000002,9.84924
1939393920,22.28,0.0,0.0,0.0,-0.26487,-0.26487,9.81
1944444425,22.28,0.0,0.0,0.0,-0.31392000000000003,-0.25506,9.819809999999999
1949494930,22.28,0.0,0.0,0.0,-0.2943,-0.25506,9.84924
1954545435,22.28,0.0,0.0,0.0,-0.28449,-0.26487,9.83943
1959595940,22.28,0.0,0.0,0.0,-0.30411,-0.27468000000000004,9.82962
1964646445,22.28,0.0,0.0,0.0,-0.34335000000000004,-0.25506,9.83943
1969696950,22.28,0.0,0.0,0.0,-0.28449,-0.28449,9.82962
1974747455,22.28,0.0,0.0,0.0,-0.30411,-0.23544,9.82962
1979797960,22.28,0.0,0.0,0.0,-0.28449,-0.26487,9.84924
1984848465,22.28,0.0,0.0,0.0,-0.31392000000000003,-0.28449,9.82962
1989898970,22.28,0.0,0.0,0.0,-0.28449,-0.22563,9.82962
1994949475,22.28,0.0,0.0,0.0,-0.31392000000000003,-0.22563,9.82962
1999999980,22.28,0.0,0.0,0.0,-0.31392000000000003,-0.26487,9.81
2005050485,22.28,0.0,0.0,0.0,-0.31392000000000003,-0.25506,9.84924
2010100990,22.28,0.0,0.0,0.0,-0.31392000000000003,-0.24525000000000002,9.83943
2015151495,22.28,0.0,0.0,0.0,-0.28449,-0.21582,9.83943
2020202000,22.28,0.0,0.0,0.0,-0.28449,-0.26487,9.81
2025252505,22.28,0.0,0.0,0.0,-0.31392000000000003,-0.27468000000000004,9.85905
2030303010,22.28,0.0,0.0,0.0,-0.2943,-0.22563,9.82962
2035353515,22.28,0.0,0.0,0.0,-0.28449,-0.24525000000000002,9.83943
2040404020,22.28,0.0,0.0,0.0,-0.32373,-0.23544,9.819809999999999
2045454525,22.28,0.0,0.0,0.0,-0.28449,-0.25506,9.82962
2050505030,22.28,0.0,0.0,0.0,-0.2943,-0.23544,9.83943
2055555535,22.28,0.0,0.0,0.0,-0.2943,-0.25506,9.82962
2060606040,22.28,0.0,0.0,0.0,-0.30411,-0.25506,9.83943
2065656545,22.28,0.0,0.0,0.0,-0.30411,-0.22563,9.82962
2070707050,22.28,0.0,0.0,0.0,-0.27468000000000004,-0.26487,9.83943
2075757555,22.28,0.0,0.0,0.0,-0.30411,-0.24525000000000002,9.82962
2080808060,22.28,0.0,0.0,0.0,-0.28449,-0.24525000000000002,9.82962
2085858565,22.28,0.0,0.0,0.0,-0.2943,-0.26487,9.81
2090909070,22.28,0.0,0.0,0.0,-0.33354000000000006,-0.26487,9.819809999999999
2095959575,22.28,0.0,0.0,0.0,-0.31392000000000003,-0.23544,9.819809999999999
2101010080,22.28,0.0,0.0,0.0,-0.30411,-0.23544,9.82962
2106060585,22.28,0.0,0.0,0.0,-0.30411,-0.2943,9.82962
2111111090,22.28,0.0,0.0,0.0,-0.33354000000000006,-0.23544,9.83943
2116161595,22.28,0.0,0.0,0.0,-0.28449,-0.24525000000000002,9.83943
2121212100,22.28,0.0,0.0,0.0,-0.2943,-0.25506,9.81
2126262605,22.28,0.0,0.0,0.0,-0.2943,-0.28449,9.82962
2131313110,22.28,0.0,0.0,0.0,-0.31392000000000003,-0.24525000000000002,9.81
2136363615,22.28,0.0,0.0,0.0,-0.2943,-0.25506,9.84924
2141414120,22.28,0.0,0.0,0.0,-0.2943,-0.25506,9.819809999999999
2146464625,22.28,0.0,0.0,0.0,-0.31392000000000003,-0.26487,9.819809999999999
2151515130,22.28,0.0,0.0,0.0,-0.30411,-0.23544,9.83943
2156565635,22.28,0.0,0.0,0.0,-0.28449,-0.24525000000000002,9.82962
2161616140,22.28,0.0,0.0,0.0,-0.2943,-0.23544,9.81
2166666645,22.28,0.0,0.0,0.0,-0.31392000000000003,-0.26487,9.819809999999999
2171717150,22.28,0.0,0.0,0.0,-0.2943,-0.25506,9.84924
2176767655,22.28,0.0,0.0,0.0,-0.26487,-0.23544,9.82962
2181818160,22.28,0.0,0.0,0.0,-0.32373,-0.24525000000000002,9.83943
2186868665,22.28,0.0,0.0,0.0,-0.28449,-0.24525000000000002,9.82962
2191919170,22.28,0.0,0.0,0.0,-0.30411,-0.25506,9.819809999999999
2196969675,22.28,0.0,0.0,0.0,-0.31392000000000003,-0.23544,9.82962
2202020180,22.28,0.0,0.0,0.0,-0.31392000000000003,-0.25506,9.82962
2207070685,22.28,0.0,0.0,0.0,-0.31392000000000003,-0.27468000000000004,9.82962
2212121190,22.28,0.0,0.0,0.0,-0.30411,-0.21582,9.819809999999999
2217171695,22.28,0.0,0.0,0.0,-0.30411,-0.26487,9.819809999999999
2222222200,22.28,0.0,0.0,0.0,-0.28449,-0.24525000000000002,9.83943
2227272705,22.28,0.0,0.0,0.0,-0.2943,-0.25506,9.84924
2232323210,22.28,0.0,0.0,0.0,-0.2943,-0.22563,9.82962
2237373715,22.28,0.0,0.0,0.0,-0.28449,-0.27468000000000004,9.83943
2242424220,22.28,0.0,0.0,0.0,-0.30411,-0.25506,9.82962
2247474725,22.28,0.0,0.0,0.0,-0.27468000000000004,-0.24525000000000002,9.84924
2252525230,22.28,0.0,0.0,0.0,-0.31392000000000003,-0.26487,9.83943
2257575735,22.28,0.0,0.0,0.0,-0.2943,-0.27468000000000004,9.83943
2262626240,22.28,0.0,0.0,0.0,-0.28449,-0.26487,9.82962
2267676745,22.28,0.0,0.0,0.0,-0.31392000000000003,-0.23544,9.84924
2272727250,22.28,0.0,0.0,0.0,-0.30411,-0.23544,9.82962
2277777755,22.28,0.0,0.0,0.0,-0.31392000000000003,-0.25506,9.819809999999999
2282828260,22.28,0.0,0.0,0.0,-0.2943,-0.24525000000000002,9.83943
2287878765,22.28,0.0,0.0,0.0,-0.2943,-0.27468000000000004,9.84924
2292929270,22.28,0.0,0.0,0.0,-0.2943,-0.25506,9.83943
2297979775,22.28,0.0,0.0,0.0,-0.31392000000000003,-0.25506,9.82962
2303030280,22.28,0.0,0.0,0.0,-0.2943,-0.24525000000000002,9.82962
2308080785,22.28,0.0,0.0,0.0,-0.31392000000000003,-0.26487,9.82962
2313131290,22.28,0.0,0.0,0.0,-0.2943,-0.24525000000000002,9.819809999999999
2318181795,22.28,0.0,0.0,0.0,-0.30411,-0.24525000000000002,9.82962
2323232300,22.28,0.0,0.0,0.0,-0.2943,-0.25506,9.82962
2328282805,22.28,0.0,0.0,0.0,-0.30411,-0.23544,9.819809999999999
2333333310,22.28,0.0,0.0,0.0,-0.2943,-0.25506,9.82962
2338383815,22.28,0.0,0.0,0.0,-0.28449,-0.25506,9.85905
2343434320,22.28,0.0,0.0,0.0,-0.31392000000000003,-0.28449,9.83943
2348484825,22.28,0.0,0.0,0.0,-0.30411,-0.23544,9.82962
2353535330,22.28,0.0,0.0,0.0,-0.2943,-0.23544,9.819809999999999
2358585835,22.28,0.0,0.0,0.0,-0.30411,-0.26487,9.83943
2363636340,22.28,0.0,0.0,0.0,-0.34335000000000004,-0.22563,9.86886
2368686845,22.28,0.0,0.0,0.0,-0.28449,-0.25506,9.84924
2373737350,22.28,0.0,0.0,0.0,-0.28449,-0.23544,9.82962
2378787855,22.28,0.0,0.0,0.0,-0.30411,-0.26487,9.819809999999999
2383838360,22.28,0.0,0.0,0.0,-0.30411,-0.25506,9.82962
2388888865,22.28,0.0,0.0,0.0,-0.27468000000000004,-0.21582,9.819809999999999
2393939370,22.28,0.0,0.0,0.0,-0.31392000000000003,-0.25506,9.81
2398989875,22.28,0.0,0.0,0.0,-0.30411,-0.25506,9.81
2404040380,22.28,0.0,0.0,0.0,-0.31392000000000003,-0.26487,9.82962
2409090885,22.28,0.0,0.0,0.0,-0.2943,-0.24525000000000002,9.83943
2414141390,22.28,0.0,0.0,0.0,-0.28449,-0.25506,9.81
2419191895,22.28,0.0,0.0,0.0,-0.31392000000000003,-0.23544,9.82962
2424242400,22.28,0.0,0.0,0.0,-0.2943,-0.22563,9.84924
2429292905,22.28,0.0,0.0,0.0,-0.28449,-0.23544,9.82962
2434343410,22.28,0.0,0.0,0.0,-0.2943,-0.24525000000000002,9.819809999999999
2439393915,22.28,0.0,0.0,0.0,-0.2943,-0.27468000000000004,9.83943
2444444420,22.28,0.0,0.0,0.0,-0.30411,-0.24525000000000002,9.85905
2449494925,22.28,0.0,0.0,0.0,-0.30411,-0.24525000000000002,9.83943
2454545430,22.28,0.0,0.0,0.0,-0.2943,-0.26487,9.81
2459595935,22.28,0.0,0.0,0.0,-0.31392000000000003,-0.26487,9.83943
2464646440,22.28,0.0,0.0,0.0,-0.31392000000000003,-0.23544,9.83943
2469696945,22.28,0.0,0.0,0.0,-0.30411,-0.23544,9.819809999999999
2474747450,22.28,0.0,0.0,0.0,-0.30411,-0.26487,9.81
2479797955,22.28,0.0,0.0,0.0,-0.30411,-0.24525000000000002,9.83943
2484848460,22.28,0.0,0.0,0.0,-0.32373,-0.22563,9.81
2489898965,22.28,0.0,0.0,0.0,-0.28449,-0.22563,9.82962
2494949470,22.28,0.0,0.0,0.0,-0.2943,-0.27468000000000004,9.81
2499999975,22.28,0.0,0.0,0.0,-0.28449,-0.26487,9.81
2505050480,22.28,0.0,0.0,0.0,-0.30411,-0.24525000000000002,9.82962
2510100985,22.28,0.0,0.0,0.0,-0.30411,-0.26487,9.819809999999999
2515151490,22.28,0.0,0.0,0.0,-0.28449,-0.25506,9.819809999999999
2520201995,22.28,0.0,0.0,0.0,-0.31392000000000003,-0.26487,9.80019
2525252500,22.28,0.0,0.0,0.0,-0.2943,-0.21582,9.85905
2530303005,22.28,0.0,0.0,0.0,-0.31392000000000003,-0.24525000000000002,9.82962
2535353510,22.28,0.0,0.0,0.0,-0.30411,-0.27468000000000004,9.819809999999999
2540404015,22.28,0.0,0.0,0.0,-0.31392000000000003,-0.22563,9.83943
2545454520,22.28,0.0,0.0,0.0,-0.27468000000000004,-0.24525000000000002,9.83943
2550505025,22.28,0.0,0.0,0.0,-0.2943,-0.26487,9.819809999999999
2555555530,22.28,0.0,0.0,0.0,-0.30411,-0.23544,9.84924
2560606035,22.28,0.0,0.0,0.0,-0.30411,-0.25506,9.83943
2565656540,22.28,0.0,0.0,0.0,-0.30411,-0.24525000000000002,9.85905
2570707045,22.28,0.0,0.0,0.0,-0.2943,-0.24525000000000002,9.819809999999999
2575757550,22.28,0.0,0.0,0.0,-0.31392000000000003,-0.25506,9.82962
2580808055,22.28,0.0,0.0,0.0,-0.32373,-0.26487,9.819809999999999
2585858560,22.28,0.0,0.0,0.0,-0.31392000000000003,-0.22563,9.82962
2590909065,22.28,0.0,0.0,0.0,-0.30411,-0.22563,9.83943
2595959570,22.28,0.0,0.0,0.0,-0.2943,-0.25506,9.82962
2601010075,22.28,0.0,0.0,0.0,-0.31392000000000003,-0.25506,9.83943
2606060580,22.28,0.0,0.0,0.0,-0.28449,-0.23544,9.81
2611111085,22.28,0.0,0.0,0.0,-0.28449,-0.25506,9.82962
2616161590,22.28,0.0,0.0,0.0,-0.30411,-0.24525000000000002,9.819809999999999
2621212095,22.28,0.0,0.0,0.0,-0.31392000000000003,-0.25506,9.82962
2626262600,22.28,0.0,0.0,0.0,-0.31392000000000003,-0.23544,9.82962
2631313105,22.28,0.0,0.0,0.0,-0.31392000000000003,-0.25506,9.82962
2636363610,22.28,0.0,0.0,0.0,-0.30411,-0.25506,9.83943
2641414115,22.28,0.0,0.0,0.0,-0.30411,-0.25506,9.82962
2646464620,22.28,0.0,0.0,0.0,-0.30411,-0.24525000000000002,9.819809999999999
2651515125,22.28,0.0,0.0,0.0,-0.31392000000000003,-0.26487,9.819809999999999
2656565630,22.28,0.0,0.0,0.0,-0.27468000000000004,-0.22563,9.83943
2661616135,22.28,0.0,0.0,0.0,-0.28449,-0.25506,9.84924
2666666640,22.28,0.0,0.0,0.0,-0.30411,-0.27468000000000004,9.81
2671717145,22.28,0.0,0.0,0.0,-0.32373,-0.23544,9.83943
2676767650,22.28,0.0,0.0,0.0,-0.31392000000000003,-0.23544,9.84924
2681818155,22.28,0.0,0.0,0.0,-0.27468000000000004,-0.25506,9.82962
2686868660,22.28,0.0,0.0,0.0,-0.30411,-0.25506,9.819809999999999
2691919165,22.28,0.0,0.0,0.0,-0.30411,-0.25506,9.819809999999999
2696969670,22.28,0.0,0.0,0.0,-0.28449,-0.25506,9.81
2702020175,22.28,0.0,0.0,0.0,-0.31392000000000003,-0.25506,9.80019
2707070680,22.28,0.0,0.0,0.0,-0.30411,-0.24525000000000002,9.819809999999999
2712121185,22.28,0.0,0.0,0.0,-0.2943,-0.24525000000000002,9.81
2717171690,22.28,0.0,0.0,0.0,-0.31392000000000003,-0.25506,9.82962
2722222195,22.28,0.0,0.0,0.0,-0.31392000000000003,-0.23544,9.83943
2727272700,22.28,0.0,0.0,0.0,-0.27468000000000004,-0.26487,9.84924
2732323205,22.28,0.0,0.0,0.0,-0.31392000000000003,-0.27468000000000004,9.81
2737373710,22.28,0.0,0.0,0.0,-0.2943,-0.24525000000000002,9.83943
2742424215,22.28,0.0,0.0,0.0,-0.28449,-0.24525000000000002,9.819809999999999
2747474720,22.28,0.0,0.0,0.0,-0.2943,-0.24525000000000002,9.81
2752525225,22.28,0.0,0.0,0.0,-0.30411,-0.25506,9.84924
2757575730,22.28,0.0,0.0,0.0,-0.31392000000000003,-0.22563,9.81
2762626235,22.28,0.0,0.0,0.0,-0.32373,-0.22563,9.819809999999999
2767676740,22.28,0.0,0.0,0.0,-0.28449,-0.24525000000000002,9.83943
2772727245,22.28,0.0,0.0,0.0,-0.31392000000000003,-0.25506,9.82962
2777777750,22.28,0.0,0.0,0.0,-0.2943,-0.27468000000000004,9.83943
2782828255,22.28,0.0,0.0,0.0,-0.31392000000000003,-0.26487,9.82962
2787878760,22.28,0.0,0.0,0.0,-0.2943,-0.25506,9.819809999999999
2792929265,22.28,0.0,0.0,0.0,-0.33354000000000006,-0.22563,9.819809999999999
2797979770,22.28,0.0,0.0,0.0,-0.31392000000000003,-0.24525000000000002,9.81
2803030275,22.28,0.0,0.0,0.0,-0.2943,-0.26487,9.83943
2808080780,22.28,0.0,0.0,0.0,-0.2943,-0.24525000000000002,9.82962
2813131285,22.28,0.0,0.0,0.0,-0.31392000000000003,-0.26487,9.82962
2818181790,22.28,0.0,0.0,0.0,-0.2943,-0.23544,9.82962
2823232295,22.28,0.0,0.0,0.0,-0.27468000000000004,-0.24525000000000002,9.82962
2828282800,22.28,0.0,0.0,0.0,-0.2943,-0.22563,9.819809999999999
2833333305,22.28,0.0,0.0,0.0,-0.30411,-0.26487,9.83943
2838383810,22.28,0.0,0.0,0.0,-0.28449,-0.24525000000000002,9.82962
2843434315,22.28,0.0,0.0,0.0,-0.30411,-0.23544,9.81
2848484820,22.28,0.0,0.0,0.0,-0.30411,-0.26487,9.819809999999999
2853535325,22.28,0.0,0.0,0.0,-0.2943,-0.22563,9.85905
2858585830,22.28,0.0,0.0,0.0,-0.2943,-0.25506,9.82962
2863636335,22.28,0.0,0.0,0.0,-0.30411,-0.26487,9.82962
2868686840,22.28,0.0,0.0,0.0,-0.2943,-0.25506,9.84924
2873737345,22.28,0.0,0.0,0.0,-0.2943,-0.25506,9.86886
2878787850,22.28,0.0,0.0,0.0,-0.2943,-0.23544,9.819809999999999
2883838355,22.28,0.0,0.0,0.0,-0.30411,-0.25506,9.80019
2888888860,22.28,0.0,0.0,0.0,-0.30411,-0.25506,9.83943
2893939365,22.28,0.0,0.0,0.0,-0.30411,-0.24525000000000002,9.83943
2898989870,22.28,0.0,0.0,0.0,-0.2943,-0.25506,9.819809999999999
2904040375,22.28,0.0,0.0,0.0,-0.31392000000000003,-0.25506,9.83943
2909090880,22.28,0.0,0.0,0.0,-0.31392000000000003,-0.25506,9.83943
2914141385,22.28,0.0,0.0,0.0,-0.2943,-0.23544,9.81
2919191890,22.28,0.0,0.0,0.0,-0.2943,-0.28449,9.819809999999999
2924242395,22.28,0.0,0.0,0.0,-0.2943,-0.23544,9.81
2929292900,22.28,0.0,0.0,0.0,-0.31392000000000003,-0.26487,9.83943
2934343405,22.28,0.0,0.0,0.0,-0.2943,-0.26487,9.819809999999999
2939393910,22.28,0.0,0.0,0.0,-0.31392000000000003,-0.25506,9.81
2944444415,22.28,0.0,0.0,0.0,-0.27468000000000004,-0.26487,9.82962
2949494920,22.28,0.0,0.0,0.0,-0.32373,-0.25506,9.819809999999999
2954545425,22.28,0.0,0.0,0.0,-0.2943,-0.24525000000000002,9.83943
2959595930,22.28,0.0,0.0,0.0,-0.2943,-0.24525000000000002,9.819809999999999
2964646435,22.28,0.0,0.0,0.0,-0.28449,-0.26487,9.819809999999999
2969696940,22.28,0.0,0.0,0.0,-0.31392000000000003,-0.25506,9.81
2974747445,22.28,0.0,0.0,0.0,-0.30411,-0.22563,9.83943
2979797950,22.28,0.0,0.0,0.0,-0.31392000000000003,-0.24525000000000002,9.819809999999999
2984848455,22.28,0.0,0.0,0.0,-0.30411,-0.26487,9.819809999999999
2989898960,22.28,0.0,0.0,0.0,-0.2943,-0.24525000000000002,9.84924
2994949465,22.28,0.0,0.0,0.0,-0.2943,-0.24525000000000002,9.87867
2999999970,22.28,0.0,0.0,0.0,-0.27468000000000004,-0.24525000000000002,9.819809999999999
3005050475,22.28,0.0,0.0,0.0,-0.2943,-0.24525000000000002,9.82962
3010100980,22.28,0.0,0.0,0.0,-0.30411,-0.26487,9.819809999999999
3015151485,22.28,0.0,0.0,0.0,-0.2943,-0.26487,9.82962
3020201990,22.28,0.0,0.0,0.0,-0.2943,-0.25506,9.82962
3025252495,22.28,0.0,0.0,0.0,-0.28449,-0.23544,9.84924
3030303000,22.28,0.0,0.0,0.0,-0.2943,-0.25506,9.82962
3035353505,22.28,0.0,0.0,0.0,-0.30411,-0.25506,9.83943
3040404010,22.28,0.0,0.0,0.0,-0.32373,-0.26487,9.84924
3045454515,22.28,0.0,0.0,0.0,-0.2943,-0.23544,9.81
3050505020,22.28,0.0,0.0,0.0,-0.2943,-0.24525000000000002,9.83943
3055555525,22.28,0.0,0.0,0.0,-0.30411,-0.24525000000000002,9.83943
3060606030,22.28,0.0,0.0,0.0,-0.2943,-0.23544,9.81
3065656535,22.28,0.0,0.0,0.0,-0.31392000000000003,-0.27468000000000004,9.819809999999999
3070707040,22.28,0.0,0.0,0.0,-0.28449,-0.22563,9.83943
3075757545,22.28,0.0,0.0,0.0,-0.2943,-0.24525000000000002,9.82962
3080808050,22.28,0.0,0.0,0.0,-0.30411,-0.23544,9.819809999999999
3085858555,22.28,0.0,0.0,0.0,-0.33354000000000006,-0.27468000000000004,9.83943
3090909060,22.28,0.0,0.0,0.0,-0.28449,-0.22563,9.82962
3095959565,22.28,0.0,0.0,0.0,-0.31392000000000003,-0.25506,9.819809999999999
3101010070,22.28,0.0,0.0,0.0,-0.2943,-0.24525000000000002,9.83943
3106060575,22.28,0.0,0.0,0.0,-0.28449,-0.23544,9.83943
3111111080,22.28,0.0,0.0,0.0,-0.2943,-0.25506,9.84924
3116161585,22.28,0.0,0.0,0.0,-0.28449,-0.26487,9.82962
3121212090,22.28,0.0,0.0,0.0,-0.30411,-0.23544,9.84924
3126262595,22.28,0.0,0.0,0.0,-0.31392000000000003,-0.22563,9.83943
3131313100,22.28,0.0,0.0,0.0,-0.30411,-0.25506,9.83943
3136363605,22.28,0.0,0.0,0.0,-0.30411,-0.25506,9.82962
3141414110,22.28,0.0,0.0,0.0,-0.2943,-0.24525000000000002,9.85905
3146464615,22.28,0.0,0.0,0.0,-0.28449,-0.25506,9.82962
3151515120,22.28,0.0,0.0,0.0,-0.30411,-0.26487,9.819809999999999
3156565625,22.28,0.0,0.0,0.0,-0.32373,-0.20601000000000003,9.84924
3161616130,22.28,0.0,0.0,0.0,-0.32373,-0.25506,9.83943
3166666635,22.28,0.0,0.0,0.0,-0.30411,-0.24525000000000002,9.84924
3171717140,22.28,0.0,0.0,0.0,-0.31392000000000003,-0.25506,9.819809999999999
3176767645,22.28,0.0,0.0,0.0,-0.2943,-0.24525000000000002,9.84924
3181818150,22.28,0.0,0.0,0.0,-0.26487,-0.28449,9.82962
3186868655,22.28,0.0,0.0,0.0,-0.30411,-0.24525000000000002,9.819809999999999
3191919160,22.28,0.0,0.0,0.0,-0.30411,-0.24525000000000002,9.819809999999999
3196969665,22.28,0.0,0.0,0.0,-0.28449,-0.24525000000000002,9.84924
3202020170,22.28,0.0,0.0,0.0,-0.30411,-0.24525000000000002,9.81
3207070675,22.28,0.0,0.0,0.0,-0.31392000000000003,-0.22563,9.81
3212121180,22.28,0.0,0.0,0.0,-0.28449,-0.24525000000000002,9.82962
3217171685,22.28,0.0,0.0,0.0,-0.30411,-0.22563,9.84924
3222222190,22.28,0.0,0.0,0.0,-0.2943,-0.24525000000000002,9.83943
3227272695,22.28,0.0,0.0,0.0,-0.32373,-0.24525000000000002,9.83943
3232323200,22.28,0.0,0.0,0.0,-0.30411,-0.23544,9.84924
3237373705,22.28,0.0,0.0,0.0,-0.30411,-0.21582,9.82962
3242424210,22.28,0.0,0.0,0.0,-0.28449,-0.23544,9.81
3247474715,22.28,0.0,0.0,0.0,-0.30411,-0.23544,9.81
3252525220,22.28,0.0,0.0,0.0,-0.30411,-0.26487,9.83943
3257575725,22.28,0.0,0.0,0.0,-0.30411,-0.25506,9.81
3262626230,22.28,0.0,0.0,0.0,-0.30411,-0.27468000000000004,9.82962
3267676735,22.28,0.0,0.0,0.0,-0.26487,-0.28449,9.82962
3272727240,22.28,0.0,0.0,0.0,-0.32373,-0.25506,9.84924
3277777745,22.28,0.0,0.0,0.0,-0.28449,-0.24525000000000002,9.82962
3282828250,22.28,0.0,0.0,0.0,-0.32373,-0.25506,9.81
3287878755,22.28,0.0,0.0,0.0,-0.30411,-0.24525000000000002,9.82962
3292929260,22.28,0.0,0.0,0.0,-0.30411,-0.23544,9.82962
3297979765,22.28,0.0,0.0,0.0,-0.28449,-0.24525000000000002,9.819809999999999
3303030270,22.28,0.0,0.0,0.0,-0.2943,-0.23544,9.819809999999999
3308080775,22.28,0.0,0.0,0.0,-0.30411,-0.23544,9.84924
3313131280,22.28,0.0,0.0,0.0,-0.30411,-0.26487,9.819809999999999
3318181785,22.28,0.0,0.0,0.0,-0.28449,-0.24525000000000002,9.81
3323232290,22.28,0.0,0.0,0.0,-0.28449,-0.24525000000000002,9.82962
3328282795,22.28,0.0,0.0,0.0,-0.30411,-0.25506,9.82962
3333333300,22.28,0.0,0.0,0.0,-0.30411,-0.22563,9.85905
3338383805,22.28,0.0,0.0,0.0,-0.2943,-0.27468000000000004,9.80019
3343434310,22.28,0.0,0.0,0.0,-0.30411,-0.27468000000000004,9.84924
3348484815,22.28,0.0,0.0,0.0,-0.27468000000000004,-0.24525000000000002,9.83943
3353535320,22.28,0.0,0.0,0.0,-0.31392000000000003,-0.24525000000000002,9.81
3358585825,22.28,0.0,0.0,0.0,-0.28449,-0.23544,9.81
3363636330,22.28,0.0,0.0,0.0,-0.31392000000000003,-0.25506,9.81
3368686835,22.28,0.0,0.0,0.0,-0.31392000000000003,-0.25506,9.85905
3373737340,22.28,0.0,0.0,0.0,-0.2943,-0.25506,9.84924
3378787845,22.28,0.0,0.0,0.0,-0.27468000000000004,-0.24525000000000002,9.84924
3383838350,22.28,0.0,0.0,0.0,-0.27468000000000004,-0.25506,9.819809999999999
3388888855,22.28,0.0,0.0,0.0,-0.31392000000000003,-0.26487,9.83943
3393939360,22.28,0.0,0.0,0.0,-0.28449,-0.20601000000000003,9.83943
3398989865,22.28,0.0,0.0,0.0,-0.31392000000000003,-0.25506,9.81
3404040370,22.28,0.0,0.0,0.0,-0.2943,-0.26487,9.83943
3409090875,22.28,0.0,0.0,0.0,-0.31392000000000003,-0.25506,9.84924
3414141380,22.28,0.0,0.0,0.0,-0.31392000000000003,-0.22563,9.83943
3419191885,22.28,0.0,0.0,0.0,-0.33354000000000006,-0.26487,9.81
3424242390,22.28,0.0,0.0,0.0,-0.32373,-0.24525000000000002,9.819809999999999
3429292895,22.28,0.0,0.0,0.0,-0.2943,-0.24525000000000002,9.819809999999999
3434343400,22.28,0.0,0.0,0.0,-0.25506,-0.23544,9.84924
3439393905,22.28,0.0,0.0,0.0,-0.2943,-0.26487,9.81
3444444410,22.28,0.0,0.0,0.0,-0.30411,-0.25506,9.83943
3449494915,22.28,0.0,0.0,0.0,-0.2943,-0.24525000000000002,9.83943
3454545420,22.28,0.0,0.0,0.0,-0.2943,-0.25506,9.82962
3459595925,22.28,0.0,0.0,0.0,-0.31392000000000003,-0.24525000000000002,9.81
3464646430,22.28,0.0,0.0,0.0,-0.31392000000000003,-0.26487,9.83943
3469696935,22.28,0.0,0.0,0.0,-0.31392000000000003,-0.28449,9.84924
3474747440,22.28,0.0,0.0,0.0,-0.26487,-0.26487,9.81
3479797945,22.28,0.0,0.0,0.0,-0.27468000000000004,-0.27468000000000004,9.819809999999999
3484848450,22.28,0.0,0.0,0.0,-0.2943,-0.27468000000000004,9.819809999999999
3489898955,22.28,0.0,0.0,0.0,-0.32373,-0.24525000000000002,9.81
3494949460,22.28,0.0,0.0,0.0,-0.28449,-0.27468000000000004,9.819809999999999
3499999965,22.28,0.0,0.0,0.0,-0.30411,-0.25506,9.82962
3505050470,22.28,0.0,0.0,0.0,-0.31392000000000003,-0.26487,9.84924
3510100975,22.28,0.0,0.0,0.0,-0.30411,-0.22563,9.82962
3515151480,22.28,0.0,0.0,0.0,-0.2943,-0.21582,9.79038
3520201985,22.28,0.0,0.0,0.0,-0.2943,-0.25506,9.84924
3525252490,22.28,0.0,0.0,0.0,-0.2943,-0.23544,9.83943
3530302995,22.28,0.0,0.0,0.0,-0.30411,-0.22563,9.82962
3535353500,22.28,0.0,0.0,0.0,-0.30411,-0.25506,9.81
3540404005,22.28,0.0,0.0,0.0,-0.32373,-0.22563,9.819809999999999
3545454510,22.28,0.0,0.0,0.0,-0.30411,-0.24525000000000002,9.819809999999999
3550505015,22.28,0.0,0.0,0.0,-0.25506,-0.23544,9.82962
3555555520,22.28,0.0,0.0,0.0,-0.31392000000000003,-0.25506,9.82962
3560606025,22.28,0.0,0.0,0.0,-0.30411,-0.23544,9.83943
3565656530,22.28,0.0,0.0,0.0,-0.30411,-0.23544,9.82962
3570707035,22.28,0.0,0.0,0.0,-0.2943,-0.26487,9.819809999999999
3575757540,22.28,0.0,0.0,0.0,-0.2943,-0.23544,9.81
3580808045,22.28,0.0,0.0,0.0,-0.30411,-0.23544,9.82962
3585858550,22.28,0.0,0.0,0.0,-0.2943,-0.25506,9.84924
3590909055,22.28,0.0,0.0,0.0,-0.31392000000000003,-0.24525000000000002,9.819809999999999
3595959560,22.28,0.0,0.0,0.0,-0.30411,-0.27468000000000004,9.82962
3601010065,22.28,0.0,0.0,0.0,-0.28449,-0.26487,9.83943
3606060570,22.28,0.0,0.0,0.0,-0.30411,-0.22563,9.83943
3611111075,22.28,0.0,0.0,0.0,-0.2943,-0.23544,9.819809999999999
3616161580,22.28,0.0,0.0,0.0,-0.32373,-0.24525000000000002,9.82962
3621212085,22.28,0.0,0.0,0.0,-0.31392000000000003,-0.22563,9.82962
3626262590,22.28,0.0,0.0,0.0,-0.30411,-0.24525000000000002,9.84924
3631313095,22.28,0.0,0.0,0.0,-0.31392000000000003,-0.22563,9.83943
3636363600,22.28,0.0,0.0,0.0,-0.27468000000000004,-0.27468000000000004,9.819809999999999
3641414105,22.28,0.0,0.0,0.0,-0.30411,-0.24525000000000002,9.83943
3646464610,22.28,0.0,0.0,0.0,-0.30411,-0.22563,9.83943
3651515115,22.28,0.0,0.0,0.0,-0.27468000000000004,-0.23544,9.82962
3656565620,22.28,0.0,0.0,0.0,-0.31392000000000003,-0.25506,9.82962
3661616125,22.28,0.0,0.0,0.0,-0.31392000000000003,-0.25506,9.86886
3666666630,22.28,0.0,0.0,0.0,-0.28449,-0.22563,9.819809999999999
3671717135,22.28,0.0,0.0,0.0,-0.28449,-0.26487,9.81
3676767640,22.28,0.0,0.0,0.0,-0.31392000000000003,-0.25506,9.82962
3681818145,22.28,0.0,0.0,0.0,-0.30411,-0.20601000000000003,9.83943
3686868650,22.28,0.0,0.0,0.0,-0.2943,-0.26487,9.819809999999999
3691919155,22.28,0.0,0.0,0.0,-0.30411,-0.27468000000000004,9.82962
3696969660,22.28,0.0,0.0,0.0,-0.32373,-0.25506,9.82962
3702020165,22.28,0.0,0.0,0.0,-0.28449,-0.25506,9.83943
3707070670,22.28,0.0,0.0,0.0,-0.26487,-0.27468000000000004,9.83943
3712121175,22.28,0.0,0.0,0.0,-0.28449,-0.26487,9.84924
3717171680,22.28,0.0,0.0,0.0,-0.30411,-0.24525000000000002,9.83943
3722222185,22.28,0.0,0.0,0.0,-0.28449,-0.24525000000000002,9.819809999999999
3727272690,22.28,0.0,0.0,0.0,-0.30411,-0.25506,9.81
3732323195,22.28,0.0,0.0,0.0,-0.32373,-0.23544,9.81
3737373700,22.28,0.0,0.0,0.0,-0.30411,-0.26487,9.819809999999999
3742424205,22.28,0.0,0.0,0.0,-0.27468000000000004,-0.25506,9.85905
3747474710,22.28,0.0,0.0,0.0,-0.30411,-0.24525000000000002,9.84924
3752525215,22.28,0.0,0.0,0.0,-0.28449,-0.25506,9.819809999999999
3757575720,22.28,0.0,0.0,0.0,-0.2943,-0.25506,9.84924
3762626225,22.28,0.0,0.0,0.0,-0.30411,-0.24525000000000002,9.83943
3767676730,22.28,0.0,0.0,0.0,-0.2943,-0.21582,9.819809999999999
3772727235,22.28,0.0,0.0,0.0,-0.30411,-0.26487,9.85905
3777777740,22.28,0.0,0.0,0.0,-0.28449,-0.22563,9.83943
3782828245,22.28,0.0,0.0,0.0,-0.28449,-0.21582,9.82962
3787878750,22.28,0.0,0.0,0.0,-0.2943,-0.26487,9.81
3792929255,22.28,0.0,0.0,0.0,-0.30411,-0.26487,9.82962
3797979760,22.28,0.0,0.0,0.0,-0.33354000000000006,-0.25506,9.83943
3803030265,22.28,0.0,0.0,0.0,-0.28449,-0.23544,9.83943
3808080770,22.28,0.0,0.0,0.0,-0.30411,-0.26487,9.83943
3813131275,22.28,0.0,0.0,0.0,-0.2943,-0.24525000000000002,9.819809999999999
3818181780,22.28,0.0,0.0,0.0,-0.30411,-0.25506,9.81
3823232285,22.28,0.0,0.0,0.0,-0.32373,-0.24525000000000002,9.819809999999999
3828282790,22.28,0.0,0.0,0.0,-0.2943,-0.24525000000000002,9.82962
3833333295,22.28,0.0,0.0,0.0,-0.30411,-0.23544,9.819809999999999
3838383800,22.28,0.0,0.0,0.0,-0.28449,-0.26487,9.82962
3843434305,22.28,0.0,0.0,0.0,-0.2943,-0.25506,9.83943
3848484810,22.28,0.0,0.0,0.0,-0.30411,-0.24525000000000002,9.83943
3853535315,22.28,0.0,0.0,0.0,-0.27468000000000004,-0.23544,9.819809999999999
3858585820,22.28,0.0,0.0,0.0,-0.30411,-0.22563,9.82962
3863636325,22.28,0.0,0.0,0.0,-0.28449,-0.24525000000000002,9.82962
3868686830,22.28,0.0,0.0,0.0,-0.2943,-0.22563,9.819809999999999
3873737335,22.28,0.0,0.0,0.0,-0.31392000000000003,-0.24525000000000002,9.83943
3878787840,22.28,0.0,0.0,0.0,-0.30411,-0.24525000000000002,9.81
3883838345,22.28,0.0,0.0,0.0,-0.30411,-0.22563,9.83943
3888888850,22.28,0.0,0.0,0.0,-0.27468000000000004,-0.23544,9.82962
3893939355,22.28,0.0,0.0,0.0,-0.2943,-0.24525000000000002,9.81
3898989860,22.28,0.0,0.0,0.0,-0.30411,-0.26487,9.84924
3904040365,22.28,0.0,0.0,0.0,-0.31392000000000003,-0.25506,9.84924
3909090870,22.28,0.0,0.0,0.0,-0.31392000000000003,-0.21582,9.819809999999999
3914141375,22.28,0.0,0.0,0.0,-0.28449,-0.24525000000000002,9.819809999999999
3919191880,22.28,0.0,0.0,0.0,-0.28449,-0.22563,9.819809999999999
3924242385,22.28,0.0,0.0,0.0,-0.32373,-0.27468000000000004,9.83943
3929292890,22.28,0.0,0.0,0.0,-0.28449,-0.26487,9.82962
3934343395,22.28,0.0,0.0,0.0,-0.28449,-0.24525000000000002,9.82962
3939393900,22.28,0.0,0.0,0.0,-0.2943,-0.26487,9.82962
3944444405,22.28,0.0,0.0,0.0,-0.28449,-0.24525000000000002,9.83943
3949494910,22.28,0.0,0.0,0.0,-0.30411,-0.22563,9.82962
3954545415,22.28,0.0,0.0,0.0,-0.30411,-0.22563,9.82962
3959595920,22.28,0.0,0.0,0.0,-0.30411,-0.24525000000000002,9.83943
3964646425,22.28,0.0,0.0,0.0,-0.31392000000000003,-0.25506,9.819809999999999
3969696930,22.28,0.0,0.0,0.0,-0.2943,-0.26487,9.82962
3974747435,22.28,0.0,0.0,0.0,-0.30411,-0.23544,9.819809999999999
3979797940,22.28,0.0,0.0,0.0,-0.2943,-0.26487,9.819809999999999
3984848445,22.28,0.0,0.0,0.0,-0.2943,-0.24525000000000002,9.86886
3989898950,22.28,0.0,0.0,0.0,-0.31392000000000003,-0.26487,9.84924
3994949455,22.28,0.0,0.0,0.0,-0.27468000000000004,-0.25506,9.83943
3999999960,22.28,0.0,0.0,0.0,-0.30411,-0.27468000000000004,9.83943
4005050465,22.28,0.0,0.0,0.0,-0.30411,-0.24525000000000002,9.81
4010100970,22.28,0.0,0.0,0.0,-0.27468000000000004,-0.25506,9.82962
4015151475,22.28,0.0,0.0,0.0,-0.30411,-0.27468000000000004,9.819809999999999
4020201980,22.28,0.0,0.0,0.0,-0.2943,-0.24525000000000002,9.81
4025252485,22.28,0.0,0.0,0.0,-0.2943,-0.23544,9.82962
4030302990,22.28,0.0,0.0,0.0,-0.2943,-0.25506,9.819809999999999
4035353495,22.28,0.0,0.0,0.0,-0.33354000000000006,-0.24525000000000002,9.84924
4040404000,22.28,0.0,0.0,0.0,-0.30411,-0.26487,9.83943
4045454505,22.28,0.0,0.0,0.0,-0.31392000000000003,-0.23544,9.84924
4050505010,22.28,0.0,0.0,0.0,-0.32373,-0.24525000000000002,9.82962
4055555515,22.28,0.0,0.0,0.0,-0.30411,-0.23544,9.819809999999999
4060606020,22.28,0.0,0.0,0.0,-0.30411,-0.25506,9.83943
4065656525,22.28,0.0,0.0,0.0,-0.31392000000000003,-0.25506,9.82962
4070707030,22.28,0.0,0.0,0.0,-0.28449,-0.24525000000000002,9.819809999999999
4075757535,22.28,0.0,0.0,0.0,-0.2943,-0.28449,9.819809999999999
4080808040,22.28,0.0,0.0,0.0,-0.32373,-0.26487,9.84924
4085858545,22.28,0.0,0.0,0.0,-0.31392000000000003,-0.24525000000000002,9.82962
4090909050,22.28,0.0,0.0,0.0,-0.2943,-0.23544,9.83943
4095959555,22.28,0.0,0.0,0.0,-0.2943,-0.26487,9.83943
4101010060,22.28,0.0,0.0,0.0,-0.2943,-0.25506,9.819809999999999
4106060565,22.28,0.0,0.0,0.0,-0.27468000000000004,-0.26487,9.81
4111111070,22.28,0.0,0.0,0.0,-0.30411,-0.25506,9.819809999999999
4116161575,22.28,0.0,0.0,0.0,-0.28449,-0.26487,9.819809999999999
4121212080,22.28,0.0,0.0,0.0,-0.31392000000000003,-0.23544,9.83943
4126262585,22.28,0.0,0.0,0.0,-0.31392000000000003,-0.25506,9.82962
4131313090,22.28,0.0,0.0,0.0,-0.31392000000000003,-0.24525000000000002,9.83943
4136363595,22.28,0.0,0.0,0.0,-0.2943,-0.23544,9.83943
4141414100,22.28,0.0,0.0,0.0,-0.2943,-0.25506,9.84924
4146464605,22.28,0.0,0.0,0.0,-0.30411,-0.23544,9.81
4151515110,22.28,0.0,0.0,0.0,-0.2943,-0.23544,9.819809999999999
4156565615,22.28,0.0,0.0,0.0,-0.27468000000000004,-0.26487,9.819809999999999
4161616120,22.28,0.0,0.0,0.0,-0.31392000000000003,-0.26487,9.82962
4166666625,22.28,0.0,0.0,0.0,-0.30411,-0.22563,9.82962
4171717130,22.28,0.0,0.0,0.0,-0.28449,-0.24525000000000002,9.82962
4176767635,22.28,0.0,0.0,0.0,-0.31392000000000003,-0.27468000000000004,9.82962
4181818140,22.28,0.0,0.0,0.0,-0.32373,-0.24525000000000002,9.83943
4186868645,22.28,0.0,0.0,0.0,-0.31392000000000003,-0.25506,9.81
4191919150,22.28,0.0,0.0,0.0,-0.30411,-0.24525000000000002,9.84924
4196969655,22.28,0.0,0.0,0.0,-0.2943,-0.22563,9.82962
4202020160,22.28,0.0,0.0,0.0,-0.27468000000000004,-0.26487,9.819809999999999
4207070665,22.28,0.0,0.0,0.0,-0.31392000000000003,-0.24525000000000002,9.819809999999999
4212121170,22.28,0.0,0.0,0.0,-0.2943,-0.25506,9.819809999999999
4217171675,22.28,0.0,0.0,0.0,-0.30411,-0.25506,9.819809999999999
4222222180,22.28,0.0,0.0,0.0,-0.32373,-0.26487,9.82962
4227272685,22.28,0.0,0.0,0.0,-0.30411,-0.28449,9.83943
4232323190,22.28,0.0,0.0,0.0,-0.30411,-0.24525000000000002,9.83943
4237373695,22.28,0.0,0.0,0.0,-0.30411,-0.25506,9.82962
4242424200,22.28,0.0,0.0,0.0,-0.28449,-0.23544,9.82962
4247474705,22.28,0.0,0.0,0.0,-0.28449,-0.26487,9.84924
4252525210,22.28,0.0,0.0,0.0,-0.28449,-0.22563,9.83943
4257575715,22.28,0.0,0.0,0.0,-0.30411,-0.22563,9.79038
4262626220,22.28,0.0,0.0,0.0,-0.2943,-0.20601000000000003,9.80019
4267676725,22.28,0.0,0.0,0.0,-0.32373,-0.26487,9.81
4272727230,22.28,0.0,0.0,0.0,-0.30411,-0.24525000000000002,9.82962
4277777735,22.28,0.0,0.0,0.0,-0.2943,-0.23544,9.84924
4282828240,22.16,0.0,0.0,0.0,-0.31392000000000003,-0.24525000000000002,9.83943
4287878745,22.16,0.0,0.0,0.0,-0.30411,-0.24525000000000002,9.84924
4292929250,22.16,0.0,0.0,0.0,-0.31392000000000003,-0.23544,9.819809999999999
4297979755,22.16,0.0,0.0,0.0,-0.31392000000000003,-0.25506,9.83943
4303030260,22.16,0.0,0.0,0.0,-0.32373,-0.23544,9.84924
4308080765,22.16,0.0,0.0,0.0,-0.32373,-0.28449,9.82962
4313131270,22.16,0.0,0.0,0.0,-0.28449,-0.24525000000000002,9.819809999999999
4318181775,22.16,0.0,0.0,0.0,-0.30411,-0.23544,9.819809999999999
4323232280,22.16,0.0,0.0,0.0,-0.28449,-0.26487,9.83943
4328282785,22.16,0.0,0.0,0.0,-0.32373,-0.24525000000000002,9.82962
4333333290,22.16,0.0,0.0,0.0,-0.2943,-0.25506,9.84924
4338383795,22.16,0.0,0.0,0.0,-0.2943,-0.23544,9.82962
4343434300,22.16,0.0,0.0,0.0,-0.2943,-0.25506,9.819809999999999
4348484805,22.16,0.0,0.0,0.0,-0.2943,-0.25506,9.819809999999999
4353535310,22.16,0.0,0.0,0.0,-0.2943,-0.23544,9.82962
4358585815,22.16,0.0,0.0,0.0,-0.28449,-0.24525000000000002,9.81
4363636320,22.16,0.0,0.0,0.0,-0.2943,-0.25506,9.82962
4368686825,22.16,0.0,0.0,0.0,-0.30411,-0.26487,9.83943
4373737330,22.16,0.0,0.0,0.0,-0.2943,-0.22563,9.85905
4378787835,22.16,0.0,0.0,0.0,-0.30411,-0.26487,9.81
4383838340,22.16,0.0,0.0,0.0,-0.33354000000000006,-0.28449,9.83943
4388888845,22.16,0.0,0.0,0.0,-0.26487,-0.25506,9.85905
4393939350,22.16,0.0,0.0,0.0,-0.2943,-0.24525000000000002,9.82962
4398989855,22.16,0.0,0.0,0.0,-0.30411,-0.25506,9.83943
4404040360,22.16,0.0,0.0,0.0,-0.2943,-0.24525000000000002,9.81
4409090865,22.16,0.0,0.0,0.0,-0.30411,-0.27468000000000004,9.84924
4414141370,22.16,0.0,0.0,0.0,-0.31392000000000003,-0.24525000000000002,9.81
4419191875,22.16,0.0,0.0,0.0,-0.27468000000000004,-0.23544,9.82962
4424242380,22.16,0.0,0.0,0.0,-0.27468000000000004,-0.25506,9.82962
4429292885,22.16,0.0,0.0,0.0,-0.28449,-0.25506,9.82962
4434343390,22.16,0.0,0.0,0.0,-0.32373,-0.25506,9.84924
4439393895,22.16,0.0,0.0,0.0,-0.28449,-0.24525000000000002,9.82962
4444444400,22.16,0.0,0.0,0.0,-0.30411,-0.26487,9.81
4449494905,22.16,0.0,0.0,0.0,-0.30411,-0.23544,9.83943
4454545410,22.16,0.0,0.0,0.0,-0.32373,-0.26487,9.83943
4459595915,22.16,0.0,0.0,0.0,-0.28449,-0.24525000000000002,9.81
4464646420,22.16,0.0,0.0,0.0,-0.31392000000000003,-0.25506,9.83943
4469696925,22.16,0.0,0.0,0.0,-0.2943,-0.23544,9.819809999999999
4474747430,22.16,0.0,0.0,0.0,-0.27468000000000004,-0.25506,9.81
4479797935,22.16,0.0,0.0,0.0,-0.32373,-0.28449,9.82962
4484848440,22.16,0.0,0.0,0.0,-0.2943,-0.25506,9.819809999999999
4489898945,22.16,0.0,0.0,0.0,-0.2943,-0.25506,9.84924
4494949450,22.16,0.0,0.0,0.0,-0.2943,-0.27468000000000004,9.83943
4499999955,22.16,0.0,0.0,0.0,-0.2943,-0.24525000000000002,9.83943
4505050460,22.16,0.0,0.0,0.0,-0.31392000000000003,-0.24525000000000002,9.81
4510100965,22.16,0.0,0.0,0.0,-0.31392000000000003,-0.26487,9.81
4515151470,22.16,0.0,0.0,0.0,-0.31392000000000003,-0.23544,9.83943
4520201975,22.16,0.0,0.0,0.0,-0.30411,-0.23544,9.819809999999999
4525252480,22.16,0.0,0.0,0.0,-0.28449,-0.26487,9.82962
4530302985,22.16,0.0,0.0,0.0,-0.31392000000000003,-0.24525000000000002,9.83943
4535353490,22.16,0.0,0.0,0.0,-0.28449,-0.23544,9.84924
4540403995,22.16,0.0,0.0,0.0,-0.30411,-0.23544,9.819809999999999
4545454500,22.16,0.0,0.0,0.0,-0.31392000000000003,-0.23544,9.82962
4550505005,22.16,0.0,0.0,0.0,-0.28449,-0.24525000000000002,9.819809999999999
4555555510,22.16,0.0,0.0,0.0,-0.31392000000000003,-0.23544,9.82962
4560606015,22.16,0.0,0.0,0.0,-0.30411,-0.23544,9.83943
4565656520,22.16,0.0,0.0,0.0,-0.30411,-0.23544,9.819809999999999
4570707025,22.16,0.0,0.0,0.0,-0.26487,-0.23544,9.81
4575757530,22.16,0.0,0.0,0.0,-0.2943,-0.25506,9.82962
4580808035,22.16,0.0,0.0,0.0,-0.28449,-0.27468000000000004,9.83943
4585858540,22.16,0.0,0.0,0.0,-0.31392000000000003,-0.23544,9.819809999999999
4590909045,22.16,0.0,0.0,0.0,-0.28449,-0.26487,9.82962
4595959550,22.16,0.0,0.0,0.0,-0.32373,-0.27468000000000004,9.819809999999999
4601010055,22.16,0.0,0.0,0.0,-0.2943,-0.23544,9.83943
4606060560,22.16,0.0,0.0,0.0,-0.30411,-0.24525000000000002,9.819809999999999
4611111065,22.16,0.0,0.0,0.0,-0.2943,-0.24525000000000002,9.819809999999999
4616161570,22.16,0.0,0.0,0.0,-0.30411,-0.26487,9.82962
4621212075,22.16,0.0,0.0,0.0,-0.32373,-0.25506,9.84924
4626262580,22.16,0.0,0.0,0.0,-0.2943,-0.23544,9.819809999999999
4631313085,22.16,0.0,0.0,0.0,-0.2943,-0.24525000000000002,9.82962
4636363590,22.16,0.0,0.0,0.0,-0.32373,-0.24525000000000002,9.819809999999999
4641414095,22.16,0.0,0.0,0.0,-0.2943,-0.23544,9.81
4646464600,22.16,0.0,0.0,0.0,-0.27468000000000004,-0.26487,9.819809999999999
4651515105,22.16,0.0,0.0,0.0,-0.2943,-0.24525000000000002,9.81
4656565610,22.16,0.0,0.0,0.0,-0.30411,-0.23544,9.83943
4661616115,22.16,0.0,0.0,0.0,-0.30411,-0.25506,9.83943
4666666620,22.16,0.0,0.0,0.0,-0.31392000000000003,-0.23544,9.819809999999999
4671717125,22.16,0.0,0.0,0.0,-0.31392000000000003,-0.24525000000000002,9.83943
4676767630,22.16,0.0,0.0,0.0,-0.30411,-0.25506,9.81
4681818135,22.16,0.0,0.0,0.0,-0.27468000000000004,-0.25506,9.84924
4686868640,22.16,0.0,0.0,0.0,-0.30411,-0.22563,9.79038
4691919145,22.16,0.0,0.0,0.0,-0.30411,-0.23544,9.819809999999999
4696969650,22.16,0.0,0.0,0.0,-0.31392000000000003,-0.24525000000000002,9.82962
4702020155,22.16,0.0,0.0,0.0,-0.30411,-0.22563,9.82962
4707070660,22.16,0.0,0.0,0.0,-0.28449,-0.25506,9.85905
4712121165,22.16,0.0,0.0,0.0,-0.28449,-0.24525000000000002,9.84924
4717171670,22.16,0.0,0.0,0.0,-0.28449,-0.24525000000000002,9.82962
4722222175,22.16,0.0,0.0,0.0,-0.32373,-0.25506,9.82962
4727272680,22.16,0.0,0.0,0.0,-0.28449,-0.22563,9.819809999999999
4732323185,22.16,0.0,0.0,0.0,-0.27468000000000004,-0.26487,9.83943
4737373690,22.16,0.0,0.0,0.0,-0.2943,-0.26487,9.82962
4742424195,22.16,0.0,0.0,0.0,-0.28449,-0.25506,9.82962
4747474700,22.16,0.0,0.0,0.0,-0.30411,-0.24525000000000002,9.83943
4752525205,22.16,0.0,0.0,0.0,-0.32373,-0.25506,9.84924
4757575710,22.16,0.0,0.0,0.0,-0.28449,-0.23544,9.83943
4762626215,22.16,0.0,0.0,0.0,-0.2943,-0.24525000000000002,9.82962
4767676720,22.16,0.0,0.0,0.0,-0.31392000000000003,-0.27468000000000004,9.85905
4772727225,22.16,0.0,0.0,0.0,-0.32373,-0.23544,9.82962
4777777730,22.16,0.0,0.0,0.0,-0.28449,-0.24525000000000002,9.82962
4782828235,22.16,0.0,0.0,0.0,-0.2943,-0.26487,9.82962
4787878740,22.16,0.0,0.0,0.0,-0.2943,-0.25506,9.83943
4792929245,22.16,0.0,0.0,0.0,-0.2943,-0.24525000000000002,9.82962
4797979750,22.16,0.0,0.0,0.0,-0.27468000000000004,-0.25506,9.82962
4803030255,22.16,0.0,0.0,0.0,-0.2943,-0.25506,9.83943
4808080760,22.16,0.0,0.0,0.0,-0.28449,-0.21582,9.84924
4813131265,22.16,0.0,0.0,0.0,-0.30411,-0.25506,9.819809999999999
4818181770,22.16,0.0,0.0,0.0,-0.30411,-0.24525000000000002,9.81
4823232275,22.16,0.0,0.0,0.0,-0.32373,-0.25506,9.84924
4828282780,22.16,0.0,0.0,0.0,-0.2943,-0.24525000000000002,9.82962
4833333285,22.16,0.0,0.0,0.0,-0.28449,-0.24525000000000002,9.81
4838383790,22.16,0.0,0.0,0.0,-0.31392000000000003,-0.22563,9.83943
4843434295,22.16,0.0,0.0,0.0,-0.28449,-0.25506,9.82962
4848484800,22.16,0.0,0.0,0.0,-0.2943,-0.23544,9.819809999999999
4853535305,22.16,0.0,0.0,0.0,-0.32373,-0.24525000000000002,9.82962
4858585810,22.16,0.0,0.0,0.0,-0.30411,-0.24525000000000002,9.83943
4863636315,22.16,0.0,0.0,0.0,-0.28449,-0.22563,9.83943
4868686820,22.16,0.0,0.0,0.0,-0.30411,-0.24525000000000002,9.82962
4873737325,22.16,0.0,0.0,0.0,-0.31392000000000003,-0.23544,9.84924
4878787830,22.16,0.0,0.0,0.0,-0.27468000000000004,-0.25506,9.82962
4883838335,22.16,0.0,0.0,0.0,-0.2943,-0.25506,9.819809999999999
4888888840,22.16,0.0,0.0,0.0,-0.31392000000000003,-0.24525000000000002,9.81
4893939345,22.16,0.0,0.0,0.0,-0.30411,-0.26487,9.82962
4898989850,22.16,0.0,0.0,0.0,-0.31392000000000003,-0.2943,9.84924
4904040355,22.16,0.0,0.0,0.0,-0.33354000000000006,-0.26487,9.82962
4909090860,22.16,0.0,0.0,0.0,-0.30411,-0.22563,9.83943
4914141365,22.16,0.0,0.0,0.0,-0.2943,-0.25506,9.83943
4919191870,22.16,0.0,0.0,0.0,-0.30411,-0.26487,9.82962
4924242375,22.16,0.0,0.0,0.0,-0.2943,-0.24525000000000002,9.82962
4929292880,22.16,0.0,0.0,0.0,-0.28449,-0.25506,9.82962
4934343385,22.16,0.0,0.0,0.0,-0.30411,-0.28449,9.819809999999999
4939393890,22.16,0.0,0.0,0.0,-0.32373,-0.25506,9.84924
4944444395,22.16,0.0,0.0,0.0,-0.28449,-0.26487,9.82962
4949494900,22.16,0.0,0.0,0.0,-0.31392000000000003,-0.25506,9.83943
4954545405,22.16,0.0,0.0,0.0,-0.30411,-0.22563,9.82962
4959595910,22.16,0.0,0.0,0.0,-0.30411,-0.25506,9.819809999999999
4964646415,22.16,0.0,0.0,0.0,-0.28449,-0.25506,9.819809999999999
4969696920,22.16,0.0,0.0,0.0,-0.28449,-0.24525000000000002,9.82962
4974747425,22.16,0.0,0.0,0.0,-0.2943,-0.24525000000000002,9.82962
4979797930,22.16,0.0,0.0,0.0,-0.2943,-0.24525000000000002,9.81
4984848435,22.16,0.0,0.0,0.0,-0.28449,-0.23544,9.82962
4989898940,22.16,0.0,0.0,0.0,-0.35316,-0.26487,9.819809999999999
4994949445,22.16,0.0,0.0,0.0,-0.31392000000000003,-0.23544,9.819809999999999
4999999950,22.16,0.0,0.0,0.0,-0.27468000000000004,-0.24525000000000002,9.83943
5005050455,22.16,0.0,0.0,0.0,-0.2943,-0.25506,9.84924
5010100960,22.16,0.0,0.0,0.0,-0.30411,-0.26487,9.83943
5015151465,22.16,0.0,0.0,0.0,-0.27468000000000004,-0.23544,9.83943
5020201970,22.16,0.0,0.0,0.0,-0.28449,-0.22563,9.84924
5025252475,22.16,0.0,0.0,0.0,-0.33354000000000006,-0.26487,9.83943
5030302980,22.16,0.0,0.0,0.0,-0.32373,-0.25506,9.819809999999999
5035353485,22.16,0.0,0.0,0.0,-0.2943,-0.22563,9.82962
5040403990,22.16,0.0,0.0,0.0,-0.30411,-0.24525000000000002,9.82962
5045454495,22.16,0.0,0.0,0.0,-0.30411,-0.24525000000000002,9.819809999999999
5050505000,22.16,0.0,0.0,0.0,-0.2943,-0.22563,9.84924
5055555505,22.16,0.0,0.0,0.0,-0.28449,-0.25506,9.819809999999999
5060606010,22.16,0.0,0.0,0.0,-0.31392000000000003,-0.25506,9.83943
5065656515,22.16,0.0,0.0,0.0,-0.2943,-0.23544,9.82962
5070707020,22.16,0.0,0.0,0.0,-0.28449,-0.23544,9.819809999999999
5075757525,22.16,0.0,0.0,0.0,-0.30411,-0.25506,9.84924
5080808030,22.16,0.0,0.0,0.0,-0.31392000000000003,-0.24525000000000002,9.83943
5085858535,22.16,0.0,0.0,0.0,-0.28449,-0.2943,9.84924
5090909040,22.16,0.0,0.0,0.0,-0.28449,-0.26487,9.84924
5095959545,22.16,0.0,0.0,0.0,-0.2943,-0.25506,9.82962
5101010050,22.16,0.0,0.0,0.0,-0.2943,-0.25506,9.83943
5106060555,22.16,0.0,0.0,0.0,-0.2943,-0.27468000000000004,9.819809999999999
5111111060,22.16,0.0,0.0,0.0,-0.32373,-0.22563,9.819809999999999
5116161565,22.16,0.0,0.0,0.0,-0.28449,-0.25506,9.819809999999999
5121212070,22.16,0.0,0.0,0.0,-0.31392000000000003,-0.21582,9.819809999999999
5126262575,22.16,0.0,0.0,0.0,-0.31392000000000003,-0.20601000000000003,9.84924
5131313080,22.16,0.0,0.0,0.0,-0.2943,-0.24525000000000002,9.84924
5136363585,22.16,0.0,0.0,0.0,-0.30411,-0.23544,9.819809999999999
5141414090,22.16,0.0,0.0,0.0,-0.2943,-0.23544,9.83943
5146464595,22.16,0.0,0.0,0.0,-0.30411,-0.23544,9.82962
5151515100,22.16,0.0,0.0,0.0,-0.27468000000000004,-0.26487,9.819809999999999
5156565605,22.16,0.0,0.0,0.0,-0.30411,-0.26487,9.82962
5161616110,22.16,0.0,0.0,0.0,-0.30411,-0.23544,9.82962
5166666615,22.16,0.0,0.0,0.0,-0.30411,-0.24525000000000002,9.83943
5171717120,22.16,0.0,0.0,0.0,-0.2943,-0.26487,9.819809999999999
5176767625,22.16,0.0,0.0,0.0,-0.32373,-0.25506,9.82962
5181818130,22.16,0.0,0.0,0.0,-0.28449,-0.22563,9.83943
5186868635,22.16,0.0,0.0,0.0,-0.2943,-0.23544,9.819809999999999
5191919140,22.16,0.0,0.0,0.0,-0.30411,-0.24525000000000002,9.82962
5196969645,22.16,0.0,0.0,0.0,-0.31392000000000003,-0.24525000000000002,9.819809999999999
5202020150,22.16,0.0,0.0,0.0,-0.2943,-0.23544,9.81
5207070655,22.16,0.0,0.0,0.0,-0.30411,-0.26487,9.81
5212121160,22.16,0.0,0.0,0.0,-0.32373,-0.22563,9.82962
5217171665,22.16,0.0,0.0,0.0,-0.31392000000000003,-0.25506,9.85905
5222222170,22.16,0.0,0.0,0.0,-0.30411,-0.24525000000000002,9.83943
5227272675,22.16,0.0,0.0,0.0,-0.2943,-0.23544,9.82962
5232323180,22.16,0.0,0.0,0.0,-0.28449,-0.25506,9.819809999999999
5237373685,22.16,0.0,0.0,0.0,-0.30411,-0.25506,9.83943
5242424190,22.16,0.0,0.0,0.0,-0.30411,-0.24525000000000002,9.83943
5247474695,22.16,0.0,0.0,0.0,-0.28449,-0.24525000000000002,9.82962
5252525200,22.16,0.0,0.0,0.0,-0.28449,-0.26487,9.84924
5257575705,22.16,0.0,0.0,0.0,-0.30411,-0.25506,9.85905
5262626210,22.16,0.0,0.0,0.0,-0.33354000000000006,-0.21582,9.84924
5267676715,22.16,0.0,0.0,0.0,-0.2943,-0.25506,9.819809999999999
5272727220,22.16,0.0,0.0,0.0,-0.2943,-0.27468000000000004,9.83943
5277777725,22.16,0.0,0.0,0.0,-0.30411,-0.26487,9.84924
5282828230,22.16,0.0,0.0,0.0,-0.2943,-0.23544,9.82962
5287878735,22.16,0.0,0.0,0.0,-0.31392000000000003,-0.23544,9.81
5292929240,22.16,0.0,0.0,0.0,-0.30411,-0.26487,9.81
5297979745,22.16,0.0,0.0,0.0,-0.32373,-0.25506,9.83943
5303030250,22.16,0.0,0.0,0.0,-0.2943,-0.22563,9.82962
5308080755,22.16,0.0,0.0,0.0,-0.28449,-0.25506,9.84924
5313131260,22.16,0.0,0.0,0.0,-0.30411,-0.23544,9.819809999999999
5318181765,22.16,0.0,0.0,0.0,-0.32373,-0.24525000000000002,9.819809999999999
5323232270,22.16,0.0,0.0,0.0,-0.28449,-0.22563,9.82962
5328282775,22.16,0.0,0.0,0.0,-0.2943,-0.27468000000000004,9.819809999999999
5333333280,22.16,0.0,0.0,0.0,-0.31392000000000003,-0.24525000000000002,9.819809999999999
5338383785,22.16,0.0,0.0,0.0,-0.27468000000000004,-0.25506,9.85905
5343434290,22.16,0.0,0.0,0.0,-0.28449,-0.23544,9.82962
5348484795,22.16,0.0,0.0,0.0,-0.28449,-0.25506,9.819809999999999
5353535300,22.16,0.0,0.0,0.0,-0.32373,-0.25506,9.82962
5358585805,22.16,0.0,0.0,0.0,-0.30411,-0.26487,9.82962
5363636310,22.16,0.0,0.0,0.0,-0.2943,-0.24525000000000002,9.83943
5368686815,22.16,0.0,0.0,0.0,-0.28449,-0.26487,9.819809999999999
5373737320,22.16,0.0,0.0,0.0,-0.2943,-0.25506,9.819809999999999
5378787825,22.16,0.0,0.0,0.0,-0.30411,-0.23544,9.819809999999999
5383838330,22.16,0.0,0.0,0.0,-0.2943,-0.23544,9.81
5388888835,22.16,0.0,0.0,0.0,-0.30411,-0.27468000000000004,9.82962
5393939340,22.16,0.0,0.0,0.0,-0.31392000000000003,-0.23544,9.819809999999999
5398989845,22.16,0.0,0.0,0.0,-0.28449,-0.24525000000000002,9.82962
5404040350,22.16,0.0,0.0,0.0,-0.2943,-0.23544,9.84924
5409090855,22.16,0.0,0.0,0.0,-0.28449,-0.27468000000000004,9.819809999999999
5414141360,22.16,0.0,0.0,0.0,-0.2943,-0.25506,9.83943
5419191865,22.16,0.0,0.0,0.0,-0.30411,-0.24525000000000002,9.84924
5424242370,22.16,0.0,0.0,0.0,-0.2943,-0.26487,9.81
5429292875,22.16,0.0,0.0,0.0,-0.31392000000000003,-0.25506,9.82962
5434343380,22.16,0.0,0.0,0.0,-0.31392000000000003,-0.26487,9.83943
5439393885,22.16,0.0,0.0,0.0,-0.27468000000000004,-0.24525000000000002,9.82962
5444444390,22.16,0.0,0.0,0.0,-0.31392000000000003,-0.2943,9.84924
5449494895,22.16,0.0,0.0,0.0,-0.32373,-0.23544,9.82962
5454545400,22.16,0.0,0.0,0.0,-0.30411,-0.24525000000000002,9.84924
5459595905,22.16,0.0,0.0,0.0,-0.26487,-0.25506,9.82962
5464646410,22.16,0.0,0.0,0.0,-0.32373,-0.25506,9.819809999999999
5469696915,22.16,0.0,0.0,0.0,-0.30411,-0.22563,9.81
5474747420,22.16,0.0,0.0,0.0,-0.2943,-0.24525000000000002,9.83943
5479797925,22.16,0.0,0.0,0.0,-0.30411,-0.25506,9.819809999999999
5484848430,22.16,0.0,0.0,0.0,-0.27468000000000004,-0.24525000000000002,9.82962
5489898935,22.16,0.0,0.0,0.0,-0.31392000000000003,-0.24525000000000002,9.83943
5494949440,22.16,0.0,0.0,0.0,-0.31392000000000003,-0.23544,9.819809999999999
5499999945,22.16,0.0,0.0,0.0,-0.31392000000000003,-0.26487,9.819809999999999
5505050450,22.16,0.0,0.0,0.0,-0.28449,-0.23544,9.819809999999999
5510100955,22.16,0.0,0.0,0.0,-0.27468000000000004,-0.25506,9.83943
5515151460,22.16,0.0,0.0,0.0,-0.31392000000000003,-0.25506,9.81
5520201965,22.16,0.0,0.0,0.0,-0.2943,-0.23544,9.82962
5525252470,22.16,0.0,0.0,0.0,-0.2943,-0.28449,9.82962
5530302975,22.16,0.0,0.0,0.0,-0.2943,-0.22563,9.819809999999999
5535353480,22.16,0.0,0.0,0.0,-0.28449,-0.25506,9.819809999999999
5540403985,22.16,0.0,0.0,0.0,-0.31392000000000003,-0.26487,9.81
5545454490,22.16,0.0,0.0,0.0,-0.25506,-0.25506,9.819809999999999
5550504995,22.16,0.0,0.0,0.0,-0.2943,-0.24525000000000002,9.83943
5555555500,22.16,0.0,0.0,0.0,-0.2943,-0.26487,9.819809999999999
5560606005,22.16,0.0,0.0,0.0,-0.2943,-0.28449,9.82962
5565656510,22.16,0.0,0.0,0.0,-0.27468000000000004,-0.24525000000000002,9.819809999999999
5570707015,22.16,0.0,0.0,0.0,-0.2943,-0.22563,9.85905
5575757520,22.16,0.0,0.0,0.0,-0.30411,-0.27468000000000004,9.84924
5580808025,22.16,0.0,0.0,0.0,-0.32373,-0.24525000000000002,9.82962
5585858530,22.16,0.0,0.0,0.0,-0.2943,-0.25506,9.83943
5590909035,22.16,0.0,0.0,0.0,-0.28449,-0.24525000000000002,9.81
5595959540,22.16,0.0,0.0,0.0,-0.31392000000000003,-0.24525000000000002,9.81
5601010045,22.16,0.0,0.0,0.0,-0.32373,-0.23544,9.81
5606060550,22.16,0.0,0.0,0.0,-0.30411,-0.23544,9.819809999999999
5611111055,22.16,0.0,0.0,0.0,-0.2943,-0.25506,9.82962
5616161560,22.16,0.0,0.0,0.0,-0.32373,-0.25506,9.82962
5621212065,22.16,0.0,0.0,0.0,-0.2943,-0.28449,9.85905
5626262570,22.16,0.0,0.0,0.0,-0.27468000000000004,-0.25506,9.83943
5631313075,22.16,0.0,0.0,0.0,-0.2943,-0.27468000000000004,9.819809999999999
5636363580,22.16,0.0,0.0,0.0,-0.2943,-0.26487,9.81
5641414085,22.16,0.0,0.0,0.0,-0.2943,-0.24525000000000002,9.82962
5646464590,22.16,0.0,0.0,0.0,-0.31392000000000003,-0.26487,9.82962
5651515095,22.16,0.0,0.0,0.0,-0.30411,-0.26487,9.80019
5656565600,22.16,0.0,0.0,0.0,-0.28449,-0.25506,9.82962
5661616105,22.16,0.0,0.0,0.0,-0.2943,-0.24525000000000002,9.82962
5666666610,22.16,0.0,0.0,0.0,-0.30411,-0.25506,9.82962
5671717115,22.16,0.0,0.0,0.0,-0.27468000000000004,-0.25506,9.819809999999999
5676767620,22.16,0.0,0.0,0.0,-0.28449,-0.26487,9.82962
5681818125,22.16,0.0,0.0,0.0,-0.30411,-0.24525000000000002,9.83943
5686868630,22.16,0.0,0.0,0.0,-0.31392000000000003,-0.25506,9.82962
5691919135,22.16,0.0,0.0,0.0,-0.27468000000000004,-0.24525000000000002,9.83943
5696969640,22.16,0.0,0.0,0.0,-0.28449,-0.26487,9.819809999999999
5702020145,22.16,0.0,0.0,0.0,-0.30411,-0.22563,9.82962
5707070650,22.16,0.0,0.0,0.0,-0.2943,-0.23544,9.819809999999999
5712121155,22.16,0.0,0.0,0.0,-0.27468000000000004,-0.27468000000000004,9.83943
5717171660,22.16,0.0,0.0,0.0,-0.31392000000000003,-0.23544,9.82962
5722222165,22.16,0.0,0.0,0.0,-0.30411,-0.28449,9.82962
5727272670,22.16,0.0,0.0,0.0,-0.30411,-0.22563,9.819809999999999
5732323175,22.16,0.0,0.0,0.0,-0.31392000000000003,-0.25506,9.85905
5737373680,22.16,0.0,0.0,0.0,-0.31392000000000003,-0.23544,9.83943
5742424185,22.16,0.0,0.0,0.0,-0.28449,-0.21582,9.82962
5747474690,22.16,0.0,0.0,0.0,-0.2943,-0.24525000000000002,9.819809999999999
5752525195,22.16,0.0,0.0,0.0,-0.30411,-0.24525000000000002,9.82962
5757575700,22.16,0.0,0.0,0.0,-0.2943,-0.25506,9.84924
5762626205,22.16,0.0,0.0,0.0,-0.27468000000000004,-0.24525000000000002,9.82962
5767676710,22.16,0.0,0.0,0.0,-0.32373,-0.24525000000000002,9.819809999999999
5772727215,22.16,0.0,0.0,0.0,-0.30411,-0.24525000000000002,9.82962
5777777720,22.16,0.0,0.0,0.0,-0.30411,-0.23544,9.82962
5782828225,22.16,0.0,0.0,0.0,-0.30411,-0.25506,9.82962
5787878730,22.16,0.0,0.0,0.0,-0.2943,-0.24525000000000002,9.79038
5792929235,22.16,0.0,0.0,0.0,-0.2943,-0.25506,9.82962
5797979740,22.16,0.0,0.0,0.0,-0.2943,-0.24525000000000002,9.819809999999999
5803030245,22.16,0.0,0.0,0.0,-0.31392000000000003,-0.24525000000000002,9.81
5808080750,22.16,0.0,0.0,0.0,-0.2943,-0.26487,9.84924
5813131255,22.16,0.0,0.0,0.0,-0.28449,-0.24525000000000002,9.819809999999999
5818181760,22.16,0.0,0.0,0.0,-0.33354000000000006,-0.25506,9.83943
5823232265,22.16,0.0,0.0,0.0,-0.2943,-0.23544,9.819809999999999
5828282770,22.16,0.0,0.0,0.0,-0.2943,-0.25506,9.82962
5833333275,22.16,0.0,0.0,0.0,-0.31392000000000003,-0.23544,9.84924
5838383780,22.16,0.0,0.0,0.0,-0.2943,-0.24525000000000002,9.83943
5843434285,22.16,0.0,0.0,0.0,-0.32373,-0.26487,9.81
5848484790,22.16,0.0,0.0,0.0,-0.30411,-0.25506,9.81
5853535295,22.16,0.0,0.0,0.0,-0.30411,-0.23544,9.82962
5858585800,22.16,0.0,0.0,0.0,-0.31392000000000003,-0.23544,9.83943
5863636305,22.16,0.0,0.0,0.0,-0.33354000000000006,-0.25506,9.82962
5868686810,22.16,0.0,0.0,0.0,-0.30411,-0.23544,9.82962
5873737315,22.16,0.0,0.0,0.0,-0.30411,-0.27468000000000004,9.84924
5878787820,22.16,0.0,0.0,0.0,-0.30411,-0.25506,9.83943
5883838325,22.16,0.0,0.0,0.0,-0.30411,-0.24525000000000002,9.82962
5888888830,22.16,0.0,0.0,0.0,-0.28449,-0.25506,9.81
5893939335,22.16,0.0,0.0,0.0,-0.31392000000000003,-0.23544,9.83943
5898989840,22.16,0.0,0.0,0.0,-0.30411,-0.22563,9.819809999999999
5904040345,22.16,0.0,0.0,0.0,-0.27468000000000004,-0.25506,9.819809999999999
5909090850,22.16,0.0,0.0,0.0,-0.31392000000000003,-0.26487,9.82962
5914141355,22.16,0.0,0.0,0.0,-0.35316,-0.24525000000000002,9.83943
5919191860,22.16,0.0,0.0,0.0,-0.30411,-0.23544,9.82962
5924242365,22.16,0.0,0.0,0.0,-0.30411,-0.25506,9.82962
5929292870,22.16,0.0,0.0,0.0,-0.2943,-0.25506,9.819809999999999
5934343375,22.16,0.0,0.0,0.0,-0.33354000000000006,-0.24525000000000002,9.84924
5939393880,22.16,0.0,0.0,0.0,-0.28449,-0.26487,9.81
5944444385,22.16,0.0,0.0,0.0,-0.2943,-0.26487,9.82962
5949494890,22.16,0.0,0.0,0.0,-0.33354000000000006,-0.23544,9.81
5954545395,22.16,0.0,0.0,0.0,-0.28449,-0.25506,9.84924
5959595900,22.16,0.0,0.0,0.0,-0.31392000000000003,-0.25506,9.82962
5964646405,22.16,0.0,0.0,0.0,-0.31392000000000003,-0.25506,9.83943
5969696910,22.16,0.0,0.0,0.0,-0.2943,-0.24525000000000002,9.85905
5974747415,22.16,0.0,0.0,0.0,-0.28449,-0.24525000000000002,9.85905
5979797920,22.16,0.0,0.0,0.0,-0.30411,-0.26487,9.82962
5984848425,22.16,0.0,0.0,0.0,-0.30411,-0.26487,9.83943
5989898930,22.16,0.0,0.0,0.0,-0.31392000000000003,-0.25506,9.85905
5994949435,22.16,0.0,0.0,0.0,-0.28449,-0.24525000000000002,9.83943
5999999940,22.16,0.0,0.0,0.0,-0.28449,-0.23544,9.819809999999999
6005050445,22.16,0.0,0.0,0.0,-0.2943,-0.23544,9.819809999999999
6010100950,22.16,0.0,0.0,0.0,-0.30411,-0.24525000000000002,9.84924
6015151455,22.16,0.0,0.0,0.0,-0.31392000000000003,-0.24525000000000002,9.82962
6020201960,22.16,0.0,0.0,0.0,-0.2943,-0.24525000000000002,9.819809999999999
6025252465,22.16,0.0,0.0,0.0,-0.28449,-0.26487,9.82962
6030302970,22.16,0.0,0.0,0.0,-0.2943,-0.25506,9.82962
6035353475,22.16,0.0,0.0,0.0,-0.33354000000000006,-0.24525000000000002,9.82962
6040403980,22.16,0.0,0.0,0.0,-0.30411,-0.27468000000000004,9.82962
6045454485,22.16,0.0,0.0,0.0,-0.2943,-0.26487,9.86886
6050504990,22.16,0.0,0.0,0.0,-0.30411,-0.24525000000000002,9.82962
6055555495,22.16,0.0,0.0,0.0,-0.2943,-0.25506,9.83943
6060606000,22.16,0.0,0.0,0.0,-0.2943,-0.25506,9.81
6065656505,22.16,0.0,0.0,0.0,-0.31392000000000003,-0.26487,9.83943
6070707010,22.16,0.0,0.0,0.0,-0.30411,-0.23544,9.84924
6075757515,22.16,0.0,0.0,0.0,-0.30411,-0.28449,9.819809999999999
6080808020,22.16,0.0,0.0,0.0,-0.32373,-0.25506,9.83943
6085858525,22.16,0.0,0.0,0.0,-0.30411,-0.24525000000000002,9.82962
6090909030,22.16,0.0,0.0,0.0,-0.26487,-0.23544,9.83943
6095959535,22.16,0.0,0.0,0.0,-0.2943,-0.25506,9.819809999999999
6101010040,22.16,0.0,0.0,0.0,-0.30411,-0.27468000000000004,9.819809999999999
6106060545,22.16,0.0,0.0,0.0,-0.2943,-0.23544,9.85905
6111111050,22.16,0.0,0.0,0.0,-0.28449,-0.27468000000000004,9.82962
6116161555,22.16,0.0,0.0,0.0,-0.31392000000000003,-0.26487,9.81
6121212060,22.16,0.0,0.0,0.0,-0.31392000000000003,-0.26487,9.83943
6126262565,22.16,0.0,0.0,0.0,-0.2943,-0.27468000000000004,9.819809999999999
6131313070,22.16,0.0,0.0,0.0,-0.32373,-0.26487,9.82962
6136363575,22.16,0.0,0.0,0.0,-0.32373,-0.26487,9.82962
6141414080,22.16,0.0,0.0,0.0,-0.31392000000000003,-0.23544,9.83943
6146464585,22.16,0.0,0.0,0.0,-0.30411,-0.22563,9.819809999999999
6151515090,22.16,0.0,0.0,0.0,-0.33354000000000006,-0.22563,9.83943
6156565595,22.16,0.0,0.0,0.0,-0.28449,-0.26487,9.84924
6161616100,22.16,0.0,0.0,0.0,-0.2943,-0.25506,9.83943
6166666605,22.16,0.0,0.0,0.0,-0.31392000000000003,-0.25506,9.85905
6171717110,22.16,0.0,0.0,0.0,-0.30411,-0.25506,9.82962
6176767615,22.16,0.0,0.0,0.0,-0.28449,-0.25506,9.84924
6181818120,22.16,0.0,0.0,0.0,-0.2943,-0.26487,9.82962
6186868625,22.16,0.0,0.0,0.0,-0.30411,-0.23544,9.82962
6191919130,22.16,0.0,0.0,0.0,-0.26487,-0.22563,9.84924
6196969635,22.16,0.0,0.0,0.0,-0.30411,-0.26487,9.819809999999999
6202020140,22.16,0.0,0.0,0.0,-0.31392000000000003,-0.23544,9.84924
6207070645,22.16,0.0,0.0,0.0,-0.30411,-0.24525000000000002,9.84924
6212121150,22.16,0.0,0.0,0.0,-0.27468000000000004,-0.27468000000000004,9.82962
6217171655,22.16,0.0,0.0,0.0,-0.31392000000000003,-0.27468000000000004,9.819809999999999
6222222160,22.16,0.0,0.0,0.0,-0.33354000000000006,-0.23544,9.85905
6227272665,22.16,0.0,0.0,0.0,-0.2943,-0.24525000000000002,9.82962
6232323170,22.16,0.0,0.0,0.0,-0.2943,-0.27468000000000004,9.819809999999999
6237373675,22.16,0.0,0.0,0.0,-0.32373,-0.24525000000000002,9.819809999999999
6242424180,22.16,0.0,0.0,0.0,-0.2943,-0.26487,9.819809999999999
6247474685,22.16,0.0,0.0,0.0,-0.25506,-0.25506,9.819809999999999
6252525190,22.16,0.0,0.0,0.0,-0.32373,-0.24525000000000002,9.81
6257575695,22.16,0.0,0.0,0.0,-0.28449,-0.25506,9.83943
6262626200,22.16,0.0,0.0,0.0,-0.28449,-0.24525000000000002,9.82962
6267676705,22.16,0.0,0.0,0.0,-0.2943,-0.25506,9.83943
6272727210,22.16,0.0,0.0,0.0,-0.32373,-0.24525000000000002,9.83943
6277777715,22.16,0.0,0.0,0.0,-0.2943,-0.26487,9.819809999999999
6282828220,22.16,0.0,0.0,0.0,-0.31392000000000003,-0.24525000000000002,9.82962
6287878725,22.16,0.0,0.0,0.0,-0.2943,-0.25506,9.82962
6292929230,22.16,0.0,0.0,0.0,-0.27468000000000004,-0.22563,9.82962
6297979735,22.16,0.0,0.0,0.0,-0.2943,-0.25506,9.82962
6303030240,22.16,0.0,0.0,0.0,-0.32373,-0.28449,9.82962
6308080745,22.16,0.0,0.0,0.0,-0.2943,-0.24525000000000002,9.83943
6313131250,22.16,0.0,0.0,0.0,-0.30411,-0.23544,9.819809999999999
6318181755,22.16,0.0,0.0,0.0,-0.2943,-0.27468000000000004,9.819809999999999
6323232260,22.16,0.0,0.0,0.0,-0.28449,-0.24525000000000002,9.84924
6328282765,22.16,0.0,0.0,0.0,-0.30411,-0.24525000000000002,9.84924
6333333270,22.16,0.0,0.0,0.0,-0.30411,-0.23544,9.82962
6338383775,22.16,0.0,0.0,0.0,-0.31392000000000003,-0.23544,9.81
6343434280,22.16,0.0,0.0,0.0,-0.2943,-0.24525000000000002,9.83943
6348484785,22.16,0.0,0.0,0.0,-0.28449,-0.27468000000000004,9.83943
6353535290,22.16,0.0,0.0,0.0,-0.32373,-0.25506,9.82962
6358585795,22.16,0.0,0.0,0.0,-0.28449,-0.28449,9.82962
6363636300,22.16,0.0,0.0,0.0,-0.28449,-0.24525000000000002,9.819809999999999
6368686805,22.16,0.0,0.0,0.0,-0.30411,-0.24525000000000002,9.82962
6373737310,22.16,0.0,0.0,0.0,-0.2943,-0.24525000000000002,9.81
6378787815,22.16,0.0,0.0,0.0,-0.31392000000000003,-0.24525000000000002,9.819809999999999
6383838320,22.16,0.0,0.0,0.0,-0.30411,-0.25506,9.82962
6388888825,22.16,0.0,0.0,0.0,-0.31392000000000003,-0.24525000000000002,9.81
6393939330,22.16,0.0,0.0,0.0,-0.2943,-0.25506,9.83943
6398989835,22.16,0.0,0.0,0.0,-0.30411,-0.24525000000000002,9.819809999999999
6404040340,22.16,0.0,0.0,0.0,-0.28449,-0.25506,9.82962
6409090845,22.16,0.0,0.0,0.0,-0.30411,-0.25506,9.82962
6414141350,22.16,0.0,0.0,0.0,-0.31392000000000003,-0.21582,9.819809999999999
6419191855,22.16,0.0,0.0,0.0,-0.31392000000000003,-0.26487,9.81
6424242360,22.16,0.0,0.0,0.0,-0.30411,-0.26487,9.819809999999999
6429292865,22.16,0.0,0.0,0.0,-0.30411,-0.24525000000000002,9.83943
6434343370,22.16,0.0,0.0,0.0,-0.28449,-0.25506,9.819809999999999
6439393875,22.16,0.0,0.0,0.0,-0.30411,-0.26487,9.82962
6444444380,22.16,0.0,0.0,0.0,-0.30411,-0.22563,9.84924
6449494885,22.16,0.0,0.0,0.0,-0.27468000000000004,-0.27468000000000004,9.819809999999999
6454545390,22.16,0.0,0.0,0.0,-0.2943,-0.24525000000000002,9.81
6459595895,22.16,0.0,0.0,0.0,-0.2943,-0.25506,9.82962
6464646400,22.16,0.0,0.0,0.0,-0.30411,-0.26487,9.82962
6469696905,22.16,0.0,0.0,0.0,-0.30411,-0.25506,9.819809999999999
6474747410,22.16,0.0,0.0,0.0,-0.31392000000000003,-0.23544,9.83943
6479797915,22.16,0.0,0.0,0.0,-0.28449,-0.25506,9.84924
6484848420,22.16,0.0,0.0,0.0,-0.28449,-0.25506,9.82962
6489898925,22.16,0.0,0.0,0.0,-0.30411,-0.23544,9.819809999999999
6494949430,22.16,0.0,0.0,0.0,-0.28449,-0.24525000000000002,9.81
6499999935,22.16,0.0,0.0,0.0,-0.27468000000000004,-0.27468000000000004,9.82962
6505050440,22.16,0.0,0.0,0.0,-0.31392000000000003,-0.24525000000000002,9.83943
6510100945,22.16,0.0,0.0,0.0,-0.28449,-0.21582,9.83943
6515151450,22.16,0.0,0.0,0.0,-0.2943,-0.26487,9.84924
6520201955,22.16,0.0,0.0,0.0,-0.33354000000000006,-0.27468000000000004,9.819809999999999
6525252460,22.16,0.0,0.0,0.0,-0.30411,-0.23544,9.82962
6530302965,22.16,0.0,0.0,0.0,-0.30411,-0.22563,9.83943
6535353470,22.16,0.0,0.0,0.0,-0.28449,-0.26487,9.819809999999999
6540403975,22.16,0.0,0.0,0.0,-0.33354000000000006,-0.26487,9.84924
6545454480,22.16,0.0,0.0,0.0,-0.2943,-0.24525000000000002,9.84924
6550504985,22.16,0.0,0.0,0.0,-0.2943,-0.26487,9.819809999999999
6555555490,22.16,0.0,0.0,0.0,-0.2943,-0.26487,9.83943
6560605995,22.16,0.0,0.0,0.0,-0.31392000000000003,-0.24525000000000002,9.82962
6565656500,22.16,0.0,0.0,0.0,-0.27468000000000004,-0.23544,9.819809999999999
6570707005,22.16,0.0,0.0,0.0,-0.32373,-0.25506,9.82962
6575757510,22.16,0.0,0.0,0.0,-0.30411,-0.23544,9.82962
6580808015,22.16,0.0,0.0,0.0,-0.31392000000000003,-0.25506,9.819809999999999
6585858520,22.16,0.0,0.0,0.0,-0.31392000000000003,-0.25506,9.83943
6590909025,22.16,0.0,0.0,0.0,-0.33354000000000006,-0.23544,9.83943
6595959530,22.16,0.0,0.0,0.0,-0.30411,-0.25506,9.82962
6601010035,22.16,0.0,0.0,0.0,-0.28449,-0.24525000000000002,9.819809999999999
6606060540,22.16,0.0,0.0,0.0,-0.30411,-0.25506,9.82962
6611111045,22.16,0.0,0.0,0.0,-0.26487,-0.23544,9.819809999999999
6616161550,22.16,0.0,0.0,0.0,-0.2943,-0.25506,9.81
6621212055,22.16,0.0,0.0,0.0,-0.32373,-0.27468000000000004,9.82962
6626262560,22.16,0.0,0.0,0.0,-0.25506,-0.22563,9.84924
6631313065,22.16,0.0,0.0,0.0,-0.28449,-0.26487,9.819809999999999
6636363570,22.16,0.0,0.0,0.0,-0.2943,-0.28449,9.82962
6641414075,22.16,0.0,0.0,0.0,-0.31392000000000003,-0.21582,9.819809999999999
6646464580,22.16,0.0,0.0,0.0,-0.2943,-0.26487,9.84924
6651515085,22.16,0.0,0.0,0.0,-0.31392000000000003,-0.24525000000000002,9.819809999999999
6656565590,22.16,0.0,0.0,0.0,-0.30411,-0.25506,9.81
6661616095,22.16,0.0,0.0,0.0,-0.27468000000000004,-0.24525000000000002,9.84924
6666666600,22.16,0.0,0.0,0.0,-0.2943,-0.26487,9.83943
6671717105,22.16,0.0,0.0,0.0,-0.32373,-0.25506,9.82962
6676767610,22.16,0.0,0.0,0.0,-0.28449,-0.24525000000000002,9.82962
6681818115,22.16,0.0,0.0,0.0,-0.2943,-0.23544,9.82962
6686868620,22.16,0.0,0.0,0.0,-0.30411,-0.26487,9.82962
6691919125,22.16,0.0,0.0,0.0,-0.31392000000000003,-0.24525000000000002,9.81
6696969630,22.16,0.0,0.0,0.0,-0.30411,-0.22563,9.83943
6702020135,22.16,0.0,0.0,0.0,-0.30411,-0.25506,9.83943
6707070640,22.16,0.0,0.0,0.0,-0.32373,-0.25506,9.84924
6712121145,22.16,0.0,0.0,0.0,-0.2943,-0.25506,9.819809999999999
6717171650,22.16,0.0,0.0,0.0,-0.32373,-0.26487,9.84924
6722222155,22.16,0.0,0.0,0.0,-0.30411,-0.26487,9.83943
6727272660,22.16,0.0,0.0,0.0,-0.2943,-0.25506,9.82962
6732323165,22.16,0.0,0.0,0.0,-0.2943,-0.27468000000000004,9.83943
6737373670,22.16,0.0,0.0,0.0,-0.28449,-0.23544,9.819809999999999
6742424175,22.16,0.0,0.0,0.0,-0.31392000000000003,-0.24525000000000002,9.819809999999999
6747474680,22.16,0.0,0.0,0.0,-0.2943,-0.24525000000000002,9.82962
6752525185,22.16,0.0,0.0,0.0,-0.27468000000000004,-0.25506,9.83943
6757575690,22.16,0.0,0.0,0.0,-0.31392000000000003,-0.25506,9.83943
6762626195,22.16,0.0,0.0,0.0,-0.26487,-0.25506,9.819809999999999
6767676700,22.16,0.0,0.0,0.0,-0.30411,-0.26487,9.819809999999999
6772727205,22.16,0.0,0.0,0.0,-0.28449,-0.27468000000000004,9.84924
6777777710,22.16,0.0,0.0,0.0,-0.2943,-0.23544,9.82962
6782828215,22.16,0.0,0.0,0.0,-0.2943,-0.21582,9.83943
6787878720,22.16,0.0,0.0,0.0,-0.31392000000000003,-0.25506,9.82962
6792929225,22.16,0.0,0.0,0.0,-0.30411,-0.25506,9.83943
6797979730,22.16,0.0,0.0,0.0,-0.28449,-0.24525000000000002,9.84924
6803030235,22.16,0.0,0.0,0.0,-0.27468000000000004,-0.25506,9.819809999999999
6808080740,22.16,0.0,0.0,0.0,-0.28449,-0.23544,9.83943
6813131245,22.16,0.0,0.0,0.0,-0.30411,-0.23544,9.83943
6818181750,22.16,0.0,0.0,0.0,-0.30411,-0.24525000000000002,9.83943
6823232255,22.16,0.0,0.0,0.0,-0.2943,-0.24525000000000002,9.819809999999999
6828282760,22.16,0.0,0.0,0.0,-0.2943,-0.23544,9.82962
6833333265,22.16,0.0,0.0,0.0,-0.28449,-0.22563,9.83943
6838383770,22.16,0.0,0.0,0.0,-0.2943,-0.24525000000000002,9.82962
6843434275,22.16,0.0,0.0,0.0,-0.30411,-0.23544,9.80019
6848484780,22.16,0.0,0.0,0.0,-0.28449,-0.25506,9.819809999999999
6853535285,22.16,0.0,0.0,0.0,-0.2943,-0.24525000000000002,9.80019
6858585790,22.16,0.0,0.0,0.0,-0.31392000000000003,-0.24525000000000002,9.82962
6863636295,22.16,0.0,0.0,0.0,-0.2943,-0.25506,9.81
6868686800,22.16,0.0,0.0,0.0,-0.30411,-0.25506,9.819809999999999
6873737305,22.16,0.0,0.0,0.0,-0.31392000000000003,-0.23544,9.83943
6878787810,22.16,0.0,0.0,0.0,-0.30411,-0.25506,9.819809999999999
6883838315,22.16,0.0,0.0,0.0,-0.27468000000000004,-0.27468000000000004,9.819809999999999
6888888820,22.16,0.0,0.0,0.0,-0.31392000000000003,-0.26487,9.819809999999999
6893939325,22.16,0.0,0.0,0.0,-0.30411,-0.24525000000000002,9.83943
6898989830,22.16,0.0,0.0,0.0,-0.26487,-0.23544,9.83943
6904040335,22.16,0.0,0.0,0.0,-0.2943,-0.24525000000000002,9.83943
6909090840,22.16,0.0,0.0,0.0,-0.32373,-0.26487,9.83943
6914141345,22.16,0.0,0.0,0.0,-0.2943,-0.24525000000000002,9.82962
6919191850,22.16,0.0,0.0,0.0,-0.30411,-0.27468000000000004,9.819809999999999
6924242355,22.16,0.0,0.0,0.0,-0.30411,-0.24525000000000002,9.83943
6929292860,22.16,0.0,0.0,0.0,-0.2943,-0.22563,9.82962
6934343365,22.16,0.0,0.0,0.0,-0.30411,-0.27468000000000004,9.82962
6939393870,22.16,0.0,0.0,0.0,-0.30411,-0.25506,9.83943
6944444375,22.16,0.0,0.0,0.0,-0.2943,-0.24525000000000002,9.82962
6949494880,22.16,0.0,0.0,0.0,-0.27468000000000004,-0.24525000000000002,9.84924
6954545385,22.16,0.0,0.0,0.0,-0.28449,-0.26487,9.81
6959595890,22.16,0.0,0.0,0.0,-0.2943,-0.24525000000000002,9.84924
6964646395,22.16,0.0,0.0,0.0,-0.30411,-0.25506,9.84924
6969696900,22.16,0.0,0.0,0.0,-0.28449,-0.25506,9.84924
6974747405,22.16,0.0,0.0,0.0,-0.31392000000000003,-0.26487,9.82962
6979797910,22.16,0.0,0.0,0.0,-0.30411,-0.28449,9.82962
6984848415,22.16,0.0,0.0,0.0,-0.27468000000000004,-0.26487,9.84924
6989898920,22.16,0.0,0.0,0.0,-0.2943,-0.26487,9.82962
6994949425,22.16,0.0,0.0,0.0,-0.31392000000000003,-0.25506,9.83943
6999999930,22.16,0.0,0.0,0.0,-0.28449,-0.27468000000000004,9.84924
7005050435,22.16,0.0,0.0,0.0,-0.28449,-0.25506,9.81
7010100940,22.16,0.0,0.0,0.0,-0.33354000000000006,-0.22563,9.819809999999999
7015151445,22.16,0.0,0.0,0.0,-0.26487,-0.23544,9.82962
7020201950,22.16,0.0,0.0,0.0,-0.2943,-0.26487,9.81
7025252455,22.16,0.0,0.0,0.0,-0.28449,-0.27468000000000004,9.83943
7030302960,22.16,0.0,0.0,0.0,-0.31392000000000003,-0.26487,9.819809999999999
7035353465,22.16,0.0,0.0,0.0,-0.31392000000000003,-0.25506,9.82962
7040403970,22.16,0.0,0.0,0.0,-0.30411,-0.23544,9.82962
7045454475,22.16,0.0,0.0,0.0,-0.30411,-0.26487,9.85905
7050504980,22.16,0.0,0.0,0.0,-0.28449,-0.25506,9.819809999999999
7055555485,22.16,0.0,0.0,0.0,-0.2943,-0.26487,9.82962
7060605990,22.16,0.0,0.0,0.0,-0.31392000000000003,-0.26487,9.819809999999999
7065656495,22.16,0.0,0.0,0.0,-0.32373,-0.23544,9.83943
7070707000,22.16,0.0,0.0,0.0,-0.28449,-0.24525000000000002,9.84924
7075757505,22.16,0.0,0.0,0.0,-0.2943,-0.26487,9.819809999999999
7080808010,22.16,0.0,0.0,0.0,-0.2943,-0.25506,9.819809999999999
7085858515,22.16,0.0,0.0,0.0,-0.2943,-0.25506,9.819809999999999
7090909020,22.16,0.0,0.0,0.0,-0.2943,-0.26487,9.82962
7095959525,22.16,0.0,0.0,0.0,-0.28449,-0.24525000000000002,9.84924
7101010030,22.16,0.0,0.0,0.0,-0.30411,-0.24525000000000002,9.82962
7106060535,22.16,0.0,0.0,0.0,-0.30411,-0.24525000000000002,9.82962
7111111040,22.16,0.0,0.0,0.0,-0.30411,-0.23544,9.82962
7116161545,22.16,0.0,0.0,0.0,-0.28449,-0.24525000000000002,9.85905
7121212050,22.16,0.0,0.0,0.0,-0.30411,-0.25506,9.83943
7126262555,22.16,0.0,0.0,0.0,-0.30411,-0.25506,9.84924
7131313060,22.16,0.0,0.0,0.0,-0.2943,-0.23544,9.82962
7136363565,22.16,0.0,0.0,0.0,-0.2943,-0.25506,9.819809999999999
7141414070,22.16,0.0,0.0,0.0,-0.30411,-0.22563,9.819809999999999
7146464575,22.16,0.0,0.0,0.0,-0.30411,-0.22563,9.82962
7151515080,22.16,0.0,0.0,0.0,-0.28449,-0.24525000000000002,9.83943
7156565585,22.16,0.0,0.0,0.0,-0.30411,-0.28449,9.819809999999999
7161616090,22.16,0.0,0.0,0.0,-0.30411,-0.24525000000000002,9.819809999999999
7166666595,22.16,0.0,0.0,0.0,-0.30411,-0.27468000000000004,9.83943
7171717100,22.16,0.0,0.0,0.0,-0.2943,-0.23544,9.85905
7176767605,22.16,0.0,0.0,0.0,-0.30411,-0.24525000000000002,9.819809999999999
7181818110,22.16,0.0,0.0,0.0,-0.30411,-0.22563,9.819809999999999
7186868615,22.16,0.0,0.0,0.0,-0.2943,-0.23544,9.83943
7191919120,22.16,0.0,0.0,0.0,-0.26487,-0.26487,9.83943
7196969625,22.16,0.0,0.0,0.0,-0.28449,-0.22563,9.819809999999999
7202020130,22.16,0.0,0.0,0.0,-0.27468000000000004,-0.25506,9.82962
7207070635,22.16,0.0,0.0,0.0,-0.27468000000000004,-0.26487,9.82962
7212121140,22.16,0.0,0.0,0.0,-0.31392000000000003,-0.25506,9.83943
7217171645,22.16,0.0,0.0,0.0,-0.2943,-0.23544,9.83943
7222222150,22.16,0.0,0.0,0.0,-0.27468000000000004,-0.25506,9.82962
7227272655,22.16,0.0,0.0,0.0,-0.2943,-0.27468000000000004,9.82962
7232323160,22.16,0.0,0.0,0.0,-0.2943,-0.24525000000000002,9.819809999999999
7237373665,22.16,0.0,0.0,0.0,-0.27468000000000004,-0.24525000000000002,9.819809999999999
7242424170,22.16,0.0,0.0,0.0,-0.2943,-0.26487,9.819809999999999
7247474675,22.16,0.0,0.0,0.0,-0.31392000000000003,-0.25506,9.84924
7252525180,22.16,0.0,0.0,0.0,-0.2943,-0.24525000000000002,9.84924
7257575685,22.16,0.0,0.0,0.0,-0.31392000000000003,-0.26487,9.819809999999999
7262626190,22.16,0.0,0.0,0.0,-0.31392000000000003,-0.24525000000000002,9.819809999999999
7267676695,22.16,0.0,0.0,0.0,-0.2943,-0.27468000000000004,9.81
7272727200,22.16,0.0,0.0,0.0,-0.31392000000000003,-0.27468000000000004,9.82962
7277777705,22.16,0.0,0.0,0.0,-0.31392000000000003,-0.27468000000000004,9.819809999999999
7282828210,22.16,0.0,0.0,0.0,-0.2943,-0.23544,9.819809999999999
7287878715,22.16,0.0,0.0,0.0,-0.30411,-0.23544,9.82962
7292929220,22.16,0.0,0.0,0.0,-0.30411,-0.24525000000000002,9.82962
7297979725,22.16,0.0,0.0,0.0,-0.33354000000000006,-0.25506,9.81
7303030230,22.16,0.0,0.0,0.0,-0.28449,-0.24525000000000002,9.85905
7308080735,22.16,0.0,0.0,0.0,-0.2943,-0.26487,9.83943
7313131240,22.16,0.0,0.0,0.0,-0.30411,-0.22563,9.83943
7318181745,22.16,0.0,0.0,0.0,-0.28449,-0.26487,9.819809999999999
7323232250,22.16,0.0,0.0,0.0,-0.27468000000000004,-0.24525000000000002,9.83943
7328282755,22.16,0.0,0.0,0.0,-0.28449,-0.25506,9.82962
7333333260,22.16,0.0,0.0,0.0,-0.32373,-0.22563,9.82962
7338383765,22.16,0.0,0.0,0.0,-0.31392000000000003,-0.25506,9.83943
7343434270,22.16,0.0,0.0,0.0,-0.30411,-0.23544,9.83943
7348484775,22.16,0.0,0.0,0.0,-0.28449,-0.23544,9.84924
7353535280,22.16,0.0,0.0,0.0,-0.31392000000000003,-0.25506,9.81
7358585785,22.16,0.0,0.0,0.0,-0.31392000000000003,-0.20601000000000003,9.83943
7363636290,22.16,0.0,0.0,0.0,-0.30411,-0.24525000000000002,9.83943
7368686795,22.16,0.0,0.0,0.0,-0.28449,-0.22563,9.82962
7373737300,22.16,0.0,0.0,0.0,-0.28449,-0.27468000000000004,9.82962
7378787805,22.16,0.0,0.0,0.0,-0.2943,-0.26487,9.83943
7383838310,22.16,0.0,0.0,0.0,-0.27468000000000004,-0.26487,9.81
7388888815,22.16,0.0,0.0,0.0,-0.30411,-0.25506,9.82962
7393939320,22.16,0.0,0.0,0.0,-0.2943,-0.27468000000000004,9.82962
7398989825,22.16,0.0,0.0,0.0,-0.27468000000000004,-0.23544,9.84924
7404040330,22.16,0.0,0.0,0.0,-0.28449,-0.25506,9.81
7409090835,22.16,0.0,0.0,0.0,-0.31392000000000003,-0.25506,9.819809999999999
7414141340,22.16,0.0,0.0,0.0,-0.2943,-0.24525000000000002,9.819809999999999
7419191845,22.16,0.0,0.0,0.0,-0.30411,-0.24525000000000002,9.82962
7424242350,22.16,0.0,0.0,0.0,-0.31392000000000003,-0.25506,9.819809999999999
7429292855,22.16,0.0,0.0,0.0,-0.2943,-0.24525000000000002,9.819809999999999
7434343360,22.16,0.0,0.0,0.0,-0.28449,-0.23544,9.81
7439393865,22.16,0.0,0.0,0.0,-0.31392000000000003,-0.22563,9.85905
7444444370,22.16,0.0,0.0,0.0,-0.30411,-0.25506,9.819809999999999
7449494875,22.16,0.0,0.0,0.0,-0.2943,-0.27468000000000004,9.819809999999999
7454545380,22.16,0.0,0.0,0.0,-0.30411,-0.27468000000000004,9.83943
7459595885,22.16,0.0,0.0,0.0,-0.30411,-0.23544,9.82962
7464646390,22.16,0.0,0.0,0.0,-0.2943,-0.24525000000000002,9.82962
7469696895,22.16,0.0,0.0,0.0,-0.32373,-0.24525000000000002,9.83943
7474747400,22.16,0.0,0.0,0.0,-0.28449,-0.23544,9.83943
7479797905,22.16,0.0,0.0,0.0,-0.2943,-0.24525000000000002,9.819809999999999
7484848410,22.16,0.0,0.0,0.0,-0.32373,-0.24525000000000002,9.82962
7489898915,22.16,0.0,0.0,0.0,-0.2943,-0.24525000000000002,9.819809999999999
7494949420,22.16,0.0,0.0,0.0,-0.2943,-0.26487,9.80019
7499999925,22.16,0.0,0.0,0.0,-0.31392000000000003,-0.24525000000000002,9.819809999999999
7505050430,22.16,0.0,0.0,0.0,-0.2943,-0.26487,9.82962
7510100935,22.16,0.0,0.0,0.0,-0.31392000000000003,-0.26487,9.84924
7515151440,22.16,0.0,0.0,0.0,-0.28449,-0.26487,9.82962
7520201945,22.16,0.0,0.0,0.0,-0.2943,-0.25506,9.84924
7525252450,22.16,0.0,0.0,0.0,-0.28449,-0.24525000000000002,9.83943
7530302955,22.16,0.0,0.0,0.0,-0.30411,-0.26487,9.82962
7535353460,22.16,0.0,0.0,0.0,-0.30411,-0.25506,9.819809999999999
7540403965,22.16,0.0,0.0,0.0,-0.28449,-0.22563,9.81
7545454470,22.16,0.0,0.0,0.0,-0.30411,-0.25506,9.83943
7550504975,22.16,0.0,0.0,0.0,-0.32373,-0.23544,9.81
7555555480,22.16,0.0,0.0,0.0,-0.2943,-0.23544,9.86886
7560605985,22.16,0.0,0.0,0.0,-0.2943,-0.24525000000000002,9.81
7565656490,22.16,0.0,0.0,0.0,-0.30411,-0.27468000000000004,9.82962
7570706995,22.16,0.0,0.0,0.0,-0.30411,-0.23544,9.84924
7575757500,22.16,0.0,0.0,0.0,-0.30411,-0.24525000000000002,9.83943
7580808005,22.16,0.0,0.0,0.0,-0.2943,-0.27468000000000004,9.819809999999999
7585858510,22.16,0.0,0.0,0.0,-0.28449,-0.24525000000000002,9.83943
7590909015,22.16,0.0,0.0,0.0,-0.31392000000000003,-0.26487,9.84924
7595959520,22.16,0.0,0.0,0.0,-0.28449,-0.24525000000000002,9.81
7601010025,22.16,0.0,0.0,0.0,-0.2943,-0.23544,9.819809999999999
7606060530,22.16,0.0,0.0,0.0,-0.30411,-0.26487,9.81
7611111035,22.16,0.0,0.0,0.0,-0.32373,-0.25506,9.83943
7616161540,22.16,0.0,0.0,0.0,-0.28449,-0.22563,9.84924
7621212045,22.16,0.0,0.0,0.0,-0.27468000000000004,-0.24525000000000002,9.82962
7626262550,22.16,0.0,0.0,0.0,-0.30411,-0.24525000000000002,9.82962
7631313055,22.16,0.0,0.0,0.0,-0.31392000000000003,-0.23544,9.82962
7636363560,22.16,0.0,0.0,0.0,-0.28449,-0.23544,9.84924
7641414065,22.16,0.0,0.0,0.0,-0.28449,-0.25506,9.82962
7646464570,22.16,0.0,0.0,0.0,-0.2943,-0.25506,9.82962
7651515075,22.16,0.0,0.0,0.0,-0.26487,-0.23544,9.86886
7656565580,22.16,0.0,0.0,0.0,-0.30411,-0.26487,9.82962
7661616085,22.16,0.0,0.0,0.0,-0.31392000000000003,-0.26487,9.82962
7666666590,22.16,0.0,0.0,0.0,-0.30411,-0.25506,9.85905
7671717095,22.16,0.0,0.0,0.0,-0.28449,-0.23544,9.84924
7676767600,22.16,0.0,0.0,0.0,-0.30411,-0.26487,9.819809999999999
7681818105,22.16,0.0,0.0,0.0,-0.30411,-0.27468000000000004,9.82962
7686868610,22.16,0.0,0.0,0.0,-0.30411,-0.22563,9.81
7691919115,22.16,0.0,0.0,0.0,-0.28449,-0.25506,9.84924
7696969620,22.16,0.0,0.0,0.0,-0.2943,-0.25506,9.81
7702020125,22.16,0.0,0.0,0.0,-0.30411,-0.24525000000000002,9.82962
7707070630,22.16,0.0,0.0,0.0,-0.27468000000000004,-0.25506,9.82962
7712121135,22.16,0.0,0.0,0.0,-0.30411,-0.24525000000000002,9.81
7717171640,22.16,0.0,0.0,0.0,-0.31392000000000003,-0.26487,9.82962
7722222145,22.16,0.0,0.0,0.0,-0.2943,-0.24525000000000002,9.819809999999999
7727272650,22.16,0.0,0.0,0.0,-0.2943,-0.23544,9.83943
7732323155,22.16,0.0,0.0,0.0,-0.28449,-0.26487,9.819809999999999
7737373660,22.16,0.0,0.0,0.0,-0.2943,-0.23544,9.82962
7742424165,22.16,0.0,0.0,0.0,-0.2943,-0.24525000000000002,9.83943
7747474670,22.16,0.0,0.0,0.0,-0.31392000000000003,-0.24525000000000002,9.819809999999999
7752525175,22.16,0.0,0.0,0.0,-0.33354000000000006,-0.23544,9.81
7757575680,22.16,0.0,0.0,0.0,-0.31392000000000003,-0.25506,9.84924
7762626185,22.16,0.0,0.0,0.0,-0.2943,-0.25506,9.83943
7767676690,22.16,0.0,0.0,0.0,-0.28449,-0.23544,9.819809999999999
7772727195,22.16,0.0,0.0,0.0,-0.28449,-0.25506,9.819809999999999
7777777700,22.16,0.0,0.0,0.0,-0.27468000000000004,-0.26487,9.82962
7782828205,22.16,0.0,0.0,0.0,-0.28449,-0.24525000000000002,9.83943
7787878710,22.16,0.0,0.0,0.0,-0.2943,-0.24525000000000002,9.81
7792929215,22.16,0.0,0.0,0.0,-0.2943,-0.25506,9.81
7797979720,22.16,0.0,0.0,0.0,-0.2943,-0.26487,9.819809999999999
7803030225,22.16,0.0,0.0,0.0,-0.2943,-0.23544,9.84924
7808080730,22.16,0.0,0.0,0.0,-0.27468000000000004,-0.24525000000000002,9.84924
7813131235,22.16,0.0,0.0,0.0,-0.2943,-0.25506,9.82962
7818181740,22.16,0.0,0.0,0.0,-0.31392000000000003,-0.25506,9.84924
7823232245,22.16,0.0,0.0,0.0,-0.30411,-0.24525000000000002,9.81
7828282750,22.16,0.0,0.0,0.0,-0.28449,-0.23544,9.819809999999999
7833333255,22.16,0.0,0.0,0.0,-0.27468000000000004,-0.23544,9.82962
7838383760,22.16,0.0,0.0,0.0,-0.30411,-0.24525000000000002,9.82962
7843434265,22.16,0.0,0.0,0.0,-0.2943,-0.24525000000000002,9.83943
7848484770,22.16,0.0,0.0,0.0,-0.31392000000000003,-0.23544,9.83943
7853535275,22.16,0.0,0.0,0.0,-0.30411,-0.26487,9.84924
7858585780,22.16,0.0,0.0,0.0,-0.32373,-0.24525000000000002,9.83943
7863636285,22.16,0.0,0.0,0.0,-0.31392000000000003,-0.25506,9.84924
7868686790,22.16,0.0,0.0,0.0,-0.2943,-0.25506,9.819809999999999
7873737295,22.16,0.0,0.0,0.0,-0.28449,-0.23544,9.81
7878787800,22.16,0.0,0.0,0.0,-0.32373,-0.24525000000000002,9.819809999999999
7883838305,22.16,0.0,0.0,0.0,-0.30411,-0.25506,9.82962
7888888810,22.16,0.0,0.0,0.0,-0.28449,-0.24525000000000002,9.83943
7893939315,22.16,0.0,0.0,0.0,-0.30411,-0.26487,9.81
7898989820,22.16,0.0,0.0,0.0,-0.32373,-0.27468000000000004,9.82962
7904040325,22.16,0.0,0.0,0.0,-0.27468000000000004,-0.23544,9.82962
7909090830,22.16,0.0,0.0,0.0,-0.2943,-0.23544,9.819809999999999
7914141335,22.16,0.0,0.0,0.0,-0.30411,-0.27468000000000004,9.819809999999999
7919191840,22.16,0.0,0.0,0.0,-0.32373,-0.22563,9.82962
7924242345,22.16,0.0,0.0,0.0,-0.2943,-0.24525000000000002,9.81
7929292850,22.16,0.0,0.0,0.0,-0.27468000000000004,-0.28449,9.819809999999999
7934343355,22.16,0.0,0.0,0.0,-0.32373,-0.24525000000000002,9.81
7939393860,22.16,0.0,0.0,0.0,-0.28449,-0.24525000000000002,9.83943
7944444365,22.16,0.0,0.0,0.0,-0.2943,-0.27468000000000004,9.82962
7949494870,22.16,0.0,0.0,0.0,-0.2943,-0.25506,9.83943
7954545375,22.16,0.0,0.0,0.0,-0.30411,-0.25506,9.84924
7959595880,22.16,0.0,0.0,0.0,-0.27468000000000004,-0.26487,9.82962
7964646385,22.16,0.0,0.0,0.0,-0.2943,-0.25506,9.82962
7969696890,22.16,0.0,0.0,0.0,-0.30411,-0.23544,9.83943
7974747395,22.16,0.0,0.0,0.0,-0.27468000000000004,-0.24525000000000002,9.83943
7979797900,22.16,0.0,0.0,0.0,-0.32373,-0.25506,9.83943
7984848405,22.16,0.0,0.0,0.0,-0.32373,-0.24525000000000002,9.83943
7989898910,22.16,0.0,0.0,0.0,-0.30411,-0.24525000000000002,9.81
7994949415,22.16,0.0,0.0,0.0,-0.2943,-0.24525000000000002,9.83943
7999999920,22.16,0.0,0.0,0.0,-0.2943,-0.25506,9.83943
8005050425,22.16,0.0,0.0,0.0,-0.30411,-0.23544,9.83943
8010100930,22.16,0.0,0.0,0.0,-0.30411,-0.22563,9.86886
8015151435,22.16,0.0,0.0,0.0,-0.2943,-0.25506,9.819809999999999
8020201940,22.16,0.0,0.0,0.0,-0.32373,-0.24525000000000002,9.82962
8025252445,22.16,0.0,0.0,0.0,-0.2943,-0.26487,9.83943
8030302950,22.16,0.0,0.0,0.0,-0.2943,-0.24525000000000002,9.85905
8035353455,22.16,0.0,0.0,0.0,-0.30411,-0.25506,9.82962
8040403960,22.16,0.0,0.0,0.0,-0.27468000000000004,-0.24525000000000002,9.83943
8045454465,22.16,0.0,0.0,0.0,-0.31392000000000003,-0.24525000000000002,9.83943
8050504970,22.16,0.0,0.0,0.0,-0.30411,-0.23544,9.83943
8055555475,22.16,0.0,0.0,0.0,-0.28449,-0.24525000000000002,9.83943
8060605980,22.16,0.0,0.0,0.0,-0.2943,-0.26487,9.82962
8065656485,22.16,0.0,0.0,0.0,-0.28449,-0.24525000000000002,9.82962
8070706990,22.16,0.0,0.0,0.0,-0.31392000000000003,-0.24525000000000002,9.83943
8075757495,22.16,0.0,0.0,0.0,-0.2943,-0.23544,9.84924
8080808000,22.16,0.0,0.0,0.0,-0.30411,-0.23544,9.81
8085858505,22.16,0.0,0.0,0.0,-0.31392000000000003,-0.25506,9.83943
8090909010,22.16,0.0,0.0,0.0,-0.28449,-0.25506,9.83943
8095959515,22.16,0.0,0.0,0.0,-0.32373,-0.24525000000000002,9.82962
8101010020,22.16,0.0,0.0,0.0,-0.31392000000000003,-0.25506,9.84924
8106060525,22.16,0.0,0.0,0.0,-0.2943,-0.24525000000000002,9.81
8111111030,22.16,0.0,0.0,0.0,-0.2943,-0.26487,9.82962
8116161535,22.16,0.0,0.0,0.0,-0.31392000000000003,-0.25506,9.84924
8121212040,22.16,0.0,0.0,0.0,-0.2943,-0.23544,9.81
8126262545,22.16,0.0,0.0,0.0,-0.28449,-0.25506,9.83943
8131313050,22.16,0.0,0.0,0.0,-0.2943,-0.25506,9.82962
8136363555,22.16,0.0,0.0,0.0,-0.33354000000000006,-0.26487,9.83943
8141414060,22.16,0.0,0.0,0.0,-0.2943,-0.26487,9.83943
8146464565,22.16,0.0,0.0,0.0,-0.2943,-0.21582,9.819809999999999
8151515070,22.16,0.0,0.0,0.0,-0.2943,-0.24525000000000002,9.82962
8156565575,22.16,0.0,0.0,0.0,-0.30411,-0.27468000000000004,9.819809999999999
8161616080,22.16,0.0,0.0,0.0,-0.32373,-0.25506,9.82962
8166666585,22.16,0.0,0.0,0.0,-0.31392000000000003,-0.25506,9.819809999999999
8171717090,22.16,0.0,0.0,0.0,-0.31392000000000003,-0.27468000000000004,9.82962
8176767595,22.16,0.0,0.0,0.0,-0.2943,-0.25506,9.819809999999999
8181818100,22.16,0.0,0.0,0.0,-0.30411,-0.25506,9.819809999999999
8186868605,22.16,0.0,0.0,0.0,-0.2943,-0.24525000000000002,9.83943
8191919110,22.16,0.0,0.0,0.0,-0.2943,-0.24525000000000002,9.819809999999999
8196969615,22.16,0.0,0.0,0.0,-0.31392000000000003,-0.24525000000000002,9.82962
8202020120,22.16,0.0,0.0,0.0,-0.30411,-0.26487,9.83943
8207070625,22.16,0.0,0.0,0.0,-0.27468000000000004,-0.23544,9.84924
8212121130,22.16,0.0,0.0,0.0,-0.2943,-0.25506,9.81
8217171635,22.16,0.0,0.0,0.0,-0.31392000000000003,-0.24525000000000002,9.82962
8222222140,22.16,0.0,0.0,0.0,-0.2943,-0.25506,9.819809999999999
8227272645,22.16,0.0,0.0,0.0,-0.27468000000000004,-0.24525000000000002,9.84924
8232323150,22.16,0.0,0.0,0.0,-0.33354000000000006,-0.27468000000000004,9.82962
8237373655,22.16,0.0,0.0,0.0,-0.2943,-0.24525000000000002,9.82962
8242424160,22.16,0.0,0.0,0.0,-0.30411,-0.25506,9.84924
8247474665,22.16,0.0,0.0,0.0,-0.30411,-0.24525000000000002,9.83943
8252525170,22.16,0.0,0.0,0.0,-0.33354000000000006,-0.26487,9.819809999999999
8257575675,22.16,0.0,0.0,0.0,-0.31392000000000003,-0.23544,9.83943
8262626180,22.16,0.0,0.0,0.0,-0.2943,-0.27468000000000004,9.83943
8267676685,22.16,0.0,0.0,0.0,-0.30411,-0.23544,9.83943
8272727190,22.16,0.0,0.0,0.0,-0.28449,-0.27468000000000004,9.84924
8277777695,22.16,0.0,0.0,0.0,-0.31392000000000003,-0.23544,9.82962
8282828200,22.16,0.0,0.0,0.0,-0.2943,-0.23544,9.85905
8287878705,22.16,0.0,0.0,0.0,-0.30411,-0.25506,9.82962
8292929210,22.16,0.0,0.0,0.0,-0.30411,-0.23544,9.819809999999999
8297979715,22.16,0.0,0.0,0.0,-0.30411,-0.25506,9.83943
8303030220,22.16,0.0,0.0,0.0,-0.2943,-0.25506,9.82962
8308080725,22.16,0.0,0.0,0.0,-0.26487,-0.25506,9.82962
8313131230,22.16,0.0,0.0,0.0,-0.32373,-0.24525000000000002,9.819809999999999
8318181735,22.16,0.0,0.0,0.0,-0.28449,-0.24525000000000002,9.82962
8323232240,22.16,0.0,0.0,0.0,-0.2943,-0.22563,9.82962
8328282745,22.16,0.0,0.0,0.0,-0.32373,-0.25506,9.819809999999999
8333333250,22.16,0.0,0.0,0.0,-0.32373,-0.25506,9.82962
8338383755,22.16,0.0,0.0,0.0,-0.30411,-0.23544,9.82962
8343434260,22.16,0.0,0.0,0.0,-0.28449,-0.25506,9.81
8348484765,22.16,0.0,0.0,0.0,-0.2943,-0.27468000000000004,9.819809999999999
8353535270,22.16,0.0,0.0,0.0,-0.27468000000000004,-0.25506,9.82962
8358585775,22.16,0.0,0.0,0.0,-0.28449,-0.24525000000000002,9.83943
8363636280,22.16,0.0,0.0,0.0,-0.31392000000000003,-0.24525000000000002,9.83943
8368686785,22.16,0.0,0.0,0.0,-0.30411,-0.22563,9.82962
8373737290,22.16,0.0,0.0,0.0,-0.30411,-0.25506,9.819809999999999
8378787795,22.16,0.0,0.0,0.0,-0.31392000000000003,-0.27468000000000004,9.83943
8383838300,22.16,0.0,0.0,0.0,-0.2943,-0.24525000000000002,9.82962
8388888805,22.16,0.0,0.0,0.0,-0.30411,-0.26487,9.81
8393939310,22.16,0.0,0.0,0.0,-0.28449,-0.27468000000000004,9.83943
8398989815,22.16,0.0,0.0,0.0,-0.28449,-0.25506,9.83943
8404040320,22.16,0.0,0.0,0.0,-0.28449,-0.25506,9.81
8409090825,22.16,0.0,0.0,0.0,-0.2943,-0.25506,9.82962
8414141330,22.16,0.0,0.0,0.0,-0.32373,-0.26487,9.819809999999999
8419191835,22.16,0.0,0.0,0.0,-0.2943,-0.25506,9.83943
8424242340,22.16,0.0,0.0,0.0,-0.30411,-0.25506,9.819809999999999
8429292845,22.16,0.0,0.0,0.0,-0.28449,-0.23544,9.819809999999999
8434343350,22.16,0.0,0.0,0.0,-0.30411,-0.25506,9.82962
8439393855,22.16,0.0,0.0,0.0,-0.28449,-0.22563,9.84924
8444444360,22.16,0.0,0.0,0.0,-0.28449,-0.26487,9.81
8449494865,22.16,0.0,0.0,0.0,-0.33354000000000006,-0.25506,9.82962
8454545370,22.16,0.0,0.0,0.0,-0.2943,-0.24525000000000002,9.83943
8459595875,22.16,0.0,0.0,0.0,-0.28449,-0.23544,9.82962
8464646380,22.16,0.0,0.0,0.0,-0.2943,-0.25506,9.82962
8469696885,22.16,0.0,0.0,0.0,-0.2943,-0.26487,9.84924
8474747390,22.16,0.0,0.0,0.0,-0.30411,-0.26487,9.81
8479797895,22.16,0.0,0.0,0.0,-0.27468000000000004,-0.24525000000000002,9.84924
8484848400,22.16,0.0,0.0,0.0,-0.31392000000000003,-0.26487,9.82962
8489898905,22.16,0.0,0.0,0.0,-0.32373,-0.24525000000000002,9.82962
8494949410,22.16,0.0,0.0,0.0,-0.2943,-0.26487,9.83943
8499999915,22.16,0.0,0.0,0.0,-0.28449,-0.22563,9.83943
8505050420,22.16,0.0,0.0,0.0,-0.31392000000000003,-0.24525000000000002,9.82962
8510100925,22.16,0.0,0.0,0.0,-0.2943,-0.26487,9.819809999999999
8515151430,22.16,0.0,0.0,0.0,-0.32373,-0.22563,9.819809999999999
8520201935,22.16,0.0,0.0,0.0,-0.27468000000000004,-0.26487,9.82962
8525252440,22.16,0.0,0.0,0.0,-0.31392000000000003,-0.28449,9.85905
8530302945,22.16,0.0,0.0,0.0,-0.30411,-0.25506,9.819809999999999
8535353450,22.16,0.0,0.0,0.0,-0.27468000000000004,-0.24525000000000002,9.82962
8540403955,22.16,0.0,0.0,0.0,-0.2943,-0.24525000000000002,9.85905
8545454460,22.16,0.0,0.0,0.0,-0.28449,-0.25506,9.82962
8550504965,22.16,0.0,0.0,0.0,-0.32373,-0.23544,9.83943
8555555470,22.16,0.0,0.0,0.0,-0.28449,-0.24525000000000002,9.83943
8560605975,22.16,0.0,0.0,0.0,-0.28449,-0.28449,9.80019
8565656480,22.16,0.0,0.0,0.0,-0.28449,-0.23544,9.84924
8570706985,22.16,0.0,0.0,0.0,-0.30411,-0.21582,9.82962
8575757490,22.16,0.0,0.0,0.0,-0.31392000000000003,-0.24525000000000002,9.83943
8580807995,22.16,0.0,0.0,0.0,-0.31392000000000003,-0.20601000000000003,9.82962
8585858500,22.16,0.0,0.0,0.0,-0.31392000000000003,-0.23544,9.82962
8590909005,22.16,0.0,0.0,0.0,-0.2943,-0.25506,9.84924
8595959510,22.16,0.0,0.0,0.0,-0.2943,-0.23544,9.85905
8601010015,22.16,0.0,0.0,0.0,-0.31392000000000003,-0.23544,9.83943
8606060520,22.16,0.0,0.0,0.0,-0.31392000000000003,-0.25506,9.82962
8611111025,22.16,0.0,0.0,0.0,-0.2943,-0.24525000000000002,9.84924
8616161530,22.16,0.0,0.0,0.0,-0.2943,-0.23544,9.82962
8621212035,22.16,0.0,0.0,0.0,-0.26487,-0.26487,9.819809999999999
8626262540,22.16,0.0,0.0,0.0,-0.30411,-0.27468000000000004,9.85905
8631313045,22.16,0.0,0.0,0.0,-0.31392000000000003,-0.25506,9.84924
8636363550,22.16,0.0,0.0,0.0,-0.31392000000000003,-0.26487,9.819809999999999
8641414055,22.16,0.0,0.0,0.0,-0.30411,-0.25506,9.819809999999999
8646464560,22.16,0.0,0.0,0.0,-0.32373,-0.24525000000000002,9.819809999999999
8651515065,22.16,0.0,0.0,0.0,-0.2943,-0.23544,9.81
8656565570,22.16,0.0,0.0,0.0,-0.27468000000000004,-0.25506,9.83943
8661616075,22.16,0.0,0.0,0.0,-0.31392000000000003,-0.26487,9.82962
8666666580,22.16,0.0,0.0,0.0,-0.27468000000000004,-0.26487,9.83943
8671717085,22.16,0.0,0.0,0.0,-0.30411,-0.24525000000000002,9.83943
8676767590,22.16,0.0,0.0,0.0,-0.28449,-0.23544,9.83943
8681818095,22.16,0.0,0.0,0.0,-0.31392000000000003,-0.24525000000000002,9.84924
8686868600,22.16,0.0,0.0,0.0,-0.34335000000000004,-0.24525000000000002,9.82962
8691919105,22.16,0.0,0.0,0.0,-0.2943,-0.24525000000000002,9.82962
8696969610,22.16,0.0,0.0,0.0,-0.28449,-0.25506,9.82962
8702020115,22.16,0.0,0.0,0.0,-0.2943,-0.24525000000000002,9.82962
8707070620,22.16,0.0,0.0,0.0,-0.2943,-0.24525000000000002,9.819809999999999
8712121125,22.16,0.0,0.0,0.0,-0.31392000000000003,-0.23544,9.81
8717171630,22.16,0.0,0.0,0.0,-0.30411,-0.23544,9.82962
8722222135,22.16,0.0,0.0,0.0,-0.31392000000000003,-0.25506,9.82962
8727272640,22.16,0.0,0.0,0.0,-0.30411,-0.21582,9.82962
8732323145,22.16,0.0,0.0,0.0,-0.31392000000000003,-0.26487,9.819809999999999
8737373650,22.16,0.0,0.0,0.0,-0.30411,-0.26487,9.83943
8742424155,22.16,0.0,0.0,0.0,-0.32373,-0.25506,9.83943
8747474660,22.16,0.0,0.0,0.0,-0.31392000000000003,-0.23544,9.84924
8752525165,22.16,0.0,0.0,0.0,-0.27468000000000004,-0.24525000000000002,9.82962
8757575670,22.16,0.0,0.0,0.0,-0.30411,-0.23544,9.82962
8762626175,22.16,0.0,0.0,0.0,-0.2943,-0.26487,9.82962
8767676680,22.16,0.0,0.0,0.0,-0.30411,-0.27468000000000004,9.84924
8772727185,22.16,0.0,0.0,0.0,-0.2943,-0.25506,9.83943
8777777690,22.16,0.0,0.0,0.0,-0.2943,-0.22563,9.81
8782828195,22.16,0.0,0.0,0.0,-0.30411,-0.25506,9.819809999999999
8787878700,22.16,0.0,0.0,0.0,-0.32373,-0.24525000000000002,9.81
8792929205,22.16,0.0,0.0,0.0,-0.26487,-0.23544,9.82962
8797979710,22.16,0.0,0.0,0.0,-0.30411,-0.26487,9.819809999999999
8803030215,22.16,0.0,0.0,0.0,-0.2943,-0.24525000000000002,9.82962
8808080720,22.16,0.0,0.0,0.0,-0.28449,-0.24525000000000002,9.819809999999999
8813131225,22.16,0.0,0.0,0.0,-0.2943,-0.22563,9.819809999999999
8818181730,22.16,0.0,0.0,0.0,-0.32373,-0.25506,9.82962
8823232235,22.16,0.0,0.0,0.0,-0.28449,-0.23544,9.84924
8828282740,22.16,0.0,0.0,0.0,-0.30411,-0.24525000000000002,9.83943
8833333245,22.16,0.0,0.0,0.0,-0.31392000000000003,-0.27468000000000004,9.83943
8838383750,22.16,0.0,0.0,0.0,-0.31392000000000003,-0.23544,9.84924
8843434255,22.16,0.0,0.0,0.0,-0.30411,-0.27468000000000004,9.819809999999999
8848484760,22.16,0.0,0.0,0.0,-0.32373,-0.24525000000000002,9.82962
8853535265,22.16,0.0,0.0,0.0,-0.2943,-0.25506,9.83943
8858585770,22.16,0.0,0.0,0.0,-0.2943,-0.25506,9.82962
8863636275,22.16,0.0,0.0,0.0,-0.31392000000000003,-0.26487,9.82962
8868686780,22.16,0.0,0.0,0.0,-0.30411,-0.25506,9.80019
8873737285,22.16,0.0,0.0,0.0,-0.28449,-0.23544,9.82962
8878787790,22.16,0.0,0.0,0.0,-0.2943,-0.24525000000000002,9.83943
8883838295,22.16,0.0,0.0,0.0,-0.28449,-0.24525000000000002,9.819809999999999
8888888800,22.16,0.0,0.0,0.0,-0.27468000000000004,-0.24525000000000002,9.82962
8893939305,22.16,0.0,0.0,0.0,-0.30411,-0.26487,9.819809999999999
8898989810,22.16,0.0,0.0,0.0,-0.30411,-0.24525000000000002,9.81
8904040315,22.16,0.0,0.0,0.0,-0.2943,-0.23544,9.82962
8909090820,22.16,0.0,0.0,0.0,-0.31392000000000003,-0.24525000000000002,9.82962
8914141325,22.16,0.0,0.0,0.0,-0.28449,-0.27468000000000004,9.83943
8919191830,22.16,0.0,0.0,0.0,-0.30411,-0.22563,9.82962
8924242335,22.16,0.0,0.0,0.0,-0.26487,-0.24525000000000002,9.84924
8929292840,22.16,0.0,0.0,0.0,-0.26487,-0.25506,9.82962
8934343345,22.16,0.0,0.0,0.0,-0.28449,-0.24525000000000002,9.83943
8939393850,22.16,0.0,0.0,0.0,-0.31392000000000003,-0.24525000000000002,9.81
8944444355,22.16,0.0,0.0,0.0,-0.2943,-0.27468000000000004,9.819809999999999
8949494860,22.16,0.0,0.0,0.0,-0.30411,-0.25506,9.84924
8954545365,22.16,0.0,0.0,0.0,-0.31392000000000003,-0.25506,9.83943
8959595870,22.16,0.0,0.0,0.0,-0.30411,-0.25506,9.82962
8964646375,22.16,0.0,0.0,0.0,-0.32373,-0.23544,9.82962
8969696880,22.16,0.0,0.0,0.0,-0.31392000000000003,-0.24525000000000002,9.83943
8974747385,22.16,0.0,0.0,0.0,-0.27468000000000004,-0.24525000000000002,9.82962
8979797890,22.16,0.0,0.0,0.0,-0.27468000000000004,-0.26487,9.84924
8984848395,22.16,0.0,0.0,0.0,-0.30411,-0.26487,9.83943
8989898900,22.16,0.0,0.0,0.0,-0.28449,-0.25506,9.81
8994949405,22.16,0.0,0.0,0.0,-0.30411,-0.25506,9.83943
8999999910,22.16,0.0,0.0,0.0,-0.33354000000000006,-0.24525000000000002,9.819809999999999
9005050415,22.16,0.0,0.0,0.0,-0.2943,-0.25506,9.82962
9010100920,22.16,0.0,0.0,0.0,-0.31392000000000003,-0.24525000000000002,9.819809999999999
9015151425,22.16,0.0,0.0,0.0,-0.33354000000000006,-0.25506,9.84924
9020201930,22.16,0.0,0.0,0.0,-0.2943,-0.23544,9.82962
9025252435,22.16,0.0,0.0,0.0,-0.28449,-0.28449,9.84924
9030302940,22.16,0.0,0.0,0.0,-0.34335000000000004,-0.25506,9.83943
9035353445,22.16,0.0,0.0,0.0,-0.30411,-0.22563,9.84924
9040403950,22.16,0.0,0.0,0.0,-0.28449,-0.25506,9.82962
9045454455,22.16,0.0,0.0,0.0,-0.30411,-0.25506,9.84924
9050504960,22.16,0.0,0.0,0.0,-0.2943,-0.27468000000000004,9.83943
9055555465,22.16,0.0,0.0,0.0,-0.31392000000000003,-0.23544,9.83943
9060605970,22.16,0.0,0.0,0.0,-0.2943,-0.26487,9.82962
9065656475,22.16,0.0,0.0,0.0,-0.33354000000000006,-0.28449,9.82962
9070706980,22.16,0.0,0.0,0.0,-0.27468000000000004,-0.24525000000000002,9.82962
9075757485,22.16,0.0,0.0,0.0,-0.2943,-0.25506,9.819809999999999
9080807990,22.16,0.0,0.0,0.0,-0.28449,-0.26487,9.819809999999999
9085858495,22.16,0.0,0.0,0.0,-0.26487,-0.25506,9.81
9090909000,22.16,0.0,0.0,0.0,-0.32373,-0.23544,9.84924
9095959505,22.16,0.0,0.0,0.0,-0.27468000000000004,-0.23544,9.82962
9101010010,22.16,0.0,0.0,0.0,-0.28449,-0.23544,9.819809999999999
9106060515,22.16,0.0,0.0,0.0,-0.31392000000000003,-0.24525000000000002,9.83943
9111111020,22.16,0.0,0.0,0.0,-0.2943,-0.24525000000000002,9.819809999999999
9116161525,22.16,0.0,0.0,0.0,-0.28449,-0.24525000000000002,9.82962
9121212030,22.16,0.0,0.0,0.0,-0.2943,-0.26487,9.82962
9126262535,22.16,0.0,0.0,0.0,-0.32373,-0.26487,9.86886
9131313040,22.16,0.0,0.0,0.0,-0.2943,-0.24525000000000002,9.85905
9136363545,22.16,0.0,0.0,0.0,-0.2943,-0.26487,9.83943
9141414050,22.16,0.0,0.0,0.0,-0.28449,-0.2943,9.83943
9146464555,22.16,0.0,0.0,0.0,-0.2943,-0.22563,9.819809999999999
9151515060,22.16,0.0,0.0,0.0,-0.31392000000000003,-0.24525000000000002,9.83943
9156565565,22.16,0.0,0.0,0.0,-0.30411,-0.22563,9.84924
9161616070,22.16,0.0,0.0,0.0,-0.26487,-0.25506,9.84924
9166666575,22.16,0.0,0.0,0.0,-0.28449,-0.25506,9.82962
9171717080,22.16,0.0,0.0,0.0,-0.31392000000000003,-0.23544,9.85905
9176767585,22.16,0.0,0.0,0.0,-0.2943,-0.24525000000000002,9.819809999999999
9181818090,22.16,0.0,0.0,0.0,-0.30411,-0.23544,9.84924
9186868595,22.16,0.0,0.0,0.0,-0.31392000000000003,-0.24525000000000002,9.819809999999999
9191919100,22.16,0.0,0.0,0.0,-0.30411,-0.25506,9.82962
9196969605,22.16,0.0,0.0,0.0,-0.2943,-0.26487,9.83943
9202020110,22.16,0.0,0.0,0.0,-0.33354000000000006,-0.26487,9.83943
9207070615,22.16,0.0,0.0,0.0,-0.27468000000000004,-0.24525000000000002,9.819809999999999
9212121120,22.16,0.0,0.0,0.0,-0.2943,-0.25506,9.82962
9217171625,22.16,0.0,0.0,0.0,-0.30411,-0.25506,9.84924
9222222130,22.16,0.0,0.0,0.0,-0.30411,-0.26487,9.84924
9227272635,22.16,0.0,0.0,0.0,-0.26487,-0.22563,9.83943
9232323140,22.16,0.0,0.0,0.0,-0.2943,-0.26487,9.82962
9237373645,22.16,0.0,0.0,0.0,-0.31392000000000003,-0.23544,9.84924
9242424150,22.16,0.0,0.0,0.0,-0.24525000000000002,-0.22563,9.81
9247474655,22.16,0.0,0.0,0.0,-0.2943,-0.27468000000000004,9.85905
9252525160,22.16,0.0,0.0,0.0,-0.2943,-0.27468000000000004,9.819809999999999
9257575665,22.16,0.0,0.0,0.0,-0.31392000000000003,-0.23544,9.82962
9262626170,22.16,0.0,0.0,0.0,-0.28449,-0.26487,9.84924
9267676675,22.16,0.0,0.0,0.0,-0.33354000000000006,-0.22563,9.819809999999999
9272727180,22.16,0.0,0.0,0.0,-0.2943,-0.24525000000000002,9.82962
9277777685,22.16,0.0,0.0,0.0,-0.30411,-0.25506,9.82962
9282828190,22.16,0.0,0.0,0.0,-0.2943,-0.27468000000000004,9.83943
9287878695,22.16,0.0,0.0,0.0,-0.31392000000000003,-0.22563,9.85905
9292929200,22.16,0.0,0.0,0.0,-0.27468000000000004,-0.25506,9.819809999999999
9297979705,22.16,0.0,0.0,0.0,-0.32373,-0.25506,9.83943
9303030210,22.16,0.0,0.0,0.0,-0.32373,-0.26487,9.86886
9308080715,22.16,0.0,0.0,0.0,-0.28449,-0.20601000000000003,9.84924
9313131220,22.16,0.0,0.0,0.0,-0.30411,-0.30411,9.83943
9318181725,22.16,0.0,0.0,0.0,-0.2943,-0.26487,9.82962
9323232230,22.16,0.0,0.0,0.0,-0.31392000000000003,-0.22563,9.83943
9328282735,22.16,0.0,0.0,0.0,-0.27468000000000004,-0.26487,9.81
9333333240,22.16,0.0,0.0,0.0,-0.31392000000000003,-0.23544,9.82962
9338383745,22.16,0.0,0.0,0.0,-0.31392000000000003,-0.26487,9.819809999999999
9343434250,22.16,0.0,0.0,0.0,-0.26487,-0.23544,9.87867
9348484755,22.16,0.0,0.0,0.0,-0.30411,-0.26487,9.819809999999999
9353535260,22.16,0.0,0.0,0.0,-0.33354000000000006,-0.21582,9.83943
9358585765,22.16,0.0,0.0,0.0,-0.27468000000000004,-0.26487,9.83943
9363636270,22.16,0.0,0.0,0.0,-0.30411,-0.25506,9.82962
9368686775,22.16,0.0,0.0,0.0,-0.2943,-0.24525000000000002,9.82962
9373737280,22.16,0.0,0.0,0.0,-0.30411,-0.24525000000000002,9.819809999999999
9378787785,22.16,0.0,0.0,0.0,-0.28449,-0.27468000000000004,9.85905
9383838290,22.16,0.0,0.0,0.0,-0.30411,-0.27468000000000004,9.81
9388888795,22.16,0.0,0.0,0.0,-0.2943,-0.25506,9.83943
9393939300,22.16,0.0,0.0,0.0,-0.30411,-0.25506,9.83943
9398989805,22.16,0.0,0.0,0.0,-0.30411,-0.26487,9.81
9404040310,22.16,0.0,0.0,0.0,-0.30411,-0.24525000000000002,9.84924
9409090815,22.16,0.0,0.0,0.0,-0.30411,-0.23544,9.82962
9414141320,22.16,0.0,0.0,0.0,-0.27468000000000004,-0.26487,9.80019
9419191825,22.16,0.0,0.0,0.0,-0.2943,-0.24525000000000002,9.85905
9424242330,22.16,0.0,0.0,0.0,-0.28449,-0.22563,9.82962
9429292835,22.16,0.0,0.0,0.0,-0.30411,-0.28449,9.81
9434343340,22.16,0.0,0.0,0.0,-0.30411,-0.26487,9.83943
9439393845,22.16,0.0,0.0,0.0,-0.30411,-0.21582,9.85905
9444444350,22.16,0.0,0.0,0.0,-0.30411,-0.25506,9.79038
9449494855,22.16,0.0,0.0,0.0,-0.30411,-0.2943,9.86886
9454545360,22.16,0.0,0.0,0.0,-0.2943,-0.24525000000000002,9.85905
9459595865,22.16,0.0,0.0,0.0,-0.26487,-0.26487,9.819809999999999
9464646370,22.16,0.0,0.0,0.0,-0.28449,-0.25506,9.83943
9469696875,22.16,0.0,0.0,0.0,-0.31392000000000003,-0.26487,9.83943
9474747380,22.16,0.0,0.0,0.0,-0.27468000000000004,-0.22563,9.84924
9479797885,22.16,0.0,0.0,0.0,-0.31392000000000003,-0.23544,9.83943
9484848390,22.16,0.0,0.0,0.0,-0.2943,-0.28449,9.83943
9489898895,22.16,0.0,0.0,0.0,-0.31392000000000003,-0.22563,9.83943
9494949400,22.16,0.0,0.0,0.0,-0.25506,-0.23544,9.82962
9499999905,22.16,0.0,0.0,0.0,-0.28449,-0.2943,9.819809999999999
9505050410,22.16,0.0,0.0,0.0,-0.30411,-0.25506,9.83943
9510100915,22.16,0.0,0.0,0.0,-0.31392000000000003,-0.21582,9.83943
9515151420,22.16,0.0,0.0,0.0,-0.31392000000000003,-0.24525000000000002,9.81
9520201925,22.16,0.0,0.0,0.0,-0.30411,-0.26487,9.79038
9525252430,22.16,0.0,0.0,0.0,-0.30411,-0.21582,9.82962
9530302935,22.16,0.0,0.0,0.0,-0.30411,-0.23544,9.84924
9535353440,22.16,0.0,0.0,0.0,-0.33354000000000006,-0.26487,9.82962
9540403945,22.16,0.0,0.0,0.0,-0.32373,-0.24525000000000002,9.82962
9545454450,22.16,0.0,0.0,0.0,-0.25506,-0.23544,9.82962
