#timestamp [ns], temperature [degC], w_RS_S_x [rad s^-1], w_RS_S_y [rad s^-1], w_RS_S_z [rad s^-1], a_RS_S_x [m s^-2], a_RS_S_y [m s^-2], a_RS_S_z [m s^-2]
0.0,22.41,0.0,0.0,0.002129301687433,0.00981,0.13734,9.79038
5000000.0,22.41,-0.002108008691638757,0.003162013037458234,2.1292995794243083e-05,0.019521900097119002,0.166475700291357,9.80009190009712
10000000.0,22.41,-0.002129301687433,6.387898738273142e-05,-0.001043357847922257,0.038847600388476,0.128314799223048,9.80019
15000000.0,22.41,0.0020015437126675415,0.0,-3.1939493691364625e-05,0.010692899125928992,0.146561400582714,9.809705700291358
20000000.0,22.41,0.002129301687433,0.0,0.0,0.019227600388476006,0.175402801165428,9.819417600388476
25000000.0,22.41,0.003140720041663987,-0.0010114183542308923,0.0020228367084617845,0.010300499514404994,0.15794099902880998,9.791851498543215
30000000.0,22.41,0.00019163696214819382,0.0019376647252848124,-0.0008730138815683124,0.019031400582714006,0.166181400582714,9.79038
35000000.0,22.41,0.0,0.00014905097055970158,0.0019057252315934478,0.01962,0.14852339864033398,9.781256699320167
40000000.0,22.41,0.0,0.0,0.00017034396635394466,0.02864520077695201,0.156175200776952,9.78057
45000000.0,22.41,0.0,0.0009688323626424061,-0.0009688323626424061,0.03835710087407101,0.16588710087407102,9.798424201748142
50000000.0,22.41,0.0,0.0010646508437165,-0.003939208437952443,0.03041099902880999,0.18442800194238002,9.80019
55000000.0,22.41,0.000947539366848163,0.00011711147686833696,-0.00046844590747335867,0.01196819786338198,0.14273549465845492,9.835113604273236
60000000.0,22.41,0.004812222319520843,-0.001873785737902083,0.0009368928689510415,0.03570840349628403,0.15460560233085602,9.787633193007432
65000000.0,22.41,0.002544515105420766,-0.0002768089453251601,0.00199089721477042,0.022170597474905972,0.18256410378764104,9.78057
70000000.0,22.41,0.002129301687433,0.0,0.00029810194111940316,0.011183398640333984,0.16108019592100195,9.797443202719332
75000000.0,22.41,0.00031939493691364625,0.0009049533752596769,0.0,0.018148501456785014,0.17363700291357,9.80019
80000000.0,22.41,0.0,0.00017034396635394466,-0.0008943068773625553,0.03610080310780803,0.16009919689219196,9.791949598446097
85000000.0,22.41,0.0,0.0,-0.0001809904642510662,0.031097698348976986,0.17324460330204602,9.806664603302046
90000000.0,22.41,0.0,-0.0008730138815683122,-0.0008730138815683122,0.021385798251857983,0.14440319300743193,9.81
95000000.0,22.41,0.0017247347673423814,-0.0027893856110589627,-0.0002022834600453093,0.04345830553578306,0.15323220369052204,9.802053898154739
100000000.0,22.41,0.00042585991588486166,-0.0014905107596013814,-0.0008517208857740691,0.03335399611523997,0.15696,9.792341998057621
105000000.0,22.41,0.0,0.0006174979320373952,-0.00022357645583955237,0.01393019592100196,0.14921009796050097,9.79038
110000000.0,22.41,0.0008304278899798261,0.0010646508437165,-0.0008304278899798261,0.01746180213661802,0.16245360427323605,9.798031802136618
115000000.0,22.41,0.0027042136278819864,-0.0005749119404489091,0.0005749119404489091,0.027173702233737024,0.15166259553252595,9.792636297766263
120000000.0,22.41,0.002384817636963941,-0.0010646508437165,0.0010646508437165,0.021974397669143976,0.1769724093234241,9.805291204661712
125000000.0,22.41,0.0013308132911445385,-0.00026616244742803854,0.00026616244742803854,0.041692507283925075,0.18639,9.81
130000000.0,22.41,0.0002768089453251601,0.0,-0.0007878418983913399,0.041790597474905974,0.1573523898996239,9.795481194949813
135000000.0,22.41,0.0,0.0,-0.0002874554432222816,0.01775609213336092,0.15431130262221301,9.783218697377787
140000000.0,22.41,-0.0007665489025970968,0.0007665489025970968,0.0007665489025970968,0.01687320271933203,0.16402320271933202,9.801759608157997
145000000.0,22.41,-0.0003087484390165247,0.0003087484390165247,-0.00044715396568345057,0.01265489718354897,0.15980489718354896,9.81
150000000.0,22.41,0.0,0.0,-0.0010646508437165,0.023544005827140058,0.17069400582714006,9.81
155000000.0,22.41,0.0014692188178114644,-0.0007346094089057322,-0.0003300414348107678,0.02943,0.16304219397862194,9.789693290967934
160000000.0,22.41,0.0014053387764243893,-0.0010646508437165,-0.0007239629110086106,0.02275919689219197,0.16363080310780803,9.800582409323425
165000000.0,22.41,0.0010646508437165,-0.0010646508437165,0.00036198198250647824,0.01962,0.15362459359014594,9.79028189038522
170000000.0,22.41,0.0003619809285021324,0.00034068898671223515,0.0003619809285021324,0.032569206604092064,0.15362460330204603,9.78057
175000000.0,22.41,0.0,-0.00031939599091799207,-0.000692023417317246,0.032863496600834964,0.1442069932016699,9.774193496600835
180000000.0,22.41,0.001362753838840249,-0.0003832739242963755,-0.0003832739242963755,0.035708403496284034,0.16245361398513614,9.789595210488852
185000000.0,22.41,0.0007878408443869941,0.0,-0.0013414608430460059,0.014518785626387854,0.17658,9.787829392813194
190000000.0,22.41,0.0,-0.0006600839236258814,-0.00014904991655535597,0.01824661107156611,0.1644155926189559,9.798816611071567
195000000.0,22.41,0.0,-0.0004152134179877401,0.0010646508437165,0.017461792424717924,0.15097589621235896,9.80401589621236
200000000.0,22.41,-0.0006387909278316383,0.0012775818556632766,-0.000851721939778415,0.015696003884760036,0.1589220077695201,9.80607600388476
205000000.0,22.41,0.00019163801615253357,0.00024486839762944963,-0.0015011572574984832,0.01962,0.14940628805436287,9.81
210000000.0,22.41,0.00044715291167910474,-0.00044715291167910474,-0.00044715291167910474,0.013930195921001958,0.14871960815799606,9.798620391842004
215000000.0,22.41,0.0006068514341402737,-0.0006068514341402737,0.0006068514341402737,0.00981,0.17932681670446818,9.795971704176118
220000000.0,22.41,0.00046844590747334783,-0.0010646508437165,-0.0013201689012561646,0.020797208546472087,0.18521279145352793,9.805683604273236
225000000.0,22.41,0.0005855584383460306,-0.00047909240537046937,-0.0014372772161114532,0.02943,0.17658,9.81
230000000.0,22.41,-0.00123499691807919,-0.0005749119404489091,-0.0005749119404489091,0.02943,0.16068778659757788,9.799405191065052
235000000.0,22.41,-0.0020654216460459715,-0.0010646508437165,-0.0005003854011647125,0.02943,0.14715,9.779981390870814
240000000.0,22.41,-0.0010646508437165,4.258704559283199e-05,-0.000553618944654666,0.024328795338287953,0.13694759067657591,9.780962409323424
245000000.0,22.41,-0.0005216783969589555,-2.1294049798588907e-05,2.1294049798588907e-05,0.01962,0.1475424190353242,9.800386209517663
250000000.0,22.41,0.0005323259488604229,-0.0005323248948560771,0.0015969767925769229,0.029430009711900094,0.16677,9.81490500485595
255000000.0,22.41,0.0015863302946798013,0.0005216794509633014,0.0005642633345430959,0.04404690495306905,0.16677,9.805389285140793
260000000.0,22.41,0.0011072357813006403,0.0005536178906503202,-0.0005536178906503202,0.04905,0.17147880505018803,9.795088805050188
265000000.0,22.41,0.0,-0.0010007729103381166,0.0,0.035217884558078845,0.16274788455807884,9.80019
270000000.0,22.41,-0.0014692198718158562,-0.0016395617301610632,-0.0004897399572719367,0.028645210488852102,0.14715,9.782139579022296
275000000.0,22.41,-0.0031939525311496,-0.00010646392496686959,-0.00010646392496686959,0.03041098931690989,0.1559790106830901,9.77860802136618
280000000.0,22.41,-0.0008517177237610876,0.0005962038822388063,0.0010646508437165,0.01962,0.16245359456133593,9.791557189122672
285000000.0,22.41,0.0012137007602718557,0.0,0.0006068503801359279,0.015401694464216943,0.16117830553578305,9.79322491660735
290000000.0,22.41,0.00044715396568345057,0.0,-0.0017886158627338441,0.02217061689870617,0.1585295887341959,9.797639383101295
295000000.0,22.41,0.000628143375930171,0.0,-0.002512573503720743,0.031195788539957883,0.14715,9.792636317190064
300000000.0,22.41,0.0,0.0,0.0,0.023544005827140058,0.14715,9.80215198834572
305000000.0,22.41,0.0,0.0,-0.0008304289439841719,0.02943,0.15097590592425905,9.786554094075742
310000000.0,22.41,0.0,0.0,-0.002938437635622967,0.04434122408551224,0.15696,9.788025612042757
315000000.0,22.41,-0.0007878429523956857,0.0,-0.0026829174700746914,0.06504029388150294,0.16058970611849704,9.803819706118498
320000000.0,22.41,-0.0013627517308315573,-0.0003832749783007213,0.0,0.04826518135315182,0.15970678756876788,9.81
325000000.0,22.41,0.0007452569608071996,-0.0006920223633129002,0.0,0.02943,0.15058350631273507,9.806566493687265
330000000.0,22.41,0.0014053377224200435,0.0,0.0,0.01942378077043781,0.16029540640985407,9.793519187180292
335000000.0,22.41,0.0,0.0,0.0,0.00647461301394613,0.16677,9.787044613013947
340000000.0,22.41,0.0,-0.00034068898671223515,0.0,0.022759206604092065,0.15421317358363174,9.80019
345000000.0,22.41,-0.0006600849776302272,-0.0010646508437165,0.0,0.023347786597577868,0.13057110670121105,9.803231106701212
350000000.0,22.41,-0.0014905097055970158,-0.0007452548527985079,0.0,0.012753006798330068,0.1461690203949902,9.81
355000000.0,22.41,0.00030874949302087053,-0.001234997972083511,0.0,0.01962,0.16392509310455092,9.81
360000000.0,22.41,0.0019589598290877747,-0.0033642943894948247,0.0,0.02511361398513614,0.15421319300743191,9.79626596503716
365000000.0,22.41,0.0028213208887329358,-0.0007771943464898725,0.0,0.04188870708968707,0.14979870708968707,9.771544828358747
370000000.0,22.41,-0.0021718908410345754,0.0002768099993295059,0.0,0.04649939281319393,0.15185878562638785,9.792538178439582
375000000.0,22.41,-0.004258600212853112,0.0007984873422841156,0.0,0.03678749271607493,0.13734,9.7805700291357
380000000.0,22.41,-0.0013201678472517628,0.0,0.0,0.02943,0.13969440738104408,9.81
385000000.0,22.41,-0.0011498196648804348,0.0,0.0,0.02943,0.1584315373908154,9.807743692521838
390000000.0,22.41,0.0016608536719509605,0.0,0.0,0.03158820757528208,0.18756716969887172,9.802348207575283
395000000.0,22.41,0.0006707325295317155,0.0,0.0,0.04336021534480215,0.1548998923275989,9.8079398923276
400000000.0,22.41,0.0023422284833624733,0.0,0.0,0.05297397669143977,0.15107401553904015,9.79430397669144
405000000.0,22.41,-0.0008623663296668449,0.00040456902809931023,0.0,0.027566092133360923,0.16304218426672185,9.776351723599916
410000000.0,22.41,0.00019163801615253357,0.0015543876389753992,0.0,0.017854192036241917,0.14715,9.798424192036242
415000000.0,22.41,0.0014266338802273412,-0.0010646508437165,0.0,0.01147770806087708,0.15048541612175417,9.793715416121755
420000000.0,22.41,0.0026829174700747126,-0.0012349958640747905,0.0,0.02118960815799608,0.16990921631599215,9.813139216315992
425000000.0,22.41,0.00015969852246116895,-0.0016502061200494931,0.0,0.030901508255115083,0.18050396697953966,9.825205475234656
430000000.0,22.41,0.0007665467945884052,0.0009155988191524526,0.0,0.03924,0.14989681670446817,9.798816591647766
435000000.0,22.41,-0.0013414618970503647,0.0,0.0,0.03541407465194074,0.16549469155064692,9.79038
440000000.0,22.41,-0.002938434473609979,0.00012775902876980432,0.0,0.01451883418588834,0.15813720854647206,9.792734417092944
445000000.0,22.41,-0.0005962007202257579,0.0005962007202257579,0.0,0.04689178271281783,0.16677,9.806762674069228
450000000.0,22.41,0.0028745544322229064,-0.0029810204651984674,0.0,0.02943,0.16775100874071008,9.783513026222131
455000000.0,22.41,-9.58195350784397e-05,-0.0008730117735596206,0.0,0.03119581767565818,0.17658,9.808234182324343
460000000.0,22.41,-0.0010646508437165,0.0009794778065351818,0.0,0.04983480893494809,0.1750103821301038,9.79116480893495
465000000.0,22.41,-0.0011391773830006966,7.452653928419662e-05,0.0,0.05679987290379873,0.1555865819358658,9.798816581935867
470000000.0,22.41,-0.00200154160465885,0.001000770802329425,0.0,0.02825278174162782,0.13792860912918609,9.78057
475000000.0,22.41,0.0,5.3233543489953525e-05,0.0,0.010791018452610183,0.14715,9.782041527678917
480000000.0,22.41,0.0,0.0010646508437165,0.0,0.02943,0.1475424093234241,9.809607590676576
485000000.0,22.41,9.582164308713433e-05,0.0009368886529336551,0.0,0.02913569057945691,0.15725430942054308,9.80107292826163
490000000.0,22.41,0.00315136443155242,-0.0031300703817538312,0.0,0.019423790482337902,0.16696620951766208,9.829031371447014
495000000.0,22.41,0.0010752983956179673,-1.064755190146736e-05,0.0,0.010104328844343287,0.1763837807704378,9.799895671155657
500000000.0,22.41,0.0021292974714156167,-0.0010646466276991167,0.0,0.03923997086429971,0.15696,9.77076
505000000.0,22.41,-0.002086719911861897,0.003151370755578496,0.0,0.010104270572942706,0.15696,9.77076
510000000.0,22.41,-0.0031726605893597007,0.002150593629222899,0.0,0.03865142971841429,0.12811857028158571,9.789987619812276
515000000.0,22.41,0.000936897084968422,6.38768793740376e-05,0.0,0.03924,0.1655928400130284,9.799895710003257
520000000.0,22.41,4.258493758414034e-05,0.0,0.0,0.03924,0.1761876101003761,9.809607610100377
525000000.0,22.41,0.002022838816470476,-0.003034258224705809,0.0,0.03924,0.1858995101974951,9.819319510197495
530000000.0,22.41,0.00012775586675676685,-0.0011924067104732727,0.0,0.02079717941077179,0.18639,9.782924358821544
535000000.0,22.41,0.0,-7.452443127550497e-05,0.0,0.04698993117519931,0.1681433792165338,9.798816620783468
540000000.0,22.41,-0.0029384397436317124,0.001958959829087747,0.0,0.021974368533443686,0.1487195790222958,9.782139579022296
545000000.0,22.41,-0.0012562856978560048,0.0001916348541394961,0.0,0.01962,0.1292957788280578,9.789497110585971
550000000.0,22.41,-0.00010646392496686959,0.0009581869187496304,0.0,0.01962,0.16284604273236042,9.808038021366182
555000000.0,22.41,0.0,-0.0017779704188410266,0.0,0.01962,0.15803908921979087,9.82746182156042
560000000.0,22.41,0.0009368939229553873,-0.00025551384152222535,0.0,0.01962,0.1655928108773281,9.820987189122672
565000000.0,22.41,0.002917145693833119,0.0,0.0,0.028154710974447113,0.16677,9.802740578051106
570000000.0,22.41,0.00044714974966608137,-0.0018312018543222884,0.0,0.020993388928433887,0.1752066110715661,9.791753388928434
575000000.0,22.41,0.0018099088585280454,-0.0012243472581689773,0.0,0.03629702233737023,0.15156446649394467,9.782041488831316
580000000.0,22.41,-0.0014479300380346046,-0.00017034291234959884,0.0,0.022759177468391772,0.16363082253160824,9.79705082253161
585000000.0,22.41,0.0014053440464461184,0.0,0.0,0.027762311362923113,0.15862768863707688,9.808332311362923
590000000.0,22.41,0.00038327181628768385,0.0,0.0,0.02943,0.16500421146004213,9.818044211460043
595000000.0,22.41,0.0008623684376755365,0.0,0.0,0.02943,0.15882388844283887,9.81186388844284
600000000.0,22.41,0.001916372783494915,-0.000851721939778415,0.0,0.021581988345719883,0.14911198834571987,9.80215198834572
605000000.0,22.41,0.0012882262455517065,-0.00022357540183520655,0.0,0.01187008824860088,0.1548999117513991,9.784690176497202
610000000.0,22.41,0.0010646508437165,0.0008304289439841719,0.0,0.04041724739407247,0.1646118118485181,9.78822181184852
615000000.0,22.41,0.0010646508437165,0.0010646508437165,0.0,0.04149628805436288,0.15166257610872577,9.79038
620000000.0,22.41,-0.0013627570008532864,0.00025551489552657117,0.0,0.04669561204275612,0.16951683612826834,9.79038
625000000.0,22.41,0.00026616666344542184,-0.0023954683508784964,0.0,0.026977463580374637,0.16186497572024974,9.797737512139875
630000000.0,22.41,0.00027680789132081426,-0.000830423673962469,0.0,0.012360587763005876,0.14970058776300588,9.807449412236995
635000000.0,22.41,-0.0007771964544985642,0.0,0.0,0.01697131233411312,0.14715,9.788516062997662
640000000.0,22.41,-0.0025977507569194575,0.0007665499566014426,0.0,0.026683212431232124,0.14008678756876786,9.787633212431233
645000000.0,22.41,-0.0016821456137408866,0.0003087473850121789,0.0,0.008534662414946624,0.14430511252835113,9.79038
650000000.0,22.41,0.0011711200387050987,0.0,0.0,0.020601037876410377,0.15401701262547013,9.78351298737453
655000000.0,22.41,0.001394691224522922,-0.000734610462910078,0.0,0.03619891272258913,0.16372891272258913,9.800876738167767
660000000.0,22.41,0.0003406868787035435,-0.0003406868787035435,0.0,0.03256918718029187,0.1734408128197081,9.796658374360584
665000000.0,22.41,0.0,0.0,0.0,0.04257542583365426,0.16343457416634571,9.783807287083174
670000000.0,22.41,0.0,0.0,0.0,0.02315154794421548,0.15696,9.767620773972107
675000000.0,22.41,0.0006920244713215918,0.0,0.0,0.02893953933319539,0.14420697377786973,9.792832565555326
680000000.0,22.41,0.0010646508437165,0.0,0.0,0.02668317358363173,0.14989682641636826,9.803721586791816
685000000.0,22.41,0.0010646508437165,0.0,0.0,0.025800313305303132,0.16932062661060626,9.806370313305303
690000000.0,22.41,0.0010646508437165,-0.0006600849776302272,0.0,0.023347786597577865,0.18874442680484427,9.797835573195156
695000000.0,22.41,0.0023635278031827727,-0.0010646508437165,0.0,0.025604113499541135,0.1962,9.79038
700000000.0,22.41,0.0006387846038056035,0.0014905170836274964,0.0,0.023543986403339864,0.17854195921001959,9.778607972806679
705000000.0,22.41,-0.0016927963276553626,0.0019376615632718155,0.0,0.031195827387558273,0.14940625891866258,9.77076
710000000.0,22.41,-0.0008943037153495178,0.0010646508437165,0.0,0.027860372418203723,0.13734,9.77076
715000000.0,22.41,-0.001213704976289239,0.00045779835557188046,0.0,0.01402828611198286,0.14852342777603428,9.787535141664051
720000000.0,22.41,-0.000936889706938004,0.0,0.0,0.026290841955408418,0.14597277202972772,9.80019
725000000.0,22.41,0.0005855594923503764,0.0,0.0,0.017657943670979434,0.1643175704112757,9.805585514082257
730000000.0,22.41,0.0016395638381697549,0.0,0.0,0.02648707089687071,0.17049775746187756,9.804702585820626
735000000.0,22.41,0.0010007686943207333,-0.0011285329931122667,0.0,0.04905,0.15696,9.789791371447015
740000000.0,22.41,-0.0016608599959770873,8.517830720304728e-05,0.0,0.043948785626387855,0.16206121437361215,9.785671214373613
745000000.0,22.41,-0.0015650320288638784,-4.259231561456111e-05,0.0,0.03924,0.16677,9.795383114470733
750000000.0,22.41,0.0,-0.0005323206788386938,0.0,0.034334985432149856,0.15695997086429972,9.8198100582714
755000000.0,22.41,0.0,0.0010646508437165,0.0,0.03423691466496914,0.1567638293299383,9.825009256005092
760000000.0,22.41,0.0015331020212116249,4.258282957544869e-05,0.0,0.0298223704758237,0.15264355571373556,9.805291185237913
765000000.0,22.41,0.002193177512802745,-0.0005642633345430959,0.0,0.028841429718414295,0.1281185702815857,9.795579285140793
770000000.0,22.41,0.0005749098324402174,0.0,0.0,0.03924,0.13577045982530458,9.785867385043675
775000000.0,22.41,-0.000958189026758322,0.000479094513379161,0.0,0.03924,0.1481309698931097,9.784984515053447
780000000.0,22.41,-0.00025550962550484205,0.0005962028282344605,0.0,0.03924,0.1546056606022566,9.786063584849437
785000000.0,22.41,0.002129301687433,0.0,0.0,0.030803369504633693,0.17236168475231683,9.79322494574305
790000000.0,22.41,0.0016821466677452036,-0.0004471550196877964,0.0,0.023740215344802154,0.17089021534480214,9.805879784655199
795000000.0,22.41,0.0006281423219258251,-0.00019163380013515027,0.0,0.03747423088384231,0.17658,9.804212115441922
800000000.0,22.41,0.0004258620238935533,0.0006387888198229467,0.0,0.04512598446095985,0.16873196892191966,9.79430393784384
805000000.0,22.41,0.0006494353177200682,0.0,0.0,0.03924,0.14930816872768168,9.778411831272319
810000000.0,22.41,0.0008091380561986205,-0.0008091380561986205,0.0,0.028056552800165526,0.1447956314665563,9.797835631466556
815000000.0,22.41,0.002129301687433,-0.0013414566270286226,0.0,0.017069431660794318,0.15696,9.81
820000000.0,22.41,0.002512577719738103,0.0,0.0,0.02943,0.16402323185503231,9.806468384072485
825000000.0,22.41,0.0017034343935177826,0.0,0.0,0.036297032049270324,0.18001351602463514,9.80705703204927
830000000.0,22.41,-0.0010646508437165,0.0,0.0,0.052385416121754166,0.16637750326947504,9.813139167756493
835000000.0,22.41,-0.0007133143051027975,0.0,0.0,0.04914805134338052,0.13076731621887316,9.80019
840000000.0,22.41,0.0010220701221497748,0.000340690040716581,0.0,0.023151567368015675,0.14047921631599217,9.80019
845000000.0,22.41,0.00253386544551065,0.0007346073008970405,0.0,0.006768883586888835,0.15019111641311117,9.794107767173779
850000000.0,22.41,0.0007452537987941621,-0.0009581911347670436,0.0,0.01765809906138099,0.15990301651023014,9.789399049530692
855000000.0,22.41,0.0006175010940504327,-0.0035027030781748163,0.0,0.0503252501779525,0.16677,9.80715508339265
860000000.0,22.41,0.0006387814417924979,-0.0030661871783536927,0.0,0.026683183295531834,0.16127636659106367,9.797443183295533
865000000.0,22.41,-0.002331579877456653,0.0,0.0,0.022268716801587166,0.14979871680158716,9.793028716801588
870000000.0,22.41,0.00027681105333385173,0.0,0.0,0.02943,0.15185876620258765,9.797639383101295
875000000.0,22.41,0.0010646508437165,0.0002661645554367302,0.0,0.02697748300417483,0.13979251699582515,9.79528503399165
880000000.0,22.41,0.0010646508437165,0.0005536147286372827,0.0,0.01962,0.14715,9.802936748721168
885000000.0,22.41,0.0010646508437165,-0.0008197792840740129,0.0,0.021876317190063173,0.1561752687602527,9.782826317190064
890000000.0,22.41,0.0012988759054618655,0.0,0.0,0.027271782712817827,0.18423178271281782,9.794696434574366
895000000.0,22.41,0.001905723123584756,0.0,0.0,0.029920586921505867,0.1745198826156988,9.807939882615699
900000000.0,22.41,0.001490514975618765,0.0,0.0,0.05885991259289912,0.16873201748142017,9.79626596503716
905000000.0,22.41,0.002587095826987578,0.0004045711361080019,0.0,0.01962,0.17285216484292162,9.776842164842922
910000000.0,22.41,0.0001916390701568794,0.0017460235471192412,0.0,0.01962,0.15519418232434182,9.768013270702632
915000000.0,22.41,0.0005216731269372264,0.0,0.0,0.022955435545554355,0.1488177177727772,9.801857717772778
920000000.0,22.41,-0.0017886095387077273,0.0,0.0,0.03453114639031146,0.15852961786989617,9.811569617869896
925000000.0,22.41,0.000638798305862074,-0.00015969957646551477,0.0,0.01569607186806072,0.16529848203298483,9.824224553901045
930000000.0,22.41,0.003960497217729299,-0.0010646508437165,0.0,0.04355632774346328,0.15421316387173162,9.836879237422792
935000000.0,22.41,0.0018524885260904566,-0.0007878376823739566,0.0,0.013635954483759543,0.13861531816125316,9.766051272645011
940000000.0,22.41,0.0,0.0010646508437165,0.0,0.03688556348325563,0.14715,9.799012781741629
945000000.0,22.41,0.0,0.0009475372588394714,0.0,0.01962,0.14715,9.791459118355492
950000000.0,22.41,0.00010646708697990705,-0.00010646708697990705,0.0,0.01962,0.14715,9.802152036905222
955000000.0,22.41,0.0009688302546337145,-0.0009688302546337145,0.0,0.02138583709945837,0.14979875564918757,9.81981
960000000.0,22.41,0.0,0.0,0.0,0.03924,0.1757951813531518,9.818240362706304
965000000.0,22.41,0.0,0.0,0.0,0.037866562512065625,0.16677,9.799503281256033
970000000.0,22.41,0.0,0.0,0.0,0.020208618841086188,0.16677,9.79038
975000000.0,22.41,0.0,0.0,0.0,0.03041103787641038,0.16726051893820518,9.789889481061795
980000000.0,22.41,0.0,0.0,0.0,0.048265161929351624,0.1761875809646758,9.78135483807065
985000000.0,22.41,0.0,0.0,0.0,0.02943,0.1661813617351136,9.800484319132444
990000000.0,22.41,0.0,0.0,0.0,0.02943,0.1473462192295622,9.81
995000000.0,22.41,0.0,0.0,0.0,0.029233761346637615,0.15696,9.80990188067332
1000000000.0,22.41,0.0,0.0,0.0,0.009810058271400583,0.1569599611523996,9.80019
1005000000.0,22.41,0.0,0.0,0.0,0.03894575856275758,0.1375361609581616,9.80019
1010000000.0,22.41,0.0,0.0,0.0,0.03924,0.1469538196180382,9.819417639236077
1015000000.0,22.41,0.0,0.0,0.0,0.029724280284842804,0.1566657197151572,9.810294280284843
1020000000.0,22.41,0.0,0.0,0.0,0.010594760375447605,0.17579523962455237,9.781747140563173
1025000000.0,22.41,0.0,0.0,0.0,0.03776855972818559,0.18589951990939518,9.808528559728186
1030000000.0,22.41,0.0,0.0,0.0,0.03924,0.1771685799934858,9.819221420006514
1035000000.0,22.41,0.0,0.0,0.0,0.0301166798963668,0.1674566798963668,9.792440039689101
1040000000.0,22.41,0.0,0.0,0.0,0.020404779799247798,0.1396943393977434,9.79038
1045000000.0,22.41,0.0,0.0,0.0,0.010692879702128795,0.1284128797021288,9.79038
1050000000.0,22.41,0.0,0.0,0.0,0.00981,0.1363590203949902,9.781550979605012
1055000000.0,22.41,0.0,0.0,0.0,0.018540920492109203,0.1722636819684368,9.806762761476328
1060000000.0,22.41,0.0,0.0,0.0,0.01962,0.15931435882154357,9.784101538232317
1065000000.0,22.41,0.0,0.0,0.0,0.01962,0.1654947206863472,9.806174162059042
1070000000.0,22.41,0.0,0.0,0.0,0.04492986235039863,0.16677,9.801563379216534
1075000000.0,22.41,0.0,0.0,0.0,0.03237295823882959,0.1500929582388296,9.775174437358244
1080000000.0,22.41,0.0,0.0,0.0,0.02943,0.1306691580445916,9.787240841955409
1085000000.0,22.41,0.0,0.0,0.0,0.021287678925176787,0.16009928429929285,9.79038
1090000000.0,22.41,0.0,0.0,0.0,0.01962,0.15872577882805777,9.806468442343885
1095000000.0,22.41,0.0,0.0,0.0,0.027566121269061213,0.18079836380718364,9.81
1100000000.0,22.41,0.0,0.0,0.0,0.013733957267639575,0.16284593590145935,9.79430395726764
1105000000.0,22.41,0.0,0.0,0.0,0.04080968585319686,0.15696,9.767130235610102
1110000000.0,22.41,0.0,0.0,0.0,0.02609453531874535,0.1646118215604182,9.768601821560418
1115000000.0,22.41,0.0,0.0,0.0,0.027173721657537217,0.15921627834246277,9.793421164972612
1120000000.0,22.41,0.0,0.0,0.0,0.014518756490687566,0.1495043782453438,9.807645621754657
1125000000.0,22.41,0.0,0.0,0.0,0.03188256555532565,0.14715,9.817357521851775
1130000000.0,22.41,0.0,0.0,0.0,0.03924,0.16892826584668263,9.812550578051106
1135000000.0,22.41,0.0,0.0,0.0,0.03207867795398678,0.16225735590797355,9.795677355907975
1140000000.0,22.41,0.0,0.0,0.0,0.03649322214313222,0.14283355571373554,9.79038
1145000000.0,22.41,0.0,0.0,0.0,0.03227487775974878,0.16520048896100487,9.769484633279246
1150000000.0,22.41,0.0,0.0,0.0,0.02943,0.17658,9.781551067012112
1155000000.0,22.41,0.0,0.0,0.0,0.022661077565510775,0.15627323269653232,9.79038
1160000000.0,22.41,0.0,0.0,0.0,0.026290822531608225,0.1738332901264329,9.810392467594825
1165000000.0,22.41,0.0,0.0,0.0,0.009711832113818323,0.1600991094850911,9.806664554742547
1170000000.0,22.41,0.0,0.0,0.0,0.025898490903384908,0.15362462272584623,9.806664622725847
1175000000.0,22.41,0.0,0.0,0.0,0.03924,0.15696,9.790870431531106
1180000000.0,22.41,0.0,0.0,0.0,0.045518422920084234,0.15696,9.786848422920086
1185000000.0,22.41,0.0,0.0,0.0,0.04286967698279677,0.16932064603440644,9.802740646034406
1190000000.0,22.41,0.0,0.0,0.0,0.045322223114322234,0.17658,9.803917776885678
1195000000.0,22.41,0.0,0.0,0.0,0.03708175357711754,0.16461175357711752,9.80019
1200000000.0,22.41,0.0,0.0,0.0,0.023543976691439768,0.1393019300743193,9.80019
1205000000.0,22.41,0.0,0.0,0.0,0.01962,0.13331792340567922,9.80597792340568
1210000000.0,22.41,0.0,0.0,0.0,0.013930176497201763,0.13734,9.804310176497202
1215000000.0,22.41,0.0,0.0,0.0,0.00981,0.1541151707997517,9.794598276400084
1220000000.0,22.41,0.0,0.0,0.0,0.020797247394072474,0.16677,9.795873623697037
1225000000.0,22.41,0.0,0.0,0.0,0.024034476205844764,0.17756104758831048,9.805585523794155
1230000000.0,22.41,0.0,0.0,0.0,0.03551227167382272,0.18639,9.804702576108726
1235000000.0,22.41,0.0,0.0,0.0,0.054249323988393244,0.15519405606964057,9.789791352023215
1240000000.0,22.41,0.0,0.0,0.0,0.04355632774346328,0.13263122408551223,9.795873672256537
1245000000.0,22.41,0.0,0.0,0.0,0.02943,0.1273337516347375,9.81
1250000000.0,22.41,0.0,0.0,0.0,0.03433502427975024,0.12262502427975025,9.81
1255000000.0,22.41,0.0,0.0,0.0,0.034433075623130756,0.15637154626121547,9.805193075623132
1260000000.0,22.41,0.0,0.0,0.0,0.03413882447398824,0.18639,9.809607648947978
1265000000.0,22.41,0.0,0.0,0.0,0.043850724571107245,0.19100072457110726,9.805977826286679
1270000000.0,22.41,0.0,0.0,0.0,0.04905,0.16912425199064252,9.781354750663548
1275000000.0,22.41,0.0,0.0,0.0,0.040220950469309506,0.1461690495306905,9.784003574296035
1280000000.0,22.41,0.0,0.0,0.0,0.03374642486246425,0.1655928497249285,9.804506424862465
1285000000.0,22.41,0.0,0.0,0.0,0.0308033500808335,0.17236167504041675,9.805781675040418
1290000000.0,22.41,0.0,0.0,0.0,0.0278604501134045,0.17089022505670223,9.804310225056703
1295000000.0,22.41,0.0,0.0,0.0,0.03924,0.16451362453853624,9.80597787484618
1300000000.0,22.41,0.0,0.0,0.0,0.03924,0.15892207575282075,9.804114025250941
1305000000.0,22.41,0.0,0.0,0.0,0.03924,0.16510222395582225,9.802348149303882
1310000000.0,22.41,0.0,0.0,0.0,0.04669565089035651,0.15087782544517825,9.782924349109644
1315000000.0,22.41,0.0,0.0,0.0,0.04071137228851372,0.15696,9.778019451084594
1320000000.0,22.41,0.0,0.0,0.0,0.00981,0.14989674872116748,9.797443251278834
1325000000.0,22.41,0.0,0.0,0.0,0.020110577209605768,0.1442070514730705,9.813433525736535
1330000000.0,22.41,0.0,0.0,0.0,0.03924,0.16029542583365425,9.806468296665383
1335000000.0,22.41,0.0,0.0,0.0,0.03276534813845348,0.16677,9.783807325930773
1340000000.0,22.41,0.0,0.0,0.0,0.03217690411156904,0.16363077397210773,9.784101547944216
1345000000.0,22.41,0.0,0.0,0.0,0.05581887387498874,0.16000112612501124,9.776842252250022
1350000000.0,22.41,0.0,0.0,0.0,0.037277895111478956,0.16971302622213025,9.79038
1355000000.0,22.41,0.0,0.0,0.0,0.00981,0.17089014736150146,9.798914778957748
1360000000.0,22.41,0.0,0.0,0.0,0.012556826416368263,0.15421317358363174,9.81981
1365000000.0,22.41,0.0,0.0,0.0,0.022268726513487266,0.15244745302697454,9.817161273486514
1370000000.0,22.41,0.0,0.0,0.0,0.02943,0.15656749355757493,9.799797493557575
1375000000.0,22.41,0.0,0.0,0.0,0.026977473292274734,0.12998252670772525,9.77566505341545
1380000000.0,22.41,0.0,0.0,0.0,0.026683280414532804,0.1444032804145328,9.788025573195156
1385000000.0,22.41,0.0,0.0,0.0,0.04679367309803673,0.16225734619607346,9.78733898070589
1390000000.0,22.41,0.0,0.0,0.0,0.03924,0.14499177300091773,9.805683546001836
1395000000.0,22.41,0.0,0.0,0.0,0.033059618711396184,0.13734,9.794500254192403
1400000000.0,22.41,0.0,0.0,0.0,0.007847972806679728,0.14126405438664053,9.80607594561336
1405000000.0,22.41,0.0,0.0,0.0,0.001863927290439273,0.15696,9.79038
1410000000.0,22.41,0.0,0.0,0.0,0.011575827387558274,0.15872582738755828,9.793911654775117
1415000000.0,22.41,0.0,0.0,0.0,0.021287727484677273,0.16343454503064545,9.806664545030646
1420000000.0,22.41,0.0,0.0,0.0,0.030999627581796276,0.14871962758179627,9.791949627581797
1425000000.0,22.41,0.0,0.0,0.0,0.03924,0.1628461107156611,9.80019
1430000000.0,22.41,0.0,0.0,0.0,0.03924,0.19070628889586289,9.801563427776035
1435000000.0,22.41,0.0,0.0,0.0,0.03924,0.15440934425369343,9.807449344253694
1440000000.0,22.41,0.0,0.0,0.0,0.04041722797027228,0.13851722797027227,9.79038
1445000000.0,22.41,0.0,0.0,0.0,0.043654359663043596,0.14715,9.789300871932609
1450000000.0,22.41,0.0,0.0,0.0,0.002943084493530845,0.1461689718354897,9.782532056329021
1455000000.0,22.41,0.0,0.0,0.0,0.027664143476741437,0.13998878478488783,9.80107292826163
1460000000.0,22.41,0.0,0.0,0.0,0.011379656717496566,0.16677,9.809215171641252
1465000000.0,22.41,0.0,0.0,0.0,0.030116728455867287,0.16608327154413272,9.800876728455869
1470000000.0,22.41,0.0,0.0,0.0,0.038651371447013715,0.15696,9.808234114341042
1475000000.0,22.41,0.0,0.0,0.0,0.029920528650105287,0.15745052865010528,9.781551057300211
1480000000.0,22.41,0.0,0.0,0.0,0.038455142505551425,0.16559271375832713,9.80019
1485000000.0,22.41,0.0,0.0,0.0,0.020208657688686574,0.1376343288443433,9.800484328844345
1490000000.0,22.41,0.0,0.0,0.0,0.03865131317561313,0.14754245788292458,9.809803771058538
1495000000.0,22.41,0.0,0.0,0.0,0.01010438711574387,0.16667187096141872,9.80019
1500000000.0,22.41,0.0,0.0,0.0,0.03924,0.15696,9.8001898834572
1505000000.0,22.41,0.0,0.0,0.0,0.03924,0.15696,9.761342283068721
1510000000.0,22.41,0.0,0.0,0.0,0.03924,0.15696,9.809019146649693
1515000000.0,22.41,0.0,0.0,0.0,0.03924,0.15696,9.77193708229177
1520000000.0,22.41,0.0,0.0,0.0,0.06749288857252889,0.14754237047582372,9.789595259048353
1525000000.0,22.41,0.0,0.0,0.0,0.04071141113611411,0.14715,9.80901905924259
1530000000.0,22.41,0.0,0.0,0.0,0.03924,0.1655928594368286,9.81
1535000000.0,22.41,0.0,0.0,0.0,0.0209933403689334,0.16677,9.800876670184467
1540000000.0,22.41,0.0,0.0,0.0,0.03767045982530459,0.16677,9.791164770087349
1545000000.0,22.41,0.0,0.0,0.0,0.0124586099706861,0.1489157399804574,9.79038
1550000000.0,22.41,0.0,0.0,0.0,0.0362970903206709,0.1559790301068903,9.79920903010689
1555000000.0,22.41,0.0,0.0,0.0,0.030509069795990697,0.1744218604080186,9.782728139591983
1560000000.0,22.41,0.0,0.0,0.0,0.0380628303011283,0.17658,9.789202830301129
1565000000.0,22.41,0.0,0.0,0.0,0.005101078407010781,0.15951053920350539,9.807449460796494
1570000000.0,22.41,0.0,0.0,0.0,0.025309891486098916,0.15696,9.801563369504635
1575000000.0,22.41,0.0,0.0,0.0,0.037768530592485305,0.14028293881502937,9.81686706118497
1580000000.0,22.41,0.0,0.0,0.0,0.022759138620791382,0.16206129206881292,9.811569569310397
1585000000.0,22.41,0.0,0.0,0.0,0.035904661573446614,0.15048533842655337,9.793715338426555
1590000000.0,22.41,0.0,0.0,0.0,0.047284230883842315,0.1551942308838423,9.798424230883843
1595000000.0,22.41,0.0,0.0,0.0,0.04905,0.18079839294288394,9.784297738038077
1600000000.0,22.41,0.0,0.0,0.0,0.03335393784383938,0.17854196892191967,9.804114093234242
1605000000.0,22.41,0.0,0.0,0.0,0.02168006882480069,0.1688300688248007,9.8022500688248
1610000000.0,22.41,0.0,0.0,0.0,0.027271831272318314,0.15911816872768167,9.80019
1615000000.0,22.41,0.0,0.0,0.0,0.02943,0.1494062686305627,9.80019
1620000000.0,22.41,0.0,0.0,0.0,0.03688563146655631,0.15460563146655631,9.792734368533445
1625000000.0,22.41,0.0,0.0,0.0,0.03188246843632468,0.1496024684363247,9.79038
1630000000.0,22.41,0.0,0.0,0.0,0.02943,0.15440943166079432,9.797639431660794
1635000000.0,22.41,0.0,0.0,0.0,0.043752663515826636,0.15696,9.793028668242087
1640000000.0,22.41,0.0,0.0,0.0,0.04905,0.16402323185503231,9.797443231855032
1645000000.0,22.41,0.0,0.0,0.0,0.056015131952151326,0.15980486804784869,9.807155131952152
1650000000.0,22.41,0.0,0.0,0.0,0.01765780770437808,0.14322593590145935,9.80313296795073
1655000000.0,22.41,0.0,0.0,0.0,0.027075728585557287,0.13734,9.80695893214639
1660000000.0,22.41,0.0,0.0,0.0,0.025898335512983352,0.15735249673052495,9.803329167756493
1665000000.0,22.41,0.0,0.0,0.0,0.032765464681254644,0.16019726765937267,9.793617267659373
1670000000.0,22.41,0.0,0.0,0.0,0.03924,0.17638389731323897,9.79038
1675000000.0,22.41,0.0,0.0,0.0,0.03924,0.16726040239540402,9.803133065069732
1680000000.0,22.41,0.0,0.0,0.0,0.03296156736801567,0.16323843263198431,9.797443134736032
1685000000.0,22.41,0.0,0.0,0.0,0.02943,0.16058966727089666,9.796560332729104
1690000000.0,22.41,0.0,0.0,0.0,0.017265534347555345,0.15087776717377765,9.80019
1695000000.0,22.41,0.0,0.0,0.0,0.02177826584668266,0.15313413292334133,9.79420586707666
1700000000.0,22.41,0.0,0.0,0.0,0.03531603302046033,0.16873206604092064,9.79626603302046
1705000000.0,22.41,0.0,0.0,0.0,0.03924,0.16500413376484133,9.80597793311758
1710000000.0,22.41,0.0,0.0,0.0,0.04492983321469833,0.15696,9.798620333570604
1715000000.0,22.41,0.0,0.0,0.0,0.032274800064548,0.16255173331181733,9.784788266688183
1720000000.0,22.41,0.0,0.0,0.0,0.030607266817872666,0.16677,9.786063633408936
1725000000.0,22.41,0.0,0.0,0.0,0.023053399481833995,0.15597893298788934,9.806566600518167
1730000000.0,22.41,0.0,0.0,0.0,0.015107433603174335,0.14715,9.81981
1735000000.0,22.41,0.0,0.0,0.0,0.030018667400586674,0.14195066629970665,9.814610666299707
1740000000.0,22.41,0.0,0.0,0.0,0.02903753240517532,0.15774493518964933,9.804898766202589
1745000000.0,22.41,0.0,0.0,0.0,0.03963253557812535,0.17157686610546866,9.79518686610547
1750000000.0,22.41,0.0,0.0,0.0,0.04904993201669932,0.17167503399165032,9.785474966008351
1755000000.0,22.41,0.0,0.0,0.0,0.03924,0.16215919773369197,9.775763065911232
1760000000.0,22.41,0.0,0.0,0.0,0.034531165814111656,0.15656766837177669,9.784886502557665
1765000000.0,22.41,0.0,0.0,0.0,0.024819265716992656,0.1575485314339853,9.80019
1770000000.0,22.41,0.0,0.0,0.0,0.01962,0.14715,9.80019
1775000000.0,22.41,0.0,0.0,0.0,0.015205465522754653,0.1559790689544907,9.804604534477246
1780000000.0,22.41,0.0,0.0,0.0,0.022759303723093035,0.16245356542563566,9.801367130851272
1785000000.0,22.41,0.0,0.0,0.0,0.04345833467148335,0.16117833467148335,9.794598334671484
1790000000.0,22.41,0.0,0.0,0.0,0.03668929569419296,0.1750104695372047,9.791949530462796
1795000000.0,22.41,0.0,0.0,0.0,0.01962,0.17432359540283596,9.792636404597165
1800000000.0,22.41,0.0,0.0,0.0,0.01962,0.15696,9.80215193007432
1805000000.0,22.41,0.0,0.0,0.0,0.0272718701199187,0.15696,9.786554064940042
1810000000.0,22.41,0.0,0.0,0.0,0.03924,0.15696,9.791753505471236
1815000000.0,22.41,0.0,0.0,0.0,0.035610264745802644,0.14607079423740793,9.81
1820000000.0,22.41,0.0,0.0,0.0,0.022366729297367292,0.13459327070263272,9.81
1825000000.0,22.41,0.0,0.0,0.0,0.013243535448435354,0.15058353544843536,9.81
1830000000.0,22.41,0.0,0.0,0.0,0.016284564454445642,0.1636308710911087,9.796658257817782
1835000000.0,22.41,0.0,0.0,0.0,0.013047335642673356,0.17010532871465328,9.777234671285347
1840000000.0,22.41,0.0,0.0,0.0,0.02589847147958471,0.1632384714795847,9.784101528520415
1845000000.0,22.41,0.0,0.0,0.0,0.03619886416308864,0.1613743208154432,9.779883407510734
1850000000.0,22.41,0.0,0.0,0.0,0.03531607186806072,0.13047303593403037,9.80019
1855000000.0,22.41,0.0,0.0,0.0,0.04620506396885064,0.14018493603114934,9.80019
1860000000.0,22.41,0.0,0.0,0.0,0.030999491615194913,0.14715,9.80293683612827
1865000000.0,22.41,0.0,0.0,0.0,0.017756208676162087,0.14979873622538736,9.81
1870000000.0,22.41,0.0,0.0,0.0,0.03668936367749363,0.15440936367749364,9.804898727354988
1875000000.0,22.41,0.0,0.0,0.0,0.02943,0.14960253641962537,9.79038
1880000000.0,22.41,0.0,0.0,0.0,0.02943,0.15931443651674435,9.79038
1885000000.0,22.41,0.0,0.0,0.0,0.03394267322772673,0.16225732677227328,9.785867326772273
1890000000.0,22.41,0.0,0.0,0.0,0.04473352657803527,0.14930823671098237,9.777234710132946
1895000000.0,22.41,0.0,0.0,0.0,0.025309726383797266,0.15902013680810137,9.802250136808102
1900000000.0,22.41,0.0,0.0,0.0,0.011772036905220369,0.16284592618955926,9.81
1905000000.0,22.41,0.0,0.0,0.0,0.02148393700233937,0.15460574800935747,9.806272125995322
1910000000.0,22.41,0.0,0.0,0.0,0.02943,0.18462416290054162,9.79214583709946
1915000000.0,22.41,0.0,0.0,0.0,0.031097737196577373,0.17324452560684525,9.795186788410268
1920000000.0,22.41,0.0,0.0,0.0,0.037670362706303626,0.16166891188108912,9.773899274587393
1925000000.0,22.41,0.0,0.0,0.0,0.03237307478163075,0.18344692521836925,9.788908462609186
1930000000.0,22.41,0.0,0.0,0.0,0.044929687536196874,0.16677,9.788810624927606
1935000000.0,22.41,0.0,0.0,0.0,0.018344662414946623,0.16549466241494662,9.833053312074734
1940000000.0,22.41,0.0,0.0,0.0,0.013341713046517129,0.15931447536434473,9.791557237682174
1945000000.0,22.41,0.0,0.0,0.0,0.03924,0.1755008622207086,9.795873448882835
1950000000.0,22.41,0.0,0.0,0.0,0.040221037876410376,0.16677,9.762912075752821
1955000000.0,22.41,0.0,0.0,0.0,0.04640118607941186,0.16677,9.78145293797353
1960000000.0,22.41,0.0,0.0,0.0,0.021974514211945143,0.16598516192935162,9.792734514211945
1965000000.0,22.41,0.0,0.0,0.0,0.04767652366446524,0.15696,9.819123261832233
1970000000.0,22.41,0.0,0.0,0.0,0.02884136173511362,0.15519408520534084,9.809411361735114
1975000000.0,22.41,0.0,0.0,0.0,0.02109161508601615,0.12900161508601615,9.80019
1980000000.0,22.41,0.0,0.0,0.0,0.04787268462262685,0.15617512308175122,9.80019
1985000000.0,22.41,0.0,0.0,0.0,0.01962,0.13792867711248677,9.799895661443758
1990000000.0,22.41,0.0,0.0,0.0,0.019816238653362385,0.15696,9.790576238653363
1995000000.0,22.41,0.0,0.0,0.0,0.02943,0.15696,9.80019
2000000000.0,22.41,0.0,0.0,0.0,0.02943,0.15695992230479922,9.8001899611524
2005000000.0,22.41,0.0,0.0,0.0,0.02943,0.1375361221105612,9.790478061055282
2010000000.0,22.41,0.0,0.0,0.0,0.01981616095816161,0.15656767808367678,9.819221517125516
2015000000.0,22.41,0.0,0.0,0.0,0.01962,0.16647573913895738,9.810294260861044
2020000000.0,22.41,0.0,0.0,0.0,0.047872917708229185,0.1573523607639236,9.791164721527847
2025000000.0,22.41,0.0,0.0,0.0,0.04905,0.1383209213336092,9.799699539333195
2030000000.0,22.41,0.0,0.0,0.0,0.030607121139371214,0.1650043182909432,9.80019
2035000000.0,22.41,0.0,0.0,0.0,0.05680001858230019,0.17589333952743338,9.80019
2040000000.0,22.41,0.0,0.0,0.0,0.022759041501790415,0.14950428112634281,9.782139520750896
2045000000.0,22.41,0.0,0.0,0.0,0.03747427944334279,0.17393141916501417,9.789497139721671
2050000000.0,22.41,0.0,0.0,0.0,0.048069039818790404,0.1589219203624192,9.79038
2055000000.0,22.41,0.0,0.0,0.0,0.0315881201681812,0.16569093991590939,9.79911093991591
2060000000.0,22.41,0.0,0.0,0.0,0.0035314799609147997,0.16677,9.80019
2065000000.0,22.41,0.0,0.0,0.0,0.0341389604405896,0.1497005197797052,9.808724740110147
2070000000.0,22.41,0.0,0.0,0.0,0.03924,0.1555866402072664,9.793126719585468
2075000000.0,22.41,0.0,0.0,0.0,0.0309014596956146,0.15696,9.782041459695616
2080000000.0,22.41,0.0,0.0,0.0,0.04591088080300881,0.1404791191969912,9.805291321204514
2085000000.0,22.41,0.0,0.0,0.0,0.032765319002753195,0.1210553190027532,9.785572978504131
2090000000.0,22.41,0.0,0.0,0.0,0.02943,0.14185272178722722,9.804702721787228
2095000000.0,22.41,0.0,0.0,0.0,0.02943,0.14715,9.80205385930714
2100000000.0,22.41,0.0,0.0,0.0,0.02158195921001959,0.1549980407899804,9.808038040789981
2105000000.0,22.41,0.0,0.0,0.0,0.035119881774198815,0.15696,9.794500118225802
2110000000.0,22.41,0.0,0.0,0.0,0.03158815901578159,0.1646118409842184,9.805683681968437
2115000000.0,22.41,0.0,0.0,0.0,0.02187625891866259,0.16677,9.78733877675599
2120000000.0,22.41,0.0,0.0,0.0,0.01962,0.16677,9.788025641178457
2125000000.0,22.41,0.0,0.0,0.0,0.03433508255115082,0.1741275412755754,9.783022458724425
2130000000.0,22.41,0.0,0.0,0.0,0.010202234509222342,0.14028279313652792,9.79508888274539
2135000000.0,22.41,0.0,0.0,0.0,0.021484024409440243,0.14185268293962683,9.793028658530186
2140000000.0,22.41,0.0,0.0,0.0,0.022366758433067582,0.1400867584330676,9.804506483133865
2145000000.0,22.41,0.0,0.0,0.0,0.012654858335948583,0.13734,9.81
2150000000.0,22.41,0.0,0.0,0.0,0.023544083522340834,0.15107408352234084,9.80313295823883
2155000000.0,22.41,0.0,0.0,0.0,0.03619894185828942,0.1704978837165788,9.80019
2160000000.0,22.41,0.0,0.0,0.0,0.03256915804459158,0.18325084195540842,9.80019
2165000000.0,22.41,0.0,0.0,0.0,0.02285725794747258,0.15352628973736288,9.80019
2170000000.0,22.41,0.0,0.0,0.0,0.032569284299292844,0.15676392644893927,9.80019
2175000000.0,22.41,0.0,0.0,0.0,0.045616542246765424,0.15401691550646915,9.78743691550647
2180000000.0,22.41,0.0,0.0,0.0,0.04277155765611557,0.15342844234388442,9.78057
2185000000.0,22.41,0.0,0.0,0.0,0.014518630235986298,0.15696,9.786750342441005
2190000000.0,22.41,0.0,0.0,0.0,0.018246727614367277,0.15087775746187757,9.79038
2195000000.0,22.41,0.0,0.0,0.0,0.035414142635241425,0.15911828527048286,9.79038
2200000000.0,22.41,0.0,0.0,0.0,0.033353957267639574,0.1491118718029187,9.778607914535279
2205000000.0,22.41,0.0,0.0,0.0,0.02364205717052057,0.14312794282947944,9.788123828488438
2210000000.0,22.41,0.0,0.0,0.0,0.048069214632992144,0.14146015707340157,9.794500157073402
2215000000.0,22.41,0.0,0.0,0.0,0.04630302790513027,0.14293174302371742,9.795971743023719
2220000000.0,22.41,0.0,0.0,0.0,0.023936356879163567,0.14715,9.811177286241673
2225000000.0,22.41,0.0,0.0,0.0,0.025015543217955433,0.14175445678204457,9.80901891356409
2230000000.0,22.41,0.0,0.0,0.0,0.034727443315074435,0.1532323299452233,9.805487443315075
2235000000.0,22.41,0.0,0.0,0.0,0.023641969763419694,0.16677,9.804800656587807
2240000000.0,22.41,0.0,0.0,0.0,0.020012487018624868,0.17187124350931243,9.80019
2245000000.0,22.41,0.0,0.0,0.0,0.024426856393568563,0.17157685639356857,9.795186856393569
2250000000.0,22.41,0.0,0.0,0.0,0.024525043703550437,0.15695991259289913,9.79038
2255000000.0,22.41,0.0,0.0,0.0,0.02943,0.15195694380066943,9.799993887601339
2260000000.0,22.41,0.0,0.0,0.0,0.02943,0.15696,9.791164624408847
2265000000.0,22.41,0.0,0.0,0.0,0.03404074399490744,0.14312776801527768,9.779981487989815
2270000000.0,22.41,0.0,0.0,0.0,0.025702067723920675,0.13204264409202643,9.799405288184053
2275000000.0,22.41,0.0,0.0,0.0,0.0053954558108545575,0.14616908837829087,9.805585455810855
2280000000.0,22.41,0.0,0.0,0.0,0.012949332858793329,0.16127644428626445,9.795873555713737
2285000000.0,22.41,0.0,0.0,0.0,0.016774966849849672,0.17098834438338345,9.798816688766767
2290000000.0,22.41,0.0,0.0,0.0,0.00824048896100489,0.17658,9.81
2295000000.0,22.41,0.0,0.0,0.0,0.01962,0.16451356626713565,9.814022144577622
2300000000.0,22.41,0.0,0.0,0.0,0.023544044674740444,0.15107404467474045,9.81588595532526
2305000000.0,22.41,0.0,0.0,0.0,0.02943,0.1646118895437189,9.80617405522814
2310000000.0,22.41,0.0,0.0,0.0,0.02943,0.16912431026204308,9.80019
2315000000.0,22.41,0.0,0.0,0.0,0.02943,0.16058974496609743,9.80019
2320000000.0,22.41,0.0,0.0,0.0,0.02943,0.17030164506321643,9.803721645063217
2325000000.0,22.41,0.0,0.0,0.0,0.02599645483966455,0.18344709032067089,9.806566454839665
2330000000.0,22.41,0.0,0.0,0.0,0.016284554742545546,0.1895291094850911,9.80019
2335000000.0,22.41,0.0,0.0,0.0,0.013047345354573452,0.1830546907091469,9.80019
2340000000.0,22.41,0.0,0.0,0.0,0.029037736355077365,0.1836430181932302,9.803329245451692
2345000000.0,22.41,0.0,0.0,0.0,0.04296770890237709,0.15696,9.797835417804754
2350000000.0,22.41,0.0,0.0,0.0,0.02943,0.15696,9.782532182583722
2355000000.0,22.41,0.0,0.0,0.0,0.02943,0.15696,9.804310108513901
2360000000.0,22.41,0.0,0.0,0.0,0.03217684584016846,0.15970684584016845,9.793126845840169
2365000000.0,22.41,0.0,0.0,0.0,0.03659125406271254,0.16412125406271255,9.797541254062713
2370000000.0,22.41,0.0,0.0,0.0,0.02687935396559354,0.15696,9.795481292068814
2375000000.0,22.41,0.0,0.0,0.0,0.02207254613152546,0.15205490773694907,9.80509490773695
2380000000.0,22.41,0.0,0.0,0.0,0.027075553771355537,0.1420488924572889,9.79038
2385000000.0,22.41,0.0,0.0,0.0,0.024132692651526927,0.15696,9.79038
2390000000.0,22.41,0.0,0.0,0.0,0.03492350715423507,0.16127649284576492,9.792538246422883
2395000000.0,22.41,0.0,0.0,0.0,0.015499706959997068,0.17245970695999704,9.80019
2400000000.0,22.41,0.0,0.0,0.0,0.005886139851361398,0.15696,9.80019
2405000000.0,22.41,0.0,0.0,0.0,0.02943,0.15509605328576054,9.80019
2410000000.0,22.41,0.0,0.0,0.0,0.03119584681135847,0.15068169362271694,9.798424153188643
2415000000.0,22.41,0.0,0.0,0.0,0.03924,0.1617667592745676,9.79038
2420000000.0,22.41,0.0,0.0,0.0,0.03767035299440353,0.14047929401119294,9.788810352994405
2425000000.0,22.41,0.0,0.0,0.0,0.02943,0.15990309420543092,9.782041547102716
2430000000.0,22.41,0.0,0.0,0.0,0.02943,0.17795344719983447,9.791753447199834
2435000000.0,22.41,0.0,0.0,0.0,0.02815465270304653,0.18256395810913958,9.80019
2440000000.0,22.41,0.0,0.0,0.0,0.021974494788144946,0.15578275260592753,9.799012752605929
2445000000.0,22.41,0.0,0.0,0.0,0.037081705017617046,0.14715,9.788221705017618
2450000000.0,22.41,0.0,0.0,0.0,0.01962,0.15009314276493144,9.775665237941551
2455000000.0,22.41,0.0,0.0,0.0,0.020502947685429474,0.1721652615728526,9.817161156943712
2460000000.0,22.41,0.0,0.0,0.0,0.027860304434903047,0.12909969556509696,9.792734543347645
2465000000.0,22.41,0.0,0.0,0.0,0.011870243639002435,0.14715,9.818436504240665
2470000000.0,22.41,0.0,0.0,0.0,0.040417295953572956,0.14773864797678649,9.799601352023215
2475000000.0,22.41,0.0,0.0,0.0,0.05689780770437808,0.15696,9.789889451926095
2480000000.0,22.41,0.0,0.0,0.0,0.02040489634204896,0.15696,9.781747344513075
2485000000.0,22.41,0.0,0.0,0.0,0.03953434826814348,0.1566656517318565,9.809705651731857
2490000000.0,22.41,0.0,0.0,0.0,0.04885375163473752,0.14754249673052497,9.799993751634737
2495000000.0,22.41,0.0,0.0,0.0,0.03904370307523703,0.16647555461285554,9.790576296924764
2500000000.0,22.41,0.0,0.0,0.0,0.01962009711900097,0.1373399514404995,9.8099999514405
2505000000.0,22.41,0.0,0.0,0.0,0.03904389731323897,0.1276280513433805,9.800288051343381
2510000000.0,22.41,0.0,0.0,0.0,0.029626151246261515,0.16598539501495396,9.80980384875374
2515000000.0,22.41,0.0,0.0,0.0,0.01991425114914251,0.16677,9.81
2520000000.0,22.41,0.0,0.0,0.0,0.01962,0.1573523510520235,9.800582351052023
2525000000.0,22.41,0.0,0.0,0.0,0.03825909809019098,0.17559909809019097,9.790870450954905
2530000000.0,22.41,0.0,0.0,0.0,0.011575652573356528,0.1673585508577855,9.77193710171557
2535000000.0,22.41,0.0,0.0,0.0,0.028056698478666982,0.16677,9.779883349239334
2540000000.0,22.41,0.0,0.0,0.0,0.02943,0.1396942519906425,9.789595249336454
2545000000.0,22.41,0.0,0.0,0.0,0.02943,0.16412144830071448,9.808234298867143
2550000000.0,22.41,0.0,0.0,0.0,0.0029428514079285137,0.16677,9.81
2555000000.0,22.41,0.0,0.0,0.0,0.017461899255618994,0.16677,9.792538100744382
2560000000.0,22.41,0.0,0.0,0.0,0.03688569944985699,0.17540284972492848,9.79901284972493
2565000000.0,22.41,0.0,0.0,0.0,0.03924,0.17658,9.774585750533857
2570000000.0,22.41,0.0,0.0,0.0,0.0308033500808335,0.1681433500808335,9.779196649919166
2575000000.0,22.41,0.0,0.0,0.0,0.046107100032571,0.1584314499837145,9.788908550016286
2580000000.0,22.41,0.0,0.0,0.0,0.032569099773191,0.1487195498865955,9.806860900226809
2585000000.0,22.41,0.0,0.0,0.0,0.02943,0.16343470042104702,9.785572949368431
2590000000.0,22.41,0.0,0.0,0.0,0.0374742503076425,0.16677,9.78057
2595000000.0,22.41,0.0,0.0,0.0,0.023347699190476988,0.16677,9.804408451214286
2600000000.0,22.41,0.0,0.0,0.0,0.027468050501880503,0.16677,9.81
2605000000.0,22.41,0.0,0.0,0.0,0.037179950598999506,0.15127009880200099,9.779000197604
2610000000.0,22.41,0.0,0.0,0.0,0.03924,0.1548018506961185,9.801367402784475
2615000000.0,22.41,0.0,0.0,0.0,0.03924,0.15696,9.802446249206763
2620000000.0,22.41,0.0,0.0,0.0,0.02432869821928698,0.1644156508903565,9.785278698219289
2625000000.0,22.41,0.0,0.0,0.0,0.04169265296242653,0.1594124490125245,9.773212449012524
2630000000.0,22.41,0.0,0.0,0.0,0.041790548915405484,0.1497005489154055,9.792538353253784
2635000000.0,22.41,0.0,0.0,0.0,0.024917297636572973,0.1543113511817135,9.80019
2640000000.0,22.41,0.0,0.0,0.0,0.03374650255766502,0.14989674872116748,9.807253251278834
2645000000.0,22.41,0.0,0.0,0.0,0.03924,0.1541151513759515,9.80303484862405
2650000000.0,22.41,0.0,0.0,0.0,0.011771794107717937,0.1638270514730705,9.79332294852693
2655000000.0,22.41,0.0,0.0,0.0,0.027075806280758064,0.16000104842981047,9.80391790314038
2660000000.0,22.41,0.0,0.0,0.0,0.032569148332691485,0.1636308516673085,9.783316593330765
2665000000.0,22.41,0.0,0.0,0.0,0.02943,0.15362449647114496,9.79705100705771
2670000000.0,22.41,0.0,0.0,0.0,0.022955348138453482,0.16009930372309303,9.803525348138454
2675000000.0,22.41,0.0,0.0,0.0,0.01962,0.14764034412400343,9.793813448041336
2680000000.0,22.41,0.0,0.0,0.0,0.038455356167353565,0.14361845205578452,9.777823095888431
2685000000.0,22.41,0.0,0.0,0.0,0.04286964784709648,0.15333035215290353,9.783120704305807
2690000000.0,22.41,0.0,0.0,0.0,0.03315774774997748,0.16304225225002253,9.79038
2695000000.0,22.41,0.0,0.0,0.0,0.017461695305716955,0.1727541523471415,9.808332457041425
2700000000.0,22.41,0.0,0.0,0.0,0.02746815733278157,0.15892184266721843,9.81392394755574
2705000000.0,22.41,0.0,0.0,0.0,0.033452047458620474,0.1529379525413795,9.81
2710000000.0,22.41,0.0,0.0,0.0,0.035119852638498525,0.16264985263849852,9.792930442084504
2715000000.0,22.41,0.0,0.0,0.0,0.03364824726438247,0.16117824726438246,9.786161752735618
2720000000.0,22.41,0.0,0.0,0.0,0.034923652832736525,0.16245365283273652,9.79038
2725000000.0,22.41,0.0,0.0,0.0,0.02844889414028894,0.15597889414028895,9.795775552929856
2730000000.0,22.41,0.0,0.0,0.0,0.02491745302697453,0.14715,9.805487453026975
2735000000.0,22.41,0.0,0.0,0.0,0.024230646875906467,0.13675129375181294,9.79440194062772
2740000000.0,22.41,0.0,0.0,0.0,0.01962,0.14793501288485014,9.78057
2745000000.0,22.41,0.0,0.0,0.0,0.029626306636663068,0.15676369336333693,9.795579459954995
2750000000.0,22.41,0.0,0.0,0.0,0.03433494658454946,0.15205505341545053,9.80509494658455
2755000000.0,22.41,0.0,0.0,0.0,0.02943,0.16657390702513905,9.80499695351257
2760000000.0,22.41,0.0,0.0,0.0,0.03413885360968853,0.16245343917093438,9.795873439170935
2765000000.0,22.41,0.0,0.0,0.0,0.02540773887957739,0.15637150741361508,9.789791507413616
2770000000.0,22.41,0.0,0.0,0.0,0.027860615215706153,0.16677,9.791164692392147
2775000000.0,22.41,0.0,0.0,0.0,0.040220892197908927,0.1579408921979089,9.789399107802092
2780000000.0,22.41,0.0,0.0,0.0,0.02943,0.15578290799632907,9.795873546001836
2785000000.0,22.41,0.0,0.0,0.0,0.02521164590471646,0.15833329180943292,9.798816708190568
2790000000.0,22.41,0.0,0.0,0.0,0.031980762577207625,0.15951076257720762,9.81
2795000000.0,22.41,0.0,0.0,0.0,0.04502784571047846,0.17658,9.81
2800000000.0,22.41,0.0,0.0,0.0,0.03139189122671891,0.16480783684007835,9.80607594561336
2805000000.0,22.41,0.0,0.0,0.0,0.01962,0.15862786345127863,9.792538091032482
2810000000.0,22.41,0.0,0.0,0.0,0.015892145419121453,0.1691242908382429,9.788025709161758
2815000000.0,22.41,0.0,0.0,0.0,0.01706950935599509,0.16058975467799755,9.803819754677997
2820000000.0,22.41,0.0,0.0,0.0,0.040024964325349646,0.1597066904497669,9.799405035674651
2825000000.0,22.41,0.0,0.0,0.0,0.04855933538329336,0.14715,9.797737774361178
2830000000.0,22.41,0.0,0.0,0.0,0.03276545496935455,0.15715636490806364,9.816278180122582
2835000000.0,22.41,0.0,0.0,0.0,0.03924,0.1701052898670529,9.793617355066475
2840000000.0,22.41,0.0,0.0,0.0,0.03610074483640745,0.1506814896728149,9.80019
2845000000.0,22.41,0.0,0.0,0.0,0.026388844739288448,0.14038115526071154,9.794107689478578
2850000000.0,22.41,0.0,0.0,0.0,0.016676944642169445,0.15303611071566112,9.789399166073492
2855000000.0,22.41,0.0,0.0,0.0,0.01549991090989911,0.16392504454505044,9.801465133635151
2860000000.0,22.41,0.0,0.0,0.0,0.02943,0.15696,9.78331685555207
2865000000.0,22.41,0.0,0.0,0.0,0.02943,0.15431124435081245,9.79038
2870000000.0,22.41,0.0,0.0,0.0,0.02943,0.15225131149261312,9.792930655746307
2875000000.0,22.41,0.0,0.0,0.0,0.02943,0.16677,9.797737444156574
2880000000.0,22.41,0.0,0.0,0.0,0.03178445594054456,0.1549977202972772,9.79508891188109
2885000000.0,22.41,0.0,0.0,0.0,0.034727287924672876,0.12223271207532713,9.800974575849345
2890000000.0,22.41,0.0,0.0,0.0,0.02177825613478256,0.1416565122695651,9.77939302453913
2895000000.0,22.41,0.0,0.0,0.0,0.027369843768098437,0.15902015623190155,9.807939843768098
2900000000.0,22.41,0.0,0.0,0.0,0.023544112658041124,0.17069411265804113,9.79822794367098
2905000000.0,22.41,0.0,0.0,0.0,0.041103956426139565,0.1770702178693022,9.79038
2910000000.0,22.41,0.0,0.0,0.0,0.045518286953482874,0.14440342609303425,9.792145856523259
2915000000.0,22.41,0.0,0.0,0.0,0.027762243379622433,0.1715767301388673,9.798522243379622
2920000000.0,22.41,0.0,0.0,0.0,0.021189656717496567,0.14401068656500687,9.793519313434993
2925000000.0,22.41,0.0,0.0,0.0,0.02943,0.13341622725846228,9.81
2930000000.0,22.41,0.0,0.0,0.0,0.028056543088265433,0.16264962926479629,9.81
2935000000.0,22.41,0.0,0.0,0.0,0.02217071401770714,0.13989071401770714,9.812550714017707
2940000000.0,22.41,0.0,0.0,0.0,0.038062742894027425,0.15931451421194512,9.82491097157611
2945000000.0,22.41,0.0,0.0,0.0,0.02835084279690843,0.17550084279690842,9.79038
2950000000.0,22.41,0.0,0.0,0.0,0.018638942699789426,0.16578894269978942,9.79038
2955000000.0,22.41,0.0,0.0,0.0,0.013341829589318295,0.15519408520534084,9.79038
2960000000.0,22.41,0.0,0.0,0.0,0.04669542751665428,0.14047942997779428,9.79038
2965000000.0,22.41,0.0,0.0,0.0,0.018246484816864847,0.17451972722529727,9.791066757591569
2970000000.0,22.41,0.0,0.0,0.0,0.0017659730660597307,0.14773865768868658,9.80019
2975000000.0,22.41,0.0,0.0,0.0,0.02943,0.15696,9.800680557785807
2980000000.0,22.41,0.0,0.0,0.0,0.029037542117075422,0.15696,9.808430168468302
2985000000.0,22.41,0.0,0.0,0.0,0.01932564201995642,0.15725435798004356,9.771054357980043
2990000000.0,22.41,0.0,0.0,0.0,0.010398774231487742,0.16657374192283741,9.78115877423149
2995000000.0,22.41,0.0,0.0,0.0,0.039141841825718414,0.1568618418257184,9.809803683651438
3000000000.0,22.41,0.0,0.0,0.0,0.029429883457198835,0.1471500582714006,9.7903798834572
3005000000.0,22.41,0.0,0.0,0.0,0.010006083262960833,0.15686195836851957,9.770956083262961
3010000000.0,22.41,0.0,0.0,0.0,0.03865157539691575,0.12811842460308426,9.818829292328193
3015000000.0,22.41,0.0,0.0,0.0,0.020208482874484825,0.16559303425103034,9.791262724311729
3020000000.0,22.41,0.0,0.0,0.0,0.029037658659876585,0.13851702402037022,9.809215317319754
3025000000.0,22.41,0.0,0.0,0.0,0.03874955875699558,0.15597911751399116,9.819319558756996
3030000000.0,22.41,0.0,0.0,0.0,0.03001854114588541,0.19384583541645836,9.810588541145886
3035000000.0,22.41,0.0,0.0,0.0,0.02943,0.1779532820975328,9.7826299231463
3040000000.0,22.41,0.0,0.0,0.0,0.011379481903294821,0.14950422285494222,9.78057
3045000000.0,22.41,0.0,0.0,0.0,0.01873715914547159,0.14715,9.789497159145473
3050000000.0,22.41,0.0,0.0,0.0,0.028449059242590592,0.1383209407574094,9.79920905924259
3055000000.0,22.41,0.0,0.0,0.0,0.02943,0.1460709593397096,9.80892095933971
3060000000.0,22.41,0.0,0.0,0.0,0.03806285943682859,0.17304857831048576,9.81
3065000000.0,22.41,0.0,0.0,0.0,0.022170480932104806,0.1509757213981572,9.818534759533948
3070000000.0,22.41,0.0,0.0,0.0,0.028056659631066596,0.15558665963106658,9.811373340368934
3075000000.0,22.41,0.0,0.0,0.0,0.02943,0.17363711945637117,9.801661440271815
3080000000.0,22.41,0.0,0.0,0.0,0.02943,0.1683395401746954,9.791949540174697
3085000000.0,22.41,0.0,0.0,0.0,0.0212876400775764,0.1830547198448472,9.79038
3090000000.0,22.41,0.0,0.0,0.0,0.0357085200390852,0.1542129599218296,9.798424260019543
3095000000.0,22.41,0.0,0.0,0.0,0.03924,0.14715,9.80019
3100000000.0,22.41,0.0,0.0,0.0,0.02354387957243879,0.14715,9.776645819358658
3105000000.0,22.41,0.0,0.0,0.0,0.03511992062179921,0.17814984124359842,9.801759841243598
3110000000.0,22.41,0.0,0.0,0.0,0.031588139591981396,0.1557825583679256,9.802348139591983
3115000000.0,22.41,0.0,0.0,0.0,0.04453752101027521,0.14715,9.785082478989725
3120000000.0,22.41,0.0,0.0,0.0,0.041594339397743395,0.16206132120451322,9.788025660602257
3125000000.0,22.41,0.0,0.0,0.0,0.017167317901873178,0.15205487860124878,9.805095121398752
3130000000.0,22.41,0.0,0.0,0.0,0.03158838238948382,0.17618784318597844,9.81
3135000000.0,22.41,0.0,0.0,0.0,0.03924,0.16490591731915916,9.81
3140000000.0,22.41,0.0,0.0,0.0,0.03924,0.14283347801853477,9.788810217027804
3145000000.0,22.41,0.0,0.0,0.0,0.025309677824296776,0.1443051610878516,9.773604838912147
3150000000.0,22.41,0.0,0.0,0.0,0.01962,0.13341587763005877,9.77762706118497
3155000000.0,22.41,0.0,0.0,0.0,0.01962,0.15460584512835845,9.78057
3160000000.0,22.41,0.0,0.0,0.0,0.012949138620791386,0.1600991386207914,9.793911722758418
3165000000.0,22.41,0.0,0.0,0.0,0.02952828442898284,0.15696,9.80019
3170000000.0,22.41,0.0,0.0,0.0,0.026290676853106765,0.1634346615734466,9.806664661573446
3175000000.0,22.41,0.0,0.0,0.0,0.03874968501169685,0.14764031498830316,9.79724687665887
3180000000.0,22.41,0.0,0.0,0.0,0.036493076464630764,0.1310615382323154,9.796658461767684
3185000000.0,22.41,0.0,0.0,0.0,0.02324963813519638,0.13989072372960723,9.794009638135197
3190000000.0,22.41,0.0,0.0,0.0,0.01962,0.14715,9.802544523923846
3195000000.0,22.41,0.0,0.0,0.0,0.02560416205904162,0.15313416205904162,9.81
3200000000.0,22.41,0.0,0.0,0.0,0.023543937843839378,0.16284606215616063,9.821772124312321
3205000000.0,22.41,0.0,0.0,0.0,0.01962,0.17834592450655926,9.812256113240162
3210000000.0,22.41,0.0,0.0,0.0,0.025309862350398622,0.1579406882480069,9.794500137649601
3215000000.0,22.41,0.0,0.0,0.0,0.035021762447517625,0.1597070497900705,9.801563524895036
3220000000.0,22.41,0.0,0.0,0.0,0.04473366254463663,0.16559267491072674,9.804506337455363
3225000000.0,22.41,0.0,0.0,0.0,0.04905,0.17314668792526688,9.805585562641756
3230000000.0,22.41,0.0,0.0,0.0,0.04905,0.17579507452225074,9.815297462738876
3235000000.0,22.41,0.0,0.0,0.0,0.02305318582003186,0.17196936283599362,9.81981
3240000000.0,22.41,0.0,0.0,0.0,0.010202525866225259,0.16637747413377474,9.809607474133776
3245000000.0,22.41,0.0,0.0,0.0,0.01962,0.15696,9.80019
3250000000.0,22.41,0.0,0.0,0.0,0.02452506312735063,0.14714987374529873,9.79528493687265
3255000000.0,22.41,0.0,0.0,0.0,0.02943,0.1517608896734089,9.79999392644894
3260000000.0,22.41,0.0,0.0,0.0,0.02943,0.15735227335682272,9.81470886332159
3265000000.0,22.41,0.0,0.0,0.0,0.02943,0.15637152683741526,9.805977709743878
3270000000.0,22.41,0.0,0.0,0.0,0.033942663515826636,0.17128266351582663,9.79038
3275000000.0,22.41,0.0,0.0,0.0,0.03924,0.16775087277410872,9.799209127225891
3280000000.0,22.41,0.0,0.0,0.0,0.02197414515974145,0.16127646371006463,9.805683536289935
3285000000.0,22.41,0.0,0.0,0.0,0.012655091421550914,0.16255163619281635,9.795971636192817
3290000000.0,22.41,0.0,0.0,0.0,0.02943,0.16108026390430263,9.79038
3295000000.0,22.41,0.0,0.0,0.0,0.025407835998578363,0.16677,9.798424328002843
3300000000.0,22.41,0.0,0.0,0.0,0.011771871802918717,0.15107374360583745,9.813924064098542
3305000000.0,22.41,0.0,0.0,0.0,0.007651928391319284,0.13900789258697893,9.804506143217361
3310000000.0,22.41,0.0,0.0,0.0,0.027075728585557284,0.15323213570722136,9.788025728585557
3315000000.0,22.41,0.0,0.0,0.0,0.035610235610102355,0.15803929316969292,9.796560235610103
3320000000.0,22.41,0.0,0.0,0.0,0.03649332897403329,0.18011166448701663,9.79038
3325000000.0,22.41,0.0,0.0,0.0,0.045616435415864354,0.18295643541586434,9.797247129168271
3330000000.0,22.41,0.0,0.0,0.0,0.03590453531874535,0.1699090706374907,9.806664535318745
3335000000.0,22.41,0.0,0.0,0.0,0.022955270443252705,0.14724790566487905,9.803427364778374
3340000000.0,22.41,0.0,0.0,0.0,0.019227794626477945,0.1338085297509853,9.81
3345000000.0,22.41,0.0,0.0,0.0,0.03619883502738835,0.14410883502738836,9.80695883502739
3350000000.0,22.41,0.0,0.0,0.0,0.03237306506973065,0.14616919520919194,9.80019
3355000000.0,22.41,0.0,0.0,0.0,0.03924,0.16677,9.794500069666302
3360000000.0,22.41,0.0,0.0,0.0,0.036493134736031344,0.16951686526396864,9.788810595791906
3365000000.0,22.41,0.0,0.0,0.0,0.026781234638912348,0.17658,9.79940493855565
3370000000.0,22.41,0.0,0.0,0.0,0.022170665458206652,0.17402933454179334,9.780962661832826
3375000000.0,22.41,0.0,0.0,0.0,0.02452486888934869,0.16431743444467434,9.805094868889348
3380000000.0,22.41,0.0,0.0,0.0,0.021582328262223283,0.15225106869511068,9.79508893130489
3385000000.0,22.41,0.0,0.0,0.0,0.04532180550261806,0.13508363425043635,9.812256365749564
3390000000.0,22.41,0.0,0.0,0.0,0.0021582658466826584,0.134004797540048,9.809018670766587
3395000000.0,22.41,0.0,0.0,0.0,0.011870165943801659,0.16520066377520662,9.781060829719008
3400000000.0,22.41,0.0,0.0,0.0,0.02158206604092066,0.19227586791815868,9.81784793395908
3405000000.0,22.41,0.0,0.0,0.0,0.03129396613803966,0.17844396613803964,9.80627206772392
3410000000.0,22.41,0.0,0.0,0.0,0.03924,0.17756066882420668,9.785082401294524
3415000000.0,22.41,0.0,0.0,0.0,0.03757223366772233,0.13900776633227765,9.769288831661388
3420000000.0,22.41,0.0,0.0,0.0,0.030999666429396666,0.14558033357060335,9.808430333570604
3425000000.0,22.41,0.0,0.0,0.0,0.03629686694696867,0.14028313305303133,9.80019
3430000000.0,22.41,0.0,0.0,0.0,0.020993466623634664,0.15696,9.80019
3435000000.0,22.41,0.0,0.0,0.0,0.028154633279246333,0.15951073344150732,9.802740733441508
3440000000.0,22.41,0.0,0.0,0.0,0.023151800453618004,0.17304819954638198,9.816278199546382
3445000000.0,22.41,0.0,0.0,0.0,0.046891666170016666,0.150387500744975,9.792538333829985
3450000000.0,22.41,0.0,0.0,0.0,0.03139213402422134,0.17756106701211066,9.81
3455000000.0,22.41,0.0,0.0,0.0,0.04816703289077033,0.1828581315630813,9.81088296710923
3460000000.0,22.41,0.0,0.0,0.0,0.03767026558730265,0.14793486720634869,9.818240265587303
3465000000.0,22.41,0.0,0.0,0.0,0.01962,0.15696,9.80019
3470000000.0,22.41,0.0,0.0,0.0,0.019031332599413326,0.15813733480117334,9.800778667400587
3475000000.0,22.41,0.0,0.0,0.0,0.010300567497705674,0.17658,9.808528297506884
3480000000.0,22.41,0.0,0.0,0.0,0.01962,0.17658,9.780177532405176
3485000000.0,22.41,0.0,0.0,0.0,0.019914367691943675,0.17658,9.771054367691942
3490000000.0,22.41,0.0,0.0,0.0,0.02943,0.17579492884374928,9.780962535578126
3495000000.0,22.41,0.0,0.0,0.0,0.029233664227636645,0.13763450365854502,9.800288167886182
3500000000.0,22.41,0.0,0.0,0.0,0.009810135966601359,0.16676986403339863,9.81
3505000000.0,22.41,0.0,0.0,0.0,0.02923393616083936,0.14734606383916063,9.81
3510000000.0,22.41,0.0,0.0,0.0,0.019816131822461315,0.14715,9.800386131822462
3515000000.0,22.41,0.0,0.0,0.0,0.010104231725342316,0.15666576827465767,9.790674231725344
3520000000.0,22.41,0.0,0.0,0.0,0.028645336743553365,0.16637766837177667,9.799797668371777
3525000000.0,22.41,0.0,0.0,0.0,0.02943,0.17608956846889567,9.78155086306221
3530000000.0,22.41,0.0,0.0,0.0,0.04787293713202938,0.16735853143398532,9.79901293713203
3535000000.0,22.41,0.0,0.0,0.0,0.02167989401059894,0.1576466313368663,9.809313368663135
3540000000.0,22.41,0.0,0.0,0.0,0.02864526876025269,0.14793473123974732,9.791949462479495
3545000000.0,22.41,0.0,0.0,0.0,0.02050283114262831,0.14715,9.799307168857373
3550000000.0,22.41,0.0,0.0,0.0,0.010790931045509308,0.1383209310455093,9.80019
3555000000.0,22.41,0.0,0.0,0.0,0.01854096905160969,0.15480193810321938,9.80019
3560000000.0,22.41,0.0,0.0,0.0,0.01962,0.15696,9.782924261702544
3565000000.0,22.41,0.0,0.0,0.0,0.04522430773754308,0.1654947692458477,9.806174307737544
3570000000.0,22.41,0.0,0.0,0.0,0.023739991971099918,0.16677,9.81
3575000000.0,22.41,0.0,0.0,0.0,0.04463570832025708,0.1500928611198286,9.81
3580000000.0,22.41,0.0,0.0,0.0,0.032569060925590615,0.1306690609255906,9.793519060925592
3585000000.0,22.41,0.0,0.0,0.0,0.021287630365676304,0.12753,9.806664739268648
3590000000.0,22.41,0.0,0.0,0.0,0.01962,0.1436185394628854,9.81
3595000000.0,22.41,0.0,0.0,0.0,0.0116738301714383,0.17893467931424678,9.817946169828563
3600000000.0,22.41,0.0,0.0,0.0,0.017658069925680697,0.18639,9.81981
3605000000.0,22.41,0.0,0.0,0.0,0.0273699700227997,0.1708900599544006,9.8120600299772
3610000000.0,22.41,0.0,0.0,0.0,0.0370818701199187,0.15911812988008128,9.794696259760164
3615000000.0,22.41,0.0,0.0,0.0,0.046793770217037706,0.1342986893488869,9.782826229782962
3620000000.0,22.41,0.0,0.0,0.0,0.0341386593716866,0.1349856703141567,9.773114329685843
3625000000.0,22.41,0.0,0.0,0.0,0.022072429588724296,0.13734,9.778117570411275
3630000000.0,22.41,0.0,0.0,0.0,0.01962,0.1518589410167894,9.80960788203358
3635000000.0,22.41,0.0,0.0,0.0,0.01962,0.1641213706055137,9.81981
3640000000.0,22.41,0.0,0.0,0.0,0.03374654140526541,0.1738332707026327,9.805683458594736
3645000000.0,22.41,0.0,0.0,0.0,0.018344487600744877,0.17658,9.793224829200248
3650000000.0,22.41,0.0,0.0,0.0,0.037278283587482836,0.16284585820625858,9.78351292910313
3655000000.0,22.41,0.0,0.0,0.0,0.04228102900601029,0.13665308701803086,9.787338970993991
3660000000.0,22.41,0.0,0.0,0.0,0.04591087109110871,0.14087174218221743,9.797050871091109
3665000000.0,22.41,0.0,0.0,0.0,0.03590445762354458,0.1537227711882277,9.806762771188229
3670000000.0,22.41,0.0,0.0,0.0,0.02943,0.14401065742930658,9.803525328714654
3675000000.0,22.41,0.0,0.0,0.0,0.016676857235068572,0.1500931427649314,9.78743685723507
3680000000.0,22.41,0.0,0.0,0.0,0.02236694295916943,0.14440305704083056,9.78057
3685000000.0,22.41,0.0,0.0,0.0,0.017069256846592572,0.15588111473011115,9.768209256846593
3690000000.0,22.41,0.0,0.0,0.0,0.028056815021468146,0.17285227167382272,9.773114543347646
3695000000.0,22.41,0.0,0.0,0.0,0.03924,0.15862748468717486,9.798522515312825
3700000000.0,22.41,0.0,0.0,0.0,0.02746785626387856,0.16480821560418216,9.81
3705000000.0,22.41,0.0,0.0,0.0,0.01962,0.15921608410446084,9.80421202803482
3710000000.0,22.41,0.0,0.0,0.0,0.01962,0.14715,9.80019
3715000000.0,22.41,0.0,0.0,0.0,0.01962,0.14155822784058228,9.789006455681164
3720000000.0,22.41,0.0,0.0,0.0,0.030607344513073443,0.14832734451307344,9.78057
3725000000.0,22.41,0.0,0.0,0.0,0.03924,0.16235557235365572,9.785965572353657
3730000000.0,22.41,0.0,0.0,0.0,0.023347582647675825,0.15617505509845056,9.80097494490155
3735000000.0,22.41,0.0,0.0,0.0,0.035806862739468634,0.1679474901915749,9.804800627452106
3740000000.0,22.41,0.0,0.0,0.0,0.04865745470997455,0.17108618206496182,9.795088727354988
3745000000.0,22.41,0.0,0.0,0.0,0.02923365451573654,0.16196317274213173,9.795383172742133
3750000000.0,22.41,0.0,0.0,0.0,0.01962,0.15695985432149853,9.79528492716075
3755000000.0,22.41,0.0,0.0,0.0,0.01962,0.15195697293636973,9.79518697293637
3760000000.0,22.41,0.0,0.0,0.0,0.02432887303348873,0.16166887303348873,9.790772253933023
3765000000.0,22.41,0.0,0.0,0.0,0.02481922686939227,0.17138077313060773,9.789791546261217
3770000000.0,22.41,0.0,0.0,0.0,0.028645346455453462,0.16755465354454652,9.804702673227727
3775000000.0,22.41,0.0,0.0,0.0,0.034825426675154265,0.16578914664969147,9.814414573324846
3780000000.0,22.41,0.0,0.0,0.0,0.025113526578035266,0.1636305797341058,9.806860579734106
3785000000.0,22.41,0.0,0.0,0.0,0.03227512055725121,0.14715,9.786161626480917
3790000000.0,22.41,0.0,0.0,0.0,0.03668917915139179,0.14715,9.788810547232407
3795000000.0,22.41,0.0,0.0,0.0,0.027664347426643473,0.14715,9.80019
3800000000.0,22.41,0.0,0.0,0.0,0.04316407381044074,0.1589222214313222,9.80019
3805000000.0,22.41,0.0,0.0,0.0,0.045224026092440264,0.17658,9.79636402609244
3810000000.0,22.41,0.0,0.0,0.0,0.03178425199064252,0.16912425199064252,9.794107874004679
3815000000.0,22.41,0.0,0.0,0.0,0.01599022589820226,0.1497004517964045,9.803819774101799
3820000000.0,22.41,0.0,0.0,0.0,0.016873348397833485,0.14440334839783348,9.806468325801085
3825000000.0,22.41,0.0,0.0,0.0,0.019129277111892773,0.1500928514079285,9.803623574296036
3830000000.0,22.41,0.0,0.0,0.0,0.020012846358928464,0.15068189757261896,9.81
3835000000.0,22.41,0.0,0.0,0.0,0.05886,0.17334262550972623,9.81
3840000000.0,22.41,0.0,0.0,0.0,0.04630290165042902,0.16049145082521452,9.800582176237823
3845000000.0,22.41,0.0,0.0,0.0,0.02570234936902349,0.15627352405353523,9.786652349369025
3850000000.0,22.41,0.0,0.0,0.0,0.033353850436738504,0.17363692521836924,9.794303850436739
3855000000.0,22.41,0.0,0.0,0.0,0.01962,0.1610800502425005,9.78910492463625
3860000000.0,22.41,0.0,0.0,0.0,0.01687312502413125,0.14989687497586876,9.807253125024133
3865000000.0,22.41,0.0,0.0,0.0,0.0151075501459755,0.16225755014597548,9.797541224927013
3870000000.0,22.41,0.0,0.0,0.0,0.024328649659786497,0.1714786496597865,9.795481350340214
3875000000.0,22.41,0.0,0.0,0.0,0.019620301068903008,0.15696,9.807547424732775
3880000000.0,22.41,0.0,0.0,0.0,0.03727762317827624,0.15696,9.802544475364344
3885000000.0,22.41,0.0,0.0,0.0,0.009025501845855018,0.15696,9.807743624538537
3890000000.0,22.41,0.0,0.0,0.0,0.03492344888283449,0.15911827555858274,9.80019
3895000000.0,22.41,0.0,0.0,0.0,0.025800526967105268,0.16470982434429823,9.802250175655702
3900000000.0,22.41,0.0,0.0,0.0,0.04316377274153773,0.15696,9.81
3905000000.0,22.41,0.0,0.0,0.0,0.021483975849939756,0.15696,9.81
3910000000.0,22.41,0.0,0.0,0.0,0.03119587594705876,0.16049175189411752,9.81
3915000000.0,22.41,0.0,0.0,0.0,0.035904447911644474,0.17324444791164448,9.804996671867467
3920000000.0,22.41,0.0,0.0,0.0,0.02118967614129676,0.15852967614129676,9.78057
3925000000.0,22.41,0.0,0.0,0.0,0.02795842376158424,0.16529842376158424,9.783513152476832
3930000000.0,22.41,0.0,0.0,0.0,0.02374042900660429,0.16108042900660427,9.80019
3935000000.0,22.41,0.0,0.0,0.0,0.050325376432653765,0.18001311783673118,9.802740752865308
3940000000.0,22.41,0.0,0.0,0.0,0.05650544694045447,0.1408718295893183,9.816278170410682
3945000000.0,22.41,0.0,0.0,0.0,0.03924,0.1635324701193247,9.791459176626892
3950000000.0,22.41,0.0,0.0,0.0,0.03825892327598923,0.13734,9.79822784655198
3955000000.0,22.41,0.0,0.0,0.0,0.026781069536610698,0.13822297682112977,9.78145297682113
3960000000.0,22.41,0.0,0.0,0.0,0.0023546307547463075,0.14793487691824878,9.79116487691825
3965000000.0,22.41,0.0,0.0,0.0,0.02805644596926446,0.15833355403073554,9.80019
3970000000.0,22.41,0.0,0.0,0.0,0.010987354224973541,0.17658,9.80019
3975000000.0,22.41,0.0,0.0,0.0,0.030411154419211547,0.17658,9.80019
3980000000.0,22.41,0.0,0.0,0.0,0.04826504538655046,0.17579504538655044,9.799797522693275
3985000000.0,22.41,0.0,0.0,0.0,0.02943,0.15725437740384376,9.79038
3990000000.0,22.41,0.0,0.0,0.0,0.029037444998074452,0.16637744499807444,9.79038
3995000000.0,22.41,0.0,0.0,0.0,0.009908177598081776,0.14715,9.790674532794245
4000000000.0,22.41,0.0,0.0,0.0,0.019620077695200775,0.14715015539040155,9.819809689219197
4005000000.0,22.41,0.0,0.0,0.0,0.029331977792319778,0.16657395558463955,9.780962088830721
4010000000.0,22.41,0.0,0.0,0.0,0.02943,0.16677,9.809411633668317
4015000000.0,22.41,0.0,0.0,0.0,0.048461555973115564,0.16677,9.771936888053768
4020000000.0,22.41,0.0,0.0,0.0,0.04905,0.18560535616735357,9.79901303425103
4025000000.0,22.41,0.0,0.0,0.0,0.03973042181920421,0.13979210909602108,9.78155084363841
4030000000.0,22.41,0.0,0.0,0.0,0.030018521722085217,0.1465614782779148,9.79901295655583
4035000000.0,22.41,0.0,0.0,0.0,0.011183243249932435,0.16539675675006757,9.791066621624967
4040000000.0,22.41,0.0,0.0,0.0,0.04591111388861114,0.14871944305569443,9.817455835416458
4045000000.0,22.41,0.0,0.0,0.0,0.031195642861456433,0.12929564286145642,9.801955642861458
4050000000.0,22.41,0.0,0.0,0.0,0.038259078666390785,0.16284631466556315,9.809019078666392
4055000000.0,22.41,0.0,0.0,0.0,0.013047063709470636,0.16677,9.81
4060000000.0,22.41,0.0,0.0,0.0,0.027075757721257577,0.16677,9.801367121139371
4065000000.0,22.41,0.0,0.0,0.0,0.04649955791549558,0.14116566312675663,9.808724778957748
4070000000.0,22.41,0.0,0.0,0.0,0.04061332094513321,0.17108671621946714,9.801563320945133
4075000000.0,22.41,0.0,0.0,0.0,0.014224262544042625,0.15156426254404262,9.816867158303973
4080000000.0,22.41,0.0,0.0,0.0,0.018050479249104794,0.16363095849820958,9.80332904150179
4085000000.0,22.41,0.0,0.0,0.0,0.01962,0.15048524130755242,9.783905241307552
4090000000.0,22.41,0.0,0.0,0.0,0.011575720556657204,0.1632385588866856,9.772525720556656
4095000000.0,22.41,0.0,0.0,0.0,0.001863820459538203,0.1349852818381528,9.794598538621386
4100000000.0,22.41,0.0,0.0,0.0,0.02354423891274239,0.15892231855032318,9.815886159275163
4105000000.0,22.41,0.0,0.0,0.0,0.044929959469399594,0.15127004053060042,9.812060020265301
4110000000.0,22.41,0.0,0.0,0.0,0.0413981201681812,0.17775751932727518,9.81
4115000000.0,22.41,0.0,0.0,0.0,0.03924,0.1712824401421244,9.802446220071063
4120000000.0,22.41,0.0,0.0,0.0,0.0168729599218296,0.1518586399478864,9.80019
4125000000.0,22.41,0.0,0.0,0.0,0.0171675801231758,0.1618651602463516,9.807547580123176
4130000000.0,22.41,0.0,0.0,0.0,0.0341389604405896,0.15951051977970518,9.81
4135000000.0,22.41,0.0,0.0,0.0,0.03924,0.15696,9.802838619682587
4140000000.0,22.41,0.0,0.0,0.0,0.03924,0.1498967195854672,9.80019
4145000000.0,22.41,0.0,0.0,0.0,0.05317036102330361,0.1541151805116518,9.79322481948835
4150000000.0,22.41,0.0,0.0,0.0,0.0519929193912292,0.14322583878245837,9.797247080608772
4155000000.0,22.41,0.0,0.0,0.0,0.035512038588220385,0.14410898070588982,9.80695898070589
4160000000.0,22.41,0.0,0.0,0.0,0.022759119196991192,0.1404791191969912,9.803329119196992
4165000000.0,22.41,0.0,0.0,0.0,0.026192780900127808,0.1504855618002556,9.793617219099874
4170000000.0,22.41,0.0,0.0,0.0,0.02943,0.1634346809972468,9.803329361994495
4175000000.0,22.41,0.0,0.0,0.0,0.03580658109436581,0.1603934189056342,9.790870256716904
4180000000.0,22.41,0.0,0.0,0.0,0.03296151880851519,0.14440303761703036,9.79312696238297
4185000000.0,22.41,0.0,0.0,0.0,0.02943,0.15588114386581142,9.781648856134188
4190000000.0,22.41,0.0,0.0,0.0,0.01726543722855437,0.1606877186142772,9.776842281385724
4195000000.0,22.41,0.0,0.0,0.0,0.015794181482841813,0.16892836296568361,9.786554181482842
4200000000.0,22.41,0.0,0.0,0.0,0.007847836840078367,0.16480783684007835,9.802152163159922
4205000000.0,22.41,0.0,0.0,0.0,0.01736394503123945,0.15696,9.81578798167708
4210000000.0,22.41,0.0,0.0,0.0,0.02943,0.15696,9.802740354677404
4215000000.0,22.41,0.0,0.0,0.0,0.03502178187131782,0.1625517818713178,9.801563563742636
4220000000.0,22.41,0.0,0.0,0.0,0.02275895409468954,0.16127631803156317,9.79351895409469
4225000000.0,22.41,0.0,0.0,0.0,0.004414417934444179,0.1623555820655558,9.785965582065556
4230000000.0,22.41,0.0,0.0,0.0,0.010594964325349643,0.15617503567465035,9.79038
4235000000.0,22.41,0.0,0.0,0.0,0.01962,0.15234938225979383,9.795579382259794
4240000000.0,22.41,0.0,0.0,0.0,0.024721282356912823,0.1620612823569128,9.805291282356913
4245000000.0,22.41,0.0,0.0,0.0,0.034433182454031826,0.1717731824540318,9.815003182454033
4250000000.0,22.41,0.0,0.0,0.0,0.029429834897698348,0.17167491744884916,9.81490491744885
4255000000.0,22.41,0.0,0.0,0.0,0.024426982648269827,0.1523490520551905,9.81
4260000000.0,22.41,0.0,0.0,0.0,0.03413888274538883,0.14204888274538882,9.805291117254612
4265000000.0,22.41,0.0,0.0,0.0,0.03001843431498434,0.15637156568501565,9.80480078284251
4270000000.0,22.41,0.0,0.0,0.0,0.01962,0.16677,9.800974634120747
4275000000.0,22.41,0.0,0.0,0.0,0.01962,0.14469708481627086,9.785965416963254
4280000000.0,22.41,0.0,0.0,0.0,0.01962,0.13498593253545932,9.793519449401595
4285000000.0,22.41,0.0,0.0,0.0,0.028056766461967662,0.15696,9.801563233538033
4290000000.0,22.41,0.0,0.0,0.0,0.03924,0.15696,9.786259716671898
4295000000.0,22.41,0.0,0.0,0.0,0.031195633149556326,0.16500436685044365,9.78057
4300000000.0,22.41,0.0,0.0,0.0,0.02746816704468167,0.1648077494329775,9.78057
4305000000.0,22.41,0.0,0.0,0.0,0.031588032761080326,0.15097598361945982,9.784395983619461
4310000000.0,22.41,0.0,0.0,0.0,0.015892116283421163,0.16068788371657883,9.79410788371658
4315000000.0,22.41,0.0,0.0,0.0,0.013439783813697837,0.16314021618630214,9.807449567627396
4320000000.0,22.41,0.0,0.0,0.0,0.026683367821633677,0.15342831608918314,9.816278316089184
4325000000.0,22.41,0.0,0.0,0.0,0.02893924797619248,0.14715,9.81
4330000000.0,22.41,0.0,0.0,0.0,0.016480968210109682,0.15048548410505483,9.81
4335000000.0,22.41,0.0,0.0,0.0,0.026192615797826158,0.16667215260652152,9.800287847393479
4340000000.0,22.41,0.0,0.0,0.0,0.013341431401414312,0.18325071570070714,9.783709284299293
4345000000.0,22.41,0.0,0.0,0.0,0.015205921982059221,0.17658,9.793421184396413
4350000000.0,22.41,0.0,0.0,0.0,0.04610691550646916,0.16775074651940747,9.80019
4355000000.0,22.41,0.0,0.0,0.0,0.033550030818700304,0.14430501540935015,9.80019
4360000000.0,22.41,0.0,0.0,0.0,0.01962,0.13734,9.80019
4365000000.0,22.41,0.0,0.0,0.0,0.01697121521511215,0.1426375695697757,9.802838784784889
4370000000.0,22.41,0.0,0.0,0.0,0.014911369764013697,0.15951068488200684,9.81
4375000000.0,22.41,0.0,0.0,0.0,0.0343351699582517,0.16431741502087416,9.81
4380000000.0,22.41,0.0,0.0,0.0,0.04905,0.15696,9.807645514923756
4385000000.0,22.41,0.0,0.0,0.0,0.04679361482663615,0.15696,9.795677229653274
4390000000.0,22.41,0.0,0.0,0.0,0.03492342945903429,0.15696,9.784886570540966
4395000000.0,22.41,0.0,0.0,0.0,0.017559814632398144,0.15902018536760185,9.798129814632398
4400000000.0,22.41,0.0,0.0,0.0,0.011772085464720854,0.16088374360583743,9.794304170929442
4405000000.0,22.41,0.0,0.0,0.0,0.021483985561839853,0.14293195668551956,9.81186398556184
4410000000.0,22.41,0.0,0.0,0.0,0.031195885658958856,0.16500411434104115,9.814512343023123
4415000000.0,22.41,0.0,0.0,0.0,0.03924,0.15862778575607786,9.792047785756079
4420000000.0,22.41,0.0,0.0,0.0,0.03767031414680314,0.16833968585319686,9.798620314146804
4425000000.0,22.41,0.0,0.0,0.0,0.02943,0.1721652421490524,9.791851585950317
4430000000.0,22.41,0.0,0.0,0.0,0.02805651395256514,0.14852348604743487,9.801563486047435
4435000000.0,22.41,0.0,0.0,0.0,0.022170772289107722,0.15823538614455385,9.807449227710892
4440000000.0,22.41,0.0,0.0,0.0,0.038062713758327135,0.16441542751665428,9.79038
4445000000.0,22.41,0.0,0.0,0.0,0.02943,0.14715,9.791459186338793
4450000000.0,22.41,0.0,0.0,0.0,0.02943,0.14715,9.79920891356409
4455000000.0,22.41,0.0,0.0,0.0,0.02766402693394027,0.14803298653302988,9.79038
4460000000.0,22.41,0.0,0.0,0.0,0.011379773260297732,0.15617511336985113,9.789595113369852
4465000000.0,22.41,0.0,0.0,0.0,0.028743213272732132,0.14715,9.779883213272733
4470000000.0,22.41,0.0,0.0,0.0,0.020797373648773734,0.14832737364877374,9.773703434121934
4475000000.0,22.41,0.0,0.0,0.0,0.03776823923548239,0.16677,9.819319413078494
4480000000.0,22.41,0.0,0.0,0.0,0.01098746105587461,0.16677,9.81
4485000000.0,22.41,0.0,0.0,0.0,0.038945612884256124,0.16706438711574387,9.809116838652768
4490000000.0,22.41,0.0,0.0,0.0,0.029626287212862874,0.17559856393568563,9.78057
4495000000.0,22.41,0.0,0.0,0.0,0.03904362538003625,0.12772637461996375,9.780864561929947
4500000000.0,22.41,0.0,0.0,0.0,0.01962,0.14715008740710087,9.8099999125929
4505000000.0,22.41,0.0,0.0,0.0,0.01962,0.15686198750421987,9.80028801249578
4510000000.0,22.41,0.0,0.0,0.0,0.048461662804016634,0.15696,9.80019
4515000000.0,22.41,0.0,0.0,0.0,0.04905,0.15696,9.80019
4520000000.0,22.41,0.0,0.0,0.0,0.04905,0.16637768779557688,9.790772312204425
4525000000.0,22.41,0.0,0.0,0.0,0.030410824214608244,0.13881123632191236,9.799699587892697
4530000000.0,22.41,0.0,0.0,0.0,0.010987024020370242,0.1465614879898149,9.78174702402037
4535000000.0,22.41,0.0,0.0,0.0,0.03718016426080164,0.15627338808693386,9.789693388086935
4540000000.0,22.41,0.0,0.0,0.0,0.04826528818405289,0.15696,9.79038
4545000000.0,22.41,0.0,0.0,0.0,0.01334124687531247,0.15696,9.799307188281173
4550000000.0,22.41,0.0,0.0,0.0,0.045126353513163533,0.16578908837829087,9.817848176756582
4555000000.0,22.41,0.0,0.0,0.0,0.04031901152459011,0.14930802304918023,9.81107901152459
4560000000.0,22.41,0.0,0.0,0.0,0.021974222854942226,0.15578288857252887,9.792734222854943
4565000000.0,22.41,0.0,0.0,0.0,0.028154788669647886,0.13989042266070423,9.79038
4570000000.0,22.41,0.0,0.0,0.0,0.03786668876676688,0.15421337753353376,9.807253377533534
4575000000.0,22.41,0.0,0.0,0.0,0.03924,0.1486214111361141,9.81
4580000000.0,22.41,0.0,0.0,0.0,0.04748048896100489,0.17187146688301466,9.785278533116987
4585000000.0,22.41,0.0,0.0,0.0,0.03276522188375222,0.17658,9.796854778116248
4590000000.0,22.41,0.0,0.0,0.0,0.01334142168951422,0.1685357108447571,9.808234289155243
4595000000.0,22.41,0.0,0.0,0.0,0.033648567757085676,0.1588238107476381,9.794107621495277
4600000000.0,22.41,0.0,0.0,0.0,0.01569573195155732,0.1491119106505191,9.806076178698962
4605000000.0,22.41,0.0,0.0,0.0,0.02530997889319979,0.15489998944659988,9.794500021106801
4610000000.0,22.41,0.0,0.0,0.0,0.037081889543718896,0.17226377908743778,9.79803188954372
4615000000.0,22.41,0.0,0.0,0.0,0.024132420718324204,0.1690262103591621,9.822851368922514
4620000000.0,22.41,0.0,0.0,0.0,0.034531379475913795,0.15185862052408622,9.822164310262043
4625000000.0,22.41,0.0,0.0,0.0,0.0318824101649241,0.1545075898350759,9.797737230494773
4630000000.0,22.41,0.0,0.0,0.0,0.036689489932194896,0.1424410201356102,9.783120510067805
4635000000.0,22.41,0.0,0.0,0.0,0.024917219941372196,0.1588241700879417,9.773408609970685
4640000000.0,22.41,0.0,0.0,0.0,0.0266832901264329,0.1526434197471342,9.791949870379298
4645000000.0,22.41,0.0,0.0,0.0,0.0363951902235519,0.15411519022355188,9.786259619552897
4650000000.0,22.41,0.0,0.0,0.0,0.0323729096793291,0.1432258193586582,9.794304180641342
4655000000.0,22.41,0.0,0.0,0.0,0.02943,0.1576469712533697,9.80695899041779
4660000000.0,22.41,0.0,0.0,0.0,0.022759109485091095,0.16677,9.796658218970183
4665000000.0,22.41,0.0,0.0,0.0,0.01962,0.16019720938797208,9.803525581224056
4670000000.0,22.41,0.0,0.0,0.0,0.01962,0.15696,9.816474690709148
4675000000.0,22.41,0.0,0.0,0.0,0.01962,0.15058340919373409,9.80705681838747
4680000000.0,22.41,0.0,0.0,0.0,0.03217698180676982,0.1534284909033849,9.806468490903386
4685000000.0,22.41,0.0,0.0,0.0,0.026879217998992178,0.14459921799899217,9.828541173001511
4690000000.0,22.41,0.0,0.0,0.0,0.025702291097622912,0.14950458219524582,9.821183126707131
4695000000.0,22.41,0.0,0.0,0.0,0.023445808805258088,0.15097580880525807,9.804015808805259
4700000000.0,22.41,0.0,0.0,0.0,0.031392182583721825,0.15892218258372182,9.80019
4705000000.0,22.41,0.0,0.0,0.0,0.03345200861102009,0.16098200861102008,9.788614017222041
4710000000.0,22.41,0.0,0.0,0.0,0.03511989148609891,0.16833978297219782,9.797639674458297
4715000000.0,22.41,0.0,0.0,0.0,0.044831791583217914,0.15980462525034625,9.81
4720000000.0,22.41,0.0,0.0,0.0,0.021581541598315417,0.15264369168033692,9.81
4725000000.0,22.41,0.0,0.0,0.0,0.016186775332367752,0.14077322466763226,9.81
4730000000.0,22.41,0.0,0.0,0.0,0.02943,0.12753,9.804702508125425
4735000000.0,22.41,0.0,0.0,0.0,0.02423060802830608,0.14312817591508176,9.794990608028307
4740000000.0,22.41,0.0,0.0,0.0,0.0451264603440646,0.16716258413762583,9.800582584137626
4745000000.0,22.41,0.0,0.0,0.0,0.053660423502204235,0.1565672313362723,9.799993615668138
4750000000.0,22.41,0.0,0.0,0.0,0.034334907736949076,0.14715018452610185,9.800190184526102
4755000000.0,22.41,0.0,0.0,0.0,0.02943,0.17138097708050976,9.800386015279662
4760000000.0,22.41,0.0,0.0,0.0,0.02943,0.17697221508542216,9.79508889245729
4765000000.0,22.41,0.0,0.0,0.0,0.024819207445592073,0.15754841489118415,9.795579207445593
4770000000.0,22.41,0.0,0.0,0.0,0.028645385303053852,0.14715,9.794892692651528
4775000000.0,22.41,0.0,0.0,0.0,0.04365459274864593,0.15156459274864592,9.786946221754063
4780000000.0,22.41,0.0,0.0,0.0,0.040417014308470146,0.15696,9.77939298569153
4785000000.0,22.41,0.0,0.0,0.0,0.02943,0.15274160705711606,9.79881678588577
4790000000.0,22.41,0.0,0.0,0.0,0.02943,0.15127029304000292,9.801759413919994
4795000000.0,22.41,0.0,0.0,0.0,0.02943,0.15293780686287806,9.79038
4800000000.0,22.41,0.0,0.0,0.0,0.033354093234240934,0.14715,9.794304093234242
4805000000.0,22.41,0.0,0.0,0.0,0.035414006668640065,0.15480198666271988,9.796364006668641
4810000000.0,22.41,0.0,0.0,0.0,0.025702106571521065,0.1555863197145632,9.79783578685696
4815000000.0,22.41,0.0,0.0,0.0,0.01962,0.13734,9.81
4820000000.0,22.41,0.0,0.0,0.0,0.012556612754566127,0.14087169362271693,9.813531693622718
4825000000.0,22.41,0.0,0.0,0.0,0.010300781159507812,0.15058359371983593,9.80264203140082
4830000000.0,22.41,0.0,0.0,0.0,0.03610098763390988,0.15696,9.77076
4835000000.0,22.41,0.0,0.0,0.0,0.036100424343704245,0.16019739391407392,9.77076
4840000000.0,22.41,0.0,0.0,0.0,0.01608858802238588,0.16677,9.777038588022386
4845000000.0,22.41,0.0,0.0,0.0,0.026388805891688058,0.16677,9.79038
4850000000.0,22.41,0.0,0.0,0.0,0.022563094205430942,0.16971309420543093,9.793323094205432
4855000000.0,22.41,0.0,0.0,0.0,0.026585005697450058,0.17658,9.80019
4860000000.0,22.41,0.0,0.0,0.0,0.022366894399668942,0.17658,9.80293689439967
4865000000.0,22.41,0.0,0.0,0.0,0.03737638349036383,0.1712824110064241,9.807351205503213
4870000000.0,22.41,0.0,0.0,0.0,0.05375861081218611,0.14930791621827916,9.802740694593908
4875000000.0,22.41,0.0,0.0,0.0,0.02942962123589621,0.13488778407307783,9.800189621235896
4880000000.0,22.41,0.0,0.0,0.0,0.00941797915257979,0.15460550521185504,9.777823484364434
4885000000.0,22.41,0.0,0.0,0.0,0.041496394885263944,0.14715,9.795677210229472
4890000000.0,22.41,0.0,0.0,0.0,0.04041682007046821,0.1514665899647659,9.78704488494715
4895000000.0,22.41,0.0,0.0,0.0,0.01187019507950195,0.1708903901590039,9.812060195079502
4900000000.0,22.41,0.0,0.0,0.0,0.01962,0.18050371447013713,9.809999524116895
4905000000.0,22.41,0.0,0.0,0.0,0.023347990547479904,0.1606879905474799,9.77635198582122
4910000000.0,22.41,0.0,0.0,0.0,0.03570820925828209,0.17128231388742313,9.798424104629142
4915000000.0,22.41,0.0,0.0,0.0,0.024623386403933863,0.14548220453202204,9.79038
4920000000.0,22.41,0.0,0.0,0.0,0.045910608869806094,0.13890969556509694,9.793519391130195
4925000000.0,22.41,0.0,0.0,0.0,0.026486808675568088,0.1500931913244319,9.81
4930000000.0,22.41,0.0,0.0,0.0,0.011183495759334958,0.16814349575933496,9.81
4935000000.0,22.41,0.0,0.0,0.0,0.020895395856453957,0.17658,9.808724604143547
4940000000.0,22.41,0.0,0.0,0.0,0.03060729595357296,0.17540270404642702,9.801367295953574
4945000000.0,22.41,0.0,0.0,0.0,0.038160803949308035,0.16784919605069196,9.806762411847926
4950000000.0,22.41,0.0,0.0,0.0,0.02943,0.17658,9.783513288443434
4955000000.0,22.41,0.0,0.0,0.0,0.02854700375507004,0.17569700375507002,9.80823400751014
4960000000.0,22.41,0.0,0.0,0.0,0.02197468902614689,0.16441531097385312,9.789595103657952
4965000000.0,22.41,0.0,0.0,0.0,0.04767640712166407,0.13802679643916796,9.78057
4970000000.0,22.41,0.0,0.0,0.0,0.02825260692742607,0.1453839103911391,9.78057
4975000000.0,22.41,0.0,0.0,0.0,0.011772386533623865,0.12017298316702983,9.78057
4980000000.0,22.41,0.0,0.0,0.0,0.04944249673052497,0.16637750326947504,9.780177503269476
4985000000.0,22.41,0.0,0.0,0.0,0.0579768095170681,0.15696,9.77076
4990000000.0,22.41,0.0,0.0,0.0,0.02943,0.15715629692476296,9.771348890774288
4995000000.0,22.41,0.0,0.0,0.0,0.029822788087527884,0.16667180297811804,9.800288197021883
5000000000.0,22.41,0.0,0.0,0.0,0.06866951440499514,0.156959902880999,9.81
5005000000.0,22.41,0.0,0.0,0.0,0.020110013919400135,0.14724800278388003,9.81
5010000000.0,22.41,0.0,0.0,0.0,0.010006102686761026,0.12792220537352206,9.800386102686762
5015000000.0,22.41,0.0,0.0,0.0,0.0002942025896420248,0.12753,9.781158405179285
5020000000.0,22.41,0.0,0.0,0.0,0.01883539501495395,0.17461848753738485,9.789987697507478
5025000000.0,22.41,0.0,0.0,0.0,0.01962,0.17658,9.781060402395404
5030000000.0,22.41,0.0,0.0,0.0,0.01962,0.18580149770171497,9.789791497701716
5035000000.0,22.41,0.0,0.0,0.0,0.02874339779883398,0.15901980660349804,9.781256602201166
5040000000.0,22.41,0.0,0.0,0.0,0.02943,0.14793470210404702,9.789595297895954
5045000000.0,22.41,0.0,0.0,0.0,0.03835719799307198,0.12929560401385604,9.799307197993073
5050000000.0,22.41,0.0,0.0,0.0,0.03924,0.13635909809019098,9.764873607639236
5055000000.0,22.41,0.0,0.0,0.0,0.03050900181269002,0.18099499093654992,9.76968099818731
5060000000.0,22.41,0.0,0.0,0.0,0.020797101715571017,0.16049130514671303,9.805291593137717
5065000000.0,22.41,0.0,0.0,0.0,0.01962,0.165494798381548,9.775860806473807
5070000000.0,22.41,0.0,0.0,0.0,0.028056698478666986,0.17520669847866696,9.804506793914669
5075000000.0,22.41,0.0,0.0,0.0,0.021091401424214014,0.159902802848428,9.79332280284843
5080000000.0,22.41,0.0,0.0,0.0,0.011379501327095011,0.14871950132709502,9.79038
5085000000.0,22.41,0.0,0.0,0.0,0.00981,0.14715,9.798522398770025
5090000000.0,22.41,0.0,0.0,0.0,0.025898597734285978,0.18737149433571496,9.776057103398571
5095000000.0,22.41,0.0,0.0,0.0,0.03737619896426199,0.14852280621442804,9.786652397928524
5100000000.0,22.41,0.0,0.0,0.0,0.023543801877238014,0.16088429718414296,9.79038
5105000000.0,22.41,0.0,0.0,0.0,0.011870000841500007,0.13577000336600004,9.7826300008415
5110000000.0,22.41,0.0,0.0,0.0,0.03276569776685698,0.14283379851123798,9.803525697766858
5115000000.0,22.41,0.0,0.0,0.0,0.031686200647262006,0.14715,9.794892401294526
5120000000.0,22.41,0.0,0.0,0.0,0.007062901650429016,0.139694300550143,9.79038
5125000000.0,22.41,0.0,0.0,0.0,0.01471519909395199,0.152055199093952,9.805095199093952
5130000000.0,22.41,0.0,0.0,0.0,0.012360500355905003,0.15696,9.79548100071181
5135000000.0,22.41,0.0,0.0,0.0,0.016971399741213998,0.15696,9.797541399741215
5140000000.0,22.41,0.0,0.0,0.0,0.026683299838332997,0.164023299838333,9.793126700161668
5145000000.0,22.41,0.0,0.0,0.0,0.043360399870904,0.159804800064548,9.783414800064548
5150000000.0,22.41,0.0,0.0,0.0,0.028448699902287,0.136358699902287,9.801171300097714
5155000000.0,22.41,0.0,0.0,0.0,0.033158000259380004,0.14783700038907,9.79646199974062
5160000000.0,22.41,0.0,0.0,0.0,0.025898199546381992,0.150289099773191,9.79038
5165000000.0,22.41,0.0,0.0,0.0,0.013047199676071996,0.134004399352144,9.796952800323929
5170000000.0,22.41,0.0,0.0,0.0,0.022759400842094008,0.15990350210523502,9.793715299578954
5175000000.0,22.41,0.0,0.0,0.0,0.010300198445501986,0.170203399481834,9.796756600518167
5180000000.0,22.41,0.0,0.0,0.0,0.025114002461140025,0.16677,9.793911499384716
5185000000.0,22.41,0.0,0.0,0.0,0.026879198575191984,0.16677,9.778019198575192
5190000000.0,22.41,0.0,0.0,0.0,0.02570230080952301,0.172852300809523,9.78900690242857
5195000000.0,22.41,0.0,0.0,0.0,0.02943,0.16461159818671597,9.812158401813285
5200000000.0,22.41,0.0,0.0,0.0,0.02354389899623899,0.15696,9.81392389899624
5205000000.0,22.41,0.0,0.0,0.0,0.01962,0.15696,9.81
5210000000.0,22.41,0.0,0.0,0.0,0.013930098802000987,0.15696,9.792930296406004
5215000000.0,22.41,0.0,0.0,0.0,0.026585403885354037,0.151368198704882,9.786161801295119
5220000000.0,22.41,0.0,0.0,0.0,0.02275889582328896,0.15813740278447402,9.801367402784475
5225000000.0,22.41,0.0,0.0,0.0,0.02599680446806804,0.16677,9.81
5230000000.0,22.41,0.0,0.0,0.0,0.03394249841352498,0.15617499682704997,9.815297501586475
5235000000.0,22.41,0.0,0.0,0.0,0.02943,0.15754880336718805,9.799012393265624
5240000000.0,22.41,0.0,0.0,0.0,0.019227396438573966,0.15656739643857398,9.790772603561427
5245000000.0,22.41,0.0,0.0,0.0,0.014813201877832017,0.14715,9.790183596244336
5250000000.0,22.41,0.0,0.0,0.0,0.00980979605009796,0.14224489802504897,9.795285305924853
5255000000.0,22.41,0.0,0.0,0.0,0.014421006216210062,0.14695400414414003,9.81
5260000000.0,22.41,0.0,0.0,0.0,0.02472109783081098,0.16637780433837804,9.805291097830812
5265000000.0,22.41,0.0,0.0,0.0,0.015009197733691977,0.16274759320107593,9.804800802266309
5270000000.0,22.41,0.0,0.0,0.0,0.018835404726854046,0.15166270236342702,9.814512702363427
5275000000.0,22.41,0.0,0.0,0.0,0.038259204921092055,0.16137460246054602,9.810980795078908
5280000000.0,22.41,0.0,0.0,0.0,0.03610049232700492,0.15813699488466995,9.804506502557665
5285000000.0,22.41,0.0,0.0,0.0,0.023838402654784027,0.14715,9.801563194690432
5290000000.0,22.41,0.0,0.0,0.0,0.025309697248096973,0.15951090825570907,9.798620605503807
5295000000.0,22.41,0.0,0.0,0.0,0.01962,0.16451339145293392,9.81
5300000000.0,22.41,0.0,0.0,0.0,0.03139230883842309,0.14715,9.81392410294614
5305000000.0,22.41,0.0,0.0,0.0,0.04139799391347994,0.15480200608652006,9.80833199087022
5310000000.0,22.41,0.0,0.0,0.0,0.02943,0.17049790314037902,9.797835806280759
5315000000.0,22.41,0.0,0.0,0.0,0.03668960647499607,0.16932039352500391,9.806370196762503
5320000000.0,22.41,0.0,0.0,0.0,0.038454889996148905,0.15696,9.796658296665383
5325000000.0,22.41,0.0,0.0,0.0,0.016186396568263962,0.16039360343173603,9.797247206863473
5330000000.0,22.41,0.0,0.0,0.0,0.019816510586565105,0.16343449647114497,9.81
5335000000.0,22.41,0.0,0.0,0.0,0.03600259637402596,0.16343480725194806,9.81
5340000000.0,22.41,0.0,0.0,0.0,0.03256930372309304,0.1703013925538139,9.806860696276907
5345000000.0,22.41,0.0,0.0,0.0,0.033157592359575924,0.16304240764042408,9.80019
5350000000.0,22.41,0.0,0.0,0.0,0.02844931175199312,0.17658,9.794303792165339
5355000000.0,22.41,0.0,0.0,0.0,0.04335999197109992,0.1708899919710999,9.78910501204335
5360000000.0,22.41,0.0,0.0,0.0,0.026683095888430958,0.15421309588843096,9.804506191776863
5365000000.0,22.41,0.0,0.0,0.0,0.01962,0.14979880420868805,9.793028804208689
5370000000.0,22.41,0.0,0.0,0.0,0.01962,0.15951070430580702,9.80019
5375000000.0,22.41,0.0,0.0,0.0,0.022072604402926042,0.1618647911941479,9.802642604402926
5380000000.0,22.41,0.0,0.0,0.0,0.031784504500045045,0.14950450450004504,9.802936486499865
5385000000.0,22.41,0.0,0.0,0.0,0.03924,0.15696,9.778313595402837
5390000000.0,22.41,0.0,0.0,0.0,0.03924,0.15911830469428304,9.777234914082849
5395000000.0,22.41,0.0,0.0,0.0,0.04130020479140205,0.1585291808343918,9.798129795208599
5400000000.0,22.41,0.0,0.0,0.0,0.041201580445915806,0.13734052444260525,9.792342104888522
5405000000.0,22.41,0.0,0.0,0.0,0.01540201495692015,0.1728519900287199,9.80019
5410000000.0,22.41,0.0,0.0,0.0,0.03747409491724095,0.15519409491724093,9.80019
5415000000.0,22.41,0.0,0.0,0.0,0.0260943896402439,0.1504856103597561,9.795186584460366
5420000000.0,22.41,0.0,0.0,0.0,0.00981,0.16677,9.773899410553993
5425000000.0,22.41,0.0,0.0,0.0,0.01422481612234816,0.16235518387765183,9.791851605374116
5430000000.0,22.41,0.0,0.0,0.0,0.03924,0.14008701094247009,9.801563505471236
5435000000.0,22.41,0.0,0.0,0.0,0.03668918886329189,0.15823540556835405,9.811275405568354
5440000000.0,22.41,0.0,0.0,0.0,0.01962,0.16559269433452695,9.818632694334527
5445000000.0,22.41,0.0,0.0,0.0,0.020699205762592057,0.15696,9.807841588474817
5450000000.0,22.41,0.0,0.0,0.0,0.027467788280577884,0.15696,9.78939889414029
5455000000.0,22.41,0.0,0.0,0.0,0.010693005956830058,0.15696,9.78233601191366
5460000000.0,22.41,0.0,0.0,0.0,0.02118981210789812,0.15617509394605092,9.80019
5465000000.0,22.41,0.0,0.0,0.0,0.036492775395727754,0.14989722460427224,9.80019
5470000000.0,22.41,0.0,0.0,0.0,0.0017661187445611876,0.18344646875906467,9.79842388125544
5475000000.0,22.41,0.0,0.0,0.0,0.02893939365469394,0.13635878730938786,9.772231819035918
5480000000.0,22.41,0.0,0.0,0.0,0.020405012884850127,0.11850501288485013,9.800975012884852
5485000000.0,22.41,0.0,0.0,0.0,0.03924,0.13734,9.81833796730228
5490000000.0,22.41,0.0,0.0,0.0,0.038847386726673865,0.13792891990998918,9.771348919909988
5495000000.0,22.41,0.0,0.0,0.0,0.019718206733782065,0.16667179326621792,9.800288206733782
5500000000.0,22.41,0.0,0.0,0.0,0.02943,0.15696010683090106,9.809999893169099
5505000000.0,22.41,0.0,0.0,0.0,0.02943,0.16667200692802006,9.800287993071981
5510000000.0,22.41,0.0,0.0,0.0,0.01020218594972186,0.17638390702513906,9.80019
5515000000.0,22.41,0.0,0.0,0.0,0.00981,0.18609580712225807,9.809705807122258
5520000000.0,22.41,0.0,0.0,0.0,0.00981,0.14871917112249172,9.791164585561246
5525000000.0,22.41,0.0,0.0,0.0,0.019129607316496072,0.14715,9.79038
5530000000.0,22.41,0.0,0.0,0.0,0.028841507413615075,0.1748145222408452,9.79038
5535000000.0,22.41,0.0,0.0,0.0,0.020306592489265925,0.1492097774677978,9.80862681502147
5540000000.0,22.41,0.0,0.0,0.0,0.010594692392146922,0.16520061521570617,9.81
5545000000.0,22.41,0.0,0.0,0.0,0.036591623114916226,0.14891558459005586,9.792145584590056
5550000000.0,22.41,0.0,0.0,0.0,0.02158178439581784,0.14715,9.79038
5555000000.0,22.41,0.0,0.0,0.0,0.01962,0.14715,9.79911100789921
5560000000.0,22.41,0.0,0.0,0.0,0.028252907996329082,0.15578290799632907,9.782924184007342
5565000000.0,22.41,0.0,0.0,0.0,0.020895191906551917,0.15696,9.78057
5570000000.0,22.41,0.0,0.0,0.0,0.044930124571701244,0.1653967081905671,9.797443416381135
5575000000.0,22.41,0.0,0.0,0.0,0.015695566849255674,0.1584313917123139,9.791851391712315
5580000000.0,22.41,0.0,0.0,0.0,0.03453152515441525,0.14047898323038982,9.798620508384806
5585000000.0,22.41,0.0,0.0,0.0,0.047382408481924085,0.12919759151807592,9.792047591518077
5590000000.0,22.41,0.0,0.0,0.0,0.03296138284191383,0.1436186171580862,9.798424308579044
5595000000.0,22.41,0.0,0.0,0.0,0.021483791323837913,0.16304241735232416,9.80019
5600000000.0,22.41,0.0,0.0,0.0,0.01962,0.17461810877328107,9.80019
5605000000.0,22.41,0.0,0.0,0.0,0.035120017740800175,0.15332997338879972,9.8156900177408
5610000000.0,22.41,0.0,0.0,0.0,0.04689190896751909,0.1624538179350382,9.812158091032481
5615000000.0,22.41,0.0,0.0,0.0,0.03394238187072382,0.1592161909353619,9.794892381870724
5620000000.0,22.41,0.0,0.0,0.0,0.02943,0.17187141832351416,9.79038
5625000000.0,22.41,0.0,0.0,0.0,0.05150282777662828,0.1618647814822478,9.783022390741126
5630000000.0,22.41,0.0,0.0,0.0,0.03708147193201472,0.16421950935599508,9.795089018711991
5635000000.0,22.41,0.0,0.0,0.0,0.022268590546885906,0.16677,9.807351409453114
5640000000.0,22.41,0.0,0.0,0.0,0.026683309550233097,0.1597066904497669,9.817063309550234
5645000000.0,22.41,0.0,0.0,0.0,0.022464790352647902,0.1499947903526479,9.826775209647352
5650000000.0,22.41,0.0,0.0,0.0,0.0333542194889422,0.1677513292334133,9.809018670766587
5655000000.0,22.41,0.0,0.0,0.0,0.0324709901584099,0.1698109901584099,9.79342099015841
5660000000.0,22.41,0.0,0.0,0.0,0.042771819877418196,0.1534281801225818,9.79705090993871
5665000000.0,22.41,0.0,0.0,0.0,0.035904379928343805,0.1602956200716562,9.80676281003583
5670000000.0,22.41,0.0,0.0,0.0,0.010005869601158696,0.16029528986705288,9.797050579734107
5675000000.0,22.41,0.0,0.0,0.0,0.006376610230066102,0.1633366102300661,9.803133220460133
5680000000.0,22.41,0.0,0.0,0.0,0.016088510327185102,0.1353774483640745,9.79744297934563
5685000000.0,22.41,0.0,0.0,0.0,0.038161231272912315,0.13626123127291231,9.79038
5690000000.0,22.41,0.0,0.0,0.0,0.024720757914307584,0.16539693156426932,9.814709242085693
5695000000.0,22.41,0.0,0.0,0.0,0.015794210618542106,0.15264315752583157,9.811667368144374
5700000000.0,22.41,0.0,0.0,0.0,0.025506110715661105,0.15499833214698333,9.79430388928434
5705000000.0,22.41,0.0,0.0,0.0,0.02364198918721989,0.1725580108127801,9.79038
5710000000.0,22.41,0.0,0.0,0.0,0.02530991090989911,0.1708900890901009,9.801759821819799
5715000000.0,22.41,0.0,0.0,0.0,0.03502181100701811,0.13881094496490945,9.804408188992982
5720000000.0,22.41,0.0,0.0,0.0,0.050227422208274225,0.13420113331241135,9.783708866687588
5725000000.0,22.41,0.0,0.0,0.0,0.037277555194975553,0.1525456112012561,9.797738056006281
5730000000.0,22.41,0.0,0.0,0.0,0.030215022596750227,0.15696,9.80921497740325
5735000000.0,22.41,0.0,0.0,0.0,0.02884117720901177,0.1517605886045059,9.794990588604506
5740000000.0,22.41,0.0,0.0,0.0,0.024721311492613113,0.16245393447783935,9.785278688507388
5745000000.0,22.41,0.0,0.0,0.0,0.03943642317946423,0.16657357682053575,9.785573211589734
5750000000.0,22.41,0.0,0.0,0.0,0.05395511168685112,0.1618651116868511,9.79038
5755000000.0,22.41,0.0,0.0,0.0,0.04924597643205977,0.1715770117839701,9.79038
5760000000.0,22.41,0.0,0.0,0.0,0.03453108811891088,0.16245326435673263,9.813924559405447
5765000000.0,22.41,0.0,0.0,0.0,0.02943,0.15176081197820812,9.811765128130752
5770000000.0,22.41,0.0,0.0,0.0,0.01589186377401864,0.15244728792467288,9.803133560376637
5775000000.0,22.437000686070007,0.0,0.0,0.0,0.017658448689784487,0.15597922434489225,9.811961551310215
5780000000.0,22.47,0.0,0.0,0.0,0.030606975460869754,0.17540302453913026,9.794696512269566
5785000000.0,22.47,0.0,0.0,0.0,0.01962,0.18639,9.80019
5790000000.0,22.47,0.0,0.0,0.0,0.0361012498552125,0.18226968753619688,9.808430624927606
5795000000.0,22.47,0.0,0.0,0.0,0.0427711497563115,0.16853557487815574,9.811765574878157
5800000000.0,22.47,0.0,0.0,0.0,0.023544112658041128,0.15303588734195886,9.80019
5805000000.0,22.47,0.0,0.0,0.0,0.037082025510320256,0.15097601275516012,9.79636398724484
5810000000.0,22.47,0.0,0.0,0.0,0.03413834859088349,0.16441582570455823,9.801563738556839
5815000000.0,22.47,0.0,0.0,0.0,0.020699438848194387,0.16206074820240746,9.823439812949399
5820000000.0,22.47,0.0,0.0,0.0,0.03924,0.14440342609303425,9.80489800867438
5825000000.0,22.47,0.0,0.0,0.0,0.03924,0.15696,9.771250839430909
5830000000.0,22.47,0.0,0.0,0.0,0.03590448675924487,0.17030205296302053,9.787044486759246
5835000000.0,22.47,0.0,0.0,0.0,0.02943,0.19296258666212587,9.799994480027246
5840000000.0,22.47,0.0,0.0,0.0,0.026290686565006865,0.17697205969502058,9.833151373130013
5845000000.0,22.47,0.0,0.0,0.0,0.016578786467887862,0.15087757293577572,9.825892427064225
5850000000.0,22.47,0.0,0.0,0.0,0.012753113629231136,0.13734,9.824714431853845
5855000000.0,22.47,0.0,0.0,0.0,0.022465013726350135,0.14018501372635014,9.796070027452702
5860000000.0,22.47,0.0,0.0,0.0,0.023936172353061724,0.1526438276469383,9.818240741470408
5865000000.0,22.47,0.0,0.0,0.0,0.015107627841176278,0.17206762784117627,9.828834744317648
5870000000.0,22.47,0.0,0.0,0.0,0.02177785794687858,0.18128857196458573,9.802740714017707
5875000000.0,22.47,0.0,0.0,0.0,0.0024526141148261413,0.16431738588517386,9.814905228229653
5880000000.0,22.47,0.0,0.0,0.0,0.021582571059725712,0.15696,9.827265485788056
5885000000.0,22.47,0.0,0.0,0.0,0.052090757072807574,0.15921641430906414,9.813040757072809
5890000000.0,22.47,0.0,0.0,0.0,0.027271685593816857,0.1624533711876337,9.783905056781451
5895000000.0,22.47,0.0,0.0,0.0,0.01962,0.14921021450330216,9.77125107251651
5900000000.0,22.47,0.0,0.0,0.0,0.01962,0.16284634380126342,9.81
5905000000.0,22.47,0.0,0.0,0.0,0.023348029395080294,0.1826619706049197,9.80813598530246
5910000000.0,22.47,0.0,0.0,0.0,0.03747408520534085,0.16677,9.798424085205342
5915000000.0,22.47,0.0,0.0,0.0,0.027762185108221853,0.1634343702164437,9.792047814891779
5920000000.0,22.47,0.0,0.0,0.0,0.02432914496669145,0.14871971498889716,9.798620285011104
5925000000.0,22.47,0.0,0.0,0.0,0.04463515474195155,0.15254515474195154,9.791851615086017
5930000000.0,22.47,0.0,0.0,0.0,0.016872969633729695,0.12890351518313514,9.80019
5935000000.0,22.47,0.0,0.0,0.0,0.0025508305605083056,0.13861541528025415,9.796363754159238
5940000000.0,22.47,0.0,0.0,0.0,0.021974630754746306,0.14715,9.773114630754746
5945000000.0,22.47,0.0,0.0,0.0,0.03924,0.15038764642347646,9.791459215474493
5950000000.0,22.47,0.0,0.0,0.0,0.038258884428388845,0.17461776885677768,9.796265537713555
5955000000.0,22.47,0.0,0.0,0.0,0.030313015668730157,0.15607698433126985,9.76183301566873
5960000000.0,22.47,0.0,0.0,0.0,0.03610033693660337,0.14871983153169832,9.77154491576585
5965000000.0,22.47,0.0,0.0,0.0,0.0,0.16539636827406368,9.784004079314842
5970000000.0,22.47,0.0,0.0,0.0,0.0,0.14832743192017434,9.82785385211974
5975000000.0,22.47,0.0,0.0,0.0,0.0004906160572061605,0.1657887678855877,9.80019
5980000000.0,22.47,0.0,0.0,0.0,0.010595032308650323,0.14793503230865032,9.80019
5985000000.0,22.47,0.0,0.0,0.0,0.03031324875433249,0.16677,9.799306751245668
5990000000.0,22.47,0.0,0.0,0.0,0.05905631634856317,0.16677,9.771348949045688
5995000000.0,22.47,0.0,0.0,0.0,0.06817891777158917,0.16677,9.80019
6000000000.0,22.47,0.0,0.0,0.0,0.019619883457198832,0.16676988345719884,9.80019
6005000000.0,22.47,0.0,0.0,0.0,0.009907983360079833,0.1570579833600798,9.80019
6010000000.0,22.47,0.0,0.0,0.0,0.029037833474078335,0.13773216652592166,9.80980391673704
6015000000.0,22.47,0.0,0.0,0.0,0.02943,0.13734,9.81
6020000000.0,22.47,0.0,0.0,0.0,0.020012283068722832,0.15617543386255434,9.819417716931278
6025000000.0,22.47,0.0,0.0,0.0,0.01962,0.16627961702839616,9.810490382971604
6030000000.0,22.47,0.0,0.0,0.0,0.02884151712551517,0.18521303425103033,9.79155696574897
6035000000.0,22.47,0.0,0.0,0.0,0.020306582777365828,0.14077291388682914,9.808626834445269
6040000000.0,22.47,0.0,0.0,0.0,0.04669595195925952,0.15539063463950634,9.78292404804074
6045000000.0,22.47,0.0,0.0,0.0,0.01334113033251131,0.13017834774938347,9.798424434833745
6050000000.0,22.47,0.0,0.0,0.0,0.03629735254197352,0.1628464700559647,9.782531764972019
6055000000.0,22.47,0.0,0.0,0.0,0.030508982388889827,0.16677,9.81549407044444
6060000000.0,22.47,0.0,0.0,0.0,0.03806291770822917,0.14087124687531247,9.802544164583542
6065000000.0,22.47,0.0,0.0,0.0,0.03924,0.14587481780534817,9.80019
6070000000.0,22.47,0.0,0.0,0.0,0.02236656419506564,0.14715,9.783316564195067
6075000000.0,22.47,0.0,0.0,0.0,0.01962,0.15548861799958616,9.805585853998759
6080000000.0,22.47,0.0,0.0,0.0,0.03610103619341036,0.17344103619341034,9.801759481903295
6085000000.0,22.47,0.0,0.0,0.0,0.04738241819382419,0.16843758180617582,9.80019
6090000000.0,22.47,0.0,0.0,0.0,0.016872726836227273,0.15068136341811364,9.816278636581886
6095000000.0,22.47,0.0,0.0,0.0,0.03364865516418655,0.1392037816119378,9.811863781611939
6100000000.0,22.47,0.0,0.0,0.0,0.031391881514818816,0.16873247394072471,9.817848118485182
6105000000.0,22.47,0.0,0.0,0.0,0.021679981417699813,0.14557992567079925,9.81981
6110000000.0,22.47,0.0,0.0,0.0,0.050227674717676744,0.15264383735883835,9.804506162641163
6115000000.0,22.47,0.0,0.0,0.0,0.05130618122346182,0.17206763755307636,9.785082362446925
6120000000.0,22.47,0.0,0.0,0.0,0.04159428112634281,0.1691242811263428,9.802937156620972
6125000000.0,22.47,0.0,0.0,0.0,0.03924,0.15205476205844762,9.817357618970776
6130000000.0,22.47,0.0,0.0,0.0,0.03924,0.15440951906789518,9.783512404660524
6135000000.0,22.47,0.0,0.0,0.0,0.03924,0.12831432333994325,9.777921419165015
6140000000.0,22.47,0.0,0.0,0.0,0.010986722951467225,0.13184663852426637,9.8017599577864
6145000000.0,22.47,0.0,0.0,0.0,0.027860877437008776,0.15127043871850437,9.81
6150000000.0,22.47,0.0,0.0,0.0,0.05297423891274239,0.15696,9.803132880543629
6155000000.0,22.47,0.0,0.0,0.0,0.04532196089301961,0.1637290195534902,9.80695901955349
6160000000.0,22.47,0.0,0.0,0.0,0.0325690803493908,0.1467572410481724,9.796658160698783
6165000000.0,22.47,0.0,0.0,0.0,0.02943,0.14391281974772818,9.770661540756816
6170000000.0,22.47,0.0,0.0,0.0,0.035904719844847194,0.15362471984484719,9.793323599224236
6175000000.0,22.47,0.0,0.0,0.0,0.0328633800580338,0.1505833800580338,9.81
6180000000.0,22.47,0.0,0.0,0.0,0.0357085200390852,0.1597070400781704,9.797442959921831
6185000000.0,22.47,0.0,0.0,0.0,0.03924,0.1605895798637958,9.79038
6190000000.0,22.47,0.0,0.0,0.0,0.03924,0.1508776797666768,9.784297679766677
6195000000.0,22.47,0.0,0.0,0.0,0.045224220330442204,0.1531342203304422,9.798522660991328
6200000000.0,22.47,0.0,0.0,0.0,0.04905,0.14518775914487758,9.792341638717318
6205000000.0,22.47,0.0,0.0,0.0,0.03168593842595939,0.16628010262340104,9.803722082098721
6210000000.0,22.47,0.0,0.0,0.0,0.025309920621799206,0.17501015875640158,9.81981
6215000000.0,22.47,0.0,0.0,0.0,0.02943,0.16677,9.808626358562163
6220000000.0,22.47,0.0,0.0,0.0,0.04041744163207442,0.1557825583679256,9.80019
6225000000.0,22.47,0.0,0.0,0.0,0.027467516347375168,0.1525456209131562,9.80019
6230000000.0,22.47,0.0,0.0,0.0,0.01510752101027521,0.14636495797944957,9.80019
6235000000.0,22.47,0.0,0.0,0.0,0.03001884221478842,0.13734,9.80019
6240000000.0,22.47,0.0,0.0,0.0,0.034138678795486786,0.16284660602256606,9.805291321204514
6245000000.0,22.47,0.0,0.0,0.0,0.03443322130163221,0.16637711479347114,9.81
6250000000.0,22.47,0.0,0.0,0.0,0.044145121398751215,0.15205512139875121,9.795284635803746
6255000000.0,22.47,0.0,0.0,0.0,0.04424297850412978,0.1521529785041298,9.790184042991742
6260000000.0,22.47,0.0,0.0,0.0,0.034531078407010786,0.14244107840701078,9.790772156814022
6265000000.0,22.47,0.0,0.0,0.0,0.02943,0.15578328676043285,9.785180821690108
6270000000.0,22.47,0.0,0.0,0.0,0.038455443574454434,0.1720672782127728,9.799405443574456
6275000000.0,22.47,0.0,0.0,0.0,0.03139151246261512,0.16677,9.805585378115655
6280000000.0,22.47,0.0,0.0,0.0,0.02707608792586088,0.16245347801853477,9.795873478018535
6285000000.0,22.47,0.0,0.0,0.0,0.04483157792141578,0.15696,9.794598422078584
6290000000.0,22.47,0.0,0.0,0.0,0.030999355648593553,0.14871935564859354,9.80019
6295000000.0,22.47,0.0,0.0,0.0,0.01962,0.13331777772717776,9.804212222272822
6300000000.0,22.47,0.0,0.0,0.0,0.023544122369941224,0.13930236710982366,9.81
6305000000.0,22.47,0.0,0.0,0.0,0.02943,0.16078602246706022,9.81
6310000000.0,22.47,0.0,0.0,0.0,0.033157922564179224,0.16304207743582078,9.81
6315000000.0,22.47,0.0,0.0,0.0,0.031980354677403545,0.16058982266129823,9.81
6320000000.0,22.47,0.0,0.0,0.0,0.026683445516834454,0.16323827724158277,9.802936554483166
6325000000.0,22.47,0.0,0.0,0.0,0.03580637714446377,0.15696,9.79038
6330000000.0,22.47,0.0,0.0,0.0,0.02943,0.15028895409468954,9.78370895409469
6335000000.0,22.47,0.0,0.0,0.0,0.026192576950225768,0.14381484609954845,9.777234846099548
6340000000.0,22.47,0.0,0.0,0.0,0.02589864629378646,0.16009932314689324,9.796658646293787
6345000000.0,22.47,0.0,0.0,0.0,0.0301163302679633,0.16372877675598776,9.816082446488025
6350000000.0,22.47,0.0,0.0,0.0,0.00981,0.15696,9.820790629976607
6355000000.0,22.47,0.0,0.0,0.0,0.015500046876500468,0.15411497656174974,9.7944999531235
6360000000.0,22.47,0.0,0.0,0.0,0.026683076464630764,0.14989692353536924,9.78331692353537
6365000000.0,22.47,0.0,0.0,0.0,0.024917647264976472,0.16225764726497646,9.787731176367512
6370000000.0,22.47,0.0,0.0,0.0,0.03413855254078552,0.1714785525407855,9.783120723729608
6375000000.0,22.47,0.0,0.0,0.0,0.022072623826726236,0.15450737617327376,9.795285247653453
6380000000.0,22.47,0.0,0.0,0.0,0.02943,0.14950452392384525,9.80529095215231
6385000000.0,22.47,0.0,0.0,0.0,0.02491715195807152,0.15921642402096423,9.792636424020966
6390000000.0,22.47,0.0,0.0,0.0,0.018443296472332962,0.16461167588191675,9.798031675881917
6395000000.0,22.47,0.0,0.0,0.0,0.04905,0.15902022421520223,9.79038
6400000000.0,22.47,0.0,0.0,0.0,0.04120150275071503,0.16677,9.79038
6405000000.0,22.47,0.0,0.0,0.0,0.011674024409440244,0.16677,9.792244024409442
6410000000.0,22.47,0.0,0.0,0.0,0.023151849013118488,0.17030184901311848,9.80195592450656
6415000000.0,22.47,0.0,0.0,0.0,0.03590435079264351,0.17805087698160876,9.808332175396322
6420000000.0,22.47,0.0,0.0,0.0,0.021189724700797247,0.14361889880318898,9.801759724700798
6425000000.0,22.47,0.0,0.0,0.0,0.027958375202083753,0.16922187601041874,9.807056750404168
6430000000.0,22.47,0.0,0.0,0.0,0.022367049790070495,0.13027704979007051,9.79038
6435000000.0,22.47,0.0,0.0,0.0,0.03924,0.15097627497646274,9.789104575007846
6440000000.0,22.47,0.0,0.0,0.0,0.03688534982145349,0.17540267491072672,9.782924650178547
6445000000.0,22.47,0.0,0.0,0.0,0.01962,0.16784922518639225,9.801269225186394
6450000000.0,22.47,0.0,0.0,0.0,0.02060112528351125,0.17363662414946623,9.80901887471649
6455000000.0,22.47,0.0,0.0,0.0,0.027663949238739494,0.14891605076126052,9.79930697461937
6460000000.0,22.47,0.0,0.0,0.0,0.00981,0.16284537261125373,9.789595074522252
6465000000.0,22.47,0.0,0.0,0.0,0.01118365114973651,0.11703317442513175,9.781943651149737
6470000000.0,22.47,0.0,0.0,0.0,0.030018725671987257,0.11026490268794903,9.801367451343975
6475000000.0,22.47,0.0,0.0,0.0,0.03924,0.14813125153821252,9.818338122692682
6480000000.0,22.47,0.0,0.0,0.0,0.040025051732450516,0.16677,9.790772525866226
6485000000.0,22.47,0.0,0.0,0.0,0.057682296146622965,0.16647557403665575,9.800484425963345
6490000000.0,22.47,0.0,0.0,0.0,0.01962,0.15696,9.809803673939538
6495000000.0,22.47,0.0,0.0,0.0,0.01962,0.15696,9.800288226157583
6500000000.0,22.47,0.0,0.0,0.0,0.01962,0.15696,9.81
6505000000.0,22.47,0.0,0.0,0.0,0.01962,0.15696,9.81
6510000000.0,22.47,0.0,0.0,0.0,0.029233926448939265,0.17618785289787853,9.800386073551062
6515000000.0,22.47,0.0,0.0,0.0,0.01991417345394173,0.15754834690788344,9.80019
6520000000.0,22.47,0.0,0.0,0.0,0.0478731799295318,0.1757954532863545,9.828443179929533
6525000000.0,22.47,0.0,0.0,0.0,0.04905,0.17658,9.801661119779112
6530000000.0,22.47,0.0,0.0,0.0,0.030606946325169467,0.15813694632516945,9.80019
6535000000.0,22.47,0.0,0.0,0.0,0.02943,0.1295897191963972,9.781943146130933
6540000000.0,22.47,0.0,0.0,0.0,0.011379345936693461,0.12753,9.789595327031654
6545000000.0,22.47,0.0,0.0,0.0,0.027664454257544543,0.1632389085150891,9.781452772871228
6550000000.0,22.47,0.0,0.0,0.0,0.02943,0.12262436387054365,9.798228254451784
6555000000.0,22.47,0.0,0.0,0.0,0.05562308196903082,0.15264410929204109,9.808921027323011
6560000000.0,22.47,0.0,0.0,0.0,0.03296121773961218,0.16559292742012927,9.81
6565000000.0,22.47,0.0,0.0,0.0,0.055034482551744826,0.14116551744825517,9.792930344965503
6570000000.0,22.47,0.0,0.0,0.0,0.04198654477126545,0.12890327238563273,9.773506544771266
6575000000.0,22.47,0.0,0.0,0.0,0.022562744577027442,0.13586862771148628,9.804114510845945
6580000000.0,22.47,0.0,0.0,0.0,0.03610105561721055,0.14558052780860528,9.801759472191396
6585000000.0,22.47,0.0,0.0,0.0,0.031097572094275723,0.17971971162289713,9.808332427905725
6590000000.0,22.47,0.0,0.0,0.0,0.04551865600568656,0.1542126879886269,9.826088656005687
6595000000.0,22.47,0.0,0.0,0.0,0.03315754380007544,0.16304245619992458,9.813727543800075
6600000000.0,22.47,0.0,0.0,0.0,0.02158187180291872,0.16677,9.778607487211675
6605000000.0,22.47,0.0,0.0,0.0,0.027370028294200283,0.1590199717057997,9.7862600565884
6610000000.0,22.47,0.0,0.0,0.0,0.021778071608680716,0.15696,9.79803192839132
6615000000.0,22.47,0.0,0.0,0.0,0.04983531395375314,0.14940617151156171,9.815297656976878
6620000000.0,22.47,0.0,0.0,0.0,0.043948542828885426,0.15460572858555727,9.812354271414444
6625000000.0,22.47,0.0,0.0,0.0,0.03924,0.14224474263464743,9.81
6630000000.0,22.47,0.0,0.0,0.0,0.03198047122020471,0.1445995287797953,9.79548094244041
6635000000.0,22.47,0.0,0.0,0.0,0.036591428876914286,0.1543114288769143,9.79038
6640000000.0,22.47,0.0,0.0,0.0,0.02511334205193342,0.15696,9.797443328974033
6645000000.0,22.47,0.0,0.0,0.0,0.033550458142304576,0.16392522907115228,9.80019
6650000000.0,22.47,0.0,0.0,0.0,0.03924,0.18050425833654257,9.807057129168271
6655000000.0,22.47,0.0,0.0,0.0,0.025701941469219412,0.15254485367304854,9.81
6660000000.0,22.47,0.0,0.0,0.0,0.026290929362509294,0.13734,9.81
6665000000.0,22.47,0.0,0.0,0.0,0.022857170540371705,0.13734,9.81
6670000000.0,22.47,0.0,0.0,0.0,0.03256945911349459,0.1502894591134946,9.79057581132976
6675000000.0,22.47,0.0,0.0,0.0,0.026486740692267405,0.1442067406922674,9.7996998889616
6680000000.0,22.47,0.0,0.0,0.0,0.01962,0.14989705950197058,9.81
6685000000.0,22.47,0.0,0.0,0.0,0.0319808596962086,0.1816817193924172,9.81
6690000000.0,22.47,0.0,0.0,0.0,0.027075340109553397,0.1779530101643301,9.797835340109554
6695000000.0,22.47,0.0,0.0,0.0,0.013635769957657699,0.1548015399153154,9.79038
6700000000.0,22.47,0.0,0.0,0.0,0.027468390418383903,0.14126386986053868,9.79038
6705000000.0,22.47,0.0,0.0,0.0,0.02766393952683939,0.1315519697634197,9.79038
6710000000.0,22.47,0.0,0.0,0.0,0.01962,0.1332199303336993,9.79038
6715000000.0,22.47,0.0,0.0,0.0,0.030803660861636606,0.13734,9.807155491292455
6720000000.0,22.47,0.0,0.0,0.0,0.03924,0.1483274610558746,9.808822538944126
6725000000.0,22.47,0.0,0.0,0.0,0.04463563062505631,0.1731468918751689,9.794794369374944
6730000000.0,22.47,0.0,0.0,0.0,0.03845493855564939,0.17049740783347406,9.774487407833474
6735000000.0,22.47,0.0,0.0,0.0,0.019031138361411383,0.14656113836141138,9.77134886163859
6740000000.0,22.47,0.0,0.0,0.0,0.00981,0.1424413309164133,9.78057
6745000000.0,22.47,0.0,0.0,0.0,0.01981646202706462,0.15215323101353231,9.790576462027065
6750000000.0,22.47,0.0,0.0,0.0,0.02452486888934869,0.1520548688893487,9.805095131110653
6755000000.0,22.47,0.0,0.0,0.0,0.014812968792229687,0.15676406241554064,9.81
6760000000.0,22.47,0.0,0.0,0.0,0.019227862609778625,0.15735213739022139,9.795873206085332
6765000000.0,22.47,0.0,0.0,0.0,0.03865166280401663,0.15637166280401663,9.78057
6770000000.0,22.47,0.0,0.0,0.0,0.04453726850087268,0.16677,9.771544537001745
6775000000.0,22.47,0.0,0.0,0.0,0.03924,0.1711846315962463,9.77419389478874
6780000000.0,22.47,0.0,0.0,0.0,0.03924,0.1808965316933653,9.799013063386731
6785000000.0,22.47,0.0,0.0,0.0,0.03080313641903136,0.16951627283806273,9.81
6790000000.0,22.47,0.0,0.0,0.0,0.01962,0.15539066377520663,9.818240663775207
6795000000.0,22.47,0.0,0.0,0.0,0.023642231984722317,0.16677,9.809508840076388
6800000000.0,22.47,0.0,0.0,0.0,0.03335413208184132,0.15892173583631736,9.78057
6805000000.0,22.47,0.0,0.0,0.0,0.03158793564207935,0.15097603217896033,9.784396032178961
6810000000.0,22.47,0.0,0.0,0.0,0.02334793227607932,0.1606879322760793,9.79410793227608
6815000000.0,22.47,0.0,0.0,0.0,0.022170335253603353,0.15951033525360336,9.803819832373199
6820000000.0,22.47,0.0,0.0,0.0,0.00981,0.15068173247031733,9.81
6825000000.0,22.47,0.0,0.0,0.0,0.020110897702308977,0.15352636743256368,9.81
6830000000.0,22.47,0.0,0.0,0.0,0.032568934670889345,0.14715,9.799993402006335
6835000000.0,22.47,0.0,0.0,0.0,0.022857432761674328,0.15038743276167432,9.787044865523349
6840000000.0,22.47,0.0,0.0,0.0,0.02943,0.15068133428241334,9.803329332858794
6845000000.0,22.47,0.0,0.0,0.0,0.02334753408817534,0.14342246591182464,9.803917534088177
6850000000.0,22.47,0.0,0.0,0.0,0.01569626610606266,0.15990313305303133,9.796266266106063
6855000000.0,22.47,0.0,0.0,0.0,0.037965099450451,0.16677,9.81
6860000000.0,22.47,0.0,0.0,0.0,0.050619200258192006,0.16402306675273068,9.81
6865000000.0,22.47,0.0,0.0,0.0,0.026781166655611668,0.15431116665561165,9.802053499966835
6870000000.0,22.47,0.0,0.0,0.0,0.017069266558492665,0.14715,9.783120733441509
6875000000.0,22.47,0.0,0.0,0.0,0.01471526707725267,0.14715,9.79038
6880000000.0,22.47,0.0,0.0,0.0,0.02943,0.15421360090723601,9.79038
6885000000.0,22.47,0.0,0.0,0.0,0.03619930119859301,0.17883643373286431,9.794892867465729
6890000000.0,22.47,0.0,0.0,0.0,0.05238499851004999,0.17775666468006665,9.807841666170017
6895000000.0,22.47,0.0,0.0,0.0,0.03149023392710234,0.14921023392710234,9.78988883036449
6900000000.0,22.47,0.0,0.0,0.0,0.04120213402422134,0.15499786597577864,9.762912804145328
6905000000.0,22.47,0.0,0.0,0.0,0.04159386351463864,0.14715,9.80440789763598
6910000000.0,22.47,0.0,0.0,0.0,0.015107802655378026,0.14538406578154067,9.789399671092298
6915000000.0,22.47,0.0,0.0,0.0,0.03590433136884331,0.1456791715778917,9.827952165684422
6920000000.0,22.47,0.0,0.0,0.0,0.022759468825394688,0.18482026558730266,9.81981
6925000000.0,22.47,0.0,0.0,0.0,0.03629673098036731,0.17216509647055095,9.815395096470551
6930000000.0,22.47,0.0,0.0,0.0,0.018246465393064654,0.14852353460693535,9.791753534606936
6935000000.0,22.47,0.0,0.0,0.0,0.011085434704054346,0.15696,9.797639130591891
6940000000.0,22.47,0.0,0.0,0.0,0.023152004403520044,0.15460533039765328,9.782924669602348
