#timestamp [ns], temperature [degC], w_RS_S_x [rad s^-1], w_RS_S_y [rad s^-1], w_RS_S_z [rad s^-1], a_RS_S_x [m s^-2], a_RS_S_y [m s^-2], a_RS_S_z [m s^-2]
0,22.09,0.0,0.0,0.0,0.57879,-0.15696000000000002,9.82962
5050505,22.09,0.0,0.0,0.0,0.57879,-0.13734000000000002,9.82962
10101010,22.09,0.0,0.0,0.0,0.59841,-0.14715,9.819809999999999
15151515,22.09,0.0,0.0,0.0,0.59841,-0.16677000000000003,9.80019
20202020,22.09,0.0,0.0,0.0,0.5886,-0.15696000000000002,9.81
25252525,22.09,0.0,0.0,0.0,0.5886,-0.15696000000000002,9.819809999999999
30303030,22.09,0.0,0.0,0.0,0.5886,-0.15696000000000002,9.83943
35353535,22.09,0.0,0.0,0.0,0.57879,-0.16677000000000003,9.819809999999999
40404040,22.09,0.0,0.0,0.0,0.59841,-0.18639,9.79038
45454545,22.09,0.0,0.0,0.0,0.60822,-0.15696000000000002,9.770760000000001
50505050,22.09,0.0,0.0,0.0,0.5886,-0.15696000000000002,9.78057
55555555,22.09,0.0,0.0,0.0,0.5886,-0.17658,9.84924
60606060,22.09,0.0,0.0,0.0,0.56898,-0.13734000000000002,9.82962
65656565,22.09,0.0,0.0,0.0,0.57879,-0.14715,9.78057
70707070,22.09,0.0,0.0,0.0,0.5886,-0.14715,9.81
75757575,22.09,0.0,0.0,0.0,0.60822,-0.15696000000000002,9.82962
80808080,22.09,0.0,0.0,0.0,0.60822,-0.15696000000000002,9.83943
85858585,22.09,0.0,0.0,0.0,0.6180300000000001,-0.14715,9.81
90909090,22.09,0.0,0.0,0.0,0.59841,-0.13734000000000002,9.78057
95959595,22.09,0.0,0.0,0.0,0.59841,-0.14715,9.770760000000001
101010100,22.09,0.0,0.0,0.0,0.56898,-0.16677000000000003,9.81
106060605,22.09,0.0,0.0,0.0,0.5886,-0.15696000000000002,9.84924
111111110,22.09,0.0,0.0,0.0,0.60822,-0.15696000000000002,9.85905
116161615,22.09,0.0,0.0,0.0,0.5886,-0.16677000000000003,9.819809999999999
121212120,22.09,0.0,0.0,0.0,0.5886,-0.16677000000000003,9.751140000000001
126262625,22.09,0.0,0.0,0.0,0.5886,-0.15696000000000002,9.81
131313130,22.09,0.0,0.0,0.0,0.60822,-0.16677000000000003,9.819809999999999
136363635,22.09,0.0,0.0,0.0,0.6278400000000001,-0.16677000000000003,9.83943
141414140,22.09,0.0,0.0,0.0,0.59841,-0.15696000000000002,9.81
146464645,22.09,0.0,0.0,0.0,0.5886,-0.15696000000000002,9.79038
151515150,22.09,0.0,0.0,0.0,0.60822,-0.12753,9.770760000000001
156565655,22.09,0.0,0.0,0.0,0.5886,-0.16677000000000003,9.81
161616160,22.09,0.0,0.0,0.0,0.59841,-0.15696000000000002,9.819809999999999
166666665,22.09,0.0,0.0,0.0,0.5886,-0.16677000000000003,9.82962
171717170,22.09,0.0,0.0,0.0,0.59841,-0.17658,9.81
176767675,22.09,0.0,0.0,0.0,0.60822,-0.16677000000000003,9.81
181818180,22.09,0.0,0.0,0.0,0.5886,-0.15696000000000002,9.82962
186868685,22.09,0.0,0.0,0.0,0.60822,-0.15696000000000002,9.81
191919190,22.09,0.0,0.0,0.0,0.57879,-0.16677000000000003,9.81
196969695,22.09,0.0,0.0,0.0,0.57879,-0.15696000000000002,9.80019
202020200,22.09,0.0,0.0,0.0,0.59841,-0.15696000000000002,9.819809999999999
207070705,22.09,0.0,0.0,0.0,0.59841,-0.13734000000000002,9.81
212121210,22.09,0.0,0.0,0.0,0.57879,-0.16677000000000003,9.819809999999999
217171715,22.09,0.0,0.0,0.0,0.59841,-0.13734000000000002,9.819809999999999
222222220,22.09,0.0,0.0,0.0,0.59841,-0.14715,9.81
227272725,22.09,0.0,0.0,0.0,0.5886,-0.13734000000000002,9.79038
232323230,22.09,0.0,0.0,0.0,0.5886,-0.15696000000000002,9.81
237373735,22.09,0.0,0.0,0.0,0.60822,-0.16677000000000003,9.81
242424240,22.09,0.0,0.0,0.0,0.59841,-0.16677000000000003,9.81
247474745,22.09,0.0,0.0,0.0,0.56898,-0.17658,9.82962
252525250,22.09,0.0,0.0,0.0,0.57879,-0.14715,9.819809999999999
257575755,22.09,0.0,0.0,0.0,0.59841,-0.15696000000000002,9.81
262626260,22.09,0.0,0.0,0.0,0.57879,-0.15696000000000002,9.80019
267676765,22.09,0.0,0.0,0.0,0.5886,-0.16677000000000003,9.81
272727270,22.09,0.0,0.0,0.0,0.5886,-0.15696000000000002,9.85905
277777775,22.09,0.0,0.0,0.0,0.59841,-0.13734000000000002,9.819809999999999
282828280,22.09,0.0,0.0,0.0,0.6180300000000001,-0.14715,9.81
287878785,22.09,0.0,0.0,0.0,0.5886,-0.15696000000000002,9.770760000000001
292929290,22.09,0.0,0.0,0.0,0.59841,-0.15696000000000002,9.81
297979795,22.09,0.0,0.0,0.0,0.5886,-0.15696000000000002,9.83943
303030300,22.09,0.0,0.0,0.0,0.5886,-0.15696000000000002,9.82962
308080805,22.09,0.0,0.0,0.0,0.5591700000000001,-0.15696000000000002,9.79038
313131310,22.09,0.0,0.0,0.0,0.56898,-0.15696000000000002,9.79038
318181815,22.09,0.0,0.0,0.0,0.5886,-0.14715,9.81
323232320,22.09,0.0,0.0,0.0,0.59841,-0.14715,9.83943
328282825,22.09,0.0,0.0,0.0,0.56898,-0.15696000000000002,9.83943
333333330,22.09,0.0,0.0,0.0,0.57879,-0.13734000000000002,9.79038
338383835,22.09,0.0,0.0,0.0,0.5886,-0.14715,9.770760000000001
343434340,22.09,0.0,0.0,0.0,0.57879,-0.16677000000000003,9.81
348484845,22.09,0.0,0.0,0.0,0.6180300000000001,-0.15696000000000002,9.82962
353535350,22.09,0.0,0.0,0.0,0.59841,-0.15696000000000002,9.82962
358585855,22.09,0.0,0.0,0.0,0.60822,-0.14715,9.770760000000001
363636360,22.09,0.0,0.0,0.0,0.57879,-0.15696000000000002,9.80019
368686865,22.09,0.0,0.0,0.0,0.60822,-0.14715,9.80019
373737370,22.09,0.0,0.0,0.0,0.59841,-0.13734000000000002,9.82962
378787875,22.09,0.0,0.0,0.0,0.56898,-0.13734000000000002,9.819809999999999
383838380,22.09,0.0,0.0,0.0,0.5886,-0.15696000000000002,9.81
388888885,22.09,0.0,0.0,0.0,0.57879,-0.15696000000000002,9.78057
393939390,22.09,0.0,0.0,0.0,0.5886,-0.15696000000000002,9.80019
398989895,22.09,0.0,0.0,0.0,0.59841,-0.15696000000000002,9.83943
404040400,22.09,0.0,0.0,0.0,0.60822,-0.15696000000000002,9.770760000000001
409090905,22.09,0.0,0.0,0.0,0.57879,-0.16677000000000003,9.79038
414141410,22.09,0.0,0.0,0.0,0.57879,-0.13734000000000002,9.819809999999999
419191915,22.09,0.0,0.0,0.0,0.57879,-0.15696000000000002,9.81
424242420,22.09,0.0,0.0,0.0,0.56898,-0.15696000000000002,9.80019
429292925,22.09,0.0,0.0,0.0,0.59841,-0.13734000000000002,9.80019
434343430,22.09,0.0,0.0,0.0,0.56898,-0.13734000000000002,9.81
439393935,22.09,0.0,0.0,0.0,0.57879,-0.15696000000000002,9.819809999999999
444444440,22.09,0.0,0.0,0.0,0.60822,-0.14715,9.84924
449494945,22.09,0.0,0.0,0.0,0.5886,-0.16677000000000003,9.78057
454545450,22.09,0.0,0.0,0.0,0.56898,-0.17658,9.760950000000001
459595955,22.09,0.0,0.0,0.0,0.60822,-0.15696000000000002,9.80019
464646460,22.09,0.0,0.0,0.0,0.59841,-0.15696000000000002,9.85905
469696965,22.09,0.0,0.0,0.0,0.59841,-0.15696000000000002,9.84924
474747470,22.09,0.0,0.0,0.0,0.60822,-0.17658,9.79038
479797975,22.09,0.0,0.0,0.0,0.59841,-0.16677000000000003,9.760950000000001
484848480,22.09,0.0,0.0,0.0,0.57879,-0.16677000000000003,9.79038
489898985,22.09,0.0,0.0,0.0,0.59841,-0.15696000000000002,9.83943
494949490,22.09,0.0,0.0,0.0,0.59841,-0.12753,9.85905
499999995,22.09,0.0,0.0,0.0,0.59841,-0.13734000000000002,9.81
505050500,22.09,0.0,0.0,0.0,0.60822,-0.12753,9.78057
510101005,22.09,0.0,0.0,0.0,0.57879,-0.15696000000000002,9.79038
515151510,22.09,0.0,0.0,0.0,0.60822,-0.14715,9.85905
520202015,22.09,0.0,0.0,0.0,0.57879,-0.16677000000000003,9.81
525252520,22.09,0.0,0.0,0.0,0.5886,-0.16677000000000003,9.80019
530303025,22.09,0.0,0.0,0.0,0.5886,-0.12753,9.79038
535353530,22.09,0.0,0.0,0.0,0.5886,-0.14715,9.79038
540404035,22.09,0.0,0.0,0.0,0.57879,-0.12753,9.81
545454540,22.09,0.0,0.0,0.0,0.5591700000000001,-0.16677000000000003,9.84924
550505045,22.09,0.0,0.0,0.0,0.59841,-0.16677000000000003,9.81
555555550,22.09,0.0,0.0,0.0,0.56898,-0.17658,9.770760000000001
560606055,22.09,0.0,0.0,0.0,0.59841,-0.14715,9.78057
565656560,22.09,0.0,0.0,0.0,0.59841,-0.12753,9.819809999999999
570707065,22.09,0.0,0.0,0.0,0.57879,-0.13734000000000002,9.84924
575757570,22.09,0.0,0.0,0.0,0.5886,-0.13734000000000002,9.81
580808075,22.09,0.0,0.0,0.0,0.5886,-0.18639,9.79038
585858580,22.09,0.0,0.0,0.0,0.57879,-0.14715,9.81
590909085,22.09,0.0,0.0,0.0,0.59841,-0.16677000000000003,9.819809999999999
595959590,22.09,0.0,0.0,0.0,0.57879,-0.17658,9.81
601010095,22.09,0.0,0.0,0.0,0.57879,-0.12753,9.819809999999999
606060600,22.09,0.0,0.0,0.0,0.57879,-0.15696000000000002,9.81
611111105,22.09,0.0,0.0,0.0,0.5886,-0.15696000000000002,9.819809999999999
616161610,22.09,0.0,0.0,0.0,0.60822,-0.15696000000000002,9.83943
621212115,22.09,0.0,0.0,0.0,0.60822,-0.14715,9.78057
626262620,22.09,0.0,0.0,0.0,0.57879,-0.17658,9.80019
631313125,22.09,0.0,0.0,0.0,0.59841,-0.13734000000000002,9.81
636363630,22.09,0.0,0.0,0.0,0.5886,-0.16677000000000003,9.85905
641414135,22.09,0.0,0.0,0.0,0.59841,-0.14715,9.819809999999999
646464640,22.09,0.0,0.0,0.0,0.5886,-0.15696000000000002,9.80019
651515145,22.09,0.0,0.0,0.0,0.57879,-0.15696000000000002,9.770760000000001
656565650,22.09,0.0,0.0,0.0,0.57879,-0.13734000000000002,9.81
661616155,22.09,0.0,0.0,0.0,0.5886,-0.14715,9.86886
666666660,22.09,0.0,0.0,0.0,0.59841,-0.15696000000000002,9.84924
671717165,22.09,0.0,0.0,0.0,0.5886,-0.16677000000000003,9.81
676767670,22.09,0.0,0.0,0.0,0.57879,-0.15696000000000002,9.770760000000001
681818175,22.09,0.0,0.0,0.0,0.5591700000000001,-0.13734000000000002,9.78057
686868680,22.09,0.0,0.0,0.0,0.5591700000000001,-0.17658,9.83943
691919185,22.09,0.0,0.0,0.0,0.57879,-0.11772,9.83943
696969690,22.09,0.0,0.0,0.0,0.59841,-0.14715,9.80019
702020195,22.09,0.0,0.0,0.0,0.59841,-0.15696000000000002,9.819809999999999
707070700,22.09,0.0,0.0,0.0,0.57879,-0.13734000000000002,9.79038
712121205,22.09,0.0,0.0,0.0,0.5886,-0.16677000000000003,9.79038
717171710,22.09,0.0,0.0,0.0,0.59841,-0.15696000000000002,9.82962
722222215,22.09,0.0,0.0,0.0,0.5886,-0.16677000000000003,9.81
727272720,22.09,0.0,0.0,0.0,0.5886,-0.14715,9.79038
732323225,22.09,0.0,0.0,0.0,0.60822,-0.16677000000000003,9.819809999999999
737373730,22.09,0.0,0.0,0.0,0.56898,-0.16677000000000003,9.81
742424235,22.09,0.0,0.0,0.0,0.59841,-0.1962,9.819809999999999
747474740,22.09,0.0,0.0,0.0,0.60822,-0.13734000000000002,9.78057
752525245,22.09,0.0,0.0,0.0,0.59841,-0.13734000000000002,9.79038
757575750,22.09,0.0,0.0,0.0,0.59841,-0.15696000000000002,9.819809999999999
762626255,22.09,0.0,0.0,0.0,0.5886,-0.15696000000000002,9.83943
767676760,22.09,0.0,0.0,0.0,0.59841,-0.14715,9.80019
772727265,22.09,0.0,0.0,0.0,0.59841,-0.15696000000000002,9.78057
777777770,22.09,0.0,0.0,0.0,0.60822,-0.18639,9.79038
782828275,22.09,0.0,0.0,0.0,0.60822,-0.15696000000000002,9.82962
787878780,22.09,0.0,0.0,0.0,0.56898,-0.18639,9.82962
792929285,22.09,0.0,0.0,0.0,0.57879,-0.13734000000000002,9.80019
797979790,22.09,0.0,0.0,0.0,0.57879,-0.17658,9.760950000000001
803030295,22.09,0.0,0.0,0.0,0.57879,-0.15696000000000002,9.78057
808080800,22.09,0.0,0.0,0.0,0.57879,-0.17658,9.83943
813131305,22.09,0.0,0.0,0.0,0.59841,-0.12753,9.82962
818181810,22.09,0.0,0.0,0.0,0.5886,-0.16677000000000003,9.81
823232315,22.09,0.0,0.0,0.0,0.59841,-0.18639,9.78057
828282820,22.09,0.0,0.0,0.0,0.59841,-0.14715,9.79038
833333325,22.09,0.0,0.0,0.0,0.60822,-0.14715,9.83943
838383830,22.09,0.0,0.0,0.0,0.5886,-0.13734000000000002,9.84924
843434335,22.09,0.0,0.0,0.0,0.59841,-0.13734000000000002,9.81
848484840,22.09,0.0,0.0,0.0,0.5886,-0.15696000000000002,9.79038
853535345,22.09,0.0,0.0,0.0,0.59841,-0.17658,9.83943
858585850,22.09,0.0,0.0,0.0,0.56898,-0.14715,9.81
863636355,22.09,0.0,0.0,0.0,0.60822,-0.14715,9.819809999999999
868686860,22.09,0.0,0.0,0.0,0.59841,-0.14715,9.80019
873737365,22.09,0.0,0.0,0.0,0.59841,-0.14715,9.80019
878787870,22.09,0.0,0.0,0.0,0.60822,-0.15696000000000002,9.85905
883838375,22.09,0.0,0.0,0.0,0.59841,-0.14715,9.81
888888880,22.09,0.0,0.0,0.0,0.59841,-0.1962,9.819809999999999
893939385,22.09,0.0,0.0,0.0,0.59841,-0.14715,9.78057
898989890,22.09,0.0,0.0,0.0,0.5886,-0.12753,9.83943
904040395,22.09,0.0,0.0,0.0,0.63765,-0.18639,9.83943
909090900,22.09,0.0,0.0,0.0,0.5886,-0.13734000000000002,9.82962
914141405,22.09,0.0,0.0,0.0,0.59841,-0.16677000000000003,9.81
919191910,22.09,0.0,0.0,0.0,0.59841,-0.15696000000000002,9.79038
924242415,22.09,0.0,0.0,0.0,0.57879,-0.1962,9.82962
929292920,22.09,0.0,0.0,0.0,0.57879,-0.15696000000000002,9.819809999999999
934343425,22.09,0.0,0.0,0.0,0.56898,-0.15696000000000002,9.819809999999999
939393930,22.09,0.0,0.0,0.0,0.57879,-0.16677000000000003,9.78057
944444435,22.09,0.0,0.0,0.0,0.5886,-0.15696000000000002,9.79038
949494940,22.09,0.0,0.0,0.0,0.60822,-0.16677000000000003,9.83943
954545445,22.09,0.0,0.0,0.0,0.5886,-0.14715,9.83943
959595950,22.09,0.0,0.0,0.0,0.59841,-0.17658,9.82962
964646455,22.09,0.0,0.0,0.0,0.60822,-0.16677000000000003,9.80019
969696960,22.09,0.0,0.0,0.0,0.59841,-0.13734000000000002,9.80019
974747465,22.09,0.0,0.0,0.0,0.59841,-0.15696000000000002,9.80019
979797970,22.09,0.0,0.0,0.0,0.5886,-0.13734000000000002,9.83943
984848475,22.09,0.0,0.0,0.0,0.5886,-0.14715,9.83943
989898980,22.09,0.0,0.0,0.0,0.60822,-0.16677000000000003,9.81
994949485,22.09,0.0,0.0,0.0,0.59841,-0.15696000000000002,9.81
999999990,22.09,0.0,0.0,0.0,0.57879,-0.13734000000000002,9.81
1005050495,22.09,0.0,0.0,0.0,0.59841,-0.12753,9.819809999999999
1010101000,22.09,0.0,0.0,0.0,0.60822,-0.15696000000000002,9.819809999999999
1015151505,22.09,0.0,0.0,0.0,0.57879,-0.14715,9.83943
1020202010,22.09,0.0,0.0,0.0,0.57879,-0.15696000000000002,9.79038
1025252515,22.09,0.0,0.0,0.0,0.59841,-0.15696000000000002,9.78057
1030303020,22.09,0.0,0.0,0.0,0.57879,-0.13734000000000002,9.81
1035353525,22.09,0.0,0.0,0.0,0.57879,-0.14715,9.79038
1040404030,22.09,0.0,0.0,0.0,0.5886,-0.17658,9.83943
1045454535,22.09,0.0,0.0,0.0,0.56898,-0.15696000000000002,9.83943
1050505040,22.09,0.0,0.0,0.0,0.59841,-0.14715,9.82962
1055555545,22.09,0.0,0.0,0.0,0.57879,-0.14715,9.81
1060606050,22.09,0.0,0.0,0.0,0.59841,-0.14715,9.79038
1065656555,22.09,0.0,0.0,0.0,0.59841,-0.16677000000000003,9.78057
1070707060,22.09,0.0,0.0,0.0,0.60822,-0.15696000000000002,9.888480000000001
1075757565,22.09,0.0,0.0,0.0,0.56898,-0.16677000000000003,9.84924
1080808070,22.09,0.0,0.0,0.0,0.59841,-0.14715,9.819809999999999
1085858575,22.09,0.0,0.0,0.0,0.5886,-0.14715,9.74133
1090909080,22.09,0.0,0.0,0.0,0.5886,-0.14715,9.78057
1095959585,22.09,0.0,0.0,0.0,0.57879,-0.14715,9.819809999999999
1101010090,22.09,0.0,0.0,0.0,0.5886,-0.15696000000000002,9.83943
1106060595,22.09,0.0,0.0,0.0,0.57879,-0.15696000000000002,9.84924
1111111100,22.09,0.0,0.0,0.0,0.59841,-0.15696000000000002,9.770760000000001
1116161605,22.09,0.0,0.0,0.0,0.59841,-0.14715,9.79038
1121212110,22.09,0.0,0.0,0.0,0.56898,-0.17658,9.82962
1126262615,22.09,0.0,0.0,0.0,0.5886,-0.17658,9.82962
1131313120,22.09,0.0,0.0,0.0,0.5886,-0.16677000000000003,9.81
1136363625,22.09,0.0,0.0,0.0,0.56898,-0.15696000000000002,9.81
1141414130,22.09,0.0,0.0,0.0,0.60822,-0.15696000000000002,9.81
1146464635,22.09,0.0,0.0,0.0,0.56898,-0.15696000000000002,9.81
1151515140,22.09,0.0,0.0,0.0,0.5591700000000001,-0.14715,9.82962
1156565645,22.09,0.0,0.0,0.0,0.60822,-0.16677000000000003,9.80019
1161616150,22.09,0.0,0.0,0.0,0.5886,-0.15696000000000002,9.819809999999999
1166666655,22.09,0.0,0.0,0.0,0.57879,-0.17658,9.80019
1171717160,22.09,0.0,0.0,0.0,0.56898,-0.15696000000000002,9.80019
1176767665,22.09,0.0,0.0,0.0,0.5886,-0.13734000000000002,9.80019
1181818170,22.09,0.0,0.0,0.0,0.5886,-0.18639,9.79038
1186868675,22.09,0.0,0.0,0.0,0.5886,-0.13734000000000002,9.81
1191919180,22.09,0.0,0.0,0.0,0.59841,-0.15696000000000002,9.819809999999999
1196969685,22.09,0.0,0.0,0.0,0.5886,-0.14715,9.81
1202020190,22.09,0.0,0.0,0.0,0.57879,-0.14715,9.770760000000001
1207070695,22.09,0.0,0.0,0.0,0.57879,-0.14715,9.81
1212121200,22.09,0.0,0.0,0.0,0.59841,-0.15696000000000002,9.819809999999999
1217171705,22.09,0.0,0.0,0.0,0.60822,-0.15696000000000002,9.81
1222222210,22.09,0.0,0.0,0.0,0.59841,-0.16677000000000003,9.819809999999999
1227272715,22.09,0.0,0.0,0.0,0.57879,-0.17658,9.79038
1232323220,22.09,0.0,0.0,0.0,0.59841,-0.15696000000000002,9.78057
1237373725,22.09,0.0,0.0,0.0,0.57879,-0.15696000000000002,9.819809999999999
1242424230,22.09,0.0,0.0,0.0,0.59841,-0.15696000000000002,9.83943
1247474735,22.09,0.0,0.0,0.0,0.57879,-0.14715,9.819809999999999
1252525240,22.09,0.0,0.0,0.0,0.60822,-0.14715,9.770760000000001
1257575745,22.09,0.0,0.0,0.0,0.57879,-0.15696000000000002,9.81
1262626250,22.09,0.0,0.0,0.0,0.59841,-0.16677000000000003,9.83943
1267676755,22.09,0.0,0.0,0.0,0.59841,-0.13734000000000002,9.819809999999999
1272727260,22.09,0.0,0.0,0.0,0.5886,-0.15696000000000002,9.81
1277777765,22.09,0.0,0.0,0.0,0.59841,-0.14715,9.81
1282828270,22.09,0.0,0.0,0.0,0.59841,-0.15696000000000002,9.78057
1287878775,22.09,0.0,0.0,0.0,0.59841,-0.16677000000000003,9.81
1292929280,22.09,0.0,0.0,0.0,0.59841,-0.15696000000000002,9.819809999999999
1297979785,22.09,0.0,0.0,0.0,0.57879,-0.13734000000000002,9.81
1303030290,22.09,0.0,0.0,0.0,0.6180300000000001,-0.11772,9.81
1308080795,22.09,0.0,0.0,0.0,0.59841,-0.13734000000000002,9.81
1313131300,22.09,0.0,0.0,0.0,0.60822,-0.14715,9.81
1318181805,22.09,0.0,0.0,0.0,0.5886,-0.17658,9.80019
1323232310,22.09,0.0,0.0,0.0,0.59841,-0.15696000000000002,9.79038
1328282815,22.09,0.0,0.0,0.0,0.59841,-0.16677000000000003,9.82962
1333333320,22.09,0.0,0.0,0.0,0.59841,-0.14715,9.82962
1338383825,22.09,0.0,0.0,0.0,0.60822,-0.15696000000000002,9.819809999999999
1343434330,22.09,0.0,0.0,0.0,0.59841,-0.14715,9.78057
1348484835,22.09,0.0,0.0,0.0,0.5591700000000001,-0.15696000000000002,9.78057
1353535340,22.09,0.0,0.0,0.0,0.59841,-0.16677000000000003,9.83943
1358585845,22.09,0.0,0.0,0.0,0.57879,-0.13734000000000002,9.82962
1363636350,22.09,0.0,0.0,0.0,0.60822,-0.15696000000000002,9.82962
1368686855,22.09,0.0,0.0,0.0,0.59841,-0.14715,9.79038
1373737360,22.09,0.0,0.0,0.0,0.5886,-0.16677000000000003,9.78057
1378787865,22.09,0.0,0.0,0.0,0.59841,-0.17658,9.770760000000001
1383838370,22.09,0.0,0.0,0.0,0.57879,-0.14715,9.819809999999999
1388888875,22.09,0.0,0.0,0.0,0.56898,-0.14715,9.84924
1393939380,22.09,0.0,0.0,0.0,0.5886,-0.15696000000000002,9.79038
1398989885,22.09,0.0,0.0,0.0,0.5886,-0.16677000000000003,9.760950000000001
1404040390,22.09,0.0,0.0,0.0,0.59841,-0.15696000000000002,9.81
1409090895,22.09,0.0,0.0,0.0,0.59841,-0.15696000000000002,9.84924
1414141400,22.09,0.0,0.0,0.0,0.56898,-0.16677000000000003,9.81
1419191905,22.09,0.0,0.0,0.0,0.5886,-0.13734000000000002,9.78057
1424242410,22.09,0.0,0.0,0.0,0.5886,-0.15696000000000002,9.760950000000001
1429292915,22.09,0.0,0.0,0.0,0.59841,-0.17658,9.81
1434343420,22.09,0.0,0.0,0.0,0.59841,-0.15696000000000002,9.82962
1439393925,22.09,0.0,0.0,0.0,0.60822,-0.16677000000000003,9.83943
1444444430,22.09,0.0,0.0,0.0,0.57879,-0.15696000000000002,9.819809999999999
1449494935,22.09,0.0,0.0,0.0,0.60822,-0.14715,9.81
1454545440,22.09,0.0,0.0,0.0,0.5886,-0.15696000000000002,9.79038
1459595945,22.09,0.0,0.0,0.0,0.57879,-0.16677000000000003,9.81
1464646450,22.09,0.0,0.0,0.0,0.5886,-0.14715,9.819809999999999
1469696955,22.09,0.0,0.0,0.0,0.57879,-0.15696000000000002,9.79038
1474747460,22.09,0.0,0.0,0.0,0.5886,-0.15696000000000002,9.78057
1479797965,22.09,0.0,0.0,0.0,0.5591700000000001,-0.17658,9.83943
1484848470,22.09,0.0,0.0,0.0,0.57879,-0.15696000000000002,9.83943
1489898975,22.09,0.0,0.0,0.0,0.56898,-0.12753,9.82962
1494949480,22.09,0.0,0.0,0.0,0.60822,-0.12753,9.770760000000001
1499999985,22.09,0.0,0.0,0.0,0.60822,-0.14715,9.819809999999999
1505050490,22.09,0.0,0.0,0.0,0.5886,-0.15696000000000002,9.81
1510100995,22.09,0.0,0.0,0.0,0.5886,-0.16677000000000003,9.81
1515151500,22.09,0.0,0.0,0.0,0.5886,-0.16677000000000003,9.819809999999999
1520202005,22.09,0.0,0.0,0.0,0.5886,-0.14715,9.79038
1525252510,22.09,0.0,0.0,0.0,0.60822,-0.15696000000000002,9.81
1530303015,22.09,0.0,0.0,0.0,0.59841,-0.16677000000000003,9.81
1535353520,22.09,0.0,0.0,0.0,0.5886,-0.14715,9.819809999999999
1540404025,22.09,0.0,0.0,0.0,0.5886,-0.16677000000000003,9.81
1545454530,22.09,0.0,0.0,0.0,0.57879,-0.14715,9.79038
1550505035,22.09,0.0,0.0,0.0,0.5886,-0.13734000000000002,9.82962
1555555540,22.09,0.0,0.0,0.0,0.5886,-0.14715,9.84924
1560606045,22.09,0.0,0.0,0.0,0.5886,-0.16677000000000003,9.80019
1565656550,22.09,0.0,0.0,0.0,0.5886,-0.13734000000000002,9.80019
1570707055,22.09,0.0,0.0,0.0,0.5886,-0.13734000000000002,9.81
1575757560,22.09,0.0,0.0,0.0,0.57879,-0.13734000000000002,9.83943
1580808065,22.09,0.0,0.0,0.0,0.59841,-0.15696000000000002,9.83943
1585858570,22.09,0.0,0.0,0.0,0.59841,-0.16677000000000003,9.81
1590909075,22.09,0.0,0.0,0.0,0.59841,-0.12753,9.78057
1595959580,22.09,0.0,0.0,0.0,0.60822,-0.15696000000000002,9.79038
1601010085,22.09,0.0,0.0,0.0,0.59841,-0.14715,9.819809999999999
1606060590,22.09,0.0,0.0,0.0,0.57879,-0.16677000000000003,9.83943
1611111095,22.09,0.0,0.0,0.0,0.57879,-0.15696000000000002,9.819809999999999
1616161600,22.09,0.0,0.0,0.0,0.59841,-0.14715,9.770760000000001
1621212105,22.09,0.0,0.0,0.0,0.57879,-0.13734000000000002,9.78057
1626262610,22.09,0.0,0.0,0.0,0.5886,-0.14715,9.82962
1631313115,22.09,0.0,0.0,0.0,0.56898,-0.15696000000000002,9.84924
1636363620,22.09,0.0,0.0,0.0,0.57879,-0.14715,9.79038
1641414125,22.09,0.0,0.0,0.0,0.5886,-0.16677000000000003,9.78057
1646464630,22.09,0.0,0.0,0.0,0.5886,-0.15696000000000002,9.79038
1651515135,22.09,0.0,0.0,0.0,0.60822,-0.14715,9.84924
1656565640,22.09,0.0,0.0,0.0,0.5886,-0.17658,9.86886
1661616145,22.09,0.0,0.0,0.0,0.59841,-0.17658,9.819809999999999
1666666650,22.09,0.0,0.0,0.0,0.59841,-0.15696000000000002,9.760950000000001
1671717155,22.09,0.0,0.0,0.0,0.59841,-0.13734000000000002,9.78057
1676767660,22.09,0.0,0.0,0.0,0.60822,-0.16677000000000003,9.85905
1681818165,22.09,0.0,0.0,0.0,0.60822,-0.14715,9.86886
1686868670,22.09,0.0,0.0,0.0,0.5886,-0.15696000000000002,9.819809999999999
1691919175,22.09,0.0,0.0,0.0,0.57879,-0.14715,9.770760000000001
1696969680,22.09,0.0,0.0,0.0,0.59841,-0.14715,9.74133
1702020185,22.09,0.0,0.0,0.0,0.5886,-0.12753,9.82962
1707070690,22.09,0.0,0.0,0.0,0.5886,-0.16677000000000003,9.83943
1712121195,22.09,0.0,0.0,0.0,0.59841,-0.16677000000000003,9.84924
1717171700,22.09,0.0,0.0,0.0,0.59841,-0.16677000000000003,9.81
1722222205,22.09,0.0,0.0,0.0,0.5886,-0.15696000000000002,9.81
1727272710,22.09,0.0,0.0,0.0,0.57879,-0.15696000000000002,9.770760000000001
1732323215,22.09,0.0,0.0,0.0,0.60822,-0.14715,9.81
1737373720,22.09,0.0,0.0,0.0,0.5886,-0.13734000000000002,9.82962
1742424225,22.09,0.0,0.0,0.0,0.59841,-0.15696000000000002,9.82962
1747474730,22.09,0.0,0.0,0.0,0.59841,-0.15696000000000002,9.81
1752525235,22.09,0.0,0.0,0.0,0.60822,-0.17658,9.79038
1757575740,22.09,0.0,0.0,0.0,0.5886,-0.13734000000000002,9.760950000000001
1762626245,22.09,0.0,0.0,0.0,0.57879,-0.15696000000000002,9.81
1767676750,22.09,0.0,0.0,0.0,0.57879,-0.13734000000000002,9.87867
1772727255,22.09,0.0,0.0,0.0,0.59841,-0.12753,9.85905
1777777760,22.09,0.0,0.0,0.0,0.5886,-0.15696000000000002,9.80019
1782828265,22.09,0.0,0.0,0.0,0.59841,-0.14715,9.74133
1787878770,22.09,0.0,0.0,0.0,0.5886,-0.15696000000000002,9.81
1792929275,22.09,0.0,0.0,0.0,0.59841,-0.13734000000000002,9.85905
1797979780,22.09,0.0,0.0,0.0,0.60822,-0.13734000000000002,9.83943
1803030285,22.09,0.0,0.0,0.0,0.5886,-0.14715,9.80019
1808080790,22.09,0.0,0.0,0.0,0.57879,-0.12753,9.73152
1813131295,22.09,0.0,0.0,0.0,0.60822,-0.16677000000000003,9.79038
1818181800,22.09,0.0,0.0,0.0,0.59841,-0.14715,9.86886
1823232305,22.09,0.0,0.0,0.0,0.57879,-0.14715,9.85905
1828282810,22.09,0.0,0.0,0.0,0.5886,-0.11772,9.79038
1833333315,22.09,0.0,0.0,0.0,0.60822,-0.16677000000000003,9.74133
1838383820,22.09,0.0,0.0,0.0,0.5886,-0.14715,9.78057
1843434325,22.09,0.0,0.0,0.0,0.5886,-0.15696000000000002,9.819809999999999
1848484830,22.09,0.0,0.0,0.0,0.5886,-0.15696000000000002,9.89829
1853535335,22.09,0.0,0.0,0.0,0.5886,-0.15696000000000002,9.819809999999999
1858585840,22.09,0.0,0.0,0.0,0.57879,-0.17658,9.760950000000001
1863636345,22.09,0.0,0.0,0.0,0.5886,-0.16677000000000003,9.760950000000001
1868686850,22.09,0.0,0.0,0.0,0.59841,-0.14715,9.81
1873737355,22.09,0.0,0.0,0.0,0.60822,-0.17658,9.85905
1878787860,22.09,0.0,0.0,0.0,0.60822,-0.13734000000000002,9.83943
1883838365,22.09,0.0,0.0,0.0,0.59841,-0.14715,9.81
1888888870,22.09,0.0,0.0,0.0,0.56898,-0.14715,9.760950000000001
1893939375,22.09,0.0,0.0,0.0,0.57879,-0.15696000000000002,9.79038
1898989880,22.09,0.0,0.0,0.0,0.5886,-0.14715,9.82962
1904040385,22.09,0.0,0.0,0.0,0.5886,-0.17658,9.84924
1909090890,22.09,0.0,0.0,0.0,0.5886,-0.14715,9.82962
1914141395,22.09,0.0,0.0,0.0,0.60822,-0.14715,9.819809999999999
1919191900,22.09,0.0,0.0,0.0,0.57879,-0.14715,9.79038
1924242405,22.09,0.0,0.0,0.0,0.5886,-0.15696000000000002,9.81
1929292910,22.09,0.0,0.0,0.0,0.59841,-0.15696000000000002,9.81
1934343415,22.09,0.0,0.0,0.0,0.5886,-0.13734000000000002,9.82962
1939393920,22.09,0.0,0.0,0.0,0.5886,-0.14715,9.81
1944444425,22.09,0.0,0.0,0.0,0.60822,-0.14715,9.80019
1949494930,22.09,0.0,0.0,0.0,0.57879,-0.12753,9.80019
1954545435,22.09,0.0,0.0,0.0,0.59841,-0.15696000000000002,9.81
1959595940,22.09,0.0,0.0,0.0,0.5886,-0.14715,9.83943
1964646445,22.09,0.0,0.0,0.0,0.5886,-0.17658,9.819809999999999
1969696950,22.09,0.0,0.0,0.0,0.5591700000000001,-0.14715,9.819809999999999
1974747455,22.09,0.0,0.0,0.0,0.5886,-0.16677000000000003,9.79038
1979797960,22.09,0.0,0.0,0.0,0.5886,-0.14715,9.79038
1984848465,22.09,0.0,0.0,0.0,0.57879,-0.17658,9.819809999999999
1989898970,22.09,0.0,0.0,0.0,0.6278400000000001,-0.13734000000000002,9.82962
1994949475,22.09,0.0,0.0,0.0,0.60822,-0.14715,9.819809999999999
1999999980,22.09,0.0,0.0,0.0,0.59841,-0.15696000000000002,9.760950000000001
2005050485,22.09,0.0,0.0,0.0,0.5886,-0.15696000000000002,9.78057
2010100990,22.09,0.0,0.0,0.0,0.5886,-0.16677000000000003,9.819809999999999
2015151495,22.09,0.0,0.0,0.0,0.57879,-0.14715,9.83943
2020202000,22.09,0.0,0.0,0.0,0.6180300000000001,-0.14715,9.85905
2025252505,22.09,0.0,0.0,0.0,0.60822,-0.14715,9.81
2030303010,22.09,0.0,0.0,0.0,0.56898,-0.15696000000000002,9.770760000000001
2035353515,22.09,0.0,0.0,0.0,0.59841,-0.16677000000000003,9.81
2040404020,22.09,0.0,0.0,0.0,0.59841,-0.16677000000000003,9.819809999999999
2045454525,22.09,0.0,0.0,0.0,0.59841,-0.13734000000000002,9.84924
2050505030,22.09,0.0,0.0,0.0,0.5886,-0.15696000000000002,9.81
2055555535,22.09,0.0,0.0,0.0,0.5886,-0.14715,9.78057
2060606040,22.09,0.0,0.0,0.0,0.5886,-0.15696000000000002,9.79038
2065656545,22.09,0.0,0.0,0.0,0.57879,-0.15696000000000002,9.81
2070707050,22.09,0.0,0.0,0.0,0.57879,-0.18639,9.819809999999999
2075757555,22.09,0.0,0.0,0.0,0.5886,-0.17658,9.81
2080808060,22.09,0.0,0.0,0.0,0.5886,-0.13734000000000002,9.81
2085858565,22.09,0.0,0.0,0.0,0.60822,-0.15696000000000002,9.82962
2090909070,22.09,0.0,0.0,0.0,0.57879,-0.14715,9.81
2095959575,22.09,0.0,0.0,0.0,0.5886,-0.12753,9.80019
2101010080,22.09,0.0,0.0,0.0,0.60822,-0.17658,9.80019
2106060585,22.09,0.0,0.0,0.0,0.5886,-0.13734000000000002,9.819809999999999
2111111090,22.09,0.0,0.0,0.0,0.59841,-0.15696000000000002,9.80019
2116161595,22.09,0.0,0.0,0.0,0.5886,-0.14715,9.81
2121212100,22.09,0.0,0.0,0.0,0.5886,-0.17658,9.81
2126262605,22.09,0.0,0.0,0.0,0.59841,-0.14715,9.82962
2131313110,22.09,0.0,0.0,0.0,0.59841,-0.15696000000000002,9.819809999999999
2136363615,22.09,0.0,0.0,0.0,0.57879,-0.13734000000000002,9.82962
2141414120,22.09,0.0,0.0,0.0,0.59841,-0.14715,9.80019
2146464625,22.09,0.0,0.0,0.0,0.60822,-0.14715,9.79038
2151515130,22.09,0.0,0.0,0.0,0.57879,-0.14715,9.81
2156565635,22.09,0.0,0.0,0.0,0.60822,-0.15696000000000002,9.819809999999999
2161616140,22.09,0.0,0.0,0.0,0.56898,-0.15696000000000002,9.819809999999999
2166666645,22.09,0.0,0.0,0.0,0.57879,-0.14715,9.81
2171717150,22.09,0.0,0.0,0.0,0.5886,-0.17658,9.81
2176767655,22.09,0.0,0.0,0.0,0.57879,-0.17658,9.79038
2181818160,22.09,0.0,0.0,0.0,0.60822,-0.16677000000000003,9.819809999999999
2186868665,22.09,0.0,0.0,0.0,0.5886,-0.13734000000000002,9.81
2191919170,22.09,0.0,0.0,0.0,0.56898,-0.15696000000000002,9.81
2196969675,22.09,0.0,0.0,0.0,0.57879,-0.16677000000000003,9.81
2202020180,22.09,0.0,0.0,0.0,0.60822,-0.16677000000000003,9.81
2207070685,22.09,0.0,0.0,0.0,0.59841,-0.15696000000000002,9.82962
2212121190,22.09,0.0,0.0,0.0,0.60822,-0.15696000000000002,9.819809999999999
2217171695,22.09,0.0,0.0,0.0,0.5886,-0.15696000000000002,9.79038
2222222200,22.09,0.0,0.0,0.0,0.5886,-0.14715,9.79038
2227272705,22.09,0.0,0.0,0.0,0.60822,-0.15696000000000002,9.82962
2232323210,22.09,0.0,0.0,0.0,0.5886,-0.15696000000000002,9.82962
2237373715,22.09,0.0,0.0,0.0,0.57879,-0.15696000000000002,9.81
2242424220,22.09,0.0,0.0,0.0,0.5886,-0.15696000000000002,9.79038
2247474725,22.09,0.0,0.0,0.0,0.57879,-0.14715,9.81
2252525230,22.09,0.0,0.0,0.0,0.60822,-0.13734000000000002,9.82962
2257575735,22.09,0.0,0.0,0.0,0.6180300000000001,-0.14715,9.819809999999999
2262626240,22.09,0.0,0.0,0.0,0.56898,-0.16677000000000003,9.80019
2267676745,22.09,0.0,0.0,0.0,0.59841,-0.14715,9.770760000000001
2272727250,22.09,0.0,0.0,0.0,0.5886,-0.15696000000000002,9.82962
2277777755,22.09,0.0,0.0,0.0,0.6278400000000001,-0.13734000000000002,9.83943
2282828260,22.09,0.0,0.0,0.0,0.60822,-0.15696000000000002,9.84924
2287878765,22.09,0.0,0.0,0.0,0.5886,-0.14715,9.81
2292929270,22.09,0.0,0.0,0.0,0.59841,-0.16677000000000003,9.78057
2297979775,22.09,0.0,0.0,0.0,0.57879,-0.14715,9.78057
2303030280,22.09,0.0,0.0,0.0,0.5886,-0.13734000000000002,9.81
2308080785,22.09,0.0,0.0,0.0,0.59841,-0.14715,9.82962
2313131290,22.09,0.0,0.0,0.0,0.60822,-0.14715,9.81
2318181795,22.09,0.0,0.0,0.0,0.57879,-0.13734000000000002,9.81
2323232300,22.09,0.0,0.0,0.0,0.60822,-0.16677000000000003,9.79038
2328282805,22.09,0.0,0.0,0.0,0.60822,-0.18639,9.81
2333333310,22.09,0.0,0.0,0.0,0.5886,-0.14715,9.819809999999999
2338383815,22.09,0.0,0.0,0.0,0.57879,-0.15696000000000002,9.79038
2343434320,22.09,0.0,0.0,0.0,0.59841,-0.17658,9.819809999999999
2348484825,22.09,0.0,0.0,0.0,0.60822,-0.12753,9.82962
2353535330,22.09,0.0,0.0,0.0,0.60822,-0.17658,9.82962
2358585835,22.09,0.0,0.0,0.0,0.5886,-0.17658,9.79038
2363636340,22.09,0.0,0.0,0.0,0.5886,-0.14715,9.78057
2368686845,22.09,0.0,0.0,0.0,0.5886,-0.15696000000000002,9.78057
2373737350,22.09,0.0,0.0,0.0,0.60822,-0.13734000000000002,9.82962
2378787855,22.09,0.0,0.0,0.0,0.5886,-0.15696000000000002,9.85905
2383838360,22.09,0.0,0.0,0.0,0.60822,-0.14715,9.819809999999999
2388888865,22.09,0.0,0.0,0.0,0.60822,-0.14715,9.81
2393939370,22.09,0.0,0.0,0.0,0.57879,-0.15696000000000002,9.79038
2398989875,22.09,0.0,0.0,0.0,0.6180300000000001,-0.17658,9.83943
2404040380,22.09,0.0,0.0,0.0,0.59841,-0.13734000000000002,9.82962
2409090885,22.09,0.0,0.0,0.0,0.5886,-0.14715,9.79038
2414141390,22.09,0.0,0.0,0.0,0.57879,-0.14715,9.78057
2419191895,22.09,0.0,0.0,0.0,0.5886,-0.14715,9.81
2424242400,22.09,0.0,0.0,0.0,0.60822,-0.15696000000000002,9.84924
2429292905,22.09,0.0,0.0,0.0,0.57879,-0.14715,9.819809999999999
2434343410,22.09,0.0,0.0,0.0,0.59841,-0.14715,9.78057
2439393915,22.09,0.0,0.0,0.0,0.59841,-0.15696000000000002,9.770760000000001
2444444420,22.09,0.0,0.0,0.0,0.5886,-0.16677000000000003,9.82962
2449494925,22.09,0.0,0.0,0.0,0.60822,-0.16677000000000003,9.83943
2454545430,22.09,0.0,0.0,0.0,0.60822,-0.12753,9.81
2459595935,22.09,0.0,0.0,0.0,0.59841,-0.17658,9.78057
2464646440,22.09,0.0,0.0,0.0,0.5591700000000001,-0.14715,9.78057
2469696945,22.09,0.0,0.0,0.0,0.57879,-0.15696000000000002,9.80019
2474747450,22.09,0.0,0.0,0.0,0.5886,-0.13734000000000002,9.819809999999999
2479797955,22.09,0.0,0.0,0.0,0.59841,-0.15696000000000002,9.82962
2484848460,22.09,0.0,0.0,0.0,0.59841,-0.16677000000000003,9.79038
2489898965,22.09,0.0,0.0,0.0,0.60822,-0.15696000000000002,9.819809999999999
2494949470,22.09,0.0,0.0,0.0,0.5886,-0.14715,9.83943
2499999975,22.09,0.0,0.0,0.0,0.59841,-0.14715,9.80019
2505050480,22.09,0.0,0.0,0.0,0.57879,-0.15696000000000002,9.80019
2510100985,22.09,0.0,0.0,0.0,0.5886,-0.13734000000000002,9.760950000000001
2515151490,22.09,0.0,0.0,0.0,0.56898,-0.14715,9.83943
2520201995,22.09,0.0,0.0,0.0,0.56898,-0.17658,9.81
2525252500,22.09,0.0,0.0,0.0,0.59841,-0.14715,9.83943
2530303005,22.09,0.0,0.0,0.0,0.60822,-0.14715,9.79038
2535353510,22.09,0.0,0.0,0.0,0.59841,-0.13734000000000002,9.78057
2540404015,22.09,0.0,0.0,0.0,0.56898,-0.15696000000000002,9.819809999999999
2545454520,22.09,0.0,0.0,0.0,0.60822,-0.14715,9.85905
2550505025,22.09,0.0,0.0,0.0,0.57879,-0.14715,9.85905
2555555530,22.09,0.0,0.0,0.0,0.59841,-0.16677000000000003,9.78057
2560606035,22.09,0.0,0.0,0.0,0.57879,-0.17658,9.78057
2565656540,22.09,0.0,0.0,0.0,0.59841,-0.15696000000000002,9.80019
2570707045,22.09,0.0,0.0,0.0,0.57879,-0.13734000000000002,9.82962
2575757550,22.09,0.0,0.0,0.0,0.5886,-0.17658,9.83943
2580808055,22.09,0.0,0.0,0.0,0.57879,-0.14715,9.80019
2585858560,22.09,0.0,0.0,0.0,0.57879,-0.16677000000000003,9.78057
2590909065,22.09,0.0,0.0,0.0,0.5886,-0.16677000000000003,9.79038
2595959570,22.09,0.0,0.0,0.0,0.60822,-0.14715,9.84924
2601010075,22.09,0.0,0.0,0.0,0.56898,-0.15696000000000002,9.81
2606060580,22.09,0.0,0.0,0.0,0.60822,-0.12753,9.819809999999999
2611111085,22.09,0.0,0.0,0.0,0.5886,-0.15696000000000002,9.770760000000001
2616161590,22.09,0.0,0.0,0.0,0.59841,-0.15696000000000002,9.80019
2621212095,22.09,0.0,0.0,0.0,0.60822,-0.18639,9.82962
2626262600,22.09,0.0,0.0,0.0,0.56898,-0.17658,9.85905
2631313105,22.09,0.0,0.0,0.0,0.59841,-0.16677000000000003,9.81
2636363610,22.09,0.0,0.0,0.0,0.5886,-0.12753,9.80019
2641414115,22.09,0.0,0.0,0.0,0.59841,-0.14715,9.819809999999999
2646464620,22.09,0.0,0.0,0.0,0.5886,-0.16677000000000003,9.819809999999999
2651515125,22.09,0.0,0.0,0.0,0.57879,-0.14715,9.81
2656565630,22.09,0.0,0.0,0.0,0.5886,-0.15696000000000002,9.82962
2661616135,22.09,0.0,0.0,0.0,0.56898,-0.16677000000000003,9.819809999999999
2666666640,22.09,0.0,0.0,0.0,0.5886,-0.13734000000000002,9.80019
2671717145,22.09,0.0,0.0,0.0,0.60822,-0.15696000000000002,9.78057
2676767650,22.09,0.0,0.0,0.0,0.56898,-0.14715,9.81
2681818155,22.09,0.0,0.0,0.0,0.59841,-0.16677000000000003,9.81
2686868660,22.09,0.0,0.0,0.0,0.56898,-0.14715,9.81
2691919165,22.09,0.0,0.0,0.0,0.59841,-0.15696000000000002,9.81
2696969670,22.09,0.0,0.0,0.0,0.60822,-0.15696000000000002,9.79038
2702020175,22.09,0.0,0.0,0.0,0.59841,-0.14715,9.770760000000001
2707070680,22.09,0.0,0.0,0.0,0.5886,-0.16677000000000003,9.819809999999999
2712121185,22.09,0.0,0.0,0.0,0.59841,-0.17658,9.86886
2717171690,22.09,0.0,0.0,0.0,0.60822,-0.13734000000000002,9.819809999999999
2722222195,22.09,0.0,0.0,0.0,0.57879,-0.14715,9.79038
2727272700,22.09,0.0,0.0,0.0,0.56898,-0.14715,9.760950000000001
2732323205,22.09,0.0,0.0,0.0,0.59841,-0.15696000000000002,9.80019
2737373710,22.09,0.0,0.0,0.0,0.60822,-0.15696000000000002,9.85905
2742424215,22.09,0.0,0.0,0.0,0.57879,-0.14715,9.83943
2747474720,22.09,0.0,0.0,0.0,0.5886,-0.15696000000000002,9.760950000000001
2752525225,22.09,0.0,0.0,0.0,0.57879,-0.15696000000000002,9.79038
2757575730,22.09,0.0,0.0,0.0,0.60822,-0.14715,9.819809999999999
2762626235,22.09,0.0,0.0,0.0,0.5886,-0.11772,9.83943
2767676740,22.09,0.0,0.0,0.0,0.59841,-0.15696000000000002,9.82962
2772727245,22.09,0.0,0.0,0.0,0.59841,-0.1962,9.770760000000001
2777777750,22.09,0.0,0.0,0.0,0.59841,-0.15696000000000002,9.760950000000001
2782828255,22.09,0.0,0.0,0.0,0.59841,-0.18639,9.82962
2787878760,22.09,0.0,0.0,0.0,0.59841,-0.14715,9.85905
2792929265,22.09,0.0,0.0,0.0,0.5886,-0.13734000000000002,9.83943
2797979770,22.09,0.0,0.0,0.0,0.59841,-0.15696000000000002,9.78057
2803030275,22.09,0.0,0.0,0.0,0.57879,-0.15696000000000002,9.74133
2808080780,22.09,0.0,0.0,0.0,0.59841,-0.16677000000000003,9.819809999999999
2813131285,22.09,0.0,0.0,0.0,0.60822,-0.13734000000000002,9.87867
2818181790,22.09,0.0,0.0,0.0,0.57879,-0.13734000000000002,9.83943
2823232295,22.09,0.0,0.0,0.0,0.60822,-0.15696000000000002,9.79038
2828282800,22.09,0.0,0.0,0.0,0.57879,-0.13734000000000002,9.770760000000001
2833333305,22.09,0.0,0.0,0.0,0.59841,-0.14715,9.79038
2838383810,22.09,0.0,0.0,0.0,0.56898,-0.15696000000000002,9.82962
2843434315,22.09,0.0,0.0,0.0,0.59841,-0.15696000000000002,9.83943
2848484820,22.09,0.0,0.0,0.0,0.59841,-0.16677000000000003,9.80019
2853535325,22.09,0.0,0.0,0.0,0.5886,-0.16677000000000003,9.79038
2858585830,22.09,0.0,0.0,0.0,0.5493600000000001,-0.14715,9.82962
2863636335,22.09,0.0,0.0,0.0,0.60822,-0.14715,9.81
2868686840,22.09,0.0,0.0,0.0,0.59841,-0.16677000000000003,9.79038
2873737345,22.09,0.0,0.0,0.0,0.5886,-0.15696000000000002,9.79038
2878787850,22.09,0.0,0.0,0.0,0.5886,-0.15696000000000002,9.81
2883838355,22.09,0.0,0.0,0.0,0.57879,-0.12753,9.82962
2888888860,22.09,0.0,0.0,0.0,0.59841,-0.14715,9.81
2893939365,22.09,0.0,0.0,0.0,0.56898,-0.16677000000000003,9.80019
2898989870,22.09,0.0,0.0,0.0,0.5886,-0.12753,9.80019
2904040375,22.09,0.0,0.0,0.0,0.56898,-0.15696000000000002,9.82962
2909090880,22.09,0.0,0.0,0.0,0.60822,-0.14715,9.82962
2914141385,22.09,0.0,0.0,0.0,0.57879,-0.16677000000000003,9.79038
2919191890,22.09,0.0,0.0,0.0,0.5886,-0.15696000000000002,9.80019
2924242395,22.09,0.0,0.0,0.0,0.5886,-0.15696000000000002,9.81
2929292900,22.09,0.0,0.0,0.0,0.60822,-0.13734000000000002,9.83943
2934343405,22.09,0.0,0.0,0.0,0.6180300000000001,-0.15696000000000002,9.83943
2939393910,22.09,0.0,0.0,0.0,0.56898,-0.16677000000000003,9.751140000000001
2944444415,22.09,0.0,0.0,0.0,0.5886,-0.15696000000000002,9.760950000000001
2949494920,22.09,0.0,0.0,0.0,0.59841,-0.16677000000000003,9.81
2954545425,22.09,0.0,0.0,0.0,0.60822,-0.14715,9.86886
2959595930,22.09,0.0,0.0,0.0,0.59841,-0.16677000000000003,9.86886
2964646435,22.09,0.0,0.0,0.0,0.56898,-0.13734000000000002,9.80019
2969696940,22.09,0.0,0.0,0.0,0.5886,-0.15696000000000002,9.72171
2974747445,22.09,0.0,0.0,0.0,0.5886,-0.16677000000000003,9.80019
2979797950,22.09,0.0,0.0,0.0,0.5886,-0.16677000000000003,9.83943
2984848455,22.09,0.0,0.0,0.0,0.5886,-0.17658,9.888480000000001
2989898960,22.09,0.0,0.0,0.0,0.5886,-0.13734000000000002,9.80019
2994949465,22.09,0.0,0.0,0.0,0.59841,-0.17658,9.72171
2999999970,22.09,0.0,0.0,0.0,0.59841,-0.17658,9.79038
3005050475,22.09,0.0,0.0,0.0,0.5886,-0.18639,9.84924
3010100980,22.09,0.0,0.0,0.0,0.5886,-0.15696000000000002,9.86886
3015151485,22.09,0.0,0.0,0.0,0.5886,-0.15696000000000002,9.819809999999999
3020201990,22.09,0.0,0.0,0.0,0.56898,-0.14715,9.760950000000001
3025252495,22.09,0.0,0.0,0.0,0.59841,-0.12753,9.770760000000001
3030303000,22.09,0.0,0.0,0.0,0.60822,-0.13734000000000002,9.819809999999999
3035353505,22.09,0.0,0.0,0.0,0.59841,-0.15696000000000002,9.85905
3040404010,22.09,0.0,0.0,0.0,0.60822,-0.15696000000000002,9.85905
3045454515,22.09,0.0,0.0,0.0,0.56898,-0.15696000000000002,9.78057
3050505020,22.09,0.0,0.0,0.0,0.57879,-0.13734000000000002,9.760950000000001
3055555525,22.09,0.0,0.0,0.0,0.5886,-0.18639,9.81
3060606030,22.09,0.0,0.0,0.0,0.56898,-0.15696000000000002,9.83943
3065656535,22.09,0.0,0.0,0.0,0.60822,-0.15696000000000002,9.82962
3070707040,22.09,0.0,0.0,0.0,0.6180300000000001,-0.14715,9.80019
3075757545,22.09,0.0,0.0,0.0,0.5886,-0.14715,9.79038
3080808050,22.09,0.0,0.0,0.0,0.60822,-0.12753,9.770760000000001
3085858555,22.09,0.0,0.0,0.0,0.59841,-0.16677000000000003,9.81
3090909060,22.09,0.0,0.0,0.0,0.56898,-0.16677000000000003,9.819809999999999
3095959565,22.09,0.0,0.0,0.0,0.60822,-0.16677000000000003,9.81
3101010070,22.09,0.0,0.0,0.0,0.59841,-0.13734000000000002,9.79038
3106060575,22.09,0.0,0.0,0.0,0.57879,-0.15696000000000002,9.80019
3111111080,22.09,0.0,0.0,0.0,0.5886,-0.14715,9.80019
3116161585,22.09,0.0,0.0,0.0,0.59841,-0.14715,9.80019
3121212090,22.09,0.0,0.0,0.0,0.59841,-0.14715,9.85905
3126262595,22.09,0.0,0.0,0.0,0.5886,-0.14715,9.81
3131313100,22.09,0.0,0.0,0.0,0.5591700000000001,-0.17658,9.81
3136363605,22.09,0.0,0.0,0.0,0.5886,-0.13734000000000002,9.760950000000001
3141414110,22.09,0.0,0.0,0.0,0.5886,-0.16677000000000003,9.79038
3146464615,22.09,0.0,0.0,0.0,0.5591700000000001,-0.15696000000000002,9.86886
3151515120,22.09,0.0,0.0,0.0,0.57879,-0.16677000000000003,9.819809999999999
3156565625,22.09,0.0,0.0,0.0,0.60822,-0.14715,9.82962
3161616130,22.09,0.0,0.0,0.0,0.5591700000000001,-0.15696000000000002,9.770760000000001
3166666635,22.09,0.0,0.0,0.0,0.59841,-0.16677000000000003,9.78057
3171717140,22.09,0.0,0.0,0.0,0.5886,-0.14715,9.83943
3176767645,22.09,0.0,0.0,0.0,0.5886,-0.16677000000000003,9.85905
3181818150,22.09,0.0,0.0,0.0,0.57879,-0.14715,9.819809999999999
3186868655,22.09,0.0,0.0,0.0,0.57879,-0.16677000000000003,9.80019
3191919160,22.09,0.0,0.0,0.0,0.59841,-0.16677000000000003,9.770760000000001
3196969665,22.09,0.0,0.0,0.0,0.59841,-0.14715,9.83943
3202020170,22.09,0.0,0.0,0.0,0.60822,-0.16677000000000003,9.85905
3207070675,22.09,0.0,0.0,0.0,0.60822,-0.14715,9.80019
3212121180,22.09,0.0,0.0,0.0,0.59841,-0.16677000000000003,9.770760000000001
3217171685,22.09,0.0,0.0,0.0,0.5886,-0.14715,9.78057
3222222190,22.09,0.0,0.0,0.0,0.57879,-0.17658,9.819809999999999
3227272695,22.09,0.0,0.0,0.0,0.60822,-0.16677000000000003,9.84924
3232323200,22.09,0.0,0.0,0.0,0.59841,-0.18639,9.819809999999999
3237373705,22.09,0.0,0.0,0.0,0.5886,-0.14715,9.79038
3242424210,22.09,0.0,0.0,0.0,0.5886,-0.12753,9.81
3247474715,22.09,0.0,0.0,0.0,0.5886,-0.14715,9.819809999999999
3252525220,22.09,0.0,0.0,0.0,0.60822,-0.14715,9.83943
3257575725,22.09,0.0,0.0,0.0,0.57879,-0.14715,9.819809999999999
3262626230,22.09,0.0,0.0,0.0,0.57879,-0.14715,9.81
3267676735,22.09,0.0,0.0,0.0,0.59841,-0.13734000000000002,9.81
3272727240,22.09,0.0,0.0,0.0,0.59841,-0.14715,9.78057
3277777745,22.09,0.0,0.0,0.0,0.5886,-0.16677000000000003,9.81
3282828250,22.09,0.0,0.0,0.0,0.5886,-0.16677000000000003,9.79038
3287878755,22.09,0.0,0.0,0.0,0.60822,-0.17658,9.82962
3292929260,22.09,0.0,0.0,0.0,0.5886,-0.16677000000000003,9.82962
3297979765,22.09,0.0,0.0,0.0,0.57879,-0.15696000000000002,9.83943
3303030270,22.09,0.0,0.0,0.0,0.57879,-0.15696000000000002,9.81
3308080775,22.09,0.0,0.0,0.0,0.57879,-0.15696000000000002,9.78057
3313131280,22.09,0.0,0.0,0.0,0.5591700000000001,-0.15696000000000002,9.82962
3318181785,22.09,0.0,0.0,0.0,0.59841,-0.14715,9.82962
3323232290,22.09,0.0,0.0,0.0,0.57879,-0.14715,9.83943
3328282795,22.09,0.0,0.0,0.0,0.5886,-0.18639,9.770760000000001
3333333300,22.09,0.0,0.0,0.0,0.5886,-0.11772,9.74133
3338383805,22.09,0.0,0.0,0.0,0.5886,-0.16677000000000003,9.819809999999999
3343434310,22.09,0.0,0.0,0.0,0.5886,-0.17658,9.81
3348484815,22.09,0.0,0.0,0.0,0.59841,-0.14715,9.83943
3353535320,22.09,0.0,0.0,0.0,0.59841,-0.13734000000000002,9.79038
3358585825,22.09,0.0,0.0,0.0,0.5886,-0.14715,9.81
3363636330,22.09,0.0,0.0,0.0,0.60822,-0.15696000000000002,9.79038
3368686835,22.09,0.0,0.0,0.0,0.57879,-0.16677000000000003,9.82962
3373737340,22.09,0.0,0.0,0.0,0.56898,-0.13734000000000002,9.82962
3378787845,22.09,0.0,0.0,0.0,0.59841,-0.16677000000000003,9.81
3383838350,22.09,0.0,0.0,0.0,0.56898,-0.15696000000000002,9.81
3388888855,22.09,0.0,0.0,0.0,0.60822,-0.14715,9.80019
3393939360,22.09,0.0,0.0,0.0,0.56898,-0.13734000000000002,9.819809999999999
3398989865,22.09,0.0,0.0,0.0,0.5591700000000001,-0.15696000000000002,9.819809999999999
3404040370,22.09,0.0,0.0,0.0,0.60822,-0.14715,9.78057
3409090875,22.09,0.0,0.0,0.0,0.5886,-0.12753,9.81
3414141380,22.09,0.0,0.0,0.0,0.60822,-0.15696000000000002,9.819809999999999
3419191885,22.09,0.0,0.0,0.0,0.60822,-0.16677000000000003,9.82962
3424242390,22.09,0.0,0.0,0.0,0.5886,-0.13734000000000002,9.819809999999999
3429292895,22.09,0.0,0.0,0.0,0.5886,-0.16677000000000003,9.81
3434343400,22.09,0.0,0.0,0.0,0.56898,-0.12753,9.81
3439393905,22.09,0.0,0.0,0.0,0.5886,-0.14715,9.819809999999999
3444444410,22.09,0.0,0.0,0.0,0.5886,-0.14715,9.81
3449494915,22.09,0.0,0.0,0.0,0.59841,-0.17658,9.79038
3454545420,22.09,0.0,0.0,0.0,0.60822,-0.15696000000000002,9.80019
3459595925,22.09,0.0,0.0,0.0,0.59841,-0.17658,9.819809999999999
3464646430,22.09,0.0,0.0,0.0,0.5886,-0.13734000000000002,9.82962
3469696935,22.09,0.0,0.0,0.0,0.57879,-0.15696000000000002,9.770760000000001
3474747440,22.09,0.0,0.0,0.0,0.59841,-0.15696000000000002,9.770760000000001
3479797945,22.09,0.0,0.0,0.0,0.57879,-0.15696000000000002,9.80019
3484848450,22.09,0.0,0.0,0.0,0.5886,-0.17658,9.819809999999999
3489898955,22.09,0.0,0.0,0.0,0.57879,-0.15696000000000002,9.819809999999999
3494949460,22.09,0.0,0.0,0.0,0.60822,-0.13734000000000002,9.80019
3499999965,22.09,0.0,0.0,0.0,0.59841,-0.15696000000000002,9.78057
3505050470,22.09,0.0,0.0,0.0,0.59841,-0.14715,9.79038
3510100975,22.09,0.0,0.0,0.0,0.60822,-0.15696000000000002,9.83943
3515151480,22.09,0.0,0.0,0.0,0.6180300000000001,-0.17658,9.83943
3520201985,22.09,0.0,0.0,0.0,0.5886,-0.15696000000000002,9.81
3525252490,22.09,0.0,0.0,0.0,0.59841,-0.18639,9.770760000000001
3530302995,22.09,0.0,0.0,0.0,0.59841,-0.15696000000000002,9.79038
3535353500,22.09,0.0,0.0,0.0,0.5886,-0.15696000000000002,9.82962
3540404005,22.09,0.0,0.0,0.0,0.60822,-0.18639,9.86886
3545454510,22.09,0.0,0.0,0.0,0.59841,-0.13734000000000002,9.81
3550505015,22.09,0.0,0.0,0.0,0.59841,-0.13734000000000002,9.80019
3555555520,22.09,0.0,0.0,0.0,0.57879,-0.16677000000000003,9.80019
3560606025,22.09,0.0,0.0,0.0,0.5886,-0.15696000000000002,9.819809999999999
3565656530,22.09,0.0,0.0,0.0,0.5886,-0.14715,9.82962
3570707035,22.09,0.0,0.0,0.0,0.60822,-0.15696000000000002,9.79038
3575757540,22.09,0.0,0.0,0.0,0.5886,-0.16677000000000003,9.81
3580808045,22.09,0.0,0.0,0.0,0.5886,-0.15696000000000002,9.81
3585858550,22.09,0.0,0.0,0.0,0.59841,-0.15696000000000002,9.82962
3590909055,22.09,0.0,0.0,0.0,0.60822,-0.13734000000000002,9.81
3595959560,22.09,0.0,0.0,0.0,0.6180300000000001,-0.14715,9.84924
3601010065,22.09,0.0,0.0,0.0,0.56898,-0.14715,9.79038
3606060570,22.09,0.0,0.0,0.0,0.57879,-0.15696000000000002,9.81
3611111075,22.09,0.0,0.0,0.0,0.60822,-0.16677000000000003,9.81
3616161580,22.09,0.0,0.0,0.0,0.60822,-0.13734000000000002,9.83943
3621212085,22.09,0.0,0.0,0.0,0.5886,-0.14715,9.819809999999999
3626262590,22.09,0.0,0.0,0.0,0.56898,-0.14715,9.81
3631313095,22.09,0.0,0.0,0.0,0.5591700000000001,-0.14715,9.81
3636363600,22.09,0.0,0.0,0.0,0.57879,-0.17658,9.81
3641414105,22.09,0.0,0.0,0.0,0.5886,-0.16677000000000003,9.81
3646464610,22.09,0.0,0.0,0.0,0.5886,-0.14715,9.819809999999999
3651515115,22.09,0.0,0.0,0.0,0.57879,-0.14715,9.82962
3656565620,22.09,0.0,0.0,0.0,0.60822,-0.13734000000000002,9.82962
3661616125,22.09,0.0,0.0,0.0,0.60822,-0.13734000000000002,9.80019
3666666630,22.09,0.0,0.0,0.0,0.59841,-0.16677000000000003,9.80019
3671717135,22.09,0.0,0.0,0.0,0.5886,-0.16677000000000003,9.79038
3676767640,22.09,0.0,0.0,0.0,0.5886,-0.14715,9.82962
3681818145,22.09,0.0,0.0,0.0,0.57879,-0.16677000000000003,9.83943
3686868650,22.09,0.0,0.0,0.0,0.60822,-0.11772,9.81
3691919155,22.09,0.0,0.0,0.0,0.57879,-0.14715,9.78057
3696969660,22.09,0.0,0.0,0.0,0.59841,-0.15696000000000002,9.79038
3702020165,22.09,0.0,0.0,0.0,0.59841,-0.16677000000000003,9.819809999999999
3707070670,22.09,0.0,0.0,0.0,0.56898,-0.15696000000000002,9.83943
3712121175,22.09,0.0,0.0,0.0,0.59841,-0.13734000000000002,9.819809999999999
3717171680,22.09,0.0,0.0,0.0,0.59841,-0.14715,9.80019
3722222185,22.09,0.0,0.0,0.0,0.5886,-0.13734000000000002,9.81
3727272690,22.09,0.0,0.0,0.0,0.5886,-0.15696000000000002,9.82962
3732323195,22.09,0.0,0.0,0.0,0.57879,-0.15696000000000002,9.83943
3737373700,22.09,0.0,0.0,0.0,0.5886,-0.16677000000000003,9.80019
3742424205,22.09,0.0,0.0,0.0,0.60822,-0.15696000000000002,9.80019
3747474710,22.09,0.0,0.0,0.0,0.5886,-0.15696000000000002,9.78057
3752525215,22.09,0.0,0.0,0.0,0.60822,-0.14715,9.80019
3757575720,22.09,0.0,0.0,0.0,0.5886,-0.14715,9.87867
3762626225,22.09,0.0,0.0,0.0,0.56898,-0.15696000000000002,9.82962
3767676730,22.09,0.0,0.0,0.0,0.59841,-0.12753,9.79038
3772727235,22.09,0.0,0.0,0.0,0.5886,-0.14715,9.79038
3777777740,22.09,0.0,0.0,0.0,0.5886,-0.13734000000000002,9.80019
3782828245,22.09,0.0,0.0,0.0,0.5886,-0.15696000000000002,9.819809999999999
3787878750,22.09,0.0,0.0,0.0,0.57879,-0.16677000000000003,9.81
3792929255,22.09,0.0,0.0,0.0,0.5886,-0.15696000000000002,9.82962
3797979760,22.09,0.0,0.0,0.0,0.57879,-0.15696000000000002,9.81
3803030265,22.09,0.0,0.0,0.0,0.59841,-0.15696000000000002,9.79038
3808080770,22.09,0.0,0.0,0.0,0.60822,-0.14715,9.78057
3813131275,22.09,0.0,0.0,0.0,0.59841,-0.16677000000000003,9.80019
3818181780,22.09,0.0,0.0,0.0,0.59841,-0.17658,9.819809999999999
3823232285,22.09,0.0,0.0,0.0,0.6180300000000001,-0.16677000000000003,9.84924
3828282790,22.09,0.0,0.0,0.0,0.5886,-0.12753,9.78057
3833333295,22.09,0.0,0.0,0.0,0.57879,-0.14715,9.770760000000001
3838383800,22.09,0.0,0.0,0.0,0.5591700000000001,-0.14715,9.80019
3843434305,22.09,0.0,0.0,0.0,0.56898,-0.15696000000000002,9.85905
3848484810,22.09,0.0,0.0,0.0,0.5886,-0.15696000000000002,9.819809999999999
3853535315,22.09,0.0,0.0,0.0,0.5886,-0.16677000000000003,9.78057
3858585820,22.09,0.0,0.0,0.0,0.5886,-0.16677000000000003,9.78057
3863636325,22.09,0.0,0.0,0.0,0.5886,-0.16677000000000003,9.79038
3868686830,22.09,0.0,0.0,0.0,0.60822,-0.17658,9.819809999999999
3873737335,22.09,0.0,0.0,0.0,0.59841,-0.15696000000000002,9.83943
3878787840,22.09,0.0,0.0,0.0,0.5886,-0.16677000000000003,9.82962
3883838345,22.09,0.0,0.0,0.0,0.59841,-0.16677000000000003,9.760950000000001
3888888850,22.09,0.0,0.0,0.0,0.59841,-0.14715,9.760950000000001
3893939355,22.09,0.0,0.0,0.0,0.59841,-0.16677000000000003,9.81
3898989860,22.09,0.0,0.0,0.0,0.5886,-0.14715,9.85905
3904040365,22.09,0.0,0.0,0.0,0.59841,-0.15696000000000002,9.819809999999999
3909090870,22.09,0.0,0.0,0.0,0.59841,-0.14715,9.80019
3914141375,22.09,0.0,0.0,0.0,0.59841,-0.16677000000000003,9.78057
3919191880,22.09,0.0,0.0,0.0,0.5886,-0.15696000000000002,9.819809999999999
3924242385,22.09,0.0,0.0,0.0,0.59841,-0.12753,9.86886
3929292890,22.09,0.0,0.0,0.0,0.5886,-0.14715,9.82962
3934343395,22.09,0.0,0.0,0.0,0.5886,-0.14715,9.770760000000001
3939393900,22.09,0.0,0.0,0.0,0.57879,-0.14715,9.751140000000001
3944444405,22.09,0.0,0.0,0.0,0.59841,-0.14715,9.819809999999999
3949494910,22.09,0.0,0.0,0.0,0.5886,-0.16677000000000003,9.83943
3954545415,22.09,0.0,0.0,0.0,0.5886,-0.14715,9.82962
3959595920,22.09,0.0,0.0,0.0,0.59841,-0.14715,9.770760000000001
3964646425,22.09,0.0,0.0,0.0,0.59841,-0.15696000000000002,9.78057
3969696930,22.09,0.0,0.0,0.0,0.60822,-0.15696000000000002,9.81
3974747435,22.09,0.0,0.0,0.0,0.5886,-0.12753,9.819809999999999
3979797940,22.09,0.0,0.0,0.0,0.60822,-0.12753,9.82962
3984848445,22.09,0.0,0.0,0.0,0.59841,-0.17658,9.80019
3989898950,22.09,0.0,0.0,0.0,0.60822,-0.14715,9.80019
3994949455,22.09,0.0,0.0,0.0,0.59841,-0.15696000000000002,9.81
3999999960,22.09,0.0,0.0,0.0,0.5886,-0.14715,9.81
4005050465,22.09,0.0,0.0,0.0,0.56898,-0.16677000000000003,9.79038
4010100970,22.09,0.0,0.0,0.0,0.5886,-0.12753,9.79038
4015151475,22.09,0.0,0.0,0.0,0.5886,-0.13734000000000002,9.81
4020201980,22.09,0.0,0.0,0.0,0.5886,-0.15696000000000002,9.819809999999999
4025252485,22.09,0.0,0.0,0.0,0.5886,-0.12753,9.81
4030302990,22.09,0.0,0.0,0.0,0.56898,-0.11772,9.81
4035353495,22.09,0.0,0.0,0.0,0.57879,-0.16677000000000003,9.80019
4040404000,22.09,0.0,0.0,0.0,0.59841,-0.16677000000000003,9.819809999999999
4045454505,22.09,0.0,0.0,0.0,0.57879,-0.13734000000000002,9.81
4050505010,22.09,0.0,0.0,0.0,0.57879,-0.1962,9.81
4055555515,22.09,0.0,0.0,0.0,0.5886,-0.15696000000000002,9.79038
4060606020,22.09,0.0,0.0,0.0,0.5886,-0.16677000000000003,9.819809999999999
4065656525,22.09,0.0,0.0,0.0,0.5886,-0.17658,9.85905
4070707030,22.09,0.0,0.0,0.0,0.5886,-0.14715,9.83943
4075757535,22.09,0.0,0.0,0.0,0.59841,-0.14715,9.80019
4080808040,22.09,0.0,0.0,0.0,0.60822,-0.16677000000000003,9.80019
4085858545,22.09,0.0,0.0,0.0,0.5886,-0.13734000000000002,9.81
4090909050,22.09,0.0,0.0,0.0,0.5886,-0.15696000000000002,9.85905
4095959555,22.09,0.0,0.0,0.0,0.57879,-0.14715,9.81
4101010060,22.09,0.0,0.0,0.0,0.5886,-0.15696000000000002,9.78057
4106060565,22.09,0.0,0.0,0.0,0.60822,-0.13734000000000002,9.770760000000001
4111111070,22.09,0.0,0.0,0.0,0.5886,-0.15696000000000002,9.81
4116161575,22.09,0.0,0.0,0.0,0.59841,-0.17658,9.83943
4121212080,22.09,0.0,0.0,0.0,0.56898,-0.16677000000000003,9.81
4126262585,22.09,0.0,0.0,0.0,0.60822,-0.15696000000000002,9.79038
4131313090,22.09,0.0,0.0,0.0,0.57879,-0.17658,9.80019
4136363595,22.09,0.0,0.0,0.0,0.5886,-0.14715,9.80019
4141414100,22.09,0.0,0.0,0.0,0.60822,-0.15696000000000002,9.82962
4146464605,22.09,0.0,0.0,0.0,0.59841,-0.16677000000000003,9.83943
4151515110,22.09,0.0,0.0,0.0,0.56898,-0.14715,9.80019
4156565615,22.09,0.0,0.0,0.0,0.5886,-0.16677000000000003,9.81
4161616120,22.09,0.0,0.0,0.0,0.57879,-0.16677000000000003,9.81
4166666625,22.09,0.0,0.0,0.0,0.5886,-0.14715,9.82962
4171717130,22.09,0.0,0.0,0.0,0.59841,-0.15696000000000002,9.78057
4176767635,22.09,0.0,0.0,0.0,0.5886,-0.16677000000000003,9.79038
4181818140,22.09,0.0,0.0,0.0,0.5886,-0.16677000000000003,9.81
4186868645,22.09,0.0,0.0,0.0,0.59841,-0.14715,9.819809999999999
4191919150,22.09,0.0,0.0,0.0,0.60822,-0.15696000000000002,9.819809999999999
4196969655,22.09,0.0,0.0,0.0,0.59841,-0.16677000000000003,9.82962
4202020160,22.09,0.0,0.0,0.0,0.60822,-0.13734000000000002,9.81
4207070665,22.09,0.0,0.0,0.0,0.59841,-0.13734000000000002,9.79038
4212121170,22.09,0.0,0.0,0.0,0.60822,-0.16677000000000003,9.81
4217171675,22.09,0.0,0.0,0.0,0.5886,-0.16677000000000003,9.81
4222222180,22.09,0.0,0.0,0.0,0.59841,-0.1962,9.80019
4227272685,22.09,0.0,0.0,0.0,0.59841,-0.12753,9.82962
4232323190,22.09,0.0,0.0,0.0,0.57879,-0.15696000000000002,9.82962
4237373695,22.09,0.0,0.0,0.0,0.5886,-0.14715,9.80019
4242424200,22.09,0.0,0.0,0.0,0.59841,-0.16677000000000003,9.770760000000001
4247474705,22.09,0.0,0.0,0.0,0.6180300000000001,-0.16677000000000003,9.79038
4252525210,22.09,0.0,0.0,0.0,0.57879,-0.15696000000000002,9.83943
4257575715,22.09,0.0,0.0,0.0,0.60822,-0.15696000000000002,9.83943
4262626220,22.09,0.0,0.0,0.0,0.57879,-0.14715,9.819809999999999
4267676725,22.09,0.0,0.0,0.0,0.59841,-0.14715,9.80019
4272727230,22.09,0.0,0.0,0.0,0.5886,-0.13734000000000002,9.79038
4277777735,22.09,0.0,0.0,0.0,0.60822,-0.13734000000000002,9.81
4282828240,22.09,0.0,0.0,0.0,0.59841,-0.13734000000000002,9.82962
4287878745,22.09,0.0,0.0,0.0,0.57879,-0.13734000000000002,9.83943
4292929250,22.09,0.0,0.0,0.0,0.5886,-0.13734000000000002,9.81
4297979755,22.09,0.0,0.0,0.0,0.60822,-0.14715,9.78057
4303030260,22.09,0.0,0.0,0.0,0.5886,-0.13734000000000002,9.81
4308080765,22.09,0.0,0.0,0.0,0.56898,-0.13734000000000002,9.83943
4313131270,22.09,0.0,0.0,0.0,0.59841,-0.17658,9.84924
4318181775,22.09,0.0,0.0,0.0,0.56898,-0.16677000000000003,9.79038
4323232280,22.09,0.0,0.0,0.0,0.5886,-0.14715,9.78057
4328282785,22.09,0.0,0.0,0.0,0.5886,-0.12753,9.819809999999999
4333333290,22.09,0.0,0.0,0.0,0.5886,-0.16677000000000003,9.83943
4338383795,22.09,0.0,0.0,0.0,0.56898,-0.14715,9.80019
4343434300,22.09,0.0,0.0,0.0,0.59841,-0.15696000000000002,9.78057
4348484805,22.09,0.0,0.0,0.0,0.59841,-0.15696000000000002,9.78057
4353535310,22.09,0.0,0.0,0.0,0.5886,-0.14715,9.84924
4358585815,22.09,0.0,0.0,0.0,0.57879,-0.15696000000000002,9.83943
4363636320,22.09,0.0,0.0,0.0,0.60822,-0.14715,9.85905
4368686825,22.09,0.0,0.0,0.0,0.59841,-0.17658,9.80019
4373737330,22.09,0.0,0.0,0.0,0.60822,-0.15696000000000002,9.79038
4378787835,22.09,0.0,0.0,0.0,0.57879,-0.14715,9.80019
4383838340,22.09,0.0,0.0,0.0,0.5591700000000001,-0.12753,9.819809999999999
4388888845,22.09,0.0,0.0,0.0,0.59841,-0.14715,9.819809999999999
4393939350,22.09,0.0,0.0,0.0,0.59841,-0.12753,9.79038
4398989855,22.09,0.0,0.0,0.0,0.57879,-0.13734000000000002,9.81
4404040360,22.09,0.0,0.0,0.0,0.5886,-0.17658,9.82962
4409090865,22.09,0.0,0.0,0.0,0.56898,-0.15696000000000002,9.82962
4414141370,22.09,0.0,0.0,0.0,0.5886,-0.16677000000000003,9.81
4419191875,22.09,0.0,0.0,0.0,0.5886,-0.15696000000000002,9.78057
4424242380,22.09,0.0,0.0,0.0,0.5886,-0.15696000000000002,9.819809999999999
4429292885,22.09,0.0,0.0,0.0,0.5886,-0.15696000000000002,9.85905
4434343390,22.09,0.0,0.0,0.0,0.60822,-0.14715,9.80019
4439393895,22.09,0.0,0.0,0.0,0.60822,-0.17658,9.760950000000001
4444444400,22.09,0.0,0.0,0.0,0.59841,-0.13734000000000002,9.751140000000001
4449494905,22.09,0.0,0.0,0.0,0.5886,-0.14715,9.85905
4454545410,22.09,0.0,0.0,0.0,0.5886,-0.16677000000000003,9.85905
4459595915,22.09,0.0,0.0,0.0,0.59841,-0.11772,9.81
4464646420,22.09,0.0,0.0,0.0,0.57879,-0.15696000000000002,9.751140000000001
4469696925,22.09,0.0,0.0,0.0,0.57879,-0.15696000000000002,9.78057
4474747430,22.09,0.0,0.0,0.0,0.60822,-0.1962,9.83943
4479797935,22.09,0.0,0.0,0.0,0.59841,-0.15696000000000002,9.86886
4484848440,22.09,0.0,0.0,0.0,0.59841,-0.14715,9.84924
4489898945,22.09,0.0,0.0,0.0,0.5886,-0.16677000000000003,9.78057
4494949450,22.09,0.0,0.0,0.0,0.57879,-0.17658,9.78057
4499999955,22.09,0.0,0.0,0.0,0.60822,-0.15696000000000002,9.819809999999999
4505050460,22.09,0.0,0.0,0.0,0.59841,-0.14715,9.82962
4510100965,22.09,0.0,0.0,0.0,0.59841,-0.14715,9.81
4515151470,22.09,0.0,0.0,0.0,0.60822,-0.15696000000000002,9.760950000000001
4520201975,22.09,0.0,0.0,0.0,0.59841,-0.15696000000000002,9.760950000000001
4525252480,22.09,0.0,0.0,0.0,0.60822,-0.12753,9.81
4530302985,22.09,0.0,0.0,0.0,0.57879,-0.12753,9.84924
4535353490,22.09,0.0,0.0,0.0,0.5886,-0.17658,9.81
4540403995,22.09,0.0,0.0,0.0,0.59841,-0.14715,9.770760000000001
4545454500,22.09,0.0,0.0,0.0,0.59841,-0.13734000000000002,9.760950000000001
4550505005,22.09,0.0,0.0,0.0,0.59841,-0.15696000000000002,9.81
4555555510,22.09,0.0,0.0,0.0,0.5886,-0.16677000000000003,9.83943
4560606015,22.09,0.0,0.0,0.0,0.59841,-0.16677000000000003,9.81
4565656520,22.09,0.0,0.0,0.0,0.59841,-0.12753,9.80019
4570707025,22.09,0.0,0.0,0.0,0.5886,-0.14715,9.79038
4575757530,22.09,0.0,0.0,0.0,0.59841,-0.17658,9.81
4580808035,22.09,0.0,0.0,0.0,0.5886,-0.14715,9.81
4585858540,22.09,0.0,0.0,0.0,0.57879,-0.16677000000000003,9.80019
4590909045,22.09,0.0,0.0,0.0,0.60822,-0.14715,9.819809999999999
4595959550,22.09,0.0,0.0,0.0,0.60822,-0.15696000000000002,9.81
4601010055,22.09,0.0,0.0,0.0,0.57879,-0.13734000000000002,9.80019
4606060560,22.09,0.0,0.0,0.0,0.5886,-0.14715,9.81
4611111065,22.09,0.0,0.0,0.0,0.60822,-0.15696000000000002,9.79038
4616161570,22.09,0.0,0.0,0.0,0.57879,-0.18639,9.819809999999999
4621212075,22.09,0.0,0.0,0.0,0.59841,-0.15696000000000002,9.85905
4626262580,22.09,0.0,0.0,0.0,0.5886,-0.13734000000000002,9.81
4631313085,22.09,0.0,0.0,0.0,0.57879,-0.14715,9.80019
4636363590,22.09,0.0,0.0,0.0,0.57879,-0.13734000000000002,9.770760000000001
4641414095,22.09,0.0,0.0,0.0,0.57879,-0.14715,9.819809999999999
4646464600,22.09,0.0,0.0,0.0,0.60822,-0.16677000000000003,9.82962
4651515105,22.09,0.0,0.0,0.0,0.60822,-0.15696000000000002,9.85905
4656565610,22.09,0.0,0.0,0.0,0.5886,-0.15696000000000002,9.760950000000001
4661616115,22.09,0.0,0.0,0.0,0.59841,-0.14715,9.78057
4666666620,22.09,0.0,0.0,0.0,0.57879,-0.15696000000000002,9.81
4671717125,22.09,0.0,0.0,0.0,0.60822,-0.15696000000000002,9.86886
4676767630,22.09,0.0,0.0,0.0,0.56898,-0.14715,9.83943
4681818135,22.09,0.0,0.0,0.0,0.5591700000000001,-0.14715,9.79038
4686868640,22.09,0.0,0.0,0.0,0.5886,-0.14715,9.760950000000001
4691919145,22.09,0.0,0.0,0.0,0.5886,-0.16677000000000003,9.81
4696969650,22.09,0.0,0.0,0.0,0.56898,-0.15696000000000002,9.84924
4702020155,22.09,0.0,0.0,0.0,0.5886,-0.14715,9.86886
4707070660,22.09,0.0,0.0,0.0,0.59841,-0.16677000000000003,9.80019
4712121165,22.09,0.0,0.0,0.0,0.5493600000000001,-0.13734000000000002,9.751140000000001
4717171670,22.09,0.0,0.0,0.0,0.5886,-0.14715,9.78057
4722222175,22.09,0.0,0.0,0.0,0.59841,-0.15696000000000002,9.82962
4727272680,22.09,0.0,0.0,0.0,0.5886,-0.14715,9.83943
4732323185,22.09,0.0,0.0,0.0,0.60822,-0.14715,9.80019
4737373690,22.09,0.0,0.0,0.0,0.56898,-0.14715,9.79038
4742424195,22.09,0.0,0.0,0.0,0.59841,-0.16677000000000003,9.79038
4747474700,22.09,0.0,0.0,0.0,0.59841,-0.16677000000000003,9.83943
4752525205,22.09,0.0,0.0,0.0,0.57879,-0.14715,9.82962
4757575710,22.09,0.0,0.0,0.0,0.5886,-0.15696000000000002,9.819809999999999
4762626215,22.09,0.0,0.0,0.0,0.59841,-0.16677000000000003,9.80019
4767676720,22.09,0.0,0.0,0.0,0.59841,-0.15696000000000002,9.80019
4772727225,22.09,0.0,0.0,0.0,0.56898,-0.14715,9.819809999999999
4777777730,22.09,0.0,0.0,0.0,0.5886,-0.12753,9.79038
4782828235,22.09,0.0,0.0,0.0,0.59841,-0.16677000000000003,9.819809999999999
4787878740,22.09,0.0,0.0,0.0,0.56898,-0.15696000000000002,9.82962
4792929245,22.09,0.0,0.0,0.0,0.5886,-0.15696000000000002,9.81
4797979750,22.09,0.0,0.0,0.0,0.57879,-0.14715,9.770760000000001
4803030255,22.09,0.0,0.0,0.0,0.56898,-0.14715,9.81
4808080760,22.09,0.0,0.0,0.0,0.6180300000000001,-0.14715,9.81
4813131265,22.09,0.0,0.0,0.0,0.5886,-0.14715,9.84924
4818181770,22.09,0.0,0.0,0.0,0.5886,-0.15696000000000002,9.79038
4823232275,22.09,0.0,0.0,0.0,0.5886,-0.15696000000000002,9.760950000000001
4828282780,22.09,0.0,0.0,0.0,0.5493600000000001,-0.15696000000000002,9.78057
4833333285,22.09,0.0,0.0,0.0,0.5886,-0.15696000000000002,9.82962
4838383790,22.09,0.0,0.0,0.0,0.57879,-0.16677000000000003,9.87867
4843434295,22.09,0.0,0.0,0.0,0.60822,-0.16677000000000003,9.83943
4848484800,22.09,0.0,0.0,0.0,0.5886,-0.12753,9.770760000000001
4853535305,22.09,0.0,0.0,0.0,0.56898,-0.16677000000000003,9.72171
4858585810,22.09,0.0,0.0,0.0,0.5886,-0.16677000000000003,9.819809999999999
4863636315,22.09,0.0,0.0,0.0,0.59841,-0.13734000000000002,9.888480000000001
4868686820,22.09,0.0,0.0,0.0,0.60822,-0.12753,9.89829
4873737325,22.09,0.0,0.0,0.0,0.59841,-0.16677000000000003,9.78057
4878787830,22.09,0.0,0.0,0.0,0.5886,-0.14715,9.72171
4883838335,22.09,0.0,0.0,0.0,0.57879,-0.11772,9.760950000000001
4888888840,22.09,0.0,0.0,0.0,0.59841,-0.13734000000000002,9.87867
4893939345,22.09,0.0,0.0,0.0,0.5591700000000001,-0.13734000000000002,9.86886
4898989850,22.09,0.0,0.0,0.0,0.59841,-0.15696000000000002,9.78057
4904040355,22.09,0.0,0.0,0.0,0.56898,-0.17658,9.73152
4909090860,22.09,0.0,0.0,0.0,0.5591700000000001,-0.16677000000000003,9.760950000000001
4914141365,22.09,0.0,0.0,0.0,0.5886,-0.14715,9.83943
4919191870,22.09,0.0,0.0,0.0,0.5886,-0.15696000000000002,9.87867
4924242375,22.09,0.0,0.0,0.0,0.57879,-0.16677000000000003,9.84924
4929292880,22.09,0.0,0.0,0.0,0.60822,-0.16677000000000003,9.751140000000001
4934343385,22.09,0.0,0.0,0.0,0.57879,-0.15696000000000002,9.760950000000001
4939393890,22.09,0.0,0.0,0.0,0.5886,-0.11772,9.81
4944444395,22.09,0.0,0.0,0.0,0.60822,-0.17658,9.84924
4949494900,22.09,0.0,0.0,0.0,0.59841,-0.14715,9.85905
4954545405,22.09,0.0,0.0,0.0,0.57879,-0.17658,9.79038
4959595910,22.09,0.0,0.0,0.0,0.5886,-0.14715,9.770760000000001
4964646415,22.09,0.0,0.0,0.0,0.59841,-0.13734000000000002,9.79038
4969696920,22.09,0.0,0.0,0.0,0.60822,-0.16677000000000003,9.83943
4974747425,22.09,0.0,0.0,0.0,0.59841,-0.14715,9.84924
4979797930,22.09,0.0,0.0,0.0,0.60822,-0.17658,9.81
4984848435,22.09,0.0,0.0,0.0,0.57879,-0.15696000000000002,9.81
4989898940,22.09,0.0,0.0,0.0,0.56898,-0.15696000000000002,9.80019
4994949445,22.09,0.0,0.0,0.0,0.6180300000000001,-0.15696000000000002,9.819809999999999
4999999950,22.09,0.0,0.0,0.0,0.57879,-0.17658,9.819809999999999
5005050455,22.09,0.0,0.0,0.0,0.5886,-0.15696000000000002,9.83943
5010100960,22.09,0.0,0.0,0.0,0.60822,-0.14715,9.81
5015151465,22.09,0.0,0.0,0.0,0.59841,-0.14715,9.79038
5020201970,22.09,0.0,0.0,0.0,0.59841,-0.16677000000000003,9.78057
5025252475,22.09,0.0,0.0,0.0,0.60822,-0.15696000000000002,9.83943
5030302980,22.09,0.0,0.0,0.0,0.6180300000000001,-0.15696000000000002,9.84924
5035353485,22.09,0.0,0.0,0.0,0.6180300000000001,-0.12753,9.81
5040403990,22.09,0.0,0.0,0.0,0.60822,-0.16677000000000003,9.760950000000001
5045454495,22.09,0.0,0.0,0.0,0.5886,-0.16677000000000003,9.760950000000001
5050505000,22.09,0.0,0.0,0.0,0.56898,-0.14715,9.79038
5055555505,22.09,0.0,0.0,0.0,0.57879,-0.12753,9.86886
5060606010,22.09,0.0,0.0,0.0,0.5886,-0.15696000000000002,9.87867
5065656515,22.09,0.0,0.0,0.0,0.5886,-0.16677000000000003,9.81
5070707020,22.09,0.0,0.0,0.0,0.5886,-0.16677000000000003,9.760950000000001
5075757525,22.09,0.0,0.0,0.0,0.57879,-0.13734000000000002,9.751140000000001
5080808030,22.09,0.0,0.0,0.0,0.5886,-0.15696000000000002,9.81
5085858535,22.09,0.0,0.0,0.0,0.6180300000000001,-0.14715,9.86886
5090909040,22.09,0.0,0.0,0.0,0.5886,-0.15696000000000002,9.82962
5095959545,22.09,0.0,0.0,0.0,0.57879,-0.15696000000000002,9.760950000000001
5101010050,22.09,0.0,0.0,0.0,0.57879,-0.15696000000000002,9.751140000000001
5106060555,22.09,0.0,0.0,0.0,0.57879,-0.15696000000000002,9.80019
5111111060,22.09,0.0,0.0,0.0,0.5886,-0.15696000000000002,9.84924
5116161565,22.09,0.0,0.0,0.0,0.5886,-0.16677000000000003,9.83943
5121212070,22.09,0.0,0.0,0.0,0.5886,-0.16677000000000003,9.770760000000001
5126262575,22.09,0.0,0.0,0.0,0.59841,-0.14715,9.760950000000001
5131313080,22.09,0.0,0.0,0.0,0.60822,-0.13734000000000002,9.80019
5136363585,22.09,0.0,0.0,0.0,0.59841,-0.15696000000000002,9.819809999999999
5141414090,22.09,0.0,0.0,0.0,0.5886,-0.15696000000000002,9.83943
5146464595,22.09,0.0,0.0,0.0,0.59841,-0.13734000000000002,9.81
5151515100,22.09,0.0,0.0,0.0,0.56898,-0.15696000000000002,9.78057
5156565605,22.09,0.0,0.0,0.0,0.57879,-0.12753,9.78057
5161616110,22.09,0.0,0.0,0.0,0.57879,-0.15696000000000002,9.819809999999999
5166666615,22.09,0.0,0.0,0.0,0.5886,-0.12753,9.82962
5171717120,22.09,0.0,0.0,0.0,0.60822,-0.14715,9.82962
5176767625,22.09,0.0,0.0,0.0,0.59841,-0.14715,9.79038
5181818130,22.09,0.0,0.0,0.0,0.5886,-0.15696000000000002,9.79038
5186868635,22.09,0.0,0.0,0.0,0.59841,-0.15696000000000002,9.819809999999999
5191919140,22.09,0.0,0.0,0.0,0.59841,-0.15696000000000002,9.83943
5196969645,22.09,0.0,0.0,0.0,0.57879,-0.14715,9.83943
5202020150,22.09,0.0,0.0,0.0,0.59841,-0.12753,9.83943
5207070655,22.09,0.0,0.0,0.0,0.56898,-0.15696000000000002,9.81
5212121160,22.09,0.0,0.0,0.0,0.60822,-0.15696000000000002,9.751140000000001
5217171665,22.09,0.0,0.0,0.0,0.59841,-0.14715,9.79038
5222222170,22.09,0.0,0.0,0.0,0.5886,-0.15696000000000002,9.84924
5227272675,22.09,0.0,0.0,0.0,0.59841,-0.15696000000000002,9.83943
5232323180,22.09,0.0,0.0,0.0,0.56898,-0.15696000000000002,9.81
5237373685,22.09,0.0,0.0,0.0,0.5886,-0.17658,9.760950000000001
5242424190,22.09,0.0,0.0,0.0,0.56898,-0.16677000000000003,9.79038
5247474695,22.09,0.0,0.0,0.0,0.5886,-0.15696000000000002,9.819809999999999
5252525200,22.09,0.0,0.0,0.0,0.57879,-0.16677000000000003,9.82962
5257575705,22.09,0.0,0.0,0.0,0.57879,-0.16677000000000003,9.819809999999999
5262626210,22.09,0.0,0.0,0.0,0.60822,-0.15696000000000002,9.760950000000001
5267676715,22.09,0.0,0.0,0.0,0.57879,-0.16677000000000003,9.81
5272727220,22.09,0.0,0.0,0.0,0.59841,-0.13734000000000002,9.84924
5277777725,22.09,0.0,0.0,0.0,0.56898,-0.15696000000000002,9.84924
5282828230,22.09,0.0,0.0,0.0,0.59841,-0.15696000000000002,9.81
5287878735,22.09,0.0,0.0,0.0,0.57879,-0.1962,9.78057
5292929240,22.09,0.0,0.0,0.0,0.5886,-0.13734000000000002,9.81
5297979745,22.09,0.0,0.0,0.0,0.57879,-0.14715,9.83943
5303030250,22.09,0.0,0.0,0.0,0.5886,-0.17658,9.81
5308080755,22.09,0.0,0.0,0.0,0.5886,-0.15696000000000002,9.79038
5313131260,22.09,0.0,0.0,0.0,0.5886,-0.15696000000000002,9.78057
5318181765,22.09,0.0,0.0,0.0,0.5886,-0.12753,9.81
5323232270,22.09,0.0,0.0,0.0,0.56898,-0.14715,9.84924
5328282775,22.09,0.0,0.0,0.0,0.59841,-0.15696000000000002,9.81
5333333280,22.09,0.0,0.0,0.0,0.56898,-0.14715,9.819809999999999
5338383785,22.09,0.0,0.0,0.0,0.56898,-0.15696000000000002,9.80019
5343434290,22.09,0.0,0.0,0.0,0.60822,-0.15696000000000002,9.81
5348484795,22.09,0.0,0.0,0.0,0.56898,-0.13734000000000002,9.82962
5353535300,22.09,0.0,0.0,0.0,0.5886,-0.15696000000000002,9.819809999999999
5358585805,22.09,0.0,0.0,0.0,0.5886,-0.14715,9.80019
5363636310,22.09,0.0,0.0,0.0,0.5591700000000001,-0.16677000000000003,9.80019
5368686815,22.09,0.0,0.0,0.0,0.5886,-0.16677000000000003,9.819809999999999
5373737320,22.09,0.0,0.0,0.0,0.57879,-0.16677000000000003,9.819809999999999
5378787825,22.09,0.0,0.0,0.0,0.59841,-0.14715,9.819809999999999
5383838330,22.09,0.0,0.0,0.0,0.59841,-0.17658,9.80019
5388888835,22.09,0.0,0.0,0.0,0.5886,-0.13734000000000002,9.80019
5393939340,22.09,0.0,0.0,0.0,0.5886,-0.14715,9.819809999999999
5398989845,22.09,0.0,0.0,0.0,0.5886,-0.13734000000000002,9.83943
5404040350,22.09,0.0,0.0,0.0,0.5886,-0.11772,9.80019
5409090855,22.09,0.0,0.0,0.0,0.5886,-0.16677000000000003,9.78057
5414141360,22.09,0.0,0.0,0.0,0.60822,-0.15696000000000002,9.819809999999999
5419191865,22.09,0.0,0.0,0.0,0.60822,-0.15696000000000002,9.819809999999999
5424242370,22.09,0.0,0.0,0.0,0.59841,-0.17658,9.83943
5429292875,22.09,0.0,0.0,0.0,0.5886,-0.16677000000000003,9.79038
5434343380,22.09,0.0,0.0,0.0,0.5886,-0.16677000000000003,9.751140000000001
5439393885,22.09,0.0,0.0,0.0,0.56898,-0.17658,9.80019
5444444390,22.09,0.0,0.0,0.0,0.60822,-0.14715,9.82962
5449494895,22.09,0.0,0.0,0.0,0.57879,-0.15696000000000002,9.819809999999999
5454545400,22.09,0.0,0.0,0.0,0.5886,-0.15696000000000002,9.751140000000001
5459595905,22.09,0.0,0.0,0.0,0.57879,-0.14715,9.770760000000001
5464646410,22.09,0.0,0.0,0.0,0.5886,-0.15696000000000002,9.819809999999999
5469696915,22.09,0.0,0.0,0.0,0.57879,-0.15696000000000002,9.85905
5474747420,22.09,0.0,0.0,0.0,0.5886,-0.17658,9.83943
5479797925,22.09,0.0,0.0,0.0,0.5886,-0.15696000000000002,9.760950000000001
5484848430,22.09,0.0,0.0,0.0,0.5886,-0.12753,9.760950000000001
5489898935,22.09,0.0,0.0,0.0,0.5886,-0.15696000000000002,9.81
5494949440,22.09,0.0,0.0,0.0,0.60822,-0.14715,9.84924
5499999945,22.09,0.0,0.0,0.0,0.57879,-0.14715,9.819809999999999
5505050450,22.09,0.0,0.0,0.0,0.56898,-0.13734000000000002,9.78057
5510100955,22.09,0.0,0.0,0.0,0.5886,-0.15696000000000002,9.78057
5515151460,22.09,0.0,0.0,0.0,0.5886,-0.14715,9.81
5520201965,22.09,0.0,0.0,0.0,0.59841,-0.13734000000000002,9.82962
5525252470,22.09,0.0,0.0,0.0,0.5886,-0.15696000000000002,9.81
5530302975,22.09,0.0,0.0,0.0,0.5886,-0.16677000000000003,9.81
5535353480,22.09,0.0,0.0,0.0,0.59841,-0.15696000000000002,9.81
5540403985,22.09,0.0,0.0,0.0,0.5886,-0.17658,9.81
5545454490,22.09,0.0,0.0,0.0,0.5886,-0.16677000000000003,9.81
5550504995,22.09,0.0,0.0,0.0,0.5886,-0.15696000000000002,9.81
5555555500,22.09,0.0,0.0,0.0,0.5886,-0.16677000000000003,9.82962
5560606005,22.09,0.0,0.0,0.0,0.57879,-0.14715,9.81
5565656510,22.09,0.0,0.0,0.0,0.60822,-0.14715,9.819809999999999
5570707015,22.09,0.0,0.0,0.0,0.59841,-0.13734000000000002,9.79038
5575757520,22.09,0.0,0.0,0.0,0.57879,-0.15696000000000002,9.80019
5580808025,22.09,0.0,0.0,0.0,0.56898,-0.18639,9.80019
5585858530,22.09,0.0,0.0,0.0,0.59841,-0.14715,9.82962
5590909035,22.09,0.0,0.0,0.0,0.5886,-0.15696000000000002,9.83943
5595959540,22.09,0.0,0.0,0.0,0.5886,-0.15696000000000002,9.79038
5601010045,22.09,0.0,0.0,0.0,0.57879,-0.16677000000000003,9.80019
5606060550,22.09,0.0,0.0,0.0,0.5886,-0.14715,9.81
5611111055,22.09,0.0,0.0,0.0,0.56898,-0.14715,9.84924
5616161560,22.09,0.0,0.0,0.0,0.5886,-0.16677000000000003,9.80019
5621212065,22.09,0.0,0.0,0.0,0.5886,-0.12753,9.78057
5626262570,22.09,0.0,0.0,0.0,0.57879,-0.17658,9.80019
5631313075,22.09,0.0,0.0,0.0,0.60822,-0.13734000000000002,9.81
5636363580,22.09,0.0,0.0,0.0,0.57879,-0.13734000000000002,9.84924
5641414085,22.09,0.0,0.0,0.0,0.60822,-0.14715,9.83943
5646464590,22.09,0.0,0.0,0.0,0.57879,-0.14715,9.79038
5651515095,22.09,0.0,0.0,0.0,0.57879,-0.13734000000000002,9.73152
5656565600,22.09,0.0,0.0,0.0,0.57879,-0.14715,9.81
5661616105,22.09,0.0,0.0,0.0,0.59841,-0.16677000000000003,9.84924
5666666610,22.09,0.0,0.0,0.0,0.5886,-0.14715,9.85905
5671717115,22.09,0.0,0.0,0.0,0.57879,-0.16677000000000003,9.79038
5676767620,22.09,0.0,0.0,0.0,0.56898,-0.14715,9.80019
5681818125,22.09,0.0,0.0,0.0,0.56898,-0.16677000000000003,9.80019
5686868630,22.09,0.0,0.0,0.0,0.5886,-0.14715,9.79038
5691919135,22.09,0.0,0.0,0.0,0.57879,-0.13734000000000002,9.82962
5696969640,22.09,0.0,0.0,0.0,0.60822,-0.14715,9.83943
5702020145,22.09,0.0,0.0,0.0,0.5886,-0.16677000000000003,9.82962
5707070650,22.09,0.0,0.0,0.0,0.5886,-0.15696000000000002,9.81
5712121155,22.09,0.0,0.0,0.0,0.59841,-0.14715,9.80019
5717171660,22.09,0.0,0.0,0.0,0.59841,-0.15696000000000002,9.82962
5722222165,22.09,0.0,0.0,0.0,0.57879,-0.14715,9.819809999999999
5727272670,22.09,0.0,0.0,0.0,0.57879,-0.15696000000000002,9.81
5732323175,22.09,0.0,0.0,0.0,0.59841,-0.13734000000000002,9.82962
5737373680,22.09,0.0,0.0,0.0,0.6180300000000001,-0.13734000000000002,9.78057
5742424185,22.09,0.0,0.0,0.0,0.59841,-0.13734000000000002,9.78057
5747474690,22.09,0.0,0.01918116847941768,0.0,0.64746,-0.13734000000000002,9.74133
5752525195,22.09,0.0,0.0756251164889143,0.0,0.5395500000000001,-0.14715,9.78057
5757575700,22.09,-0.001064650843716541,0.10866419922916695,0.0,0.47088,-0.10791,10.01601
5762626205,22.09,0.008517206749732328,0.1704488547497662,0.00958185759344887,0.37278,-0.019620000000000002,9.623610000000001
5767676710,22.09,-0.004258603374866164,0.12569861272863161,0.0,0.20601000000000003,-0.019620000000000002,9.39798
5772727215,22.09,-0.00958185759344887,0.13102186694721432,0.007452555906015787,0.04905,-0.009810000000000001,9.94734
5777777720,22.09,-0.01811651763570114,0.07136651311404815,0.001064650843716541,-0.06867000000000001,-0.07848000000000001,10.22202
5782828225,22.09,-0.024504422698000388,0.00958185759344887,0.006387905062299246,0.0981,-0.14715,10.05525
5787878730,22.09,-0.03515093113516579,-0.07030186227033158,-0.006387905062299246,0.0981,-0.21582,9.937529999999999
5792929235,22.09,-0.03834488366631542,-0.1832246648743647,-0.014905111812031574,0.31392000000000003,-0.42183,9.46665
5797979740,22.09,-0.0170518667919846,-0.20985838925979816,-0.005323254218582705,0.46107000000000004,-0.38259000000000004,9.623610000000001
5803030245,22.09,-0.008517206749732328,-0.27270769562411395,-0.011711159280881954,0.65727,-0.48069000000000006,10.13373
5808080750,22.09,0.01811651763570114,-0.23755676448894822,-0.003193952531149623,0.9123300000000001,-0.47088,10.15335
5813131255,22.09,0.028763026072866547,-0.18961256993666398,-0.00958185759344887,0.9908100000000001,-0.45126,9.98658
5818181760,22.09,0.05220279792715039,-0.11505210429146619,-0.002129301687433082,1.08891,-0.32373,9.37836
5823232265,22.09,0.07456046564519776,-0.04581489286485115,0.0,1.03986,-0.13734000000000002,9.32931
5828282770,22.09,0.08415977653116657,-0.014905111812031574,0.002129301687433082,1.1183400000000001,-0.019620000000000002,9.6138
5833333275,22.09,0.08096582400001695,0.020245819323134222,0.004258603374866164,1.03986,0.21582,9.99639
5838383780,22.09,0.05859070298944965,-0.005323254218582705,0.0,0.9810000000000001,0.20601000000000003,10.045440000000001
5843434285,22.09,0.0404741853537485,-0.002129301687433082,0.001064650843716541,0.9613800000000001,0.21582,10.15335
5848484790,22.09,0.011711159280881954,0.003193952531149623,-0.005323254218582705,0.8829,0.15696000000000002,9.65304
5853535295,22.09,-0.013840460968315033,0.021310470166850764,0.001064650843716541,0.9123300000000001,0.12753,9.59418
5858585800,22.09,-0.020245819323134222,0.06710790973918197,0.001064650843716541,0.7848,0.10791,9.45684
5863636305,22.09,-0.04581489286485115,0.07243116395776468,0.0,0.80442,0.019620000000000002,9.7119
5868686810,22.09,-0.05113814708343386,0.1278279144160647,0.007452555906015787,0.7749900000000001,-0.009810000000000001,9.91791
5873737315,22.09,-0.06710790973918197,0.1416858286768997,0.0,0.63765,-0.0981,10.045440000000001
5878787820,22.09,-0.06710790973918197,0.17364280728091586,0.007452555906015787,0.60822,-0.22563,9.98658
5883838325,22.09,-0.06817256058289851,0.17896606149949854,0.006387905062299246,0.38259000000000004,-0.28449,9.66285
5888888830,22.09,-0.07030186227033158,0.1672549022186166,0.002129301687433082,0.34335000000000004,-0.36297,9.50589
5893939335,22.09,-0.05113814708343386,0.15339698795778162,0.001064650843716541,0.20601000000000003,-0.37278,9.751140000000001
5898989840,22.09,-0.03515093113516579,0.13102186694721432,0.002129301687433082,0.18639,-0.44145,10.09449
5904040345,22.09,-0.024504422698000388,0.10225884087434776,0.003193952531149623,0.0981,-0.44145,10.25145
5909090850,22.09,-0.012775810124598492,0.06497860805174888,0.0,0.02943,-0.37278,9.73152
5914141355,22.09,0.0,0.01064650843716541,0.001064650843716541,0.019620000000000002,-0.38259000000000004,9.60399
5919191860,22.09,0.021310470166850764,-0.03515093113516579,0.001064650843716541,0.039240000000000004,-0.28449,9.56475
5924242365,22.09,0.03408628029144926,-0.08415977653116657,-0.004258603374866164,0.14715,-0.22563,10.08468
5929292870,22.09,0.03834488366631542,-0.12676326357234816,-0.003193952531149623,0.25506,-0.20601000000000003,10.045440000000001
5934343375,22.09,0.044732788728614664,-0.14913838458291545,-0.006387905062299246,0.32373,-0.15696000000000002,9.83943
5939393880,22.16,0.04153883619746504,-0.16617279808238014,-0.008517206749732328,0.42183,-0.14715,9.751140000000001
5944444385,22.16,0.04581489286485115,-0.16831955306233315,-0.003193952531149623,0.5591700000000001,-0.11772,9.55494
5949494890,22.16,0.04260348704118158,-0.16510814723866357,-0.001064650843716541,0.65727,-0.07848000000000001,9.85905
5954545395,22.16,0.03621558197888234,-0.150203035426632,-0.003193952531149623,0.79461,-0.07848000000000001,9.87867
5959595900,22.16,0.033021629447732716,-0.1331511686346474,-0.004258603374866164,0.87309,-0.05886,9.86886
5964646405,22.16,0.03089232776029963,-0.10759954838545042,-0.004258603374866164,0.90252,-0.05886,9.760950000000001
5969696910,22.16,0.02663372438543347,-0.07990117315630041,-0.002129301687433082,0.9319500000000001,-0.02943,9.64323
5974747415,22.16,0.013840460968315033,-0.05007349623971732,0.0,1.00062,-0.039240000000000004,9.760950000000001
5979797920,22.16,0.007452555906015787,-0.008517206749732328,0.0,1.02024,-0.019620000000000002,9.751140000000001
5984848425,22.16,-0.006387905062299246,0.02982767691658309,0.0,0.9908100000000001,-0.009810000000000001,9.73152
5989898930,22.16,-0.005323254218582705,0.06817256058289851,0.002129301687433082,0.90252,-0.02943,9.751140000000001
5994949435,22.16,-0.014905111812031574,0.09267698328089889,0.0,0.8142300000000001,-0.019620000000000002,9.819809999999999
5999999940,22.16,-0.021310470166850764,0.10332349171806432,0.003193952531149623,0.7749900000000001,-0.039240000000000004,9.92772
6005050445,22.16,-0.02663372438543347,0.10332349171806432,0.004258603374866164,0.65727,-0.06867000000000001,9.78057
6010100950,22.16,-0.039409534510031964,0.08841837990603273,0.0,0.59841,-0.16677000000000003,9.79038
6015151455,22.16,-0.0404741853537485,0.07243116395776468,0.0,0.56898,-0.20601000000000003,9.70209
6020201960,22.16,-0.04153883619746504,0.05752605214573309,0.0,0.5493600000000001,-0.26487,9.85905
6025252465,22.16,-0.03515093113516579,0.0404741853537485,0.001064650843716541,0.5395500000000001,-0.2943,9.937529999999999
6030302970,22.16,-0.021310470166850764,0.03728023282259888,0.0,0.51012,-0.33354000000000006,9.81
6035353475,22.16,-0.014905111812031574,0.023439771854283843,-0.001064650843716541,0.50031,-0.31392000000000003,9.74133
6040403980,22.16,-0.001064650843716541,0.01918116847941768,0.0,0.51012,-0.30411,9.67266
6045454485,22.16,0.006387905062299246,0.020245819323134222,-0.002129301687433082,0.51012,-0.22563,9.92772
6050504990,22.16,0.013840460968315033,0.013840460968315033,0.001064650843716541,0.47088,-0.20601000000000003,9.95715
6055555495,22.16,0.020245819323134222,0.013840460968315033,0.0,0.43164,-0.20601000000000003,9.84924
6060606000,22.16,0.022375121010567305,0.013840460968315033,-0.002129301687433082,0.44145,-0.13734000000000002,9.64323
6065656505,22.16,0.02556907354171693,0.013840460968315033,0.001064650843716541,0.43164,-0.05886,9.6138
6070707010,22.16,0.022375121010567305,0.024504422698000388,0.001064650843716541,0.43164,-0.02943,9.908100000000001
6075757515,22.16,0.015987215948268057,0.024504422698000388,0.001064650843716541,0.40221,-0.019620000000000002,10.006200000000002
6080808020,22.16,0.002129301687433082,0.023439771854283843,0.002129301687433082,0.36297,0.0,9.86886
6085858525,22.16,-0.00958185759344887,0.00958185759344887,0.0,0.35316,-0.02943,9.72171
6090909030,22.16,-0.011711159280881954,-0.003193952531149623,-0.001064650843716541,0.3924,-0.0981,9.72171
6095959535,22.16,-0.014905111812031574,-0.020245819323134222,0.0,0.37278,-0.14715,9.81
6101010040,22.16,-0.015987215948268057,-0.04153883619746504,-0.004258603374866164,0.45126,-0.18639,9.908100000000001
6106060545,22.16,-0.01811651763570114,-0.05539675045830002,-0.003193952531149623,0.48069000000000006,-0.23544,9.82962
6111111050,22.16,-0.014905111812031574,-0.06817256058289851,-0.003193952531149623,0.5395500000000001,-0.28449,9.80019
6116161555,22.16,-0.00958185759344887,-0.07990117315630041,-0.004258603374866164,0.60822,-0.32373,9.81
6121212060,22.16,0.0,-0.07883652231258387,0.002129301687433082,0.6670800000000001,-0.32373,9.87867
6126262565,22.16,0.006387905062299246,-0.07777187146886733,-0.001064650843716541,0.71613,-0.30411,9.908100000000001
6131313070,22.16,0.020245819323134222,-0.07670722062515077,-0.002129301687433082,0.7651800000000001,-0.2943,9.79038
6136363575,22.16,0.03089232776029963,-0.06178465552059926,-0.002129301687433082,0.8142300000000001,-0.20601000000000003,9.65304
6141414080,22.16,0.03408628029144926,-0.05113814708343386,-0.002129301687433082,0.84366,-0.18639,9.751140000000001
6146464585,22.16,0.03621558197888234,-0.031956978604016174,-0.002129301687433082,0.84366,-0.07848000000000001,9.908100000000001
6151515090,22.16,0.031956978604016174,-0.011711159280881954,0.0,0.8338500000000001,-0.02943,9.91791
6156565595,22.16,0.02663372438543347,0.007452555906015787,-0.001064650843716541,0.8240400000000001,-0.009810000000000001,9.751140000000001
6161616100,22.16,0.02556907354171693,0.02982767691658309,-0.001064650843716541,0.7749900000000001,0.039240000000000004,9.633420000000001
6166666605,22.16,0.01811651763570114,0.05220279792715039,0.001064650843716541,0.73575,0.10791,9.7119
6171717110,22.16,0.0,0.07030186227033158,0.001064650843716541,0.65727,0.08829,9.85905
6176767615,22.16,-0.013840460968315033,0.08309512568745003,0.003193952531149623,0.6180300000000001,0.04905,9.84924
6181818120,22.16,-0.03089232776029963,0.08309512568745003,0.0,0.56898,0.0,9.770760000000001
6186868625,22.16,-0.04260348704118158,0.07243116395776468,0.002129301687433082,0.49050000000000005,-0.07848000000000001,9.69228
6191919130,22.16,-0.04581489286485115,0.05646140130201656,0.002129301687433082,0.47088,-0.15696000000000002,9.80019
6196969635,22.16,-0.046879543708567686,0.03728023282259888,-0.001064650843716541,0.46107000000000004,-0.23544,9.91791
6202020140,22.16,-0.044732788728614664,0.01918116847941768,0.001064650843716541,0.47088,-0.31392000000000003,9.96696
6207070645,22.16,-0.03621558197888234,-0.0,-0.003193952531149623,0.47088,-0.37278,9.819809999999999
6212121150,22.16,-0.02663372438543347,-0.01811651763570114,0.0,0.47088,-0.42183,9.72171
6217171655,22.16,-0.013840460968315033,-0.021310470166850764,-0.002129301687433082,0.52974,-0.41202000000000005,9.81
6222222160,22.16,0.002129301687433082,-0.024504422698000388,0.0,0.5493600000000001,-0.36297,9.908100000000001
6227272665,22.16,0.01811651763570114,-0.01918116847941768,0.0,0.5886,-0.31392000000000003,9.84924
6232323170,22.16,0.03408628029144926,-0.013840460968315033,-0.003193952531149623,0.5591700000000001,-0.22563,9.73152
6237373675,22.16,0.039409534510031964,-0.006387905062299246,0.0,0.56898,-0.14715,9.72171
6242424180,22.16,0.04260348704118158,0.003193952531149623,0.002129301687433082,0.5395500000000001,-0.05886,9.85905
6247474685,22.16,0.03728023282259888,0.011711159280881954,0.0,0.5395500000000001,0.0,9.937529999999999
6252525190,22.16,0.02982767691658309,0.023439771854283843,0.001064650843716541,0.47088,0.039240000000000004,9.87867
6257575695,22.16,0.01811651763570114,0.02769837522915001,0.0,0.45126,0.039240000000000004,9.68247
6262626200,22.16,0.01064650843716541,0.02556907354171693,0.002129301687433082,0.42183,0.04905,9.623610000000001
6267676705,22.16,0.001064650843716541,0.01811651763570114,0.001064650843716541,0.42183,0.039240000000000004,9.73152
6272727210,22.16,-0.013840460968315033,0.007452555906015787,-0.001064650843716541,0.43164,-0.02943,9.91791
6277777715,22.16,-0.02663372438543347,-0.006387905062299246,0.0,0.44145,-0.11772,9.96696
6282828220,22.16,-0.03408628029144926,-0.020245819323134222,-0.001064650843716541,0.47088,-0.1962,9.80019
6287878725,22.16,-0.031956978604016174,-0.04153883619746504,-0.002129301687433082,0.48069000000000006,-0.27468000000000004,9.73152
6292929230,22.16,-0.028763026072866547,-0.05646140130201656,-0.003193952531149623,0.5591700000000001,-0.34335000000000004,9.72171
6297979735,22.16,-0.020245819323134222,-0.06604325889546543,-0.001064650843716541,0.63765,-0.38259000000000004,9.819809999999999
6303030240,22.16,-0.007452555906015787,-0.07349581480148122,-0.002129301687433082,0.6768900000000001,-0.36297,9.888480000000001
6308080745,22.16,0.002129301687433082,-0.06604325889546543,-0.004258603374866164,0.73575,-0.35316,9.83943
6313131250,22.16,0.015987215948268057,-0.05326744877086694,0.0,0.7651800000000001,-0.31392000000000003,9.770760000000001
6318181755,22.16,0.02663372438543347,-0.04366813788489812,0.0,0.80442,-0.23544,9.78057
6323232260,22.16,0.033021629447732716,-0.02556907354171693,-0.002129301687433082,0.8142300000000001,-0.16677000000000003,9.82962
6328282765,22.16,0.039409534510031964,-0.003193952531149623,0.0,0.80442,-0.07848000000000001,9.83943
6333333270,22.16,0.04153883619746504,0.01811651763570114,0.0,0.7848,-0.039240000000000004,9.760950000000001
6338383775,22.16,0.03728023282259888,0.0404741853537485,0.001064650843716541,0.72594,0.0,9.70209
6343434280,22.16,0.023439771854283843,0.05220279792715039,0.001064650843716541,0.6768900000000001,0.07848000000000001,9.751140000000001
6348484785,22.16,0.005323254218582705,0.06497860805174888,0.001064650843716541,0.6180300000000001,0.08829,9.82962
6353535290,22.16,-0.008517206749732328,0.06923721142661506,0.001064650843716541,0.56898,0.07848000000000001,9.87867
6358585795,22.16,-0.01811651763570114,0.05965535383316618,0.001064650843716541,0.49050000000000005,0.02943,9.82962
6363636300,22.16,-0.02982767691658309,0.04794419455228423,0.0,0.45126,-0.04905,9.78057
6368686805,22.16,-0.0404741853537485,0.01918116847941768,0.0,0.47088,-0.12753,9.80019
6373737310,22.16,-0.04794419455228423,0.002129301687433082,-0.005323254218582705,0.49050000000000005,-0.20601000000000003,9.81
6378787815,22.16,-0.04260348704118158,-0.01064650843716541,-0.002129301687433082,0.52974,-0.34335000000000004,9.87867
6383838320,22.16,-0.03834488366631542,-0.021310470166850764,-0.001064650843716541,0.5591700000000001,-0.37278,9.81
6388888825,22.16,-0.02663372438543347,-0.022375121010567305,0.0,0.56898,-0.40221,9.79038
6393939330,22.16,-0.008517206749732328,-0.02769837522915001,0.0,0.6180300000000001,-0.3924,9.81
6398989835,22.16,0.006387905062299246,-0.01811651763570114,-0.002129301687433082,0.64746,-0.32373,9.82962
6404040340,22.16,0.02556907354171693,-0.008517206749732328,-0.001064650843716541,0.60822,-0.26487,9.85905
6409090845,22.16,0.031956978604016174,0.01064650843716541,0.0,0.6278400000000001,-0.1962,9.81
6414141350,22.16,0.03621558197888234,0.028763026072866547,0.0,0.5886,-0.12753,9.78057
6419191855,22.16,0.03515093113516579,0.044732788728614664,0.002129301687433082,0.5493600000000001,0.0,9.760950000000001
6424242360,22.16,0.02982767691658309,0.05539675045830002,0.001064650843716541,0.45126,0.019620000000000002,9.770760000000001
6429292865,22.16,0.021310470166850764,0.05752605214573309,0.004258603374866164,0.41202000000000005,0.05886,9.81
6434343370,22.16,0.01064650843716541,0.05220279792715039,0.004258603374866164,0.36297,0.05886,9.819809999999999
6439393875,22.16,0.0,0.033021629447732716,0.003193952531149623,0.36297,0.02943,9.86886
6444444380,22.16,-0.014905111812031574,0.008517206749732328,-0.002129301687433082,0.31392000000000003,-0.019620000000000002,9.86886
6449494885,22.16,-0.03089232776029963,-0.0170518667919846,-0.002129301687433082,0.38259000000000004,-0.11772,9.83943
6454545390,22.16,-0.03621558197888234,-0.04794419455228423,-0.004258603374866164,0.43164,-0.1962,9.760950000000001
6459595895,22.16,-0.03834488366631542,-0.07136651311404815,-0.003193952531149623,0.46107000000000004,-0.2943,9.79038
6464646400,22.16,-0.028763026072866547,-0.09587093581204853,-0.003193952531149623,0.5493600000000001,-0.36297,9.83943
6469696905,22.16,-0.014905111812031574,-0.10225884087434776,-0.003193952531149623,0.6768900000000001,-0.41202000000000005,9.89829
6474747410,22.16,-0.005323254218582705,-0.10225884087434776,-0.003193952531149623,0.75537,-0.40221,9.87867
6479797915,22.16,0.01064650843716541,-0.09161233243718235,-0.003193952531149623,0.80442,-0.37278,9.79038
6484848420,22.16,0.023439771854283843,-0.07349581480148122,-0.001064650843716541,0.84366,-0.31392000000000003,9.73152
6489898925,22.16,0.03515093113516579,-0.05007349623971732,-0.002129301687433082,0.87309,-0.23544,9.751140000000001
6494949430,22.16,0.04581489286485115,-0.02556907354171693,0.0,0.90252,-0.12753,9.82962
6499999935,22.16,0.05007349623971732,0.007452555906015787,-0.002129301687433082,0.87309,-0.04905,9.85905
6505050440,22.16,0.04581489286485115,0.03834488366631542,0.0,0.8142300000000001,0.019620000000000002,9.760950000000001
6510100945,22.16,0.0404741853537485,0.06604325889546543,0.002129301687433082,0.71613,0.08829,9.64323
6515151450,22.16,0.02769837522915001,0.08735372906231618,0.004258603374866164,0.65727,0.13734000000000002,9.69228
6520201955,22.16,0.005323254218582705,0.09693558665576507,0.002129301687433082,0.60822,0.15696000000000002,9.888480000000001
6525252460,22.16,-0.014905111812031574,0.09480628496833199,0.001064650843716541,0.51993,0.11772,9.91791
6530302965,22.16,-0.03408628029144926,0.0756251164889143,0.001064650843716541,0.46107000000000004,0.019620000000000002,9.82962
6535353470,22.16,-0.046879543708567686,0.054332099614583476,0.001064650843716541,0.43164,-0.02943,9.68247
6540403975,22.16,-0.05326744877086694,0.031956978604016174,-0.001064650843716541,0.41202000000000005,-0.18639,9.72171
6545454480,22.16,-0.05752605214573309,0.012775810124598492,-0.001064650843716541,0.45126,-0.26487,9.83943
6550504985,22.16,-0.05326744877086694,-0.0,-0.001064650843716541,0.45126,-0.37278,9.92772
6555555490,22.16,-0.04794419455228423,-0.012775810124598492,-0.002129301687433082,0.51012,-0.44145,9.91791
6560605995,22.16,-0.02982767691658309,-0.015987215948268057,-0.003193952531149623,0.50031,-0.43164,9.760950000000001
6565656500,22.16,-0.01064650843716541,-0.015987215948268057,0.0,0.51993,-0.43164,9.73152
6570707005,22.16,0.014905111812031574,-0.012775810124598492,0.0,0.5493600000000001,-0.40221,9.84924
6575757510,22.16,0.02663372438543347,-0.01064650843716541,-0.002129301687433082,0.5493600000000001,-0.31392000000000003,9.888480000000001
6580808015,22.16,0.03728023282259888,0.0,-0.002129301687433082,0.5493600000000001,-0.21582,9.81
6585858520,22.16,0.04153883619746504,0.01064650843716541,-0.001064650843716541,0.52974,-0.13734000000000002,9.72171
6590909025,22.16,0.04260348704118158,0.022375121010567305,0.0,0.48069000000000006,-0.019620000000000002,9.751140000000001
6595959530,22.16,0.04153883619746504,0.023439771854283843,0.002129301687433082,0.45126,0.02943,9.819809999999999
6601010035,22.16,0.02982767691658309,0.013840460968315033,0.004258603374866164,0.44145,0.05886,9.91791
6606060540,22.16,0.014905111812031574,0.003193952531149623,0.0,0.40221,0.06867000000000001,9.84924
6611111045,22.16,0.003193952531149623,-0.015987215948268057,0.0,0.41202000000000005,0.02943,9.78057
6616161550,22.16,-0.006387905062299246,-0.039409534510031964,-0.001064650843716541,0.44145,-0.019620000000000002,9.770760000000001
6621212055,22.16,-0.020245819323134222,-0.06391395720803235,-0.003193952531149623,0.52974,-0.11772,9.83943
6626262560,22.16,-0.03089232776029963,-0.08628907821859966,-0.004258603374866164,0.57879,-0.20601000000000003,9.87867
6631313065,22.16,-0.03089232776029963,-0.10332349171806432,-0.005323254218582705,0.6768900000000001,-0.26487,9.819809999999999
6636363570,22.16,-0.022375121010567305,-0.10332349171806432,-0.005323254218582705,0.75537,-0.31392000000000003,9.80019
6641414075,22.16,-0.007452555906015787,-0.08841837990603273,-0.003193952531149623,0.84366,-0.36297,9.81
6646464580,22.16,0.002129301687433082,-0.07136651311404815,0.0,0.9123300000000001,-0.34335000000000004,9.819809999999999
6651515085,22.16,0.011711159280881954,-0.04260348704118158,-0.002129301687433082,0.95157,-0.30411,9.79038
6656565590,22.16,0.021310470166850764,-0.00958185759344887,-0.002129301687433082,0.9319500000000001,-0.23544,9.751140000000001
6661616095,22.16,0.028763026072866547,0.03089232776029963,-0.001064650843716541,0.8829,-0.15696000000000002,9.760950000000001
6666666600,22.16,0.03728023282259888,0.06710790973918197,0.002129301687433082,0.8142300000000001,-0.05886,9.73152
6671717105,22.16,0.03408628029144926,0.09800023749948161,0.004258603374866164,0.74556,0.02943,9.78057
6676767610,22.16,0.02663372438543347,0.11505210429146619,0.001064650843716541,0.63765,0.08829,9.82962
6681818115,22.16,0.011711159280881954,0.13102186694721432,0.005323254218582705,0.52974,0.10791,9.79038
6686868620,22.16,-0.003193952531149623,0.13421581947836395,0.003193952531149623,0.43164,0.11772,9.81
6691919125,22.16,-0.022375121010567305,0.11824605682261582,0.004258603374866164,0.32373,0.07848000000000001,9.83943
6696969630,22.16,-0.03834488366631542,0.09800023749948161,0.002129301687433082,0.27468000000000004,-0.019620000000000002,9.83943
6702020135,22.16,-0.05007349623971732,0.05752605214573309,0.0,0.25506,-0.13734000000000002,9.770760000000001
6707070640,22.16,-0.054332099614583476,0.0170518667919846,-0.001064650843716541,0.23544,-0.23544,9.72171
6712121145,22.16,-0.05326744877086694,-0.022375121010567305,-0.001064650843716541,0.2943,-0.31392000000000003,9.819809999999999
6717171650,22.16,-0.046879543708567686,-0.054332099614583476,-0.002129301687433082,0.36297,-0.3924,9.91791
6722222155,22.16,-0.03515093113516579,-0.07349581480148122,-0.002129301687433082,0.43164,-0.47088,9.91791
6727272660,22.16,-0.0170518667919846,-0.08948303074974927,-0.003193952531149623,0.49050000000000005,-0.50031,9.80019
6732323165,22.16,0.004258603374866164,-0.09800023749948161,-0.004258603374866164,0.57879,-0.47088,9.78057
6737373670,22.16,0.021310470166850764,-0.09587093581204853,-0.002129301687433082,0.69651,-0.41202000000000005,9.81
6742424175,22.16,0.04366813788489812,-0.08628907821859966,0.0,0.72594,-0.32373,9.83943
6747474680,22.16,0.05326744877086694,-0.07349581480148122,-0.001064650843716541,0.7848,-0.22563,9.85905
6752525185,22.16,0.06391395720803235,-0.049008845396000776,-0.004258603374866164,0.7848,-0.11772,9.80019
6757575690,22.16,0.06178465552059926,-0.02663372438543347,0.0,0.7749900000000001,-0.009810000000000001,9.73152
6762626195,22.16,0.054332099614583476,0.007452555906015787,0.0,0.74556,0.05886,9.72171
6767676700,22.16,0.046879543708567686,0.02982767691658309,0.001064650843716541,0.71613,0.13734000000000002,9.819809999999999
6772727205,22.16,0.028763026072866547,0.05220279792715039,0.003193952531149623,0.6768900000000001,0.20601000000000003,9.84924
6777777710,22.16,0.007452555906015787,0.06178465552059926,0.002129301687433082,0.57879,0.16677000000000003,9.73152
6782828215,22.16,-0.015987215948268057,0.06391395720803235,0.0,0.51993,0.12753,9.67266
6787878720,22.16,-0.028763026072866547,0.05113814708343386,0.0,0.50031,0.06867000000000001,9.74133
6792929225,22.16,-0.04581489286485115,0.04581489286485115,0.0,0.47088,-0.019620000000000002,9.84924
6797979730,22.16,-0.05859070298944965,0.02556907354171693,-0.002129301687433082,0.47088,-0.16677000000000003,9.937529999999999
6803030235,22.16,-0.060720004676882725,0.008517206749732328,0.0,0.50031,-0.2943,9.83943
6808080740,22.16,-0.05646140130201656,-0.007452555906015787,-0.002129301687433082,0.51993,-0.36297,9.70209
6813131245,22.16,-0.04581489286485115,-0.020245819323134222,-0.001064650843716541,0.51993,-0.43164,9.770760000000001
6818181750,22.16,-0.028763026072866547,-0.02663372438543347,0.001064650843716541,0.57879,-0.44145,9.85905
6823232255,22.16,-0.011711159280881954,-0.031956978604016174,-0.002129301687433082,0.6180300000000001,-0.46107000000000004,9.91791
6828282760,22.16,0.007452555906015787,-0.03089232776029963,-0.002129301687433082,0.6670800000000001,-0.41202000000000005,9.82962
6833333265,22.16,0.02663372438543347,-0.028763026072866547,-0.002129301687433082,0.65727,-0.34335000000000004,9.72171
6838383770,22.16,0.039409534510031964,-0.02769837522915001,0.0,0.6670800000000001,-0.24525000000000002,9.72171
6843434275,22.16,0.04794419455228423,-0.01811651763570114,0.0,0.69651,-0.16677000000000003,9.87867
6848484780,22.16,0.05113814708343386,0.0,-0.001064650843716541,0.6768900000000001,-0.04905,9.91791
6853535285,22.16,0.04794419455228423,0.014905111812031574,0.001064650843716541,0.6278400000000001,0.019620000000000002,9.82962
6858585790,22.16,0.0404741853537485,0.024504422698000388,0.003193952531149623,0.57879,0.06867000000000001,9.64323
6863636295,22.16,0.024504422698000388,0.03089232776029963,0.002129301687433082,0.5493600000000001,0.10791,9.72171
6868686800,22.16,0.006387905062299246,0.031956978604016174,0.002129301687433082,0.5395500000000001,0.07848000000000001,9.85905
6873737305,22.16,-0.006387905062299246,0.023439771854283843,0.002129301687433082,0.51993,0.05886,9.908100000000001
6878787810,22.16,-0.01918116847941768,0.013840460968315033,0.0,0.51993,0.0,9.80019
6883838315,22.16,-0.031956978604016174,-0.001064650843716541,-0.002129301687433082,0.49050000000000005,-0.06867000000000001,9.73152
6888888820,22.16,-0.04260348704118158,-0.006387905062299246,0.0,0.51012,-0.16677000000000003,9.770760000000001
6893939325,22.16,-0.04366813788489812,-0.014905111812031574,-0.001064650843716541,0.5591700000000001,-0.26487,9.83943
6898989830,22.16,-0.03728023282259888,-0.01811651763570114,-0.003193952531149623,0.60822,-0.34335000000000004,9.95715
6904040335,22.16,-0.02663372438543347,-0.015987215948268057,0.0,0.60822,-0.38259000000000004,9.82962
6909090840,22.16,-0.01811651763570114,-0.01918116847941768,0.0,0.6180300000000001,-0.37278,9.66285
6914141345,22.16,0.0,-0.011711159280881954,-0.001064650843716541,0.63765,-0.34335000000000004,9.751140000000001
6919191850,22.16,0.012775810124598492,-0.007452555906015787,-0.002129301687433082,0.64746,-0.2943,9.89829
6924242355,22.16,0.024504422698000388,0.0,0.003193952531149623,0.63765,-0.21582,9.89829
6929292860,22.16,0.02769837522915001,0.00958185759344887,0.0,0.60822,-0.1962,9.74133
6934343365,22.16,0.02769837522915001,0.015987215948268057,-0.003193952531149623,0.60822,-0.08829,9.74133
6939393870,22.16,0.02769837522915001,0.023439771854283843,-0.001064650843716541,0.56898,-0.039240000000000004,9.760950000000001
6944444375,22.16,0.028763026072866547,0.028763026072866547,0.004258603374866164,0.5395500000000001,0.0,9.78057
6949494880,22.16,0.01811651763570114,0.02663372438543347,0.002129301687433082,0.52974,0.009810000000000001,9.86886
6954545385,22.16,0.002129301687433082,0.015987215948268057,0.0,0.48069000000000006,0.0,9.84924
6959595890,22.16,-0.006387905062299246,0.0,0.0,0.47088,-0.019620000000000002,9.751140000000001
6964646395,22.16,-0.013840460968315033,-0.013840460968315033,0.0,0.50031,-0.05886,9.78057
6969696900,22.16,-0.020245819323134222,-0.031956978604016174,-0.002129301687433082,0.52974,-0.12753,9.89829
6974747405,22.16,-0.02556907354171693,-0.04581489286485115,-0.002129301687433082,0.60822,-0.20601000000000003,9.86886
6979797910,22.16,-0.028763026072866547,-0.05007349623971732,-0.004258603374866164,0.6278400000000001,-0.26487,9.760950000000001
6984848415,22.16,-0.01918116847941768,-0.049008845396000776,-0.002129301687433082,0.6867000000000001,-0.32373,9.760950000000001
6989898920,22.16,-0.007452555906015787,-0.031956978604016174,-0.004258603374866164,0.71613,-0.32373,9.78057
6994949425,22.16,0.0,-0.01918116847941768,0.003193952531149623,0.73575,-0.28449,9.83943
6999999930,22.16,0.003193952531149623,0.0,0.0,0.73575,-0.26487,9.85905
7005050435,22.16,0.013840460968315033,0.021310470166850764,-0.002129301687433082,0.73575,-0.1962,9.770760000000001
7010100940,22.16,0.022375121010567305,0.03515093113516579,0.001064650843716541,0.69651,-0.13734000000000002,9.7119
7015151445,22.16,0.02663372438543347,0.05007349623971732,0.003193952531149623,0.6278400000000001,-0.07848000000000001,9.751140000000001
7020201950,22.16,0.015987215948268057,0.05752605214573309,0.0,0.5395500000000001,-0.04905,9.87867
7025252455,22.16,0.012775810124598492,0.06178465552059926,0.0,0.5493600000000001,0.0,9.86886
7030302960,22.16,0.004258603374866164,0.06284930636431581,0.001064650843716541,0.45126,0.0,9.73152
7035353465,22.16,0.0,0.054332099614583476,0.0,0.40221,-0.019620000000000002,9.770760000000001
7040403970,22.16,-0.012775810124598492,0.03834488366631542,0.001064650843716541,0.37278,-0.019620000000000002,9.82962
7045454475,22.16,-0.021310470166850764,0.015987215948268057,0.001064650843716541,0.3924,-0.10791,9.86886
7050504980,22.16,-0.024504422698000388,-0.008517206749732328,-0.003193952531149623,0.41202000000000005,-0.17658,9.87867
7055555485,22.16,-0.02663372438543347,-0.03834488366631542,-0.002129301687433082,0.44145,-0.25506,9.79038
7060605990,22.16,-0.024504422698000388,-0.06604325889546543,-0.002129301687433082,0.48069000000000006,-0.2943,9.751140000000001
7065656495,22.16,-0.022375121010567305,-0.08309512568745003,-0.002129301687433082,0.59841,-0.35316,9.81
7070707000,22.16,-0.01064650843716541,-0.09374163412461543,-0.003193952531149623,0.6670800000000001,-0.37278,9.888480000000001
7075757505,22.16,0.003193952531149623,-0.0852244273748831,-0.004258603374866164,0.73575,-0.35316,9.83943
7080808010,22.16,0.0170518667919846,-0.07030186227033158,0.0,0.80442,-0.31392000000000003,9.78057
7085858515,22.16,0.02663372438543347,-0.049008845396000776,-0.001064650843716541,0.80442,-0.23544,9.73152
7090909020,22.16,0.033021629447732716,-0.015987215948268057,-0.001064650843716541,0.8240400000000001,-0.14715,9.770760000000001
7095959525,22.16,0.03728023282259888,0.013840460968315033,0.0,0.8142300000000001,-0.07848000000000001,9.81
7101010030,22.16,0.03834488366631542,0.04153883619746504,0.003193952531149623,0.72594,-0.019620000000000002,9.84924
7106060535,22.16,0.02769837522915001,0.060720004676882725,0.002129301687433082,0.6768900000000001,0.039240000000000004,9.78057
7111111040,22.16,0.01811651763570114,0.0756251164889143,0.003193952531149623,0.60822,0.08829,9.751140000000001
7116161545,22.16,0.007452555906015787,0.0852244273748831,0.002129301687433082,0.5493600000000001,0.0981,9.751140000000001
7121212050,22.16,-0.004258603374866164,0.08628907821859966,0.003193952531149623,0.47088,0.06867000000000001,9.84924
7126262555,22.16,-0.024504422698000388,0.07883652231258387,0.003193952531149623,0.41202000000000005,0.0,9.81
7131313060,22.16,-0.03834488366631542,0.05965535383316618,0.0,0.38259000000000004,-0.06867000000000001,9.79038
7136363565,22.16,-0.049008845396000776,0.03515093113516579,-0.001064650843716541,0.36297,-0.14715,9.770760000000001
7141414070,22.16,-0.046879543708567686,0.003193952531149623,0.0,0.38259000000000004,-0.21582,9.81
7146464575,22.16,-0.046879543708567686,-0.02982767691658309,0.0,0.40221,-0.34335000000000004,9.83943
7151515080,22.16,-0.03621558197888234,-0.06391395720803235,-0.004258603374866164,0.46107000000000004,-0.40221,9.89829
7156565585,22.16,-0.023439771854283843,-0.0852244273748831,-0.006387905062299246,0.5395500000000001,-0.44145,9.82962
7161616090,22.16,-0.005323254218582705,-0.09906488834319814,-0.004258603374866164,0.63765,-0.43164,9.819809999999999
7166666595,22.16,0.012775810124598492,-0.09587093581204853,-0.005323254218582705,0.72594,-0.41202000000000005,9.78057
7171717100,22.16,0.02769837522915001,-0.07990117315630041,-0.002129301687433082,0.79461,-0.35316,9.81
7176767605,22.16,0.04366813788489812,-0.05539675045830002,-0.001064650843716541,0.8142300000000001,-0.24525000000000002,9.81
7181818110,22.16,0.05220279792715039,-0.02663372438543347,-0.001064650843716541,0.8142300000000001,-0.14715,9.82962
7186868615,22.16,0.05965535383316618,0.004258603374866164,0.001064650843716541,0.7848,-0.039240000000000004,9.760950000000001
7191919120,22.16,0.05326744877086694,0.033021629447732716,0.002129301687433082,0.72594,0.07848000000000001,9.78057
7196969625,22.16,0.0404741853537485,0.05646140130201656,0.002129301687433082,0.65727,0.11772,9.81
7202020130,22.16,0.024504422698000388,0.07777187146886733,0.003193952531149623,0.59841,0.15696000000000002,9.81
7207070635,22.16,0.007452555906015787,0.09054768159346581,0.002129301687433082,0.52974,0.16677000000000003,9.78057
7212121140,22.16,-0.0170518667919846,0.09480628496833199,0.003193952531149623,0.45126,0.11772,9.760950000000001
7217171645,22.16,-0.031956978604016174,0.0852244273748831,0.005323254218582705,0.3924,0.05886,9.770760000000001
7222222150,22.16,-0.05113814708343386,0.07030186227033158,0.003193952531149623,0.34335000000000004,-0.039240000000000004,9.81
7227272655,22.16,-0.06178465552059926,0.03621558197888234,-0.001064650843716541,0.35316,-0.17658,9.85905
7232323160,22.16,-0.06604325889546543,-0.004258603374866164,0.0,0.36297,-0.2943,9.86886
7237373665,22.16,-0.05859070298944965,-0.039409534510031964,-0.003193952531149623,0.42183,-0.38259000000000004,9.80019
7242424170,22.16,-0.05007349623971732,-0.0756251164889143,-0.003193952531149623,0.49050000000000005,-0.49050000000000005,9.87867
7247474675,22.16,-0.02982767691658309,-0.10119419003063122,-0.006387905062299246,0.57879,-0.52974,9.84924
7252525180,22.16,-0.006387905062299246,-0.11292280260403312,-0.006387905062299246,0.6867000000000001,-0.52974,9.84924
7257575685,22.16,0.014905111812031574,-0.11185815176031658,-0.004258603374866164,0.7848,-0.49050000000000005,9.81
7262626190,22.16,0.03834488366631542,-0.09800023749948161,-0.004258603374866164,0.8338500000000001,-0.41202000000000005,9.80019
7267676695,22.16,0.05752605214573309,-0.07030186227033158,-0.001064650843716541,0.86328,-0.28449,9.78057
7272727200,22.16,0.06923721142661506,-0.024504422698000388,-0.003193952531149623,0.8829,-0.14715,9.83943
7277777705,22.16,0.07243116395776468,0.011711159280881954,0.001064650843716541,0.85347,-0.019620000000000002,9.81
7282828210,22.16,0.06817256058289851,0.054332099614583476,0.002129301687433082,0.79461,0.11772,9.73152
7287878715,22.16,0.05326744877086694,0.08948303074974927,0.002129301687433082,0.6768900000000001,0.20601000000000003,9.67266
7292929220,22.16,0.03621558197888234,0.1171814059788993,0.003193952531149623,0.56898,0.26487,9.78057
7297979725,22.16,0.012775810124598492,0.1331511686346474,0.006387905062299246,0.47088,0.2943,9.770760000000001
7303030230,22.16,-0.020245819323134222,0.12356931104119852,0.005323254218582705,0.37278,0.20601000000000003,9.85905
7308080735,22.16,-0.044732788728614664,0.10759954838545042,0.004258603374866164,0.30411,0.10791,9.84924
7313131240,22.16,-0.06497860805174888,0.06923721142661506,0.0,0.26487,0.019620000000000002,9.81
7318181745,22.16,-0.0756251164889143,0.02769837522915001,-0.001064650843716541,0.25506,-0.15696000000000002,9.751140000000001
7323232250,22.16,-0.08096582400001695,-0.021310470166850764,-0.002129301687433082,0.28449,-0.33354000000000006,9.82962
7328282755,22.16,-0.07883652231258387,-0.06284930636431581,-0.003193952531149623,0.37278,-0.48069000000000006,9.888480000000001
7333333260,22.16,-0.06604325889546543,-0.10225884087434776,-0.003193952531149623,0.49050000000000005,-0.60822,9.937529999999999
7338383765,22.16,-0.04153883619746504,-0.1278279144160647,-0.006387905062299246,0.6278400000000001,-0.63765,9.86886
7343434270,22.16,-0.006387905062299246,-0.13955652698946658,-0.004258603374866164,0.72594,-0.6180300000000001,9.80019
7348484775,22.16,0.020245819323134222,-0.13208651779093086,-0.006387905062299246,0.85347,-0.5493600000000001,9.819809999999999
7353535280,22.16,0.05113814708343386,-0.11079350091660004,-0.004258603374866164,0.9123300000000001,-0.45126,9.85905
7358585785,22.16,0.07030186227033158,-0.07136651311404815,-0.003193952531149623,0.9711900000000001,-0.31392000000000003,9.770760000000001
7363636290,22.16,0.08628907821859966,-0.020245819323134222,-0.004258603374866164,0.9319500000000001,-0.15696000000000002,9.78057
7368686795,22.16,0.09267698328089889,0.03515093113516579,-0.001064650843716541,0.87309,0.02943,9.760950000000001
7373737300,22.16,0.08309512568745003,0.09054768159346581,0.005323254218582705,0.7749900000000001,0.20601000000000003,9.73152
7378787805,22.16,0.06497860805174888,0.12356931104119852,0.006387905062299246,0.6278400000000001,0.31392000000000003,9.72171
7383838310,22.16,0.04260348704118158,0.14275047952061623,0.007452555906015787,0.47088,0.38259000000000004,9.78057
7388888815,22.16,0.008517206749732328,0.14062117783318315,0.006387905062299246,0.3924,0.37278,9.81
7393939320,22.16,-0.022375121010567305,0.12250466019748199,0.004258603374866164,0.31392000000000003,0.2943,9.79038
7398989825,22.16,-0.05539675045830002,0.08841837990603273,0.0,0.24525000000000002,0.15696000000000002,9.83943
7404040330,22.16,-0.07777187146886733,0.04153883619746504,-0.001064650843716541,0.26487,0.0,9.79038
7409090835,22.16,-0.09054768159346581,-0.01064650843716541,-0.003193952531149623,0.27468000000000004,-0.1962,9.78057
7414141340,22.16,-0.10012953918691468,-0.05539675045830002,-0.004258603374866164,0.36297,-0.40221,9.83943
7419191845,22.16,-0.08948303074974927,-0.09161233243718235,-0.003193952531149623,0.45126,-0.56898,9.91791
7424242350,22.16,-0.06604325889546543,-0.11611675513518273,-0.007452555906015787,0.59841,-0.6768900000000001,9.91791
7429292855,22.16,-0.03621558197888234,-0.1278279144160647,-0.005323254218582705,0.6867000000000001,-0.71613,9.83943
7434343360,22.16,-0.005323254218582705,-0.12676326357234816,-0.006387905062299246,0.7749900000000001,-0.6670800000000001,9.79038
7439393865,22.16,0.02556907354171693,-0.11185815176031658,-0.004258603374866164,0.8829,-0.57879,9.78057
7444444370,22.16,0.06284930636431581,-0.07243116395776468,0.0,0.90252,-0.43164,9.84924
7449494875,22.16,0.08415977653116657,-0.03621558197888234,0.0,0.9319500000000001,-0.26487,9.82962
7454545380,22.16,0.09800023749948161,0.013840460968315033,0.001064650843716541,0.8829,-0.06867000000000001,9.751140000000001
7459595885,22.16,0.09267698328089889,0.05539675045830002,0.001064650843716541,0.8142300000000001,0.0981,9.751140000000001
7464646390,22.16,0.0852244273748831,0.10119419003063122,0.003193952531149623,0.70632,0.25506,9.751140000000001
7469696895,22.16,0.06710790973918197,0.12463396188491506,0.006387905062299246,0.57879,0.36297,9.770760000000001
7474747400,22.16,0.03621558197888234,0.1352804703220805,0.006387905062299246,0.46107000000000004,0.38259000000000004,9.83943
7479797905,22.16,-0.003193952531149623,0.12037535851004891,0.003193952531149623,0.34335000000000004,0.35316,9.81
7484848410,22.16,-0.03515093113516579,0.09587093581204853,0.001064650843716541,0.30411,0.23544,9.760950000000001
7489898915,22.16,-0.060720004676882725,0.05965535383316618,-0.003193952531149623,0.25506,0.13734000000000002,9.81
7494949420,22.16,-0.08096582400001695,0.013840460968315033,0.0,0.27468000000000004,-0.05886,9.81
7499999925,22.16,-0.09374163412461543,-0.021310470166850764,-0.001064650843716541,0.31392000000000003,-0.26487,9.81
7505050430,22.16,-0.10012953918691468,-0.05646140130201656,-0.003193952531149623,0.40221,-0.44145,9.82962
7510100935,22.16,-0.0852244273748831,-0.07777187146886733,-0.005323254218582705,0.51993,-0.5591700000000001,9.86886
7515151440,22.16,-0.05539675045830002,-0.09906488834319814,-0.004258603374866164,0.6180300000000001,-0.65727,9.888480000000001
7520201945,22.16,-0.02982767691658309,-0.10653489754173388,-0.003193952531149623,0.70632,-0.6867000000000001,9.89829
7525252450,22.16,0.0,-0.10545279340549739,0.0,0.75537,-0.63765,9.760950000000001
7530302955,22.16,0.031956978604016174,-0.09480628496833199,-0.007452555906015787,0.84366,-0.5395500000000001,9.770760000000001
7535353460,22.16,0.06391395720803235,-0.06923721142661506,-0.003193952531149623,0.89271,-0.40221,9.81
7540403965,22.16,0.08203047484373349,-0.039409534510031964,0.0,0.9123300000000001,-0.24525000000000002,9.86886
7545454470,22.16,0.08948303074974927,0.002129301687433082,0.0,0.86328,-0.039240000000000004,9.86886
7550504975,22.16,0.08841837990603273,0.044732788728614664,0.0,0.80442,0.11772,9.80019
7555555480,22.16,0.07990117315630041,0.08415977653116657,0.001064650843716541,0.6768900000000001,0.20601000000000003,9.69228
7560605985,22.16,0.05859070298944965,0.1097288500728835,0.006387905062299246,0.5591700000000001,0.33354000000000006,9.65304
7565656490,22.16,0.03089232776029963,0.11824605682261582,0.007452555906015787,0.46107000000000004,0.34335000000000004,9.770760000000001
7570706995,22.16,-0.003193952531149623,0.10866419922916695,0.006387905062299246,0.38259000000000004,0.31392000000000003,9.87867
7575757500,22.16,-0.033021629447732716,0.08841837990603273,0.003193952531149623,0.33354000000000006,0.22563,9.81
7580808005,22.16,-0.05752605214573309,0.05539675045830002,0.0,0.30411,0.06867000000000001,9.81
7585858510,22.16,-0.07990117315630041,0.015987215948268057,0.001064650843716541,0.33354000000000006,-0.0981,9.760950000000001
7590909015,22.16,-0.09161233243718235,-0.0170518667919846,0.0,0.36297,-0.28449,9.751140000000001
7595959520,22.16,-0.09054768159346581,-0.054332099614583476,-0.004258603374866164,0.42183,-0.44145,9.83943
7601010025,22.16,-0.07883652231258387,-0.07883652231258387,-0.003193952531149623,0.5395500000000001,-0.56898,9.92772
7606060530,22.16,-0.05539675045830002,-0.09587093581204853,-0.003193952531149623,0.60822,-0.63765,9.85905
7611111035,22.16,-0.02982767691658309,-0.10866419922916695,-0.004258603374866164,0.69651,-0.65727,9.80019
7616161540,22.16,0.002129301687433082,-0.10545279340549739,-0.004258603374866164,0.7848,-0.6180300000000001,9.78057
7621212045,22.16,0.03834488366631542,-0.08735372906231618,-0.005323254218582705,0.84366,-0.51012,9.79038
7626262550,22.16,0.06497860805174888,-0.04581489286485115,-0.003193952531149623,0.89271,-0.34335000000000004,9.81
7631313055,22.16,0.08203047484373349,-0.005323254218582705,-0.001064650843716541,0.86328,-0.1962,9.83943
7636363560,22.16,0.08735372906231618,0.03834488366631542,0.004258603374866164,0.8142300000000001,-0.009810000000000001,9.770760000000001
7641414065,22.16,0.08309512568745003,0.07243116395776468,0.003193952531149623,0.69651,0.10791,9.751140000000001
7646464570,22.16,0.06817256058289851,0.09800023749948161,0.005323254218582705,0.6278400000000001,0.26487,9.78057
7651515075,22.16,0.04581489286485115,0.10759954838545042,0.005323254218582705,0.51012,0.32373,9.81
7656565580,22.16,0.015987215948268057,0.09587093581204853,0.004258603374866164,0.42183,0.32373,9.82962
7661616085,22.16,-0.011711159280881954,0.07030186227033158,0.001064650843716541,0.37278,0.24525000000000002,9.86886
7666666590,22.16,-0.0404741853537485,0.04153883619746504,0.0,0.33354000000000006,0.12753,9.760950000000001
7671717095,22.16,-0.06284930636431581,0.011711159280881954,-0.002129301687433082,0.32373,0.0,9.74133
7676767600,22.16,-0.07883652231258387,-0.021310470166850764,-0.003193952531149623,0.3924,-0.17658,9.80019
7681818105,22.16,-0.08203047484373349,-0.04260348704118158,-0.001064650843716541,0.44145,-0.33354000000000006,9.84924
7686868610,22.16,-0.07777187146886733,-0.060720004676882725,-0.001064650843716541,0.5395500000000001,-0.46107000000000004,9.908100000000001
7691919115,22.16,-0.05859070298944965,-0.07777187146886733,-0.002129301687433082,0.5886,-0.57879,9.86886
7696969620,22.16,-0.03515093113516579,-0.08203047484373349,-0.004258603374866164,0.6670800000000001,-0.5886,9.79038
7702020125,22.16,-0.012775810124598492,-0.08096582400001695,-0.003193952531149623,0.75537,-0.59841,9.82962
7707070630,22.16,0.015987215948268057,-0.06923721142661506,-0.002129301687433082,0.8338500000000001,-0.52974,9.81
7712121135,22.16,0.0404741853537485,-0.049008845396000776,-0.005323254218582705,0.8240400000000001,-0.40221,9.81
7717171640,22.16,0.06178465552059926,-0.01918116847941768,0.0,0.8240400000000001,-0.25506,9.81
7722222145,22.16,0.07243116395776468,0.015987215948268057,-0.002129301687433082,0.8142300000000001,-0.0981,9.81
7727272650,22.16,0.07349581480148122,0.05113814708343386,0.002129301687433082,0.71613,0.019620000000000002,9.751140000000001
7732323155,22.16,0.06923721142661506,0.07456046564519776,0.002129301687433082,0.64746,0.12753,9.78057
7737373660,22.16,0.05113814708343386,0.08948303074974927,0.001064650843716541,0.5591700000000001,0.23544,9.81
7742424165,22.16,0.028763026072866547,0.09693558665576507,0.003193952531149623,0.47088,0.24525000000000002,9.83943
7747474670,22.16,0.004258603374866164,0.08415977653116657,0.002129301687433082,0.41202000000000005,0.22563,9.79038
7752525175,22.16,-0.021310470166850764,0.06497860805174888,0.0,0.35316,0.14715,9.751140000000001
7757575680,22.16,-0.04581489286485115,0.03728023282259888,0.001064650843716541,0.34335000000000004,0.039240000000000004,9.760950000000001
7762626185,22.16,-0.06284930636431581,0.005323254218582705,0.0,0.37278,-0.08829,9.81
7767676690,22.16,-0.07243116395776468,-0.0170518667919846,-0.003193952531149623,0.3924,-0.22563,9.89829
7772727195,22.16,-0.07136651311404815,-0.03834488366631542,-0.002129301687433082,0.45126,-0.36297,9.85905
7777777700,22.16,-0.06497860805174888,-0.054332099614583476,-0.003193952531149623,0.51012,-0.47088,9.83943
7782828205,22.16,-0.04581489286485115,-0.06604325889546543,-0.003193952531149623,0.5886,-0.52974,9.81
7787878710,22.16,-0.02663372438543347,-0.07456046564519776,-0.002129301687433082,0.65727,-0.5395500000000001,9.81
7792929215,22.16,0.0,-0.07456046564519776,-0.003193952531149623,0.71613,-0.51012,9.819809999999999
7797979720,22.16,0.02769837522915001,-0.06710790973918197,-0.001064650843716541,0.7749900000000001,-0.46107000000000004,9.86886
7803030225,22.16,0.04581489286485115,-0.049008845396000776,-0.001064650843716541,0.80442,-0.32373,9.81
7808080730,22.16,0.05859070298944965,-0.02556907354171693,-0.001064650843716541,0.79461,-0.20601000000000003,9.78057
7813131235,22.16,0.06604325889546543,0.002129301687433082,0.0,0.80442,-0.08829,9.82962
7818181740,22.16,0.06497860805174888,0.02769837522915001,0.002129301687433082,0.71613,0.02943,9.81
7823232245,22.16,0.05752605214573309,0.04794419455228423,0.002129301687433082,0.65727,0.11772,9.80019
7828282750,22.16,0.0404741853537485,0.05539675045830002,0.002129301687433082,0.60822,0.20601000000000003,9.78057
7833333255,22.16,0.01918116847941768,0.05752605214573309,0.002129301687433082,0.5591700000000001,0.1962,9.78057
7838383760,22.16,0.0,0.054332099614583476,0.003193952531149623,0.49050000000000005,0.17658,9.79038
7843434265,22.16,-0.020245819323134222,0.044732788728614664,0.0,0.45126,0.08829,9.78057
7848484770,22.16,-0.04153883619746504,0.033021629447732716,0.0,0.49050000000000005,0.0,9.819809999999999
7853535275,22.16,-0.05539675045830002,0.01918116847941768,-0.002129301687433082,0.47088,-0.11772,9.80019
7858585780,22.16,-0.060720004676882725,0.005323254218582705,0.0,0.46107000000000004,-0.21582,9.760950000000001
7863636285,22.16,-0.05752605214573309,-0.007452555906015787,0.0,0.50031,-0.34335000000000004,9.82962
7868686790,22.16,-0.05220279792715039,-0.022375121010567305,-0.001064650843716541,0.5395500000000001,-0.40221,9.86886
7873737295,22.16,-0.03728023282259888,-0.028763026072866547,0.0,0.56898,-0.45126,9.819809999999999
7878787800,22.16,-0.022375121010567305,-0.033021629447732716,-0.003193952531149623,0.60822,-0.48069000000000006,9.84924
7883838305,22.16,0.0,-0.02982767691658309,-0.002129301687433082,0.64746,-0.44145,9.80019
7888888810,22.16,0.01918116847941768,-0.01811651763570114,-0.002129301687433082,0.65727,-0.38259000000000004,9.78057
7893939315,22.16,0.031956978604016174,-0.007452555906015787,0.0,0.6670800000000001,-0.2943,9.81
7898989820,22.16,0.04366813788489812,0.003193952531149623,0.0,0.63765,-0.18639,9.83943
7904040325,22.16,0.04581489286485115,0.01064650843716541,0.001064650843716541,0.64746,-0.08829,9.86886
7909090830,22.16,0.04581489286485115,0.012775810124598492,0.0,0.60822,0.0,9.83943
7914141335,22.16,0.03621558197888234,0.004258603374866164,0.0,0.56898,0.02943,9.79038
7919191840,22.16,0.02663372438543347,-0.006387905062299246,0.0,0.57879,0.039240000000000004,9.79038
7924242345,22.16,0.008517206749732328,-0.015987215948268057,-0.001064650843716541,0.5591700000000001,0.02943,9.819809999999999
7929292850,22.16,0.0,-0.024504422698000388,-0.002129301687433082,0.5886,0.0,9.81
7934343355,22.16,-0.013840460968315033,-0.023439771854283843,-0.001064650843716541,0.6278400000000001,-0.04905,9.80019
7939393860,22.16,-0.021310470166850764,-0.01811651763570114,-0.002129301687433082,0.6278400000000001,-0.11772,9.770760000000001
7944444365,22.16,-0.02982767691658309,-0.01064650843716541,-0.003193952531149623,0.65727,-0.17658,9.81
7949494870,22.16,-0.02982767691658309,-0.001064650843716541,0.0,0.6670800000000001,-0.21582,9.81
7954545375,22.16,-0.024504422698000388,0.005323254218582705,0.0,0.6768900000000001,-0.24525000000000002,9.85905
