#timestamp [ns], temperature [degC], w_RS_S_x [rad s^-1], w_RS_S_y [rad s^-1], w_RS_S_z [rad s^-1], a_RS_S_x [m s^-2], a_RS_S_y [m s^-2], a_RS_S_z [m s^-2]
0,21.9,0.0,0.0,0.0,0.59841,-0.14715,9.819809999999999
5050505,21.9,0.0,0.0,0.0,0.6180300000000001,-0.14715,9.80019
10101010,21.9,0.0,0.0,0.0,0.59841,-0.12753,9.819809999999999
15151515,21.9,0.0,0.0,0.0,0.59841,-0.16677000000000003,9.82962
20202020,21.9,0.0,0.0,0.0,0.59841,-0.18639,9.83943
25252525,21.9,0.0,0.0,0.0,0.59841,-0.15696000000000002,9.81
30303030,21.9,0.0,0.0,0.0,0.6180300000000001,-0.12753,9.79038
35353535,21.9,0.0,0.0,0.0,0.6278400000000001,-0.14715,9.81
40404040,21.9,0.0,0.0,0.0,0.59841,-0.14715,9.82962
45454545,21.9,0.0,0.0,0.0,0.59841,-0.15696000000000002,9.819809999999999
50505050,21.9,0.0,0.0,0.0,0.57879,-0.15696000000000002,9.81
55555555,21.9,0.0,0.0,0.0,0.59841,-0.16677000000000003,9.82962
60606060,21.9,0.0,0.0,0.0,0.6278400000000001,-0.15696000000000002,9.83943
65656565,21.9,0.0,0.0,0.0,0.60822,-0.16677000000000003,9.819809999999999
70707070,21.9,0.0,0.0,0.0,0.59841,-0.15696000000000002,9.80019
75757575,21.9,0.0,0.0,0.0,0.60822,-0.15696000000000002,9.81
80808080,21.9,0.0,0.0,0.0,0.60822,-0.14715,9.81
85858585,21.9,0.0,0.0,0.0,0.6180300000000001,-0.15696000000000002,9.83943
90909090,21.9,0.0,0.0,0.0,0.57879,-0.15696000000000002,9.79038
95959595,21.9,0.0,0.0,0.0,0.59841,-0.17658,9.78057
101010100,21.9,0.0,0.0,0.0,0.60822,-0.15696000000000002,9.78057
106060605,21.9,0.0,0.0,0.0,0.59841,-0.14715,9.85905
111111110,21.9,0.0,0.0,0.0,0.60822,-0.14715,9.86886
116161615,21.9,0.0,0.0,0.0,0.60822,-0.14715,9.79038
121212120,21.9,0.0,0.0,0.0,0.6278400000000001,-0.14715,9.751140000000001
126262625,21.9,0.0,0.0,0.0,0.60822,-0.17658,9.80019
131313130,21.9,0.0,0.0,0.0,0.60822,-0.16677000000000003,9.87867
136363635,21.9,0.0,0.0,0.0,0.60822,-0.15696000000000002,9.888480000000001
141414140,21.9,0.0,0.0,0.0,0.60822,-0.16677000000000003,9.819809999999999
146464645,21.9,0.0,0.0,0.0,0.60822,-0.15696000000000002,9.751140000000001
151515150,21.9,0.0,0.0,0.0,0.60822,-0.15696000000000002,9.760950000000001
156565655,21.9,0.0,0.0,0.0,0.63765,-0.15696000000000002,9.85905
161616160,21.9,0.0,0.0,0.0,0.60822,-0.15696000000000002,9.87867
166666665,21.9,0.0,0.0,0.0,0.6180300000000001,-0.13734000000000002,9.819809999999999
171717170,21.9,0.0,0.0,0.0,0.59841,-0.16677000000000003,9.7119
176767675,21.9,0.0,0.0,0.0,0.6278400000000001,-0.15696000000000002,9.770760000000001
181818180,21.9,0.0,0.0,0.0,0.6278400000000001,-0.15696000000000002,9.84924
186868685,21.9,0.0,0.0,0.0,0.59841,-0.17658,9.89829
191919190,21.9,0.0,0.0,0.0,0.6180300000000001,-0.17658,9.81
196969695,21.9,0.0,0.0,0.0,0.59841,-0.15696000000000002,9.751140000000001
202020200,21.9,0.0,0.0,0.0,0.59841,-0.15696000000000002,9.751140000000001
207070705,21.9,0.0,0.0,0.0,0.6180300000000001,-0.16677000000000003,9.82962
212121210,21.9,0.0,0.0,0.0,0.6180300000000001,-0.14715,9.85905
217171715,21.9,0.0,0.0,0.0,0.60822,-0.17658,9.84924
222222220,21.9,0.0,0.0,0.0,0.59841,-0.16677000000000003,9.751140000000001
227272725,21.9,0.0,0.0,0.0,0.60822,-0.16677000000000003,9.79038
232323230,21.9,0.0,0.0,0.0,0.6278400000000001,-0.14715,9.82962
237373735,21.9,0.0,0.0,0.0,0.60822,-0.13734000000000002,9.84924
242424240,21.9,0.0,0.0,0.0,0.60822,-0.16677000000000003,9.81
247474745,21.9,0.0,0.0,0.0,0.60822,-0.14715,9.79038
252525250,21.9,0.0,0.0,0.0,0.6180300000000001,-0.14715,9.770760000000001
257575755,21.9,0.0,0.0,0.0,0.60822,-0.16677000000000003,9.84924
262626260,21.9,0.0,0.0,0.0,0.6180300000000001,-0.17658,9.84924
267676765,21.9,0.0,0.0,0.0,0.60822,-0.18639,9.819809999999999
272727270,21.9,0.0,0.0,0.0,0.60822,-0.16677000000000003,9.78057
277777775,21.9,0.0,0.0,0.0,0.60822,-0.16677000000000003,9.78057
282828280,21.9,0.0,0.0,0.0,0.6180300000000001,-0.15696000000000002,9.82962
287878785,21.9,0.0,0.0,0.0,0.5886,-0.16677000000000003,9.83943
292929290,21.9,0.0,0.0,0.0,0.59841,-0.16677000000000003,9.83943
297979795,21.9,0.0,0.0,0.0,0.59841,-0.17658,9.80019
303030300,21.9,0.0,0.0,0.0,0.60822,-0.15696000000000002,9.78057
308080805,21.9,0.0,0.0,0.0,0.59841,-0.14715,9.819809999999999
313131310,21.9,0.0,0.0,0.0,0.60822,-0.13734000000000002,9.81
318181815,21.9,0.0,0.0,0.0,0.60822,-0.15696000000000002,9.83943
323232320,21.9,0.0,0.0,0.0,0.60822,-0.14715,9.81
328282825,21.9,0.0,0.0,0.0,0.6180300000000001,-0.15696000000000002,9.81
333333330,21.9,0.0,0.0,0.0,0.59841,-0.15696000000000002,9.819809999999999
338383835,21.9,0.0,0.0,0.0,0.60822,-0.16677000000000003,9.79038
343434340,21.9,0.0,0.0,0.0,0.59841,-0.15696000000000002,9.80019
348484845,21.9,0.0,0.0,0.0,0.60822,-0.17658,9.819809999999999
353535350,21.9,0.0,0.0,0.0,0.60822,-0.14715,9.819809999999999
358585855,21.9,0.0,0.0,0.0,0.63765,-0.15696000000000002,9.83943
363636360,21.9,0.0,0.0,0.0,0.59841,-0.16677000000000003,9.81
368686865,21.9,0.0,0.0,0.0,0.60822,-0.14715,9.770760000000001
373737370,21.9,0.0,0.0,0.0,0.6180300000000001,-0.15696000000000002,9.819809999999999
378787875,21.9,0.0,0.0,0.0,0.60822,-0.15696000000000002,9.85905
383838380,21.9,0.0,0.0,0.0,0.6278400000000001,-0.15696000000000002,9.83943
388888885,21.9,0.0,0.0,0.0,0.57879,-0.12753,9.80019
393939390,21.9,0.0,0.0,0.0,0.60822,-0.14715,9.79038
398989895,21.9,0.0,0.0,0.0,0.60822,-0.16677000000000003,9.81
404040400,21.9,0.0,0.0,0.0,0.6180300000000001,-0.14715,9.84924
409090905,21.9,0.0,0.0,0.0,0.59841,-0.16677000000000003,9.819809999999999
414141410,21.9,0.0,0.0,0.0,0.6180300000000001,-0.16677000000000003,9.770760000000001
419191915,21.9,0.0,0.0,0.0,0.60822,-0.15696000000000002,9.78057
424242420,21.9,0.0,0.0,0.0,0.6180300000000001,-0.14715,9.83943
429292925,21.9,0.0,0.0,0.0,0.6180300000000001,-0.15696000000000002,9.85905
434343430,21.9,0.0,0.0,0.0,0.60822,-0.15696000000000002,9.82962
439393935,21.9,0.0,0.0,0.0,0.57879,-0.18639,9.78057
444444440,21.9,0.0,0.0,0.0,0.5886,-0.13734000000000002,9.760950000000001
449494945,21.9,0.0,0.0,0.0,0.5886,-0.15696000000000002,9.819809999999999
454545450,21.9,0.0,0.0,0.0,0.60822,-0.15696000000000002,9.86886
459595955,21.9,0.0,0.0,0.0,0.60822,-0.14715,9.82962
464646460,21.9,0.0,0.0,0.0,0.60822,-0.15696000000000002,9.760950000000001
469696965,21.9,0.0,0.0,0.0,0.60822,-0.16677000000000003,9.770760000000001
474747470,21.9,0.0,0.0,0.0,0.5886,-0.15696000000000002,9.80019
479797975,21.9,0.0,0.0,0.0,0.60822,-0.16677000000000003,9.83943
484848480,21.9,0.0,0.0,0.0,0.57879,-0.15696000000000002,9.83943
489898985,21.9,0.0,0.0,0.0,0.59841,-0.16677000000000003,9.79038
494949490,21.9,0.0,0.0,0.0,0.60822,-0.16677000000000003,9.79038
499999995,21.9,0.0,0.0,0.0,0.60822,-0.17658,9.81
505050500,21.9,0.0,0.0,0.0,0.60822,-0.12753,9.81
510101005,21.9,0.0,0.0,0.0,0.6180300000000001,-0.15696000000000002,9.82962
515151510,21.9,0.0,0.0,0.0,0.60822,-0.17658,9.79038
520202015,21.9,0.0,0.0,0.0,0.60822,-0.15696000000000002,9.819809999999999
525252520,21.9,0.0,0.0,0.0,0.60822,-0.14715,9.819809999999999
530303025,21.9,0.0,0.0,0.0,0.60822,-0.15696000000000002,9.81
535353530,21.9,0.0,0.0,0.0,0.6278400000000001,-0.14715,9.80019
540404035,21.9,0.0,0.0,0.0,0.60822,-0.12753,9.80019
545454540,21.9,0.0,0.0,0.0,0.60822,-0.15696000000000002,9.819809999999999
550505045,21.9,0.0,0.0,0.0,0.60822,-0.14715,9.819809999999999
555555550,21.9,0.0,0.0,0.0,0.6180300000000001,-0.15696000000000002,9.819809999999999
560606055,21.9,0.0,0.0,0.0,0.6180300000000001,-0.12753,9.80019
565656560,21.9,0.0,0.0,0.0,0.59841,-0.16677000000000003,9.80019
570707065,21.9,0.0,0.0,0.0,0.60822,-0.16677000000000003,9.81
575757570,21.9,0.0,0.0,0.0,0.5886,-0.15696000000000002,9.81
580808075,21.9,0.0,0.0,0.0,0.59841,-0.12753,9.82962
585858580,21.9,0.0,0.0,0.0,0.5886,-0.14715,9.82962
590909085,21.9,0.0,0.0,0.0,0.59841,-0.16677000000000003,9.819809999999999
595959590,21.9,0.0,0.0,0.0,0.59841,-0.15696000000000002,9.819809999999999
601010095,21.9,0.0,0.0,0.0,0.5886,-0.14715,9.81
606060600,21.9,0.0,0.0,0.0,0.60822,-0.14715,9.80019
611111105,21.9,0.0,0.0,0.0,0.60822,-0.13734000000000002,9.819809999999999
616161610,21.9,0.0,0.0,0.0,0.60822,-0.17658,9.82962
621212115,21.9,0.0,0.0,0.0,0.59841,-0.15696000000000002,9.83943
626262620,21.9,0.0,0.0,0.0,0.60822,-0.16677000000000003,9.82962
631313125,21.9,0.0,0.0,0.0,0.6180300000000001,-0.18639,9.770760000000001
636363630,21.9,0.0,0.0,0.0,0.6278400000000001,-0.15696000000000002,9.79038
641414135,21.9,0.0,0.0,0.0,0.6180300000000001,-0.16677000000000003,9.81
646464640,21.9,0.0,0.0,0.0,0.6180300000000001,-0.16677000000000003,9.84924
651515145,21.9,0.0,0.0,0.0,0.60822,-0.16677000000000003,9.80019
656565650,21.9,0.0,0.0,0.0,0.59841,-0.16677000000000003,9.78057
661616155,21.9,0.0,0.0,0.0,0.60822,-0.15696000000000002,9.79038
666666660,21.9,0.0,0.0,0.0,0.60822,-0.14715,9.84924
671717165,21.9,0.0,0.0,0.0,0.60822,-0.15696000000000002,9.84924
676767670,21.9,0.0,0.0,0.0,0.5886,-0.13734000000000002,9.82962
681818175,21.9,0.0,0.0,0.0,0.59841,-0.16677000000000003,9.770760000000001
686868680,21.9,0.0,0.0,0.0,0.60822,-0.15696000000000002,9.78057
691919185,21.9,0.0,0.0,0.0,0.60822,-0.15696000000000002,9.84924
696969690,21.9,0.0,0.0,0.0,0.60822,-0.16677000000000003,9.85905
702020195,21.9,0.0,0.0,0.0,0.60822,-0.17658,9.81
707070700,21.9,0.0,0.0,0.0,0.5886,-0.16677000000000003,9.770760000000001
712121205,21.9,0.0,0.0,0.0,0.57879,-0.14715,9.770760000000001
717171710,21.9,0.0,0.0,0.0,0.6180300000000001,-0.14715,9.83943
722222215,21.9,0.0,0.0,0.0,0.60822,-0.13734000000000002,9.84924
727272720,21.9,0.0,0.0,0.0,0.6278400000000001,-0.14715,9.80019
732323225,21.9,0.0,0.0,0.0,0.59841,-0.13734000000000002,9.751140000000001
737373730,21.9,0.0,0.0,0.0,0.59841,-0.15696000000000002,9.78057
742424235,21.9,0.0,0.0,0.0,0.6180300000000001,-0.12753,9.81
747474740,21.9,0.0,0.0,0.0,0.60822,-0.15696000000000002,9.82962
752525245,21.9,0.0,0.0,0.0,0.6180300000000001,-0.15696000000000002,9.83943
757575750,21.9,0.0,0.0,0.0,0.57879,-0.18639,9.79038
762626255,21.9,0.0,0.0,0.0,0.60822,-0.16677000000000003,9.79038
767676760,21.9,0.0,0.0,0.0,0.6180300000000001,-0.1962,9.81
772727265,21.9,0.0,0.0,0.0,0.60822,-0.16677000000000003,9.81
777777770,21.9,0.0,0.0,0.0,0.60822,-0.14715,9.819809999999999
782828275,21.9,0.0,0.0,0.0,0.5886,-0.15696000000000002,9.80019
787878780,21.9,0.0,0.0,0.0,0.5886,-0.15696000000000002,9.79038
792929285,21.9,0.0,0.0,0.0,0.5886,-0.16677000000000003,9.79038
797979790,21.9,0.0,0.0,0.0,0.5886,-0.16677000000000003,9.81
803030295,21.9,0.0,0.0,0.0,0.57879,-0.13734000000000002,9.80019
808080800,21.9,0.0,0.0,0.0,0.59841,-0.12753,9.81
813131305,21.9,0.0,0.0,0.0,0.5886,-0.15696000000000002,9.81
818181810,21.9,0.0,0.0,0.0,0.60822,-0.17658,9.78057
823232315,21.9,0.0,0.0,0.0,0.5886,-0.16677000000000003,9.81
828282820,21.9,0.0,0.0,0.0,0.57879,-0.14715,9.819809999999999
833333325,21.9,0.0,0.0,0.0,0.60822,-0.16677000000000003,9.83943
838383830,21.9,0.0,0.0,0.0,0.6180300000000001,-0.18639,9.81
843434335,21.9,0.0,0.0,0.0,0.59841,-0.17658,9.79038
848484840,21.9,0.0,0.0,0.0,0.57879,-0.15696000000000002,9.770760000000001
853535345,21.9,0.0,0.0,0.0,0.5886,-0.15696000000000002,9.81
858585850,21.9,0.0,0.0,0.0,0.6180300000000001,-0.15696000000000002,9.83943
863636355,21.9,0.0,0.0,0.0,0.6180300000000001,-0.14715,9.819809999999999
868686860,21.9,0.0,0.0,0.0,0.5886,-0.16677000000000003,9.79038
873737365,21.9,0.0,0.0,0.0,0.5886,-0.16677000000000003,9.78057
878787870,21.9,0.0,0.0,0.0,0.5886,-0.14715,9.80019
883838375,21.9,0.0,0.0,0.0,0.6180300000000001,-0.17658,9.85905
888888880,21.9,0.0,0.0,0.0,0.60822,-0.15696000000000002,9.84924
893939385,21.9,0.0,0.0,0.0,0.60822,-0.14715,9.80019
898989890,21.9,0.0,0.0,0.0,0.60822,-0.16677000000000003,9.79038
904040395,21.9,0.0,0.0,0.0,0.60822,-0.17658,9.819809999999999
909090900,21.9,0.0,0.0,0.0,0.59841,-0.15696000000000002,9.83943
914141405,21.9,0.0,0.0,0.0,0.60822,-0.16677000000000003,9.82962
919191910,21.9,0.0,0.0,0.0,0.6180300000000001,-0.16677000000000003,9.770760000000001
924242415,21.9,0.0,0.0,0.0,0.6180300000000001,-0.13734000000000002,9.81
929292920,21.9,0.0,0.0,0.0,0.60822,-0.14715,9.81
934343425,21.9,0.0,0.0,0.0,0.60822,-0.17658,9.85905
939393930,21.9,0.0,0.0,0.0,0.60822,-0.15696000000000002,9.819809999999999
944444435,21.9,0.0,0.0,0.0,0.60822,-0.18639,9.819809999999999
949494940,21.9,0.0,0.0,0.0,0.6180300000000001,-0.15696000000000002,9.79038
954545445,21.9,0.0,0.0,0.0,0.6180300000000001,-0.16677000000000003,9.819809999999999
959595950,21.9,0.0,0.0,0.0,0.59841,-0.13734000000000002,9.84924
964646455,21.9,0.0,0.0,0.0,0.60822,-0.12753,9.80019
969696960,21.9,0.0,0.0,0.0,0.60822,-0.16677000000000003,9.79038
974747465,21.9,0.0,0.0,0.0,0.5886,-0.16677000000000003,9.79038
979797970,21.9,0.0,0.0,0.0,0.59841,-0.17658,9.82962
984848475,21.9,0.0,0.0,0.0,0.60822,-0.14715,9.82962
989898980,21.9,0.0,0.0,0.0,0.60822,-0.16677000000000003,9.80019
994949485,21.9,0.0,0.0,0.0,0.6180300000000001,-0.13734000000000002,9.81
999999990,21.9,0.0,0.0,0.0,0.59841,-0.17658,9.819809999999999
1005050495,21.9,0.0,0.0,0.0,0.5886,-0.14715,9.87867
1010101000,21.9,0.0,0.0,0.0,0.59841,-0.15696000000000002,9.819809999999999
1015151505,21.9,0.0,0.0,0.0,0.59841,-0.16677000000000003,9.760950000000001
1020202010,21.9,0.0,0.0,0.0,0.6180300000000001,-0.14715,9.751140000000001
1025252515,21.9,0.0,0.0,0.0,0.59841,-0.16677000000000003,9.81
1030303020,21.9,0.0,0.0,0.0,0.60822,-0.13734000000000002,9.87867
1035353525,21.9,0.0,0.0,0.0,0.60822,-0.17658,9.84924
1040404030,21.9,0.0,0.0,0.0,0.5886,-0.17658,9.78057
1045454535,21.9,0.0,0.0,0.0,0.57879,-0.13734000000000002,9.751140000000001
1050505040,21.9,0.0,0.0,0.0,0.60822,-0.15696000000000002,9.81
1055555545,21.9,0.0,0.0,0.0,0.60822,-0.15696000000000002,9.819809999999999
1060606050,21.9,0.0,0.0,0.0,0.60822,-0.17658,9.82962
1065656555,21.9,0.0,0.0,0.0,0.60822,-0.14715,9.78057
1070707060,21.9,0.0,0.0,0.0,0.60822,-0.15696000000000002,9.79038
1075757565,21.9,0.0,0.0,0.0,0.60822,-0.13734000000000002,9.82962
1080808070,21.9,0.0,0.0,0.0,0.60822,-0.14715,9.83943
1085858575,21.9,0.0,0.0,0.0,0.60822,-0.14715,9.81
1090909080,21.9,0.0,0.0,0.0,0.6180300000000001,-0.15696000000000002,9.78057
1095959585,21.9,0.0,0.0,0.0,0.60822,-0.17658,9.79038
1101010090,21.9,0.0,0.0,0.0,0.6278400000000001,-0.14715,9.819809999999999
1106060595,21.9,0.0,0.0,0.0,0.6180300000000001,-0.16677000000000003,9.84924
1111111100,21.9,0.0,0.0,0.0,0.6180300000000001,-0.15696000000000002,9.79038
1116161605,21.9,0.0,0.0,0.0,0.60822,-0.15696000000000002,9.770760000000001
1121212110,21.9,0.0,0.0,0.0,0.60822,-0.12753,9.78057
1126262615,21.9,0.0,0.0,0.0,0.6278400000000001,-0.12753,9.84924
1131313120,21.9,0.0,0.0,0.0,0.60822,-0.15696000000000002,9.84924
1136363625,21.9,0.0,0.0,0.0,0.59841,-0.18639,9.81
1141414130,21.9,0.0,0.0,0.0,0.6180300000000001,-0.13734000000000002,9.770760000000001
1146464635,21.9,0.0,0.0,0.0,0.60822,-0.16677000000000003,9.79038
1151515140,21.9,0.0,0.0,0.0,0.60822,-0.14715,9.82962
1156565645,21.9,0.0,0.0,0.0,0.6180300000000001,-0.14715,9.82962
1161616150,21.9,0.0,0.0,0.0,0.57879,-0.15696000000000002,9.81
1166666655,21.9,0.0,0.0,0.0,0.60822,-0.15696000000000002,9.79038
1171717160,21.9,0.0,0.0,0.0,0.5886,-0.16677000000000003,9.80019
1176767665,21.9,0.0,0.0,0.0,0.60822,-0.15696000000000002,9.85905
1181818170,21.9,0.0,0.0,0.0,0.59841,-0.15696000000000002,9.819809999999999
1186868675,21.9,0.0,0.0,0.0,0.60822,-0.15696000000000002,9.78057
1191919180,21.9,0.0,0.0,0.0,0.6278400000000001,-0.16677000000000003,9.80019
1196969685,21.9,0.0,0.0,0.0,0.60822,-0.17658,9.81
1202020190,21.9,0.0,0.0,0.0,0.59841,-0.13734000000000002,9.84924
1207070695,21.9,0.0,0.0,0.0,0.60822,-0.14715,9.819809999999999
1212121200,21.9,0.0,0.0,0.0,0.56898,-0.16677000000000003,9.770760000000001
1217171705,21.9,0.0,0.0,0.0,0.60822,-0.16677000000000003,9.78057
1222222210,21.9,0.0,0.0,0.0,0.59841,-0.14715,9.81
1227272715,21.9,0.0,0.0,0.0,0.6180300000000001,-0.13734000000000002,9.84924
1232323220,21.9,0.0,0.0,0.0,0.59841,-0.16677000000000003,9.82962
1237373725,21.9,0.0,0.0,0.0,0.60822,-0.14715,9.79038
1242424230,21.9,0.0,0.0,0.0,0.60822,-0.14715,9.79038
1247474735,21.9,0.0,0.0,0.0,0.60822,-0.15696000000000002,9.82962
1252525240,21.9,0.0,0.0,0.0,0.60822,-0.14715,9.83943
1257575745,21.9,0.0,0.0,0.0,0.6180300000000001,-0.14715,9.819809999999999
1262626250,21.9,0.0,0.0,0.0,0.59841,-0.16677000000000003,9.79038
1267676755,21.9,0.0,0.0,0.0,0.59841,-0.15696000000000002,9.78057
1272727260,21.9,0.0,0.0,0.0,0.60822,-0.13734000000000002,9.82962
1277777765,21.9,0.0,0.0,0.0,0.6180300000000001,-0.16677000000000003,9.83943
1282828270,21.9,0.0,0.0,0.0,0.60822,-0.18639,9.819809999999999
1287878775,21.9,0.0,0.0,0.0,0.60822,-0.16677000000000003,9.79038
1292929280,21.9,0.0,0.0,0.0,0.59841,-0.16677000000000003,9.81
1297979785,21.9,0.0,0.0,0.0,0.60822,-0.14715,9.81
1303030290,21.9,0.0,0.0,0.0,0.6180300000000001,-0.14715,9.83943
1308080795,21.9,0.0,0.0,0.0,0.6180300000000001,-0.18639,9.81
1313131300,21.9,0.0,0.0,0.0,0.5886,-0.14715,9.81
1318181805,21.9,0.0,0.0,0.0,0.59841,-0.16677000000000003,9.78057
1323232310,21.9,0.0,0.0,0.0,0.5886,-0.17658,9.81
1328282815,21.9,0.0,0.0,0.0,0.6180300000000001,-0.15696000000000002,9.83943
1333333320,21.9,0.0,0.0,0.0,0.59841,-0.13734000000000002,9.82962
1338383825,21.9,0.0,0.0,0.0,0.60822,-0.15696000000000002,9.81
1343434330,21.9,0.0,0.0,0.0,0.57879,-0.14715,9.81
1348484835,21.9,0.0,0.0,0.0,0.56898,-0.15696000000000002,9.82962
1353535340,21.9,0.0,0.0,0.0,0.60822,-0.14715,9.82962
1358585845,21.9,0.0,0.0,0.0,0.59841,-0.17658,9.819809999999999
1363636350,21.9,0.0,0.0,0.0,0.5886,-0.16677000000000003,9.819809999999999
1368686855,21.9,0.0,0.0,0.0,0.5886,-0.16677000000000003,9.81
1373737360,21.9,0.0,0.0,0.0,0.60822,-0.14715,9.81
1378787865,21.9,0.0,0.0,0.0,0.59841,-0.17658,9.819809999999999
1383838370,21.9,0.0,0.0,0.0,0.60822,-0.15696000000000002,9.79038
1388888875,21.9,0.0,0.0,0.0,0.59841,-0.12753,9.81
1393939380,21.9,0.0,0.0,0.0,0.60822,-0.15696000000000002,9.81
1398989885,21.9,0.0,0.0,0.0,0.60822,-0.16677000000000003,9.81
1404040390,21.9,0.0,0.0,0.0,0.6180300000000001,-0.14715,9.819809999999999
1409090895,21.9,0.0,0.0,0.0,0.60822,-0.14715,9.81
1414141400,21.9,0.0,0.0,0.0,0.63765,-0.15696000000000002,9.81
1419191905,21.9,0.0,0.0,0.0,0.5886,-0.14715,9.81
1424242410,21.9,0.0,0.0,0.0,0.60822,-0.18639,9.819809999999999
1429292915,21.9,0.0,0.0,0.0,0.60822,-0.17658,9.79038
1434343420,21.9,0.0,0.0,0.0,0.59841,-0.15696000000000002,9.81
1439393925,21.9,0.0,0.0,0.0,0.60822,-0.14715,9.82962
1444444430,21.9,0.0,0.0,0.0,0.60822,-0.14715,9.82962
1449494935,21.9,0.0,0.0,0.0,0.60822,-0.16677000000000003,9.82962
1454545440,21.9,0.0,0.0,0.0,0.59841,-0.18639,9.78057
1459595945,21.9,0.0,0.0,0.0,0.59841,-0.13734000000000002,9.78057
1464646450,21.9,0.0,0.0,0.0,0.6180300000000001,-0.17658,9.81
1469696955,21.9,0.0,0.0,0.0,0.60822,-0.15696000000000002,9.819809999999999
1474747460,21.9,0.0,0.0,0.0,0.5886,-0.14715,9.79038
1479797965,21.9,0.0,0.0,0.0,0.6180300000000001,-0.16677000000000003,9.79038
1484848470,21.9,0.0,0.0,0.0,0.60822,-0.15696000000000002,9.81
1489898975,21.9,0.0,0.0,0.0,0.5886,-0.17658,9.81
1494949480,21.9,0.0,0.0,0.0,0.60822,-0.14715,9.819809999999999
1499999985,21.9,0.0,0.0,0.0,0.60822,-0.15696000000000002,9.81
1505050490,21.9,0.0,0.0,0.0,0.60822,-0.13734000000000002,9.80019
1510100995,21.9,0.0,0.0,0.0,0.6180300000000001,-0.16677000000000003,9.81
1515151500,21.9,0.0,0.0,0.0,0.60822,-0.14715,9.84924
1520202005,21.9,0.0,0.0,0.0,0.6278400000000001,-0.17658,9.81
1525252510,21.9,0.0,0.0,0.0,0.59841,-0.15696000000000002,9.80019
1530303015,21.9,0.0,0.0,0.0,0.59841,-0.13734000000000002,9.79038
1535353520,21.9,0.0,0.0,0.0,0.60822,-0.13734000000000002,9.81
1540404025,21.9,0.0,0.0,0.0,0.60822,-0.13734000000000002,9.82962
1545454530,21.9,0.0,0.0,0.0,0.6278400000000001,-0.16677000000000003,9.82962
1550505035,21.9,0.0,0.0,0.0,0.60822,-0.13734000000000002,9.81
1555555540,21.9,0.0,0.0,0.0,0.5886,-0.18639,9.80019
1560606045,21.9,0.0,0.0,0.0,0.59841,-0.13734000000000002,9.81
1565656550,21.9,0.0,0.0,0.0,0.60822,-0.17658,9.819809999999999
1570707055,21.9,0.0,0.0,0.0,0.60822,-0.15696000000000002,9.80019
1575757560,21.9,0.0,0.0,0.0,0.59841,-0.16677000000000003,9.81
1580808065,21.9,0.0,0.0,0.0,0.59841,-0.15696000000000002,9.79038
1585858570,21.9,0.0,0.0,0.0,0.6180300000000001,-0.14715,9.82962
1590909075,21.9,0.0,0.0,0.0,0.60822,-0.12753,9.81
1595959580,21.9,0.0,0.0,0.0,0.60822,-0.14715,9.81
1601010085,21.9,0.0,0.0,0.0,0.59841,-0.14715,9.79038
1606060590,21.9,0.0,0.0,0.0,0.6180300000000001,-0.17658,9.80019
1611111095,21.9,0.0,0.0,0.0,0.60822,-0.15696000000000002,9.84924
1616161600,21.9,0.0,0.0,0.0,0.60822,-0.15696000000000002,9.83943
1621212105,21.9,0.0,0.0,0.0,0.6180300000000001,-0.16677000000000003,9.80019
1626262610,21.9,0.0,0.0,0.0,0.59841,-0.16677000000000003,9.79038
1631313115,21.9,0.0,0.0,0.0,0.60822,-0.15696000000000002,9.819809999999999
1636363620,21.9,0.0,0.0,0.0,0.60822,-0.15696000000000002,9.84924
1641414125,21.9,0.0,0.0,0.0,0.60822,-0.15696000000000002,9.81
1646464630,21.9,0.0,0.0,0.0,0.60822,-0.13734000000000002,9.819809999999999
1651515135,21.9,0.0,0.0,0.0,0.59841,-0.16677000000000003,9.79038
1656565640,21.9,0.0,0.0,0.0,0.6278400000000001,-0.13734000000000002,9.82962
1661616145,21.9,0.0,0.0,0.0,0.57879,-0.15696000000000002,9.81
1666666650,21.9,0.0,0.0,0.0,0.60822,-0.14715,9.83943
1671717155,21.9,0.0,0.0,0.0,0.57879,-0.15696000000000002,9.770760000000001
1676767660,21.9,0.0,0.0,0.0,0.6180300000000001,-0.13734000000000002,9.819809999999999
1681818165,21.9,0.0,0.0,0.0,0.60822,-0.14715,9.84924
1686868670,21.9,0.0,0.0,0.0,0.57879,-0.15696000000000002,9.82962
1691919175,21.9,0.0,0.0,0.0,0.6180300000000001,-0.17658,9.80019
1696969680,21.9,0.0,0.0,0.0,0.60822,-0.18639,9.80019
1702020185,21.9,0.0,0.0,0.0,0.60822,-0.16677000000000003,9.81
1707070690,21.9,0.0,0.0,0.0,0.59841,-0.13734000000000002,9.82962
1712121195,21.9,0.0,0.0,0.0,0.59841,-0.16677000000000003,9.84924
1717171700,21.9,0.0,0.0,0.0,0.60822,-0.16677000000000003,9.81
1722222205,21.9,0.0,0.0,0.0,0.60822,-0.14715,9.80019
1727272710,21.9,0.0,0.0,0.0,0.60822,-0.15696000000000002,9.80019
1732323215,21.9,0.0,0.0,0.0,0.59841,-0.14715,9.83943
1737373720,21.9,0.0,0.0,0.0,0.59841,-0.14715,9.82962
1742424225,21.9,0.0,0.0,0.0,0.60822,-0.14715,9.770760000000001
1747474730,21.9,0.0,0.0,0.0,0.6180300000000001,-0.14715,9.80019
1752525235,21.9,0.0,0.0,0.0,0.6180300000000001,-0.16677000000000003,9.82962
1757575740,21.9,0.0,0.0,0.0,0.6180300000000001,-0.14715,9.81
1762626245,21.9,0.0,0.0,0.0,0.60822,-0.16677000000000003,9.80019
1767676750,21.9,0.0,0.0,0.0,0.5886,-0.17658,9.770760000000001
1772727255,21.9,0.0,0.0,0.0,0.6278400000000001,-0.16677000000000003,9.79038
1777777760,21.9,0.0,0.0,0.0,0.6180300000000001,-0.16677000000000003,9.83943
1782828265,21.9,0.0,0.0,0.0,0.60822,-0.16677000000000003,9.84924
1787878770,21.9,0.0,0.0,0.0,0.60822,-0.14715,9.81
1792929275,21.9,0.0,0.0,0.0,0.60822,-0.14715,9.79038
1797979780,21.9,0.0,0.0,0.0,0.60822,-0.15696000000000002,9.81
1803030285,21.9,0.0,0.0,0.0,0.59841,-0.13734000000000002,9.83943
1808080790,21.9,0.0,0.0,0.0,0.5886,-0.16677000000000003,9.83943
1813131295,21.9,0.0,0.0,0.0,0.59841,-0.17658,9.81
1818181800,21.9,0.0,0.0,0.0,0.60822,-0.15696000000000002,9.81
1823232305,21.9,0.0,0.0,0.0,0.60822,-0.15696000000000002,9.819809999999999
1828282810,21.9,0.0,0.0,0.0,0.6180300000000001,-0.14715,9.81
1833333315,21.9,0.0,0.0,0.0,0.59841,-0.15696000000000002,9.83943
1838383820,21.9,0.0,0.0,0.0,0.60822,-0.14715,9.81
1843434325,21.9,0.0,0.0,0.0,0.57879,-0.16677000000000003,9.80019
1848484830,21.9,0.0,0.0,0.0,0.60822,-0.18639,9.80019
1853535335,21.9,0.0,0.0,0.0,0.6180300000000001,-0.14715,9.81
1858585840,21.9,0.0,0.0,0.0,0.60822,-0.16677000000000003,9.81
1863636345,21.9,0.0,0.0,0.0,0.6278400000000001,-0.16677000000000003,9.81
1868686850,21.9,0.0,0.0,0.0,0.59841,-0.14715,9.79038
1873737355,21.9,0.0,0.0,0.0,0.59841,-0.14715,9.79038
1878787860,21.9,0.0,0.0,0.0,0.5886,-0.16677000000000003,9.81
1883838365,21.9,0.0,0.0,0.0,0.5886,-0.14715,9.81
1888888870,21.9,0.0,0.0,0.0,0.60822,-0.14715,9.81
1893939375,21.9,0.0,0.0,0.0,0.6180300000000001,-0.14715,9.770760000000001
1898989880,21.9,0.0,0.0,0.0,0.5886,-0.16677000000000003,9.81
1904040385,21.9,0.0,0.0,0.0,0.60822,-0.18639,9.83943
1909090890,21.9,0.0,0.0,0.0,0.60822,-0.16677000000000003,9.83943
1914141395,21.9,0.0,0.0,0.0,0.60822,-0.15696000000000002,9.82962
1919191900,21.9,0.0,0.0,0.0,0.59841,-0.17658,9.81
1924242405,21.9,0.0,0.0,0.0,0.59841,-0.15696000000000002,9.81
1929292910,21.9,0.0,0.0,0.0,0.59841,-0.15696000000000002,9.80019
1934343415,21.9,0.0,0.0,0.0,0.6278400000000001,-0.15696000000000002,9.819809999999999
1939393920,21.9,0.0,0.0,0.0,0.6180300000000001,-0.16677000000000003,9.819809999999999
1944444425,21.9,0.0,0.0,0.0,0.59841,-0.15696000000000002,9.819809999999999
1949494930,21.9,0.0,0.0,0.0,0.59841,-0.15696000000000002,9.81
1954545435,21.9,0.0,0.0,0.0,0.6180300000000001,-0.16677000000000003,9.81
1959595940,21.9,0.0,0.0,0.0,0.59841,-0.12753,9.79038
1964646445,21.9,0.0,0.0,0.0,0.60822,-0.14715,9.81
1969696950,21.9,0.0,0.0,0.0,0.60822,-0.14715,9.85905
1974747455,21.9,0.0,0.0,0.0,0.60822,-0.20601000000000003,9.81
1979797960,21.9,0.0,0.0,0.0,0.59841,-0.15696000000000002,9.81
1984848465,21.9,0.0,0.0,0.0,0.59841,-0.17658,9.80019
1989898970,21.9,0.0,0.0,0.0,0.59841,-0.16677000000000003,9.82962
1994949475,21.9,0.0,0.0,0.0,0.60822,-0.18639,9.82962
1999999980,21.9,0.0,0.0,0.0,0.60822,-0.14715,9.82962
2005050485,21.9,0.0,0.0,0.0,0.59841,-0.17658,9.79038
2010100990,21.9,0.0,0.0,0.0,0.60822,-0.14715,9.78057
2015151495,21.9,0.0,0.0,0.0,0.60822,-0.16677000000000003,9.82962
2020202000,21.9,0.0,0.0,0.0,0.6180300000000001,-0.15696000000000002,9.86886
2025252505,21.9,0.0,0.0,0.0,0.59841,-0.14715,9.819809999999999
2030303010,21.9,0.0,0.0,0.0,0.5886,-0.14715,9.79038
2035353515,21.9,0.0,0.0,0.0,0.59841,-0.13734000000000002,9.770760000000001
2040404020,21.9,0.0,0.0,0.0,0.60822,-0.16677000000000003,9.80019
2045454525,21.9,0.0,0.0,0.0,0.6180300000000001,-0.17658,9.86886
2050505030,21.9,0.0,0.0,0.0,0.59841,-0.15696000000000002,9.83943
2055555535,21.9,0.0,0.0,0.0,0.59841,-0.14715,9.79038
2060606040,21.9,0.0,0.0,0.0,0.60822,-0.13734000000000002,9.79038
2065656545,21.9,0.0,0.0,0.0,0.60822,-0.18639,9.82962
2070707050,21.9,0.0,0.0,0.0,0.59841,-0.16677000000000003,9.82962
2075757555,21.9,0.0,0.0,0.0,0.60822,-0.14715,9.82962
2080808060,21.9,0.0,0.0,0.0,0.59841,-0.15696000000000002,9.81
2085858565,21.9,0.0,0.0,0.0,0.60822,-0.13734000000000002,9.79038
2090909070,21.9,0.0,0.0,0.0,0.59841,-0.16677000000000003,9.81
2095959575,21.9,0.0,0.0,0.0,0.57879,-0.12753,9.819809999999999
2101010080,21.9,0.0,0.0,0.0,0.60822,-0.16677000000000003,9.81
2106060585,21.9,0.0,0.0,0.0,0.59841,-0.14715,9.760950000000001
2111111090,21.9,0.0,0.0,0.0,0.60822,-0.15696000000000002,9.80019
2116161595,21.9,0.0,0.0,0.0,0.5886,-0.16677000000000003,9.82962
2121212100,21.9,0.0,0.0,0.0,0.59841,-0.15696000000000002,9.82962
2126262605,21.9,0.0,0.0,0.0,0.59841,-0.14715,9.79038
2131313110,21.9,0.0,0.0,0.0,0.59841,-0.17658,9.79038
2136363615,21.9,0.0,0.0,0.0,0.57879,-0.15696000000000002,9.80019
2141414120,21.9,0.0,0.0,0.0,0.60822,-0.15696000000000002,9.81
2146464625,21.9,0.0,0.0,0.0,0.60822,-0.16677000000000003,9.81
2151515130,21.9,0.0,0.0,0.0,0.59841,-0.17658,9.819809999999999
2156565635,21.9,0.0,0.0,0.0,0.60822,-0.15696000000000002,9.770760000000001
2161616140,21.9,0.0,0.0,0.0,0.59841,-0.13734000000000002,9.84924
2166666645,21.9,0.0,0.0,0.0,0.5886,-0.16677000000000003,9.80019
2171717150,21.9,0.0,0.0,0.0,0.60822,-0.12753,9.79038
2176767655,21.9,0.0,0.0,0.0,0.59841,-0.15696000000000002,9.78057
2181818160,21.9,0.0,0.0,0.0,0.59841,-0.14715,9.81
2186868665,21.9,0.0,0.0,0.0,0.6278400000000001,-0.15696000000000002,9.85905
2191919170,21.9,0.0,0.0,0.0,0.60822,-0.13734000000000002,9.82962
2196969675,21.9,0.0,0.0,0.0,0.6180300000000001,-0.16677000000000003,9.80019
2202020180,21.9,0.0,0.0,0.0,0.57879,-0.14715,9.74133
2207070685,21.9,0.0,0.0,0.0,0.5886,-0.17658,9.80019
2212121190,21.9,0.0,0.0,0.0,0.60822,-0.13734000000000002,9.82962
2217171695,21.9,0.0,0.0,0.0,0.60822,-0.15696000000000002,9.85905
2222222200,21.9,0.0,0.0,0.0,0.59841,-0.16677000000000003,9.80019
2227272705,21.9,0.0,0.0,0.0,0.5886,-0.17658,9.770760000000001
2232323210,21.9,0.0,0.0,0.0,0.60822,-0.14715,9.78057
2237373715,21.9,0.0,0.0,0.0,0.59841,-0.17658,9.82962
2242424220,21.9,0.0,0.0,0.0,0.60822,-0.14715,9.85905
2247474725,21.9,0.0,0.0,0.0,0.60822,-0.16677000000000003,9.80019
2252525230,21.9,0.0,0.0,0.0,0.59841,-0.16677000000000003,9.78057
2257575735,21.9,0.0,0.0,0.0,0.60822,-0.17658,9.79038
2262626240,21.9,0.0,0.0,0.0,0.59841,-0.15696000000000002,9.82962
2267676745,21.9,0.0,0.0,0.0,0.60822,-0.17658,9.85905
2272727250,21.9,0.0,0.0,0.0,0.60822,-0.15696000000000002,9.80019
2277777755,21.9,0.0,0.0,0.0,0.60822,-0.18639,9.770760000000001
2282828260,21.9,0.0,0.0,0.0,0.60822,-0.15696000000000002,9.79038
2287878765,21.9,0.0,0.0,0.0,0.60822,-0.17658,9.84924
2292929270,21.9,0.0,0.0,0.0,0.59841,-0.13734000000000002,9.83943
2297979775,21.9,0.0,0.0,0.0,0.59841,-0.15696000000000002,9.819809999999999
2303030280,21.9,0.0,0.0,0.0,0.57879,-0.14715,9.751140000000001
2308080785,21.9,0.0,0.0,0.0,0.6180300000000001,-0.15696000000000002,9.79038
2313131290,21.9,0.0,0.0,0.0,0.60822,-0.14715,9.819809999999999
2318181795,21.9,0.0,0.0,0.0,0.6278400000000001,-0.12753,9.84924
2323232300,21.9,0.0,0.0,0.0,0.6180300000000001,-0.16677000000000003,9.81
2328282805,21.9,0.0,0.0,0.0,0.59841,-0.15696000000000002,9.770760000000001
2333333310,21.9,0.0,0.0,0.0,0.6278400000000001,-0.14715,9.770760000000001
2338383815,21.9,0.0,0.0,0.0,0.6180300000000001,-0.15696000000000002,9.80019
2343434320,21.9,0.0,0.0,0.0,0.59841,-0.16677000000000003,9.83943
2348484825,21.9,0.0,0.0,0.0,0.60822,-0.14715,9.819809999999999
2353535330,21.9,0.0,0.0,0.0,0.60822,-0.17658,9.819809999999999
2358585835,21.9,0.0,0.0,0.0,0.59841,-0.15696000000000002,9.81
2363636340,21.9,0.0,0.0,0.0,0.60822,-0.15696000000000002,9.81
2368686845,21.9,0.0,0.0,0.0,0.60822,-0.15696000000000002,9.80019
2373737350,21.9,0.0,0.0,0.0,0.59841,-0.14715,9.79038
2378787855,21.9,0.0,0.0,0.0,0.60822,-0.14715,9.819809999999999
2383838360,21.9,0.0,0.0,0.0,0.63765,-0.13734000000000002,9.819809999999999
2388888865,21.9,0.0,0.0,0.0,0.59841,-0.16677000000000003,9.83943
2393939370,21.9,0.0,0.0,0.0,0.6180300000000001,-0.18639,9.83943
2398989875,21.9,0.0,0.0,0.0,0.6180300000000001,-0.16677000000000003,9.80019
2404040380,21.9,0.0,0.0,0.0,0.60822,-0.13734000000000002,9.80019
2409090885,21.9,0.0,0.0,0.0,0.59841,-0.15696000000000002,9.82962
2414141390,21.9,0.0,0.0,0.0,0.60822,-0.11772,9.78057
2419191895,21.9,0.0,0.0,0.0,0.60822,-0.18639,9.79038
2424242400,21.9,0.0,0.0,0.0,0.6180300000000001,-0.17658,9.80019
2429292905,21.9,0.0,0.0,0.0,0.60822,-0.14715,9.85905
2434343410,21.9,0.0,0.0,0.0,0.5886,-0.14715,9.81
2439393915,21.9,0.0,0.0,0.0,0.59841,-0.17658,9.80019
2444444420,21.9,0.0,0.0,0.0,0.5886,-0.14715,9.760950000000001
2449494925,21.9,0.0,0.0,0.0,0.6180300000000001,-0.16677000000000003,9.81
2454545430,21.9,0.0,0.0,0.0,0.6278400000000001,-0.18639,9.85905
2459595935,21.9,0.0,0.0,0.0,0.6278400000000001,-0.15696000000000002,9.85905
2464646440,21.9,0.0,0.0,0.0,0.5886,-0.17658,9.78057
2469696945,21.9,0.0,0.0,0.0,0.60822,-0.15696000000000002,9.78057
2474747450,21.9,0.0,0.0,0.0,0.5886,-0.16677000000000003,9.79038
2479797955,21.9,0.0,0.0,0.0,0.59841,-0.15696000000000002,9.84924
2484848460,21.9,0.0,0.0,0.0,0.6180300000000001,-0.16677000000000003,9.85905
2489898965,21.9,0.0,0.0,0.0,0.60822,-0.16677000000000003,9.80019
2494949470,21.9,0.0,0.0,0.0,0.59841,-0.17658,9.760950000000001
2499999975,21.9,0.0,0.0,0.0,0.6278400000000001,-0.17658,9.80019
2505050480,21.9,0.0,0.0,0.0,0.60822,-0.14715,9.84924
2510100985,21.9,0.0,0.0,0.0,0.6180300000000001,-0.15696000000000002,9.83943
2515151490,21.9,0.0,0.0,0.0,0.60822,-0.13734000000000002,9.770760000000001
2520201995,21.9,0.0,0.0,0.0,0.5886,-0.11772,9.760950000000001
2525252500,21.9,0.0,0.0,0.0,0.59841,-0.15696000000000002,9.81
2530303005,21.9,0.0,0.0,0.0,0.60822,-0.15696000000000002,9.85905
2535353510,21.9,0.0,0.0,0.0,0.60822,-0.15696000000000002,9.81
2540404015,21.9,0.0,0.0,0.0,0.6180300000000001,-0.15696000000000002,9.760950000000001
2545454520,21.9,0.0,0.0,0.0,0.60822,-0.18639,9.78057
2550505025,21.9,0.0,0.0,0.0,0.60822,-0.14715,9.819809999999999
2555555530,21.9,0.0,0.0,0.0,0.5886,-0.1962,9.84924
2560606035,21.9,0.0,0.0,0.0,0.60822,-0.14715,9.82962
2565656540,21.9,0.0,0.0,0.0,0.57879,-0.16677000000000003,9.751140000000001
2570707045,21.9,0.0,0.0,0.0,0.60822,-0.14715,9.78057
2575757550,21.9,0.0,0.0,0.0,0.6180300000000001,-0.17658,9.84924
2580808055,21.9,0.0,0.0,0.0,0.60822,-0.13734000000000002,9.85905
2585858560,21.9,0.0,0.0,0.0,0.60822,-0.16677000000000003,9.82962
2590909065,21.9,0.0,0.0,0.0,0.59841,-0.14715,9.73152
2595959570,21.9,0.0,0.0,0.0,0.59841,-0.15696000000000002,9.78057
2601010075,21.9,0.0,0.0,0.0,0.59841,-0.15696000000000002,9.82962
2606060580,21.9,0.0,0.0,0.0,0.6180300000000001,-0.14715,9.84924
2611111085,21.9,0.0,0.0,0.0,0.60822,-0.15696000000000002,9.79038
2616161590,21.9,0.0,0.0,0.0,0.60822,-0.15696000000000002,9.751140000000001
2621212095,21.9,0.0,0.0,0.0,0.59841,-0.15696000000000002,9.80019
2626262600,21.9,0.0,0.0,0.0,0.60822,-0.15696000000000002,9.82962
2631313105,21.9,0.0,0.0,0.0,0.59841,-0.15696000000000002,9.84924
2636363610,21.9,0.0,0.0,0.0,0.60822,-0.11772,9.80019
2641414115,21.9,0.0,0.0,0.0,0.59841,-0.16677000000000003,9.74133
2646464620,21.9,0.007452555906015787,0.04153883619746504,0.0,0.52974,0.04905,9.73152
2651515125,21.9,0.011711159280881954,0.08948303074974927,0.0,0.46107000000000004,-0.04905,10.09449
2656565630,21.9,0.002129301687433082,0.15872024217636432,0.01811651763570114,0.45126,0.0,9.770760000000001
2661616135,21.9,0.001064650843716541,0.15339698795778162,-0.003193952531149623,0.14715,0.02943,9.152730000000002
2666666640,21.9,-0.02663372438543347,0.09161233243718235,0.003193952531149623,0.16677000000000003,0.0,9.751140000000001
2671717145,21.9,-0.015987215948268057,0.07456046564519776,0.005323254218582705,0.07848000000000001,0.0,10.29069
2676767650,21.9,-0.03515093113516579,-0.02982767691658309,-0.003193952531149623,0.06867000000000001,-0.07848000000000001,10.58499
2681818155,21.9,-0.02663372438543347,-0.06923721142661506,0.0,0.1962,-0.30411,9.85905
2686868660,21.9,-0.03728023282259888,-0.18109536318693162,-0.012775810124598492,0.1962,-0.41202000000000005,9.43722
2691919165,21.9,-0.031956978604016174,-0.23649211364523165,-0.003193952531149623,0.57879,-0.5591700000000001,9.25083
2696969670,21.9,-0.001064650843716541,-0.24394466955124744,-0.00958185759344887,0.73575,-0.57879,9.89829
2702020175,21.9,0.022375121010567305,-0.2236988502281132,-0.008517206749732328,1.1870100000000001,-0.49050000000000005,10.50651
2707070680,21.9,0.03834488366631542,-0.14381513036433274,-0.001064650843716541,1.24587,-0.42183,10.31031
2712121185,21.9,0.05965535383316618,-0.06817256058289851,-0.003193952531149623,1.15758,-0.27468000000000004,9.496080000000001
2717171690,21.9,0.08203047484373349,0.0,0.006387905062299246,1.1281500000000002,-0.14715,9.10368
2722222195,21.9,0.09161233243718235,0.02982767691658309,-0.001064650843716541,1.02024,0.009810000000000001,9.182160000000001
2727272700,21.9,0.08309512568745003,0.05646140130201656,0.013840460968315033,1.02024,0.25506,10.19259
2732323205,21.9,0.04794419455228423,0.04581489286485115,0.002129301687433082,0.8829,0.21582,10.32993
2737373710,21.9,0.004258603374866164,0.003193952531149623,0.0,0.8829,0.24525000000000002,10.19259
2742424215,21.9,-0.0170518667919846,0.01811651763570114,-0.004258603374866164,0.84366,0.08829,9.69228
2747474720,21.9,-0.023439771854283843,-0.01064650843716541,-0.004258603374866164,0.8142300000000001,0.05886,9.084060000000001
2752525225,21.9,-0.033021629447732716,0.04581489286485115,0.007452555906015787,0.9123300000000001,0.019620000000000002,9.45684
2757575730,21.9,-0.04794419455228423,0.08628907821859966,-0.001064650843716541,0.8240400000000001,-0.05886,9.83943
2762626235,21.9,-0.05326744877086694,0.14062117783318315,0.008517206749732328,0.7749900000000001,-0.11772,10.045440000000001
2767676740,21.9,-0.06178465552059926,0.18961256993666398,0.006387905062299246,0.57879,-0.17658,9.84924
2772727245,21.9,-0.06284930636431581,0.1704488547497662,0.006387905062299246,0.47088,-0.25506,9.68247
2777777750,21.9,-0.05752605214573309,0.1374272253020335,0.006387905062299246,0.32373,-0.30411,9.760950000000001
2782828255,21.9,-0.04366813788489812,0.05752605214573309,-0.001064650843716541,0.26487,-0.40221,9.94734
2787878760,21.9,-0.031956978604016174,0.014905111812031574,0.001064650843716541,0.30411,-0.37278,10.03563
2792929265,21.9,-0.021310470166850764,-0.006387905062299246,-0.007452555906015787,0.34335000000000004,-0.44145,10.05525
2797979770,21.9,-0.001064650843716541,-0.0,-0.001064650843716541,0.34335000000000004,-0.47088,9.819809999999999
2803030275,21.9,0.0170518667919846,0.03515093113516579,0.0,0.31392000000000003,-0.30411,9.6138
2808080780,21.9,0.02982767691658309,0.03408628029144926,0.001064650843716541,0.25506,-0.23544,9.53532
2813131285,21.9,0.039409534510031964,0.04794419455228423,0.007452555906015787,0.24525000000000002,-0.12753,9.819809999999999
2818181790,21.9,0.04581489286485115,0.04153883619746504,-0.001064650843716541,0.16677000000000003,0.0,10.025820000000001
2823232295,21.9,0.02982767691658309,0.02769837522915001,0.005323254218582705,0.18639,0.0,10.280880000000002
2828282800,21.9,0.022375121010567305,0.021310470166850764,-0.001064650843716541,0.12753,0.06867000000000001,9.73152
2833333305,21.9,0.007452555906015787,-0.023439771854283843,-0.002129301687433082,0.11772,-0.009810000000000001,9.55494
2838383810,21.9,0.003193952531149623,-0.04153883619746504,0.0,0.17658,-0.019620000000000002,9.57456
2843434315,21.9,-0.015987215948268057,-0.09267698328089889,-0.007452555906015787,0.22563,-0.0981,9.78057
2848484820,21.9,-0.01811651763570114,-0.1097288500728835,0.006387905062299246,0.43164,-0.1962,10.25145
2853535325,21.9,-0.02663372438543347,-0.1480737337391989,-0.004258603374866164,0.51012,-0.27468000000000004,9.95715
2858585830,21.9,-0.01811651763570114,-0.18109536318693162,-0.005323254218582705,0.6768900000000001,-0.37278,9.770760000000001
2863636335,21.9,-0.002129301687433082,-0.20347048419749894,-0.00958185759344887,0.8142300000000001,-0.3924,9.68247
2868686840,21.9,0.00958185759344887,-0.22263419938439669,-0.01064650843716541,1.03986,-0.42183,9.751140000000001
2873737345,21.9,0.028763026072866547,-0.18428931571808121,-0.007452555906015787,1.1870100000000001,-0.37278,9.92772
2878787850,21.9,0.044732788728614664,-0.13421581947836395,-0.007452555906015787,1.2851100000000002,-0.31392000000000003,9.7119
2883838355,21.9,0.05965535383316618,-0.06178465552059926,0.002129301687433082,1.34397,-0.17658,9.72171
2888888860,21.9,0.06817256058289851,0.0,0.001064650843716541,1.29492,-0.019620000000000002,9.55494
2893939365,21.9,0.06817256058289851,0.046879543708567686,0.004258603374866164,1.21644,0.08829,9.74133
2898989870,21.9,0.05859070298944965,0.0852244273748831,0.008517206749732328,1.1281500000000002,0.24525000000000002,9.770760000000001
2904040375,21.9,0.031956978604016174,0.10759954838545042,-0.002129301687433082,1.00062,0.25506,9.82962
2909090880,21.9,0.003193952531149623,0.1480737337391989,0.003193952531149623,0.86328,0.27468000000000004,9.87867
2914141385,21.9,-0.02982767691658309,0.17470745812463237,0.006387905062299246,0.71613,0.20601000000000003,9.69228
2919191890,21.9,-0.046879543708567686,0.18641861740551433,0.003193952531149623,0.57879,0.14715,9.633420000000001
2924242395,21.9,-0.07349581480148122,0.177901410655782,0.004258603374866164,0.43164,0.019620000000000002,9.69228
2929292900,21.9,-0.0852244273748831,0.18109536318693162,0.00958185759344887,0.35316,-0.10791,9.85905
2934343405,21.9,-0.09480628496833199,0.1374272253020335,0.006387905062299246,0.22563,-0.28449,10.01601
2939393910,21.9,-0.09054768159346581,0.11505210429146619,0.003193952531149623,0.18639,-0.46107000000000004,10.06506
2944444415,21.9,-0.08203047484373349,0.046879543708567686,-0.002129301687433082,0.10791,-0.60822,10.01601
2949494920,21.9,-0.060720004676882725,0.014905111812031574,0.001064650843716541,0.15696000000000002,-0.6670800000000001,9.70209
2954545425,21.9,-0.031956978604016174,-0.020245819323134222,-0.005323254218582705,0.13734000000000002,-0.6867000000000001,9.751140000000001
2959595930,21.9,0.004258603374866164,-0.05113814708343386,0.0,0.20601000000000003,-0.60822,9.73152
2964646435,21.9,0.03834488366631542,-0.049008845396000776,0.0,0.27468000000000004,-0.48069000000000006,9.81
2969696940,21.9,0.060720004676882725,-0.07883652231258387,0.0,0.36297,-0.30411,9.908100000000001
2974747445,21.9,0.0756251164889143,-0.0756251164889143,0.002129301687433082,0.41202000000000005,-0.12753,10.03563
2979797950,21.9,0.0756251164889143,-0.09693558665576507,-0.007452555906015787,0.47088,-0.04905,9.95715
2984848455,21.9,0.07777187146886733,-0.09054768159346581,0.0,0.52974,0.02943,9.751140000000001
2989898960,21.9,0.06817256058289851,-0.09800023749948161,-0.004258603374866164,0.5493600000000001,0.10791,9.64323
2994949465,21.9,0.05113814708343386,-0.09906488834319814,-0.002129301687433082,0.6278400000000001,0.14715,9.56475
2999999970,21.9,0.03089232776029963,-0.0852244273748831,-0.001064650843716541,0.69651,0.14715,9.760950000000001
3005050475,21.9,0.01064650843716541,-0.07670722062515077,0.0,0.7848,0.11772,9.888480000000001
3010100980,21.9,0.001064650843716541,-0.04153883619746504,-0.001064650843716541,0.8338500000000001,0.07848000000000001,9.94734
3015151485,21.9,-0.022375121010567305,-0.028763026072866547,0.0,0.8240400000000001,0.009810000000000001,9.79038
3020201990,21.9,-0.02769837522915001,-0.006387905062299246,0.002129301687433082,0.8338500000000001,-0.08829,9.55494
3025252495,21.9,-0.03834488366631542,-0.001064650843716541,-0.002129301687433082,0.8338500000000001,-0.17658,9.7119
3030303000,21.9,-0.0404741853537485,0.00958185759344887,0.002129301687433082,0.8829,-0.21582,9.86886
3035353505,21.9,-0.044732788728614664,0.02556907354171693,0.001064650843716541,0.85347,-0.30411,10.03563
3040404010,21.9,-0.03515093113516579,0.031956978604016174,0.003193952531149623,0.85347,-0.37278,9.84924
3045454515,21.9,-0.022375121010567305,0.03621558197888234,0.0,0.79461,-0.36297,9.633420000000001
3050505020,21.9,-0.00958185759344887,0.03515093113516579,0.001064650843716541,0.7651800000000001,-0.32373,9.65304
3055555525,21.9,0.006387905062299246,0.03408628029144926,0.001064650843716541,0.71613,-0.26487,9.84924
3060606030,21.9,0.013840460968315033,0.0404741853537485,-0.001064650843716541,0.71613,-0.22563,10.163160000000001
3065656535,21.9,0.01811651763570114,0.05646140130201656,-0.002129301687433082,0.63765,-0.14715,10.074869999999999
3070707040,21.9,0.015987215948268057,0.05646140130201656,0.0,0.57879,-0.12753,9.64323
3075757545,21.9,0.01918116847941768,0.06604325889546543,0.006387905062299246,0.49050000000000005,-0.0981,9.39798
3080808050,21.9,0.011711159280881954,0.05539675045830002,0.003193952531149623,0.41202000000000005,-0.02943,9.60399
3085858555,21.9,0.003193952531149623,0.05539675045830002,0.003193952531149623,0.42183,0.009810000000000001,9.96696
3090909060,21.9,0.0,0.04794419455228423,0.001064650843716541,0.37278,0.0,10.2024
3095959565,21.9,-0.01064650843716541,0.03408628029144926,0.001064650843716541,0.36297,-0.07848000000000001,9.98658
3101010070,21.9,-0.015987215948268057,0.022375121010567305,0.0,0.31392000000000003,-0.07848000000000001,9.59418
3106060575,21.9,-0.02663372438543347,-0.008517206749732328,0.0,0.30411,-0.1962,9.56475
3111111080,21.9,-0.02663372438543347,-0.02556907354171693,0.0,0.38259000000000004,-0.26487,9.751140000000001
3116161585,21.9,-0.022375121010567305,-0.0404741853537485,-0.002129301687433082,0.46107000000000004,-0.30411,10.025820000000001
3121212090,21.9,-0.013840460968315033,-0.04794419455228423,0.001064650843716541,0.51993,-0.32373,10.01601
3126262595,21.9,-0.004258603374866164,-0.05113814708343386,-0.001064650843716541,0.5493600000000001,-0.34335000000000004,9.78057
3131313100,21.9,0.003193952531149623,-0.054332099614583476,-0.003193952531149623,0.57879,-0.2943,9.633420000000001
3136363605,21.9,0.015987215948268057,-0.04794419455228423,-0.004258603374866164,0.6278400000000001,-0.26487,9.74133
3141414110,21.9,0.023439771854283843,-0.03834488366631542,-0.001064650843716541,0.6867000000000001,-0.16677000000000003,9.96696
3146464615,21.9,0.02663372438543347,-0.02982767691658309,0.0,0.6768900000000001,-0.14715,9.96696
3151515120,21.9,0.022375121010567305,-0.02663372438543347,0.0,0.6867000000000001,-0.12753,9.83943
3156565625,21.9,0.022375121010567305,-0.022375121010567305,0.0,0.69651,-0.08829,9.6138
3161616130,21.9,0.021310470166850764,-0.02556907354171693,0.0,0.69651,-0.019620000000000002,9.70209
3166666635,21.9,0.01918116847941768,-0.014905111812031574,0.002129301687433082,0.71613,-0.039240000000000004,9.83943
3171717140,21.9,0.005323254218582705,-0.004258603374866164,0.0,0.69651,-0.04905,9.888480000000001
3176767645,21.9,-0.003193952531149623,0.003193952531149623,0.0,0.6867000000000001,-0.009810000000000001,9.888480000000001
3181818150,21.9,-0.008517206749732328,0.00958185759344887,0.003193952531149623,0.70632,-0.10791,9.81
3186868655,21.9,-0.015987215948268057,0.013840460968315033,0.0,0.6768900000000001,-0.14715,9.78057
3191919160,21.9,-0.01811651763570114,0.005323254218582705,0.001064650843716541,0.6670800000000001,-0.1962,9.760950000000001
3196969665,21.9,-0.0170518667919846,0.005323254218582705,0.0,0.6670800000000001,-0.20601000000000003,9.770760000000001
3202020170,21.9,-0.013840460968315033,0.005323254218582705,0.0,0.6768900000000001,-0.22563,9.770760000000001
3207070675,21.9,-0.01064650843716541,0.012775810124598492,-0.001064650843716541,0.69651,-0.24525000000000002,9.819809999999999
3212121180,21.9,-0.007452555906015787,0.02769837522915001,0.001064650843716541,0.6768900000000001,-0.21582,9.94734
3217171685,21.9,-0.002129301687433082,0.039409534510031964,-0.001064650843716541,0.65727,-0.1962,9.85905
3222222190,21.9,0.0,0.05007349623971732,0.0,0.56898,-0.15696000000000002,9.7119
3227272695,21.9,0.005323254218582705,0.049008845396000776,0.002129301687433082,0.52974,-0.13734000000000002,9.66285
3232323200,21.9,0.004258603374866164,0.03728023282259888,0.002129301687433082,0.48069000000000006,-0.10791,9.79038
3237373705,21.9,0.002129301687433082,0.024504422698000388,0.0,0.49050000000000005,-0.10791,9.95715
3242424210,21.9,-0.004258603374866164,0.006387905062299246,-0.001064650843716541,0.47088,-0.14715,10.01601
3247474715,21.9,-0.005323254218582705,-0.004258603374866164,-0.001064650843716541,0.48069000000000006,-0.15696000000000002,9.79038
3252525220,21.9,-0.003193952531149623,-0.015987215948268057,-0.003193952531149623,0.47088,-0.1962,9.623610000000001
3257575725,21.9,-0.004258603374866164,-0.022375121010567305,0.0,0.51012,-0.17658,9.70209
3262626230,21.9,-0.004258603374866164,-0.022375121010567305,0.0,0.5395500000000001,-0.20601000000000003,9.98658
3267676735,21.9,-0.004258603374866164,-0.02769837522915001,0.0,0.59841,-0.20601000000000003,10.03563
3272727240,21.9,-0.001064650843716541,-0.02663372438543347,0.0,0.5886,-0.22563,9.86886
3277777745,21.9,0.002129301687433082,-0.03728023282259888,-0.002129301687433082,0.6180300000000001,-0.1962,9.66285
3282828250,21.9,0.00958185759344887,-0.044732788728614664,-0.002129301687433082,0.63765,-0.21582,9.64323
3287878755,21.9,0.01064650843716541,-0.039409534510031964,-0.001064650843716541,0.70632,-0.18639,9.84924
3292929260,21.9,0.011711159280881954,-0.024504422698000388,-0.002129301687433082,0.73575,-0.15696000000000002,9.99639
3297979765,21.9,0.015987215948268057,0.0,0.0,0.74556,-0.10791,9.92772
3303030270,21.9,0.014905111812031574,0.021310470166850764,0.001064650843716541,0.6768900000000001,-0.08829,9.72171
3308080775,21.9,0.012775810124598492,0.03515093113516579,0.004258603374866164,0.63765,-0.06867000000000001,9.56475
3313131280,21.9,0.005323254218582705,0.03834488366631542,0.005323254218582705,0.59841,-0.009810000000000001,9.78057
3318181785,21.9,-0.001064650843716541,0.03408628029144926,0.0,0.5886,-0.02943,9.92772
3323232290,21.9,-0.011711159280881954,0.022375121010567305,0.0,0.5493600000000001,-0.07848000000000001,9.95715
3328282795,21.9,-0.0170518667919846,0.011711159280881954,0.0,0.51993,-0.13734000000000002,9.78057
3333333300,21.9,-0.01918116847941768,-0.006387905062299246,-0.001064650843716541,0.5493600000000001,-0.20601000000000003,9.72171
3338383805,21.9,-0.0170518667919846,-0.01064650843716541,0.0,0.57879,-0.22563,9.73152
3343434310,21.9,-0.013840460968315033,-0.012775810124598492,0.001064650843716541,0.60822,-0.23544,9.888480000000001
3348484815,21.9,-0.011711159280881954,-0.015987215948268057,0.0,0.64746,-0.28449,9.937529999999999
3353535320,21.9,-0.005323254218582705,-0.013840460968315033,0.0,0.63765,-0.28449,9.78057
3358585825,21.9,0.003193952531149623,-0.012775810124598492,-0.002129301687433082,0.64746,-0.24525000000000002,9.751140000000001
3363636330,21.9,0.01064650843716541,-0.011711159280881954,0.0,0.64746,-0.20601000000000003,9.81
3368686835,21.9,0.015987215948268057,-0.007452555906015787,-0.001064650843716541,0.6670800000000001,-0.16677000000000003,9.86886
3373737340,21.9,0.015987215948268057,-0.001064650843716541,-0.004258603374866164,0.65727,-0.13734000000000002,9.819809999999999
3378787845,21.9,0.014905111812031574,0.01064650843716541,0.0,0.63765,-0.11772,9.73152
3383838350,21.9,0.015987215948268057,0.028763026072866547,0.001064650843716541,0.6180300000000001,-0.039240000000000004,9.760950000000001
3388888855,21.9,0.008517206749732328,0.03834488366631542,0.003193952531149623,0.57879,-0.039240000000000004,9.86886
3393939360,21.9,0.002129301687433082,0.05007349623971732,0.002129301687433082,0.51993,-0.02943,9.908100000000001
3398989865,21.9,-0.003193952531149623,0.039409534510031964,0.001064650843716541,0.48069000000000006,-0.05886,9.760950000000001
3404040370,21.9,-0.013840460968315033,0.02769837522915001,0.0,0.44145,-0.10791,9.67266
3409090875,21.9,-0.020245819323134222,0.014905111812031574,-0.003193952531149623,0.46107000000000004,-0.10791,9.751140000000001
3414141380,21.9,-0.020245819323134222,0.0,0.003193952531149623,0.45126,-0.1962,9.92772
3419191885,21.9,-0.021310470166850764,-0.00958185759344887,0.0,0.50031,-0.22563,10.025820000000001
3424242390,21.9,-0.022375121010567305,-0.02556907354171693,0.0,0.51993,-0.2943,9.82962
3429292895,21.9,-0.011711159280881954,-0.03515093113516579,-0.003193952531149623,0.5395500000000001,-0.28449,9.623610000000001
3434343400,21.9,-0.002129301687433082,-0.05113814708343386,0.0,0.59841,-0.28449,9.70209
3439393905,21.9,0.008517206749732328,-0.05539675045830002,-0.001064650843716541,0.6768900000000001,-0.26487,9.937529999999999
3444444410,21.9,0.014905111812031574,-0.05752605214573309,-0.002129301687433082,0.6867000000000001,-0.24525000000000002,10.01601
3449494915,21.9,0.021310470166850764,-0.04794419455228423,0.0,0.74556,-0.20601000000000003,9.819809999999999
3454545420,21.9,0.02663372438543347,-0.0404741853537485,-0.002129301687433082,0.74556,-0.15696000000000002,9.623610000000001
3459595925,21.9,0.02982767691658309,-0.02769837522915001,0.001064650843716541,0.7749900000000001,-0.0981,9.59418
3464646430,21.9,0.031956978604016174,-0.005323254218582705,0.003193952531149623,0.7848,-0.019620000000000002,9.78057
3469696935,21.9,0.020245819323134222,0.008517206749732328,0.003193952531149623,0.75537,0.019620000000000002,10.01601
3474747440,21.9,0.013840460968315033,0.028763026072866547,0.002129301687433082,0.73575,0.0,9.89829
3479797945,21.9,0.004258603374866164,0.0404741853537485,0.0,0.64746,-0.009810000000000001,9.64323
3484848450,21.9,-0.005323254218582705,0.044732788728614664,0.002129301687433082,0.59841,-0.009810000000000001,9.60399
3489898955,21.9,-0.014905111812031574,0.05220279792715039,0.001064650843716541,0.59841,-0.039240000000000004,9.751140000000001
3494949460,21.9,-0.02663372438543347,0.05007349623971732,0.001064650843716541,0.5591700000000001,-0.08829,9.937529999999999
3499999965,21.9,-0.031956978604016174,0.04260348704118158,0.003193952531149623,0.51993,-0.18639,9.937529999999999
3505050470,21.9,-0.03834488366631542,0.03089232776029963,-0.001064650843716541,0.49050000000000005,-0.22563,9.82962
3510100975,21.9,-0.02982767691658309,0.007452555906015787,0.003193952531149623,0.51012,-0.28449,9.74133
3515151480,21.9,-0.022375121010567305,-0.004258603374866164,0.0,0.51993,-0.33354000000000006,9.81
3520201985,21.9,-0.011711159280881954,-0.0170518667919846,0.0,0.56898,-0.32373,9.91791
3525252490,21.9,-0.002129301687433082,-0.02663372438543347,0.0,0.5886,-0.33354000000000006,9.86886
3530302995,21.9,0.005323254218582705,-0.02982767691658309,-0.002129301687433082,0.56898,-0.31392000000000003,9.72171
3535353500,21.9,0.013840460968315033,-0.028763026072866547,0.0,0.6278400000000001,-0.27468000000000004,9.70209
3540404005,21.9,0.02556907354171693,-0.023439771854283843,-0.002129301687433082,0.6670800000000001,-0.16677000000000003,9.83943
3545454510,21.9,0.031956978604016174,-0.00958185759344887,0.0,0.6768900000000001,-0.10791,9.937529999999999
3550505015,21.9,0.02769837522915001,-0.001064650843716541,0.0,0.64746,-0.04905,9.84924
3555555520,21.9,0.02769837522915001,0.011711159280881954,0.0,0.6278400000000001,-0.02943,9.69228
3560606025,21.9,0.01918116847941768,0.02556907354171693,0.0,0.5591700000000001,0.0,9.65304
3565656530,21.9,0.00958185759344887,0.03408628029144926,0.003193952531149623,0.5395500000000001,0.009810000000000001,9.819809999999999
3570707035,21.9,-0.003193952531149623,0.03621558197888234,0.001064650843716541,0.51993,-0.009810000000000001,9.92772
3575757540,21.9,-0.015987215948268057,0.02556907354171693,0.001064650843716541,0.51012,-0.04905,9.87867
3580808045,21.9,-0.023439771854283843,0.012775810124598492,0.0,0.48069000000000006,-0.10791,9.7119
3585858550,21.9,-0.02556907354171693,0.0,0.0,0.49050000000000005,-0.17658,9.69228
3590909055,21.9,-0.02556907354171693,-0.011711159280881954,0.0,0.5395500000000001,-0.23544,9.85905
3595959560,21.9,-0.022375121010567305,-0.024504422698000388,0.0,0.57879,-0.27468000000000004,10.01601
3601010065,21.9,-0.021310470166850764,-0.033021629447732716,0.0,0.5886,-0.33354000000000006,9.91791
3606060570,21.9,-0.012775810124598492,-0.039409534510031964,-0.001064650843716541,0.6180300000000001,-0.34335000000000004,9.72171
3611111075,21.9,-0.001064650843716541,-0.04260348704118158,0.0,0.65727,-0.32373,9.65304
3616161580,21.9,0.013840460968315033,-0.0404741853537485,0.0,0.70632,-0.27468000000000004,9.80019
3621212085,21.9,0.02663372438543347,-0.02556907354171693,0.0,0.7749900000000001,-0.20601000000000003,9.94734
3626262590,21.9,0.03089232776029963,-0.011711159280881954,0.0,0.74556,-0.15696000000000002,9.95715
3631313095,21.9,0.028763026072866547,-0.001064650843716541,0.0,0.72594,-0.0981,9.751140000000001
3636363600,21.9,0.02769837522915001,0.015987215948268057,-0.001064650843716541,0.69651,-0.019620000000000002,9.66285
3641414105,21.9,0.023439771854283843,0.02663372438543347,0.004258603374866164,0.6278400000000001,0.0,9.7119
3646464610,21.9,0.012775810124598492,0.04366813788489812,0.002129301687433082,0.6180300000000001,0.02943,9.819809999999999
3651515115,21.9,-0.001064650843716541,0.044732788728614664,0.001064650843716541,0.5591700000000001,0.019620000000000002,9.86886
3656565620,21.9,-0.01064650843716541,0.044732788728614664,0.002129301687433082,0.52974,0.0,9.79038
3661616125,21.9,-0.021310470166850764,0.03728023282259888,-0.001064650843716541,0.50031,-0.04905,9.770760000000001
3666666630,21.9,-0.024504422698000388,0.02556907354171693,0.002129301687433082,0.47088,-0.11772,9.80019
3671717135,21.9,-0.03408628029144926,0.005323254218582705,0.0,0.47088,-0.23544,9.888480000000001
3676767640,21.9,-0.03515093113516579,-0.013840460968315033,0.0,0.52974,-0.27468000000000004,9.91791
3681818145,21.9,-0.028763026072866547,-0.03089232776029963,-0.002129301687433082,0.56898,-0.36297,9.82962
3686868650,21.9,-0.013840460968315033,-0.04153883619746504,0.0,0.60822,-0.36297,9.770760000000001
3691919155,21.9,-0.002129301687433082,-0.046879543708567686,-0.003193952531149623,0.65727,-0.37278,9.760950000000001
3696969660,21.9,0.00958185759344887,-0.05007349623971732,-0.001064650843716541,0.6768900000000001,-0.34335000000000004,9.819809999999999
3702020165,21.9,0.01811651763570114,-0.044732788728614664,0.002129301687433082,0.74556,-0.27468000000000004,9.86886
3707070670,21.9,0.02769837522915001,-0.03621558197888234,-0.001064650843716541,0.7848,-0.1962,9.888480000000001
3712121175,21.9,0.03408628029144926,-0.021310470166850764,-0.002129301687433082,0.80442,-0.13734000000000002,9.85905
3717171680,21.9,0.03515093113516579,0.0,-0.002129301687433082,0.7651800000000001,-0.04905,9.74133
3722222185,21.9,0.031956978604016174,0.022375121010567305,0.0,0.70632,0.0,9.66285
3727272690,21.9,0.023439771854283843,0.04153883619746504,0.0,0.6768900000000001,0.05886,9.72171
3732323195,21.9,0.00958185759344887,0.05965535383316618,0.005323254218582705,0.60822,0.08829,9.80019
3737373700,21.9,-0.003193952531149623,0.06923721142661506,0.002129301687433082,0.57879,0.05886,9.81
3742424205,21.9,-0.01811651763570114,0.07030186227033158,0.001064650843716541,0.50031,0.02943,9.87867
3747474710,21.9,-0.028763026072866547,0.060720004676882725,0.001064650843716541,0.42183,-0.039240000000000004,9.82962
3752525215,21.9,-0.03621558197888234,0.04260348704118158,0.002129301687433082,0.41202000000000005,-0.13734000000000002,9.74133
3757575720,21.9,-0.03834488366631542,0.013840460968315033,0.0,0.42183,-0.21582,9.78057
3762626225,21.9,-0.04153883619746504,-0.011711159280881954,0.0,0.42183,-0.33354000000000006,9.84924
3767676730,21.9,-0.03728023282259888,-0.02769837522915001,-0.002129301687433082,0.48069000000000006,-0.38259000000000004,9.92772
3772727235,21.9,-0.024504422698000388,-0.04260348704118158,-0.002129301687433082,0.5591700000000001,-0.43164,9.908100000000001
3777777740,21.9,-0.006387905062299246,-0.04794419455228423,0.0,0.57879,-0.40221,9.79038
3782828245,21.9,0.008517206749732328,-0.04366813788489812,-0.002129301687433082,0.60822,-0.35316,9.78057
3787878750,21.9,0.028763026072866547,-0.046879543708567686,0.0,0.6670800000000001,-0.26487,9.760950000000001
3792929255,21.9,0.03728023282259888,-0.039409534510031964,0.002129301687433082,0.70632,-0.18639,9.908100000000001
3797979760,21.9,0.0404741853537485,-0.02556907354171693,0.0,0.71613,-0.0981,9.94734
3803030265,21.9,0.03834488366631542,-0.005323254218582705,0.001064650843716541,0.6867000000000001,-0.039240000000000004,9.82962
3808080770,21.9,0.033021629447732716,0.007452555906015787,0.0,0.6670800000000001,0.0,9.69228
3813131275,21.9,0.022375121010567305,0.024504422698000388,0.001064650843716541,0.60822,0.04905,9.66285
3818181780,21.9,0.013840460968315033,0.033021629447732716,0.002129301687433082,0.60822,0.06867000000000001,9.7119
3823232285,21.9,0.002129301687433082,0.0404741853537485,0.0,0.5493600000000001,0.06867000000000001,9.81
3828282790,21.9,-0.01811651763570114,0.039409534510031964,0.002129301687433082,0.51012,0.0,9.908100000000001
3833333295,21.9,-0.03089232776029963,0.033021629447732716,0.001064650843716541,0.48069000000000006,-0.07848000000000001,9.908100000000001
3838383800,21.9,-0.03834488366631542,0.014905111812031574,0.003193952531149623,0.46107000000000004,-0.17658,9.79038
3843434305,21.9,-0.039409534510031964,-0.004258603374866164,0.0,0.45126,-0.25506,9.72171
3848484810,21.9,-0.03728023282259888,-0.02556907354171693,-0.003193952531149623,0.51993,-0.33354000000000006,9.73152
3853535315,21.9,-0.03089232776029963,-0.04794419455228423,-0.003193952531149623,0.5886,-0.3924,9.89829
3858585820,21.9,-0.013840460968315033,-0.05859070298944965,-0.004258603374866164,0.6670800000000001,-0.41202000000000005,9.94734
3863636325,21.9,0.0,-0.05859070298944965,-0.002129301687433082,0.71613,-0.41202000000000005,9.89829
3868686830,21.9,0.0170518667919846,-0.05752605214573309,-0.001064650843716541,0.7848,-0.34335000000000004,9.770760000000001
3873737335,21.9,0.02769837522915001,-0.049008845396000776,0.001064650843716541,0.7848,-0.27468000000000004,9.72171
3878787840,21.9,0.03728023282259888,-0.039409534510031964,-0.001064650843716541,0.86328,-0.17658,9.74133
3883838345,21.9,0.04260348704118158,-0.024504422698000388,0.0,0.84366,-0.10791,9.83943
3888888850,21.9,0.04366813788489812,-0.003193952531149623,0.0,0.8338500000000001,-0.009810000000000001,9.85905
3893939355,21.9,0.03621558197888234,0.02663372438543347,0.0,0.80442,0.019620000000000002,9.770760000000001
3898989860,21.9,0.022375121010567305,0.05220279792715039,0.0,0.71613,0.0981,9.7119
3904040365,21.9,0.007452555906015787,0.07777187146886733,0.003193952531149623,0.6180300000000001,0.11772,9.70209
3909090870,21.9,-0.003193952531149623,0.09374163412461543,0.005323254218582705,0.51993,0.12753,9.751140000000001
3914141375,21.9,-0.020245819323134222,0.09693558665576507,0.003193952531149623,0.50031,0.06867000000000001,9.89829
3919191880,21.9,-0.03834488366631542,0.08309512568745003,0.003193952531149623,0.43164,-0.009810000000000001,9.908100000000001
3924242385,21.9,-0.05007349623971732,0.06178465552059926,0.001064650843716541,0.35316,-0.13734000000000002,9.819809999999999
3929292890,21.9,-0.05007349623971732,0.03621558197888234,0.0,0.35316,-0.26487,9.74133
3934343395,21.9,-0.05007349623971732,0.0,0.001064650843716541,0.36297,-0.38259000000000004,9.770760000000001
3939393900,21.9,-0.04581489286485115,-0.02556907354171693,0.0,0.43164,-0.43164,9.82962
3944444405,21.9,-0.033021629447732716,-0.04366813788489812,-0.002129301687433082,0.46107000000000004,-0.47088,9.89829
3949494910,21.9,-0.01064650843716541,-0.054332099614583476,0.0,0.5395500000000001,-0.45126,9.908100000000001
3954545415,21.9,0.013840460968315033,-0.05539675045830002,0.0,0.5886,-0.42183,9.87867
3959595920,21.9,0.028763026072866547,-0.054332099614583476,-0.001064650843716541,0.6180300000000001,-0.31392000000000003,9.760950000000001
3964646425,21.9,0.044732788728614664,-0.049008845396000776,0.001064650843716541,0.65727,-0.20601000000000003,9.7119
3969696930,21.9,0.049008845396000776,-0.039409534510031964,0.0,0.6768900000000001,-0.12753,9.819809999999999
3974747435,21.9,0.04794419455228423,-0.0170518667919846,0.0,0.6768900000000001,-0.009810000000000001,9.85905
3979797940,21.9,0.044732788728614664,0.001064650843716541,0.0,0.6670800000000001,0.05886,9.83943
3984848445,21.9,0.031956978604016174,0.0170518667919846,0.0,0.6278400000000001,0.10791,9.751140000000001
3989898950,21.9,0.021310470166850764,0.03515093113516579,0.002129301687433082,0.5493600000000001,0.12753,9.65304
3994949455,21.9,0.006387905062299246,0.033021629447732716,0.004258603374866164,0.5395500000000001,0.12753,9.68247
3999999960,21.9,-0.011711159280881954,0.03089232776029963,0.003193952531149623,0.51993,0.04905,9.85905
4005050465,21.9,-0.02982767691658309,0.015987215948268057,0.0,0.51993,-0.009810000000000001,10.01601
4010100970,21.9,-0.04366813788489812,0.007452555906015787,0.0,0.51993,-0.14715,9.87867
4015151475,21.9,-0.046879543708567686,-0.014905111812031574,0.002129301687433082,0.48069000000000006,-0.27468000000000004,9.66285
4020201980,21.9,-0.04260348704118158,-0.03621558197888234,0.0,0.56898,-0.35316,9.64323
4025252485,21.9,-0.03728023282259888,-0.05113814708343386,0.0,0.65727,-0.41202000000000005,9.819809999999999
4030302990,21.9,-0.022375121010567305,-0.054332099614583476,-0.001064650843716541,0.74556,-0.41202000000000005,10.025820000000001
4035353495,21.9,-0.006387905062299246,-0.046879543708567686,0.0,0.7749900000000001,-0.40221,10.01601
4040404000,21.9,0.015987215948268057,-0.04260348704118158,0.0,0.79461,-0.35316,9.760950000000001
4045454505,21.9,0.02982767691658309,-0.03834488366631542,-0.001064650843716541,0.7848,-0.27468000000000004,9.623610000000001
4050505010,21.9,0.03728023282259888,-0.02769837522915001,-0.002129301687433082,0.8338500000000001,-0.20601000000000003,9.67266
4055555515,21.9,0.04260348704118158,-0.012775810124598492,-0.003193952531149623,0.84366,-0.07848000000000001,9.91791
4060606020,21.9,0.04153883619746504,0.011711159280881954,0.0,0.8142300000000001,0.009810000000000001,9.98658
4065656525,21.9,0.03621558197888234,0.03834488366631542,0.0,0.75537,0.04905,9.81
4070707030,21.9,0.02556907354171693,0.06284930636431581,0.001064650843716541,0.6670800000000001,0.10791,9.64323
4075757535,21.9,0.01064650843716541,0.08309512568745003,0.005323254218582705,0.5886,0.12753,9.623610000000001
4080808040,21.9,-0.005323254218582705,0.09267698328089889,0.004258603374866164,0.51993,0.10791,9.79038
4085858545,21.9,-0.02556907354171693,0.0852244273748831,0.005323254218582705,0.43164,0.04905,9.96696
4090909050,21.9,-0.039409534510031964,0.07349581480148122,0.002129301687433082,0.40221,-0.04905,9.91791
4095959555,21.9,-0.049008845396000776,0.05220279792715039,0.0,0.33354000000000006,-0.15696000000000002,9.78057
4101010060,21.9,-0.05220279792715039,0.024504422698000388,-0.001064650843716541,0.32373,-0.26487,9.65304
4106060565,21.9,-0.05113814708343386,-0.007452555906015787,0.001064650843716541,0.35316,-0.3924,9.79038
4111111070,21.9,-0.04153883619746504,-0.02982767691658309,-0.001064650843716541,0.43164,-0.45126,9.96696
4116161575,21.9,-0.02556907354171693,-0.046879543708567686,-0.001064650843716541,0.50031,-0.46107000000000004,10.006200000000002
4121212080,21.9,-0.005323254218582705,-0.05113814708343386,0.0,0.52974,-0.43164,9.84924
4126262585,21.9,0.015987215948268057,-0.05752605214573309,-0.001064650843716541,0.57879,-0.40221,9.73152
4131313090,21.9,0.03408628029144926,-0.05965535383316618,-0.003193952531149623,0.63765,-0.30411,9.66285
4136363595,21.9,0.044732788728614664,-0.05539675045830002,0.0,0.6670800000000001,-0.20601000000000003,9.78057
4141414100,21.9,0.046879543708567686,-0.04366813788489812,0.0,0.70632,-0.0981,9.908100000000001
4146464605,21.9,0.04794419455228423,-0.023439771854283843,0.0,0.71613,0.0,9.86886
4151515110,21.9,0.04581489286485115,-0.007452555906015787,0.0,0.69651,0.019620000000000002,9.81
4156565615,21.9,0.03515093113516579,0.007452555906015787,0.0,0.6670800000000001,0.11772,9.7119
4161616120,21.9,0.01811651763570114,0.023439771854283843,0.0,0.6180300000000001,0.12753,9.70209
4166666625,21.9,0.001064650843716541,0.028763026072866547,0.0,0.60822,0.08829,9.79038
4171717130,21.9,-0.011711159280881954,0.03089232776029963,0.0,0.56898,0.04905,9.87867
4176767635,21.9,-0.028763026072866547,0.02556907354171693,0.002129301687433082,0.56898,-0.05886,9.91791
4181818140,21.9,-0.04366813788489812,0.01811651763570114,0.0,0.51012,-0.12753,9.74133
4186868645,21.9,-0.04794419455228423,0.003193952531149623,0.0,0.51993,-0.24525000000000002,9.70209
4191919150,21.9,-0.04366813788489812,-0.01064650843716541,-0.001064650843716541,0.56898,-0.31392000000000003,9.80019
4196969655,21.9,-0.03089232776029963,-0.024504422698000388,0.0,0.6180300000000001,-0.37278,9.87867
4202020160,21.9,-0.021310470166850764,-0.03408628029144926,0.001064650843716541,0.6768900000000001,-0.41202000000000005,9.94734
4207070665,21.9,-0.007452555906015787,-0.0404741853537485,0.0,0.70632,-0.41202000000000005,9.84924
4212121170,21.9,0.004258603374866164,-0.04260348704118158,-0.002129301687433082,0.71613,-0.37278,9.73152
4217171675,21.9,0.023439771854283843,-0.039409534510031964,0.0,0.7651800000000001,-0.31392000000000003,9.70209
4222222180,21.9,0.033021629447732716,-0.02982767691658309,0.0,0.80442,-0.21582,9.83943
4227272685,21.9,0.0404741853537485,-0.012775810124598492,0.0,0.79461,-0.08829,9.92772
4232323190,21.9,0.04260348704118158,0.005323254218582705,0.0,0.79461,-0.019620000000000002,9.82962
4237373695,21.9,0.03515093113516579,0.02556907354171693,0.001064650843716541,0.71613,0.02943,9.73152
4242424200,21.9,0.023439771854283843,0.03834488366631542,0.002129301687433082,0.6670800000000001,0.06867000000000001,9.70209
4247474705,21.9,0.013840460968315033,0.05965535383316618,0.001064650843716541,0.63765,0.10791,9.81
4252525210,21.9,-0.003193952531149623,0.06923721142661506,0.003193952531149623,0.5591700000000001,0.0981,9.87867
4257575715,21.9,-0.013840460968315033,0.07349581480148122,0.004258603374866164,0.49050000000000005,0.019620000000000002,9.81
4262626220,21.9,-0.03089232776029963,0.07349581480148122,0.0,0.44145,-0.02943,9.751140000000001
4267676725,21.9,-0.04153883619746504,0.054332099614583476,0.003193952531149623,0.3924,-0.12753,9.70209
4272727230,21.9,-0.046879543708567686,0.04260348704118158,0.001064650843716541,0.38259000000000004,-0.20601000000000003,9.81
4277777735,21.9,-0.04581489286485115,0.021310470166850764,0.0,0.37278,-0.27468000000000004,9.96696
4282828240,21.9,-0.039409534510031964,0.003193952531149623,0.0,0.38259000000000004,-0.3924,9.96696
4287878745,21.9,-0.02769837522915001,-0.024504422698000388,-0.001064650843716541,0.42183,-0.41202000000000005,9.81
4292929250,21.9,-0.013840460968315033,-0.04366813788489812,0.0,0.46107000000000004,-0.41202000000000005,9.69228
4297979755,21.9,0.005323254218582705,-0.05859070298944965,-0.003193952531149623,0.51993,-0.38259000000000004,9.74133
4303030260,21.9,0.021310470166850764,-0.06391395720803235,0.001064650843716541,0.59841,-0.34335000000000004,9.89829
4308080765,21.9,0.033021629447732716,-0.060720004676882725,-0.001064650843716541,0.64746,-0.23544,9.97677
4313131270,21.9,0.03515093113516579,-0.05646140130201656,-0.002129301687433082,0.65727,-0.1962,9.85905
4318181775,21.9,0.04366813788489812,-0.04366813788489812,-0.002129301687433082,0.6867000000000001,-0.0981,9.751140000000001
4323232280,21.9,0.04366813788489812,-0.03408628029144926,0.0,0.69651,-0.009810000000000001,9.65304
4328282785,21.9,0.0404741853537485,-0.01811651763570114,0.0,0.6768900000000001,0.039240000000000004,9.80019
4333333290,21.9,0.028763026072866547,-0.002129301687433082,0.001064650843716541,0.69651,0.04905,9.888480000000001
4338383795,21.9,0.011711159280881954,0.01811651763570114,0.0,0.69651,0.06867000000000001,9.83943
4343434300,21.9,-0.003193952531149623,0.02663372438543347,0.0,0.6278400000000001,0.019620000000000002,9.70209
4348484805,21.9,-0.01811651763570114,0.03408628029144926,0.0,0.59841,-0.019620000000000002,9.66285
4353535310,21.9,-0.02982767691658309,0.028763026072866547,0.0,0.5886,-0.04905,9.79038
4358585815,21.9,-0.03408628029144926,0.022375121010567305,0.0,0.59841,-0.12753,9.91791
4363636320,21.9,-0.03621558197888234,0.00958185759344887,0.0,0.5886,-0.22563,9.937529999999999
4368686825,21.9,-0.03408628029144926,-0.004258603374866164,0.0,0.5886,-0.2943,9.78057
4373737330,21.9,-0.031956978604016174,-0.021310470166850764,-0.002129301687433082,0.63765,-0.37278,9.69228
4378787835,21.9,-0.024504422698000388,-0.03089232776029963,-0.003193952531149623,0.6768900000000001,-0.41202000000000005,9.74133
4383838340,21.9,-0.006387905062299246,-0.03515093113516579,0.0,0.71613,-0.37278,9.89829
4388888845,21.9,0.00958185759344887,-0.031956978604016174,0.001064650843716541,0.7651800000000001,-0.31392000000000003,9.96696
4393939350,21.9,0.023439771854283843,-0.020245819323134222,0.0,0.75537,-0.25506,9.82962
4398989855,21.9,0.03089232776029963,-0.006387905062299246,-0.002129301687433082,0.7651800000000001,-0.15696000000000002,9.67266
4404040360,21.9,0.03515093113516579,-0.001064650843716541,0.0,0.72594,-0.06867000000000001,9.7119
4409090865,21.9,0.03408628029144926,0.01811651763570114,0.002129301687433082,0.72594,-0.019620000000000002,9.83943
4414141370,21.9,0.02769837522915001,0.03408628029144926,0.002129301687433082,0.65727,0.009810000000000001,9.89829
4419191875,21.9,0.015987215948268057,0.05113814708343386,0.002129301687433082,0.6180300000000001,0.02943,9.83943
4424242380,21.9,0.004258603374866164,0.06497860805174888,0.002129301687433082,0.5493600000000001,0.039240000000000004,9.68247
4429292885,21.9,-0.008517206749732328,0.07670722062515077,0.002129301687433082,0.47088,0.039240000000000004,9.60399
4434343390,21.9,-0.01811651763570114,0.07030186227033158,0.002129301687433082,0.41202000000000005,0.0,9.770760000000001
4439393895,21.9,-0.02982767691658309,0.06284930636431581,0.004258603374866164,0.41202000000000005,-0.05886,10.006200000000002
4444444400,21.9,-0.04260348704118158,0.04581489286485115,0.001064650843716541,0.34335000000000004,-0.13734000000000002,10.01601
4449494905,21.9,-0.046879543708567686,0.022375121010567305,0.0,0.33354000000000006,-0.25506,9.81
4454545410,21.9,-0.0404741853537485,-0.003193952531149623,-0.001064650843716541,0.33354000000000006,-0.38259000000000004,9.623610000000001
4459595915,21.9,-0.028763026072866547,-0.03408628029144926,-0.001064650843716541,0.3924,-0.37278,9.69228
4464646420,21.9,-0.015987215948268057,-0.05539675045830002,-0.001064650843716541,0.46107000000000004,-0.42183,9.888480000000001
4469696925,21.9,-0.002129301687433082,-0.06710790973918197,-0.004258603374866164,0.56898,-0.3924,10.006200000000002
4474747430,21.9,0.013840460968315033,-0.06710790973918197,-0.001064650843716541,0.60822,-0.35316,9.96696
4479797935,21.9,0.02556907354171693,-0.06923721142661506,-0.006387905062299246,0.63765,-0.26487,9.73152
4484848440,21.9,0.03621558197888234,-0.06284930636431581,-0.002129301687433082,0.6670800000000001,-0.21582,9.67266
4489898945,21.9,0.04260348704118158,-0.05539675045830002,0.0,0.73575,-0.10791,9.80019
4494949450,21.9,0.046879543708567686,-0.04153883619746504,-0.001064650843716541,0.75537,-0.04905,9.91791
4499999955,21.9,0.0404741853537485,-0.028763026072866547,0.0,0.75537,-0.009810000000000001,9.888480000000001
4505050460,21.9,0.02769837522915001,-0.008517206749732328,0.0,0.73575,0.04905,9.72171
4510100965,21.9,0.01811651763570114,0.002129301687433082,0.001064650843716541,0.71613,0.05886,9.64323
4515151470,21.9,0.005323254218582705,0.0170518667919846,0.001064650843716541,0.70632,0.04905,9.68247
4520201975,21.9,-0.005323254218582705,0.02982767691658309,0.003193952531149623,0.70632,0.039240000000000004,9.84924
4525252480,21.9,-0.015987215948268057,0.03515093113516579,0.003193952531149623,0.6670800000000001,-0.039240000000000004,9.92772
4530302985,21.9,-0.031956978604016174,0.03728023282259888,0.002129301687433082,0.6180300000000001,-0.08829,9.82962
4535353490,21.9,-0.039409534510031964,0.02556907354171693,-0.002129301687433082,0.57879,-0.17658,9.67266
4540403995,21.9,-0.0404741853537485,0.015987215948268057,0.001064650843716541,0.59841,-0.25506,9.7119
4545454500,21.9,-0.03408628029144926,0.002129301687433082,0.0,0.60822,-0.33354000000000006,9.87867
4550505005,21.9,-0.02663372438543347,-0.007452555906015787,0.0,0.64746,-0.34335000000000004,9.96696
4555555510,21.9,-0.015987215948268057,-0.011711159280881954,0.001064650843716541,0.65727,-0.38259000000000004,9.908100000000001
4560606015,21.9,-0.002129301687433082,-0.014905111812031574,0.0,0.6867000000000001,-0.37278,9.751140000000001
4565656520,21.9,0.012775810124598492,-0.013840460968315033,0.0,0.6867000000000001,-0.2943,9.74133
4570707025,21.9,0.022375121010567305,-0.008517206749732328,0.001064650843716541,0.69651,-0.20601000000000003,9.81
4575757530,21.9,0.02556907354171693,0.001064650843716541,0.001064650843716541,0.70632,-0.15696000000000002,9.89829
4580808035,21.9,0.02769837522915001,0.012775810124598492,0.0,0.65727,-0.07848000000000001,9.87867
4585858540,21.9,0.028763026072866547,0.02663372438543347,0.0,0.63765,-0.019620000000000002,9.7119
4590909045,21.9,0.021310470166850764,0.04153883619746504,0.0,0.56898,0.0,9.64323
4595959550,21.9,0.01064650843716541,0.05220279792715039,0.002129301687433082,0.5395500000000001,0.009810000000000001,9.72171
4601010055,21.9,0.001064650843716541,0.05646140130201656,0.001064650843716541,0.49050000000000005,0.04905,9.888480000000001
4606060560,21.9,-0.00958185759344887,0.05752605214573309,0.004258603374866164,0.45126,0.0,9.94734
4611111065,21.9,-0.021310470166850764,0.05539675045830002,0.001064650843716541,0.41202000000000005,-0.039240000000000004,9.80019
4616161570,21.9,-0.02982767691658309,0.03834488366631542,0.001064650843716541,0.37278,-0.11772,9.73152
4621212075,21.9,-0.03621558197888234,0.01811651763570114,0.001064650843716541,0.35316,-0.21582,9.72171
4626262580,21.9,-0.033021629447732716,-0.006387905062299246,0.002129301687433082,0.37278,-0.27468000000000004,9.84924
4631313085,21.9,-0.02769837522915001,-0.02769837522915001,0.0,0.41202000000000005,-0.32373,9.94734
4636363590,21.9,-0.01918116847941768,-0.04581489286485115,-0.004258603374866164,0.47088,-0.38259000000000004,9.95715
4641414095,21.9,-0.005323254218582705,-0.06923721142661506,-0.004258603374866164,0.5591700000000001,-0.3924,9.79038
4646464600,21.9,0.005323254218582705,-0.07456046564519776,-0.002129301687433082,0.60822,-0.34335000000000004,9.74133
4651515105,21.9,0.020245819323134222,-0.07777187146886733,-0.002129301687433082,0.6670800000000001,-0.31392000000000003,9.80019
4656565610,21.9,0.02982767691658309,-0.0756251164889143,-0.003193952531149623,0.74556,-0.22563,9.91791
4661616115,21.9,0.03834488366631542,-0.06817256058289851,-0.002129301687433082,0.7848,-0.18639,9.888480000000001
4666666620,21.9,0.03834488366631542,-0.05326744877086694,-0.001064650843716541,0.79461,-0.10791,9.78057
4671717125,21.9,0.04153883619746504,-0.03834488366631542,0.0,0.8240400000000001,-0.039240000000000004,9.67266
4676767630,21.9,0.03515093113516579,-0.011711159280881954,0.0,0.8142300000000001,0.019620000000000002,9.760950000000001
4681818135,21.9,0.024504422698000388,0.008517206749732328,0.0,0.8240400000000001,0.04905,9.84924
4686868640,21.9,0.012775810124598492,0.02982767691658309,0.003193952531149623,0.7749900000000001,0.06867000000000001,9.85905
4691919145,21.9,-0.001064650843716541,0.05220279792715039,-0.001064650843716541,0.71613,0.02943,9.80019
4696969650,21.9,-0.014905111812031574,0.05859070298944965,0.002129301687433082,0.63765,0.0,9.67266
4702020155,21.9,-0.02663372438543347,0.05965535383316618,0.002129301687433082,0.60822,-0.04905,9.68247
4707070660,21.9,-0.03621558197888234,0.05113814708343386,0.002129301687433082,0.59841,-0.0981,9.82962
4712121165,21.9,-0.04153883619746504,0.039409534510031964,0.002129301687433082,0.5591700000000001,-0.20601000000000003,9.96696
4717171670,21.9,-0.04366813788489812,0.022375121010567305,-0.001064650843716541,0.5493600000000001,-0.28449,9.86886
4722222175,21.9,-0.03728023282259888,0.007452555906015787,0.0,0.52974,-0.34335000000000004,9.770760000000001
4727272680,21.9,-0.02663372438543347,-0.007452555906015787,-0.002129301687433082,0.5591700000000001,-0.40221,9.74133
4732323185,21.9,-0.013840460968315033,-0.021310470166850764,0.0,0.60822,-0.3924,9.80019
4737373690,21.9,0.0,-0.020245819323134222,-0.001064650843716541,0.65727,-0.33354000000000006,9.91791
4742424195,21.9,0.014905111812031574,-0.01918116847941768,0.0,0.65727,-0.31392000000000003,9.92772
4747474700,21.9,0.02769837522915001,-0.006387905062299246,0.0,0.6278400000000001,-0.21582,9.7119
4752525205,21.9,0.02769837522915001,0.008517206749732328,-0.001064650843716541,0.60822,-0.12753,9.70209
4757575710,21.9,0.03621558197888234,0.02556907354171693,0.002129301687433082,0.60822,-0.07848000000000001,9.770760000000001
4762626215,21.9,0.031956978604016174,0.04153883619746504,0.003193952531149623,0.5395500000000001,0.009810000000000001,9.86886
4767676720,21.9,0.022375121010567305,0.04794419455228423,0.002129301687433082,0.49050000000000005,0.04905,9.87867
4772727225,21.9,0.006387905062299246,0.05113814708343386,0.001064650843716541,0.43164,0.039240000000000004,9.84924
4777777730,21.9,-0.003193952531149623,0.04260348704118158,0.0,0.3924,0.0,9.74133
4782828235,21.9,-0.014905111812031574,0.02556907354171693,0.001064650843716541,0.33354000000000006,-0.039240000000000004,9.7119
4787878740,21.9,-0.02663372438543347,0.0,0.0,0.38259000000000004,-0.0981,9.81
4792929245,21.9,-0.03515093113516579,-0.021310470166850764,0.0,0.40221,-0.20601000000000003,9.908100000000001
4797979750,21.9,-0.03728023282259888,-0.04260348704118158,-0.003193952531149623,0.46107000000000004,-0.30411,9.96696
4803030255,21.9,-0.028763026072866547,-0.05965535383316618,0.0,0.5591700000000001,-0.35316,9.83943
4808080760,21.9,-0.022375121010567305,-0.07136651311404815,-0.001064650843716541,0.60822,-0.41202000000000005,9.74133
4813131265,21.9,-0.005323254218582705,-0.08309512568745003,-0.001064650843716541,0.6867000000000001,-0.41202000000000005,9.73152
4818181770,21.9,0.01064650843716541,-0.08096582400001695,-0.001064650843716541,0.74556,-0.36297,9.82962
4823232275,21.9,0.02556907354171693,-0.06710790973918197,0.0,0.8240400000000001,-0.31392000000000003,9.908100000000001
4828282780,21.9,0.03621558197888234,-0.04581489286485115,-0.001064650843716541,0.85347,-0.20601000000000003,9.888480000000001
4833333285,21.9,0.0404741853537485,-0.02663372438543347,0.001064650843716541,0.87309,-0.14715,9.73152
4838383790,21.9,0.039409534510031964,-0.006387905062299246,0.0,0.8142300000000001,-0.039240000000000004,9.65304
4843434295,21.9,0.03515093113516579,0.01811651763570114,0.0,0.7848,0.02943,9.760950000000001
4848484800,21.9,0.033021629447732716,0.04153883619746504,0.004258603374866164,0.7651800000000001,0.07848000000000001,9.84924
4853535305,21.9,0.014905111812031574,0.060720004676882725,0.002129301687433082,0.6768900000000001,0.10791,9.87867
4858585810,21.9,-0.002129301687433082,0.07030186227033158,0.004258603374866164,0.6180300000000001,0.07848000000000001,9.751140000000001
4863636315,21.9,-0.01811651763570114,0.06604325889546543,0.001064650843716541,0.5493600000000001,0.02943,9.67266
4868686820,21.9,-0.031956978604016174,0.05007349623971732,0.004258603374866164,0.51012,-0.019620000000000002,9.73152
4873737325,21.9,-0.04153883619746504,0.03728023282259888,0.001064650843716541,0.50031,-0.11772,9.888480000000001
4878787830,21.9,-0.049008845396000776,0.0170518667919846,0.0,0.49050000000000005,-0.26487,9.97677
4883838335,21.9,-0.04794419455228423,-0.003193952531149623,0.0,0.51993,-0.32373,9.84924
4888888840,21.9,-0.03834488366631542,-0.01918116847941768,-0.001064650843716541,0.51012,-0.42183,9.74133
4893939345,21.9,-0.023439771854283843,-0.02663372438543347,0.0,0.5886,-0.44145,9.70209
4898989850,21.9,-0.006387905062299246,-0.03515093113516579,0.0,0.6278400000000001,-0.41202000000000005,9.86886
4904040355,21.9,0.007452555906015787,-0.03515093113516579,-0.001064650843716541,0.6768900000000001,-0.38259000000000004,9.94734
4909090860,21.9,0.021310470166850764,-0.02663372438543347,0.0,0.6768900000000001,-0.30411,9.888480000000001
4914141365,21.9,0.03515093113516579,-0.014905111812031574,0.0,0.6867000000000001,-0.1962,9.70209
4919191870,21.9,0.04153883619746504,0.0,0.002129301687433082,0.6670800000000001,-0.06867000000000001,9.69228
4924242375,21.9,0.0404741853537485,0.014905111812031574,0.002129301687433082,0.6670800000000001,-0.019620000000000002,9.770760000000001
4929292880,21.9,0.02982767691658309,0.033021629447732716,0.001064650843716541,0.6180300000000001,0.04905,9.91791
4934343385,21.9,0.022375121010567305,0.044732788728614664,0.003193952531149623,0.5493600000000001,0.08829,9.89829
4939393890,21.9,0.005323254218582705,0.05007349623971732,0.004258603374866164,0.51993,0.06867000000000001,9.760950000000001
4944444395,21.9,-0.004258603374866164,0.044732788728614664,0.002129301687433082,0.44145,0.039240000000000004,9.68247
4949494900,21.9,-0.01918116847941768,0.03621558197888234,0.001064650843716541,0.42183,0.0,9.770760000000001
4954545405,21.9,-0.03089232776029963,0.020245819323134222,0.0,0.41202000000000005,-0.07848000000000001,9.86886
4959595910,21.9,-0.03728023282259888,0.003193952531149623,0.0,0.44145,-0.1962,9.908100000000001
4964646415,21.9,-0.0404741853537485,-0.011711159280881954,0.001064650843716541,0.46107000000000004,-0.30411,9.82962
4969696920,21.9,-0.03621558197888234,-0.02982767691658309,-0.001064650843716541,0.50031,-0.36297,9.81
4974747425,21.9,-0.02663372438543347,-0.04366813788489812,-0.001064650843716541,0.5493600000000001,-0.41202000000000005,9.79038
4979797930,21.9,-0.01064650843716541,-0.05859070298944965,0.0,0.60822,-0.40221,9.819809999999999
4984848435,21.9,0.007452555906015787,-0.06391395720803235,0.0,0.6768900000000001,-0.3924,9.86886
4989898940,21.9,0.0170518667919846,-0.06391395720803235,0.0,0.71613,-0.31392000000000003,9.85905
4994949445,21.9,0.02982767691658309,-0.05646140130201656,0.0,0.75537,-0.25506,9.79038
4999999950,21.9,0.039409534510031964,-0.044732788728614664,0.0,0.7848,-0.17658,9.81
5005050455,21.9,0.04260348704118158,-0.02769837522915001,0.0,0.80442,-0.08829,9.81
5010100960,21.9,0.04260348704118158,-0.011711159280881954,0.0,0.79461,-0.019620000000000002,9.770760000000001
5015151465,21.9,0.031956978604016174,0.007452555906015787,0.0,0.7848,0.04905,9.770760000000001
5020201970,21.9,0.023439771854283843,0.024504422698000388,0.0,0.7749900000000001,0.07848000000000001,9.81
5025252475,21.9,0.01064650843716541,0.03834488366631542,0.005323254218582705,0.70632,0.07848000000000001,9.819809999999999
5030302980,21.9,-0.004258603374866164,0.04794419455228423,0.002129301687433082,0.63765,0.05886,9.760950000000001
5035353485,21.9,-0.022375121010567305,0.054332099614583476,0.001064650843716541,0.57879,-0.009810000000000001,9.751140000000001
5040403990,21.9,-0.03515093113516579,0.05220279792715039,0.001064650843716541,0.56898,-0.0981,9.80019
5045454495,21.9,-0.0404741853537485,0.04581489286485115,0.0,0.5395500000000001,-0.15696000000000002,9.79038
5050505000,21.9,-0.04260348704118158,0.03408628029144926,0.0,0.51012,-0.23544,9.84924
5055555505,21.9,-0.03834488366631542,0.012775810124598492,0.0,0.5395500000000001,-0.30411,9.89829
5060606010,21.9,-0.03515093113516579,-0.002129301687433082,0.001064650843716541,0.5493600000000001,-0.37278,9.85905
5065656515,21.9,-0.01811651763570114,-0.01811651763570114,0.0,0.5591700000000001,-0.40221,9.78057
5070707020,21.9,-0.002129301687433082,-0.02663372438543347,0.0,0.59841,-0.37278,9.819809999999999
5075757525,21.9,0.008517206749732328,-0.024504422698000388,-0.001064650843716541,0.6180300000000001,-0.32373,9.83943
5080808030,21.9,0.01811651763570114,-0.03089232776029963,0.0,0.6670800000000001,-0.28449,9.819809999999999
5085858535,21.9,0.028763026072866547,-0.020245819323134222,-0.001064650843716541,0.64746,-0.18639,9.82962
5090909040,21.9,0.03515093113516579,-0.013840460968315033,0.0,0.63765,-0.0981,9.82962
5095959545,21.9,0.03834488366631542,-0.004258603374866164,0.0,0.64746,-0.02943,9.81
5101010050,21.9,0.028763026072866547,0.006387905062299246,0.0,0.6180300000000001,0.019620000000000002,9.760950000000001
5106060555,21.9,0.0170518667919846,0.022375121010567305,0.0,0.60822,0.019620000000000002,9.78057
5111111060,21.9,0.00958185759344887,0.03089232776029963,0.0,0.57879,0.02943,9.78057
5116161565,21.9,-0.002129301687433082,0.03515093113516579,0.002129301687433082,0.52974,0.009810000000000001,9.79038
5121212070,21.9,-0.015987215948268057,0.039409534510031964,0.004258603374866164,0.50031,-0.019620000000000002,9.81
5126262575,21.9,-0.02663372438543347,0.03089232776029963,0.0,0.51012,-0.10791,9.819809999999999
5131313080,21.9,-0.03089232776029963,0.024504422698000388,0.001064650843716541,0.45126,-0.16677000000000003,9.80019
5136363585,21.9,-0.031956978604016174,0.012775810124598492,0.0,0.46107000000000004,-0.25506,9.80019
5141414090,21.9,-0.03089232776029963,-0.006387905062299246,0.0,0.48069000000000006,-0.2943,9.819809999999999
5146464595,21.9,-0.024504422698000388,-0.02556907354171693,0.0,0.50031,-0.33354000000000006,9.85905
5151515100,21.9,-0.015987215948268057,-0.039409534510031964,-0.001064650843716541,0.5886,-0.38259000000000004,9.86886
5156565605,21.9,-0.002129301687433082,-0.04581489286485115,-0.003193952531149623,0.5886,-0.36297,9.80019
5161616110,21.9,0.01064650843716541,-0.05326744877086694,0.0,0.64746,-0.31392000000000003,9.770760000000001
5166666615,21.9,0.023439771854283843,-0.04794419455228423,0.001064650843716541,0.6768900000000001,-0.25506,9.79038
5171717120,21.9,0.02982767691658309,-0.046879543708567686,0.001064650843716541,0.72594,-0.20601000000000003,9.819809999999999
5176767625,21.9,0.033021629447732716,-0.03515093113516579,0.0,0.75537,-0.14715,9.83943
5181818130,21.9,0.031956978604016174,-0.024504422698000388,0.001064650843716541,0.7749900000000001,-0.07848000000000001,9.82962
5186868635,21.9,0.03089232776029963,-0.011711159280881954,0.0,0.74556,-0.019620000000000002,9.770760000000001
5191919140,21.9,0.022375121010567305,0.007452555906015787,-0.001064650843716541,0.72594,0.009810000000000001,9.760950000000001
5196969645,21.9,0.014905111812031574,0.023439771854283843,0.0,0.69651,0.019620000000000002,9.72171
5202020150,21.9,0.003193952531149623,0.04366813788489812,0.002129301687433082,0.64746,0.009810000000000001,9.770760000000001
5207070655,21.9,-0.00958185759344887,0.05220279792715039,0.0,0.60822,0.009810000000000001,9.79038
5212121160,21.9,-0.024504422698000388,0.05113814708343386,0.004258603374866164,0.52974,-0.05886,9.83943
5217171665,21.9,-0.03408628029144926,0.04153883619746504,0.005323254218582705,0.5395500000000001,-0.10791,9.86886
5222222170,21.9,-0.03515093113516579,0.02982767691658309,0.0,0.50031,-0.18639,9.819809999999999
5227272675,21.9,-0.03515093113516579,0.014905111812031574,0.0,0.50031,-0.26487,9.760950000000001
5232323180,21.9,-0.031956978604016174,-0.004258603374866164,0.0,0.52974,-0.36297,9.751140000000001
5237373685,21.9,-0.02663372438543347,-0.020245819323134222,-0.001064650843716541,0.5395500000000001,-0.35316,9.82962
5242424190,21.9,-0.01064650843716541,-0.02982767691658309,0.001064650843716541,0.59841,-0.38259000000000004,9.89829
5247474695,21.9,0.001064650843716541,-0.03834488366631542,0.0,0.65727,-0.33354000000000006,9.91791
5252525200,21.9,0.013840460968315033,-0.039409534510031964,0.0,0.6670800000000001,-0.32373,9.84924
5257575705,21.9,0.024504422698000388,-0.03408628029144926,-0.001064650843716541,0.6768900000000001,-0.23544,9.72171
5262626210,21.9,0.031956978604016174,-0.024504422698000388,-0.001064650843716541,0.73575,-0.13734000000000002,9.760950000000001
5267676715,21.9,0.03621558197888234,-0.006387905062299246,0.0,0.71613,-0.07848000000000001,9.819809999999999
5272727220,21.9,0.033021629447732716,0.012775810124598492,0.001064650843716541,0.70632,-0.019620000000000002,9.85905
5277777725,21.9,0.022375121010567305,0.028763026072866547,0.002129301687433082,0.64746,0.019620000000000002,9.819809999999999
5282828230,21.9,0.01064650843716541,0.03834488366631542,0.002129301687433082,0.59841,0.02943,9.73152
5287878735,21.9,0.0,0.04260348704118158,0.003193952531149623,0.5591700000000001,0.019620000000000002,9.751140000000001
5292929240,21.9,-0.005323254218582705,0.04366813788489812,0.001064650843716541,0.51012,-0.009810000000000001,9.80019
5297979745,21.9,-0.0170518667919846,0.03408628029144926,0.0,0.51012,-0.039240000000000004,9.86886
5303030250,21.9,-0.028763026072866547,0.03089232776029963,0.0,0.46107000000000004,-0.10791,9.87867
5308080755,21.9,-0.03515093113516579,0.01918116847941768,-0.001064650843716541,0.47088,-0.22563,9.81
5313131260,21.9,-0.03515093113516579,0.002129301687433082,0.001064650843716541,0.47088,-0.25506,9.74133
5318181765,21.9,-0.031956978604016174,-0.013840460968315033,-0.001064650843716541,0.51993,-0.36297,9.751140000000001
5323232270,21.9,-0.020245819323134222,-0.031956978604016174,0.0,0.5591700000000001,-0.38259000000000004,9.89829
5328282775,21.9,-0.004258603374866164,-0.0404741853537485,-0.001064650843716541,0.57879,-0.37278,9.91791
5333333280,21.9,0.006387905062299246,-0.04794419455228423,-0.003193952531149623,0.6278400000000001,-0.31392000000000003,9.85905
5338383785,21.9,0.021310470166850764,-0.04366813788489812,-0.001064650843716541,0.65727,-0.28449,9.770760000000001
5343434290,21.9,0.023439771854283843,-0.03515093113516579,0.0,0.69651,-0.21582,9.73152
5348484795,21.9,0.024504422698000388,-0.028763026072866547,0.0,0.71613,-0.13734000000000002,9.80019
5353535300,21.9,0.028763026072866547,-0.015987215948268057,0.001064650843716541,0.72594,-0.07848000000000001,9.85905
5358585805,21.9,0.02982767691658309,-0.004258603374866164,0.0,0.73575,-0.04905,9.82962
5363636310,21.9,0.02556907354171693,0.01064650843716541,0.0,0.6670800000000001,0.0,9.751140000000001
5368686815,21.9,0.014905111812031574,0.02556907354171693,0.0,0.6670800000000001,0.02943,9.72171
5373737320,21.9,0.005323254218582705,0.03728023282259888,0.002129301687433082,0.60822,0.019620000000000002,9.751140000000001
5378787825,21.9,-0.008517206749732328,0.04366813788489812,0.003193952531149623,0.56898,0.0,9.82962
5383838330,21.9,-0.023439771854283843,0.046879543708567686,0.001064650843716541,0.5591700000000001,-0.06867000000000001,9.85905
5388888835,21.9,-0.033021629447732716,0.03515093113516579,0.001064650843716541,0.50031,-0.10791,9.81
5393939340,21.9,-0.03515093113516579,0.0170518667919846,0.0,0.48069000000000006,-0.21582,9.760950000000001
5398989845,21.9,-0.02769837522915001,0.0,0.0,0.50031,-0.24525000000000002,9.78057
5404040350,21.9,-0.022375121010567305,-0.015987215948268057,0.002129301687433082,0.5493600000000001,-0.32373,9.86886
5409090855,21.9,-0.01811651763570114,-0.02769837522915001,-0.002129301687433082,0.59841,-0.37278,9.908100000000001
5414141360,21.9,-0.013840460968315033,-0.03408628029144926,-0.002129301687433082,0.6278400000000001,-0.36297,9.888480000000001
5419191865,21.9,0.001064650843716541,-0.03834488366631542,-0.003193952531149623,0.65727,-0.35316,9.83943
5424242370,21.9,0.0170518667919846,-0.04260348704118158,0.0,0.6867000000000001,-0.30411,9.751140000000001
5429292875,21.9,0.02556907354171693,-0.044732788728614664,0.0,0.72594,-0.22563,9.760950000000001
5434343380,21.9,0.033021629447732716,-0.03621558197888234,-0.001064650843716541,0.73575,-0.17658,9.82962
5439393885,21.9,0.03621558197888234,-0.024504422698000388,-0.002129301687433082,0.7749900000000001,-0.06867000000000001,9.84924
5444444390,21.9,0.033021629447732716,-0.001064650843716541,0.0,0.7749900000000001,-0.05886,9.84924
5449494895,21.9,0.021310470166850764,0.021310470166850764,0.002129301687433082,0.72594,0.0,9.770760000000001
5454545400,21.9,0.00958185759344887,0.04794419455228423,0.003193952531149623,0.65727,0.009810000000000001,9.7119
5459595905,21.9,0.002129301687433082,0.05646140130201656,0.002129301687433082,0.60822,0.05886,9.72171
5464646410,21.9,-0.005323254218582705,0.06284930636431581,0.003193952531149623,0.56898,0.0,9.819809999999999
5469696915,21.9,-0.0170518667919846,0.05113814708343386,0.001064650843716541,0.51993,-0.02943,9.888480000000001
5474747420,21.9,-0.02663372438543347,0.04260348704118158,0.001064650843716541,0.51012,-0.08829,9.87867
5479797925,21.9,-0.03834488366631542,0.022375121010567305,-0.001064650843716541,0.45126,-0.20601000000000003,9.81
5484848430,21.9,-0.039409534510031964,0.005323254218582705,-0.001064650843716541,0.47088,-0.28449,9.770760000000001
5489898935,21.9,-0.03621558197888234,-0.01064650843716541,-0.001064650843716541,0.50031,-0.35316,9.79038
5494949440,21.9,-0.024504422698000388,-0.023439771854283843,-0.002129301687433082,0.5395500000000001,-0.37278,9.83943
5499999945,21.9,-0.008517206749732328,-0.03408628029144926,0.0,0.57879,-0.3924,9.888480000000001
5505050450,21.9,0.005323254218582705,-0.04366813788489812,0.001064650843716541,0.6278400000000001,-0.33354000000000006,9.85905
5510100955,21.9,0.01811651763570114,-0.05007349623971732,-0.003193952531149623,0.64746,-0.28449,9.79038
5515151460,21.9,0.024504422698000388,-0.05113814708343386,0.001064650843716541,0.71613,-0.24525000000000002,9.819809999999999
5520201965,21.9,0.02769837522915001,-0.039409534510031964,-0.002129301687433082,0.71613,-0.18639,9.82962
5525252470,21.9,0.03408628029144926,-0.023439771854283843,-0.001064650843716541,0.72594,-0.0981,9.82962
5530302975,21.9,0.03408628029144926,0.0,-0.001064650843716541,0.73575,-0.06867000000000001,9.751140000000001
5535353480,21.9,0.03089232776029963,0.02769837522915001,0.0,0.6670800000000001,0.019620000000000002,9.68247
5540403985,21.9,0.021310470166850764,0.049008845396000776,0.003193952531149623,0.6670800000000001,0.05886,9.70209
5545454490,21.9,0.008517206749732328,0.06710790973918197,0.002129301687433082,0.5886,0.08829,9.81
5550504995,21.9,-0.007452555906015787,0.07030186227033158,0.003193952531149623,0.51993,0.039240000000000004,9.888480000000001
5555555500,21.9,-0.024504422698000388,0.05859070298944965,0.002129301687433082,0.45126,-0.02943,9.888480000000001
5560606005,21.9,-0.03515093113516579,0.03515093113516579,0.0,0.41202000000000005,-0.11772,9.79038
5565656510,21.9,-0.0404741853537485,0.008517206749732328,-0.001064650843716541,0.40221,-0.20601000000000003,9.760950000000001
5570707015,21.9,-0.0404741853537485,-0.015987215948268057,0.0,0.44145,-0.30411,9.81
5575757520,21.9,-0.03515093113516579,-0.028763026072866547,-0.002129301687433082,0.48069000000000006,-0.37278,9.84924
5580808025,21.9,-0.024504422698000388,-0.04260348704118158,-0.001064650843716541,0.52974,-0.41202000000000005,9.89829
5585858530,21.9,-0.015987215948268057,-0.046879543708567686,0.0,0.6180300000000001,-0.42183,9.83943
5590909035,21.9,0.003193952531149623,-0.05859070298944965,0.0,0.6768900000000001,-0.37278,9.82962
5595959540,21.9,0.021310470166850764,-0.060720004676882725,0.0,0.72594,-0.32373,9.81
5601010045,21.9,0.03515093113516579,-0.05752605214573309,0.0,0.7651800000000001,-0.26487,9.83943
5606060550,21.9,0.039409534510031964,-0.044732788728614664,0.0,0.80442,-0.17658,9.819809999999999
5611111055,21.9,0.04366813788489812,-0.020245819323134222,0.001064650843716541,0.7749900000000001,-0.07848000000000001,9.78057
5616161560,21.9,0.03834488366631542,0.008517206749732328,-0.001064650843716541,0.75537,0.019620000000000002,9.70209
5621212065,21.9,0.03089232776029963,0.03834488366631542,0.001064650843716541,0.72594,0.04905,9.751140000000001
5626262570,21.9,0.021310470166850764,0.05965535383316618,0.001064650843716541,0.6670800000000001,0.08829,9.79038
5631313075,21.9,0.004258603374866164,0.07243116395776468,0.005323254218582705,0.5886,0.11772,9.819809999999999
5636363580,21.9,-0.00958185759344887,0.06923721142661506,0.004258603374866164,0.51993,0.07848000000000001,9.81
5641414085,21.9,-0.024504422698000388,0.05752605214573309,0.0,0.44145,-0.009810000000000001,9.81
5646464590,21.9,-0.039409534510031964,0.03621558197888234,0.002129301687433082,0.42183,-0.07848000000000001,9.819809999999999
5651515095,21.9,-0.049008845396000776,0.012775810124598492,0.0,0.42183,-0.20601000000000003,9.81
5656565600,21.9,-0.05220279792715039,-0.01064650843716541,0.001064650843716541,0.45126,-0.33354000000000006,9.819809999999999
5661616105,21.9,-0.04153883619746504,-0.023439771854283843,-0.001064650843716541,0.52974,-0.3924,9.82962
5666666610,21.9,-0.02556907354171693,-0.04260348704118158,-0.001064650843716541,0.56898,-0.46107000000000004,9.84924
5671717115,21.9,-0.00958185759344887,-0.04794419455228423,-0.001064650843716541,0.60822,-0.43164,9.85905
5676767620,21.9,0.008517206749732328,-0.05646140130201656,-0.001064650843716541,0.6670800000000001,-0.41202000000000005,9.84924
5681818125,21.9,0.022375121010567305,-0.05965535383316618,-0.001064650843716541,0.69651,-0.34335000000000004,9.84924
5686868630,21.9,0.033021629447732716,-0.05752605214573309,-0.001064650843716541,0.7651800000000001,-0.24525000000000002,9.79038
5691919135,21.9,0.0404741853537485,-0.05007349623971732,0.001064650843716541,0.80442,-0.18639,9.79038
5696969640,21.9,0.04366813788489812,-0.03728023282259888,-0.001064650843716541,0.80442,-0.08829,9.770760000000001
5702020145,21.9,0.044732788728614664,-0.011711159280881954,0.0,0.80442,0.0,9.80019
5707070650,21.9,0.039409534510031964,0.014905111812031574,0.0,0.7848,0.05886,9.80019
5712121155,21.9,0.024504422698000388,0.04581489286485115,0.001064650843716541,0.72594,0.08829,9.78057
5717171660,21.9,0.008517206749732328,0.07349581480148122,0.003193952531149623,0.6670800000000001,0.12753,9.751140000000001
5722222165,21.9,-0.00958185759344887,0.0852244273748831,0.001064650843716541,0.5886,0.0981,9.751140000000001
5727272670,21.9,-0.02556907354171693,0.09374163412461543,0.007452555906015787,0.51993,0.04905,9.770760000000001
5732323175,21.9,-0.039409534510031964,0.08309512568745003,0.002129301687433082,0.42183,-0.05886,9.81
5737373680,21.9,-0.04794419455228423,0.06178465552059926,0.001064650843716541,0.37278,-0.14715,9.83943
5742424185,21.9,-0.05220279792715039,0.03515093113516579,0.001064650843716541,0.37278,-0.24525000000000002,9.819809999999999
5747474690,21.9,-0.05113814708343386,0.003193952531149623,-0.002129301687433082,0.40221,-0.3924,9.81
5752525195,21.9,-0.04366813788489812,-0.02769837522915001,0.0,0.43164,-0.45126,9.888480000000001
5757575700,21.9,-0.02663372438543347,-0.054332099614583476,0.0,0.49050000000000005,-0.50031,9.888480000000001
5762626205,21.9,-0.008517206749732328,-0.07136651311404815,-0.003193952531149623,0.56898,-0.48069000000000006,9.86886
5767676710,21.9,0.012775810124598492,-0.08096582400001695,-0.002129301687433082,0.64746,-0.42183,9.79038
5772727215,21.9,0.033021629447732716,-0.0756251164889143,-0.003193952531149623,0.71613,-0.35316,9.74133
5777777720,21.9,0.04581489286485115,-0.06817256058289851,0.0,0.7848,-0.24525000000000002,9.79038
5782828225,21.9,0.054332099614583476,-0.05326744877086694,-0.001064650843716541,0.79461,-0.12753,9.84924
5787878730,21.9,0.05326744877086694,-0.03089232776029963,-0.002129301687433082,0.79461,-0.02943,9.908100000000001
5792929235,21.9,0.04794419455228423,-0.005323254218582705,0.0,0.8142300000000001,0.039240000000000004,9.83943
5797979740,21.9,0.039409534510031964,0.021310470166850764,0.0,0.75537,0.10791,9.80019
5803030245,21.9,0.024504422698000388,0.0404741853537485,0.0,0.70632,0.11772,9.70209
5808080750,21.9,0.004258603374866164,0.05752605214573309,0.003193952531149623,0.6278400000000001,0.11772,9.65304
5813131255,21.9,-0.014905111812031574,0.06178465552059926,0.001064650843716541,0.57879,0.06867000000000001,9.760950000000001
5818181760,21.9,-0.03089232776029963,0.06497860805174888,0.004258603374866164,0.5395500000000001,0.0,9.85905
5823232265,21.9,-0.04794419455228423,0.05859070298944965,0.0,0.51012,-0.08829,9.87867
5828282770,21.9,-0.05113814708343386,0.04366813788489812,0.0,0.46107000000000004,-0.1962,9.819809999999999
5833333275,21.9,-0.05326744877086694,0.02556907354171693,-0.001064650843716541,0.46107000000000004,-0.28449,9.74133
5838383780,21.9,-0.046879543708567686,0.006387905062299246,-0.001064650843716541,0.47088,-0.40221,9.74133
5843434285,21.9,-0.03089232776029963,-0.00958185759344887,0.0,0.52974,-0.45126,9.87867
5848484790,21.9,-0.0170518667919846,-0.021310470166850764,0.001064650843716541,0.5591700000000001,-0.44145,9.888480000000001
5853535295,21.9,-0.002129301687433082,-0.03728023282259888,0.001064650843716541,0.5886,-0.41202000000000005,9.81
5858585800,21.9,0.013840460968315033,-0.04794419455228423,0.001064650843716541,0.6180300000000001,-0.3924,9.760950000000001
5863636305,21.9,0.02982767691658309,-0.05113814708343386,0.0,0.64746,-0.31392000000000003,9.78057
5868686810,21.9,0.04260348704118158,-0.05539675045830002,0.0,0.6768900000000001,-0.18639,9.86886
5873737315,21.9,0.049008845396000776,-0.04581489286485115,0.001064650843716541,0.73575,-0.08829,9.91791
5878787820,21.9,0.046879543708567686,-0.03408628029144926,0.0,0.73575,-0.039240000000000004,9.81
5883838325,21.9,0.03621558197888234,-0.014905111812031574,-0.001064650843716541,0.73575,0.019620000000000002,9.72171
5888888830,21.9,0.02769837522915001,0.006387905062299246,0.0,0.70632,0.02943,9.68247
5893939335,21.9,0.015987215948268057,0.02663372438543347,0.002129301687433082,0.72594,0.07848000000000001,9.770760000000001
5898989840,21.9,0.003193952531149623,0.05007349623971732,0.002129301687433082,0.6670800000000001,0.07848000000000001,9.83943
5904040345,21.9,-0.012775810124598492,0.06710790973918197,0.003193952531149623,0.57879,0.04905,9.79038
5909090850,21.9,-0.02556907354171693,0.07243116395776468,0.001064650843716541,0.51993,-0.02943,9.760950000000001
5914141355,21.9,-0.039409534510031964,0.07349581480148122,0.002129301687433082,0.46107000000000004,-0.08829,9.751140000000001
5919191860,21.9,-0.044732788728614664,0.05752605214573309,0.002129301687433082,0.43164,-0.18639,9.85905
5924242365,21.9,-0.04794419455228423,0.033021629447732716,0.003193952531149623,0.41202000000000005,-0.27468000000000004,9.908100000000001
5929292870,21.9,-0.04581489286485115,-0.0,-0.001064650843716541,0.37278,-0.35316,9.84924
5934343375,21.9,-0.03408628029144926,-0.031956978604016174,-0.001064650843716541,0.44145,-0.44145,9.751140000000001
5939393880,21.9,-0.015987215948268057,-0.05859070298944965,-0.001064650843716541,0.50031,-0.45126,9.79038
5944444385,21.9,0.001064650843716541,-0.08203047484373349,-0.002129301687433082,0.60822,-0.43164,9.888480000000001
5949494890,21.9,0.0170518667919846,-0.09054768159346581,-0.003193952531149623,0.70632,-0.3924,9.92772
5954545395,21.9,0.02982767691658309,-0.08203047484373349,-0.003193952531149623,0.7749900000000001,-0.32373,9.85905
5959595900,21.9,0.0404741853537485,-0.06284930636431581,-0.005323254218582705,0.8240400000000001,-0.20601000000000003,9.79038
5964646405,21.9,0.049008845396000776,-0.03834488366631542,0.001064650843716541,0.8142300000000001,-0.14715,9.70209
5969696910,21.9,0.05326744877086694,-0.0170518667919846,0.0,0.8142300000000001,-0.009810000000000001,9.70209
5974747415,21.9,0.046879543708567686,0.003193952531149623,0.001064650843716541,0.79461,0.039240000000000004,9.80019
5979797920,21.9,0.03621558197888234,0.0170518667919846,0.001064650843716541,0.7749900000000001,0.11772,9.83943
5984848425,21.9,0.015987215948268057,0.0404741853537485,0.0,0.73575,0.10791,9.84924
5989898930,21.9,-0.001064650843716541,0.05326744877086694,0.0,0.6670800000000001,0.08829,9.86886
5994949435,21.9,-0.01918116847941768,0.07243116395776468,0.003193952531149623,0.5886,0.039240000000000004,9.74133
5999999940,21.9,-0.031956978604016174,0.07456046564519776,0.0,0.5493600000000001,-0.019620000000000002,9.60399
6005050445,21.9,-0.04366813788489812,0.07349581480148122,0.003193952531149623,0.47088,-0.12753,9.68247
6010100950,21.9,-0.049008845396000776,0.06710790973918197,0.001064650843716541,0.44145,-0.16677000000000003,9.86886
6015151455,21.9,-0.05007349623971732,0.04153883619746504,0.002129301687433082,0.44145,-0.28449,10.025820000000001
6020201960,21.9,-0.046879543708567686,0.022375121010567305,0.001064650843716541,0.41202000000000005,-0.3924,9.94734
6025252465,21.9,-0.04153883619746504,-0.012775810124598492,-0.002129301687433082,0.41202000000000005,-0.44145,9.760950000000001
6030302970,21.9,-0.021310470166850764,-0.039409534510031964,0.0,0.46107000000000004,-0.45126,9.64323
6035353475,21.9,-0.002129301687433082,-0.05965535383316618,-0.005323254218582705,0.5395500000000001,-0.44145,9.82962
6040403980,21.9,0.01918116847941768,-0.06710790973918197,-0.001064650843716541,0.60822,-0.37278,9.99639
6045454485,21.9,0.03089232776029963,-0.06391395720803235,-0.002129301687433082,0.6768900000000001,-0.2943,9.908100000000001
6050504990,21.9,0.03621558197888234,-0.05646140130201656,-0.002129301687433082,0.70632,-0.23544,9.78057
6055555495,21.9,0.046879543708567686,-0.039409534510031964,0.0,0.71613,-0.12753,9.67266
6060606000,21.9,0.046879543708567686,-0.028763026072866547,0.0,0.74556,-0.02943,9.74133
6065656505,21.9,0.044732788728614664,-0.011711159280881954,0.001064650843716541,0.74556,0.039240000000000004,9.94734
6070707010,21.9,0.031956978604016174,-0.006387905062299246,-0.003193952531149623,0.70632,0.06867000000000001,9.888480000000001
6075757515,21.9,0.01918116847941768,0.0,0.002129301687433082,0.70632,0.06867000000000001,9.81
6080808020,21.9,0.002129301687433082,0.012775810124598492,-0.002129301687433082,0.6768900000000001,0.039240000000000004,9.64323
6085858525,21.9,-0.008517206749732328,0.01811651763570114,0.0,0.6867000000000001,0.019620000000000002,9.73152
6090909030,21.9,-0.022375121010567305,0.04153883619746504,0.004258603374866164,0.65727,-0.05886,9.85905
6095959535,21.9,-0.03728023282259888,0.049008845396000776,0.0,0.56898,-0.14715,9.79038
6101010040,21.9,-0.03515093113516579,0.05220279792715039,0.003193952531149623,0.5886,-0.16677000000000003,9.73152
6106060545,21.9,-0.03515093113516579,0.05220279792715039,0.001064650843716541,0.51993,-0.23544,9.72171
6111111050,21.9,-0.03408628029144926,0.03834488366631542,0.002129301687433082,0.51012,-0.26487,9.94734
6116161555,21.9,-0.02982767691658309,0.028763026072866547,0.0,0.50031,-0.30411,9.92772
6121212060,21.9,-0.023439771854283843,0.004258603374866164,0.0,0.47088,-0.38259000000000004,9.82962
6126262565,21.9,-0.01064650843716541,-0.015987215948268057,0.0,0.48069000000000006,-0.37278,9.65304
6131313070,21.9,0.003193952531149623,-0.03834488366631542,0.0,0.57879,-0.33354000000000006,9.79038
6136363575,21.9,0.013840460968315033,-0.049008845396000776,-0.002129301687433082,0.6180300000000001,-0.30411,9.937529999999999
6141414080,21.9,0.024504422698000388,-0.05220279792715039,-0.005323254218582705,0.65727,-0.22563,9.91791
6146464585,21.9,0.02982767691658309,-0.04794419455228423,-0.002129301687433082,0.6768900000000001,-0.18639,9.91791
6151515090,21.9,0.031956978604016174,-0.03089232776029963,0.0,0.6768900000000001,-0.10791,9.7119
6156565595,21.9,0.031956978604016174,-0.015987215948268057,0.002129301687433082,0.6670800000000001,-0.04905,9.67266
6161616100,21.9,0.023439771854283843,0.001064650843716541,0.002129301687433082,0.6867000000000001,-0.009810000000000001,9.78057
6166666605,21.9,0.01811651763570114,0.001064650843716541,0.003193952531149623,0.6768900000000001,-0.019620000000000002,9.86886
6171717110,21.9,0.008517206749732328,0.003193952531149623,0.0,0.6670800000000001,-0.019620000000000002,9.89829
6176767615,21.9,0.0,0.0,0.0,0.6670800000000001,-0.02943,9.82962
6181818120,21.9,-0.011711159280881954,-0.002129301687433082,-0.001064650843716541,0.6768900000000001,-0.07848000000000001,9.74133
6186868625,21.9,-0.020245819323134222,0.004258603374866164,0.0,0.69651,-0.15696000000000002,9.79038
6191919130,21.9,-0.023439771854283843,0.014905111812031574,0.0,0.6768900000000001,-0.1962,9.819809999999999
6196969635,21.9,-0.022375121010567305,0.033021629447732716,0.0,0.63765,-0.24525000000000002,9.80019
6202020140,21.9,-0.015987215948268057,0.04260348704118158,0.0,0.59841,-0.20601000000000003,9.7119
6207070645,21.9,-0.011711159280881954,0.05220279792715039,0.002129301687433082,0.56898,-0.21582,9.751140000000001
6212121150,21.9,-0.007452555906015787,0.054332099614583476,0.005323254218582705,0.51012,-0.21582,9.84924
6217171655,21.9,-0.005323254218582705,0.046879543708567686,0.002129301687433082,0.48069000000000006,-0.21582,9.937529999999999
6222222160,21.9,-0.006387905062299246,0.03621558197888234,0.0,0.44145,-0.16677000000000003,9.81
6227272665,21.9,-0.001064650843716541,0.020245819323134222,0.0,0.41202000000000005,-0.20601000000000003,9.760950000000001
6232323170,21.9,-0.001064650843716541,-0.001064650843716541,0.002129301687433082,0.43164,-0.20601000000000003,9.79038
6237373675,21.9,0.006387905062299246,-0.0170518667919846,-0.003193952531149623,0.43164,-0.16677000000000003,9.819809999999999
6242424180,21.9,0.003193952531149623,-0.04260348704118158,0.0,0.50031,-0.1962,9.85905
6247474685,21.9,0.002129301687433082,-0.05965535383316618,0.0,0.52974,-0.20601000000000003,9.83943
6252525190,21.9,0.003193952531149623,-0.06710790973918197,-0.003193952531149623,0.6180300000000001,-0.22563,9.83943
6257575695,21.9,0.004258603374866164,-0.07349581480148122,-0.001064650843716541,0.6670800000000001,-0.21582,9.85905
6262626200,21.9,0.00958185759344887,-0.06391395720803235,-0.002129301687433082,0.75537,-0.22563,9.84924
6267676705,21.9,0.014905111812031574,-0.046879543708567686,0.0,0.7651800000000001,-0.20601000000000003,9.78057
6272727210,21.9,0.014905111812031574,-0.02556907354171693,0.0,0.7848,-0.14715,9.70209
6277777715,21.9,0.0170518667919846,-0.006387905062299246,0.002129301687433082,0.79461,-0.10791,9.74133
6282828220,21.9,0.0170518667919846,0.004258603374866164,0.003193952531149623,0.75537,-0.07848000000000001,9.888480000000001
6287878725,21.9,0.00958185759344887,0.013840460968315033,0.001064650843716541,0.74556,-0.07848000000000001,9.86886
6292929230,21.9,0.004258603374866164,0.006387905062299246,0.001064650843716541,0.72594,-0.06867000000000001,9.83943
6297979735,21.9,-0.003193952531149623,0.003193952531149623,0.0,0.70632,-0.0981,9.78057
6303030240,21.9,-0.004258603374866164,0.005323254218582705,-0.001064650843716541,0.70632,-0.11772,9.760950000000001
6308080745,21.9,-0.006387905062299246,0.007452555906015787,-0.004258603374866164,0.72594,-0.13734000000000002,9.81
6313131250,21.9,-0.01064650843716541,0.028763026072866547,0.002129301687433082,0.69651,-0.16677000000000003,9.79038
6318181755,21.9,-0.012775810124598492,0.046879543708567686,0.002129301687433082,0.64746,-0.16677000000000003,9.770760000000001
6323232260,21.9,-0.012775810124598492,0.054332099614583476,0.005323254218582705,0.59841,-0.1962,9.74133
6328282765,21.9,-0.01064650843716541,0.05326744877086694,0.002129301687433082,0.56898,-0.17658,9.78057
6333333270,21.9,-0.007452555906015787,0.046879543708567686,0.002129301687433082,0.52974,-0.18639,9.85905
6338383775,21.9,-0.01064650843716541,0.028763026072866547,0.001064650843716541,0.50031,-0.14715,9.937529999999999
6343434280,21.9,-0.012775810124598492,0.012775810124598492,-0.002129301687433082,0.47088,-0.22563,9.83943
6348484785,21.9,-0.008517206749732328,-0.001064650843716541,0.0,0.46107000000000004,-0.22563,9.81
6353535290,21.9,-0.005323254218582705,-0.007452555906015787,-0.001064650843716541,0.50031,-0.21582,9.760950000000001
6358585795,21.9,-0.002129301687433082,-0.001064650843716541,0.0,0.52974,-0.21582,9.81
6363636300,21.9,0.002129301687433082,0.002129301687433082,0.0,0.51012,-0.1962,9.85905
6368686805,21.9,0.007452555906015787,0.003193952531149623,0.0,0.50031,-0.1962,9.85905
6373737310,21.9,0.008517206749732328,0.001064650843716541,0.002129301687433082,0.49050000000000005,-0.15696000000000002,9.80019
6378787815,21.9,0.008517206749732328,-0.004258603374866164,0.001064650843716541,0.50031,-0.12753,9.819809999999999
6383838320,21.9,0.007452555906015787,-0.015987215948268057,0.002129301687433082,0.5395500000000001,-0.12753,9.908100000000001
6388888825,21.9,0.004258603374866164,-0.02982767691658309,-0.002129301687433082,0.5493600000000001,-0.16677000000000003,9.84924
6393939330,21.9,0.0,-0.04153883619746504,-0.002129301687433082,0.5886,-0.1962,9.80019
6398989835,21.9,0.001064650843716541,-0.039409534510031964,0.0,0.5886,-0.1962,9.78057
6404040340,21.9,0.005323254218582705,-0.039409534510031964,0.0,0.6670800000000001,-0.17658,9.79038
6409090845,21.9,0.005323254218582705,-0.023439771854283843,0.0,0.72594,-0.15696000000000002,9.81
6414141350,21.9,0.007452555906015787,-0.01064650843716541,0.0,0.69651,-0.14715,9.78057
6419191855,21.9,0.007452555906015787,0.004258603374866164,0.002129301687433082,0.6670800000000001,-0.13734000000000002,9.770760000000001
6424242360,21.9,0.004258603374866164,0.006387905062299246,0.002129301687433082,0.65727,-0.0981,9.751140000000001
6429292865,21.9,0.006387905062299246,0.005323254218582705,0.003193952531149623,0.65727,-0.08829,9.80019
6434343370,21.9,0.0,-0.001064650843716541,0.0,0.65727,-0.08829,9.85905
6439393875,21.9,-0.001064650843716541,-0.005323254218582705,0.0,0.6670800000000001,-0.14715,9.84924
6444444380,21.9,-0.005323254218582705,-0.008517206749732328,0.001064650843716541,0.6867000000000001,-0.15696000000000002,9.81
6449494885,21.9,-0.007452555906015787,-0.002129301687433082,-0.001064650843716541,0.6867000000000001,-0.17658,9.78057
6454545390,21.9,-0.007452555906015787,0.00958185759344887,0.0,0.70632,-0.16677000000000003,9.80019
6459595895,21.9,-0.004258603374866164,0.020245819323134222,0.003193952531149623,0.6670800000000001,-0.18639,9.82962
6464646400,21.9,-0.003193952531149623,0.03408628029144926,0.003193952531149623,0.6278400000000001,-0.16677000000000003,9.82962
6469696905,21.9,-0.003193952531149623,0.03515093113516579,0.001064650843716541,0.5886,-0.15696000000000002,9.79038
6474747410,21.9,-0.003193952531149623,0.02982767691658309,0.002129301687433082,0.5493600000000001,-0.18639,9.770760000000001
6479797915,21.9,-0.001064650843716541,0.0170518667919846,0.0,0.52974,-0.18639,9.86886
6484848420,21.9,-0.003193952531149623,0.005323254218582705,-0.002129301687433082,0.52974,-0.17658,9.91791
6489898925,21.9,-0.005323254218582705,-0.002129301687433082,-0.002129301687433082,0.5395500000000001,-0.1962,9.86886
6494949430,21.9,-0.002129301687433082,-0.008517206749732328,-0.001064650843716541,0.56898,-0.21582,9.79038
6499999935,21.9,0.0,-0.002129301687433082,-0.001064650843716541,0.5591700000000001,-0.18639,9.74133
6505050440,21.9,0.005323254218582705,0.001064650843716541,0.002129301687433082,0.5493600000000001,-0.15696000000000002,9.73152
6510100945,21.9,0.007452555906015787,0.005323254218582705,0.001064650843716541,0.56898,-0.16677000000000003,9.80019
6515151450,21.9,0.005323254218582705,0.005323254218582705,0.0,0.5395500000000001,-0.13734000000000002,9.81
6520201955,21.9,0.004258603374866164,0.0,0.0,0.51012,-0.13734000000000002,9.84924
6525252460,21.9,0.002129301687433082,-0.007452555906015787,0.0,0.52974,-0.14715,9.80019
6530302965,21.9,0.004258603374866164,-0.021310470166850764,0.0,0.5591700000000001,-0.13734000000000002,9.78057
6535353470,21.9,0.0,-0.028763026072866547,0.0,0.59841,-0.16677000000000003,9.81
6540403975,21.9,-0.001064650843716541,-0.02982767691658309,-0.001064650843716541,0.63765,-0.13734000000000002,9.81
6545454480,21.9,0.001064650843716541,-0.023439771854283843,0.001064650843716541,0.65727,-0.16677000000000003,9.78057
6550504985,21.9,0.0,-0.01064650843716541,-0.002129301687433082,0.65727,-0.16677000000000003,9.79038
6555555490,21.9,0.002129301687433082,0.0,0.0,0.65727,-0.17658,9.81
6560605995,21.9,0.001064650843716541,0.007452555906015787,0.0,0.64746,-0.16677000000000003,9.82962
6565656500,21.9,0.002129301687433082,0.007452555906015787,0.002129301687433082,0.6278400000000001,-0.16677000000000003,9.82962
6570707005,21.9,0.0,0.004258603374866164,0.001064650843716541,0.63765,-0.17658,9.819809999999999
6575757510,21.9,-0.001064650843716541,-0.0,-0.001064650843716541,0.6180300000000001,-0.14715,9.83943
6580808015,21.9,0.0,-0.003193952531149623,0.002129301687433082,0.63765,-0.17658,9.89829
6585858520,21.9,-0.001064650843716541,-0.001064650843716541,0.0,0.64746,-0.16677000000000003,9.82962
6590909025,21.9,-0.002129301687433082,0.001064650843716541,0.0,0.65727,-0.17658,9.770760000000001
6595959530,21.9,-0.001064650843716541,0.006387905062299246,0.0,0.6180300000000001,-0.16677000000000003,9.74133
6601010035,21.9,0.001064650843716541,0.013840460968315033,0.0,0.60822,-0.14715,9.79038
6606060540,21.9,0.003193952531149623,0.0170518667919846,0.0,0.60822,-0.16677000000000003,9.86886
6611111045,21.9,0.002129301687433082,0.021310470166850764,0.0,0.60822,-0.13734000000000002,9.819809999999999
6616161550,21.9,0.0,0.013840460968315033,0.001064650843716541,0.5591700000000001,-0.14715,9.79038
6621212055,21.9,-0.001064650843716541,0.007452555906015787,0.001064650843716541,0.52974,-0.14715,9.79038
6626262560,21.9,-0.002129301687433082,-0.001064650843716541,0.0,0.5395500000000001,-0.14715,9.82962
6631313065,21.9,-0.002129301687433082,-0.01064650843716541,0.0,0.5886,-0.15696000000000002,9.86886
6636363570,21.9,-0.003193952531149623,-0.00958185759344887,0.0,0.59841,-0.17658,9.86886
6641414075,21.9,-0.003193952531149623,-0.005323254218582705,-0.001064650843716541,0.59841,-0.17658,9.751140000000001
6646464580,21.9,0.001064650843716541,-0.002129301687433082,0.0,0.6180300000000001,-0.1962,9.74133
6651515085,21.9,0.0,0.001064650843716541,0.002129301687433082,0.57879,-0.17658,9.819809999999999
6656565590,21.9,0.001064650843716541,0.003193952531149623,0.003193952531149623,0.60822,-0.16677000000000003,9.888480000000001
6661616095,21.9,0.002129301687433082,0.002129301687433082,0.002129301687433082,0.59841,-0.16677000000000003,9.86886
6666666600,21.9,0.0,-0.006387905062299246,-0.001064650843716541,0.56898,-0.15696000000000002,9.81
6671717105,21.9,0.0,-0.014905111812031574,-0.001064650843716541,0.59841,-0.16677000000000003,9.751140000000001
6676767610,21.9,0.001064650843716541,-0.014905111812031574,-0.002129301687433082,0.5886,-0.17658,9.81
6681818115,21.9,0.004258603374866164,-0.014905111812031574,0.0,0.64746,-0.20601000000000003,9.86886
6686868620,21.9,0.002129301687433082,-0.006387905062299246,-0.001064650843716541,0.65727,-0.17658,9.87867
6691919125,21.9,0.0,0.002129301687433082,0.0,0.63765,-0.17658,9.78057
6696969630,21.9,0.005323254218582705,0.006387905062299246,0.0,0.6180300000000001,-0.15696000000000002,9.74133
