#timestamp [ns], temperature [degC], w_RS_S_x [rad s^-1], w_RS_S_y [rad s^-1], w_RS_S_z [rad s^-1], a_RS_S_x [m s^-2], a_RS_S_y [m s^-2], a_RS_S_z [m s^-2]
0.0,22.35,0.0,0.0,0.0,0.02943,0.16677,9.79038
5000000.0,22.35,0.0,0.0,0.0,0.010006199805762,0.16677,9.80009190009712
10000000.0,22.35,0.0,0.0,0.0,0.019423800194238,0.16677,9.819417600388476
15000000.0,22.35,0.0,0.0,0.0,0.038651400582714004,0.147738599417286,9.800778599417287
20000000.0,22.35,0.0,0.0,0.0,0.03924,0.14715,9.819025200776952
25000000.0,22.35,0.0,0.0,0.0,0.04855950048559501,0.14715,9.810490499514405
30000000.0,22.35,0.0,0.0,0.0,0.04905,0.14715,9.791557198834573
35000000.0,22.35,0.0,0.0,0.0,0.04905,0.16539660135966602,9.808626601359666
40000000.0,22.35,0.0,0.0,0.0,0.01294919689219197,0.16677,9.800974799223049
45000000.0,22.35,0.0,0.0,0.0,0.03659130262221302,0.175697100874071,9.809117100874072
50000000.0,22.35,0.0,0.0,0.0,0.03041099902880999,0.18540900097119,9.80117099902881
55000000.0,22.35,0.0,0.0,0.0,0.04689180213661802,0.177659098931691,9.80019
60000000.0,22.35,0.0,0.0,0.0,0.023151596503715965,0.167947198834572,9.774291596503716
65000000.0,22.35,0.0,0.0,0.0,0.002550597474905974,0.15823529873745298,9.787829402525094
70000000.0,22.35,0.0,0.0,0.0,0.03374640543866406,0.15696,9.815689804078998
75000000.0,22.35,0.0,0.0,0.0,0.03924,0.165298501456785,9.811471498543215
80000000.0,22.35,0.0,0.0,0.0,0.05572080310780803,0.17501040155390402,9.81
85000000.0,22.35,0.0,0.0,0.0,0.050717698348976985,0.14401079339590792,9.793715396697955
90000000.0,22.35,0.0,0.0,0.0,0.03296159650371597,0.15342840349628403,9.766247394755574
95000000.0,22.35,0.0,0.0,0.0,0.037376101845261016,0.14901389815473898,9.776842203690522
100000000.0,22.35,0.0,0.0,0.0,0.047088001942380026,0.16284600388476003,9.819810009711901
105000000.0,22.35,0.0,0.0,0.0,0.04905,0.15902009796050098,9.814120195921003
110000000.0,22.35,0.0,0.0,0.0,0.03374639572676396,0.13400459359014594,9.802348197863383
115000000.0,22.35,0.0,0.0,0.0,0.02943,0.15019110670121105,9.785082595532527
120000000.0,22.35,0.0,0.0,0.0,0.021974397669143976,0.17187120466171205,9.78057
125000000.0,22.35,0.0,0.0,0.0,0.026977502427975024,0.14714999028809989,9.79528500485595
130000000.0,22.35,0.0,0.0,0.0,0.03668940252509402,0.13734,9.80019
135000000.0,22.35,0.0,0.0,0.0,0.03924,0.15166260524442604,9.785867394755575
140000000.0,22.35,0.0,0.0,0.0,0.032176797280667975,0.17814960815799608,9.794696405438664
145000000.0,22.35,0.0,0.0,0.0,0.03639510281645103,0.1585295887341959,9.80019
150000000.0,22.35,0.0,0.0,0.0,0.03924,0.16775100874071008,9.80019
155000000.0,22.35,0.0,0.0,0.0,0.03924,0.1562732909679329,9.80019
160000000.0,22.35,0.0,0.0,0.0,0.03924,0.14715,9.780177590676576
165000000.0,22.35,0.0,0.0,0.0,0.032667296795072964,0.16029540640985407,9.783905406409854
170000000.0,22.35,0.0,0.0,0.0,0.04237920660409207,0.17324460330204602,9.803329206604092
175000000.0,22.35,0.0,0.0,0.0,0.04267349660083496,0.18295650339916503,9.797246993201671
180000000.0,22.35,0.0,0.0,0.0,0.020404789511147894,0.16755478951114788,9.80293680699257
185000000.0,22.35,0.0,0.0,0.0,0.022170607186806073,0.1384190892197909,9.779098482032985
190000000.0,22.35,0.0,0.0,0.0,0.02334779630947796,0.13969440738104408,9.785278814762089
195000000.0,22.35,0.0,0.0,0.0,0.013635896212358962,0.14715,9.806174103787642
200000000.0,22.35,0.0,0.0,0.0,0.00981,0.15303600388476002,9.804113996115241
205000000.0,22.35,0.0,0.0,0.0,0.027173711945637117,0.15696,9.788614192036242
210000000.0,22.35,0.0,0.0,0.0,0.03924,0.16833960815799606,9.797639412236995
215000000.0,22.35,0.0,0.0,0.0,0.03924,0.17658,9.804408295823883
220000000.0,22.35,0.0,0.0,0.0,0.03374639572676395,0.1546055829070558,9.789202791453528
225000000.0,22.35,0.0,0.0,0.0,0.024034495629644957,0.14273550437035504,9.78057
230000000.0,22.35,0.0,0.0,0.0,0.03551221340242214,0.14185259553252594,9.807057022337371
235000000.0,22.35,0.0,0.0,0.0,0.04905,0.14253930456459304,9.824420695435407
240000000.0,22.35,0.0,0.0,0.0,0.04394879533828795,0.15225120466171205,9.814708795338289
245000000.0,22.35,0.0,0.0,0.0,0.03423689524116895,0.15696,9.80499689524117
250000000.0,22.35,0.0,0.0,0.0,0.044145014567850145,0.1667700097119001,9.795284995144051
255000000.0,22.35,0.0,0.0,0.0,0.054053095046930955,0.16696619009386188,9.79518690495307
260000000.0,22.35,0.0,0.0,0.0,0.04434119494981195,0.15225119494981196,9.786063584849435
265000000.0,22.35,0.0,0.0,0.0,0.03924,0.1563714102946141,9.78459211544192
270000000.0,22.35,0.0,0.0,0.0,0.034727394755573945,0.16677,9.804702605244426
275000000.0,22.35,0.0,0.0,0.0,0.03384450534154505,0.1579409893169099,9.814414505341546
280000000.0,22.35,0.0,0.0,0.0,0.034923594561335945,0.15146640543866405,9.811177189122672
285000000.0,22.35,0.0,0.0,0.0,0.03364830553578305,0.14852338892843386,9.80019
290000000.0,22.35,0.0,0.0,0.0,0.026879383101293827,0.13734,9.787829383101293
295000000.0,22.35,0.0,0.0,0.0,0.02187631719006317,0.13734,9.782826317190063
300000000.0,22.35,0.0,0.0,0.0,0.043164005827140056,0.14911201748142017,9.796265994172861
305000000.0,22.35,0.0,0.0,0.0,0.04522409407574094,0.17059590592425905,9.79420590592426
310000000.0,22.35,0.0,0.0,0.0,0.04296780602137806,0.17658,9.792734387957244
315000000.0,22.35,0.0,0.0,0.0,0.04542029388150294,0.16932058776300588,9.791459118355492
320000000.0,22.35,0.0,0.0,0.0,0.028645181353151812,0.1463651813531518,9.802936787568768
325000000.0,22.35,0.0,0.0,0.0,0.02354402525094025,0.1378305189382052,9.797247012625471
330000000.0,22.35,0.0,0.0,0.0,0.035708374360583744,0.16029540640985407,9.803329187180292
335000000.0,22.35,0.0,0.0,0.0,0.019521919520919195,0.16677,9.796854613013947
340000000.0,22.35,0.0,0.0,0.0,0.032961586791815864,0.16990920660409206,9.80686079339591
345000000.0,22.35,0.0,0.0,0.0,0.028743320103633202,0.17353889329878894,9.80019
350000000.0,22.35,0.0,0.0,0.0,0.04610699320166994,0.16971300679833007,9.797246993201671
355000000.0,22.35,0.0,0.0,0.0,0.03639509310455093,0.17089018620910185,9.787535093104552
360000000.0,22.35,0.0,0.0,0.0,0.02943,0.15146638601486384,9.78331680699257
365000000.0,22.35,0.0,0.0,0.0,0.02678129291031293,0.14793482835874827,9.793028707089688
370000000.0,22.35,0.0,0.0,0.0,0.01962,0.17658,9.797639392813194
375000000.0,22.35,0.0,0.0,0.0,0.026977521851775217,0.17658,9.79528501456785
380000000.0,22.35,0.0,0.0,0.0,0.04669559261895593,0.17658,9.805291185237913
385000000.0,22.35,0.0,0.0,0.0,0.043752614956326145,0.1743236925218369,9.788123692521838
390000000.0,22.35,0.0,0.0,0.0,0.048068962123589624,0.16677,9.784886415150565
395000000.0,22.35,0.0,0.0,0.0,0.018050430689604307,0.16058967698279678,9.802250107672402
400000000.0,22.35,0.0,0.0,0.0,0.04316397669143977,0.14126401553904014,9.80803799223048
405000000.0,22.35,0.0,0.0,0.0,0.01775609213336092,0.15882390786663908,9.80019
410000000.0,22.35,0.0,0.0,0.0,0.011575807963758079,0.16323838407248384,9.80195580796376
415000000.0,22.35,0.0,0.0,0.0,0.02128770806087708,0.15215312418263124,9.80499687581737
420000000.0,22.35,0.0,0.0,0.0,0.030999608157996083,0.17344078368400784,9.783709216315993
425000000.0,22.35,0.0,0.0,0.0,0.043654524765345246,0.1554884917448849,9.79724698348977
430000000.0,22.35,0.0,0.0,0.0,0.06180295823882958,0.14715,9.783316816704469
435000000.0,22.35,0.0,0.0,0.0,0.02217061689870617,0.14970061689870617,9.801465308449353
440000000.0,22.35,0.0,0.0,0.0,0.038062791453527915,0.16794720854647208,9.81
445000000.0,22.35,0.0,0.0,0.0,0.028350891356408916,0.1744217827128178,9.806762674069228
450000000.0,22.35,0.0,0.0,0.0,0.020601008740710088,0.15696,9.78253201748142
455000000.0,22.35,0.0,0.0,0.0,0.03119581767565818,0.15872581767565816,9.799307091162172
460000000.0,22.35,0.0,0.0,0.0,0.047480382130103825,0.17422557319515572,9.79116480893495
465000000.0,22.35,0.0,0.0,0.0,0.03011670903206709,0.14783670903206708,9.798816581935867
470000000.0,22.35,0.0,0.0,0.0,0.03747417261244172,0.15696,9.78233582738756
475000000.0,22.35,0.0,0.0,0.0,0.011281527678915276,0.15794101845261016,9.809509490773696
480000000.0,22.35,0.0,0.0,0.0,0.04002481864684818,0.1754027720297277,9.80019
485000000.0,22.35,0.0,0.0,0.0,0.05797707173837072,0.14715,9.799601381158915
490000000.0,22.35,0.0,0.0,0.0,0.029233790482337905,0.14715,9.780766209517664
495000000.0,22.35,0.0,0.0,0.0,0.020012438459124385,0.1472481096147811,9.79018378077044
500000000.0,22.35,0.0,0.0,0.0,0.058859990288099906,0.15696,9.7707600291357
505000000.0,22.35,0.0,0.0,0.0,0.0491480901909809,0.15696,9.799895729427059
510000000.0,22.35,0.0,0.0,0.0,0.029822380187723804,0.17618761981227618,9.790576190093862
515000000.0,22.35,0.0,0.0,0.0,0.0579771300097713,0.1670642899967429,9.771348579993486
520000000.0,22.35,0.0,0.0,0.0,0.0306071696988717,0.15735238989962388,9.817848050501881
525000000.0,22.35,0.0,0.0,0.0,0.057388530592485304,0.1755990203949902,9.791851469407515
530000000.0,22.35,0.0,0.0,0.0,0.031195769116157693,0.13969435882154357,9.79038
535000000.0,22.35,0.0,0.0,0.0,0.011183379216533795,0.13734,9.808626620783468
540000000.0,22.35,0.0,0.0,0.0,0.02786042097770421,0.1463652104888521,9.81
545000000.0,22.35,0.0,0.0,0.0,0.02943,0.18285844234388443,9.818927110585971
550000000.0,22.35,0.0,0.0,0.0,0.02943,0.1775609893169099,9.81098098931691
555000000.0,22.35,0.0,0.0,0.0,0.038160910780209105,0.14165635687916356,9.783807267659373
560000000.0,22.35,0.0,0.0,0.0,0.02197437824534378,0.1459728108773281,9.77193718912267
565000000.0,22.35,0.0,0.0,0.0,0.01108528902555289,0.13861528902555287,9.787829421948894
570000000.0,22.35,0.0,0.0,0.0,0.00981,0.18795966642939668,9.807253222143133
575000000.0,22.35,0.0,0.0,0.0,0.0014714888313148867,0.17118446649394467,9.81
580000000.0,22.35,0.0,0.0,0.0,0.008240411265804113,0.15852958873419587,9.78527876620259
585000000.0,22.35,0.0,0.0,0.0,0.05052155681461557,0.1651023113629231,9.796854622725848
590000000.0,22.35,0.0,0.0,0.0,0.042771577079915774,0.12654894269978945,9.808234211460043
595000000.0,22.35,0.0,0.0,0.0,0.015401665328516653,0.14155833467148335,9.794107776885678
600000000.0,22.35,0.0,0.0,0.0,0.03335403496284035,0.15499801165428012,9.806076023308561
605000000.0,22.35,0.0,0.0,0.0,0.04698991175139912,0.17245982350279823,9.81
610000000.0,22.35,0.0,0.0,0.0,0.026094564454445645,0.16127637630296376,9.81
615000000.0,22.35,0.0,0.0,0.0,0.04983484778254847,0.16451371194563713,9.802446288054364
620000000.0,22.35,0.0,0.0,0.0,0.04394877591448776,0.1742256120427561,9.80019
625000000.0,22.35,0.0,0.0,0.0,0.017167463580374635,0.15450746358037465,9.792832487860126
630000000.0,22.35,0.0,0.0,0.0,0.01706941223699412,0.15440941223699411,9.797639412236995
635000000.0,22.35,0.0,0.0,0.0,0.04826524933645249,0.1497986876658869,9.80019
640000000.0,22.35,0.0,0.0,0.0,0.037670362706303626,0.14715,9.807253212431233
645000000.0,22.35,0.0,0.0,0.0,0.022464887471648876,0.1541151125283511,9.80303488747165
650000000.0,22.35,0.0,0.0,0.0,0.01962,0.17069402525094024,9.80705701262547
655000000.0,22.35,0.0,0.0,0.0,0.01962,0.16304217455482173,9.81
660000000.0,22.35,0.0,0.0,0.0,0.01962,0.15028918718029188,9.796658374360584
665000000.0,22.35,0.0,0.0,0.0,0.045910851667308517,0.15372271291682713,9.770661861249518
670000000.0,22.35,0.0,0.0,0.0,0.05238538698605387,0.15696,9.799797678083676
675000000.0,22.35,0.0,0.0,0.0,0.03629697377786974,0.18884256555532564,9.800680460666806
680000000.0,22.35,0.0,0.0,0.0,0.060822066040920664,0.17461793395907932,9.809215239624553
685000000.0,22.35,0.0,0.0,0.0,0.0599390600840906,0.15696,9.801269060084092
690000000.0,22.35,0.0,0.0,0.0,0.0308033597927336,0.16304221340242214,9.802544426804845
695000000.0,22.35,0.0,0.0,0.0,0.03158822699908227,0.15480177300091774,9.798031773000918
700000000.0,22.35,0.0,0.0,0.0,0.04512601359666014,0.15892202719332027,9.802152027193321
705000000.0,22.35,0.0,0.0,0.0,0.03747417261244173,0.17255791369377912,9.804212086306222
710000000.0,22.35,0.0,0.0,0.0,0.04649944137269442,0.17089018620910185,9.811569627581797
715000000.0,22.35,0.0,0.0,0.0,0.05886,0.16117828611198284,9.814218286111982
720000000.0,22.35,0.0,0.0,0.0,0.04787277202972772,0.1734408419554084,9.81
725000000.0,22.35,0.0,0.0,0.0,0.03924,0.17020345775323456,9.79920897183549
730000000.0,22.35,0.0,0.0,0.0,0.03924,0.15166258582062586,9.785082585820627
735000000.0,22.35,0.0,0.0,0.0,0.03404068572350685,0.1627479428294794,9.790968628552987
740000000.0,22.35,0.0,0.0,0.0,0.034531214373612146,0.17147878562638785,9.805291214373613
745000000.0,22.35,0.0,0.0,0.0,0.03423688552926885,0.16176688552926885,9.804996885529269
750000000.0,22.35,0.0,0.0,0.0,0.034335014567850146,0.16677002913570027,9.79528498543215
755000000.0,22.35,0.0,0.0,0.0,0.04404691466496915,0.17658,9.79038
760000000.0,22.35,0.0,0.0,0.0,0.05375881476208815,0.16245355571373554,9.79038
765000000.0,22.35,0.0,0.0,0.0,0.045027855422378554,0.14715,9.79038
770000000.0,22.35,0.0,0.0,0.0,0.02491738504367385,0.15166261495632616,9.79038
775000000.0,22.35,0.0,0.0,0.0,0.01962,0.16137451505344513,9.79920903010689
780000000.0,22.35,0.0,0.0,0.0,0.01962,0.1581371696988717,9.805683584849437
785000000.0,22.35,0.0,0.0,0.0,0.032274945743049455,0.1555866304953663,9.795971684752317
790000000.0,22.35,0.0,0.0,0.0,0.04905,0.16264978465519783,9.79038
795000000.0,22.35,0.0,0.0,0.0,0.053072115441921155,0.15293788455807883,9.786357884558079
800000000.0,22.35,0.0,0.0,0.0,0.05101196892191969,0.14715,9.78841803107808
805000000.0,22.35,0.0,0.0,0.0,0.03924,0.15862774690847747,9.80019
810000000.0,22.35,0.0,0.0,0.0,0.03551218426672184,0.17658,9.80019
815000000.0,22.35,0.0,0.0,0.0,0.03305971583039716,0.17658,9.80019
820000000.0,22.35,0.0,0.0,0.0,0.04277161592751616,0.17658,9.80019
825000000.0,22.35,0.0,0.0,0.0,0.038749451926094525,0.1662794519260945,9.789889451926095
830000000.0,22.35,0.0,0.0,0.0,0.02629083224350832,0.15048541612175415,9.774095416121755
835000000.0,22.35,0.0,0.0,0.0,0.04571463243774632,0.16019731621887315,9.783807316218875
840000000.0,22.35,0.0,0.0,0.0,0.05886,0.17304843263198433,9.796658432631984
845000000.0,22.35,0.0,0.0,0.0,0.04669553434755534,0.1772666507606665,9.813041116413112
850000000.0,22.35,0.0,0.0,0.0,0.01962,0.15401698348976983,9.81392396697954
855000000.0,22.35,0.0,0.0,0.0,0.0281547498220475,0.14999491660734918,9.797345083392651
860000000.0,22.35,0.0,0.0,0.0,0.04905,0.15146636659106366,9.79038
865000000.0,22.35,0.0,0.0,0.0,0.04375256639682567,0.14263743360317432,9.787731283198413
870000000.0,22.35,0.0,0.0,0.0,0.03198061689870617,0.1646118506961185,9.783120616898707
875000000.0,22.35,0.0,0.0,0.0,0.034334966008349656,0.18639,9.79528503399165
880000000.0,22.35,0.0,0.0,0.0,0.02432883418588834,0.17697233162822332,9.812354417092944
885000000.0,22.35,0.0,0.0,0.0,0.03698368280993683,0.14715,9.817553682809937
890000000.0,22.35,0.0,0.0,0.0,0.022955348138453482,0.14715,9.807841782712819
895000000.0,22.35,0.0,0.0,0.0,0.01030058692150587,0.14715,9.802250117384302
900000000.0,22.35,0.0,0.0,0.0,0.043163947555739476,0.14715,9.80607596503716
905000000.0,22.35,0.0,0.0,0.0,0.021483917578539173,0.15274175273561752,9.79224391757854
910000000.0,22.35,0.0,0.0,0.0,0.03472745302697453,0.17304836464868364,9.801955817675658
915000000.0,22.35,0.0,0.0,0.0,0.050521411136114115,0.15862771777277718,9.808332282227223
920000000.0,22.35,0.0,0.0,0.0,0.012949235739792356,0.16520038213010382,9.80019
925000000.0,22.35,0.0,0.0,0.0,0.03384455390104554,0.15990303593403035,9.798718482032985
930000000.0,22.35,0.0,0.0,0.0,0.05611316387173164,0.17245974580759746,9.791753418064134
935000000.0,22.35,0.0,0.0,0.0,0.03924,0.14459936367749365,9.80019
940000000.0,22.35,0.0,0.0,0.0,0.03806278174162782,0.1334160912918609,9.801367218258372
945000000.0,22.35,0.0,0.0,0.0,0.030509118355491183,0.17658,9.807841763289018
950000000.0,22.35,0.0,0.0,0.0,0.03924,0.17461796309477962,9.79136101845261
955000000.0,22.35,0.0,0.0,0.0,0.037474162900541626,0.15784291854972918,9.80019
960000000.0,22.35,0.0,0.0,0.0,0.02118963729369637,0.16441554405945544,9.799405181353153
965000000.0,22.35,0.0,0.0,0.0,0.037866562512065625,0.13871343748793435,9.79038
970000000.0,22.35,0.0,0.0,0.0,0.01962,0.15754861884108617,9.790968618841086
975000000.0,22.35,0.0,0.0,0.0,0.01962,0.16578896212358962,9.800680518938206
980000000.0,22.35,0.0,0.0,0.0,0.01962,0.14871967614129677,9.81
985000000.0,22.35,0.0,0.0,0.0,0.01991431913244319,0.18609568086755682,9.81
990000000.0,22.35,0.0,0.0,0.0,0.03021487691824877,0.17618756154087561,9.809411342311314
995000000.0,22.35,0.0,0.0,0.0,0.06827752269327522,0.15696,9.78057
1000000000.0,22.35,0.0,0.0,0.0,0.02943003884760039,0.1569600194238002,9.7805700194238
1005000000.0,22.35,0.0,0.0,0.0,0.04885383904183839,0.1666719195209192,9.79028191952092
1010000000.0,22.35,0.0,0.0,0.0,0.0394361803819618,0.1571561803819618,9.819221458854114
1015000000.0,22.35,0.0,0.0,0.0,0.03924,0.1664757197151572,9.810294280284843
1020000000.0,22.35,0.0,0.0,0.0,0.029822380187723804,0.1573523801877238,9.81
1025000000.0,22.35,0.0,0.0,0.0,0.048069039818790404,0.1662795199093952,9.81
1030000000.0,22.35,0.0,0.0,0.0,0.04905,0.1391057399804574,9.800778579993487
1035000000.0,22.35,0.0,0.0,0.0,0.021680039689100396,0.1647099603108996,9.7728200396891
1040000000.0,22.35,0.0,0.0,0.0,0.01962,0.16677,9.77076
1045000000.0,22.35,0.0,0.0,0.0,0.028547120297871202,0.1846242405957424,9.788614240595743
1050000000.0,22.35,0.0,0.0,0.0,0.020600979605009798,0.18639,9.781550979605012
1055000000.0,22.35,0.0,0.0,0.0,0.05454368196843682,0.15146631803156319,9.798031840984219
1060000000.0,22.35,0.0,0.0,0.0,0.05886,0.1298843588215436,9.808822820589228
1065000000.0,22.35,0.0,0.0,0.0,0.04179055862730559,0.1360647206863472,9.801465279313653
1070000000.0,22.35,0.0,0.0,0.0,0.03924,0.13734,9.80019
1075000000.0,22.35,0.0,0.0,0.0,0.02256295823882958,0.17069408352234083,9.775174437358244
1080000000.0,22.35,0.0,0.0,0.0,0.044341262933112635,0.1848204209777042,9.787240841955409
1085000000.0,22.35,0.0,0.0,0.0,0.057192321074823214,0.17010535785035358,9.806664642149647
1090000000.0,22.35,0.0,0.0,0.0,0.05886,0.16677,9.801955778828058
1095000000.0,22.35,0.0,0.0,0.0,0.03502163619281637,0.14293163619281635,9.79224387873094
1100000000.0,22.35,0.0,0.0,0.0,0.02943,0.13734,9.798228021366182
1105000000.0,22.35,0.0,0.0,0.0,0.03717992146329921,0.13734,9.8079399214633
1110000000.0,22.35,0.0,0.0,0.0,0.03158817843958178,0.1755991078020911,9.787044535318746
1115000000.0,22.35,0.0,0.0,0.0,0.036983721657537216,0.17128255668492556,9.788123721657538
1120000000.0,22.35,0.0,0.0,0.0,0.03924,0.15185875649068756,9.775468756490687
1125000000.0,22.35,0.0,0.0,0.0,0.053955043703550434,0.15450752185177521,9.77076
1130000000.0,22.35,0.0,0.0,0.0,0.05160057805110578,0.1497005780511058,9.778019421948894
1135000000.0,22.35,0.0,0.0,0.0,0.02756603386196034,0.16147264409202644,9.78057
1140000000.0,22.35,0.0,0.0,0.0,0.01962,0.15264355571373556,9.801759666429398
1145000000.0,22.35,0.0,0.0,0.0,0.01962,0.14018487775974878,9.81
1150000000.0,22.35,0.0,0.0,0.0,0.03335404467474044,0.15107404467474045,9.81
1155000000.0,22.35,0.0,0.0,0.0,0.04600892243448922,0.15019107756551078,9.803231077565512
1160000000.0,22.35,0.0,0.0,0.0,0.04905,0.16049164506321645,9.766835887341959
1165000000.0,22.35,0.0,0.0,0.0,0.05562272262872723,0.1733427226287272,9.784003613143636
1170000000.0,22.35,0.0,0.0,0.0,0.04591075454830754,0.16363075454830753,9.80019
1175000000.0,22.35,0.0,0.0,0.0,0.03924,0.14420695435406952,9.787436954354071
1180000000.0,22.35,0.0,0.0,0.0,0.026683154159831537,0.15617526876025267,9.805683691680338
1185000000.0,22.35,0.0,0.0,0.0,0.025800323017203232,0.17913064603440645,9.813629676982798
1190000000.0,22.35,0.0,0.0,0.0,0.02943,0.18030777688567776,9.81
1195000000.0,22.35,0.0,0.0,0.0,0.02943,0.16461175357711752,9.798031753577119
1200000000.0,22.35,0.0,0.0,0.0,0.02943,0.15696,9.796266023308561
1205000000.0,22.35,0.0,0.0,0.0,0.02943,0.1743237702170377,9.80597792340568
1210000000.0,22.35,0.0,0.0,0.0,0.023740176497201764,0.18070017649720177,9.81
1215000000.0,22.35,0.0,0.0,0.0,0.01962,0.17098827640008277,9.815591723599917
1220000000.0,22.35,0.0,0.0,0.0,0.030607247394072473,0.1502891289088913,9.814316376302964
1225000000.0,22.35,0.0,0.0,0.0,0.03924,0.14813104758831047,9.81
1230000000.0,22.35,0.0,0.0,0.0,0.03924,0.16225742389127423,9.799405152217453
1235000000.0,22.35,0.0,0.0,0.0,0.028841352023213515,0.17716864797678647,9.800778647976786
1240000000.0,22.35,0.0,0.0,0.0,0.02982244817102448,0.17108632774346327,9.799797551828975
1245000000.0,22.35,0.0,0.0,0.0,0.034236875817368756,0.1719693725478937,9.800386248365264
1250000000.0,22.35,0.0,0.0,0.0,0.03924004855950049,0.18148497572024974,9.80509497572025
1255000000.0,22.35,0.0,0.0,0.0,0.04905,0.17177307562313074,9.80019
1260000000.0,22.35,0.0,0.0,0.0,0.03492352657803527,0.16206117552601176,9.80019
1265000000.0,22.35,0.0,0.0,0.0,0.01962,0.16157072457110724,9.790968550857786
1270000000.0,22.35,0.0,0.0,0.0,0.028645249336452492,0.1757952493364525,9.776057375331774
1275000000.0,22.35,0.0,0.0,0.0,0.03482547523465475,0.17314642570396424,9.77076
1280000000.0,22.35,0.0,0.0,0.0,0.03374642486246425,0.16990927458739274,9.779392849724928
1285000000.0,22.35,0.0,0.0,0.0,0.03924,0.1779533500808335,9.798816649919168
1290000000.0,22.35,0.0,0.0,0.0,0.03924,0.16264977494329774,9.805879774943298
1295000000.0,22.35,0.0,0.0,0.0,0.04326212515382125,0.15293787484617874,9.804212125153821
1300000000.0,22.35,0.0,0.0,0.0,0.037277924247179246,0.1393019494981195,9.80215194949812
1305000000.0,22.35,0.0,0.0,0.0,0.03109777604417776,0.13135592534805926,9.79420592534806
1310000000.0,22.35,0.0,0.0,0.0,0.03786652366446524,0.14106782544517826,9.796462174554822
1315000000.0,22.35,0.0,0.0,0.0,0.03413890216918902,0.1544094510845945,9.79038
1320000000.0,22.35,0.0,0.0,0.0,0.04120187180291872,0.16677,9.79038
1325000000.0,22.35,0.0,0.0,0.0,0.02354410294614103,0.1599029485269295,9.786946474263466
1330000000.0,22.35,0.0,0.0,0.0,0.04905,0.15048542583365426,9.78724085166731
1335000000.0,22.35,0.0,0.0,0.0,0.042575348138453484,0.15048534813845346,9.793715348138454
1340000000.0,22.35,0.0,0.0,0.0,0.02943,0.13734,9.789987678083678
1345000000.0,22.35,0.0,0.0,0.0,0.02943,0.1525456306250563,9.81
1350000000.0,22.35,0.0,0.0,0.0,0.026486973777869738,0.18639,9.80705697377787
1355000000.0,22.35,0.0,0.0,0.0,0.025309852638498526,0.18639,9.80019
1360000000.0,22.35,0.0,0.0,0.0,0.03649317358363174,0.18639,9.794696347167264
1365000000.0,22.35,0.0,0.0,0.0,0.02943,0.17844382045953822,9.783218726513487
1370000000.0,22.35,0.0,0.0,0.0,0.02943,0.15951062661060625,9.787829373389394
1375000000.0,22.35,0.0,0.0,0.0,0.02943,0.16431747329227472,9.787927580123176
1380000000.0,22.35,0.0,0.0,0.0,0.02943,0.15225114639031145,9.807645573195156
1385000000.0,22.35,0.0,0.0,0.0,0.03168632690196327,0.14185265380392653,9.795677346196074
1390000000.0,22.35,0.0,0.0,0.0,0.03708177300091773,0.15696,9.787044680997248
1395000000.0,22.35,0.0,0.0,0.0,0.02530974580759746,0.16108025419240252,9.805879745807598
1400000000.0,22.35,0.0,0.0,0.0,0.015696081579960816,0.17265594561335945,9.792342027193321
1405000000.0,22.35,0.0,0.0,0.0,0.03924,0.15509607270956072,9.796462145419122
1410000000.0,22.35,0.0,0.0,0.0,0.03394251783732517,0.15068165477511655,9.785867482162676
1415000000.0,22.35,0.0,0.0,0.0,0.014813182454031824,0.16843772748467728,9.81
1420000000.0,22.35,0.0,0.0,0.0,0.03924,0.17501037241820372,9.813139255163593
1425000000.0,22.35,0.0,0.0,0.0,0.03776847232108472,0.16529847232108472,9.82667694464217
1430000000.0,22.35,0.0,0.0,0.0,0.03080342777603428,0.15833342777603426,9.808626572223966
1435000000.0,22.35,0.0,0.0,0.0,0.040515327873153276,0.16677,9.80019
1440000000.0,22.35,0.0,0.0,0.0,0.045518316089183164,0.16794722797027228,9.80019
1445000000.0,22.35,0.0,0.0,0.0,0.02177825613478256,0.17226348773043487,9.799110871932609
1450000000.0,22.35,0.0,0.0,0.0,0.04022102816451028,0.13930205632902054,9.792342056329021
1455000000.0,22.35,0.0,0.0,0.0,0.04463535869185359,0.15696,9.81
1460000000.0,22.35,0.0,0.0,0.0,0.0023544850762448506,0.15696,9.81
1465000000.0,22.35,0.0,0.0,0.0,0.030116728455867287,0.15696,9.81
1470000000.0,22.35,0.0,0.0,0.0,0.038062742894027425,0.15696,9.808822742894028
1475000000.0,22.35,0.0,0.0,0.0,0.021091585950315857,0.15745052865010528,9.79038
1480000000.0,22.35,0.0,0.0,0.0,0.048657571252775714,0.16755485749444857,9.790772428747225
1485000000.0,22.35,0.0,0.0,0.0,0.03894567115565671,0.18550701346697013,9.80019
1490000000.0,22.35,0.0,0.0,0.0,0.02962622894146229,0.15735245788292457,9.80019
1495000000.0,22.35,0.0,0.0,0.0,0.039141870961418704,0.17628561288425612,9.800288129038583
1500000000.0,22.35,0.0,0.0,0.0,0.02943002913570029,0.1471500582714006,9.8099999125929
1505000000.0,22.35,0.0,0.0,0.0,0.03914192923281929,0.1665738584656386,9.780864212301543
1510000000.0,22.35,0.0,0.0,0.0,0.029626170670061708,0.1379285120101851,9.809411487989815
1515000000.0,22.35,0.0,0.0,0.0,0.02943,0.1468557294270573,9.81
1520000000.0,22.35,0.0,0.0,0.0,0.02943,0.1659852590483526,9.81
1525000000.0,22.35,0.0,0.0,0.0,0.0387495296212953,0.1574504703787047,9.81
1530000000.0,22.35,0.0,0.0,0.0,0.030018570281585704,0.1661814297184143,9.791557140563173
1535000000.0,22.35,0.0,0.0,0.0,0.0385533298155333,0.16677,9.808626659631067
1540000000.0,22.35,0.0,0.0,0.0,0.0302147700873477,0.1487195401746954,9.791949540174697
1545000000.0,22.35,0.0,0.0,0.0,0.0383571300097713,0.1650042600195426,9.808234260019542
1550000000.0,22.35,0.0,0.0,0.0,0.03924,0.1491119397862194,9.81
1555000000.0,22.35,0.0,0.0,0.0,0.030509069795990697,0.16461186040801862,9.81
1560000000.0,22.35,0.0,0.0,0.0,0.046695660602256606,0.16677,9.81
1565000000.0,22.35,0.0,0.0,0.0,0.040515269601752696,0.1753047303982473,9.78439580880526
1570000000.0,22.35,0.0,0.0,0.0,0.05611326099073261,0.17658,9.78057
1575000000.0,22.35,0.0,0.0,0.0,0.01716734703757347,0.17658,9.788908530592487
1580000000.0,22.35,0.0,0.0,0.0,0.04277172275841723,0.1683395693103957,9.806860861379208
1585000000.0,22.35,0.0,0.0,0.0,0.03276533842655339,0.13420067685310677,9.801857669213277
1590000000.0,22.35,0.0,0.0,0.0,0.03747423088384231,0.1436184617676846,9.816278461767684
1595000000.0,22.35,0.0,0.0,0.0,0.04718613098096131,0.16304226196192262,9.803917738038077
1600000000.0,22.35,0.0,0.0,0.0,0.03335393784383938,0.15892196892191968,9.78449393784384
1605000000.0,22.35,0.0,0.0,0.0,0.013930137649601378,0.15696,9.803819793525598
1610000000.0,22.35,0.0,0.0,0.0,0.032765493816954934,0.17226366254463663,9.779392674910726
1615000000.0,22.35,0.0,0.0,0.0,0.03924,0.1690262686305627,9.80097492547775
1620000000.0,22.35,0.0,0.0,0.0,0.046695631466556316,0.1742256314665563,9.81
1625000000.0,22.35,0.0,0.0,0.0,0.04905,0.15450740530897406,9.802642468436325
1630000000.0,22.35,0.0,0.0,0.0,0.03453113667841137,0.16166886332158864,9.80019
1635000000.0,22.35,0.0,0.0,0.0,0.015107336484173365,0.14528600472626005,9.785867336484174
1640000000.0,22.35,0.0,0.0,0.0,0.023936463710064637,0.14440323185503232,9.773506768144967
1645000000.0,22.35,0.0,0.0,0.0,0.03639513195215132,0.16804539585645395,9.805585659760757
1650000000.0,22.35,0.0,0.0,0.0,0.059841096147810954,0.16971296795072968,9.81294296795073
1655000000.0,22.35,0.0,0.0,0.0,0.048363203560832034,0.16677,9.81
1660000000.0,22.35,0.0,0.0,0.0,0.025898335512983352,0.16677,9.803329167756493
1665000000.0,22.35,0.0,0.0,0.0,0.032765464681254644,0.16019726765937267,9.80019
1670000000.0,22.35,0.0,0.0,0.0,0.03276536756225368,0.15048536756225367,9.806664632437746
1675000000.0,22.35,0.0,0.0,0.0,0.04218306506973065,0.13439693493026936,9.816376532534866
1680000000.0,22.35,0.0,0.0,0.0,0.04277156736801567,0.14008686526396866,9.800974702104048
1685000000.0,22.35,0.0,0.0,0.0,0.026879334541793344,0.17187133091641332,9.784199667270897
1690000000.0,22.35,0.0,0.0,0.0,0.037866698478666985,0.18639,9.786652232826222
1695000000.0,22.35,0.0,0.0,0.0,0.03708173415331734,0.15646933538329336,9.796364132923342
1700000000.0,22.35,0.0,0.0,0.0,0.03531603302046033,0.15499809906138098,9.80607603302046
1705000000.0,22.35,0.0,0.0,0.0,0.027664133764841337,0.16098206688242067,9.804212066882421
1710000000.0,22.35,0.0,0.0,0.0,0.025309833214698332,0.15696,9.805879833214698
1715000000.0,22.35,0.0,0.0,0.0,0.040613466623634666,0.15696,9.815591733311818
1720000000.0,22.35,0.0,0.0,0.0,0.04905,0.15146636659106366,9.797835466364255
1725000000.0,22.35,0.0,0.0,0.0,0.043654466493944666,0.15794106701211066,9.802152134024222
1730000000.0,22.35,0.0,0.0,0.0,0.02334769919047699,0.17206743360317434,9.798620265587303
1735000000.0,22.35,0.0,0.0,0.0,0.020208667400586675,0.1661813325994133,9.775370666299708
1740000000.0,22.35,0.0,0.0,0.0,0.019227532405175326,0.16206123379741233,9.780962467594824
1745000000.0,22.35,0.0,0.0,0.0,0.014813133894531337,0.1567637322109373,9.800386267789063
1750000000.0,22.35,0.0,0.0,0.0,0.03433510197495102,0.15696006798330067,9.81
1755000000.0,22.35,0.0,0.0,0.0,0.03943613182246132,0.15715613182246133,9.800386131822462
1760000000.0,22.35,0.0,0.0,0.0,0.03884766837177668,0.15656766837177669,9.79038
1765000000.0,22.35,0.0,0.0,0.0,0.06749293713202936,0.16215926571699266,9.785769265716993
1770000000.0,22.35,0.0,0.0,0.0,0.07023946247949463,0.15696,9.785082634380128
1775000000.0,22.35,0.0,0.0,0.0,0.04905,0.1657890689544907,9.803623603431737
1780000000.0,22.35,0.0,0.0,0.0,0.04041713085127131,0.17226356542563565,9.815493565425635
1785000000.0,22.35,0.0,0.0,0.0,0.016774995985549962,0.1583333306570333,9.814218334671484
1790000000.0,22.35,0.0,0.0,0.0,0.02060117384301174,0.1553904695372047,9.823930234768603
1795000000.0,22.35,0.0,0.0,0.0,0.041005730268557306,0.15470359540283596,9.821575730268558
1800000000.0,22.35,0.0,0.0,0.0,0.0215819300743193,0.13341596503715963,9.81
1805000000.0,22.35,0.0,0.0,0.0,0.00981,0.13900780517987804,9.798522194820123
1810000000.0,22.35,0.0,0.0,0.0,0.020993505471235054,0.15696,9.791753505471236
1815000000.0,22.35,0.0,0.0,0.0,0.035610264745802644,0.15333026474580264,9.81
1820000000.0,22.35,0.0,0.0,0.0,0.02589836464868365,0.15068163535131635,9.806468364648683
1825000000.0,22.35,0.0,0.0,0.0,0.023053535448435355,0.15696,9.796756464551565
1830000000.0,22.35,0.0,0.0,0.0,0.04277174218221742,0.15362456445444564,9.79038
1835000000.0,22.35,0.0,0.0,0.0,0.05572065742930657,0.14391266435732664,9.787142664357328
1840000000.0,22.35,0.0,0.0,0.0,0.032569235739792354,0.14989694295916942,9.79312694295917
1845000000.0,22.35,0.0,0.0,0.0,0.03924,0.16745659248926592,9.804604320815443
1850000000.0,22.35,0.0,0.0,0.0,0.04512607186806072,0.15009303593403037,9.776646071868061
1855000000.0,22.35,0.0,0.0,0.0,0.04748025587540256,0.15980493603114934,9.796069872062299
1860000000.0,22.35,0.0,0.0,0.0,0.01962,0.16677,9.807253163871732
1865000000.0,22.35,0.0,0.0,0.0,0.024917472450774723,0.15882379132383792,9.794892527549226
1870000000.0,22.35,0.0,0.0,0.0,0.03413872735498727,0.1449919089675191,9.78057
1875000000.0,22.35,0.0,0.0,0.0,0.01962,0.16186492716074927,9.783022536419626
1880000000.0,22.35,0.0,0.0,0.0,0.026683309550233094,0.14950443651674436,9.795088873033489
1885000000.0,22.35,0.0,0.0,0.0,0.046793663386136636,0.15921633661386336,9.807743663386137
1890000000.0,22.35,0.0,0.0,0.0,0.03708176328901763,0.16461176328901764,9.804506473421965
1895000000.0,22.35,0.0,0.0,0.0,0.031490136808101366,0.16108027361620272,9.8177498631919
1900000000.0,22.35,0.0,0.0,0.0,0.037277963094779626,0.17658,9.80607592618956
1905000000.0,22.35,0.0,0.0,0.0,0.03129393700233937,0.17471606299766063,9.786652125995321
1910000000.0,22.35,0.0,0.0,0.0,0.037474162900541626,0.16677,9.776057511298374
1915000000.0,22.35,0.0,0.0,0.0,0.02943,0.16510226280342263,9.801857737196578
1920000000.0,22.35,0.0,0.0,0.0,0.030999637293696373,0.15382072541260725,9.811569637293697
1925000000.0,22.35,0.0,0.0,0.0,0.03482538782755388,0.13881153739081536,9.818338462609185
1930000000.0,22.35,0.0,0.0,0.0,0.013930312463803125,0.14989687497586876,9.805879687536198
1935000000.0,22.35,0.0,0.0,0.0,0.03924,0.16549466241494662,9.781845337585054
1940000000.0,22.35,0.0,0.0,0.0,0.03924,0.15813723768217236,9.791557237682174
1945000000.0,22.35,0.0,0.0,0.0,0.03708172444141724,0.1656908622207086,9.79911086222071
1950000000.0,22.35,0.0,0.0,0.0,0.022563113629231135,0.15696,9.792342075752822
1955000000.0,22.35,0.0,0.0,0.0,0.04816706202647062,0.15696,9.81088293797353
1960000000.0,22.35,0.0,0.0,0.0,0.03845516192935162,0.15774483807064837,9.818240323858703
1965000000.0,22.35,0.0,0.0,0.0,0.030116738167767384,0.16677,9.800876738167767
1970000000.0,22.35,0.0,0.0,0.0,0.03747408520534085,0.1661813617351136,9.808234085205342
1975000000.0,22.35,0.0,0.0,0.0,0.00981,0.15696,9.781060538362006
1980000000.0,22.35,0.0,0.0,0.0,0.010202438459124384,0.15774487691824876,9.79116487691825
1985000000.0,22.35,0.0,0.0,0.0,0.02020867711248677,0.1759913228875132,9.81
1990000000.0,22.35,0.0,0.0,0.0,0.039436238653362383,0.15696,9.809607522693275
1995000000.0,22.35,0.0,0.0,0.0,0.04875558374855584,0.1568618612495186,9.790576277500964
2000000000.0,22.35,0.0,0.0,0.0,0.01962003884760039,0.1471500388476004,9.8099999611524
2005000000.0,22.35,0.0,0.0,0.0,0.029331938944719388,0.1568619389447194,9.800288061055282
2010000000.0,22.35,0.0,0.0,0.0,0.02943,0.17618767808367677,9.80980383904184
2015000000.0,22.35,0.0,0.0,0.0,0.02943,0.16706426086104262,9.800484260861044
2020000000.0,22.35,0.0,0.0,0.0,0.048265278472152784,0.1573523607639236,9.77193708229177
2025000000.0,22.35,0.0,0.0,0.0,0.04905,0.17559907866639077,9.780079539333196
2030000000.0,22.35,0.0,0.0,0.0,0.030607121139371214,0.1581371211393712,9.808234318290944
2035000000.0,22.35,0.0,0.0,0.0,0.038553339527433395,0.17520667905486678,9.800876660472568
2040000000.0,22.35,0.0,0.0,0.0,0.03924,0.14950428112634281,9.782139520750896
2045000000.0,22.35,0.0,0.0,0.0,0.03924,0.1560771397216714,9.807351419165014
2050000000.0,22.35,0.0,0.0,0.0,0.030410960181209604,0.17461807963758078,9.80117096018121
2055000000.0,22.35,0.0,0.0,0.0,0.038160939915909395,0.1591181201681812,9.80019
2060000000.0,22.35,0.0,0.0,0.0,0.0306071599869716,0.1742256800260568,9.808822840013029
2065000000.0,22.35,0.0,0.0,0.0,0.0208952598898526,0.1509757796695578,9.784395779669559
2070000000.0,22.35,0.0,0.0,0.0,0.028056640207266403,0.14715,9.789006640207267
2075000000.0,22.35,0.0,0.0,0.0,0.02943,0.1554885403043854,9.798718540304385
2080000000.0,22.35,0.0,0.0,0.0,0.012949119196991193,0.15696,9.824911321204514
2085000000.0,22.35,0.0,0.0,0.0,0.03423702149587021,0.15696,9.813335319002753
2090000000.0,22.35,0.0,0.0,0.0,0.047284240595742405,0.1730484811914848,9.785867278212773
2095000000.0,22.35,0.0,0.0,0.0,0.04110385930713859,0.1845261406928614,9.796462281385724
2100000000.0,22.35,0.0,0.0,0.0,0.03924,0.17069391842003917,9.808038040789981
2105000000.0,22.35,0.0,0.0,0.0,0.03924,0.1822698817741988,9.802250059112902
2110000000.0,22.35,0.0,0.0,0.0,0.05454368196843682,0.15578263606312637,9.792538159015782
2115000000.0,22.35,0.0,0.0,0.0,0.04375251783732518,0.16225748216267483,9.82059496432535
2120000000.0,22.35,0.0,0.0,0.0,0.03924,0.15931435882154357,9.792341794107719
2125000000.0,22.35,0.0,0.0,0.0,0.03924,0.15696,9.802642623826728
2130000000.0,22.35,0.0,0.0,0.0,0.03924,0.1714788827453888,9.795481117254612
2135000000.0,22.35,0.0,0.0,0.0,0.03924,0.15509597559055976,9.811864024409441
2140000000.0,22.35,0.0,0.0,0.0,0.03924,0.1400867584330676,9.812746758433068
2145000000.0,22.35,0.0,0.0,0.0,0.046205141664051416,0.15127028332810283,9.782139433343794
2150000000.0,22.35,0.0,0.0,0.0,0.04905,0.17756112528351126,9.791361125283512
2155000000.0,22.35,0.0,0.0,0.0,0.035512116283421165,0.17962105814171056,9.786652116283422
2160000000.0,22.35,0.0,0.0,0.0,0.02943,0.16990915804459159,9.800582525866226
2165000000.0,22.35,0.0,0.0,0.0,0.02943,0.16677,9.803427257947472
2170000000.0,22.35,0.0,0.0,0.0,0.02943,0.15382071570070716,9.78076607355106
2175000000.0,22.35,0.0,0.0,0.0,0.02943,0.15352654224676543,9.783513084493531
2180000000.0,22.35,0.0,0.0,0.0,0.02943,0.16951688468776882,9.79038
2185000000.0,22.35,0.0,0.0,0.0,0.04797102732301027,0.17658,9.784199657558997
2190000000.0,22.35,0.0,0.0,0.0,0.05277775746187758,0.17658,9.792734485076245
2195000000.0,22.35,0.0,0.0,0.0,0.031097572094275723,0.15264342945903428,9.80019
2200000000.0,22.35,0.0,0.0,0.0,0.03139208546472085,0.1608841709294417,9.79430395726764
2205000000.0,22.35,0.0,0.0,0.0,0.03345205717052057,0.1592161715115617,9.79038
2210000000.0,22.35,0.0,0.0,0.0,0.03511984292659843,0.1528398429265984,9.79038
2215000000.0,22.35,0.0,0.0,0.0,0.02246477092884771,0.15696,9.79038
2220000000.0,22.35,0.0,0.0,0.0,0.02079728624167286,0.16245364312083643,9.801367286241673
2225000000.0,22.35,0.0,0.0,0.0,0.02943,0.17756108643591087,9.804604456782045
2230000000.0,22.35,0.0,0.0,0.0,0.02943,0.17579511336985112,9.789595113369852
2235000000.0,22.35,0.0,0.0,0.0,0.019031313175613133,0.14077328293903282,9.785769343412195
2240000000.0,22.35,0.0,0.0,0.0,0.025113730527937302,0.1330237305279373,9.795481243509313
2245000000.0,22.35,0.0,0.0,0.0,0.03423685639356856,0.1621594308192943,9.795186856393569
2250000000.0,22.35,0.0,0.0,0.0,0.024524956296449563,0.1471497377786974,9.79038
2255000000.0,22.35,0.0,0.0,0.0,0.029233887601338875,0.13694777520267776,9.79518694380067
2260000000.0,22.35,0.0,0.0,0.0,0.02982231220442312,0.15696,9.80019
2265000000.0,22.35,0.0,0.0,0.0,0.02884148798981488,0.15696,9.804800743994909
2270000000.0,22.35,0.0,0.0,0.0,0.03472735590797356,0.15696,9.81
2275000000.0,22.35,0.0,0.0,0.0,0.02501545581085456,0.16137454418914543,9.805585455810855
2280000000.0,22.35,0.0,0.0,0.0,0.01962,0.16245355571373554,9.804506444286265
2285000000.0,22.35,0.0,0.0,0.0,0.028056688766766886,0.1653966887667669,9.805781655616617
2290000000.0,22.35,0.0,0.0,0.0,0.04336024448050244,0.17658,9.80019
2295000000.0,22.35,0.0,0.0,0.0,0.04905,0.1685357108447571,9.804212144577622
2300000000.0,22.35,0.0,0.0,0.0,0.04512595532525955,0.15696,9.802151910650519
2305000000.0,22.35,0.0,0.0,0.0,0.03541405522814055,0.16078594477185945,9.79038
2310000000.0,22.35,0.0,0.0,0.0,0.03315784486897845,0.16304215513102155,9.79038
2315000000.0,22.35,0.0,0.0,0.0,0.03924,0.15333025503390255,9.797639489932196
2320000000.0,22.35,0.0,0.0,0.0,0.03924,0.15068164506321644,9.813531645063216
2325000000.0,22.35,0.0,0.0,0.0,0.03924,0.16726063548100634,9.816376454839665
2330000000.0,22.35,0.0,0.0,0.0,0.03256910948509109,0.1797191094850911,9.81
2335000000.0,22.35,0.0,0.0,0.0,0.03256938141829381,0.16677,9.800287963936281
2340000000.0,22.35,0.0,0.0,0.0,0.05258150909661509,0.16363075454830756,9.786848490903386
2345000000.0,22.35,0.0,0.0,0.0,0.03924,0.1508777089023771,9.803231145548812
2350000000.0,22.35,0.0,0.0,0.0,0.03924,0.1432260912918609,9.80705695435407
2355000000.0,22.35,0.0,0.0,0.0,0.033550108513901084,0.15411505425695055,9.80019
2360000000.0,22.35,0.0,0.0,0.0,0.02236684584016846,0.14989684584016846,9.80019
2365000000.0,22.35,0.0,0.0,0.0,0.03207874593728746,0.15696,9.80019
2370000000.0,22.35,0.0,0.0,0.0,0.04179064603440646,0.15696,9.80019
2375000000.0,22.35,0.0,0.0,0.0,0.04659745386847454,0.15205490773694907,9.80019
2380000000.0,22.35,0.0,0.0,0.0,0.036885553771355536,0.13969444622864446,9.80019
2385000000.0,22.35,0.0,0.0,0.0,0.024917307348473076,0.15166269265152693,9.797933653674237
2390000000.0,22.35,0.0,0.0,0.0,0.020601232114412324,0.16677,9.796854739268648
2395000000.0,22.35,0.0,0.0,0.0,0.05061941391999414,0.16264970695999706,9.817749853479999
2400000000.0,22.35,0.0,0.0,0.0,0.021582046617120466,0.14715,9.80803795338288
2405000000.0,22.35,0.0,0.0,0.0,0.03129394671423947,0.14528605328576052,9.796462106571521
2410000000.0,22.35,0.0,0.0,0.0,0.03570830637728306,0.13910584681135846,9.787633387245435
2415000000.0,22.35,0.0,0.0,0.0,0.022955493816954938,0.1521532407254324,9.81313901236609
2420000000.0,22.35,0.0,0.0,0.0,0.03924,0.17658,9.783709294011194
2425000000.0,22.35,0.0,0.0,0.0,0.037768452897284525,0.17510845289728452,9.798718452897285
2430000000.0,22.35,0.0,0.0,0.0,0.02943,0.16402310560033107,9.79312689439967
2435000000.0,22.35,0.0,0.0,0.0,0.02943,0.14459930540609306,9.804898610812186
2440000000.0,22.35,0.0,0.0,0.0,0.02943,0.13106174218221742,9.773114494788144
2445000000.0,22.35,0.0,0.0,0.0,0.030509147491191477,0.15696,9.792538294982384
2450000000.0,22.35,0.0,0.0,0.0,0.037277904823379046,0.15990314276493142,9.80901895241169
2455000000.0,22.35,0.0,0.0,0.0,0.01962,0.18550705231457051,9.80195589537086
2460000000.0,22.35,0.0,0.0,0.0,0.01962,0.17658,9.819025152217453
2465000000.0,22.35,0.0,0.0,0.0,0.020993495759334957,0.17726674787966748,9.809313252120333
2470000000.0,22.35,0.0,0.0,0.0,0.03982864797678648,0.18756729595357297,9.799012704046428
2475000000.0,22.35,0.0,0.0,0.0,0.04905,0.2030667115565671,9.780079451926095
2480000000.0,22.35,0.0,0.0,0.0,0.04865755182897552,0.14911224085512242,9.771544896342048
2485000000.0,22.35,0.0,0.0,0.0,0.03982869653628696,0.1950226069274261,9.790968696536288
2490000000.0,22.35,0.0,0.0,0.0,0.05807500653895007,0.1567637516347375,9.809607503269476
2495000000.0,22.35,0.0,0.0,0.0,0.019816296924762968,0.14705185153761852,9.790478148462382
2500000000.0,22.35,0.0,0.0,0.0,0.03924,0.13734014567850145,9.80019
2505000000.0,22.35,0.0,0.0,0.0,0.03924,0.16647584596985845,9.80019
2510000000.0,22.35,0.0,0.0,0.0,0.029626151246261515,0.17638384875373847,9.780962302492524
2515000000.0,22.35,0.0,0.0,0.0,0.038945748850857484,0.1860957488508575,9.771054251149142
2520000000.0,22.35,0.0,0.0,0.0,0.058075297895952976,0.18639,9.789595297895954
2525000000.0,22.35,0.0,0.0,0.0,0.040220901909809016,0.167750901909809,9.809019098090191
2530000000.0,22.35,0.0,0.0,0.0,0.057682898284428984,0.1575485508577855,9.819221449142216
2535000000.0,22.35,0.0,0.0,0.0,0.04973665076066651,0.1660833492393335,9.810686650760667
2540000000.0,22.35,0.0,0.0,0.0,0.040024750663547506,0.14871950132709502,9.791949501327096
2545000000.0,22.35,0.0,0.0,0.0,0.03924,0.165004298867143,9.799307149433572
2550000000.0,22.35,0.0,0.0,0.0,0.030410950469309507,0.17559904953069047,9.80019
2555000000.0,22.35,0.0,0.0,0.0,0.03816094962780949,0.1678490503721905,9.80892094962781
2560000000.0,22.35,0.0,0.0,0.0,0.021974300550143003,0.17540284972492848,9.784101450825215
2565000000.0,22.35,0.0,0.0,0.0,0.01962,0.159510500355905,9.806174249466142
2570000000.0,22.35,0.0,0.0,0.0,0.0280566499191665,0.1485233500808335,9.793126700161668
2575000000.0,22.35,0.0,0.0,0.0,0.02943,0.163827100032571,9.782041449983716
2580000000.0,22.35,0.0,0.0,0.0,0.0376704501134045,0.15852954988659548,9.79705090022681
2585000000.0,22.35,0.0,0.0,0.0,0.031097649789476496,0.15696,9.808332350210524
2590000000.0,22.35,0.0,0.0,0.0,0.02943,0.1650042503076425,9.801955749692358
2595000000.0,22.35,0.0,0.0,0.0,0.021483849595238497,0.1747161504047615,9.808136150404762
2600000000.0,22.35,0.0,0.0,0.0,0.01962,0.16873194949811948,9.817848050501881
2605000000.0,22.35,0.0,0.0,0.0,0.027369950598999507,0.16677,9.804310098802002
2610000000.0,22.35,0.0,0.0,0.0,0.0370818506961185,0.15146629860776298,9.80784185069612
2615000000.0,22.35,0.0,0.0,0.0,0.016578747620287475,0.1547037507932375,9.794892498413526
2620000000.0,22.35,0.0,0.0,0.0,0.00981,0.1644156508903565,9.797835650890358
2625000000.0,22.35,0.0,0.0,0.0,0.04659775493737755,0.1741275509874755,9.778117347037574
2630000000.0,22.35,0.0,0.0,0.0,0.05160054891540549,0.14754219566162194,9.778019451084594
2635000000.0,22.35,0.0,0.0,0.0,0.04188864881828649,0.15882405354514054,9.809215404726855
2640000000.0,22.35,0.0,0.0,0.0,0.046303251278832516,0.15970674872116747,9.812746748721167
2645000000.0,22.35,0.0,0.0,0.0,0.03511969724809698,0.1639251513759515,9.796069697248099
2650000000.0,22.35,0.0,0.0,0.0,0.02943,0.16677,9.797247051473072
2655000000.0,22.35,0.0,0.0,0.0,0.036198951570189514,0.16677,9.80019
2660000000.0,22.35,0.0,0.0,0.0,0.03924,0.14675744499807444,9.80686085166731
2665000000.0,22.35,0.0,0.0,0.0,0.02609449647114496,0.15705825529328254,9.81
2670000000.0,22.35,0.0,0.0,0.0,0.03256930372309304,0.1732446518615465,9.797050696276907
2675000000.0,22.35,0.0,0.0,0.0,0.026486896082668958,0.17658,9.784003448041336
2680000000.0,22.35,0.0,0.0,0.0,0.01962,0.1514661917768619,9.799405356167354
2685000000.0,22.35,0.0,0.0,0.0,0.03816105645871057,0.14970070430580704,9.797639295694193
2690000000.0,22.35,0.0,0.0,0.0,0.04905,0.14479549549995493,9.79038
2695000000.0,22.35,0.0,0.0,0.0,0.03708169530571696,0.16127660938856608,9.79038
2700000000.0,22.35,0.0,0.0,0.0,0.02943,0.17069394755573947,9.802152104888522
2705000000.0,22.35,0.0,0.0,0.0,0.023642047458620474,0.14940614237586142,9.798424094917241
2710000000.0,22.35,0.0,0.0,0.0,0.030999705276997053,0.14871970527699704,9.7960698526385
2715000000.0,22.35,0.0,0.0,0.0,0.028056494528764943,0.15136824726438247,9.794598247264384
2720000000.0,22.35,0.0,0.0,0.0,0.030607305665473053,0.14715,9.806860958498211
2725000000.0,22.35,0.0,0.0,0.0,0.03384444707014447,0.15254555292985553,9.803623341210434
2730000000.0,22.35,0.0,0.0,0.0,0.03472745302697453,0.16755490605394904,9.785082546973026
2735000000.0,22.35,0.0,0.0,0.0,0.028841293751812935,0.1609819406277194,9.801367412496374
2740000000.0,22.35,0.0,0.0,0.0,0.02982250644242506,0.14715,9.809607493557575
2745000000.0,22.35,0.0,0.0,0.0,0.034236846681668466,0.14214684668166847,9.790183693363337
2750000000.0,22.35,0.0,0.0,0.0,0.03924010683090107,0.13734,9.795285160246353
2755000000.0,22.35,0.0,0.0,0.0,0.05866390702513907,0.14214695351256953,9.795579139462292
2760000000.0,22.35,0.0,0.0,0.0,0.04041687834186879,0.15185885360968854,9.775861146390312
2765000000.0,22.35,0.0,0.0,0.0,0.014420753706807538,0.16157075370680754,9.779981507413614
2770000000.0,22.35,0.0,0.0,0.0,0.024132653803926537,0.15774469239214692,9.785867346196074
2775000000.0,22.35,0.0,0.0,0.0,0.033844553901045536,0.15156455390104553,9.793813661703137
2780000000.0,22.35,0.0,0.0,0.0,0.03492354600183546,0.15696,9.805683546001836
2785000000.0,22.35,0.0,0.0,0.0,0.04208506228585063,0.14008658361886583,9.795971645904718
2790000000.0,22.35,0.0,0.0,0.0,0.05473974580759746,0.14244152515441524,9.79038
2795000000.0,22.35,0.0,0.0,0.0,0.04100569142095692,0.17255784571047844,9.794402154289521
2800000000.0,22.35,0.0,0.0,0.0,0.03727810877328109,0.16677,9.79626594561336
2805000000.0,22.35,0.0,0.0,0.0,0.04522404551624046,0.17059595448375955,9.79420595448376
2810000000.0,22.35,0.0,0.0,0.0,0.042967854580878546,0.16539643625736436,9.796462145419122
2815000000.0,22.35,0.0,0.0,0.0,0.04179049064400491,0.15803926403399263,9.794009754677997
2820000000.0,22.35,0.0,0.0,0.0,0.03296165477511655,0.18011165477511654,9.80019
2825000000.0,22.35,0.0,0.0,0.0,0.03924,0.17265578051105782,9.803623554872235
2830000000.0,22.35,0.0,0.0,0.0,0.045910909938709096,0.14381454503064545,9.81
2835000000.0,22.35,0.0,0.0,0.0,0.04914793480057935,0.14705206519942066,9.81
2840000000.0,22.35,0.0,0.0,0.0,0.026290744836407448,0.1730485103271851,9.79744297934563
2845000000.0,22.35,0.0,0.0,0.0,0.022661155260711552,0.18334884473928845,9.773801155260712
2850000000.0,22.35,0.0,0.0,0.0,0.02943,0.17363694464216944,9.783513055357831
2855000000.0,22.35,0.0,0.0,0.0,0.026585044545050444,0.16677,9.793224955454951
2860000000.0,22.35,0.0,0.0,0.0,0.027860566656205666,0.16677,9.80019
2865000000.0,22.35,0.0,0.0,0.0,0.04640124435081244,0.16412124435081243,9.80019
2870000000.0,22.35,0.0,0.0,0.0,0.03924,0.15696,9.802740655746307
2875000000.0,22.35,0.0,0.0,0.0,0.036787444156574436,0.16431766753027666,9.80509488831315
2880000000.0,22.35,0.0,0.0,0.0,0.02943,0.18168108811891087,9.79038
2885000000.0,22.35,0.0,0.0,0.0,0.03619906811299068,0.16677,9.797149068112992
2890000000.0,22.35,0.0,0.0,0.0,0.05670174386521744,0.16892825613478257,9.817651743865218
2895000000.0,22.35,0.0,0.0,0.0,0.051110156231901564,0.17658,9.81
2900000000.0,22.35,0.0,0.0,0.0,0.05689794367097944,0.17461794367097944,9.80607588734196
2905000000.0,22.35,0.0,0.0,0.0,0.041594174295441745,0.16490604357386043,9.792243956426141
2910000000.0,22.35,0.0,0.0,0.0,0.01687342609303426,0.15519414347674143,9.80019
2915000000.0,22.35,0.0,0.0,0.0,0.044046730138867306,0.15048551324075513,9.801857756620379
2920000000.0,22.35,0.0,0.0,0.0,0.0243289701524897,0.16677,9.81
2925000000.0,22.35,0.0,0.0,0.0,0.047578443185384435,0.16529844318538442,9.808528443185384
2930000000.0,22.35,0.0,0.0,0.0,0.03924,0.1610803707352037,9.801563456911735
2935000000.0,22.35,0.0,0.0,0.0,0.040515357008853566,0.18383928598229285,9.808724642991146
2940000000.0,22.35,0.0,0.0,0.0,0.04669548578805486,0.16677,9.797835485788056
2945000000.0,22.35,0.0,0.0,0.0,0.03158831440618315,0.1624533711876337,9.781649157203093
2950000000.0,22.35,0.0,0.0,0.0,0.04610682809936829,0.13047317190063173,9.791361057300211
2955000000.0,22.35,0.0,0.0,0.0,0.022268872191988722,0.15784295739732956,9.80107295739733
2960000000.0,22.35,0.0,0.0,0.0,0.04748028501110285,0.16677,9.81
2965000000.0,22.35,0.0,0.0,0.0,0.02943,0.16608324240843242,9.81
2970000000.0,22.35,0.0,0.0,0.0,0.030018657688686577,0.15754865768868656,9.809411342311314
2975000000.0,22.35,0.0,0.0,0.0,0.03874944221419442,0.16677,9.80019
2980000000.0,22.35,0.0,0.0,0.0,0.03021491576584916,0.16559262635122626,9.80019
2985000000.0,22.35,0.0,0.0,0.0,0.048461284039912844,0.13851743192017432,9.799601284039914
2990000000.0,22.35,0.0,0.0,0.0,0.02943,0.17658,9.780177483845677
2995000000.0,22.35,0.0,0.0,0.0,0.029724474522844747,0.17638368365143683,9.761440790871408
3000000000.0,22.35,0.0,0.0,0.0,0.05885970864299709,0.15696011654280115,9.81
3005000000.0,22.35,0.0,0.0,0.0,0.010300208157402083,0.17638391673703915,9.81
3010000000.0,22.35,0.0,0.0,0.0,0.05787929232819293,0.15735228306872281,9.81
3015000000.0,22.35,0.0,0.0,0.0,0.03982848287448483,0.17599151712551517,9.81
3020000000.0,22.35,0.0,0.0,0.0,0.020404682680246825,0.16716234134012342,9.800582341340125
3025000000.0,22.35,0.0,0.0,0.0,0.02893955875699559,0.16677,9.781550882486009
3030000000.0,22.35,0.0,0.0,0.0,0.02943,0.1575485411458854,9.78057
3035000000.0,22.35,0.0,0.0,0.0,0.02943,0.16608335895123358,9.8079400768537
3040000000.0,22.35,0.0,0.0,0.0,0.03845525904835259,0.16677,9.782924222854943
3045000000.0,22.35,0.0,0.0,0.0,0.021385681709056813,0.1489156817090568,9.789497159145473
3050000000.0,22.35,0.0,0.0,0.0,0.01962,0.16480811848518118,9.78155094075741
3055000000.0,22.35,0.0,0.0,0.0,0.028350959339709596,0.1580390406602904,9.806762878019128
3060000000.0,22.35,0.0,0.0,0.0,0.020797140563171404,0.15696,9.801367140563173
3065000000.0,22.35,0.0,0.0,0.0,0.011085240466052403,0.1654947595339476,9.774585721398157
3070000000.0,22.35,0.0,0.0,0.0,0.018246659631066593,0.1583333403689334,9.7960699788932
3075000000.0,22.35,0.0,0.0,0.0,0.036297119456371194,0.17363711945637117,9.80019
3080000000.0,22.35,0.0,0.0,0.0,0.0474804598253046,0.1600990803493908,9.80019
3085000000.0,22.35,0.0,0.0,0.0,0.0327652801551528,0.1488176400775764,9.783905280155153
3090000000.0,22.35,0.0,0.0,0.0,0.0455185200390852,0.14715,9.788614260019543
3095000000.0,22.35,0.0,0.0,0.0,0.04905,0.1630423202333232,9.782433839883339
3100000000.0,22.35,0.0,0.0,0.0,0.033353879572438794,0.15107387957243879,9.804114180641342
3105000000.0,22.35,0.0,0.0,0.0,0.02943,0.1626499206217992,9.8022500396891
3110000000.0,22.35,0.0,0.0,0.0,0.02943,0.1744218604080186,9.807841860408018
3115000000.0,22.35,0.0,0.0,0.0,0.04453752101027521,0.1690262394948624,9.81
3120000000.0,22.35,0.0,0.0,0.0,0.04905,0.1593143393977434,9.817455660602256
3125000000.0,22.35,0.0,0.0,0.0,0.04905,0.1716751213987512,9.797737317901873
3130000000.0,22.35,0.0,0.0,0.0,0.04905,0.1693205392035054,9.79038
3135000000.0,22.35,0.0,0.0,0.0,0.034727278212772786,0.1739313608936136,9.783218639106387
3140000000.0,22.35,0.0,0.0,0.0,0.008240217027802171,0.16245347801853477,9.794696521981466
3145000000.0,22.35,0.0,0.0,0.0,0.04179096652710967,0.15696,9.807155161087852
3150000000.0,22.35,0.0,0.0,0.0,0.03825881644508816,0.15696,9.80313293881503
3155000000.0,22.35,0.0,0.0,0.0,0.03619896128208961,0.1501910387179104,9.80695896128209
3160000000.0,22.35,0.0,0.0,0.0,0.04591086137920861,0.14715,9.81
3165000000.0,22.35,0.0,0.0,0.0,0.04905,0.16029552295265523,9.796854477047345
3170000000.0,22.35,0.0,0.0,0.0,0.04905,0.16677,9.796854661573446
3175000000.0,22.35,0.0,0.0,0.0,0.03629687665886877,0.16039343832943437,9.806566561670566
3180000000.0,22.35,0.0,0.0,0.0,0.02943,0.14440307646463074,9.797443076464631
3185000000.0,22.35,0.0,0.0,0.0,0.04179072372960724,0.16206144745921447,9.808921085594411
3190000000.0,22.35,0.0,0.0,0.0,0.03688547607615476,0.17049773803807738,9.813727738038077
3195000000.0,22.35,0.0,0.0,0.0,0.023445837940958378,0.16078583794095838,9.81
3200000000.0,22.35,0.0,0.0,0.0,0.03727818646848187,0.16873212431232124,9.79822787568768
3205000000.0,22.35,0.0,0.0,0.0,0.043262037746720376,0.17658,9.784592037746721
3210000000.0,22.35,0.0,0.0,0.0,0.03924,0.17089013764960137,9.7862598623504
3215000000.0,22.35,0.0,0.0,0.0,0.02805647510496475,0.16117823755248237,9.784788237552483
3220000000.0,22.35,0.0,0.0,0.0,0.025113662544636626,0.16794732508927324,9.78057
3225000000.0,22.35,0.0,0.0,0.0,0.02943,0.16039331207473312,9.785965562641756
3230000000.0,22.35,0.0,0.0,0.0,0.03472746273887463,0.14185253726112537,9.80097492547775
3235000000.0,22.35,0.0,0.0,0.0,0.04443936283599363,0.14253936283599364,9.79440191149202
3240000000.0,22.35,0.0,0.0,0.0,0.03884747413377475,0.1522512629331126,9.790772525866226
3245000000.0,22.35,0.0,0.0,0.0,0.02442683696976837,0.16196316303023162,9.80019
3250000000.0,22.35,0.0,0.0,0.0,0.03433518938205189,0.17167506312735062,9.80019
3255000000.0,22.35,0.0,0.0,0.0,0.05385696322446964,0.17177303677553035,9.80499696322447
3260000000.0,22.35,0.0,0.0,0.0,0.04002454671364547,0.16206113667841135,9.81
3265000000.0,22.35,0.0,0.0,0.0,0.02884152683741527,0.15696,9.800778473162586
3270000000.0,22.35,0.0,0.0,0.0,0.034727336484173366,0.15696,9.785867336484174
3275000000.0,22.35,0.0,0.0,0.0,0.02943,0.15696,9.798228254451784
3280000000.0,22.35,0.0,0.0,0.0,0.033746463710064636,0.15264353628993535,9.806860608869806
3285000000.0,22.35,0.0,0.0,0.0,0.047676727614367274,0.15136836380718363,9.79038
3290000000.0,22.35,0.0,0.0,0.0,0.050619472191394725,0.15696,9.798620527808605
3295000000.0,22.35,0.0,0.0,0.0,0.03119567199715672,0.16500432800284326,9.797933507995737
3300000000.0,22.35,0.0,0.0,0.0,0.03924032049270321,0.1687318718029187,9.77664593590146
3305000000.0,22.35,0.0,0.0,0.0,0.05719210741302107,0.16078596419565963,9.786063856782638
3310000000.0,22.35,0.0,0.0,0.0,0.03551213570722136,0.1593142714144427,9.802544271414444
3315000000.0,22.35,0.0,0.0,0.0,0.03305976438989765,0.16166905755959057,9.797639528779795
3320000000.0,22.35,0.0,0.0,0.0,0.02511334205193342,0.17932667102596672,9.806468335512983
3325000000.0,22.35,0.0,0.0,0.0,0.0068671291682712915,0.15990287083172872,9.803623564584136
3330000000.0,22.35,0.0,0.0,0.0,0.01962,0.14715,9.796658141274982
3335000000.0,22.35,0.0,0.0,0.0,0.01962,0.15686209433512094,9.78047209433512
3340000000.0,22.35,0.0,0.0,0.0,0.02275926487549265,0.1640229404980294,9.80019
3345000000.0,22.35,0.0,0.0,0.0,0.02943,0.1495046598904466,9.803231164972612
3350000000.0,22.35,0.0,0.0,0.0,0.035316130139461305,0.1706938698605387,9.81
3355000000.0,22.35,0.0,0.0,0.0,0.043360069666300696,0.15696,9.804310069666302
3360000000.0,22.35,0.0,0.0,0.0,0.02943,0.15696,9.795873730527939
3365000000.0,22.35,0.0,0.0,0.0,0.026781234638912348,0.15166246927782467,9.81
3370000000.0,22.35,0.0,0.0,0.0,0.017069334541793345,0.13989066545820664,9.807449334541793
3375000000.0,22.35,0.0,0.0,0.0,0.01471513111065131,0.1594128277766283,9.797737434444675
3380000000.0,22.35,0.0,0.0,0.0,0.027075534347555344,0.18913660304266605,9.79038
3385000000.0,22.35,0.0,0.0,0.0,0.01962,0.16451363425043633,9.79038
3390000000.0,22.35,0.0,0.0,0.0,0.023936531693365314,0.15911826584668265,9.792538265846684
3395000000.0,22.35,0.0,0.0,0.0,0.041300165943801655,0.16264966811239667,9.802250165943802
3400000000.0,22.35,0.0,0.0,0.0,0.04316380187723802,0.1510741320818413,9.806075867918159
3405000000.0,22.35,0.0,0.0,0.0,0.02148396613803966,0.16490603386196034,9.79597189841412
3410000000.0,22.35,0.0,0.0,0.0,0.03649346494063465,0.15696,9.818044133764841
3415000000.0,22.35,0.0,0.0,0.0,0.063666701003167,0.15696,9.81
3420000000.0,22.35,0.0,0.0,0.0,0.040809666429396665,0.15539033357060333,9.81
3425000000.0,22.35,0.0,0.0,0.0,0.043163733893937344,0.14862156652651567,9.81
3430000000.0,22.35,0.0,0.0,0.0,0.015303866494538665,0.15696,9.808626533376366
3435000000.0,22.35,0.0,0.0,0.0,0.04777463327924634,0.1556846332792463,9.797639266558493
3440000000.0,22.35,0.0,0.0,0.0,0.03806273318212733,0.150681800453618,9.782924533635747
3445000000.0,22.35,0.0,0.0,0.0,0.03158833382998334,0.17334249925502498,9.79911083308501
3450000000.0,22.35,0.0,0.0,0.0,0.048068932987889335,0.14911213402422135,9.791361067012112
3455000000.0,22.35,0.0,0.0,0.0,0.04100593421845934,0.16765296710922967,9.799307032890772
3460000000.0,22.35,0.0,0.0,0.0,0.05415079676190797,0.17501026558730265,9.79116486720635
3465000000.0,22.35,0.0,0.0,0.0,0.001373534606935346,0.15627323269653232,9.798129698089598
3470000000.0,22.35,0.0,0.0,0.0,0.01962,0.14656133259941334,9.77252600220176
3475000000.0,22.35,0.0,0.0,0.0,0.01962,0.13881170249311703,9.799699432502296
3480000000.0,22.35,0.0,0.0,0.0,0.01962,0.16677,9.790772467594826
3485000000.0,22.35,0.0,0.0,0.0,0.019325632308056322,0.16618126461611266,9.80019
3490000000.0,22.35,0.0,0.0,0.0,0.010202535578125355,0.14734626778906268,9.80019
3495000000.0,22.35,0.0,0.0,0.0,0.02943,0.15696,9.80019
3500000000.0,22.35,0.0,0.0,0.0,0.02942993201669932,0.15696,9.8001899320167
3505000000.0,22.35,0.0,0.0,0.0,0.01971803191958032,0.15696,9.790478031919582
3510000000.0,22.35,0.0,0.0,0.0,0.038847736355077364,0.17618773635507734,9.79038
3515000000.0,22.35,0.0,0.0,0.0,0.04875576827465768,0.16706423172534232,9.799895768274657
3520000000.0,22.35,0.0,0.0,0.0,0.04905,0.15735233162822332,9.790772331628224
3525000000.0,22.35,0.0,0.0,0.0,0.030410863062208634,0.1662795684688957,9.799699568468895
3530000000.0,22.35,0.0,0.0,0.0,0.04787293713202938,0.12988412573594127,9.790968531433986
3535000000.0,22.35,0.0,0.0,0.0,0.04905,0.15490010598940104,9.79038
3540000000.0,22.35,0.0,0.0,0.0,0.021974193719241936,0.13890946247949462,9.799405268760253
3545000000.0,22.35,0.0,0.0,0.0,0.02854716885737169,0.14626716885737168,9.818044337714744
3550000000.0,22.35,0.0,0.0,0.0,0.04708813790898138,0.18246627581796276,9.784493724182038
3555000000.0,22.35,0.0,0.0,0.0,0.03158806189678062,0.16019709284517092,9.80676290715483
3560000000.0,22.35,0.0,0.0,0.0,0.03806286914872869,0.1483271308512713,9.81
3565000000.0,22.35,0.0,0.0,0.0,0.03070523075415231,0.15568476924584768,9.801465230754152
3570000000.0,22.35,0.0,0.0,0.0,0.02943,0.15696,9.80019
3575000000.0,22.35,0.0,0.0,0.0,0.012752861119828613,0.15696,9.80019
3580000000.0,22.35,0.0,0.0,0.0,0.03453140861161408,0.16520046953720469,9.783709060925592
3585000000.0,22.35,0.0,0.0,0.0,0.031097630365676303,0.1749123696343237,9.821281848171619
3590000000.0,22.35,0.0,0.0,0.0,0.037474269731442696,0.1926685394628854,9.813531460537115
3595000000.0,22.35,0.0,0.0,0.0,0.03924,0.1803076603428766,9.81
3600000000.0,22.35,0.0,0.0,0.0,0.0313919300743193,0.1530357902229579,9.78645579022296
3605000000.0,22.35,0.0,0.0,0.0,0.0371799700227997,0.1626499400455994,9.788319970022801
3610000000.0,22.35,0.0,0.0,0.0,0.0315881298800813,0.15911812988008128,9.805683740239838
3615000000.0,22.35,0.0,0.0,0.0,0.0369837702170377,0.1645137702170377,9.802446229782962
3620000000.0,22.35,0.0,0.0,0.0,0.0317843296858433,0.15931432968584328,9.815101340628313
3625000000.0,22.35,0.0,0.0,0.0,0.022072429588724296,0.1716751408225514,9.812452429588724
3630000000.0,22.35,0.0,0.0,0.0,0.01962,0.16932052949160528,9.802740529491606
3635000000.0,22.35,0.0,0.0,0.0,0.03394274121102741,0.1739313706055137,9.785867258788974
3640000000.0,22.35,0.0,0.0,0.0,0.03924,0.16245345859473456,9.787633270702633
3645000000.0,22.35,0.0,0.0,0.0,0.04620517079975171,0.16392517079975172,9.804310341599503
3650000000.0,22.35,0.0,0.0,0.0,0.028448787309387873,0.1530358582062586,9.79626585820626
3655000000.0,22.35,0.0,0.0,0.0,0.03315794198797942,0.16068794198797942,9.80391794198798
3660000000.0,22.35,0.0,0.0,0.0,0.04591087109110871,0.16009912890889128,9.81
3665000000.0,22.35,0.0,0.0,0.0,0.03590445762354458,0.17010554237645542,9.803427228811772
3670000000.0,22.35,0.0,0.0,0.0,0.02943,0.17010532871465328,9.793715328714654
3675000000.0,22.35,0.0,0.0,0.0,0.054936285529862856,0.16677,9.79038
3680000000.0,22.35,0.0,0.0,0.0,0.03727764260207642,0.15421305704083058,9.79038
3685000000.0,22.35,0.0,0.0,0.0,0.025800371576703715,0.1533303715767037,9.802740743153407
3690000000.0,22.35,0.0,0.0,0.0,0.02943,0.15087772832617727,9.803917728326178
3695000000.0,22.35,0.0,0.0,0.0,0.04139834354188344,0.1531341717709417,9.788221656458118
3700000000.0,22.35,0.0,0.0,0.0,0.04316392813193928,0.13930178439581783,9.792342143736121
3705000000.0,22.35,0.0,0.0,0.0,0.03345202803482028,0.15068188786071887,9.80019
3710000000.0,22.35,0.0,0.0,0.0,0.023740127937701277,0.16108012793770127,9.80019
3715000000.0,22.35,0.0,0.0,0.0,0.01962,0.17373531647825316,9.805781772159419
3720000000.0,22.35,0.0,0.0,0.0,0.025113672256536722,0.15892163871731638,9.799012655486926
3725000000.0,22.35,0.0,0.0,0.0,0.024034427646344277,0.16431786176827862,9.79038
3730000000.0,22.35,0.0,0.0,0.0,0.01962,0.1704975826476758,9.795677472450775
3735000000.0,22.35,0.0,0.0,0.0,0.024819372547893726,0.14136188235631883,9.80019
3740000000.0,22.35,0.0,0.0,0.0,0.01922745470997455,0.14793509058005092,9.795088727354988
3745000000.0,22.35,0.0,0.0,0.0,0.00981,0.16176682725786826,9.800386345484265
3750000000.0,22.35,0.0,0.0,0.0,0.029430291357002914,0.16186507283925072,9.800189854321498
3755000000.0,22.35,0.0,0.0,0.0,0.04424302706363027,0.16677,9.78557302706363
3760000000.0,22.35,0.0,0.0,0.0,0.029822253933022534,0.17147887303348872,9.789987746066979
3765000000.0,22.35,0.0,0.0,0.0,0.02884154626121546,0.17196922686939226,9.795579226869393
3770000000.0,22.35,0.0,0.0,0.0,0.04375267322772673,0.16677,9.794892673227727
3775000000.0,22.35,0.0,0.0,0.0,0.04905,0.16235542667515426,9.804604573324847
3780000000.0,22.35,0.0,0.0,0.0,0.04473352657803527,0.15264352657803526,9.79273410631214
3785000000.0,22.35,0.0,0.0,0.0,0.03924,0.15558674703816747,9.774978373519083
3790000000.0,22.35,0.0,0.0,0.0,0.030999452767594526,0.16677,9.79705109446481
3795000000.0,22.35,0.0,0.0,0.0,0.015597826286678261,0.16677,9.811765652573357
3800000000.0,22.35,0.0,0.0,0.0,0.021582221431322213,0.15107370475823706,9.788417778568677
3805000000.0,22.35,0.0,0.0,0.0,0.03924,0.13900792172267923,9.778411947815119
3810000000.0,22.35,0.0,0.0,0.0,0.03551212599532126,0.14950425199064252,9.79038
3815000000.0,22.35,0.0,0.0,0.0,0.033059774101797744,0.14096977410179773,9.79038
3820000000.0,22.35,0.0,0.0,0.0,0.04277167419891674,0.15774502259675022,9.79038
3825000000.0,22.35,0.0,0.0,0.0,0.04561642570396426,0.17658,9.797247148592072
3830000000.0,22.35,0.0,0.0,0.0,0.04257547439315474,0.16323810242738102,9.81
3835000000.0,22.35,0.0,0.0,0.0,0.04581262550972626,0.14705212347082122,9.81
3840000000.0,22.35,0.0,0.0,0.0,0.03924,0.17618782376217823,9.803721450825215
3845000000.0,22.35,0.0,0.0,0.0,0.03924,0.18099412657744127,9.793421174684513
3850000000.0,22.35,0.0,0.0,0.0,0.03924,0.1412638504367385,9.80313307478163
3855000000.0,22.35,0.0,0.0,0.0,0.0335500502425005,0.12753,9.81
3860000000.0,22.35,0.0,0.0,0.0,0.01962,0.13577062492760625,9.81
3865000000.0,22.35,0.0,0.0,0.0,0.02226877507298775,0.15960877507298774,9.81
3870000000.0,22.35,0.0,0.0,0.0,0.026879324829893247,0.1718713503402135,9.804898649659787
3875000000.0,22.35,0.0,0.0,0.0,0.026977725801677257,0.18393742473277425,9.792832575267227
3880000000.0,22.35,0.0,0.0,0.0,0.046695524635655246,0.16951657390696573,9.797835524635657
3885000000.0,22.35,0.0,0.0,0.0,0.03698362453853624,0.14715,9.794892750922928
3890000000.0,22.35,0.0,0.0,0.0,0.03374655111716551,0.14715,9.81
3895000000.0,22.35,0.0,0.0,0.0,0.04492964868859649,0.14508982434429823,9.807939824344299
3900000000.0,22.35,0.0,0.0,0.0,0.023543772741537728,0.13537792424717923,9.804114151505642
3905000000.0,22.35,0.0,0.0,0.0,0.01118385509963855,0.13498590339975905,9.81794602415006
3910000000.0,22.35,0.0,0.0,0.0,0.06062587594705876,0.16853587594705877,9.804702372158824
3915000000.0,22.35,0.0,0.0,0.0,0.06366667186746672,0.17491222395582223,9.78057
3920000000.0,22.35,0.0,0.0,0.0,0.04080967614129676,0.16363064771740649,9.786848704565188
3925000000.0,22.35,0.0,0.0,0.0,0.04610684752316848,0.1515647287152473,9.816866847523169
3930000000.0,22.35,0.0,0.0,0.0,0.03217695267106953,0.17108609465786093,9.801563476335536
3935000000.0,22.35,0.0,0.0,0.0,0.04394849426938495,0.13861537643265376,9.808724623567347
3940000000.0,22.35,0.0,0.0,0.0,0.010987276529772765,0.1506818295893183,9.801367276529774
3945000000.0,22.35,0.0,0.0,0.0,0.02177835325378353,0.1755008233731082,9.81
3950000000.0,22.35,0.0,0.0,0.0,0.041202153448021535,0.16677,9.806075693103958
3955000000.0,22.35,0.0,0.0,0.0,0.05886,0.16853595364225954,9.774291907284518
3960000000.0,22.35,0.0,0.0,0.0,0.05886,0.18403536924525368,9.81
3965000000.0,22.35,0.0,0.0,0.0,0.058173222984632234,0.15627322298463223,9.81
3970000000.0,22.35,0.0,0.0,0.0,0.04669529155005292,0.14656132288751322,9.809411322887513
3975000000.0,22.35,0.0,0.0,0.0,0.011281731628817316,0.13734,9.80019
3980000000.0,22.35,0.0,0.0,0.0,0.03845504538655045,0.13734,9.800582477306726
3985000000.0,22.35,0.0,0.0,0.0,0.020208754807687548,0.13763437740384377,9.80911686778847
3990000000.0,22.35,0.0,0.0,0.0,0.038847444998074444,0.1479351100038511,9.780766277500964
3995000000.0,22.35,0.0,0.0,0.0,0.01981635519616355,0.18629182240191822,9.790576355196164
4000000000.0,22.35,0.0,0.0,0.0,0.03923992230479922,0.17657992230479921,9.8099999223048
4005000000.0,22.35,0.0,0.0,0.0,0.02952802220768022,0.1668680222076802,9.800288022207681
4010000000.0,22.35,0.0,0.0,0.0,0.03904387788943878,0.16677,9.80019
4015000000.0,22.35,0.0,0.0,0.0,0.02972422201344222,0.13822266604032665,9.790674222013443
4020000000.0,22.35,0.0,0.0,0.0,0.03884767808367678,0.15617535616735356,9.809215356167353
4025000000.0,22.35,0.0,0.0,0.0,0.02992042181920422,0.14764042181920423,9.79136084363841
4030000000.0,22.35,0.0,0.0,0.0,0.02943,0.15637147827791478,9.79038
4035000000.0,22.35,0.0,0.0,0.0,0.047676756750067564,0.16608337837503379,9.808626756750067
4040000000.0,22.35,0.0,0.0,0.0,0.04002472152784721,0.15774472152784721,9.791949443055696
4045000000.0,22.35,0.0,0.0,0.0,0.03924,0.1658871785692718,9.79038
4050000000.0,22.35,0.0,0.0,0.0,0.030410921333609214,0.14028276400082762,9.808038157332781
4055000000.0,22.35,0.0,0.0,0.0,0.020699021236490214,0.13734,9.792538042472982
4060000000.0,22.35,0.0,0.0,0.0,0.01962,0.16323863658188636,9.79038
4065000000.0,22.35,0.0,0.0,0.0,0.02815477895774779,0.16677,9.781845221042254
4070000000.0,22.35,0.0,0.0,0.0,0.046303358109733586,0.1836433581097336,9.797443358109735
4075000000.0,22.35,0.0,0.0,0.0,0.03237284169602842,0.14469710424007104,9.775174262544041
4080000000.0,22.35,0.0,0.0,0.0,0.012949041501790416,0.17854239624552395,9.779000479249106
4085000000.0,22.35,0.0,0.0,0.0,0.05052189673111897,0.1619628619613286,9.78057
4090000000.0,22.35,0.0,0.0,0.0,0.05081572055665721,0.16500427944334278,9.788614279443344
4095000000.0,22.35,0.0,0.0,0.0,0.033157640919076414,0.1508776409190764,9.798326179540462
4100000000.0,22.35,0.0,0.0,0.0,0.02943,0.15499807963758078,9.823734238912742
4105000000.0,22.35,0.0,0.0,0.0,0.021680020265300203,0.1414600405306004,9.8141200405306
4110000000.0,22.35,0.0,0.0,0.0,0.034923759663637595,0.1679475193272752,9.802348120168181
4115000000.0,22.35,0.0,0.0,0.0,0.0241324401421244,0.1690262200710622,9.769974880284249
4120000000.0,22.35,0.0,0.0,0.0,0.0270756800260568,0.1742256800260568,9.798228400130284
4125000000.0,22.35,0.0,0.0,0.0,0.0367875801231758,0.16186483975364838,9.795284839753648
4130000000.0,22.35,0.0,0.0,0.0,0.046499480220294806,0.1787384406608844,9.80489896044059
4135000000.0,22.35,0.0,0.0,0.0,0.02756585904775859,0.15774447873034478,9.81
4140000000.0,22.35,0.0,0.0,0.0,0.01962,0.1542132804145328,9.81
4145000000.0,22.35,0.0,0.0,0.0,0.01962,0.14302963897669638,9.789104458465046
4150000000.0,22.35,0.0,0.0,0.0,0.01962,0.13734,9.794304161217543
4155000000.0,22.35,0.0,0.0,0.0,0.026388980705889808,0.15764694211766941,9.80019
4160000000.0,22.35,0.0,0.0,0.0,0.03610088080300881,0.16677,9.80686088080301
4165000000.0,22.35,0.0,0.0,0.0,0.03924,0.1733427809001278,9.790281657299618
4170000000.0,22.35,0.0,0.0,0.0,0.03276531900275319,0.16363063800550637,9.793519361994495
4175000000.0,22.35,0.0,0.0,0.0,0.01030025671690257,0.14420683781126836,9.80019
4180000000.0,22.35,0.0,0.0,0.0,0.012556962382969624,0.15617544357445443,9.806468481191486
4185000000.0,22.35,0.0,0.0,0.0,0.01962,0.16677,9.81
4190000000.0,22.35,0.0,0.0,0.0,0.025702281385722815,0.1728522813857228,9.803917718614278
4195000000.0,22.35,0.0,0.0,0.0,0.02943,0.19453254444852544,9.80019
4200000000.0,22.35,0.0,0.0,0.0,0.02943,0.19423783684007837,9.80019
4205000000.0,22.35,0.0,0.0,0.0,0.02943,0.18060201832292017,9.80019
4210000000.0,22.35,0.0,0.0,0.0,0.02943,0.16520023645160234,9.80019
4215000000.0,22.35,0.0,0.0,0.0,0.03502178187131782,0.15136821812868217,9.805781781871318
4220000000.0,22.35,0.0,0.0,0.0,0.03374631803156318,0.16363104590531047,9.81
4225000000.0,22.35,0.0,0.0,0.0,0.02943,0.16039325380333253,9.81
4230000000.0,22.35,0.0,0.0,0.0,0.03472748216267482,0.1524474821626748,9.81
4235000000.0,22.35,0.0,0.0,0.0,0.03924,0.15696,9.799601235480413
4240000000.0,22.35,0.0,0.0,0.0,0.04434128235691282,0.15185871764308717,9.805683847070739
4245000000.0,22.35,0.0,0.0,0.0,0.039043635091936355,0.14214681754596817,9.809803635091937
4250000000.0,22.35,0.0,0.0,0.0,0.02943,0.14715016510230164,9.805095082551151
4255000000.0,22.35,0.0,0.0,0.0,0.034236982648269826,0.15696,9.81
4260000000.0,22.35,0.0,0.0,0.0,0.03924,0.15696,9.81470888274539
4265000000.0,22.35,0.0,0.0,0.0,0.04385078284250783,0.15696,9.805977651472476
4270000000.0,22.35,0.0,0.0,0.0,0.04002463412074635,0.15244731706037318,9.799405365879254
4275000000.0,22.35,0.0,0.0,0.0,0.033844583036745826,0.1603937491102375,9.792341667853016
4280000000.0,22.35,0.0,0.0,0.0,0.03924,0.1636305505984055,9.77939296626773
4285000000.0,22.35,0.0,0.0,0.0,0.03502161676901617,0.14715,9.79038
4290000000.0,22.35,0.0,0.0,0.0,0.02943,0.15539056665620568,9.794500283328103
4295000000.0,22.35,0.0,0.0,0.0,0.04954091712610917,0.15872563314955634,9.784101266299112
4300000000.0,22.35,0.0,0.0,0.0,0.05493549886595499,0.14322591647765917,9.776646334089364
4305000000.0,22.35,0.0,0.0,0.0,0.023445983619459834,0.13734,9.804015983619461
4310000000.0,22.35,0.0,0.0,0.0,0.02943,0.15225153486631535,9.81
4315000000.0,22.35,0.0,0.0,0.0,0.036689567627395676,0.17658,9.81
4320000000.0,22.35,0.0,0.0,0.0,0.041986632178366325,0.18011168391081683,9.813531683910817
4325000000.0,22.35,0.0,0.0,0.0,0.02943,0.17608924797619246,9.809509247976193
4330000000.0,22.35,0.0,0.0,0.0,0.03276548410505484,0.16029548410505484,9.793715484105055
4335000000.0,22.35,0.0,0.0,0.0,0.03276523159565231,0.16029523159565232,9.796952615797826
4340000000.0,22.35,0.0,0.0,0.0,0.03217713719717137,0.14715,9.796658568598586
4345000000.0,22.35,0.0,0.0,0.0,0.04973644681076447,0.15019118439641185,9.800876446810765
4350000000.0,22.35,0.0,0.0,0.0,0.032373084493530845,0.15401691550646915,9.789399253480592
4355000000.0,22.35,0.0,0.0,0.0,0.04208498459064985,0.15568495377194955,9.804310030818701
4360000000.0,22.35,0.0,0.0,0.0,0.046303115312231156,0.1710862306244623,9.79312688468777
4365000000.0,22.35,0.0,0.0,0.0,0.03924,0.1622575695697757,9.797541215215112
4370000000.0,22.35,0.0,0.0,0.0,0.03924,0.16892794535397945,9.79038
4375000000.0,22.35,0.0,0.0,0.0,0.03678741502087415,0.14715,9.792832584979127
4380000000.0,22.35,0.0,0.0,0.0,0.034138970152489706,0.15421345522873456,9.802544485076245
4385000000.0,22.35,0.0,0.0,0.0,0.04905,0.17206722965327229,9.805487229653274
4390000000.0,22.35,0.0,0.0,0.0,0.04905,0.15264342945903428,9.794696570540966
4395000000.0,22.35,0.0,0.0,0.0,0.04905,0.13940018536760185,9.805879629264798
4400000000.0,22.35,0.0,0.0,0.0,0.04708791453527915,0.15107417092944173,9.792342085464721
4405000000.0,22.35,0.0,0.0,0.0,0.03924,0.16490601443816014,9.802053985561841
4410000000.0,22.35,0.0,0.0,0.0,0.03394234302312343,0.1604917713179177,9.808234114341042
4415000000.0,22.35,0.0,0.0,0.0,0.011477785756077857,0.17324442848784427,9.801857785756079
4420000000.0,22.35,0.0,0.0,0.0,0.021189685853196857,0.15696,9.808430314146804
4425000000.0,22.35,0.0,0.0,0.0,0.03237317190063172,0.15843158595031584,9.80019
4430000000.0,22.35,0.0,0.0,0.0,0.04767651395256514,0.16264954185769542,9.80019
4435000000.0,22.35,0.0,0.0,0.0,0.04051538614455386,0.14116615843366156,9.80019
4440000000.0,22.35,0.0,0.0,0.0,0.04787271375832714,0.16677,9.80019
4445000000.0,22.35,0.0,0.0,0.0,0.04139837267758373,0.16569081366120814,9.799110813661208
4450000000.0,22.35,0.0,0.0,0.0,0.05787891356408914,0.15696,9.792342172871823
4455000000.0,22.35,0.0,0.0,0.0,0.04551805386788054,0.15696,9.81
4460000000.0,22.35,0.0,0.0,0.0,0.011379773260297732,0.15539022673970226,9.807645340109554
4465000000.0,22.35,0.0,0.0,0.0,0.028743213272732132,0.13871357345453572,9.781256786727269
4470000000.0,22.35,0.0,0.0,0.0,0.020797373648773734,0.15696,9.79038
4475000000.0,22.35,0.0,0.0,0.0,0.03924,0.15745058692150585,9.790870586921507
4480000000.0,22.35,0.0,0.0,0.0,0.03845502596275026,0.16716248701862488,9.799797512981376
4485000000.0,22.35,0.0,0.0,0.0,0.02020877423148774,0.17599122576851225,9.790674387115745
4490000000.0,22.35,0.0,0.0,0.0,0.03904371278713713,0.1575488616385886,9.799797425574274
4495000000.0,22.35,0.0,0.0,0.0,0.02943,0.18629181269001813,9.780766374619965
4500000000.0,22.35,0.0,0.0,0.0,0.029430262221302624,0.17657973777869737,9.80019
4505000000.0,22.35,0.0,0.0,0.0,0.05856596251265962,0.1474440374873404,9.80019
4510000000.0,22.35,0.0,0.0,0.0,0.04924611239866113,0.15676388760133886,9.809803887601339
4515000000.0,22.35,0.0,0.0,0.0,0.0014710615077106123,0.17599157539691573,9.790968424603085
4520000000.0,22.35,0.0,0.0,0.0,0.03767075118230751,0.16716231220442312,9.799797687795577
4525000000.0,22.35,0.0,0.0,0.0,0.029920412107304124,0.15745041210730412,9.809509587892697
4530000000.0,22.35,0.0,0.0,0.0,0.06631595195925952,0.15696,9.79155702402037
4535000000.0,22.35,0.0,0.0,0.0,0.03217644765226447,0.15696,9.781256611913067
4540000000.0,22.35,0.0,0.0,0.0,0.011379423631894238,0.1659852881840529,9.807645864552159
4545000000.0,22.35,0.0,0.0,0.0,0.03659156484351564,0.16677,9.818927188281172
4550000000.0,22.35,0.0,0.0,0.0,0.02158182324341823,0.14911182324341823,9.793322734865129
4555000000.0,22.35,0.0,0.0,0.0,0.03708197695081977,0.17334296542622965,9.79911098847541
4560000000.0,22.35,0.0,0.0,0.0,0.021974222854942226,0.18521288857252888,9.80019
4565000000.0,22.35,0.0,0.0,0.0,0.028154788669647886,0.1778552113303521,9.791655211330353
4570000000.0,22.35,0.0,0.0,0.0,0.03786668876676688,0.16814331123323312,9.798816688766767
4575000000.0,22.35,0.0,0.0,0.0,0.04757858886388589,0.16677,9.783512822272229
4580000000.0,22.35,0.0,0.0,0.0,0.03256902207799023,0.15028902207799022,9.788810488961005
4585000000.0,22.35,0.0,0.0,0.0,0.02943,0.15529238905812387,9.782237610941877
4590000000.0,22.35,0.0,0.0,0.0,0.01334142168951422,0.1650042891552429,9.796658578310486
4595000000.0,22.35,0.0,0.0,0.0,0.033648567757085676,0.16677,9.80019
4600000000.0,22.35,0.0,0.0,0.0,0.01569573195155732,0.15107382130103822,9.792341910650519
4605000000.0,22.35,0.0,0.0,0.0,0.02530997889319979,0.17039996833979967,9.7981299894466
4610000000.0,22.35,0.0,0.0,0.0,0.044733779087437794,0.1612762209125622,9.80784188954372
4615000000.0,22.35,0.0,0.0,0.0,0.03394242071832421,0.15696,9.794892420718325
4620000000.0,22.35,0.0,0.0,0.0,0.044341379475913795,0.1495043102620431,9.797835689737958
4625000000.0,22.35,0.0,0.0,0.0,0.026977230494772304,0.1545075898350759,9.80019
4630000000.0,22.35,0.0,0.0,0.0,0.0268794899321949,0.1642194899321949,9.80019
4635000000.0,22.35,0.0,0.0,0.0,0.0365913900293139,0.16677,9.793028609970687
4640000000.0,22.35,0.0,0.0,0.0,0.025113419747134193,0.15970670987356708,9.79038
4645000000.0,22.35,0.0,0.0,0.0,0.0265851902235519,0.1639251902235519,9.797345190223552
4650000000.0,22.35,0.0,0.0,0.0,0.04316418064134181,0.16677,9.807057090320672
4655000000.0,22.35,0.0,0.0,0.0,0.042281009582210094,0.16677,9.80323100958221
4660000000.0,22.35,0.0,0.0,0.0,0.03924,0.1600991094850911,9.80019
4665000000.0,22.35,0.0,0.0,0.0,0.05895837183608371,0.15696,9.806762790612028
4670000000.0,22.35,0.0,0.0,0.0,0.04924592787255928,0.1634346907091469,9.797050618581707
4675000000.0,22.35,0.0,0.0,0.0,0.032863409193734094,0.16039340919373407,9.796756590806266
4680000000.0,22.35,0.0,0.0,0.0,0.02315150909661509,0.1506815090966151,9.80019
4685000000.0,22.35,0.0,0.0,0.0,0.03198078200100782,0.1533303910005039,9.763107653996977
4690000000.0,22.35,0.0,0.0,0.0,0.04532229109762291,0.16912458219524582,9.78390603768336
4695000000.0,22.35,0.0,0.0,0.0,0.031097426415774263,0.1825641911947419,9.81
4700000000.0,22.35,0.0,0.0,0.0,0.03727827387558274,0.1746178174162782,9.792341726124418
4705000000.0,22.35,0.0,0.0,0.0,0.043262008611020086,0.16098200861102008,9.78635799138898
4710000000.0,22.35,0.0,0.0,0.0,0.03924,0.15127010851390107,9.79038
4715000000.0,22.35,0.0,0.0,0.0,0.05042358316643583,0.15833358316643584,9.795971791583218
4720000000.0,22.35,0.0,0.0,0.0,0.036885233278652334,0.15578261663932616,9.783708924958988
4725000000.0,22.35,0.0,0.0,0.0,0.03580677533236776,0.1525455917774559,9.781551183554912
4730000000.0,22.35,0.0,0.0,0.0,0.03315752437627524,0.1516625081254251,9.806272475623725
4735000000.0,22.35,0.0,0.0,0.0,0.02481939197169392,0.16274817591508176,9.81981
4740000000.0,22.35,0.0,0.0,0.0,0.02943,0.16637741586237415,9.794303539655935
4745000000.0,22.35,0.0,0.0,0.0,0.02442680783406808,0.15696,9.775763192165932
4750000000.0,22.35,0.0,0.0,0.0,0.01962,0.1765803690522037,9.790380184526102
4755000000.0,22.35,0.0,0.0,0.0,0.03404097708050977,0.18177902291949025,9.795383007639831
4760000000.0,22.35,0.0,0.0,0.0,0.05375889245728893,0.15735221508542216,9.79508889245729
4765000000.0,22.35,0.0,0.0,0.0,0.05886,0.15176079255440791,9.80019
4770000000.0,22.35,0.0,0.0,0.0,0.049834614696946146,0.1434219220454192,9.795677307348473
4775000000.0,22.35,0.0,0.0,0.0,0.04365459274864593,0.12311540725135407,9.799209185497293
4780000000.0,22.35,0.0,0.0,0.0,0.03610052146270522,0.1349859713830597,9.814316492845766
4785000000.0,22.35,0.0,0.0,0.0,0.01540160705711607,0.15696,9.807154821171348
4790000000.0,22.35,0.0,0.0,0.0,0.02217087912000879,0.17344117216001173,9.802740879120009
4795000000.0,22.35,0.0,0.0,0.0,0.027173420588634204,0.19217780686287808,9.815787806862879
4800000000.0,22.35,0.0,0.0,0.0,0.029430466171204664,0.19031409323424095,9.802151813531518
4805000000.0,22.35,0.0,0.0,0.0,0.05886,0.18854801333728013,9.786554006668641
4810000000.0,22.35,0.0,0.0,0.0,0.05886,0.1653963197145632,9.791753680285437
4815000000.0,22.35,0.0,0.0,0.0,0.05523020647440207,0.14715,9.806370206474403
4820000000.0,22.35,0.0,0.0,0.0,0.04198661275456613,0.14715,9.807253387245435
4825000000.0,22.35,0.0,0.0,0.0,0.025996406280164065,0.14715,9.823243593719836
4830000000.0,22.35,0.0,0.0,0.0,0.01628450618304506,0.16049197526781975,9.826284506183045
4835000000.0,22.35,0.0,0.0,0.0,0.00657260608592606,0.18962739391407393,9.806860424343705
4840000000.0,22.35,0.0,0.0,0.0,0.00627858802238588,0.13969270779852708,9.783709294011194
4845000000.0,22.35,0.000660103949708452,0.020804095792041746,0.0,-0.02599791162467912,-0.01079194108311941,9.75692686480857
4850000000.0,22.35,0.004045734549175717,0.08852378516138859,0.0,-0.15107475364344755,-0.004902644864226452,9.658925246356553
4855000000.0,22.35,0.009752242665972261,0.12582263475907512,0.0,-0.27428986326119864,0.1525450284872503,9.65804489174845
4860000000.0,22.35,0.009198460350643952,0.07959277424931516,0.0,-0.49089409919404103,0.1424420495970205,9.721707640008278
4865000000.0,22.35,-0.0008623979497972464,0.029833231415812986,0.0,-0.6551131229550313,0.23514673946466738,9.561022766980727
4870000000.0,22.35,-0.0009793966482005757,-0.01140130204657238,0.0,-0.757920694593907,0.3700352810659528,9.591236527030466
4875000000.0,22.35,0.01065107745961072,-0.06578655280224038,0.0,-0.6450028601397286,0.5395503787641038,9.63342303011283
4880000000.0,22.35,0.011804810072428144,-0.14142618730252285,0.0,-0.17618323974533243,0.6137154009747541,9.981875749830957
4885000000.0,22.35,-0.040297425386481296,-0.20967111665318583,0.0,0.3134356675421567,0.6109607273431072,10.233689440392595
4890000000.0,22.35,-0.0668992317902793,-0.22536894302569951,0.0,0.8324778347709784,0.11242193512331936,9.84197898529949
4895000000.0,22.35,-0.10124747416632969,-0.1714205075070867,0.0,1.0061170228620702,0.0032347328534473307,9.730441755715518
4900000000.0,22.35,-0.10076810244980756,-0.11355027362886322,0.0,1.3086551421194517,-0.2511381890622819,9.810000475883106
4905000000.0,22.35,-0.07818357254696325,-0.025249434991569293,0.0,1.361822103977721,-0.4223200236313003,9.84551200945252
4910000000.0,22.35,-0.05469055617717703,0.071483386766067,0.0,1.1375649296159491,-0.37199462777484626,9.907319396317794
4915000000.0,22.35,-0.01386213934956713,0.1671406107908511,0.0,0.8222690447291904,-0.3170588181280882,10.241246454384266
4920000000.0,22.35,0.03247109410510363,0.23892570450391792,0.0,0.29939613504986134,-0.2703627399141274,10.101158219742384
4925000000.0,22.35,0.05864400820523502,0.2823544524811523,0.0,-0.20209020913750209,-0.17412606506676065,9.869840426026704
4930000000.0,22.35,0.06781322038453033,0.22004313241460924,0.0,-0.6252933261327333,-0.02158008481330085,9.7923400848133
4935000000.0,22.35,0.08591650243841333,0.11671337498628417,0.0,-0.9864947502774475,0.15862856270808562,9.595551291158012
4940000000.0,22.35,0.09425506308874106,0.0034870221371592833,0.0,-1.0759597445106974,0.2589859190714592,9.421917551442876
4945000000.0,22.35,0.1209715212861182,-0.07782261680183564,0.0,-0.9324361777188618,0.5460347813733478,9.519034823695849
4950000000.0,22.35,0.10791279932368718,-0.12154648487278007,0.0,-0.4865708080182082,1.445010404009104,9.577513864702638
4955000000.0,22.35,0.022107126202502117,-0.1201073637019837,0.0,-0.0009800375507003755,1.1245113492215135,10.454209514444594
4960000000.0,22.35,-0.012016060120230895,-0.09024609640988608,0.0,0.0796561402374614,0.2856661402374614,9.22414593292156
4965000000.0,22.35,-0.12398306224414093,-0.025345465465746966,0.0,-0.01824640712166407,0.167159699703297,9.159403114540032
4970000000.0,22.35,-0.10125807955805738,-0.020457387818479538,0.0,-0.004709572290295723,-0.0865239103911391,9.421923543685237
4975000000.0,22.35,-0.1003412189747516,0.009741586682036002,0.0,-0.0799517899002179,-0.06229417643384177,10.103809403366594
4980000000.0,22.35,-0.06246497682874889,0.012605423998070618,0.0,-0.10791,-0.13066997384419973,10.0960599869221
4985000000.0,22.35,-0.02728250101955245,0.008006006209975117,0.0,-0.10791,-0.20365482537884824,10.129019650757696
4990000000.0,22.35,-0.013584818538262575,-0.008751894882239444,-0.00010651767918851039,-0.1067322184514222,-0.12772629692476298,9.975788515376186
4995000000.0,22.35,-0.0009580804643106996,-0.020309761550777683,-0.005280626066820379,-0.048755408934354094,-0.13675081786870816,9.925952453606126
5000000000.0,22.35,0.009582005326844813,-0.026633766545607233,-0.0010646086835426672,-0.019619028809990287,-0.07847980576199805,9.751140194238001
5005000000.0,22.35,0.024355344928084194,-0.030849783928884947,0.003151408699734946,0.07749997216119972,-0.059056005567760056,9.770563994432239
5010000000.0,22.35,0.03493810657765784,-0.05699364185924614,6.384736725235669e-05,0.1457772811926728,0.07573456238534562,9.914968459698583
5015000000.0,22.35,0.06305135203406914,-0.08645919493470505,-0.0010327218900685936,0.34698174561751743,0.8111964005975641,9.860815215537851
5020000000.0,22.35,0.06698018338454681,-0.08837580445448767,-0.0051529524124025805,0.8334625728813256,0.6360783523429836,10.339352572881326
5025000000.0,22.35,0.03169131763803277,-0.048956072227785974,-0.0002661097472107573,0.8907483904183839,0.4228088526988885,9.837462534142626
5030000000.0,22.35,-0.04728178641084563,0.02522600763697469,0.0,0.7820520275794204,0.0523815896331159,9.321260621809106
5035000000.0,22.35,-0.017515578008263914,0.04865649072374649,-0.0009901358984801074,0.47391787263847873,-0.07092737578717374,9.408674171384842
5040000000.0,22.35,-0.04234687223164441,0.09710504467099067,0.0018738173580324575,0.2436781483930815,0.03884887264738873,9.868864894797648
5045000000.0,22.35,-0.018574030356095266,0.10896081592265426,0.00019161588206127126,0.10064922809699225,-0.06700357390993572,10.050935167889152
5050000000.0,22.35,0.005108813094868447,0.11068704647767223,0.0,-0.11477925607439256,0.009810980901909808,10.029743607639237
5055000000.0,22.35,0.026419087648879902,0.0861416697323859,-0.0009475499068916213,-0.3119599637461996,0.054543992749239927,9.79881404712994
5060000000.0,22.35,0.043768839689057676,0.059657181390307984,-0.004812264479694675,-0.41986898284428986,0.1106573897065739,9.546304644604847
5065000000.0,22.35,0.039315909947643043,0.03977359236273685,-0.002544483485290392,-0.4999183870523839,0.1689287902892879,9.47302600809226
5070000000.0,22.35,0.024610727468311035,0.032702180756597345,-0.002129301687433,-0.5860502863080028,0.2525102863080029,9.618510572616007
5075000000.0,22.35,0.017850301434051453,0.022907339450984412,0.0005855900584764051,-0.656780190030502,0.27320859857578594,9.676584394303145
5080000000.0,22.35,0.01524857101590349,0.007881047964491078,0.0019589682611225135,-0.71652299203743,0.3982874800935748,9.987368450897485
5085000000.0,22.35,0.012254099053504742,-0.025619714372746183,0.003012972606941975,-0.5712344233695443,0.35669080983980805,9.96401601229976
5090000000.0,22.35,0.0003618417999285556,-0.06340016965780516,-0.00029814515529756353,-0.45106271246142715,0.39161579320285794,9.94734
5095000000.0,22.35,-0.011615458848294543,-0.10137574221008352,0.0015224829274274466,-0.23298502589345027,0.3465866072501661,9.70895403107214
5100000000.0,22.35,-0.03855463512728352,-0.11547805063570743,0.0012775702616154726,-0.03727611783376117,0.23936281126342812,9.747217188736572
5105000000.0,22.35,-0.0447327887286146,-0.1222279155464219,0.002746820699557391,0.24024997391349975,0.1150700109395001,9.739760003366
5110000000.0,22.35,-0.06052473264381208,-0.11111273459084876,0.0007026372410796691,0.5107112799017128,0.072986201488762,9.792735194044953
5115000000.0,22.35,-0.04529016246871809,-0.10841934031757657,0.0,0.727609786407498,0.03090100323631003,9.938414588996546
5120000000.0,22.35,-0.03779124364157374,-0.07950843423842095,0.0016182908684580825,0.9315596884469969,-0.05493699449856994,10.014048497249284
5125000000.0,22.35,-0.025302748777619555,-0.04313980828854797,0.0005323038147691606,0.973642400453024,-0.14469839592278397,9.886025608607456
5130000000.0,22.35,-0.010267620415018282,0.0013799950518628493,0.0,0.949411501067715,-0.15225100071181,9.788613502491334
5135000000.0,22.35,0.005270184045766313,0.05039462233557204,0.0,0.841500403623004,-0.12566580077635803,9.763598600258785
5140000000.0,22.35,0.0241590535518599,0.10686641909238506,-0.002299678327921737,0.641964103718341,-0.040023701778337015,9.768013299838332
5145000000.0,22.35,0.03889863225350455,0.15155048201219423,-0.0009262136969192289,0.341973202194632,0.018050799741808,9.73593400032274
5150000000.0,22.35,0.05155890188607282,0.17267952684296806,-0.000745266446846312,-0.02256690127026903,0.09810100032571001,9.762912600195426
5155000000.0,22.35,0.0524582706625031,0.17536751991416694,-0.00473775058846259,-0.36071700427977005,0.16814400077814,9.80764600051876
5160000000.0,22.35,0.05692993469185056,0.16094009413741212,-0.004215984709142926,-0.6945515079383151,0.266440802721708,9.873177201814471
5165000000.0,22.35,0.05751537297370119,0.13091015546290596,-0.0010539716716846913,-0.9687400080982002,0.376410803563208,9.753688392873585
5170000000.0,22.35,0.0438016337556496,0.07853220255792573,-0.0014053609105156516,-1.1208917046315172,0.463817603368376,9.727792902947328
5175000000.0,22.35,0.026207689504827145,0.006973538801480349,-0.0007452337727115914,-1.119320396891004,0.547889404663494,9.680997394300174
5180000000.0,22.35,-0.0015697496659219656,-0.060470020003928565,0.0,-0.9543144858484449,0.5976255018458551,9.687179504306995
5185000000.0,22.35,-0.021229607299014665,-0.12000787008054342,0.0013414819231329224,-0.7185799821898999,0.540235592163556,9.699539198575192
5190000000.0,22.35,-0.046042823136183096,-0.16281967273503523,0.003449490614771741,-0.4149594716666947,0.4273223902857239,9.75310300809523
5195000000.0,22.35,-0.06768297451026102,-0.1939672986979352,0.0036091554090938818,-0.04512196373431965,0.2629059818671598,9.808332602719927
5200000000.0,22.35,-0.07989430163544345,-0.20687738882068218,0.0012775481275242506,0.3610123431617234,0.15695949498119494,9.849240505018805
5205000000.0,22.35,-0.0841597765311665,-0.1951556905503464,0.000628154969977975,0.8133520539431205,0.027367979083279773,9.94410401431144
5210000000.0,22.35,-0.07920958566481329,-0.1505828798454109,0.0010646508437165,1.1526775299499752,-0.16284802395998024,9.93949098802001
5215000000.0,22.35,-0.06591532490197419,-0.08274058855232823,0.00045778886953276804,1.28363900647559,-0.28998441036094413,9.803229377982994
5220000000.0,22.35,-0.0329338894607215,-0.012354819052198422,-0.0005962154762866104,1.2772614930388149,-0.340211104176711,9.687570388862104
5225000000.0,22.35,-0.003406706470366304,0.06088225204103346,-0.0010646508437165,1.1315811657448116,-0.29380838361708383,9.825699247659394
5230000000.0,22.35,0.02209062522882676,0.13268482448095462,-0.0033643407656860774,0.8658274508192745,-0.20816748889467487,9.940472492067624
5235000000.0,22.35,0.048010726917853054,0.19227579637659872,-0.003630426270796857,0.48156812087108125,-0.11938658148046581,9.912710598316405
5240000000.0,22.35,0.06472323544680893,0.23116075817645934,-0.002682931172131176,-0.0003976925970769485,0.0027482249299822514,9.887694792877147
5245000000.0,22.35,0.07626226135569666,0.2374288737096351,-0.0031939525311496,-0.4804004882581049,0.14371802816748028,9.798815173710352
5250000000.0,22.35,0.08469217942234421,0.21092261919292676,-0.003726289020053481,-0.9074291809729917,0.26977612172446125,9.746235305924852
5255000000.0,22.35,0.08737499992401913,0.15570688679305716,-0.0032152233928525314,-1.2094770435134705,0.46313306009003063,9.7128799792793
5260000000.0,22.35,0.0786150480597726,0.07942418191723263,-0.0011072147012137238,-1.3522112173535121,0.6600179238610793,9.700521217353513
5265000000.0,22.35,0.05077817622761291,-0.005842375307259812,0.0,-1.3607443841358438,0.7760704294620043,9.750551604532616
5270000000.0,22.35,0.008675226986257292,-0.09394082613807818,0.000489750497315395,-1.125791096009211,0.8030456787291568,9.706797571638877
5275000000.0,22.35,-0.03025214812126662,-0.17044777696984698,0.002501962841971365,-0.7470281188019812,0.6714925532496255,9.625571590157817
5280000000.0,22.35,-0.06681791008497763,-0.22200347806934542,0.003790145873344948,-0.34452186700141874,0.4955994565196946,9.642838523018986
5285000000.0,22.35,-0.09635019580410992,-0.2479159397473954,0.002736141527525527,0.16471534070355343,0.3389339601782396,9.75555603982176
5290000000.0,22.35,-0.10411129988831654,-0.24430639435669346,0.0016821371817060911,0.6959272568584726,0.12321031193910312,9.860031513759514
5295000000.0,22.35,-0.10619465897773117,-0.20083603395958974,0.0019376868593761155,1.1248172740745728,-0.13930405698044057,9.892502202849021
5300000000.0,22.35,-0.10503722610123076,-0.12676591593108746,0.002768081021216894,1.3302374412459743,-0.3335420589228206,9.815883838131038
5305000000.0,22.35,-0.07736002749542799,-0.05058080059193446,0.0004684016392908234,1.41264,-0.44743399695673997,9.71906202130282
5310000000.0,22.35,-0.040761557979875206,0.028021165943442027,-0.002938458715709883,1.3455377434731774,-0.4041709685962097,9.824324353386443
5315000000.0,22.35,-0.008223149023287829,0.11174793347186984,-0.0034707393423834606,1.1271659028750591,-0.346979803237498,9.931349803237499
5320000000.0,22.35,0.03358189012301811,0.17943022690525717,-0.002129301687433,0.7616431299345313,-0.2931210433115104,9.958720220007702
5325000000.0,22.35,0.06471883480587755,0.22333254454699253,-0.001756662666985942,0.28350424214014247,-0.14175315538743155,9.948319551955695
5330000000.0,22.35,0.08818434772708256,0.23432015850993188,-0.001788635888816407,-0.1732496729138967,-0.01883395765373958,9.829030468240305
5335000000.0,22.35,0.10118357726087311,0.22131479819571567,-0.0031939525311496,-0.6232335486649355,0.1300828797714288,9.751335578244156
5340000000.0,22.35,0.1033234917180643,0.1854022388031594,-0.0031939525311496,-0.9837498079696981,0.31863025212330254,9.70248208883072
5345000000.0,22.35,0.10002296142947843,0.11992850241290501,-0.002863899502290997,-1.2136944458425445,0.579286210111662,9.688552407640424
5350000000.0,22.35,0.08308955117941623,0.03312890324544861,-0.0014904886255100993,-1.2978631039173312,0.9780579352559794,9.796269325354594
5355000000.0,22.35,0.04465435967776439,-0.05069511170020729,0.0,-1.2079998635086988,0.9886499277398992,9.9761799437977
5360000000.0,22.35,-0.007500514900741589,-0.12288584306355003,0.0005962270703344144,-0.8750483560950836,0.7671383560950836,9.779781451983514
5365000000.0,22.35,-0.0528446931051256,-0.18051491362860103,0.0024167687247031128,-0.5404294611132947,0.4696027200349272,9.536105216834752
5370000000.0,22.35,-0.09210684758706114,-0.21243503674170558,0.003470773070522564,-0.19187901054449008,0.2697723923548239,9.587706338752264
5375000000.0,22.35,-0.10706279147143512,-0.2258281519155462,0.004524777416341968,0.24280240693752406,0.08583739559707394,9.692281670446818
5380000000.0,22.35,-0.10302542350508388,-0.21509180610911527,0.004812199131425234,0.7110342340023423,0.033744414499144136,9.875926126001263
5385000000.0,22.35,-0.09834722863735883,-0.16786375783338106,0.003438833576831199,1.143848091943281,-0.16432011492910115,10.039551908056719
5390000000.0,22.35,-0.07174965107178385,-0.10528749658215028,0.0028531960881592105,1.3013949140828491,-0.34668508591715086,9.869055257751452
5395000000.0,22.35,-0.0535082322968997,-0.02392133890634948,-0.002800065837095111,1.3119887712515876,-0.33815143353981436,9.802250204791402
5400000000.0,22.35,-0.01662220826171615,0.05517773880888837,-0.004897371114602211,1.2164373777869737,-0.3668926364492264,9.825696839108168
5405000000.0,22.35,0.011246302672896284,0.13383981585142105,-0.002587067368870241,0.9549998255025983,-0.2536859700861597,9.87356796011488
5410000000.0,22.35,0.03770957706950585,0.18714601827135385,-0.0005749456685879932,0.5921265560275657,-0.1883509491724095,9.80823409491724
5415000000.0,22.35,0.06663195532937281,0.21148740778448802,-0.00337495458944847,0.1276231565457316,-0.08289292230182924,9.786847558560977
5420000000.0,22.35,0.08279721768313024,0.21671455788681893,-0.004088247814464351,-0.314708800525888,0.06749469498594696,9.72171
5425000000.0,22.35,0.09911820093701403,0.19665107074091043,-0.0030342434686449577,-0.680817793468178,0.23347926448939266,9.727596421496465
5430000000.0,22.35,0.10381310519481468,0.15584016804433362,-0.0022783642520405197,-1.0070966039534661,0.38023918602199186,9.76919103282741
5435000000.0,22.35,0.09083262760784952,0.09603596263749542,-0.0026402882643080505,-1.1852456779569567,0.6938635169354352,9.828737838978478
5440000000.0,22.35,0.06523147922791596,0.023945800895800125,0.0009368812749032374,-1.2870704150179042,0.8601396376797964,9.894366528327366
5445000000.0,22.35,0.016495961003474665,-0.050339369872675774,0.00035136921274843386,-1.1252038271222382,0.7479127077985271,9.886807329158174
5450000000.0,22.381003345210036,-0.01810301492425689,-0.11867602858224133,0.0028745228120925317,-0.8358090359280904,0.5993900472626005,9.489214376176243
5455000000.0,22.66,-0.05780302235372313,-0.17466694903996793,9.583007512189789e-05,-0.5497477378994774,0.5110999404316994,9.60663901787049
5460000000.0,22.66,-0.072816030378955,-0.2187604624307208,0.0012350179981660608,-0.11928450941044508,0.40613187892101876,9.648333215025032
5465000000.0,22.66,-0.09075138301765262,-0.23356281389899042,0.002821267134511319,0.3544415629130156,0.20433900931689009,9.828051673812817
5470000000.0,22.66,-0.10753565780401986,-0.20483042759422673,-0.0020015205245719333,0.9068389499564895,-0.09202024370830243,9.938118706248188
5475000000.0,22.66,-0.10568211935137076,-0.13896753102825857,0.0,1.1310936380718366,-0.30901606345306065,9.938999692129798
5480000000.0,22.66,-0.0878636241744941,-0.06438026761630722,0.0,1.1889725322121252,-0.40181749355757496,9.784495064424252
5485000000.0,22.66,-0.04792146083622174,0.0031744702111488974,-3.195108773916864e-05,1.2322327149859273,-0.3909279673022797,9.87660915422319
5490000000.0,22.66,-0.012093713994081687,0.07268844545096861,-0.0010859554335585471,1.1030334141734341,-0.34177954690669543,9.810392613273327
5495000000.0,22.66,0.02167302001579695,0.13790701416237394,-0.002150617871322852,0.8297253171811533,-0.2638879326621793,9.829718206733782
5500000000.0,22.66,0.05752627262270764,0.18535424500901135,-0.004258580186770492,0.42182540627125403,-0.1667682907055829,9.839429465845495
5505000000.0,22.66,0.0775696339530442,0.21066762806844502,-0.002150571495131636,0.004213702095137051,-0.011377889151678894,9.790869965359901
5510000000.0,22.66,0.09029230477250852,0.20779293177760433,-0.003172671129403159,-0.37494237398042374,0.0863290702513907,9.751924371899443
5515000000.0,22.66,0.09777674220197667,0.18086136114213858,-0.005259398419295576,-0.772738092012581,0.29763775668967757,9.789203228489033
5520000000.0,22.66,0.0918677788224264,0.1299154557774448,-0.004301177772406786,-1.029660387703804,0.38886936497439367,9.81863312165813
5525000000.0,22.66,0.08756661264406733,0.06609752593341335,-0.001224313530029916,-1.1889737170639372,0.8211019365588192,9.810490392683505
5530000000.0,22.66,0.06932322066937531,-0.012258671272520685,-6.386739333492518e-05,-1.1230479406910794,0.8897675370680753,9.929879596376997
5535000000.0,22.66,0.014672701642097136,-0.07649254744769286,0.0019802739049689065,-0.8993782197423822,0.8470929624463296,9.78243207231752
5540000000.0,22.66,-0.03246712878524582,-0.13976736571639303,0.00017032077825833653,-0.5760395413329955,0.60900200219582,9.454874233725143
5545000000.0,22.66,-0.07014100315085557,-0.18849364194692492,0.006781907696831653,-0.26368935344089356,0.472546299835363,9.51668207704972
5550000000.0,22.66,-0.10610594471057185,-0.20911158742235886,0.004577963529636344,0.13538252768782524,0.2050258737393587,9.657946617031367
5555000000.0,22.66,-0.11257150295557149,-0.20523773433813863,0.00046839953128214283,0.5345513238676133,0.01942185781421857,9.873473181681831
5560000000.0,22.66,-0.10823828028903869,-0.17172811974669727,0.0009369044629988454,0.9241063198531632,-0.18992397591923976,10.079581067922911
5565000000.0,22.66,-0.0825753987708979,-0.1218378928150204,0.0038434247390217585,1.1162817375886174,-0.3438421214017212,10.001882302878624
5570000000.0,22.66,-0.06234050587884777,-0.0600853962110828,-0.0021506768955662893,1.2054536655245367,-0.36297,9.851592668950927
5575000000.0,22.66,-0.02706177944679542,0.009539012334070063,-0.00047905762322707256,1.2247786082876861,-0.3296155668492557,9.812942783424628
5580000000.0,22.66,0.002850789519777519,0.08198311576754679,0.0,1.0614398323038983,-0.30724898323038985,9.727594916151949
5585000000.0,22.66,0.03220985759018262,0.15297662920159516,-0.0017673439470264755,0.7450657031326571,-0.2145435066988351,9.760754450891543
5590000000.0,22.66,0.05999320708166159,0.2052959429030922,-0.0038753526386653145,0.30861749678497497,-0.10771260563052605,9.810981542895215
5595000000.0,22.66,0.0805155670109818,0.22534205670530216,-0.003396224397147105,-0.17168043380810433,0.015010712790107114,9.891325878085459
5600000000.0,22.66,0.09352883380920751,0.21688842183027643,-0.004045685010971473,-0.6180348947976488,0.18835406669234067,9.876707564906875
5605000000.0,22.66,0.09418876384819892,0.1787775930990377,-0.00509968935679093,-0.9620702927232029,0.32638011531520117,9.8533599822592
5610000000.0,22.66,0.08875899722044939,0.11536479615815184,-0.002831935766499654,-1.190740088317901,0.5061981793503818,9.719157547552175
5615000000.0,22.66,0.07258401608268561,0.0377983937824319,0.0003300772709585258,-1.2964904725171047,0.8515123625855237,9.674916190935363
5620000000.0,22.66,0.051989630818230076,-0.05450422073593704,0.0010646508437165,-1.1728815259266154,0.94176,9.7770399282646
5625000000.0,22.66,0.0013388639318468037,-0.1281035511876059,0.0002661508533802346,-0.8264880203860803,0.8755415166701151,9.721708688893488
5630000000.0,22.66,-0.04853184589768586,-0.18429828709205515,0.0015757069848782877,-0.43555962576019625,0.6066466818961668,9.612425397084055
5635000000.0,22.66,-0.08560336960049952,-0.21835461183700952,0.005238129665601236,-0.061406440781664406,0.29076489750034895,9.634499866171799
5640000000.0,22.66,-0.11551598494326383,-0.22122878893567666,0.002555102579074552,0.33589900110979,0.10006035674650356,9.730736405052564
5645000000.0,22.66,-0.11374242905747702,-0.198262262855542,0.001820564842464279,0.7716596437781964,-0.1222354508311545,9.92811503153645
5650000000.0,22.66,-0.10226395756436266,-0.14338154988389346,0.002129301687433,1.0398621948894218,-0.29920664616706644,9.982655780511058
5655000000.0,22.66,-0.07554497328142248,-0.07432561790878656,0.0035985436933401414,1.1867171279406712,-0.3771950492079505,9.868465842534558
5660000000.0,22.66,-0.04035160644532066,-0.0007650027646156077,-8.524365547245543e-05,1.1862245403677454,-0.37238727018387274,9.846493639754836
5665000000.0,22.66,-0.0073514919563302215,0.07624943218758692,-0.002129301687433,1.042506609319266,-0.3301059498208595,9.799894709677547
5670000000.0,22.66,0.02147519114097106,0.14515697104635478,-0.0014266201781708283,0.7608598554797985,-0.249172898670529,9.809608260797683
5675000000.0,22.66,0.04751251286931331,0.19563968252083663,-0.002448720866446665,0.36051253964702545,-0.1648071181594712,9.874256271610463
5680000000.0,22.66,0.06872639454443973,0.22251781513596938,-0.0038753410446175285,-0.07652296472332967,-0.055719365746593655,9.88573297934563
5685000000.0,22.66,0.08368501644651133,0.21628446367262294,-0.0042586033748661,-0.5197388795179889,0.10761779806177799,9.841587537454176
5690000000.0,22.66,0.09303904852974869,0.1777476066094279,-0.0042586033748661,-0.8934985577283856,0.23740310521423102,9.777233826350038
5695000000.0,22.66,0.09392258875271868,0.11583531346062495,-0.0036091543550895357,-1.1219715805152157,0.3764115805152158,9.709250525670205
5700000000.0,22.66,0.08628895806210413,0.03600515659444692,-0.0012775449655112131,-1.18701,0.8063888643709887,9.658925557137357
5705000000.0,22.66,0.06694443262841972,-0.05173134809001268,0.0012563120479646415,-1.0365217188677172,0.997577902684979,9.840022367634525
5710000000.0,22.66,0.02000809304901839,-0.12301915958077521,0.0008942826352626016,-0.7498728508832285,0.8874111581713117,9.840212138162421
5715000000.0,22.66,-0.048898162758164054,-0.1760093301843167,0.0018205890845642899,-0.3496230716631308,0.6716874807964749,9.640677401873674
5720000000.0,22.66,-0.08752420583321764,-0.21377664198334706,0.0031939525311496,0.045129888644798916,0.3680675335634754,9.570243711104137
5725000000.0,22.66,-0.10908254369665457,-0.21342469201420405,0.0020228124663618755,0.4174200592515006,0.15548705438367055,9.67168100162261
5730000000.0,22.66,-0.11790527192150803,-0.18053988909095567,0.0022144979127099802,0.83679800842688,-0.08201538414475386,9.883577782459378
5735000000.0,22.66,-0.10156410819933519,-0.13029617977148966,0.0026296754945499554,1.0970535253504354,-0.3030323481414235,9.918398829067588
5740000000.0,22.66,-0.08001962544764789,-0.06348655134423227,-0.0011924815447818715,1.1783778689556788,-0.38337524597045247,9.844138688507387
5745000000.0,22.66,-0.051831503505230844,0.009794227719574822,-0.0026296512524500034,1.1766107304616074,-0.38219715364107154,9.874452481128124
5750000000.0,22.66,-0.01597807698760315,0.08096662438672686,-0.0005323133008082731,1.0300473195155733,-0.3482546649394467,9.878669329878893
5755000000.0,22.66,0.01726689430496897,0.1427401030551767,-0.0005216910450111053,0.7440845875610459,-0.2710488468083885,9.87327505891985
5760000000.0,22.66,0.04785029909349967,0.1888548362253312,-0.0020867399379445157,0.3570789653509897,-0.16833870495128705,9.879454352475642
5765000000.0,22.66,0.07593171363594592,0.21279692280981663,-0.0016927583834989662,-0.09839978693219786,-0.049146196370461956,9.854439188021791
5770000000.0,22.66,0.09291129160898752,0.21045442344733725,-0.0009795031026394814,-0.5201303467871035,0.10241796905457969,9.804112879246729
5775000000.0,22.66,0.09789379676261029,0.1803512925339337,-0.0026084067408556643,-0.8529829773458298,0.24721379475913793,9.733481551310215
5780000000.0,22.66,0.09531721989899399,0.12246336399619508,-0.0031939525311496,-1.0979372208521723,0.40260419631304195,9.68600092638261
5785000000.0,22.66,0.08642737307481024,0.047821081902967195,-0.0022783284158928046,-1.2094752371000523,0.7309495049009951,9.665695237100053
5790000000.0,22.66,0.07067368554325122,-0.03651924792254954,-0.0001703197242539908,-1.127362500868725,1.0249481252171813,9.822560623769306
5795000000.0,22.66,0.030692464553413696,-0.11593339290197216,0.00237420802921894,-0.8540547729286477,0.9465656618298566,9.931543536220635
5800000000.0,22.66,-0.0328059670612781,-0.173001027801516,0.0034068582469920367,-0.4806849303881493,0.729859606336396,9.723669521523096
5805000000.0,22.66,-0.08198817046137162,-0.20751640214343084,0.00171407562139311,-0.08573556632455567,0.3702255663245557,9.58270196173452
5810000000.0,22.66,-0.10786586744755695,-0.2128178859022507,0.00025549170743096314,0.27802025264800256,0.12949087147720872,9.602029128522792
5815000000.0,22.66,-0.12018354974519231,-0.1864759583693824,-0.000670717773470853,0.6883723309253234,-0.03296476258314762,9.76085494963375
5820000000.0,22.66,-0.10503791894493994,-0.1411189441544998,0.0007665731446970507,0.994735695697757,-0.2413271304651713,9.917124860860449
5825000000.0,22.66,-0.08697473455117259,-0.07914293855100071,0.0006387413896273848,1.1060780657181808,-0.3281452920054529,9.887989160569091
5830000000.0,22.66,-0.05830748015121994,-0.011588150131335944,-0.0014053145343244353,1.1179469205554693,-0.37278,9.888873079444531
5835000000.0,22.66,-0.01858942021912382,0.06293523932135169,-0.0003513470786571607,1.0046394932288951,-0.3501181066348811,9.90505810663488
5840000000.0,22.66,0.015592405998242893,0.1349090066892666,-0.0017460520052366103,0.737315402905254,-0.27271686565006864,9.86846794030498
5845000000.0,22.66,0.04340769392940885,0.1805048651485795,-0.0025338443654237333,0.3627690316512903,-0.17559786467887864,9.879356359403664
5850000000.0,22.66,0.06593695412515474,0.19942486031877943,-0.0013840584286822961,-0.05101699968616999,-0.06082018193230183,9.832561977336919
5855000000.0,22.66,0.07995283336504097,0.19807811647765564,-0.0018205406003643254,-0.45273548042225475,0.08034515098985151,9.745154876462848
5860000000.0,22.66,0.09352882748518143,0.17525568296878402,-0.0010646508437165,-0.7706766732336667,0.19816370735203706,9.679723086176532
5865000000.0,22.66,0.10033178575680787,0.12454063047396433,-0.0007771827524420685,-1.0064098366499985,0.35443746449117464,9.680606441761764
5870000000.0,22.66,0.0927406272253125,0.049441357530723554,0.0,-1.123048571964586,0.6358906990093071,9.712292856070828
5875000000.0,22.66,0.06578526511994752,-0.03622525025707392,0.00079852528644059,-1.037404190670042,1.0177860165072603,9.849245021052349
5880000000.0,22.66,0.021646572800521582,-0.11074250891205714,0.0024273667384003754,-0.7557590878535909,0.872695201549152,10.036408175707182
5885000000.0,22.66,-0.020922629535462787,-0.16083258785398352,0.0009795283987438042,-0.4538062562555626,0.6777709567459096,9.597220757072808
5890000000.0,22.66,-0.07881534104125021,-0.1894251576140001,0.0042586033748661,-0.07612079494030795,0.47381899578359,9.58103494321855
5895000000.0,22.66,-0.09188247121103815,-0.2136165197511389,0.0031406578554075675,0.3255983656287837,0.18952828397358285,9.630772788542927
5900000000.0,22.66,-0.11420045824000062,-0.1981396885778218,-0.0006387656317273386,0.7122109278181094,0.06081810358568103,9.76683806280758
5905000000.0,22.66,-0.11445228474235215,-0.14723590165875597,0.0008623547356190408,1.073902191068022,-0.2376982498581825,9.896915911814759
5910000000.0,22.66,-0.08894725207271824,-0.08012822820661385,0.0,1.1772,-0.37278,9.847474085205342
5915000000.0,22.66,-0.06185585221825232,-0.006523416655886483,0.0,1.1605218510822186,-0.3694443702164437,9.867782853160229
5920000000.0,22.66,-0.03042066435769116,0.05978940872363247,-0.000340713228812189,1.0508451301998514,-0.35159028501110284,9.993642280088824
5925000000.0,22.66,0.004314791344373723,0.11958279372185643,-0.002129301687433,0.8465986267313863,-0.32716223405382233,9.92772
5930000000.0,22.66,0.03368456915293667,0.1749020014605672,-0.0019802380688211485,0.4720523623083236,-0.22033133298551333,9.911237817802379
5935000000.0,22.66,0.06654615163473873,0.2112875157220733,-0.0013414850851459726,0.05650006654780068,-0.10967418607644186,9.799796677757968
5940000000.0,22.66,0.08530971213652502,0.22592848233004342,-0.0033217231539672083,-0.4037845612270456,0.025115099905850997,9.72798805386788
5945000000.0,22.66,0.09456150299905884,0.2054143660970083,-0.0040243551250251156,-0.809524895183749,0.15676587854085877,9.704248430948985
5950000000.0,22.66,0.09949054799825728,0.15381852941051646,-0.002448734568503116,-1.107551195860612,0.33256119586061195,9.72072888442839
5955000000.0,22.66,0.08387228314378777,0.0823973226113843,-0.004939929702077707,-1.2779490470061905,0.5382796737553968,9.716315078343651
5960000000.0,22.66,0.07883481174992435,-0.007244883062568897,-0.0008090969500291335,-1.289031684683017,0.9260645788292458,9.775078483785284
5965000000.0,22.66,0.05000644400810321,-0.09554418039993402,0.0020547635541009993,-1.0796837337553373,0.9643218413703184,9.929288209644383
5970000000.0,22.66,-0.01032977430830455,-0.16523865455784692,0.0010646508437165,-0.6694290658359906,0.8571946690776467,9.804503385037734
5975000000.0,22.66,-0.057207958005691,-0.21821698537506298,0.0013308765314052977,-0.22464412559734126,0.5925202861694029,9.563278151828381
5980000000.0,22.66,-0.09284839132511555,-0.23465998894962886,0.006174911864096012,0.18561077540760776,0.28684219306782194,9.536890064617301
5985000000.0,22.66,-0.12244075591399486,-0.21487182842152389,0.0010646508437165,0.6494266500577666,0.09848867995378681,9.583981320046213
5990000000.0,22.66,-0.12009838514004577,-0.1691911232171291,0.0010646508437165,1.0327984288798842,-0.2091510615770106,9.888872632697126
5995000000.0,22.66,-0.10627890329885376,-0.10692749797035368,0.001032673405868686,1.1677828657827285,-0.36346108222841084,9.908492865782728
6000000000.0,22.66,-0.08096534295934496,-0.04047331222345993,-0.002129301687433,1.206629184200392,-0.4120198834571988,9.947341165428012
6005000000.0,22.66,-0.04087862029867203,0.03228754515761505,-0.002129301687433,1.1386458835205588,-0.40230798336007983,10.044460166399201
6010000000.0,22.66,-0.0018523725683336836,0.10819561846097359,0.0010008098004902202,0.9456816652592167,-0.35414041631480414,9.910845165681451
6015000000.0,22.66,0.02683582700597905,0.16759525376842926,-0.0020335211505153553,0.6182222276386222,-0.24848601482426014,9.870036732663367
6020000000.0,22.66,0.056333300603051015,0.1959749742795903,-0.0031513791876132593,0.2220936058176361,-0.15107283068722832,9.746429679893396
6025000000.0,22.66,0.07777125302749766,0.20820832016031354,-0.0031939525311496,-0.19473353222103537,-0.02599497863084979,9.732010382971604
6030000000.0,22.66,0.09284750537398725,0.19176399553816972,-0.0031939525311496,-0.5846806850206068,0.10948123975721241,9.703855448623454
6035000000.0,22.66,0.10563952197307959,0.1540258827696953,-0.0012136765181719085,-0.8910459339016594,0.28194151000741513,9.74770708611317
6040000000.0,22.66,0.1016213827609295,0.09050709826197065,-8.515933512482244e-05,-1.1018616637148166,0.4206544424765445,9.814317221238273
6045000000.0,22.66,0.09053689491299063,0.0096068684254247,-0.0009688450106945559,-1.1361944348337445,0.9583458275954582,9.793028347749384
6050000000.0,22.66,0.05880497016788922,-0.0736155053405899,-0.00010645233091906563,-0.9172320621502206,0.9486261774020618,10.072911760447719
6055000000.0,22.66,0.012725842508607157,-0.1351244549573301,0.00379020805960134,-0.6133174364444743,0.9068359295555593,9.720135225111152
6060000000.0,22.66,-0.05535083194687266,-0.17168216432783906,0.0042586033748661,-0.2248403739626037,0.6694312218778122,9.508634563543644
6065000000.0,22.66,-0.07874928608781369,-0.2007962870582974,0.007037380432184397,0.09653416977114174,0.33893137681281377,9.52894408902674
6070000000.0,22.66,-0.11943655993212551,-0.19353277474537633,-0.0007879567848650048,0.4494985623912856,0.1677492314629923,9.62812389692714
6075000000.0,22.66,-0.12026881658876037,-0.16548302143947408,-0.0003193696408093467,0.8672091919817919,-0.19473333798303338,9.86003406798924
6080000000.0,22.66,-0.1005153366567963,-0.10268945276018632,0.0017886390508294102,1.0061146628703466,-0.2962625904835259,9.955973626676936
6085000000.0,22.66,-0.07482927452475047,-0.02794441512669163,-0.0014053904226373343,1.0690945091629454,-0.3529645091629451,9.96696
6090000000.0,22.66,-0.04147767488253349,0.0418702364339439,-0.002129301687433,0.990612498799625,-0.36297,9.975004318290944
6095000000.0,22.66,-0.014439672996235515,0.10869031636829443,-0.000404541623986319,0.796373195462632,-0.3391313448358135,9.881415379343254
6100000000.0,22.66,0.021946246002939217,0.15979594406558034,0.0,0.4728377345334773,-0.2629069336333693,9.811961289088913
6105000000.0,22.66,0.05086864112687568,0.19210734218820055,-0.0033643481437164685,0.08445923812569239,-0.1367497398477974,9.722689814176999
6110000000.0,22.66,0.0755751474560647,0.19481185404747617,-0.00259772229880207,-0.32138058453560586,-0.023738894526388943,9.725045756038257
6115000000.0,22.66,0.08670438228096111,0.17254308902146348,-0.0029490957275679314,-0.6612960196257602,0.08309200654192007,9.754181456329613
6120000000.0,22.66,0.09246411761722152,0.12651130379892245,-0.0031939525311496,-0.9295986907150868,0.2495686585994866,9.798228594368286
6125000000.0,22.66,0.0921446320359341,0.0668497114695422,-0.0023954514868089138,-1.064386189707762,0.38259142764931425,9.81
6130000000.0,22.66,0.08609735061207766,-0.0008989999267454765,-0.0013414471409895104,-1.0743909618642098,0.8548506631416065,9.766442885592628
6135000000.0,22.66,0.06704845834759583,-0.0736112141087654,0.0020441813504690452,-0.8616088442145885,0.9603000658449007,9.923014059960341
6140000000.0,22.66,0.01776742467492816,-0.13056172172137567,0.000894267879201788,-0.5729004221360042,0.9135067229514673,9.781743741398138
6145000000.0,22.66,-0.04885052673801585,-0.16303413452414608,0.0030236602110085714,-0.17009990947439912,0.6726677611446776,9.54885517409645
6150000000.0,22.66,-0.07819265160216807,-0.18162788307259167,0.0035133348200110963,0.14617222532202226,0.3384408190270082,9.500004238912743
6155000000.0,22.66,-0.1092235339357164,-0.17760315272201938,0.0017247084172337668,0.4287005866047059,0.15421176535811765,9.580349215088392
6160000000.0,22.66,-0.11709615599940064,-0.15987540320697294,0.0010646508437165,0.7800958663737587,-0.11576218777132187,9.847282187771322
6165000000.0,22.66,-0.10505380351613931,-0.11842047612269099,0.0003513217825528611,0.9879666567204665,-0.2782125579818256,10.009732557981826
6170000000.0,22.66,-0.07903754290263526,-0.05971288002533896,0.0,1.0818477587587776,-0.3494330389139304,9.977357521396375
6175000000.0,22.66,-0.04324791737606859,0.00458404209365007,0.0,1.0894001401741016,-0.3855332398839324,9.97922309970983
6180000000.0,22.66,-0.011418988274052681,0.06383436294673836,-0.0006813895674722743,0.9598081192573813,-0.3421718396873184,9.858262559140126
6185000000.0,22.66,0.016385664753263897,0.11636643965880095,-0.00039390777414134725,0.7320190764586908,-0.2582962187741622,9.749667899318979
6190000000.0,22.66,0.041826766789302125,0.15972568598471534,-0.0006600965716780312,0.41868647160036476,-0.15872447743344478,9.73152
6195000000.0,22.66,0.06673559557669721,0.18835655639655294,-0.0017141009174974097,0.027168525790985276,-0.045909356034693566,9.767425321982653
6200000000.0,22.66,0.08373405995987267,0.19451689264189576,-0.0034069088392006362,-0.36689869667488695,0.08829180641341806,9.813924481710245
6205000000.0,22.66,0.09344363652992621,0.16515731337938294,-0.0030022892188927078,-0.7225107183638072,0.22818228734552287,9.85277208209872
6210000000.0,22.66,0.0932305231752276,0.11196110389831196,-0.002129301687433,-0.9656985711923858,0.3527690474615905,9.829030555647407
6215000000.0,22.66,0.08326531260715643,0.05274257919432394,-0.0015224376052405766,-1.0790027450324275,0.670617394508074,9.749863613529737
6220000000.0,22.66,0.0676263984770878,-0.015727046275811413,-0.00046843325942119804,-1.0206304669434048,0.8675962791839629,9.799799533056595
6225000000.0,22.66,0.027429745029251898,-0.08123445419991496,0.0005855710863981804,-0.8112838562579385,0.8524887581736876,9.793321307215813
6230000000.0,22.66,-0.027700428567845714,-0.1363552028037585,0.0004897262552154411,-0.5057992436300924,0.6900318907020189,9.604379495753394
6235000000.0,22.66,-0.06235980355802159,-0.17665858086120992,0.001692834271811865,-0.17176910345599103,0.4447827356373274,9.553273632181336
6240000000.0,22.66,-0.09020813912157916,-0.18790906281684627,0.002640320938442732,0.15892624215796247,0.22091829109168293,9.644800569636105
6245000000.0,22.66,-0.10378975132678547,-0.1766662050448423,0.0010433314978136115,0.5088491881603919,0.0028423526657235104,9.77252798342938
6250000000.0,22.66,-0.10066187778382722,-0.1422175080891271,0.0005323385969125727,0.7995177921712779,-0.18639218517752182,9.952247306576272
6255000000.0,22.66,-0.08449149053264404,-0.08688489293133218,2.126664568559769e-05,0.9459791504710915,-0.2987151074793511,9.949299570082596
6260000000.0,22.66,-0.05381234631336518,-0.021174121434631488,-0.0005536052425981704,0.981,-0.3143121568140216,9.877493529557935
6265000000.0,22.66,-0.023888959046186625,0.04559102220356902,0.0,0.9256701397187014,-0.30411,9.834326852958268
6270000000.0,22.66,0.004884433591390007,0.10030852004501095,-0.000979505210648173,0.7414365117448651,-0.2544700603405006,9.769190887148909
6275000000.0,22.66,0.0291359581065217,0.14018608877878605,-0.00260840779486001,0.4483128559322286,-0.16529764680957648,9.794794621884346
6280000000.0,22.66,0.052917278116568475,0.16175167585948969,-0.0027254929216197123,0.10515868668578685,-0.08436478018534779,9.826089131888791
6285000000.0,22.66,0.07200233447966861,0.1678617399507004,-0.002129301687433,-0.2415263506718635,0.02119106494301064,9.846394733764248
6290000000.0,22.66,0.08392567267992093,0.15337807599236208,-0.002129301687433,-0.5470090209196902,0.15421515481125153,9.82962
6295000000.0,22.66,0.08730043017055672,0.11063657715561234,-0.002129301687433,-0.7827422231836222,0.2975388895466889,9.805486666363066
6300000000.0,22.66,0.07861643796320829,0.05241846133305171,-0.0017034280694916426,-0.9005582447398824,0.5336690171675902,9.73936702104047
6305000000.0,22.66,0.06905618091019876,-0.008531605140246614,-0.0006494237236722641,-0.8434615955929159,0.809424202203542,9.738192269604722
6310000000.0,22.66,0.043224388094070185,-0.06509230417440398,0.0,-0.6537357035880571,0.8856475353850753,9.824911690256718
6315000000.0,22.66,-0.012687021904347312,-0.11372803880525853,0.0003939341242499927,-0.40014585217715853,0.7842067388706674,9.736715497499755
6320000000.0,22.66,-0.05266046076540938,-0.15706605661971018,0.0018312260964222784,-0.1043752082811521,0.45047176276431766,9.569852059308921
6325000000.0,22.66,-0.08511318006717716,-0.17348298965596354,0.0028213114026938153,0.18247042279930423,0.2163084114558841,9.644702605699825
6330000000.0,22.66,-0.10322834543258137,-0.16073306453035516,0.0010433177957571158,0.5354343492482435,0.004508788467687888,9.772135982005759
6335000000.0,22.66,-0.09197428701557578,-0.13049480749521594,-0.0007133027110549934,0.8203139226968392,-0.21238711524887116,9.940474230497742
6340000000.0,22.66,-0.08134315218212598,-0.0763972261456523,-0.000340701634764385,0.9405839083220391,-0.27036458517514583,9.971667445384176
6345000000.0,22.66,-0.053197811222101384,-0.01515571717259405,-0.0020548162543183213,0.9823726605359266,-0.30852388377993883,9.90133122324401
6350000000.0,22.66,-0.024498784915148335,0.053580679683021076,-0.003300377457955644,0.8887837798596379,-0.27468,9.872782519906425
6355000000.0,22.66,0.005594813513836578,0.11482188088681039,-0.0010646508437165,0.6769842734142428,-0.24907478905574787,9.79891507031475
6360000000.0,22.66,0.030168619918342604,0.15966230360616712,-0.0013627664868923989,0.35668690565596906,-0.15892076464630764,9.817063076464631
6365000000.0,22.66,0.04933700766201421,0.17605957811362768,-0.0015543633968754453,-0.02296059256450593,-0.056504116410141164,9.81
