#timestamp [ns], temperature [degC], w_RS_S_x [rad s^-1], w_RS_S_y [rad s^-1], w_RS_S_z [rad s^-1], a_RS_S_x [m s^-2], a_RS_S_y [m s^-2], a_RS_S_z [m s^-2]
0.0,21.78,0.0,0.0,0.0,0.75537,0.48069,9.83943
5000000.0,21.78,0.0,0.0,0.0,0.774793800194238,0.48069,9.820006199805762
10000000.0,21.78,0.0,0.0,0.0,0.746148599417286,0.49991760038847605,9.858265200776952
15000000.0,21.78,0.0,0.0,0.0,0.74556,0.49079429970864297,9.820987198834572
20000000.0,21.78,0.0,0.0,0.0,0.726724799223048,0.481082399611524,9.800974799223049
25000000.0,21.78,0.0,0.0,0.0,0.74457900097119,0.48069,9.81882900097119
30000000.0,21.78,0.0,0.0,0.0,0.754781400582714,0.48069,9.81981
35000000.0,21.78,0.0,0.0,0.0,0.746246699320167,0.489813300679833,9.8471799020395
40000000.0,21.78,0.0,0.0,0.0,0.754585200776952,0.472449598446096,9.840214799223048
45000000.0,21.78,0.0,0.0,0.0,0.746442899125929,0.479807100874071,9.812648697377787
50000000.0,21.78,0.0,0.0,0.0,0.7632180019423801,0.46303199805761996,9.80117099902881
55000000.0,21.78,0.0,0.0,0.0,0.747718197863382,0.46107,9.817651802136618
60000000.0,21.78,0.0,0.0,0.0,0.754192801165428,0.47833560233085604,9.845708403496284
65000000.0,21.78,0.0,0.0,0.0,0.729765896212359,0.46362059747490597,9.874844103787641
70000000.0,21.78,0.0,0.0,0.0,0.742813202719332,0.47794320271933205,9.79430398640334
75000000.0,21.78,0.0,0.0,0.0,0.74556,0.472351498543215,9.805585504370356
80000000.0,21.78,0.0,0.0,0.0,0.74556,0.454399196892192,9.81
85000000.0,21.78,0.0,0.0,0.0,0.737417698348977,0.4919715082551151,9.818142301651024
90000000.0,21.78,0.0,0.0,0.0,0.73575,0.47617739475557397,9.86003100874071
95000000.0,21.78,0.0,0.0,0.0,0.743696101845261,0.4947183055357831,9.829129490773695
100000000.0,21.78,0.0,0.0,0.0,0.74556,0.47676599417286,9.804113996115241
105000000.0,21.78,0.0,0.0,0.0,0.737810097960501,0.463130097960501,9.8079399020395
110000000.0,21.78,0.0,0.0,0.0,0.73575,0.47637360427323605,9.84825901068309
115000000.0,21.78,0.0,0.0,0.0,0.743303702233737,0.46558259553252596,9.851496297766262
120000000.0,21.78,0.0,0.0,0.0,0.753015602330856,0.46852560233085605,9.826873193007431
125000000.0,21.78,0.0,0.0,0.0,0.7332974927160749,0.4929525072839251,9.812452497572025
130000000.0,21.78,0.0,0.0,0.0,0.740458805050188,0.485791194949812,9.81
135000000.0,21.78,0.0,0.0,0.0,0.7598826052444261,0.47352869737778697,9.824322605244426
140000000.0,21.78,0.0,0.0,0.0,0.7581167972806679,0.49913281087732814,9.843746405438663
145000000.0,21.78,0.0,0.0,0.0,0.75537,0.4822595887341959,9.835309794367099
150000000.0,21.78,0.0,0.0,0.0,0.7622370029135701,0.47774700291357003,9.815885994172861
155000000.0,21.78,0.0,0.0,0.0,0.751642193978622,0.46715219397862195,9.823537806021378
160000000.0,21.78,0.0,0.0,0.0,0.74556,0.48108240932342405,9.836290803107808
165000000.0,21.78,0.0,0.0,0.0,0.7587054064098541,0.4773545935901459,9.832857296795073
170000000.0,21.78,0.0,0.0,0.0,0.758705396697954,0.47735460330204604,9.823145396697955
175000000.0,21.78,0.0,0.0,0.0,0.75537,0.487066503399165,9.81981
180000000.0,21.78,0.0,0.0,0.0,0.75537,0.47794319300743193,9.83236680699257
185000000.0,21.78,0.0,0.0,0.0,0.75537,0.47706030359340307,9.827069392813193
190000000.0,21.78,0.0,0.0,0.0,0.75537,0.46852559261895593,9.813727796309479
195000000.0,21.78,0.0,0.0,0.0,0.749385896212359,0.48500641515056414,9.81
200000000.0,21.78,0.0,0.0,0.0,0.73378799223048,0.49442399611523996,9.81588600388476
205000000.0,21.78,0.0,0.0,0.0,0.737515807963758,0.4789241920362419,9.831385807963759
210000000.0,21.78,0.0,0.0,0.0,0.7626294122369942,0.47088,9.828050391842003
215000000.0,21.78,0.0,0.0,0.0,0.7526231832955319,0.45969659164776594,9.825401704176118
220000000.0,21.78,0.0,0.0,0.0,0.73575,0.4622472085464721,9.818632791453528
225000000.0,21.78,0.0,0.0,0.0,0.74654100874071,0.47088,9.815395504370356
230000000.0,21.78,0.0,0.0,0.0,0.7500725955325259,0.4814748089349481,9.81981
235000000.0,21.78,0.0,0.0,0.0,0.740360695435407,0.48010139087081394,9.830208609129187
240000000.0,21.78,0.0,0.0,0.0,0.7408512046617121,0.48618361398513615,9.824126386014864
245000000.0,21.78,0.0,0.0,0.0,0.750563104758831,0.4853006857235069,9.81
250000000.0,21.78,0.0,0.0,0.0,0.75537,0.47088,9.81490500485595
255000000.0,21.78,0.0,0.0,0.0,0.750563095046931,0.46607309504693095,9.82461690495307
260000000.0,21.78,0.0,0.0,0.0,0.740851194949812,0.4704876101003761,9.834328805050188
265000000.0,21.78,0.0,0.0,0.0,0.7449714102946141,0.48069,9.825597884558078
270000000.0,21.78,0.0,0.0,0.0,0.7598826052444261,0.47617739475557397,9.823537815733278
275000000.0,21.78,0.0,0.0,0.0,0.7563509893169099,0.47088,9.83060098931691
280000000.0,21.78,0.0,0.0,0.0,0.74556,0.46656359456133595,9.824126405438664
285000000.0,21.78,0.0,0.0,0.0,0.7371233889284339,0.47372491660734917,9.82962
290000000.0,21.78,0.0,0.0,0.0,0.7341804112658041,0.4905,9.821379588734196
295000000.0,21.78,0.0,0.0,0.0,0.7375157885399579,0.4824557885399579,9.81
300000000.0,21.78,0.0,0.0,0.0,0.7337880116542801,0.47088,9.82177201748142
305000000.0,21.78,0.0,0.0,0.0,0.74556,0.45940228222722285,9.83943
310000000.0,21.78,0.0,0.0,0.0,0.74556,0.4451778060213781,9.828246581935867
315000000.0,21.78,0.0,0.0,0.0,0.74556,0.46214911835549116,9.813629706118498
320000000.0,21.78,0.0,0.0,0.0,0.7420283937843839,0.47715839378438396,9.812746787568768
325000000.0,21.78,0.0,0.0,0.0,0.73575,0.47431350631273506,9.810490518938206
330000000.0,21.78,0.0,0.0,0.0,0.7457562192295623,0.4840254064098541,9.832955406409853
335000000.0,21.78,0.0,0.0,0.0,0.7554680804790809,0.49697461301394613,9.832955386986054
340000000.0,21.78,0.0,0.0,0.0,0.7388892066040921,0.5007023801877238,9.81981
345000000.0,21.78,0.0,0.0,0.0,0.74556,0.48373110670121106,9.81981
350000000.0,21.78,0.0,0.0,0.0,0.7514460135966602,0.48755699320166995,9.82569601359666
355000000.0,21.78,0.0,0.0,0.0,0.7566452793136529,0.48069,9.828050372418204
360000000.0,21.78,0.0,0.0,0.0,0.7439904209777043,0.48069,9.808430420977706
365000000.0,21.78,0.0,0.0,0.0,0.7651800000000001,0.48598741417937413,9.824322585820626
370000000.0,21.78,0.0,0.0,0.0,0.7651800000000001,0.4926581784395818,9.815101214373612
375000000.0,21.78,0.0,0.0,0.0,0.762727492716075,0.47578501456785016,9.832072507283925
380000000.0,21.78,0.0,0.0,0.0,0.7506611852379118,0.48579118523791187,9.841784407381045
385000000.0,21.78,0.0,0.0,0.0,0.7380063074781631,0.47764892243448925,9.844727385043674
390000000.0,21.78,0.0,0.0,0.0,0.74556,0.49383537727415383,9.820987169698872
395000000.0,21.78,0.0,0.0,0.0,0.7496802153448022,0.4750002153448022,9.800680538362005
400000000.0,21.78,0.0,0.0,0.0,0.7612559844609599,0.48657598446095984,9.83746799223048
405000000.0,21.78,0.0,0.0,0.0,0.7511517235999172,0.4727439078666391,9.835211723599917
410000000.0,21.78,0.0,0.0,0.0,0.7714583840724839,0.48069,9.857284192036241
415000000.0,21.78,0.0,0.0,0.0,0.7520345838782458,0.47735458387824586,9.840901459695615
420000000.0,21.78,0.0,0.0,0.0,0.7404588244739883,0.46263960815799604,9.797050783684009
425000000.0,21.78,0.0,0.0,0.0,0.7592939669795398,0.4723515082551151,9.784984524765346
430000000.0,21.78,0.0,0.0,0.0,0.7286868167044682,0.48069,9.812746816704468
435000000.0,21.78,0.0,0.0,0.0,0.7481106168987062,0.4819653084493531,9.833445925348059
440000000.0,21.78,0.0,0.0,0.0,0.7628255829070559,0.4893227914535279,9.855518374360583
445000000.0,21.78,0.0,0.0,0.0,0.7444808913564089,0.48176910864359107,9.827461782712819
450000000.0,21.78,0.0,0.0,0.0,0.73476899125929,0.4885379825185798,9.810981008740711
455000000.0,21.78,0.0,0.0,0.0,0.7294716353513164,0.47088,9.81981
460000000.0,21.78,0.0,0.0,0.0,0.7636103821301039,0.4724496178698962,9.820594808934949
465000000.0,21.78,0.0,0.0,0.0,0.7469334180641342,0.4898132909679329,9.830993418064134
470000000.0,21.78,0.0,0.0,0.0,0.764002781741628,0.4812786091291861,9.848062781741628
475000000.0,21.78,0.0,0.0,0.0,0.7460505092263051,0.4900094907736949,9.82863898154739
480000000.0,21.78,0.0,0.0,0.0,0.7538003627063036,0.4799051813531518,9.81
485000000.0,21.78,0.0,0.0,0.0,0.715835690579457,0.4613643094205431,9.810294309420543
490000000.0,21.78,0.0,0.0,0.0,0.7067124190353241,0.4712724190353242,9.819417580964677
495000000.0,21.78,0.0,0.0,0.0,0.7265286576886866,0.4903037807704378,9.800386219229562
500000000.0,21.78,0.0,0.0,0.0,0.7847999902881,0.4708799902880999,9.8198099902881
505000000.0,21.78,0.0,0.0,0.0,0.775088090190981,0.4611680901909809,9.810098090190982
510000000.0,21.78,0.0,0.0,0.0,0.7557623801877238,0.4706838099061381,9.848455239624553
515000000.0,21.78,0.0,0.0,0.0,0.7744014200065142,0.49942713000977135,9.830208579993487
520000000.0,21.78,0.0,0.0,0.0,0.765572389899624,0.47205716969887174,9.81078477979925
525000000.0,21.78,0.0,0.0,0.0,0.7558604898025049,0.4801995101974951,9.791360979605011
530000000.0,21.78,0.0,0.0,0.0,0.7461485897053859,0.4899114102946141,9.799601410294615
535000000.0,21.78,0.0,0.0,0.0,0.7546833103917331,0.4722533792165338,9.8275599311752
540000000.0,21.78,0.0,0.0,0.0,0.7643952104888522,0.4618547895111479,9.865720841955408
545000000.0,21.78,0.0,0.0,0.0,0.7651800000000001,0.46107,9.851005778828057
550000000.0,21.78,0.0,0.0,0.0,0.7563509893169099,0.4875570320492703,9.81392395726764
555000000.0,21.78,0.0,0.0,0.0,0.7466390892197909,0.4730381784395818,9.81
560000000.0,21.78,0.0,0.0,0.0,0.7541928108773281,0.47088,9.775468756490687
565000000.0,21.78,0.0,0.0,0.0,0.7468352890255529,0.48794942194889424,9.804898843897789
570000000.0,21.78,0.0,0.0,0.0,0.7624332221431322,0.48206338892843387,9.835309833214698
575000000.0,21.78,0.0,0.0,0.0,0.7485029776626297,0.48069,9.85610702233737
580000000.0,21.78,0.0,0.0,0.0,0.7538004112658041,0.48069,9.826088354936784
585000000.0,21.78,0.0,0.0,0.0,0.7390853772741538,0.48069,9.779098443185385
590000000.0,21.78,0.0,0.0,0.0,0.7277057885399579,0.4726457885399579,9.802936845840168
595000000.0,21.78,0.0,0.0,0.0,0.7418322231143223,0.4629338884428389,9.841784446228644
600000000.0,21.78,0.0,0.0,0.0,0.7377119883457199,0.4767660233085602,9.84139198834572
605000000.0,21.78,0.0,0.0,0.0,0.73575,0.4884399117513991,9.823930176497202
610000000.0,21.78,0.0,0.0,0.0,0.7434018118485182,0.4751963763029638,9.804506376302964
615000000.0,21.78,0.0,0.0,0.0,0.7606674238912743,0.4784337119456371,9.807743711945637
620000000.0,21.78,0.0,0.0,0.0,0.7353575518289756,0.48069,9.817455612042757
625000000.0,21.78,0.0,0.0,0.0,0.7480125364196254,0.46597497572024976,9.827167512139875
630000000.0,21.78,0.0,0.0,0.0,0.7481105877630059,0.48284823671098237,9.815101175526012
635000000.0,21.78,0.0,0.0,0.0,0.7312373753317738,0.4905,9.83148393700234
640000000.0,21.78,0.0,0.0,0.0,0.7541928497249286,0.49756321243123214,9.83943
645000000.0,21.78,0.0,0.0,0.0,0.7651800000000001,0.48637977494329776,9.84639511252835
650000000.0,21.78,0.0,0.0,0.0,0.7720470126254702,0.46695597474905975,9.82177194949812
655000000.0,21.78,0.0,0.0,0.0,0.7479143491096435,0.47460782544517827,9.823537825445179
660000000.0,21.78,0.0,0.0,0.0,0.7490916256394162,0.4873608128197081,9.82962
665000000.0,21.78,0.0,0.0,0.0,0.7619427129168271,0.47735457416634575,9.816474574166346
670000000.0,21.78,0.0,0.0,0.0,0.7392815479442155,0.4644053869860539,9.822949226027893
675000000.0,21.78,0.0,0.0,0.0,0.7195634868889349,0.48019953933319537,9.82962
680000000.0,21.78,0.0,0.0,0.0,0.7349652396245524,0.46538634716726346,9.835898413208184
685000000.0,21.78,0.0,0.0,0.0,0.7517403133053031,0.45126,9.833249686694698
690000000.0,21.78,0.0,0.0,0.0,0.7310411463903115,0.4634244268048443,9.82962
695000000.0,21.78,0.0,0.0,0.0,0.7400664539981645,0.47686411349954116,9.811667659501378
700000000.0,21.78,0.0,0.0,0.0,0.7494839864033399,0.4630319592100196,9.823734054386641
705000000.0,21.78,0.0,0.0,0.0,0.7513479136937792,0.4628358273875583,9.845217913693778
710000000.0,21.78,0.0,0.0,0.0,0.7496801862091018,0.47088,9.843550186209102
715000000.0,21.78,0.0,0.0,0.0,0.74556,0.47088,9.822654858335948
720000000.0,21.78,0.0,0.0,0.0,0.7400663860148639,0.4598927720297277,9.799012772029728
725000000.0,21.78,0.0,0.0,0.0,0.7411455140822552,0.45665551408225513,9.81196205632902
730000000.0,21.78,0.0,0.0,0.0,0.7508574141793741,0.46636741417937416,9.819025171641252
735000000.0,21.78,0.0,0.0,0.0,0.7605693142764932,0.46568068572350685,9.846395199935452
740000000.0,21.78,0.0,0.0,0.0,0.7651800000000001,0.46617121437361214,9.863366356879164
745000000.0,21.78,0.0,0.0,0.0,0.7601768855292689,0.46587688552926887,9.829227542117076
750000000.0,21.78,0.0,0.0,0.0,0.7504649854321499,0.4757850437035504,9.80509498543215
755000000.0,21.78,0.0,0.0,0.0,0.74556,0.48569308533503086,9.809803829329939
760000000.0,21.78,0.0,0.0,0.0,0.7549776295241764,0.4853988147620881,9.838645259048352
765000000.0,21.78,0.0,0.0,0.0,0.7605692851407929,0.4858892851407928,9.854439285140792
770000000.0,21.78,0.0,0.0,0.0,0.7508573850436738,0.48069,9.835702155131022
775000000.0,21.78,0.0,0.0,0.0,0.7543890301068903,0.47627548494655486,9.81098096989311
780000000.0,21.78,0.0,0.0,0.0,0.7651800000000001,0.47088,9.808822830301128
785000000.0,21.78,0.0,0.0,0.0,0.7609616847523168,0.46666168475231684,9.836683260990732
790000000.0,21.78,0.0,0.0,0.0,0.7471295693103956,0.4693104306896043,9.850809569310396
795000000.0,21.78,0.0,0.0,0.0,0.7397721154419211,0.48471211544192117,9.827363653674237
800000000.0,21.78,0.0,0.0,0.0,0.7377119689219197,0.4826519689219197,9.7903799223048
805000000.0,21.78,0.0,0.0,0.0,0.7374177469084775,0.47088,9.780079578180796
810000000.0,21.78,0.0,0.0,0.0,0.7516421842667218,0.47833563146655633,9.836094710132947
815000000.0,21.78,0.0,0.0,0.0,0.74556,0.49775943166079434,9.867780852508808
820000000.0,21.78,0.0,0.0,0.0,0.7596864637100647,0.49599353628993537,9.835113536289935
825000000.0,21.78,0.0,0.0,0.0,0.7744994519260946,0.4640129679507297,9.799699451926095
830000000.0,21.78,0.0,0.0,0.0,0.7486991677564917,0.4612662483652625,9.790576248365264
835000000.0,21.78,0.0,0.0,0.0,0.7454619486566195,0.48392731621887314,9.816474632437746
840000000.0,21.78,0.0,0.0,0.0,0.7620407836840078,0.4873607836840078,9.82962
845000000.0,21.78,0.0,0.0,0.0,0.75537,0.4715666507606665,9.82962
850000000.0,21.78,0.0,0.0,0.0,0.7494839669795397,0.45420301651023015,9.82079095046931
855000000.0,21.78,0.0,0.0,0.0,0.73575,0.4696047498220475,9.791655250177953
860000000.0,21.78,0.0,0.0,0.0,0.7412436334089363,0.4822595498865955,9.78724090022681
865000000.0,21.78,0.0,0.0,0.0,0.7633161504047615,0.46901615040476147,9.832268716801588
870000000.0,21.78,0.0,0.0,0.0,0.7720469155064692,0.49305061689870616,9.841980616898706
875000000.0,21.78,0.0,0.0,0.0,0.7431075509874755,0.4954049660083497,9.836977415020874
880000000.0,21.78,0.0,0.0,0.0,0.7628255829070559,0.47833558290705586,9.80019
885000000.0,21.78,0.0,0.0,0.0,0.7576263171900631,0.4663673656198737,9.802446317190064
890000000.0,21.78,0.0,0.0,0.0,0.7608635654256357,0.4534182172871822,9.818632869148729
895000000.0,21.78,0.0,0.0,0.0,0.7414397652313977,0.4672503521529035,9.847179882615698
900000000.0,21.78,0.0,0.0,0.0,0.7318260524442606,0.4885379825185798,9.835505965037159
905000000.0,21.78,0.0,0.0,0.0,0.7535060824214608,0.48255391757853916,9.81794608242146
910000000.0,21.78,0.0,0.0,0.0,0.74556,0.4905,9.81
915000000.0,21.78,0.0,0.0,0.0,0.7438922822272228,0.4888322822272228,9.815003153318331
920000000.0,21.78,0.0,0.0,0.0,0.73575,0.47912038213010383,9.837860382130104
925000000.0,21.78,0.0,0.0,0.0,0.7372215179670152,0.46940848203298485,9.832563035934031
930000000.0,21.78,0.0,0.0,0.0,0.74556,0.4651902541924025,9.843746327743464
935000000.0,21.78,0.0,0.0,0.0,0.7468353181612531,0.4917753181612532,9.808724681838747
940000000.0,21.78,0.0,0.0,0.0,0.7518383452248835,0.4956011269665113,9.802544436516746
945000000.0,21.78,0.0,0.0,0.0,0.7270191183554912,0.46322823671098234,9.823047355066475
950000000.0,21.78,0.0,0.0,0.0,0.7367310184526102,0.48069,9.84629694464217
955000000.0,21.78,0.0,0.0,0.0,0.7437941629005417,0.47980708145027084,9.822458755649189
960000000.0,21.78,0.0,0.0,0.0,0.7267248186468482,0.4724496372936964,9.846100725412608
965000000.0,21.78,0.0,0.0,0.0,0.73575,0.4905,9.809313281256033
970000000.0,21.78,0.0,0.0,0.0,0.7381044753643448,0.48814552463565525,9.802544475364344
975000000.0,21.78,0.0,0.0,0.0,0.7735184431853845,0.4527315568146156,9.83943
980000000.0,21.78,0.0,0.0,0.0,0.7459524190353242,0.48108241903532417,9.839822419035324
985000000.0,21.78,0.0,0.0,0.0,0.7550756808675568,0.4902056808675568,9.84924
990000000.0,21.78,0.0,0.0,0.0,0.74556,0.4808862192295622,9.847866465393064
995000000.0,21.78,0.0,0.0,0.0,0.7456581193266812,0.4905,9.78057
1000000000.0,21.78,0.0,0.0,0.0,0.75537,0.4904999611523996,9.780570077695202
1005000000.0,21.78,0.0,0.0,0.0,0.75537,0.4710761609581616,9.819417678083678
1010000000.0,21.78,0.0,0.0,0.0,0.75537,0.4804938196180382,9.848651458854114
1015000000.0,21.78,0.0,0.0,0.0,0.75537,0.4521428408545284,9.830208560569686
1020000000.0,21.78,0.0,0.0,0.0,0.7459523801877238,0.4795128594368286,9.82962
1025000000.0,21.78,0.0,0.0,0.0,0.7735185597281856,0.4620509601812096,9.81098096018121
1030000000.0,21.78,0.0,0.0,0.0,0.7565471599869716,0.46107,9.81
1035000000.0,21.78,0.0,0.0,0.0,0.75537,0.4793166402072664,9.846493280414533
1040000000.0,21.78,0.0,0.0,0.0,0.7643952202007522,0.5077656606022566,9.867290440401504
1045000000.0,21.78,0.0,0.0,0.0,0.720544398510644,0.4833386391063864,9.824224398510644
1050000000.0,21.78,0.0,0.0,0.0,0.7602751019749511,0.47186097960500983,9.810980979605011
1055000000.0,21.78,0.0,0.0,0.0,0.7477181590157816,0.4534181590157816,9.827461840984219
1060000000.0,21.78,0.0,0.0,0.0,0.74556,0.4771584617676846,9.83825282058923
1065000000.0,21.78,0.0,0.0,0.0,0.74556,0.49775944137269446,9.822360558627306
1070000000.0,21.78,0.0,0.0,0.0,0.7118135168661351,0.4918733792165338,9.811373379216533
1075000000.0,21.78,0.0,0.0,0.0,0.7563511252835113,0.4905,9.81
1080000000.0,21.78,0.0,0.0,0.0,0.7404587370668874,0.48225957902229577,9.81
1085000000.0,21.78,0.0,0.0,0.0,0.7520346421496464,0.4644053578503536,9.818142321074824
1090000000.0,21.78,0.0,0.0,0.0,0.7634142211719422,0.46107,9.851986884687769
1095000000.0,21.78,0.0,0.0,0.0,0.7651800000000001,0.4531238787309388,9.811373272385634
1100000000.0,21.78,0.0,0.0,0.0,0.7416359359014594,0.47480406409854065,9.79234197863382
1105000000.0,21.78,0.0,0.0,0.0,0.7589997643898977,0.49618984292659846,9.7981299214633
1110000000.0,21.78,0.0,0.0,0.0,0.7651800000000001,0.49265817843958176,9.80784182156042
1115000000.0,21.78,0.0,0.0,0.0,0.7727337216575373,0.4678388350273883,9.825107443315074
1120000000.0,21.78,0.0,0.0,0.0,0.7451675129813752,0.4759812435093124,9.851986865263969
1125000000.0,21.78,0.0,0.0,0.0,0.7431075218517752,0.48069,9.836977434444675
1130000000.0,21.78,0.0,0.0,0.0,0.7528194219488942,0.4734305780511058,9.79332289025553
1135000000.0,21.78,0.0,0.0,0.0,0.7482086779539868,0.47088,9.787731322046014
1140000000.0,21.78,0.0,0.0,0.0,0.7526232221431323,0.47088,9.825696110715661
1145000000.0,21.78,0.0,0.0,0.0,0.7484048777597487,0.46391487775974877,9.83943
1150000000.0,21.78,0.0,0.0,0.0,0.74556,0.46107,9.846297022337371
1155000000.0,21.78,0.0,0.0,0.0,0.74556,0.4678389224344892,9.828933232696533
1160000000.0,21.78,0.0,0.0,0.0,0.74556,0.47088,9.813139177468392
1165000000.0,21.78,0.0,0.0,0.0,0.7389872773712728,0.47745272262872723,9.796854554742547
1170000000.0,21.78,0.0,0.0,0.0,0.7422246227258462,0.48069,9.822753113629231
1175000000.0,21.78,0.0,0.0,0.0,0.7519365228229652,0.4870665228229652,9.820300431531106
1180000000.0,21.78,0.0,0.0,0.0,0.7428131541598315,0.48422157707991575,9.822556845840168
1185000000.0,21.78,0.0,0.0,0.0,0.73575,0.46832935396559355,9.823439676982797
1190000000.0,21.78,0.0,0.0,0.0,0.73575,0.46107,9.807645553771357
1195000000.0,21.78,0.0,0.0,0.0,0.7417341232114413,0.47303824642288245,9.806174123211441
1200000000.0,21.78,0.0,0.0,0.0,0.7573320466171205,0.48069,9.82765806992568
1205000000.0,21.78,0.0,0.0,0.0,0.7651800000000001,0.4691141531886415,9.83943
1210000000.0,21.78,0.0,0.0,0.0,0.7651800000000001,0.46107,9.822360529491606
1215000000.0,21.78,0.0,0.0,0.0,0.7539965528001655,0.46107,9.83236689439967
1220000000.0,21.78,0.0,0.0,0.0,0.7510536236970362,0.45557637630296377,9.827265505211855
1225000000.0,21.78,0.0,0.0,0.0,0.7391834286175343,0.4674465713824657,9.81
1230000000.0,21.78,0.0,0.0,0.0,0.7365348477825485,0.48598742389127425,9.815297423891275
1235000000.0,21.78,0.0,0.0,0.0,0.7507593239883932,0.4956993239883932,9.81981
1240000000.0,21.78,0.0,0.0,0.0,0.7502687759144877,0.4850063277434633,9.835113672256536
1245000000.0,21.78,0.0,0.0,0.0,0.7405568758173687,0.47088,9.839233751634737
1250000000.0,21.78,0.0,0.0,0.0,0.7455600485595005,0.46597497572024976,9.82962
1255000000.0,21.78,0.0,0.0,0.0,0.7505630756231307,0.46107,9.834426924376869
1260000000.0,21.78,0.0,0.0,0.0,0.7408511755260118,0.4751964734219647,9.81117705315607
1265000000.0,21.78,0.0,0.0,0.0,0.7588036228555363,0.48127855085778554,9.789791449142216
1270000000.0,21.78,0.0,0.0,0.0,0.7712621259953213,0.488930498672905,9.813727874004678
1275000000.0,21.78,0.0,0.0,0.0,0.7597845247653453,0.492461900938619,9.842863574296036
1280000000.0,21.78,0.0,0.0,0.0,0.7522307254126073,0.4622471502750715,9.85041715027507
1285000000.0,21.78,0.0,0.0,0.0,0.7484049748787498,0.45547832495958324,9.82677502512125
1290000000.0,21.78,0.0,0.0,0.0,0.7528193248298933,0.46107,9.81
1295000000.0,21.78,0.0,0.0,0.0,0.7397721251538213,0.4691142503076425,9.81
1300000000.0,21.78,0.0,0.0,0.0,0.7377119494981195,0.4728419494981195,9.813924025250941
1305000000.0,21.78,0.0,0.0,0.0,0.7297659253480593,0.46489592534805924,9.831287776044178
1310000000.0,21.78,0.0,0.0,0.0,0.7506613017807131,0.47460782544517827,9.838056523664465
1315000000.0,21.78,0.0,0.0,0.0,0.7641008233731083,0.48069,9.81981
1320000000.0,21.78,0.0,0.0,0.0,0.7526232512788326,0.4700951230817512,9.81981
1325000000.0,21.78,0.0,0.0,0.0,0.7583129485269295,0.45812705147307053,9.823243525736535
1330000000.0,21.78,0.0,0.0,0.0,0.7355537224990373,0.47755085166730854,9.819613722499037
1335000000.0,21.78,0.0,0.0,0.0,0.7226046518615465,0.48726267406922674,9.80019
1340000000.0,21.78,0.0,0.0,0.0,0.7483069041115691,0.48382922602789225,9.809607678083678
1345000000.0,21.78,0.0,0.0,0.0,0.7719488738749888,0.4844177477499775,9.83266112612501
1350000000.0,21.78,0.0,0.0,0.0,0.7592939475557395,0.4738230262221303,9.83648697377787
1355000000.0,21.78,0.0,0.0,0.0,0.7427150736807507,0.47784507368075074,9.823930147361501
1360000000.0,21.78,0.0,0.0,0.0,0.73575,0.46813317358363177,9.818240479249106
1365000000.0,21.78,0.0,0.0,0.0,0.7436961795404619,0.46107,9.831483820459539
1370000000.0,21.78,0.0,0.0,0.0,0.7600787467787875,0.46362062661060627,9.812550626610607
1375000000.0,21.78,0.0,0.0,0.0,0.7406549465845494,0.47088,9.822262526707725
1380000000.0,21.78,0.0,0.0,0.0,0.7306488536096886,0.47558885360968856,9.827265573195156
1385000000.0,21.78,0.0,0.0,0.0,0.74556,0.4859873461960735,9.817553673098038
1390000000.0,21.78,0.0,0.0,0.0,0.74556,0.4773546809972468,9.807841773000918
1395000000.0,21.78,0.0,0.0,0.0,0.7476201270962013,0.4941296187113962,9.802250127096201
1400000000.0,21.78,0.0,0.0,0.0,0.75537,0.47676608157996087,9.81196202719332
1405000000.0,21.78,0.0,0.0,0.0,0.7572339272904393,0.4947182181286822,9.821673927290439
1410000000.0,21.78,0.0,0.0,0.0,0.7651800000000001,0.4726458273875583,9.82962
1415000000.0,21.78,0.0,0.0,0.0,0.7601768175459682,0.48069,9.82962
1420000000.0,21.78,0.0,0.0,0.0,0.7388892551635926,0.4791203724182037,9.831189627581796
1425000000.0,21.78,0.0,0.0,0.0,0.7538984723210848,0.47088,9.837958472321084
1430000000.0,21.78,0.0,0.0,0.0,0.7428131444479315,0.47088,9.825499716671898
1435000000.0,21.78,0.0,0.0,0.0,0.7310413114926132,0.4721553278731533,9.80019
1440000000.0,21.78,0.0,0.0,0.0,0.7640027720297278,0.47951277202972775,9.807253367821634
1445000000.0,21.78,0.0,0.0,0.0,0.75537,0.47411738420217386,9.860129128067392
1450000000.0,21.78,0.0,0.0,0.0,0.75537,0.4963858873419589,9.86787897183549
1455000000.0,21.78,0.0,0.0,0.0,0.7544870717383707,0.46107,9.854635358691853
1460000000.0,21.78,0.0,0.0,0.0,0.74556,0.46185482835874825,9.806860686565008
1465000000.0,21.78,0.0,0.0,0.0,0.74556,0.4715667284558673,9.773506913823468
1470000000.0,21.78,0.0,0.0,0.0,0.7461486285529862,0.48186725710597256,9.811177257105973
1475000000.0,21.78,0.0,0.0,0.0,0.7563510573002106,0.49932894269978945,9.83158211460042
1480000000.0,21.78,0.0,0.0,0.0,0.7745975712527757,0.48147485749444857,9.868467571252776
1485000000.0,21.78,0.0,0.0,0.0,0.7642970134669702,0.49942701346697016,9.857578355778283
1490000000.0,21.78,0.0,0.0,0.0,0.7363386868243869,0.4706837710585377,9.809803771058538
1495000000.0,21.78,0.0,0.0,0.0,0.764787483845675,0.4611681290385813,9.800680645192907
1500000000.0,21.78,0.0,0.0,0.0,0.7259401165428012,0.47088,9.8492399417286
1505000000.0,21.78,0.0,0.0,0.0,0.7647877169312772,0.47088,9.829816141534362
1510000000.0,21.78,0.0,0.0,0.0,0.7459523413401234,0.47088,9.839233829329938
1515000000.0,21.78,0.0,0.0,0.0,0.7550757294270573,0.47088,9.810882811718828
1520000000.0,21.78,0.0,0.0,0.0,0.7365347409516474,0.4802976295241763,9.81
1525000000.0,21.78,0.0,0.0,0.0,0.7264304703787048,0.4620509407574094,9.847278118485182
1530000000.0,21.78,0.0,0.0,0.0,0.7536042891552429,0.48873428915524286,9.821575710844758
1535000000.0,21.78,0.0,0.0,0.0,0.7280000105534001,0.4905,9.81981
1540000000.0,21.78,0.0,0.0,0.0,0.7439904598253047,0.49952522991265236,9.801759540174697
1545000000.0,21.78,0.0,0.0,0.0,0.74556,0.4913828699902287,9.809117130009772
1550000000.0,21.78,0.0,0.0,0.0,0.74556,0.4728419397862194,9.81882903010689
1555000000.0,21.78,0.0,0.0,0.0,0.7542909302040093,0.47088,9.837271860408018
1560000000.0,21.78,0.0,0.0,0.0,0.75537,0.4622471696988717,9.813531509096615
1565000000.0,21.78,0.0,0.0,0.0,0.7468352696017527,0.45253526960175267,9.818534730398248
1570000000.0,21.78,0.0,0.0,0.0,0.7624332609907327,0.4850065219814652,9.811373369504635
1575000000.0,21.78,0.0,0.0,0.0,0.7485029388150294,0.4738229388150294,9.801661469407515
1580000000.0,21.78,0.0,0.0,0.0,0.770281292068813,0.4791204306896043,9.833151722758418
1585000000.0,21.78,0.0,0.0,0.0,0.7587053384265534,0.47254766921327673,9.815003007639831
1590000000.0,21.78,0.0,0.0,0.0,0.75537,0.47088,9.834132692651528
1595000000.0,21.78,0.0,0.0,0.0,0.7633161309809614,0.46293386901903866,9.83943
1600000000.0,21.78,0.0,0.0,0.0,0.7494839378438394,0.47676606215616063,9.83158196892192
1605000000.0,21.78,0.0,0.0,0.0,0.7533099311751993,0.4651901376496014,9.814120137649601
1610000000.0,21.78,0.0,0.0,0.0,0.7400663374553634,0.49167732508927325,9.817651831272318
1615000000.0,21.78,0.0,0.0,0.0,0.7508574627388747,0.47009507452225074,9.81981
1620000000.0,21.78,0.0,0.0,0.0,0.7479143685334437,0.46852563146655635,9.827265631466556
1625000000.0,21.78,0.0,0.0,0.0,0.7529175315636754,0.47088,9.82962
1630000000.0,21.78,0.0,0.0,0.0,0.7263322733568227,0.4781394316607943,9.815101136678411
1635000000.0,21.78,0.0,0.0,0.0,0.7232913317579134,0.4735286682420867,9.81
1640000000.0,21.78,0.0,0.0,0.0,0.7400664637100647,0.47088,9.802936768144969
1645000000.0,21.78,0.0,0.0,0.0,0.7525251319521513,0.47088,9.835015659760757
1650000000.0,21.78,0.0,0.0,0.0,0.7622370320492704,0.4777470320492703,9.82863890385219
1655000000.0,21.78,0.0,0.0,0.0,0.7381042714144428,0.48069,9.81981
1660000000.0,21.78,0.0,0.0,0.0,0.7526233289740334,0.4673483355129833,9.813139167756493
1665000000.0,21.78,0.0,0.0,0.0,0.7717527323406274,0.47421546468125464,9.816572732340628
1670000000.0,21.78,0.0,0.0,0.0,0.755566102686761,0.46774073512450737,9.839233897313239
1675000000.0,21.78,0.0,0.0,0.0,0.7519365325348654,0.48019959760459596,9.842863467465135
1680000000.0,21.78,0.0,0.0,0.0,0.75537,0.471664702104047,9.826873134736031
1685000000.0,21.78,0.0,0.0,0.0,0.7491896672708966,0.4672503327291033,9.81981
1690000000.0,21.78,0.0,0.0,0.0,0.7394777671737777,0.4647977671737777,9.81981
1695000000.0,21.78,0.0,0.0,0.0,0.73575,0.4730382658466826,9.837762398770025
1700000000.0,21.78,0.0,0.0,0.0,0.7534080990613811,0.48069,9.84924
1705000000.0,21.78,0.0,0.0,0.0,0.7536041337648414,0.48069,9.831876200647262
1710000000.0,21.78,0.0,0.0,0.0,0.762629499644095,0.48637983321469835,9.814120166785303
1715000000.0,21.78,0.0,0.0,0.0,0.7638065333763654,0.4793165333763653,9.821183466623635
1720000000.0,21.78,0.0,0.0,0.0,0.75537,0.47637363340893635,9.82962
1725000000.0,21.78,0.0,0.0,0.0,0.75537,0.4698989329878893,9.840411067012111
1730000000.0,21.78,0.0,0.0,0.0,0.75537,0.46636743360317434,9.833347699190478
1735000000.0,21.78,0.0,0.0,0.0,0.7501706662997066,0.4760793337002934,9.814610666299707
1740000000.0,21.78,0.0,0.0,0.0,0.74556,0.4908924675948247,9.794696298607764
1745000000.0,21.78,0.0,0.0,0.0,0.7555662677890628,0.4903037322109373,9.805585669472658
1750000000.0,21.78,0.0,0.0,0.0,0.7651800000000001,0.4757849660083497,9.82962
1755000000.0,21.78,0.0,0.0,0.0,0.7651800000000001,0.46607306591123066,9.83442693408877
1760000000.0,21.78,0.0,0.0,0.0,0.7557623316282234,0.4563611658141116,9.834721165814113
1765000000.0,21.78,0.0,0.0,0.0,0.7501707342830073,0.4697029371320294,9.820398531433986
1770000000.0,21.78,0.0,0.0,0.0,0.75537,0.4905,9.800974731239748
1775000000.0,21.78,0.0,0.0,0.0,0.742126396568264,0.48608546552275467,9.808038137908982
1780000000.0,21.78,0.0,0.0,0.0,0.7302564345743644,0.4850064345743643,9.851202172871822
1785000000.0,21.78,0.0,0.0,0.0,0.7484050040144501,0.48206333065703333,9.857578326642583
1790000000.0,21.78,0.0,0.0,0.0,0.7569395304627954,0.47088,9.817259295694193
1795000000.0,21.78,0.0,0.0,0.0,0.74556,0.47490213486572136,9.804212134865722
1800000000.0,21.78,0.0,0.0,0.0,0.7494840349628403,0.4767659650371597,9.81
1805000000.0,21.78,0.0,0.0,0.0,0.7515440649400407,0.4785318701199187,9.817651870119919
1810000000.0,21.78,0.0,0.0,0.0,0.7604713406283135,0.47931649452876496,9.82962
1815000000.0,21.78,0.0,0.0,0.0,0.7775405294916053,0.47195920576259204,9.825990264745803
1820000000.0,21.78,0.0,0.0,0.0,0.7581167292973674,0.4905,9.816278364648683
1825000000.0,21.78,0.0,0.0,0.0,0.7489935354484354,0.47676585820625855,9.806566464551565
1830000000.0,21.78,0.0,0.0,0.0,0.7486991289088912,0.4646017421822174,9.810196306636664
1835000000.0,21.78,0.0,0.0,0.0,0.7422246712853467,0.4872626643573266,9.832857335642673
1840000000.0,21.78,0.0,0.0,0.0,0.7490915285204153,0.47755076426020765,9.830012292780623
1845000000.0,21.78,0.0,0.0,0.0,0.7448734075107342,0.47392113583691137,9.80695886416309
1850000000.0,21.78,0.0,0.0,0.0,0.7622369640659697,0.47774696406596967,9.814905179670152
1855000000.0,21.78,0.0,0.0,0.0,0.7525250639688507,0.47088,9.840705191906553
1860000000.0,21.78,0.0,0.0,0.0,0.7510536722565367,0.4736268361282684,9.828050508384806
1865000000.0,21.78,0.0,0.0,0.0,0.7625312637746127,0.48069,9.841293791323839
1870000000.0,21.78,0.0,0.0,0.0,0.7528193636774936,0.48069,9.80705681838747
1875000000.0,21.78,0.0,0.0,0.0,0.7480125364196254,0.47823746358037467,9.785475218517751
1880000000.0,21.78,0.0,0.0,0.0,0.7530155634832556,0.4732344365167444,9.834328873033488
1885000000.0,21.78,0.0,0.0,0.0,0.7433036633861366,0.4829463366138634,9.858265346455454
1890000000.0,21.78,0.0,0.0,0.0,0.7400664734219647,0.4905,9.882005289867053
1895000000.0,21.78,0.0,0.0,0.0,0.7512497263837973,0.4863797263837973,9.846689179151392
1900000000.0,21.78,0.0,0.0,0.0,0.7396740738104407,0.47284203690522036,9.80019
1905000000.0,21.78,0.0,0.0,0.0,0.7609618110070181,0.4769621259953213,9.80205393700234
1910000000.0,21.78,0.0,0.0,0.0,0.7830341629005417,0.46107,9.813531674198916
1915000000.0,21.78,0.0,0.0,0.0,0.7699867884102679,0.4644054743931547,9.831287737196577
1920000000.0,21.78,0.0,0.0,0.0,0.7486992745873927,0.48225963729369636,9.83943
1925000000.0,21.78,0.0,0.0,0.0,0.7578223130459232,0.48755692521836924,9.832072313045924
1930000000.0,21.78,0.0,0.0,0.0,0.7175034374879344,0.47088,9.793126874975869
1935000000.0,21.78,0.0,0.0,0.0,0.7272153375850534,0.4721553375850534,9.811275337585053
1940000000.0,21.78,0.0,0.0,0.0,0.7369272376821724,0.47951276231782763,9.820987237682173
1945000000.0,21.78,0.0,0.0,0.0,0.7466391377792914,0.46980086222070866,9.827461724441417
1950000000.0,21.78,0.0,0.0,0.0,0.7563510378764103,0.46401311362923114,9.81
1955000000.0,21.78,0.0,0.0,0.0,0.7651800000000001,0.4905,9.81176587594706
1960000000.0,21.78,0.0,0.0,0.0,0.7643951619293516,0.4905,9.831189676141298
1965000000.0,21.78,0.0,0.0,0.0,0.7539965236644652,0.4898132618322326,9.847866523664464
1970000000.0,21.78,0.0,0.0,0.0,0.7363386382648864,0.48010136173511364,9.828442723470227
1975000000.0,21.78,0.0,0.0,0.0,0.7450694616379946,0.4718610767240108,9.809509461637996
1980000000.0,21.78,0.0,0.0,0.0,0.7361424384591244,0.4901075615408756,9.80097487691825
1985000000.0,21.78,0.0,0.0,0.0,0.74556,0.4809843385562434,9.820398677112488
1990000000.0,21.78,0.0,0.0,0.0,0.7459524773067248,0.48991128403991285,9.839037522693275
1995000000.0,21.78,0.0,0.0,0.0,0.7647874449980745,0.46136441625144414,9.819613722499037
2000000000.0,21.78,0.0,0.0,0.0,0.7259401553904016,0.4905,9.80019
2005000000.0,21.78,0.0,0.0,0.0,0.7647877557788776,0.4905,9.80019
2010000000.0,21.78,0.0,0.0,0.0,0.7267246438326465,0.47127232191632323,9.80019
2015000000.0,21.78,0.0,0.0,0.0,0.7544872174168722,0.4803957391389574,9.809705739138957
2020000000.0,21.78,0.0,0.0,0.0,0.75537,0.48069,9.83825291770823
2025000000.0,21.78,0.0,0.0,0.0,0.7460504606668046,0.4713704606668046,9.858069078666391
2030000000.0,21.78,0.0,0.0,0.0,0.7547814394303144,0.4801014394303144,9.822164242278744
2035000000.0,21.78,0.0,0.0,0.0,0.7462466604725666,0.4898133395274334,9.810686660472568
2040000000.0,21.78,0.0,0.0,0.0,0.74556,0.47244952075089525,9.81
2045000000.0,21.78,0.0,0.0,0.0,0.7366328602783286,0.47088,9.836781419165014
2050000000.0,21.78,0.0,0.0,0.0,0.7534080796375808,0.47088,9.83060096018121
2055000000.0,21.78,0.0,0.0,0.0,0.75537,0.5058037596636377,9.82962
2060000000.0,21.78,0.0,0.0,0.0,0.7294714799609148,0.4928543199739432,9.82962
2065000000.0,21.78,0.0,0.0,0.0,0.7344747401101475,0.47343051977970524,9.812550519779705
2070000000.0,21.78,0.0,0.0,0.0,0.7526232804145327,0.4793166402072664,9.81
2075000000.0,21.78,0.0,0.0,0.0,0.7637085403043855,0.48069,9.818338540304385
2080000000.0,21.78,0.0,0.0,0.0,0.7651800000000001,0.4724495595984956,9.844531321204514
2085000000.0,21.78,0.0,0.0,0.0,0.7488953190027532,0.47088,9.82481297850413
2090000000.0,21.78,0.0,0.0,0.0,0.7696927217872273,0.49501272178722727,9.827854240595743
2095000000.0,21.78,0.0,0.0,0.0,0.7590977186142772,0.4923638593071386,9.82167385930714
2100000000.0,21.78,0.0,0.0,0.0,0.7475219592100196,0.4826519592100196,9.81981
2105000000.0,21.78,0.0,0.0,0.0,0.74556,0.46519011822580114,9.81981
2110000000.0,21.78,0.0,0.0,0.0,0.74556,0.4763736819684368,9.81981
2115000000.0,21.78,0.0,0.0,0.0,0.7531137410813374,0.4731362589186626,9.812256258918664
2120000000.0,21.78,0.0,0.0,0.0,0.7404587176430872,0.4783356411784564,9.81
2125000000.0,21.78,0.0,0.0,0.0,0.7210349174488492,0.46597491744884917,9.81
2130000000.0,21.78,0.0,0.0,0.0,0.7451677654907777,0.46832944137269444,9.824518882745389
2135000000.0,21.78,0.0,0.0,0.0,0.7625313414698135,0.4852026829396268,9.82962
2140000000.0,21.78,0.0,0.0,0.0,0.7581167584330676,0.4905,9.82962
2145000000.0,21.78,0.0,0.0,0.0,0.75537,0.48353485833594856,9.822654858335948
2150000000.0,21.78,0.0,0.0,0.0,0.7485029582388296,0.4738229582388296,9.81294295823883
2155000000.0,21.78,0.0,0.0,0.0,0.7320221162834212,0.47764894185828943,9.81
2160000000.0,21.78,0.0,0.0,0.0,0.7392816839108168,0.48069,9.830012525866225
2165000000.0,21.78,0.0,0.0,0.0,0.74556,0.4741172579474726,9.832857257947472
2170000000.0,21.78,0.0,0.0,0.0,0.74556,0.47735464214964646,9.810196073551062
2175000000.0,21.78,0.0,0.0,0.0,0.74556,0.48706654224676543,9.806566542246767
2180000000.0,21.78,0.0,0.0,0.0,0.74556,0.4842215576561156,9.81
2185000000.0,21.78,0.0,0.0,0.0,0.7579206848820069,0.48069,9.816180342441005
2190000000.0,21.78,0.0,0.0,0.0,0.7530155149237552,0.48069,9.825892242538123
2195000000.0,21.78,0.0,0.0,0.0,0.7395758573647586,0.4687217147295171,9.82962
2200000000.0,21.78,0.0,0.0,0.0,0.7298639572676396,0.4669560427323604,9.81196187180292
2205000000.0,21.78,0.0,0.0,0.0,0.7317279428294794,0.48824382848843834,9.80597794282948
2210000000.0,21.78,0.0,0.0,0.0,0.73575,0.48893031414680316,9.827069528779795
2215000000.0,21.78,0.0,0.0,0.0,0.73575,0.4862817430237174,9.833838256976282
2220000000.0,21.78,0.0,0.0,0.0,0.7522309293625093,0.4905,9.82962
2225000000.0,21.78,0.0,0.0,0.0,0.7651800000000001,0.48510445678204456,9.835015543217956
2230000000.0,21.78,0.0,0.0,0.0,0.7598825566849255,0.4700951133698511,9.823537670054778
2235000000.0,21.78,0.0,0.0,0.0,0.7605693434121935,0.45587065658780657,9.815199343412194
2240000000.0,21.78,0.0,0.0,0.0,0.7651800000000001,0.46146248701862486,9.835113730527938
2245000000.0,21.78,0.0,0.0,0.0,0.7551737127871372,0.4658768563935686,9.839233712787138
2250000000.0,21.78,0.0,0.0,0.0,0.7504650437035504,0.4757851311106513,9.8198099125929
2255000000.0,21.78,0.0,0.0,0.0,0.75537,0.48569305619933056,9.81480694380067
2260000000.0,21.78,0.0,0.0,0.0,0.7459523122044232,0.4665634683066347,9.81981
2265000000.0,21.78,0.0,0.0,0.0,0.73575,0.4558707439949074,9.81981
2270000000.0,21.78,0.0,0.0,0.0,0.7447752881840529,0.45204471181594713,9.828835288184052
2275000000.0,21.78,0.0,0.0,0.0,0.75537,0.44586454418914545,9.821771823243418
2280000000.0,21.78,0.0,0.0,0.0,0.7510535557137356,0.4555764442862644,9.80019
2285000000.0,21.78,0.0,0.0,0.0,0.7497783443833834,0.46528834438338346,9.821281721916918
2290000000.0,21.78,0.0,0.0,0.0,0.7512497555194976,0.47088,9.84924
2295000000.0,21.78,0.0,0.0,0.0,0.7415378554223786,0.47088,9.845217855422378
2300000000.0,21.78,0.0,0.0,0.0,0.73575,0.47088,9.819809776626299
2305000000.0,21.78,0.0,0.0,0.0,0.7395759447718595,0.47470594477185946,9.79803188954372
2310000000.0,21.78,0.0,0.0,0.0,0.74556,0.48441784486897843,9.81
2315000000.0,21.78,0.0,0.0,0.0,0.74556,0.4868702550339025,9.82451897986439
2320000000.0,21.78,0.0,0.0,0.0,0.7420283549367835,0.4736267098735671,9.835113419747135
2325000000.0,21.78,0.0,0.0,0.0,0.7391835451603355,0.4679370903206709,9.799699364518995
2330000000.0,21.78,0.0,0.0,0.0,0.7555663357723634,0.48069,9.78724089051491
2335000000.0,21.78,0.0,0.0,0.0,0.7588032732271328,0.48069,9.806664690709148
2340000000.0,21.78,0.0,0.0,0.0,0.7384969818067698,0.47755075454830753,9.829227736355078
2345000000.0,21.78,0.0,0.0,0.0,0.7590977089023772,0.4800034366464344,9.834034272255943
2350000000.0,21.78,0.0,0.0,0.0,0.7514460912918609,0.4973669543540696,9.809019136937792
2355000000.0,21.78,0.0,0.0,0.0,0.7623350542569506,0.4905,9.8239301085139
2360000000.0,21.78,0.0,0.0,0.0,0.7581168458401685,0.48225946247949464,9.818240537520506
2365000000.0,21.78,0.0,0.0,0.0,0.7572337621881376,0.47166498374914984,9.834132508125425
2370000000.0,21.78,0.0,0.0,0.0,0.740851292068813,0.49265806189678063,9.817259353965595
2375000000.0,21.78,0.0,0.0,0.0,0.7480123616054236,0.46842745386847456,9.802642361605423
2380000000.0,21.78,0.0,0.0,0.0,0.7282944462286445,0.4728422311432223,9.78527889245729
2385000000.0,21.78,0.0,0.0,0.0,0.7402626926515269,0.5033509610227096,9.806959038977292
2390000000.0,21.78,0.0,0.0,0.0,0.75537,0.48069,9.831778246422882
2395000000.0,21.78,0.0,0.0,0.0,0.751249706959997,0.48069,9.83943
2400000000.0,21.78,0.0,0.0,0.0,0.7337879533828795,0.4865761398513614,9.835505906765759
2405000000.0,21.78,0.0,0.0,0.0,0.7278039467142395,0.5026642131430421,9.816082106571521
2410000000.0,21.78,0.0,0.0,0.0,0.7392816936227169,0.47441169362271696,9.80019
2415000000.0,21.78,0.0,0.0,0.0,0.75537,0.4905,9.803525493816956
2420000000.0,21.78,0.0,0.0,0.0,0.75537,0.4905,9.82451894101679
2425000000.0,21.78,0.0,0.0,0.0,0.7538984528972845,0.4860853586918536,9.846296905794569
2430000000.0,21.78,0.0,0.0,0.0,0.7469334471998345,0.46244344719983443,9.826873105600331
2435000000.0,21.78,0.0,0.0,0.0,0.7515439581091395,0.47088,9.808724652703047
2440000000.0,21.78,0.0,0.0,0.0,0.7271172473940725,0.4720572473940725,9.801367247394072
2445000000.0,21.78,0.0,0.0,0.0,0.7368291474911914,0.48284829498238296,9.81
2450000000.0,21.78,0.0,0.0,0.0,0.7445789524116895,0.49932895241168956,9.812943142764931
2455000000.0,21.78,0.0,0.0,0.0,0.7375158953708589,0.488734104629141,9.83854705231457
2460000000.0,21.78,0.0,0.0,0.0,0.7561548477825485,0.47088,9.831189695565097
2465000000.0,21.78,0.0,0.0,0.0,0.7631197563609976,0.4701932521203325,9.845806260601663
2470000000.0,21.78,0.0,0.0,0.0,0.736927295953573,0.4634245919071459,9.799601352023215
2475000000.0,21.78,0.0,0.0,0.0,0.754388903852189,0.4993289038521891,9.791361096147812
2480000000.0,21.78,0.0,0.0,0.0,0.737319792684098,0.48069,9.81078489634205
2485000000.0,21.78,0.0,0.0,0.0,0.774401303463713,0.48127869653628697,9.829031303463713
2490000000.0,21.78,0.0,0.0,0.0,0.75537,0.5001137516347376,9.810392496730525
2495000000.0,21.78,0.0,0.0,0.0,0.7554681484623814,0.49020555461285553,9.82962
2500000000.0,21.78,0.0,0.0,0.0,0.7651799028809991,0.46107004855950046,9.829619902881
2505000000.0,21.78,0.0,0.0,0.0,0.7457561026867611,0.4707819486566195,9.810196102686762
2510000000.0,21.78,0.0,0.0,0.0,0.7359461512462615,0.47088,9.81
2515000000.0,21.78,0.0,0.0,0.0,0.716718502298285,0.47088,9.819515748850858
2520000000.0,21.78,0.0,0.0,0.0,0.7632182447398825,0.47088,9.810392351052023
2525000000.0,21.78,0.0,0.0,0.0,0.746540901909809,0.4615604509549045,9.819319549045096
2530000000.0,21.78,0.0,0.0,0.0,0.764002898284429,0.4702914491422145,9.856695796568857
2535000000.0,21.78,0.0,0.0,0.0,0.7560566507606665,0.48912669847866697,9.849926650760667
2540000000.0,21.78,0.0,0.0,0.0,0.7282942519906426,0.4814747506635475,9.831189501327096
2545000000.0,21.78,0.0,0.0,0.0,0.72594,0.48069,9.811765701132858
2550000000.0,21.78,0.0,0.0,0.0,0.7347690495306906,0.48069,9.81
2555000000.0,21.78,0.0,0.0,0.0,0.7619428488834286,0.48069,9.81873094962781
2560000000.0,21.78,0.0,0.0,0.0,0.7392814508252146,0.48069,9.854341398899713
2565000000.0,21.78,0.0,0.0,0.0,0.7613542494661426,0.48069,9.85905
2570000000.0,21.78,0.0,0.0,0.0,0.7398700502425005,0.48069,9.825303400323333
2575000000.0,21.78,0.0,0.0,0.0,0.73575,0.47235144998371453,9.80313289996743
2580000000.0,21.78,0.0,0.0,0.0,0.73575,0.4791204501134045,9.767228199546382
2585000000.0,21.78,0.0,0.0,0.0,0.752034700421047,0.4725476497894765,9.801661751052618
2590000000.0,21.78,0.0,0.0,0.0,0.7634142503076425,0.45479149938471497,9.858265501845855
2595000000.0,21.78,0.0,0.0,0.0,0.749287699190477,0.467152300809523,9.845021548785715
2600000000.0,21.78,0.0,0.0,0.0,0.7377119494981195,0.4787280505018805,9.815885848494359
2605000000.0,21.78,0.0,0.0,0.0,0.7434999505989995,0.48069,9.802250049401001
2610000000.0,21.78,0.0,0.0,0.0,0.74556,0.4883418506961185,9.80019
2615000000.0,21.78,0.0,0.0,0.0,0.7531137507932375,0.4829462492067625,9.815297501586475
2620000000.0,21.78,0.0,0.0,0.0,0.75537,0.46577869821928697,9.849632603561426
2625000000.0,21.78,0.0,0.0,0.0,0.75537,0.475785101974951,9.84433489802505
2630000000.0,21.78,0.0,0.0,0.0,0.75537,0.4734305489154055,9.824911097830812
2635000000.0,21.78,0.0,0.0,0.0,0.7482086488182865,0.47088,9.81981
2640000000.0,21.78,0.0,0.0,0.0,0.731433497442335,0.4920697538364976,9.826873251278833
2645000000.0,21.78,0.0,0.0,0.0,0.739870302751903,0.50031,9.82265484862405
2650000000.0,21.78,0.0,0.0,0.0,0.74556,0.486575897053859,9.81981
2655000000.0,21.78,0.0,0.0,0.0,0.7387910484298105,0.4739210484298105,9.792734193719243
2660000000.0,21.78,0.0,0.0,0.0,0.722408296665383,0.44419659333076594,9.680507224990372
2665000000.0,21.78,-0.008559860197598886,-0.0007133216831332182,0.0,0.7095572482355724,0.41849449647114495,9.567692482355724
2670000000.0,21.78,-0.008559759013181688,0.0003406995267556934,0.0,0.7451679111692792,0.46381721489237215,9.548269303723094
2675000000.0,21.78,0.005376582622463766,0.007292909029767536,0.0,0.7588034480413345,0.5606420715453208,9.650588279379983
2680000000.0,21.78,0.021261680132895124,0.003832686542746608,0.0,0.6611932191632321,0.7930420137293201,9.513736438326465
2685000000.0,21.78,0.01589095765364277,0.06711755182277376,-0.004695149840813251,1.0532053550090537,0.9396021129174211,9.240920491871606
2690000000.0,21.78,0.00034060888238194274,0.1270084836791326,-0.009432823486958656,0.25014585624605856,1.0404492792502928,9.635582432251825
2695000000.0,21.78,-0.04431110916675288,0.25132455026797307,-0.013244279220167417,0.2560467581855676,0.8555280584614806,9.74603712489147
2700000000.0,21.78,-0.02577812583494985,0.288904049239967,-0.00723955743779079,-0.78285100617661,0.8475852586622525,9.482344741337748
2705000000.0,21.78,-0.07536595010764353,0.25688724752640585,-0.008410798686995695,-1.7965056677896567,0.8491527593379277,8.803586793320669
2710000000.0,21.78,-0.10154194580546445,0.19781443342858174,0.0008092603207027985,-1.7450020630610206,0.7677304420845045,9.387394359098744
2715000000.0,21.78,-0.05849222900490186,-0.016303035892507034,0.0057916548038691494,-2.559633426756334,0.6938607199082072,9.847079374161595
2720000000.0,21.78,-0.07315752500512018,-0.16524583408987545,0.008687613956346974,-1.6629762483355626,0.7628267094874671,9.142130286555503
2725000000.0,21.78,-0.09507241895764264,-0.3150001136542847,0.012083769843211667,-1.1051030103722301,0.6376478828057788,9.231705316616853
2730000000.0,21.78,-0.0932519004913695,-0.46398288564033996,0.014680353782762804,0.10537695192856944,0.3498234864335349,9.108972150329521
2735000000.0,21.78,-0.11745950473180479,-0.47558316972888637,0.01924505906084819,1.5886312937518132,1.5652969872715703,9.416136202993563
2740000000.0,21.78,-0.10524719584477109,-0.5062541962831538,0.02135306775248704,4.124935357385054,1.1866015271938153,10.74784291875763
2745000000.0,21.78,-0.11639645365934007,-0.2475879552970987,0.012592620834494425,4.408297679529078,-0.310487299774973,9.753967784815577
2750000000.0,21.78,-0.14327393327558371,0.0687051586549465,-0.000532366001025564,3.2569290806265907,-0.22072323729013238,7.8578061540875614
2755000000.0,21.78,-0.08924870344958227,0.2153625917824581,-0.0042586033748661,3.5571981601047815,0.04689297727652975,8.018994025844941
2760000000.0,21.78,-0.034606248678669,0.4033113822002221,-0.010910477950797512,1.8387731584069318,0.54308599599446,9.317154284769543
2765000000.0,21.78,-0.03633042506561082,0.49782041451303477,-0.0181165176357011,0.3943598517276985,1.1181456260314562,10.68760893740329
2770000000.0,21.78,-0.0601238819529785,0.5088508471433417,-0.01663925334353653,-0.9146975281580751,1.1550277320782774,11.192816308705762
2775000000.0,21.78,-0.08831041537261632,0.3864251685023323,-0.014426013082634956,-2.3396866170313664,1.0746865241198653,10.06799081836371
2780000000.0,21.78,-0.13682922550006196,0.23163128679652004,-0.007750581958822284,-2.6785246139247465,1.026124110064241,9.021278159926583
2785000000.0,21.78,-0.1677127079522189,0.05968041845392122,0.002746834401613893,-2.878449875428299,0.779011396761314,8.886678255996182
2790000000.0,21.78,-0.207691557242212,-0.1320941423374172,0.011313987134330225,-2.5152796646077964,0.3684591562229916,8.730119318622593
2795000000.0,21.78,-0.2537602892220737,-0.25514028080090584,0.019426055849125316,-1.7745270454439706,-0.37562864597698653,9.946860086456702
2800000000.0,21.78,-0.23456866037155907,-0.42440524078922925,0.02173633640676168,-0.5983993946050941,-0.49245808416188086,11.134350815799609
2805000000.0,21.78,-0.18298689486770786,-0.46940005166341403,0.021129461784525776,0.7903951324768513,-0.3020532235093323,11.035168230295783
2810000000.0,21.78,-0.10918974421515035,-0.45623049827574585,0.019585741723534333,1.5886375676392757,-0.25328814152248147,9.750340681486307
2815000000.0,21.78,-0.08479199054099527,-0.38136040992084486,0.015906167299206943,3.0744660291594603,0.6287260166458601,8.731399521869596
2820000000.0,21.78,-0.10166450257980102,-0.11099873453480927,0.002768003024895364,4.504753095502331,0.5642647365362473,10.15021698958817
2825000000.0,21.78,-0.14732223838585015,0.13885328445615347,-0.007079922155590371,4.194258531226086,-0.09074112819411127,9.918875965007459
2830000000.0,21.78,-0.13679828629105226,0.280525724202242,-0.007835854072412097,2.7740617406081176,0.19875274380482744,8.72875097988221
2835000000.0,21.78,-0.12906855646046872,0.47808236954166217,-0.010295167682534282,0.9838346025694461,0.3994623189364232,9.903883296927733
2840000000.0,21.78,-0.10230714376822916,0.39759123196694757,-0.0095818575934488,-0.36768095138010953,0.35080659294466593,10.285984564979147
2845000000.0,21.78,-0.10998945223269707,0.3999132156877559,-0.009911905352285673,-1.1387540837995411,0.5164973289106733,10.577336100092962
2850000000.0,21.78,-0.0944869437856399,0.2467097660986835,-0.010007705915285927,-2.178799173191592,0.6592327750096278,9.849231142747112
2855000000.0,21.78,-0.09748913287411985,0.07770824499327979,-0.005120904356263589,-1.9436551336351513,0.806579198189092,8.81879893091879
2860000000.0,21.78,-0.10243924240935089,-0.014492295942912889,0.003790169061440584,-1.9310005666562058,0.9209625777917257,9.093087366530675
2865000000.0,21.78,-0.15459916008763397,-0.18216772519555718,0.00733548658932125,-1.6343393220974933,0.7682184844881849,9.267897285330873
2870000000.0,21.78,-0.2036835353659411,-0.2516622652691116,0.014441239695941143,-0.6449065569383656,0.3908295080590951,9.227879672913897
2875000000.0,21.78,-0.2159800528243434,-0.31425099221246167,0.0191811684794176,0.00736392199393926,0.2378916623486166,9.868859553252594
2880000000.0,21.78,-0.1963967951471495,-0.3142553037813865,0.0184146016587466,0.9947373564326736,0.14165673564326736,9.800582176237821
2885000000.0,21.78,-0.16504700588069965,-0.2617654047465403,0.015248574264310323,1.595502210561122,0.18413364396233645,9.703069318870092
2890000000.0,21.78,-0.1555475278327829,-0.19297821735672116,0.010667746624733594,2.19332198925652,0.2326946595043466,9.387971498473915
2895000000.0,21.78,-0.1467322370600051,-0.06901581050486026,0.002523204191552697,2.4834993750723937,0.4440009373914094,9.068069531304294
2900000000.0,21.78,-0.14786447161270738,0.05284613728114569,0.0,2.3799039158262394,0.5120826196192262,9.174315717715357
2905000000.0,21.78,-0.17480334406198458,0.21242055116256958,-0.0006068693522141716,1.8807668802723687,0.585362305017023,9.783613864880838
2910000000.0,21.78,-0.1904250425688738,0.26572363516377584,-0.0030023092449753194,0.844243908569539,0.5138472912906729,10.181799282616293
2915000000.0,21.78,-0.21891858637436193,0.270354737376511,-0.0017673081108787177,0.03482068726790685,0.3980883278701833,10.151974221944142
2920000000.0,21.78,-0.22191024912144014,0.23755948521973996,0.00034070058076003917,-0.7420314627448146,0.15970583580255837,9.745644074582641
2925000000.0,21.78,-0.2264164327952813,0.11786789070705181,0.002129301687433,-1.1502210796346106,-0.021583590809235914,9.451936704438467
2930000000.0,21.78,-0.2400266803287849,0.056046337086119384,0.002427416276604567,-1.0008186472045866,-0.28390259514642596,9.755654819557648
2935000000.0,21.78,-0.226545894369366,-0.06235622870357703,0.004673835764932077,-1.224576086034961,-0.4406642878583429,10.122940710265608
2940000000.0,21.78,-0.2034659853268182,-0.1381938110947827,0.0074525559060157,-0.29665451421194516,-0.27350131524471316,10.343662286820823
2945000000.0,21.78,-0.15483417347551498,-0.15084603834589586,0.007803909308698958,-0.23622068137740676,-0.03610011356290114,9.987555851721758
2950000000.0,21.78,-0.14179236216615332,-0.20272144546909882,0.01043356583117081,0.4649982402155824,0.08142374490273745,9.274378240215581
2955000000.0,21.78,-0.1512782642579631,-0.15976530794329577,0.008804681165032816,1.1156911278080113,0.20238070178130702,9.939198446165285
2960000000.0,21.78,-0.14258027889885325,-0.178197904376336,0.011540802666475797,1.1673957494448575,0.2609457125277571,10.058389429977794
2965000000.0,21.78,-0.16540749630882665,-0.13883903915545068,0.009432793974836942,2.039005908379459,0.21994054554940545,10.123333818845838
2970000000.0,21.78,-0.1703424835771817,-0.06159540722603757,0.0074525559060157,1.649651676792717,0.2558429539620295,10.424686581272566
2975000000.0,21.78,-0.18727143661565296,-0.10157907319493975,0.007239600651968965,2.0027139847896396,-0.03924,9.173334582719946
2980000000.0,21.78,-0.2218666824220048,0.03212649258514468,0.003151360215535035,2.3653815853563156,-0.03963245788292458,9.755064578829245
2985000000.0,21.78,-0.1779972481089343,0.012308738362331907,0.0020334642342806812,1.4760173543635735,-0.047283852119738526,9.832167237157472
2990000000.0,21.78,-0.18056253102224623,0.06806809095510521,-0.0010007528842555459,2.2286276111200767,0.015894000392040003,9.299493291561934
2995000000.0,21.78,-0.15440837469188212,0.16640215255548593,0.002107996043586607,0.8728936836514368,0.312742101908621,10.233983662406036
3000000000.0,21.78,-0.14913866937143389,0.08203112020541072,0.0,0.8534687763005877,0.1962,9.476462156041821
3005000000.0,21.78,-0.1966034224528428,0.18959139975829414,0.0,0.6495188742610888,0.1962,9.835802459635225
3010000000.0,21.78,-0.17724155553749288,0.0674918311677218,0.0010433641719483318,-0.43890600661716006,0.24426929232819292,9.983637876984579
3015000000.0,21.78,-0.20163891378723062,0.05465143131123631,-0.0010007845043859206,0.3477694778343947,0.04541907018209071,9.47272903761109
3020000000.0,21.78,-0.19831754864916584,0.036940134354780406,0.00404570503705404,-0.3712150341302505,0.08632829329938294,9.626357855877778
3025000000.0,21.78,-0.20826147676148624,-0.06194235400933853,0.0042586033748661,0.1569635254197353,-0.1540185276818853,9.33519411977614
3030000000.0,21.78,-0.2017882911535624,-0.05209623703378365,0.007260937915945731,0.15872562343765623,0.008437718228177182,10.029552331766824
3035000000.0,21.78,-0.17756179046403392,-0.1521802736954124,0.012403214318329506,0.5218943580493436,-0.01687343580493436,9.737305718804357
3040000000.0,21.78,-0.20321375127036004,-0.11569200258045376,0.008857869386335898,1.1179513200462132,-0.09182207238682072,9.910455699063757
3045000000.0,21.78,-0.18911364561014635,-0.14675222708180402,0.014330238869743368,1.2298801140183013,-0.1070271591454716,9.767031135381512
3050000000.0,21.78,-0.1970808982056132,-0.10705297079458233,0.007239574301860354,2.0218462725905626,-0.14322623697036238,9.486268222722282
3055000000.0,21.78,-0.1848660567707604,-0.0415848495865622,0.007335450753173438,1.89087601650726,-0.08603328462203283,10.277550177932701
3060000000.0,21.78,-0.17198187455863886,-0.0340862802914492,0.006515656713038584,2.0710886264838866,-0.035315702815857025,9.714249823364197
3065000000.0,21.78,-0.19175266673660687,0.09473876667673067,0.0008303888918190575,1.868901492583415,-0.037964759533947595,9.965000381357903
3070000000.0,21.78,-0.18761097457778336,0.07916439807948164,0.0018312123943657467,1.3282704221360042,-0.07298663852426637,9.906333424796134
3075000000.0,21.78,-0.2063425661947079,0.14141229846263415,0.00031938228886149635,1.262547119456371,-0.18688127646641275,9.713370245708102
3080000000.0,21.78,-0.21075270246118682,0.13998228993695164,0.0008943132013886303,0.32607757991527586,-0.33785735720487353,10.292264027072541
3085000000.0,21.78,-0.2171087070279555,0.06315576319053938,0.0019483175472080087,0.2204312393018124,-0.5909560778278609,10.172281562249715
3090000000.0,21.78,-0.20702633333680298,0.044437801923257435,0.005621382509810713,0.2032629599218296,-0.5491631397850314,10.172185560117255
3095000000.0,21.78,-0.16052580140085987,-0.04347401841421906,0.002938410231509975,0.037276797666767975,-0.33108599708346,9.872879755450198
3100000000.0,21.78,-0.13826489174828527,-0.07072777488643368,0.003832756107033368,0.5964525762473257,-0.16676909679329094,9.78449387957244
3105000000.0,21.78,-0.13949966208998757,-0.08926656640421758,0.006781845510575247,0.7610599206217993,-0.1218400793782008,9.881319484041695
3110000000.0,21.78,-0.16388694950098867,-0.10953349786636755,0.004130819049992018,1.2395953452971535,-0.2631053477523535,10.007574185304241
3115000000.0,21.78,-0.16798949160143978,-0.060660934472015794,0.005653315679476014,1.56224401262844,-0.2587874369691744,10.141382647071925
3120000000.0,21.78,-0.15753194298994166,-0.05283746552086614,0.008006187498722592,1.5515490545796906,-0.24525,9.874743575909736
3125000000.0,21.78,-0.15206615464055442,-0.00026134452444828704,0.00292774370753032,1.7731595030793952,-0.10545634671186346,9.861503167693131
3130000000.0,21.78,-0.14022489561187448,0.015740057423818947,0.003428195510968818,1.3314088226523884,-0.05886,10.048188137522882
3135000000.0,21.78,-0.15267909839260116,0.010241901464909595,0.0011497964767848536,1.4843539619998398,-0.07318272178722722,9.502745684936457
3140000000.0,21.78,-0.16793147137496764,0.05300254285212787,0.0038327761331160026,1.2768667334355674,-0.10673304396293044,9.753498486379085
3145000000.0,21.78,-0.17831668415201743,0.032494033887655045,0.0030555280324044073,1.078118389121484,-0.26398838284488385,9.909669355648592
3150000000.0,21.78,-0.19152903441853703,0.059556248776475446,0.0028745639182619987,1.0771382447398825,-0.3924006118497061,9.89142293881503
3155000000.0,21.78,-0.17541919159600408,0.03365879885035396,0.002459336798217724,0.6827723230746232,-0.34060246461492466,10.24723494795075
3160000000.0,21.78,-0.15314135185175523,-0.0013628929674139416,0.002129301687433,0.7671444551683446,-0.30411,9.801361614492016
3165000000.0,21.78,-0.14415579194693198,-0.012083820435420254,0.004269269898845826,0.7415364860444649,-0.2646734311420343,9.568282091810621
3170000000.0,21.78,-0.14134512704213525,-0.050402663974040404,0.003917901740101749,0.9131171397909714,-0.23230067685310676,9.587705338426554
3175000000.0,21.78,-0.15722989162542345,-0.031844915894358054,0.0045780120138363065,1.2630396584697965,-0.32765498672904986,9.896821521857715
3180000000.0,21.78,-0.16686535154293203,-0.014447862471772474,0.0039604877316902366,1.3015899970201,-0.4139823088384231,10.504552323737924
3185000000.0,21.78,-0.15785359209657582,0.004827614532460705,0.0038646892766986776,1.3113032567832326,-0.3636560194871602,10.405659735570998
3190000000.0,21.78,-0.14639152488519722,0.016391776544332583,0.0035985131272141435,1.1128440454469404,-0.3541413098096131,9.849628806208488
3195000000.0,21.78,-0.14469881076988075,0.0062349130830967,0.0018950650316398691,1.0070949723542497,-0.3667958379409584,9.376101031461209
3200000000.0,21.78,-0.14977721556291218,0.0063879725185773725,0.0036198398511474734,1.0653663729369638,-0.5572100511533006,9.558867667213477
3205000000.0,21.78,-0.1460508295744589,0.0031086993896380644,0.0028106512027402148,1.1467896225327963,-0.594092603947526,10.380752149834523
3210000000.0,21.78,-0.12809061202291158,0.008378393686237521,0.002917163611906968,1.1642505505984055,-0.42163261534242613,10.825139174102393
3215000000.0,21.78,-0.11763919906444945,0.002626396780769107,0.0036517456166997512,0.9464665518893656,-0.34335,10.413702529093625
3220000000.0,21.78,-0.12971161639963988,-0.01580928750487163,0.00438637505168811,0.926457901071279,-0.44772958834809584,9.667161646607616
3225000000.0,21.78,-0.13720466851764407,-0.029401898159032786,0.0053232542185827,1.0947967517010675,-0.572904501134045,9.322933312074733
3230000000.0,21.78,-0.13298079726418044,-0.031126503283840704,0.004173417689632678,1.2537192547774927,-0.6664920901276209,9.802354034715341
3235000000.0,21.78,-0.11521300712620439,-0.01132524364156223,0.0031939525311496,1.4375585310478853,-0.5913452919361529,10.575576672847566
3240000000.0,21.78,-0.09455068680646204,0.008176579949276425,0.0031939525311496,1.398119689605297,-0.3939685301370853,10.65954316800993
3245000000.0,21.78,-0.08678944359368179,0.022558329290028257,0.00210799498958231,1.2100625545465258,-0.30891683696976835,10.057403283641932
3250000000.0,21.78,-0.09427407601395392,0.03461863996844869,0.0005323185708300021,1.030048611198286,-0.3139201262547013,9.427406717377767
3255000000.0,21.78,-0.11272238789369289,0.03415011817266245,0.0,0.9365608896734089,-0.4919737128564372,9.388663345101135
3260000000.0,21.78,-0.11790530670365146,0.02782609209774593,0.0,0.9233168200704682,-0.5917381868545819,10.09881292212363
3265000000.0,21.78,-0.1034071366390105,0.008984043382635955,0.0015011783375854465,0.8097162584632626,-0.4962877097438771,10.674948397605784
3270000000.0,21.78,-0.08875901303051457,-0.022238131253639423,0.002704206249851542,0.8560225689906258,-0.4626393459366935,10.339538274123083
3275000000.0,21.78,-0.0841597765311665,-0.04506013472873796,0.0035666010376357604,0.9805089274834893,-0.40613349109643493,9.666770946578609
3280000000.0,21.78,-0.08181751010364757,-0.0560781684838896,0.004854800933078887,1.1520896492132966,-0.40181817339058173,9.394840608869806
3285000000.0,21.78,-0.07975213588779713,-0.037207811181829475,0.0033429897996527626,1.491317093300571,-0.42594981715689817,9.707392376960325
3290000000.0,21.78,-0.08454310631769323,-0.004322433878048938,0.0003406605285948981,1.536637888765579,-0.42536211123442114,10.374274778640949
3295000000.0,21.78,-0.08904651695793679,0.019220918767346884,-0.0003832465201833843,1.5192751480099516,-0.46283567199715675,10.451570159914702
3300000000.0,21.78,-0.0913994509634398,0.057100358762534775,0.0008516998056871527,1.2890295772006959,-0.5022728332810283,9.974805884748159
3305000000.0,21.78,-0.09171872785186674,0.06620285201749196,-0.0006494300476983391,0.9096817493696175,-0.6170496419565965,9.68874685930417
3310000000.0,21.78,-0.08320155588427783,0.05969799568698493,0.0,0.7577210567755106,-0.6657064071216642,9.76507399327394
3315000000.0,21.78,-0.0700465203179115,0.03857252977116423,0.0,0.47048811511918115,-0.596643298541433,10.243702224866622
3320000000.0,21.78,-0.050967760956906014,-0.01635950222283443,0.0,0.579968296279283,-0.4783350196168502,10.334636736415467
3325000000.0,21.78,-0.053959604992731704,-0.04303562436504746,0.0007452696088593493,0.7347699041778991,-0.46989990417789906,10.058191579149016
3330000000.0,21.78,-0.06891785127184473,-0.05784541230050327,0.00285327830049814,0.9641295166126953,-0.6158728995813291,9.881219888506198
3335000000.0,21.78,-0.06962042948868104,-0.043083402036468266,0.003204577948959772,1.2587215534486158,-0.7194652704432527,9.97834296847543
3340000000.0,21.78,-0.05470959864906906,-0.010019374831956033,0.0007239555329781899,1.3361226487549267,-0.6466739673656396,10.376626767758868
3345000000.0,21.78,-0.031190345381071315,0.021948083115235217,0.0,1.3115950508216505,-0.48343602032866023,10.344641751369418
3350000000.0,21.78,-0.024610937215175828,0.05144547344596394,-0.0006388046298881339,1.040839503396195,-0.4139822602789226,9.876705136931852
3355000000.0,21.78,-0.03446407574305864,0.06834293300736974,-0.0012030342362921637,0.8003960101613601,-0.5211090246717902,9.642839164004391
3360000000.0,21.78,-0.0476035487797501,0.06062969058663518,0.000766541524566676,0.5077634462890345,-0.6859144820963449,10.018761760061619
3365000000.0,21.78,-0.04126978570901433,0.008285689304200046,0.0014373141062635657,0.27732876536108764,-0.5578934581393346,10.563506296083265
3370000000.0,21.78,-0.013099778870173896,-0.08296415336228372,0.0053232542185827,0.3533579673715797,-0.44478598912385986,10.29421413776444
3375000000.0,21.78,-0.01997973487202775,-0.17550220224823668,0.0053232542185827,0.762733203313332,-0.5297405244426052,9.496080786663908
3380000000.0,21.78,-0.0244149405973144,-0.24628693703277066,0.0053232542185827,1.7348096569946967,-0.5509285495608855,9.72563793914668
3385000000.0,21.78,-0.006973355992202019,-0.23269341412920885,0.005078377388918461,3.0139329407059297,-0.40230724525567246,10.177482731499127
3390000000.0,21.78,-0.003347107898304502,-0.12254987622365218,0.00285322138426351,3.781166531693366,-0.37533277294052775,10.255179709553797
3395000000.0,21.78,-0.02804585146820774,0.07134231213754248,-0.002576469355172967,3.656378715821487,-0.6237196681123968,10.209258427305786
3400000000.0,21.78,-0.013205426425578055,0.15233344862212334,-0.004471540710838971,2.905714471335045,-0.614106198122762,9.248869584982096
3405000000.0,21.78,-0.04028239029094837,0.2965629376760345,-0.006536999247037118,1.841429081438391,-0.7215284762117848,9.560241765110618
3410000000.0,21.78,-0.017474441652783664,0.35101897458602355,-0.011519514940703291,0.8640552621371524,-0.990806688242067,10.25773489104555
3415000000.0,21.78,0.006337891657594593,0.34496272643617965,-0.010103514910320905,-0.43606013824360146,-0.5702545703449458,10.996027010031671
3420000000.0,21.78,0.035917422067523824,0.2352024969260451,-0.006771150528478223,-1.2333176507695767,-0.4602843364178434,10.599502356348525
3425000000.0,21.78,0.025087196491422253,0.09778769460303674,-0.0025551331452006096,-1.754517102943171,-0.3825913305303133,9.73544107283331
3430000000.0,21.78,0.002469903191784576,-0.08943359001497954,0.001959000935257262,-1.4599184037437842,-0.574082399225424,9.394645865849059
3435000000.0,21.78,-0.00782514749626727,-0.21146082358320523,0.0075909677567087145,-0.634113596105736,-0.714461699513217,9.650592504056526
3440000000.0,21.78,0.0021742868002577872,-0.3338985094935585,0.008772737455324071,0.14872915495579153,-0.6317636659106367,10.315412603175325
3445000000.0,21.78,0.04236058816298418,-0.36482890809817414,0.010412270727367874,1.496522526074125,-0.5842833323400334,10.484829163935093
3450000000.0,21.78,0.050180041323018745,-0.3260757985961573,0.008197789678727382,2.526082706392727,-0.5101173195155733,10.36033905664879
3455000000.0,21.78,0.058706090719964785,-0.2313480581007909,0.004939950782164623,3.6102814345199143,-0.19404461858764618,10.075162085395421
3460000000.0,21.78,0.03664129644216747,-0.02875652882722491,0.0008942921213017139,4.221824341714344,-0.573689203238092,9.724059561142896
3465000000.0,21.78,0.01697733392867432,0.10380967992259346,-0.0014373151602678717,3.21757900595089,-0.6347076730346768,9.118889874725397
3470000000.0,21.78,0.016945511429465286,0.2419670183373873,-0.00645179142771235,2.754639911929599,-0.7277060022017601,9.761936729049868
3475000000.0,21.78,0.032862929136501996,0.31174557035285116,-0.007718755243595853,1.5813628203120285,-0.7391812725757128,10.57861802234628
3480000000.0,21.78,0.051479775689102246,0.3206909569511486,-0.012648030015741675,0.2758506433020064,-0.4288927268362273,11.173192462793326
3485000000.0,21.78,0.0841696568888556,0.2160198367021816,-0.009422123234839867,-0.6444204569147046,-0.3682686184549862,10.42390208311842
3490000000.0,21.78,0.049625839202943195,0.10355601257573373,-0.0041734018795674425,-0.8609247865312479,-0.5472044437734446,9.345400569250005
3495000000.0,21.78,0.027890319649549498,0.009740405022213081,2.1307751855084553e-05,-0.7437929780487298,-0.9216491605690915,9.659617248374174
3500000000.0,21.78,0.04687978730452281,-0.07990177851764885,0.0021293164434938415,-0.5689764648683647,-0.8730883004174831,10.310313263198433
3505000000.0,21.78,0.08167920947633117,-0.16638197115414383,0.004237325135132697,-0.0639576598181767,-0.630290797989508,10.776484467860145
3510000000.0,21.78,0.10394114458874051,-0.25075832899076683,0.006345333826771553,0.5564275633624756,-0.42594876827168765,10.223585645702757
3515000000.0,21.78,0.09922454892150283,-0.2628059933967497,0.005355186334243644,1.5681356688390569,-0.6121453654931537,9.612716598696565
3520000000.0,21.78,0.10110903280351506,-0.2027900658863919,0.00021289306779033543,2.4842908269470083,-0.5615239897693399,9.914380724640408
3525000000.0,21.78,0.11233645383521529,-0.10513618983494533,0.0,2.8846331702869317,-0.47529388377993886,10.030235253157851
3530000000.0,21.78,0.12092903647894691,0.008003836775292456,-0.00400311693745686,3.0328605599242056,-0.32333650294376504,10.256945245584353
3535000000.0,21.78,0.10063099020375176,0.09812495672788175,-0.0042586033748661,2.4754511428857113,-0.3230433686631337,10.234576525347466
3540000000.0,21.78,0.09220848467320818,0.1661439470460458,-0.008176548329146077,1.882338605624586,-0.3778816125615161,9.816667637028377
3545000000.0,21.78,0.09064349269650947,0.19089030040693997,-0.007548367009059383,1.0399519716939198,-0.34688132457051324,9.744861324570513
3550000000.0,21.78,0.09342226132179302,0.16691959682692137,-0.005536169420464289,0.5817300349569005,-0.546418585953286,9.856107896408378
3555000000.0,21.78,0.08805635365534363,0.13465401375051506,-0.004375707473704027,0.07680864026468642,-0.6126348452580486,10.532413647922336
3560000000.0,21.78,0.09297513054420514,0.038222665434719,-0.0014479026339216253,-0.22210033616440342,-0.6180300000000001,10.398598271281783
3565000000.0,21.78,0.11320814734307721,-0.033741535375062914,-0.002917158341885269,0.02658738511297387,-0.5838909230166093,9.694923229578032
3570000000.0,21.78,0.12527282764705525,-0.07284854624023594,-0.00044713077758785653,0.23740338685933388,-0.49442330657033307,9.6954200321156
3575000000.0,21.78,0.1403525102938852,-0.12393970530884912,0.0,0.6651213331241133,-0.5057057083202571,9.786947124960772
3580000000.0,21.78,0.14364479377600917,-0.1079253720058869,0.0017886285107859522,1.1807353550090536,-0.39475342647913425,10.072125494727755
3585000000.0,21.78,0.14734980139431628,-0.10155615620307251,-0.0014053693425504182,1.5097610890297108,-0.3646376303656763,10.457757155007272
3590000000.0,21.78,0.1480737337391989,-0.08111470105985952,-0.002129301687433,1.7850295524803956,-0.3066601118799011,10.333067526445374
3595000000.0,21.78,0.14376185993069068,-0.03356020795771763,-0.0012669269257313885,1.890093188799932,-0.38170786811417867,9.813919810286299
3600000000.0,21.78,0.1299605928051253,0.002126038818274844,-0.005323292162739109,1.824659300743193,-0.4728426293311263,9.560824741337749
3605000000.0,21.78,0.1267632635723481,0.03712777501625451,-0.005546823296391831,1.7352902697948027,-0.4672500899316009,9.851008740957589
3610000000.0,21.78,0.1433855826254719,0.06384641358576923,-0.0053232542185827,1.5713644677215448,-0.4687218701199187,10.228301064556911
3615000000.0,21.78,0.15545183267021725,0.07498917197757286,-0.006143042988695825,1.2206554211014544,-0.3424659063103591,10.431170323472603
3620000000.0,21.78,0.16331958723815995,0.07507567145330526,-0.005578762790083196,0.9343025718319258,-0.28174298905752987,10.183954528062046
3625000000.0,21.78,0.15712318949547438,0.05619506283586273,-0.0053232542185827,0.6082174651940746,-0.38504355616913555,9.792829613137696
3630000000.0,21.78,0.14264389965517124,0.032727896596529304,-0.0053232542185827,0.5852652345755524,-0.5016841755923418,9.924583056268633
3635000000.0,21.78,0.1563675400518174,0.009522522228734571,-0.0022144431044839974,0.46499258788972586,-0.4724490351558903,10.06349096484411
3640000000.0,21.78,0.163745401831858,-0.04359111357993817,-0.0018312071243440176,0.6027283089710832,-0.5430825191342252,10.070553458594736
3645000000.0,21.78,0.172370895968633,-0.04136269942322644,-0.00439703103562433,0.8858451239925513,-0.3976955592064556,10.204363415995035
3650000000.0,21.78,0.1973969616594136,-0.0837239676781951,-0.002342201079249462,0.9093863619281637,-0.3374641417937414,9.938507667847077
3655000000.0,21.78,0.19269467487871458,-0.06797529437360558,-0.00400311799146125,1.559797099398971,-0.31627411602404115,9.691886464096166
3660000000.0,21.78,0.19729004010649423,-0.027235259179750757,-0.003875313640504569,1.3702555392579554,-0.21738867581558674,10.016798781102088
3665000000.0,21.78,0.19668754919200518,-0.02811372039768094,-0.005333923904575396,1.7755188052580881,-0.17658,9.857378669400386
3670000000.0,21.78,0.19176314143179565,0.046065008338016696,-0.0063879050622992,1.5650816258869162,-0.060035916863759156,10.333272457249326
3675000000.0,21.78,0.19344534396177124,0.018105270458999484,-0.005003843471603801,1.2120245720279457,-0.13390799903178,10.02581286175343
3680000000.0,21.78,0.18130813820623518,0.06604771987382593,-0.0063027562672178,1.280402486632525,-0.042769741530797406,9.6008498707654
3685000000.0,21.78,0.17163059388225546,0.027407298797194557,-0.004769604707801942,0.7073917275995173,-0.2846900651420007,9.77125300518463
3690000000.0,21.78,0.15855639015107267,0.02741972187989221,-0.004514135134462267,1.1668112193137126,-0.45027864163088643,9.594176416308864
3695000000.0,21.78,0.1688133426079743,0.024148835117957276,-0.0033749198073050363,0.6841374860236751,-0.4615608588547086,10.538798464707984
3700000000.0,21.78,0.20814830990452154,-0.010018338227321306,-0.0066008898284675935,1.0908847206467471,-0.19227247846502482,10.302450285506103
3705000000.0,21.78,0.21809867744775333,0.011427212479896785,-0.00518479493769406,0.7609489621631897,-0.12733538323395382,10.027492233806324
3710000000.0,21.78,0.2163102281177061,-0.019943836555292235,-0.00706934416797576,0.8001131122234313,-0.17030102350161025,9.290842261160023
3715000000.0,21.78,0.19819023992215432,0.04934078982701856,-0.008219073188482508,1.103523797145038,-0.2827260761448608,9.306462152883721
3720000000.0,21.78,0.19886373280267391,0.07865363515887307,-0.008772754319393604,0.7902918658431187,-0.3209822606650226,10.326012141805622
3725000000.0,21.78,0.21960004656012533,0.09928212632791958,-0.008889810988035936,0.6003708423415085,-0.07062939526839396,10.811602591780428
3730000000.0,21.78,0.2281372540963239,0.09275859174449763,-0.0074525559060157,0.010587699824077035,0.07769505509845054,10.54849187334732
3735000000.0,21.78,0.21373104641193974,0.033447332316970016,-0.004631191803104553,-0.18726949024899492,-0.019719333314193344,9.383743529597535
3740000000.0,21.78,0.1920056627863708,0.0012765672641685544,-0.002129301687433,-0.08789927083529273,-0.18992290761022906,9.199433808886438
3745000000.0,21.78,0.18806886568573766,-0.04145224260432814,-0.0010433420378570695,0.0589618098487181,-0.3797466275847663,9.87160883677969
3750000000.0,21.78,0.20292961407472104,-0.07244003302420197,-0.0021293333075634246,0.38749623826726237,-0.3433479605009796,10.66838483329885
3755000000.0,21.78,0.23658790795332085,-0.10551493439155006,-0.0021718560588911626,0.5333706481728064,-0.10506356833623569,10.888308489853985
3760000000.0,21.78,0.2532374133033903,-0.1437636827534523,-0.0010220806621932012,0.9515754775116548,-0.04237985730139857,9.641648203407382
3765000000.0,21.78,0.24513704674959905,-0.11916451982082361,-0.003630483187031531,1.4355970088733703,-0.05140381495513814,9.043352522183426
3770000000.0,21.78,0.24336976604283325,-0.06966299229217393,-0.004343759547977939,1.7620756417031564,0.021778712594087132,9.442126830693168
3775000000.0,21.78,0.23004289115440643,-0.0020785327344000695,-0.005110355880770589,2.04195201327392,0.0456162800254628,10.170527398854174
3780000000.0,21.78,0.22851901457405238,0.08803325848490567,-0.006984101566507586,1.7689339136185391,0.13734183554911836,10.790998164450883
3785000000.0,21.78,0.23675057183925455,0.12119225351986994,-0.00867694427035425,1.1160792153358923,0.17343903554199036,10.27822475680155
3790000000.0,21.78,0.22201670988439395,0.13793087925706837,-0.010816836593454116,0.6225398762004988,0.09692383062683829,9.4797900260172
3795000000.0,21.78,0.21084114256626496,0.12286643348712795,-0.01001837243926559,0.15862305606073057,0.03982609374706095,9.164994342833044
3800000000.0,21.78,0.19984031163073165,0.09246727916373244,-0.010220640089245732,-0.017654457098844584,-0.21189703334617033,9.57260294529953
3805000000.0,21.78,0.21543728801644194,0.05682694144768566,-0.007920970193358735,-0.052685834327458325,-0.2445623392017234,10.437554790629848
3810000000.0,21.78,0.23878782794920253,0.0029140810293281916,-0.004109528162206468,-0.3219596857145969,-0.01019929180349291,10.722517245433872
3815000000.0,21.78,0.25834971223253306,-0.05898066032074532,-0.0017353728332047363,-0.052583674850336735,0.16902474386224742,9.776053102095732
3820000000.0,21.78,0.2571952415747709,-0.10001481477070817,-0.002214497912709962,0.04630891331658915,0.12046850657508505,9.290459728838997
3825000000.0,21.78,0.249491972678798,-0.12911661416874906,-0.0027680599411299828,0.6258800802890008,0.16529634541496344,9.294489477834395
3830000000.0,21.78,0.23517205963044907,-0.11515869048093719,-0.0014479574421476299,1.0345677331276772,0.04708948786309487,9.938515835555059
3835000000.0,21.78,0.24149589176856603,-0.09827659028554886,-0.0049612891001456876,1.50720899592219,0.1474436295875363,10.430582238786023
3840000000.0,21.78,0.2435671989921579,-0.02317262387823489,-0.007069297791784544,1.5786256475243565,0.1573540409226404,10.389962799343827
3845000000.0,21.78,0.2575095796407359,0.02273721577153877,-0.007527057149195666,1.4513853923518538,0.2463276809942768,9.789590121453202
3850000000.0,21.78,0.2421346900744281,0.052515707195191504,-0.006920271063324824,1.1144168973795692,0.19423994432239944,9.279277728712277
3855000000.0,21.78,0.23357492157520726,0.09460391191791725,-0.009102724081908885,0.9663770348212704,0.2788958290012583,9.40720783957248
3860000000.0,21.78,0.22784222919130148,0.09165506493537486,-0.007111916457507774,0.51208499903475,0.07926562473455624,10.0501499996139
3865000000.0,21.78,0.22131393456874499,0.10027844365087024,-0.009986376029339557,0.5032447419713475,0.09074062317530622,10.343276704963166
3870000000.0,21.78,0.22306492403142147,0.06385325668306634,-0.006153706350662506,-0.12634813945338141,-0.0015670442163704251,10.570071132649113
3875000000.0,21.78,0.25805576287846976,-0.005593951925759495,-0.0069201814729553945,0.1471445807597458,0.22562939786219396,9.76585304305213
3880000000.0,21.78,0.2676825191045507,-0.0379704861346505,-0.0036624479768271735,-0.1306611360151113,0.21150503192255032,9.42151910131759
3885000000.0,21.78,0.2625574686062084,-0.07583643974682214,-0.007047939447720858,0.5655431042341311,0.30803249077072486,9.155778419761985
3890000000.0,21.78,0.25446729254656525,-0.04946794460028044,-0.0023635330732044626,0.4306661780653618,0.20660033784740336,9.953228266757483
3895000000.0,21.78,0.25355080561643945,-0.07299051716986582,-0.00297036764327526,1.1060756086074561,0.3269652572960526,10.283728607129385
3900000000.0,21.78,0.23968614838872024,-0.009376311851723185,-0.003193993637319027,0.9378369847866699,0.1589235908092359,10.530048848808189
3905000000.0,21.78,0.2504317999995204,-0.04000546049797742,-0.007047972121855549,0.9839407245018073,0.3460977101992771,9.84727193200482
3910000000.0,21.78,0.2618483394413451,0.0030415701120341063,-0.006089835795314535,0.833853797352938,0.44498175189411754,9.185101860794118
3915000000.0,21.78,0.26840640718125086,-0.0027440524003400323,-0.009400858697162968,1.132657885260979,0.4694088802208888,9.182852099136621
3920000000.0,21.78,0.25422239078365066,0.06131313553169684,-0.008857911546509738,0.6921967217931673,0.47558712489147126,9.833155102499651
3925000000.0,21.78,0.2355871687020067,0.0451140072926004,-0.010007684835199012,0.9417554256950542,0.3222599485298995,10.266658320821383
3930000000.0,21.78,0.23440283841214513,0.1064601754068891,-0.0063879050622992,0.38376399390753996,0.428497899249679,10.48315708551917
3935000000.0,21.78,0.22323277246105974,-0.0013256533005576495,-0.006664730871693906,0.08937269233472692,0.14617129297961293,9.82353214398362
3940000000.0,21.78,0.23589600883940134,0.0527044472350346,-0.008006141122531375,0.395140601088406,0.37160081022590813,9.233174678542046
3945000000.0,21.78,0.24948294025896578,-0.05345473032787679,-0.0047270830104785356,-0.18324221778812216,0.19679212483702124,9.526686586984866
3950000000.0,21.78,0.26823614542723584,-0.004158115758212644,-0.007771892872690396,0.7288778594912786,0.5729020051757201,9.561815209469152
3955000000.0,21.78,0.26593648290937927,-0.08248295329379676,-0.00173543923547855,0.25300996356799965,0.3795520496663205,10.458829251658994
3960000000.0,21.78,0.2609524453889466,-0.015461890350697302,-0.007835763428038364,1.3157067391181674,0.7188741847795419,10.000316307547463
3965000000.0,21.78,0.24790513725685512,-0.05523423297529777,-0.0006708052558315772,0.19542721439737215,0.4230084322458843,10.17904187994072
3970000000.0,21.78,0.24375300729299493,-0.008409401422808417,-0.009134645657526311,1.5315257873519579,0.5548517493003176,9.007156231673862
3975000000.0,21.78,0.24037803056945514,0.025248587623911484,-0.002501988138075635,0.23299792329677924,0.34678558465935583,9.775170562310107
3980000000.0,21.78,0.2338518886211843,0.0016201943830279734,-0.009241102204462765,1.4310709720711097,0.5948777042394771,9.351294527180945
3985000000.0,21.78,0.2474261534139322,0.06354974947936513,-0.0013841301009778237,0.01874460817284608,0.5133581514422816,10.56703297836553
3990000000.0,21.78,0.2567634317352388,-0.015261499243143016,-0.011540747858249817,0.9240950249133503,0.6199927750096278,9.98442094748941
3995000000.0,21.78,0.2586539613861787,0.07103466945275724,-0.0032685370406728195,0.06347434710984347,0.713086494459465,9.871699390536193
4000000000.0,21.78,0.2375566210061271,-0.06710683831784624,-0.010646466276991567,0.5199321754656218,0.4120220200752202,9.18216108773281
4005000000.0,21.78,0.21962126836742937,0.06682082864029004,-0.005376444547894477,0.7918653781849538,0.6645314226003143,9.318127689092476
4010000000.0,21.78,0.22152697941316113,-0.0644033744326293,-0.0021931553787114338,0.03511364673433637,0.25368325075413245,10.136679620602296
4015000000.0,21.78,0.23914271466819195,0.06514794169446164,-0.0062601808156728025,1.2471553602659537,0.6639442314085424,9.801266214497362
4020000000.0,21.78,0.2621884337277037,-0.03404245617305085,-0.003321685209810763,-0.30647759614137593,0.6109662534142625,10.52495889052679
4025000000.0,21.78,0.27324010589332204,-0.010008352883887892,-0.009262513248743743,1.0903937743849377,0.8225702981583031,8.822118458371985
4030000000.0,21.78,0.24973721331274917,0.010497618729270564,-0.0025763955748687563,-0.1420599154638993,0.7785211303325114,9.96657808924058
4035000000.0,21.78,0.23731180123092754,-0.07942984454694117,-0.009060238220733189,1.0790131076298313,0.7658666216249663,9.178719054371792
4040000000.0,21.78,0.2031734885289736,0.05091942858546045,-0.002725446545428464,0.5544557854214579,0.5846744305569443,10.0882200749925
4045000000.0,21.78,0.22352871073860225,-0.06025700510360306,-0.006973505660819045,0.5717274285541744,0.6225430714156308,9.949790535768207
4050000000.0,21.78,0.2219953747284259,0.051238732739770226,-0.0074525559060157,1.082047483984275,0.548378292002483,9.618702246676323
4055000000.0,21.78,0.24527377708322778,-0.0070816253747769675,-0.00650500810713277,0.13389744219637456,0.792748384141784,9.933609150540391
4060000000.0,21.78,0.2632090527796082,0.020582652865622,-0.0063879050622992,1.0198568266935684,0.8326728788606289,8.940824536724547
4065000000.0,21.78,0.23559980151429039,0.0515193925331698,-0.0063879050622992,-0.01168471721144737,0.9277325685352258,10.233412864901629
4070000000.0,21.78,0.2284220345110741,-0.020643768789251553,-0.0073035133674907654,0.6404045473769455,0.8067731351221314,9.15683810460538
4075000000.0,21.78,0.16639299768108326,0.06386862569063181,-0.004737670484132284,0.3413838840967388,0.5763355212003552,10.205845451949855
4080000000.0,21.78,0.21817234402316385,-0.02462202613571679,-0.0042586033748661,0.0423770602741706,0.7126000642312007,10.090170350786703
4085000000.0,21.78,0.22567137815147215,-0.004069537025644901,-0.006025940997866583,0.6269632096592321,0.6315666891528668,9.27672110014741
4090000000.0,21.78,0.24922243769392347,-0.02194637787443382,-0.005514882748696121,0.1600933211926332,1.002389692723797,9.863373708787536
4095000000.0,21.78,0.26150432182251493,-0.051859035377371854,-0.0053232542185827,0.6810167223178674,0.9299864091907641,8.968978121118582
4100000000.0,21.78,0.21454934136415593,0.013209369559508327,-0.0053232542185827,0.7004326461611265,1.0261273538388735,9.79627691034857
4105000000.0,21.78,0.2024058333537823,-0.004446938918943075,-0.004482171398670906,0.5043304255713043,0.8657305066325052,10.134809817612298
4110000000.0,21.78,0.1749878210171028,0.024373223554554593,-0.0042586033748661,0.7747970731045708,0.6688442831954429,9.885534205886342
4115000000.0,21.78,0.1844704885250841,0.04336226855378532,-0.0058981830231011195,0.23631626589816268,0.7260391390761913,10.036613397868134
4120000000.0,21.78,0.22362311892730424,-0.0019643573162277383,-0.008006191714739975,0.32491016096410164,0.7255472798957728,9.194707036821072
4125000000.0,21.78,0.23516130878612182,0.030897213243230037,-0.006121716264762541,0.3899472596304726,1.0177907850502077,9.304789326651493
4130000000.0,21.78,0.23306391181023664,-0.007520875828397666,-0.006111104549008806,0.2591788362549884,1.1110805197797051,9.66226388682914
4135000000.0,21.78,0.2050058940389801,0.014583560831474076,-0.005610701229770215,0.4951138323791383,1.0584003377781035,9.769975521269656
4140000000.0,21.78,0.18267090680113635,0.02369521823952788,-0.003023582214686966,0.14636005346990055,0.9409740741965408,10.352695713577157
4145000000.0,21.78,0.1726100347986386,-0.010462568937869763,-0.0028852125241678127,0.35365492814084926,0.7771467507902675,9.697567255531872
4150000000.0,21.78,0.17342991210511674,0.007885765273252722,-0.0031939525311496,0.1530318083439181,0.8083449673052496,9.51079701521927
4155000000.0,21.78,0.2114624360025092,-0.055872574793605606,-0.004663188213030666,0.21660738258847384,0.9045808263530082,9.293303829646739
4160000000.0,21.78,0.21710346836717534,-0.019562884827193608,-0.006771196904669455,0.6541349209534493,1.1053929008782288,9.295957616060177
4165000000.0,21.78,0.20699441703120722,-0.009710952771432711,-0.006025906215723189,0.4921637358937374,1.1278549718988495,10.048881994513419
4170000000.0,21.78,0.19187540547356247,-0.007245383904699499,-0.006025932565831834,0.7414449028265491,1.1181440429917406,9.929087649195477
4175000000.0,21.78,0.17011792109163726,0.03254818648837705,-0.0022357139661869944,0.48607958011129576,0.9942417970183179,9.80068187860422
4180000000.0,21.78,0.1619141947075139,0.026884053786923705,-0.0020441560543647368,0.3547311426382114,0.859355188085152,9.645581639489517
4185000000.0,21.78,0.16392641126818727,0.03733831228065939,-0.004535430238265202,0.29822237422792375,0.9167457193290572,9.432804280670943
4190000000.0,21.78,0.18030109260501737,0.016791702216762114,-0.00466316186292199,0.06140840258548402,0.9651077186142772,9.469594220785844
4195000000.0,21.78,0.19871545859875955,-0.002959711659338986,-0.005557495090393214,0.22406398524503984,1.1109845370710454,9.513541637034317
4200000000.0,21.78,0.19494267252256545,-0.010444165486350146,-0.004471506982699925,0.22170363418113634,1.1654274289402744,9.800194078998041
4205000000.0,21.78,0.1753464114036908,-0.021012438844022444,-0.003822105393118883,0.391521102176911,1.1148080732916807,9.776446696270966
4210000000.0,21.78,0.16246775989794696,-0.002264070536252962,-0.0042586033748661,0.42928331032243305,1.0816503546774034,9.71464810838718
4215000000.0,21.78,0.1640428606057026,-0.017726200595184576,-0.0036517435086910596,0.2859610906434109,1.0748817818713179,9.57367407076124
4220000000.0,21.78,0.15710950096824766,-0.021257807686371102,-0.002597739162871625,0.5065920066112201,1.0186694983471951,9.285751632757517
4225000000.0,21.78,0.1520662189348195,-0.009422222311248389,-0.002129301687433,0.4644999711810997,1.0251458206555581,9.58143307285113
4230000000.0,21.78,0.16424471005786007,-0.015084916538672317,-0.004428983177367811,0.5819339654351396,1.132859785952098,9.738580570794404
4235000000.0,21.78,0.17201388256261269,0.009487506096357786,-0.005259357313126038,0.6616816209072163,1.2390038225979383,9.718965174235052
4240000000.0,21.78,0.164860901214575,0.01972549654855152,-0.005365858128245016,0.42379076464630766,1.234097176430872,9.712290505791005
4245000000.0,21.78,0.14840360547930997,0.017235113050159526,-0.005844924183506889,0.4532236490806365,1.1519877228217772,9.433881796562918
4250000000.0,21.78,0.13209513678187806,0.02556905562364297,-0.004258585456792271,0.3286312851982129,1.0840044221419443,9.373456733574168
4255000000.0,21.78,0.1288287400266201,0.018757303724644313,-0.0026722646481514827,0.22808456620674566,1.0544769826482698,9.534143791779238
4260000000.0,21.78,0.1428267646056757,0.009709561813992625,-0.0011072189172311071,0.2919445243099452,1.1348221239262213,9.693066537653166
4265000000.0,21.78,0.14945768992945965,-0.000617623358554583,-0.0010007897744076497,0.22563,1.2118292171574923,9.754082171574922
4270000000.0,21.78,0.14479462714294614,-0.005088968024585239,-0.0031087984660464526,0.27075682939626833,1.2201680488188806,9.638912438845225
4275000000.0,21.78,0.1478608396174042,-0.0072929754320412874,-0.0042586033748661,0.2928279187427792,1.2802058303674584,9.485287505338576
4280000000.0,21.78,0.13707860481166764,-0.006004459335294449,-0.0042586033748661,0.34570614581116144,1.2996281349290815,9.366587584330675
4285000000.0,21.78,0.11625507844951068,0.003034209740505921,-0.003800794479250761,0.3767023353803233,1.2219329341521292,9.51629209570132
4290000000.0,21.78,0.10542022161287107,-0.009844903280911272,-0.0018524653379949066,0.2937119832967198,1.1318768833908688,9.738779150015691
4295000000.0,21.78,0.10193603659622932,-0.019940488657357168,-0.00043651589982109557,0.42202803535488037,1.0773343668504438,9.70159908287389
4300000000.0,21.78,0.11909802223739814,-0.02087426490457267,-0.0006387814417925259,0.4865746636425467,1.163467586924476,9.605950580120206
4305000000.0,21.78,0.13801281971475737,-0.03231901434074423,-0.0004152229040268525,0.4918755741059558,1.3097338525751387,9.433196311230263
4310000000.0,21.78,0.13495047574726615,-0.028117421456186866,-0.001873803655976,0.6735551860160519,1.3822294185828943,9.390329790614999
4315000000.0,21.78,0.11584390715546788,-0.006632583739146443,-0.003587882439382209,0.694351297117813,1.3727123780493238,9.571226108646561
4320000000.0,21.78,0.09753175470185607,0.015507790857656918,-0.0042586033748661,0.6855234712865347,1.2941349482675497,9.643621476981014
4325000000.0,21.78,0.0910799158439481,0.04250344074133122,-0.0042586033748661,0.6327424797619248,1.2649992479761925,9.581427168015871
4330000000.0,21.78,0.08633171901841408,0.06459529723730036,-0.004620593789407379,0.37474031789890316,1.2525409682101096,9.567496127159561
4335000000.0,21.78,0.09125036942675405,0.055806049201310465,-0.004269222468650264,0.15784062654130626,1.2752021526065216,9.502750463191305
4340000000.0,21.78,0.09063279876841672,0.034123024956395666,-0.0014479068499389965,-0.02903785289787853,1.2886414314014143,9.467042147102122
4345000000.0,21.78,0.08529892545604993,0.00030296254263582553,0.00033005092084988015,-0.05817355318923553,1.296588290774883,9.486565397153354
4350000000.0,21.78,0.08053465416574664,-0.0464471791862895,0.0017034596896220475,0.003926365818863686,1.311596070571161,9.556901493038815
4355000000.0,21.78,0.0696203388443073,-0.08985579625071784,0.0025764366810382966,0.29577446067274465,1.2246800616374007,9.552684799678449
4360000000.0,21.78,0.0605071664173183,-0.1104405313451219,0.0016608736980335591,0.613715886569759,1.2407701550043015,9.61850803781008
4365000000.0,21.78,0.07018481508772834,-0.12731666117609017,0.002331557743365391,1.0030788588665887,1.3617263543546636,9.53110093693601
4370000000.0,21.78,0.06648557024682142,-0.07819601975080959,-0.0008304552940928433,1.5682275337020755,1.3194428779498286,9.532967806932177
4375000000.0,21.78,0.04500347169700936,0.020237498770925663,-0.0031939525311496,1.567144695688847,1.1453177549373776,9.586817826148078
4380000000.0,21.78,0.05807965211830952,0.08377682957284123,-0.0044715797089997945,1.2348795671026955,1.1626810298475103,9.248085582134856
4385000000.0,21.78,0.0537637185788001,0.18417661600966556,-0.0085172067497323,0.8094177340780774,1.1545391555200917,9.562890103148101
4390000000.0,21.78,0.04848434764108923,0.22131794624751527,-0.0085172067497323,0.17166860471378603,1.1836748558114485,9.976183702303036
4395000000.0,21.78,0.06469127276502197,0.22573538213340305,-0.009187964575368315,-0.49903871227728713,1.2478337073520371,10.065349434046693
4400000000.0,21.78,0.07392160093706188,0.20793811882006857,-0.010646462060974145,-0.9653084441654846,1.3949816581411167,9.570633692452537
4405000000.0,21.78,0.06811937446960405,0.15101546681444233,-0.006185612116214778,-1.3920398556183986,1.3952777545512778,9.299092462021123
4410000000.0,21.78,0.06917317433858036,0.051106601459071394,-0.003598436184896945,-1.4856270852716709,1.5409553139537533,9.134880168606902
4415000000.0,21.78,0.049985133595319114,-0.04764158746829429,0.004077603424575921,-1.4866041412690414,1.5525287133662873,9.576817929365479
4420000000.0,21.78,0.02381998327392025,-0.16656534489500838,0.004216073245507974,-1.0861582205145823,1.3467153404956536,9.729950314146803
4425000000.0,21.78,-0.0013307669149533075,-0.26556570101003196,0.01006097845693662,-0.47430567852125677,1.197800484298105,9.715823656198737
4430000000.0,21.78,0.005581363450773319,-0.34190489536972196,0.012924870581197227,0.4245855768383558,1.3524194210677944,9.633024502292345
4435000000.0,21.78,0.024677335082878712,-0.3550149983852508,0.013978874927016693,1.5656949518018497,2.472993682532737,9.4453701391544
4440000000.0,21.78,0.03924716104549235,-0.3255455933213194,0.013627437203985742,3.3844456879163567,1.4149837922742379,10.112532379524424
4445000000.0,21.78,-0.07183499696567791,-0.08040328864512312,0.0032045147086990225,2.9377013912569137,0.3434473229508732,9.168316589618266
4450000000.0,21.78,-0.06667777046198052,0.06135327816842412,-0.005642677613613693,2.7477750359221504,0.28547281515412815,8.120726470719266
4455000000.0,21.78,0.018730829191649798,0.22079960451729752,-0.00870886268395872,2.0856008080182082,0.5194442593166426,9.070726707170868
4460000000.0,21.78,0.0705590381384771,0.32610629704128413,-0.01115899366999006,1.4291074589570745,1.0543836512883364,10.001499343233995
4465000000.0,21.78,0.10023750852382629,0.384797118538521,-0.016827039993251976,-0.04386119399941195,1.5817671752725717,10.808652796363928
4470000000.0,21.78,0.1286794466350608,0.32516196310899664,-0.013840460968315,-1.1789704016925042,1.8907819179072192,10.204157378034473
4475000000.0,21.78,0.10530733631329671,0.2230197232278386,-0.013254799237543054,-1.6765305645871058,2.15231295694193,9.271914807044048
4480000000.0,21.78,0.03902430644439962,0.10303810474973125,-0.0020015152545502044,-1.8372152336647523,2.03969502596275,8.562562227391123
4485000000.0,21.78,-0.022716749028757817,-0.034674213142404965,0.001352191661290805,-1.6579852251804523,2.0108508380647083,8.781820259449303
4490000000.0,21.78,-0.06917447567109357,-0.12472151519220559,0.010667810918998755,-1.3316039055896391,1.6759353416539533,9.488237232771771
4495000000.0,21.78,-0.11834196067804191,-0.2340763973179496,0.011732471248754369,-0.7178886405814864,1.115885317250453,10.066925558889656
4500000000.0,21.78,-0.12782762019334337,-0.3110527122504858,0.013840470454354112,0.07848769182487692,0.8730874651940747,10.251445192609452
4505000000.0,21.78,-0.09513620671317377,-0.3258260518517252,0.014894474800173491,0.933134900371349,0.5914423623776236,9.717290687267907
4510000000.0,21.78,-0.06453152790092709,-0.28629297693939937,0.0149051118120315,1.8166237717218379,1.0116110544589105,9.019700092703602
4515000000.0,21.78,-0.0019168473446320028,-0.174931586740519,0.00870878679564582,2.6337961666704617,1.5816714742090148,9.167348390873785
4520000000.0,21.78,-0.04602685585156069,0.02790827756824843,-0.0006814622937721237,3.1764828287567286,0.9209564787184649,9.935182711441728
4525000000.0,21.78,-0.05198990591336432,0.13742468914295358,-0.004098934364526609,2.0890290407691907,0.7995141210730412,9.26799090804781
4530000000.0,21.78,-0.011137950386831956,0.23987548848533252,-0.012264854113849446,1.3021724488046245,1.025147199745372,9.240431487989815
4535000000.0,21.78,0.01724253092540029,0.26886330438038586,-0.011785675280122638,0.38895813174128135,1.4504124639120244,9.532968418781884
4540000000.0,21.78,0.021140145172574974,0.26763992889694477,-0.009752182587724527,-0.32609074925180753,1.6888916282332163,9.753496340049162
4545000000.0,21.78,0.014512694572822761,0.21503521627021305,-0.0066753320474041535,-0.9628572382761724,1.8944109539046095,9.82432312968703
4550000000.0,21.78,-0.02833584258670471,0.11878270657376291,-0.0025551236591614315,-1.249796297835563,1.9217790883782908,9.564747348651274
4555000000.0,21.78,-0.07758749270894086,0.018584923853863247,0.0016608937241161018,-1.3713408732295085,1.6695613342131133,9.395624184393442
4560000000.0,21.78,-0.10746994597219477,-0.09285743229793383,0.004940008752403638,-1.0378944570988446,1.48287800569448,9.102107565679075
4565000000.0,21.78,-0.1348913377232672,-0.16121436215471968,0.008102021789861883,-0.5043270458300705,1.231250705919507,9.200996618714365
4570000000.0,21.78,-0.14581675101931757,-0.20693919762257848,0.00943281610892821,0.07456132600601328,0.9521560257637602,9.516684106836841
4575000000.0,21.78,-0.13251484165795852,-0.21938708182003958,0.010486820454747674,0.6989682761525828,0.8372827002250272,9.798230488188805
4580000000.0,21.78,-0.10579601336766159,-0.19366074587092233,0.0106465084371654,1.2066344480502447,0.9394068454540685,9.831189511038996
4585000000.0,21.78,-0.06936758848122854,-0.13019673518716954,0.006228159109642503,1.7003718419643183,1.2137940608018407,9.731911331302513
4590000000.0,21.78,-0.06896046993756794,-0.03963101816248847,0.002704184115760262,1.8980400481734006,1.2172242650685428,9.438394168721743
4595000000.0,21.78,-0.0694394854006212,0.049244571152589456,0.00040454794801239374,1.843298107476381,1.190737621495276,9.068458619157887
4600000000.0,21.78,-0.0820271297967938,0.13848222887853023,-0.003406921487252806,1.2046609413910097,1.3204275189411754,9.411718735522488
4605000000.0,21.78,-0.076799800375494,0.16753881911006857,-0.005940771122698299,0.6854204960098049,1.4080299261261993,9.748199683397997
4610000000.0,21.78,-0.08869151476499589,0.1812445406380128,-0.0063879050622992,0.18304985418289854,1.4683613372623132,9.87886700589347
4615000000.0,21.78,-0.09759572854962993,0.16214152281406802,-0.002288950671689961,-0.3467884302460843,1.4510948414366485,9.89829
4620000000.0,21.78,-0.10474216366674206,0.10047794246599148,-0.0002555064634918046,-0.6349051742350518,1.3973358615722584,9.525505513102155
4625000000.0,21.78,-0.13050292414078046,0.046338042841943206,0.0015969957646551477,-0.6940575898350759,1.294918921979089,9.23120784395818
4630000000.0,21.78,-0.14952179552777678,-0.01478633673617278,0.004492855840724504,-0.7182884697965847,1.1130407114239071,9.346577758372678
4635000000.0,21.78,-0.15261978307124818,-0.0778375490369117,0.00610045910511603,-0.4108388387101884,1.0523186099706863,9.565340580644905
4640000000.0,21.78,-0.1439001948390664,-0.12394807026747029,0.01022069700548039,-0.061211425827714216,0.9578472283563723,9.807255543287255
4645000000.0,21.78,-0.13002601936462663,-0.14889927635359337,0.007175687936447232,0.3428635600598356,0.9778615217884152,9.822948478211584
4650000000.0,21.78,-0.10258316808507327,-0.15222584262297215,0.007559050397108668,0.7318294321854943,1.1654301676961019,9.477436754928467
4655000000.0,21.78,-0.10149241002023729,-0.11671651234253144,0.005578731169952783,1.202416492142865,1.2766739425067395,9.25789211498652
4660000000.0,21.78,-0.11777219255526071,-0.043976633863955686,0.003534630977818377,1.4102862336043624,1.4550213723578138,9.46822294905163
4665000000.0,21.78,-0.14141415238716343,0.02006446769824648,0.002480626631998931,1.3731048844917488,1.2411572130707722,9.702680231016501
4670000000.0,21.78,-0.150203035426632,0.09248575556617578,0.002129301687433,1.1562039694347397,1.1828909792189097,9.599082732271327
4675000000.0,21.78,-0.14881896961991922,0.11483909528319777,0.0014372687840766415,0.40906773776087735,1.2836393172563931,9.694244542575445
4680000000.0,21.78,-0.14398541530644335,0.09481232135489301,-0.0023422811835797485,0.29744265432862654,1.2266411273526112,9.332050164052902
4685000000.0,21.78,-0.15577136673570463,0.0952855259883152,0.0004365759780688332,-0.07515206204132063,1.2699058650075585,9.475975415032753
4690000000.0,21.78,-0.1673547846467092,0.04439369318912813,0.0012136723021545569,-0.06866544511885447,1.1357989759736897,9.450361482802215
4695000000.0,21.78,-0.1752292261119607,0.03687992122906992,0.00259778764707155,-0.14558441256864413,1.157876397479064,9.595263750931839
4700000000.0,21.78,-0.1847152652243355,-0.01406143322131869,0.004897403788736911,-0.21385644803836446,1.0104263483255636,9.796266091291862
4705000000.0,21.78,-0.1898042269248947,-0.028855216740097292,0.0053232542185827,0.03806572444735723,0.9460778622236785,9.586034318607743
4710000000.0,21.78,-0.18017959467307945,-0.06800877516722571,0.007793283890888788,-0.020996419041264175,0.9478411936529119,9.65343587647176
4715000000.0,21.78,-0.16164471133429484,-0.08028148683163708,0.0053338311521929265,0.51405498998615,1.0087640400811404,9.250820841678209
4720000000.0,21.78,-0.15935913218060446,-0.05049925707919364,0.00630280264340902,0.48185821532698225,1.1328595334426954,9.63107898532919
4725000000.0,21.78,-0.15643111337793986,-0.05635511550378407,0.006068450047137832,0.7279133804045339,1.1997635506647355,9.710909638699496
4730000000.0,21.78,-0.18356732804577416,-0.025865101167726258,0.00549363823710174,0.8409056662848566,1.088515211261052,9.742711760586317
4735000000.0,21.78,-0.19900011718097457,-0.029243815269724978,0.0063240060488339005,0.6996532467545324,1.0387820956320208,9.726999858321099
4740000000.0,21.78,-0.19967216960040743,-0.03131694008061421,0.005876882649276478,0.8719122475871225,0.9609851141420511,9.39994292068813
4745000000.0,21.78,-0.20222642783560724,-0.025474014462134556,0.006930886995095857,0.8536663843318638,0.9189042668208427,9.547093843318638
4750000000.0,21.78,-0.19707391273133562,-0.043144468853862535,0.0074525559060157,0.8779952767891528,0.9515690773694908,9.74133184526102
4755000000.0,21.78,-0.18826913383763755,-0.06551108591546513,0.0074525559060157,1.0128848090042482,1.0226948090042483,9.87788593888136
4760000000.0,21.78,-0.19264488720372758,-0.07682628992373076,0.006941513466910408,1.335733483206135,1.025338796110488,9.706009839421998
4765000000.0,21.78,-0.21742818733922117,-0.04613646020839404,0.004386321297466423,1.5545907925544078,0.8189373191294732,9.54101109576171
4770000000.0,21.78,-0.2169275099788526,-0.005899048792638084,0.002619051130744095,1.5913788485606886,0.7853896191667962,9.442317679241977
4775000000.0,21.78,-0.20820819051777897,0.0560344804357244,0.002714849585735627,1.5225097740324978,0.7950994797648948,9.483822601175527
4780000000.0,21.78,-0.19613773471923365,0.10852693950889646,0.000723932344882582,1.1038149793337497,0.8781942639102427,9.845317392686475
4785000000.0,21.78,-0.17957290239359538,0.1195980524390983,-0.00014903094447713103,0.6429453552565536,1.0004224987996249,9.76742106817041
4790000000.0,21.78,-0.18970531488922932,0.12500354634893168,0.000617487391993937,0.38808062271990623,0.983944395600044,9.575541465200015
4795000000.0,21.78,-0.20278906722591358,0.11198120776985905,0.0008730339076508828,-0.02727720195307204,1.0532012274515123,9.684433862742438
4800000000.0,21.78,-0.20198001349006262,0.05049192988288415,0.0025551721433613598,-0.22562673680156736,1.0496704661712046,9.615757617990676
4805000000.0,21.78,-0.2145073169840962,0.002845981082836912,0.004854848363274432,-0.1688337399230374,1.0446660600177606,9.580157579875676
4810000000.0,21.78,-0.23293625080387098,-0.07141927059314895,0.007857133366149814,-0.21581532857605332,0.9348915985728159,9.755843754862138
4815000000.0,21.78,-0.24346572892250276,-0.14117475567166832,0.010092930598680157,0.3351159597406596,0.7783237165392372,9.438299380576794
4820000000.0,21.78,-0.2550659483539301,-0.14347457418216802,0.01315909458893827,0.8189404852089048,0.6494215318864154,9.566322502304224
4825000000.0,21.78,-0.24661122718055653,-0.1411470893016612,0.012722547068986829,1.196336716427367,0.6489323434785235,9.771250781159507
4830000000.0,21.78,-0.21822633107608852,-0.10625175695040069,0.0106465084371654,1.7173394443525944,0.8063848145086481,9.83707691343737
4835000000.0,21.78,-0.21647600786510995,-0.051414335341150634,0.008187093642626018,1.7917969695703697,0.8516998799525989,9.82088600083556
4840000000.0,21.78,-0.23469767014063345,0.009715364159752648,0.0025125555856468727,1.7336204736754046,0.5964494101678941,9.509811179664212
4845000000.0,21.78,-0.22226713547673985,0.03914409818520432,0.0020548067682792086,1.5067168648085687,0.7299631351914313,9.337060746974807
4850000000.0,21.78,-0.23361756659103913,0.09225678850014267,0.002980981467037652,1.3469102680425027,0.7632166811239669,9.556907087093272
4855000000.0,21.78,-0.23188767850271105,0.12326055206213848,0.0003087589790599829,0.9315504330062044,0.7097549145382492,9.9789298974459
4860000000.0,21.78,-0.22553003943438335,0.11803297298003881,0.0013627633248793614,0.43791962719569627,0.8279644719983448,10.005411801611919
4865000000.0,21.78,-0.22706794149505843,0.0947393671136326,0.0027042336539645066,0.32048523475375235,0.8314944660385447,9.801467095438971
4870000000.0,21.78,-0.2349590780262938,0.04706151964960331,0.0042586033748661,-0.18148263515232635,0.7685162513451625,9.753879989238701
4875000000.0,21.78,-0.24554623539235232,-0.0037308675285380112,0.005323295324752137,0.017168162837181627,0.7553669698871698,9.28026189382052
4880000000.0,21.78,-0.264403470478537,-0.03306887764611789,0.008772733239306675,0.11105090618660907,0.5505384322458843,9.531007770678377
4885000000.0,21.78,-0.2655065179230276,-0.07716251646338794,0.009826737585126076,0.3197110312137103,0.6136140767210408,9.917716267016862
4890000000.0,21.78,-0.2507369254627464,-0.10200724703049639,0.010412274943385246,0.6617866842424669,0.5391593096828932,10.073102395334724
4895000000.0,21.78,-0.23620479206056125,-0.11045289519623107,0.010029031585214843,1.0217129261925293,0.6274453180919533,9.902997659045978
4900000000.0,21.78,-0.24330569311865086,-0.11164146220343012,0.010859397288938304,1.2615719961271201,0.4905023794155238,9.672653337636534
4905000000.0,21.78,-0.2326276688975411,-0.07531250185828466,0.008059437906282042,1.7410780378100805,0.6568760756201608,9.201587801497078
4910000000.0,21.78,-0.2530368188075547,-0.005127947437926194,0.009304975921823824,1.7110620120463205,0.5403353722251537,9.62008297780123
4915000000.0,21.78,-0.25420782079777315,0.0462935071323813,0.003917956548327715,1.7354797489656975,0.5835966135960662,10.05623386403934
4920000000.0,21.78,-0.24424259547364105,0.0802418821690952,0.006260074361233848,1.1257966512160664,0.5921336068670361,10.236142481831024
4925000000.0,21.78,-0.2314351778667201,0.08362755492873626,0.0004791240255008589,1.0825247947383478,0.7342764910934649,9.882102447715624
4930000000.0,21.78,-0.24575462794797973,0.08417558991387564,0.0028958295099432664,0.37729633461406337,0.560543495759335,9.65440391982584
4935000000.0,21.78,-0.2536568040170607,0.03888226743645619,0.001618310894540679,0.6502025823160258,0.5600522290048223,8.945454189788943
4940000000.0,21.78,-0.27577387964045463,0.07550773655195543,0.005195485703773772,0.2817437757214377,0.48265056069640566,9.838649134096492
4945000000.0,21.78,-0.2761253394975768,0.006837207779989826,0.004492847408689701,0.3281440197465402,0.34236803949308037,10.224965881520758
4950000000.0,21.78,-0.2831391944836476,0.018855670649996603,0.006707331619343231,0.2972442499215425,0.2638898653302987,10.430967519574775
4955000000.0,21.78,-0.250449466857511,-0.06091166271911781,0.009486028572331247,0.4049560300405603,0.3504139699594397,9.872974232814343
4960000000.0,21.78,-0.23001902605971186,-0.06711122539495126,0.00860238927295273,0.3845582622331826,0.42183,9.28888904266009
4965000000.0,21.78,-0.23045574222035872,-0.1114930777610284,0.0095818575934488,0.990420300296703,0.4293847608308476,8.995287697329278
4970000000.0,21.78,-0.24939570282468246,-0.052630124706066955,0.009517968066022613,1.2576439307257394,0.5156112831291129,9.821976598656965
4975000000.0,21.78,-0.25145046848679226,-0.08782924908410465,0.008623692808790436,1.4616938653362386,0.3046025293015253,10.60362494139695
4980000000.0,21.78,-0.2528033468578325,0.0032355883119021553,0.010476122310637614,1.811312692899027,0.49049758173687585,10.196902627509527
4985000000.0,21.78,-0.2605167620661648,-0.018848746256134752,0.00622815489362508,1.265689492139895,0.2633031111740311,9.804596269650263
4990000000.0,21.78,-0.2449454097874508,0.060506969318505674,0.0011498649870673092,1.5729273552446736,0.5256177645799777,9.004210767764809
4995000000.0,21.78,-0.24207131147992825,0.05059586580434573,0.005280626066820379,0.7809800183348002,0.3244173791531738,9.422411654072217
5000000000.0,21.78,-0.26738448356570504,0.10225865115356544,0.0010647246240207073,1.3733867918158682,0.39239698931096995,9.898299323424093
5005000000.0,21.78,-0.27160050094898275,0.08328657292881596,0.008442755044756655,0.05256837860768382,0.09132808630028089,10.830641732747518
5010000000.0,21.78,-0.2653828344526029,0.04549965492107734,0.0022569964219377146,0.9814019366974194,0.29979574089125743,9.926729755242297
5015000000.0,21.78,-0.26009153026775506,0.027176516597447832,0.008325633027844854,-0.19837047370510463,0.1423414440239144,10.031805366334654
5020000000.0,21.78,-0.25276060242001697,-0.06949162848158226,0.005450980573217789,0.6121527756729278,0.014909932402799336,9.07502485423735
5025000000.0,21.78,-0.2423475873582358,-0.00873120396482932,0.010380398689954643,0.64746,0.23348034251030342,9.351876318556265
5030000000.0,21.78,-0.2298059791072871,-0.11147181330974529,0.007644161248033526,0.8503329494377295,0.17147801838628018,10.281478272469784
5035000000.0,21.78,-0.23795078082553714,-0.03304567434520127,0.005472284109055485,1.3741902767347027,0.32186776258017763,10.357986795597668
5040000000.0,21.78,-0.2337239683297496,-0.06680884701262559,0.00826172242033175,0.9613751052023509,0.1530340420809404,10.305208212624281
5045000000.0,21.78,-0.22553153522205893,0.0023931207721826497,0.00464183513898866,1.5648982555011828,0.40515593979215936,9.630960150519602
5050000000.0,21.78,-0.23723576247186728,-0.019179742687997946,0.010965978208387569,0.9133030546945307,0.1932543515648435,9.600066392360764
5055000000.0,21.78,-0.25472976374982287,-0.009093888709053007,0.0069734097464236155,1.6720258259817582,0.14057700543807006,9.17617108882181
5060000000.0,21.78,-0.26516796942907533,0.05535069064117528,0.010135518698277375,1.0677123406768234,0.10280840686228407,10.556361115215212
5065000000.0,21.78,-0.23573812795607385,-0.007453378565047047,0.003236453148386026,1.2016295563017958,0.10663479838154799,10.222602500344026
5070000000.0,21.78,-0.24490301562465328,0.08449188866982664,0.002129301687433,1.193876507606665,0.116346698478667,10.016989522819996
5075000000.0,21.78,-0.22992947221761542,0.015178111654765986,0.0048441934333425755,0.5032449167855492,0.13439719715157197,9.896326817090568
5080000000.0,21.78,-0.24211085979643454,0.018795326706795953,0.0026403019663644913,0.9347034110846342,0.03845401592514017,9.260632599532126
5085000000.0,21.78,-0.244125649475455,0.015291267245979328,0.005663985365468734,0.5513160737985607,0.035904797540047974,10.06301106101271
5090000000.0,21.78,-0.2387065230215766,-0.029825071988039253,0.00551488064068743,0.9178293342942934,-0.08142448300714483,9.913589447579994
5095000000.0,21.78,-0.2479052995735244,0.001136365247569819,0.007048010066011998,0.8851546176075462,-0.07612520414295204,10.467179718176698
5100000000.0,21.78,-0.2060146148505149,-0.049002616990582365,0.006600824480198173,0.837773801877238,0.11183627841176279,9.97087587696676
5105000000.0,21.78,-0.21597673563076447,-0.02689243210202616,0.004705735206458309,0.9965999823284999,0.04846001178100011,9.7247500092565
5110000000.0,21.78,-0.2116042873804003,-0.04363951029748516,0.008410795524982678,1.101075194044952,0.1190946903230469,9.656178604466287
5115000000.0,21.78,-0.22602280820273374,-0.028990325704024524,0.007122481797070234,1.3600615792876158,0.048950608414406085,9.696106595469166
5120000000.0,21.78,-0.2344054411635652,-0.0077972385151943244,0.0063879050622992,1.3800701038510013,-0.002747098349570983,10.30835595598856
5125000000.0,21.78,-0.23862145854684294,4.321417815342926e-08,0.008783401871295034,1.3709475995469762,-0.1496043913925439,10.099389624463296
5130000000.0,21.78,-0.23889821373794642,0.026288844487375805,0.0032790380859701934,1.28628600427086,-0.15264300213543003,10.017776497508665
5135000000.0,21.78,-0.21218367227339022,0.02504725390817554,0.004173474605867353,1.0265152082811522,-0.058564602846646024,10.049952799482428
5140000000.0,21.78,-0.20010615502586054,0.009799511979001965,0.003790135333301518,1.033582897898329,-0.02943,9.695021708245017
5145000000.0,21.78,-0.20147961965686306,0.0174302533499657,0.003949865475893034,0.99963800064548,0.026291599483615997,9.749965598192656
5150000000.0,21.78,-0.21507536295017016,0.007457574590905274,0.005003869821712482,0.984924200065142,-0.12262750081427501,10.02876590094456
5155000000.0,21.78,-0.22344337749276044,0.011361373078988326,0.0053232542185827,1.04496200103752,-0.18266199974062,10.168262001037519
5160000000.0,21.78,-0.21679979311025668,-0.002847962196316802,0.006771201120686838,0.9358719954638199,-0.209934501134045,10.18591909977319
5165000000.0,21.78,-0.20377909139993308,-0.0117111592808819,0.005312575046550791,1.0637012093939122,-0.17962039773250396,10.163061599028216
5170000000.0,21.78,-0.18936283509729723,-0.02366824637199091,0.007069325195897536,0.89859198315812,-0.13753589873685898,9.84903908021079
5175000000.0,21.78,-0.1842893157180812,-0.04229563296804929,0.005057036962928649,1.1222696290172964,-0.09564699740916997,9.545618188082182
5180000000.0,21.78,-0.18497070317754477,-0.025819331201796553,0.004556727450076829,1.333375501845855,-0.07220149938471498,9.83080303568653
5185000000.0,21.78,-0.1960968177003298,-0.013446551086164923,0.003981772295449715,1.411954407836444,-0.17991721282327214,10.245763624221736
5190000000.0,21.78,-0.20372602228112105,0.015874611117522267,0.004514141458488341,1.4944561056666612,-0.233085398380954,10.509062918619028
5195000000.0,21.78,-0.1902366331062626,0.02564345673641006,0.0053232542185827,1.1914189501346895,-0.22563,10.187874338348344
5200000000.0,21.78,-0.17917895878330625,0.01832941491950885,0.0034068498149572904,1.1163803230865033,-0.219743898996239,9.492148525721685
5205000000.0,21.78,-0.17601694574584795,0.030871276131500577,0.0027574566574110337,1.0850819768815199,-0.18109199339471993,9.60115207596072
5210000000.0,21.78,-0.17408994965255145,0.019468774213292392,0.0025764440590686885,0.9437209880200099,-0.18540950598999506,10.094886245523963
5215000000.0,21.78,-0.17728397912601837,0.015192067467127538,0.0033430256358005206,1.0087642246072424,-0.22837720518047205,10.245858198704882
5220000000.0,21.78,-0.1806269278195017,0.010909472828063083,0.0042586033748661,0.9021241526639415,-0.26722480556894807,10.439413250120532
5225000000.0,21.78,-0.17933865625176307,-0.014169742085859744,0.004844172353255643,0.8309084208509843,-0.3492372178722722,10.033657445106975
5230000000.0,21.78,-0.17272710833135047,-0.01972522966082815,0.006473099179567435,0.9403875142782752,-0.39161499682705,9.590452504759424
5235000000.0,21.78,-0.15702478298448355,-0.025699507028759797,0.0057597279582299096,1.0641904269375042,-0.3149977781132778,9.83796307576173
5240000000.0,21.78,-0.14368730598729346,-0.024026657422331295,0.0042586033748661,1.2093782249299823,-0.23975609465786096,10.121959526710695
5245000000.0,21.78,-0.1406211778331831,-0.01658559239264496,0.0042586033748661,1.2402775868551759,-0.23563640375566403,10.177580394366503
5250000000.0,21.78,-0.14700921570002992,-0.011719708672984826,0.0042586033748661,1.2851116315992166,-0.250155101974951,10.084678368400784
5255000000.0,21.78,-0.1533969879577816,0.0025446373699249507,0.0042586033748661,1.2722569606306697,-0.2790950103603501,10.097533039369331
5260000000.0,21.78,-0.1493086400129043,0.0023846848324164524,0.0042586033748661,1.2195801195227012,-0.2899832934924329,10.079576347939463
5265000000.0,21.78,-0.14337859022241164,0.006758333749239334,0.004759000370078663,1.237825186402152,-0.270069197733692,9.966371604532617
5270000000.0,21.78,-0.13727004550438363,0.010847381328378283,0.0043437532239518645,1.175041083456011,-0.3009716189074162,9.900054059821741
5275000000.0,21.78,-0.14023913994496667,0.01688293698844502,0.002235744532313008,1.1776914221449144,-0.38308142214491425,9.840902217223823
5280000000.0,21.78,-0.14739229041750496,0.0376209544834458,0.002001565846758848,1.1010714258277143,-0.47048852301898525,10.124710645786905
5285000000.0,21.78,-0.1337357831861836,0.03162674744842309,0.00365176353477363,0.8869207654878077,-0.4313435442495354,10.433621597345216
5290000000.0,21.78,-0.11769237147568731,0.011465520475190736,0.00470576788059305,0.7689066697290667,-0.31804030275190304,10.23849607341246
5295000000.0,21.78,-0.11355093543991981,-0.0257155861760729,0.004886736210752872,0.8068750712255507,-0.3518854199431542,9.876214928774449
5300000000.0,21.78,-0.11632977468349455,-0.05454489571397391,0.0034068603550007283,1.0300520589228206,-0.3924,9.739368205892282
5305000000.0,21.78,-0.11604208419730312,-0.05020134380485211,0.0033749767235397104,1.3122881308601815,-0.4268340273893403,9.87357209738432
5310000000.0,21.78,-0.10678375892251549,-0.034345402853785206,0.0037049401620289336,1.5919674188422743,-0.4247714528943145,10.288734188422744
5315000000.0,21.78,-0.10151347324308414,0.009854758307938477,0.0006707188274751989,1.5486043287750435,-0.3444294097124941,10.559285115825054
5320000000.0,21.78,-0.09825585463342966,0.03199972164225213,0.0,1.3526010433115103,-0.3735651100038511,10.154912469911427
5325000000.0,21.78,-0.1032702255004396,0.04787980838146599,0.0,1.1222602764575027,-0.39926720686347206,9.718276396568264
5330000000.0,21.78,-0.09829824985023157,0.0560354286076666,0.0,0.89271,-0.4653880564616806,9.738584028230841
5335000000.0,21.78,-0.09443371340416297,0.05006288346995918,0.0,0.8117749093506491,-0.562505192748052,10.026710464696105
5340000000.0,21.78,-0.08981786361920108,0.03515665111307795,0.0010220985802671119,0.6317634813845349,-0.4771560143688602,10.58813189680042
5345000000.0,21.78,-0.07408683980744867,-0.013282023616875265,0.0022037934445738533,0.5801627770787278,-0.3571832420223324,10.52435610202346
5350000000.0,21.78,-0.07648900917238273,-0.045909332552732066,0.0009582195928843808,0.6484448449412485,-0.43458310391733107,9.875722739389428
5355000000.0,21.78,-0.07256953470228815,-0.0585907029894496,0.0031939525311496,0.979335108390151,-0.4556750200722502,9.66530510036125
5360000000.0,21.78,-0.07089808934066594,-0.048748069221797495,0.0022996119256479507,1.2580378356817783,-0.4987407123347071,9.888874274008243
5365000000.0,21.78,-0.06783169136144307,-0.008769527804745936,0.00028746703727008564,1.4752271747478718,-0.4881443494957435,10.198777490399475
5370000000.0,21.78,-0.049855801629211424,0.038371020364998974,0.0007878303043435358,1.3582895751315958,-0.35629732249547325,10.59087182776772
5375000000.0,21.78,-0.03755090633951195,0.06711259050336664,-0.0007985221244275526,1.0447606150771063,-0.22808260440292605,10.123912482989324
5380000000.0,21.78,-0.050499469988071505,0.08385723581489289,-0.0021718423568346922,0.6627603604986037,-0.28488459450094594,9.620079549500495
5385000000.0,21.78,-0.06079463240058409,0.05305653458759646,0.0013095318893980995,0.38199909886239103,-0.44596280919432807,9.799115397678055
5390000000.0,21.78,-0.06301556062102036,-0.008930351502764479,0.0028320053307864775,0.2525111798028118,-0.45459508591715087,10.156294570414246
5395000000.0,21.78,-0.04160255603019149,-0.09357644601922473,0.00599401836824479,0.4588175772818758,-0.4172185664601857,10.196902627509527
5400000000.0,21.78,-0.03366411569752197,-0.17917276220536332,0.008304265197742045,0.9064526008587259,-0.40024999288189994,9.943417363550774
5405000000.0,21.78,-0.046173398326334825,-0.23583205290970136,0.0074525559060157,1.7475645284778452,-0.5493600000000001,10.049168009971279
5410000000.0,21.78,-0.032744740398077204,-0.22413194021639893,0.006877610237427707,2.748771457448315,-0.5016805627655057,10.043869139006892
5415000000.0,21.78,-0.027900738793525545,-0.13128568186778283,0.0033535930833717316,3.537784402015244,-0.34786659683536597,10.012384402015245
5420000000.0,21.78,-0.0325530802478334,0.03792837263074783,-0.0012350064041182487,3.7156262303472625,-0.6243061891830619,10.188656525070265
5425000000.0,21.78,-0.0245044226980003,0.1385957399802258,-0.0030875560624608078,2.8645115700707158,-0.4483167892517679,9.489706555849365
5430000000.0,21.78,-0.023011353403325073,0.2853399028056649,-0.008666269314339805,2.038113365336734,-0.4728451641370517,9.830412393928924
5435000000.0,21.78,-0.01730313175192245,0.3343884988870065,-0.009720273660159196,0.8873002482722024,-0.6953302663595027,10.51053811739618
5440000000.0,21.78,-0.03548907758693577,0.34902208245371547,-0.010135430161912326,-0.37318212122352123,-0.49991844532378443,10.946385856384659
5445000000.0,21.78,0.000947527772800359,0.23886791987333528,-0.005919412778634614,-1.2040829959281298,-0.5592671481366716,10.489922744755226
5450000000.0,21.78,-0.0009582891571712048,0.11280587514595629,-0.001916348541394961,-1.5107410585971106,-0.49638769375537695,9.778605671086357
5455000000.0,21.78,-0.00804857639149839,-0.04672266509697927,0.0006708105258533033,-1.5328045532377457,-0.6332349702158497,9.617041220402712
5460000000.0,21.78,0.009583541788720847,-0.20554662145648112,0.0076229230604652615,-0.7949931733064318,-0.5611282881117828,9.985015490589555
