#timestamp [ns], temperature [degC], w_RS_S_x [rad s^-1], w_RS_S_y [rad s^-1], w_RS_S_z [rad s^-1], a_RS_S_x [m s^-2], a_RS_S_y [m s^-2], a_RS_S_z [m s^-2]
0.0,22.47,0.0,0.0,0.0,0.0,0.11772,9.81
5000000.0,22.47,0.0,0.0,0.0,0.029135700291357,0.137143800194238,9.80028809990288
10000000.0,22.47,0.0,0.0,0.0,0.010202399611523999,0.156567600388476,9.80019
15000000.0,22.47,0.0,0.0,0.0,0.05738850145678502,0.175991400582714,9.781158599417287
20000000.0,22.47,0.0,0.0,0.0,0.021189598446095984,0.17658,9.78057
25000000.0,22.47,0.0,0.0,0.0,0.028939500485595005,0.167260499514405,9.78057
30000000.0,22.47,0.0,0.0,0.0,0.02943,0.13910579825185798,9.799012801165428
35000000.0,22.47,0.0,0.0,0.0,0.02943,0.16470990203949903,9.809313300679834
40000000.0,22.47,0.0,0.0,0.0,0.011379598446095984,0.157744799223048,9.791949598446097
45000000.0,22.47,0.0,0.0,0.0,0.027664201748142016,0.13017869737778698,9.808234201748142
50000000.0,22.47,0.0,0.0,0.0,0.01177199805761998,0.15401700291357,9.792341998057621
55000000.0,22.47,0.0,0.0,0.0,0.04473360427323604,0.15696,9.79038
60000000.0,22.47,0.0,0.0,0.0,0.03178439766914398,0.17422560233085602,9.799012801165428
65000000.0,22.47,0.0,0.0,0.0,0.012360597474905977,0.17658,9.791655298737453
70000000.0,22.47,0.0,0.0,0.0,0.035119804078998035,0.15127019592100197,9.807253202719332
75000000.0,22.47,0.0,0.0,0.0,0.030901498543214986,0.155488501456785,9.818338501456786
80000000.0,22.47,0.0,0.0,0.0,0.02943,0.14871959844609597,9.803329196892193
85000000.0,22.47,0.0,0.0,0.0,0.037572301651023016,0.13900769834897697,9.792047698348977
90000000.0,22.47,0.0,0.0,0.0,0.03924,0.15342840349628403,9.774291596503716
95000000.0,22.47,0.0,0.0,0.0,0.031293898154738986,0.15696,9.786652203690522
100000000.0,22.47,0.0,0.0,0.0,0.03727800194238002,0.15696,9.79038
105000000.0,22.47,0.0,0.0,0.0,0.03149009796050098,0.15696,9.805879804078998
110000000.0,22.47,0.0,0.0,0.0,0.014126395726763958,0.17226360427323603,9.81
115000000.0,22.47,0.0,0.0,0.0,0.024917404467474043,0.15391889329878894,9.802446297766263
120000000.0,22.47,0.0,0.0,0.0,0.03688560233085602,0.14715,9.807645602330856
125000000.0,22.47,0.0,0.0,0.0,0.03188249757202498,0.14715,9.81
130000000.0,22.47,0.0,0.0,0.0,0.01491119494981195,0.14715,9.795481194949813
135000000.0,22.47,0.0,0.0,0.0,0.02413260524442605,0.15431130262221301,9.797541302622214
140000000.0,22.47,0.0,0.0,0.0,0.022366797280667972,0.15696,9.786063594561337
145000000.0,22.47,0.0,0.0,0.0,0.03355020563290206,0.17785530844935307,9.787535102816452
150000000.0,22.47,0.0,0.0,0.0,0.03924,0.17265599417285993,9.79724700291357
155000000.0,22.47,0.0,0.0,0.0,0.03924,0.15323219397862195,9.80019
160000000.0,22.47,0.0,0.0,0.0,0.025898393784383935,0.15382080310780802,9.806860803107808
165000000.0,22.47,0.0,0.0,0.0,0.02619270320492703,0.15038729679507296,9.79028189038522
170000000.0,22.47,0.0,0.0,0.0,0.02943,0.15362460330204603,9.793519206604092
175000000.0,22.47,0.0,0.0,0.0,0.04218300679833007,0.16333650339916503,9.793813496600835
180000000.0,22.47,0.0,0.0,0.0,0.04277159650371597,0.16677,9.796658403496284
185000000.0,22.47,0.0,0.0,0.0,0.05160060718680607,0.17295030359340302,9.80019
190000000.0,22.47,0.0,0.0,0.0,0.04061338892843389,0.1644155926189559,9.806272203690522
195000000.0,22.47,0.0,0.0,0.0,0.03541410378764104,0.1449917924247179,9.80401589621236
200000000.0,22.47,0.0,0.0,0.0,0.04512600388476004,0.14911200776952008,9.794303996115241
205000000.0,22.47,0.0,0.0,0.0,0.04326209601812096,0.14538419203624192,9.79616790398188
210000000.0,22.47,0.0,0.0,0.0,0.03924,0.15440941223699411,9.811569608157997
215000000.0,22.47,0.0,0.0,0.0,0.03364829582388296,0.15558659164776592,9.808626591647766
220000000.0,22.47,0.0,0.0,0.0,0.018442791453527917,0.16363081281970812,9.778215582907055
225000000.0,22.47,0.0,0.0,0.0,0.031392017481420176,0.15499798251857982,9.777136513111065
230000000.0,22.47,0.0,0.0,0.0,0.04375259553252596,0.1479348089349481,9.79038
235000000.0,22.47,0.0,0.0,0.0,0.03924,0.15696,9.785180695435407
240000000.0,22.47,0.0,0.0,0.0,0.01883518135315181,0.15185879533828794,9.78057
245000000.0,22.47,0.0,0.0,0.0,0.010006209517662096,0.14715,9.790576209517663
250000000.0,22.47,0.0,0.0,0.0,0.01962,0.15205500485595005,9.80509500485595
255000000.0,22.47,0.0,0.0,0.0,0.01962,0.15696,9.800386190093862
260000000.0,22.47,0.0,0.0,0.0,0.03374641515056415,0.1475423898996239,9.79038
265000000.0,22.47,0.0,0.0,0.0,0.0398285897053859,0.1465614102946141,9.776547884558079
270000000.0,22.47,0.0,0.0,0.0,0.02943,0.15244739475557395,9.774487815733279
275000000.0,22.47,0.0,0.0,0.0,0.042673516024635164,0.14715,9.794794505341546
280000000.0,22.47,0.0,0.0,0.0,0.05454359456133595,0.15146640543866405,9.804506405438664
285000000.0,22.47,0.0,0.0,0.0,0.04061338892843389,0.1738332221431322,9.805781694464217
290000000.0,22.47,0.0,0.0,0.0,0.03355020563290206,0.18795958873419588,9.791949588734196
295000000.0,22.47,0.0,0.0,0.0,0.03521789426997894,0.16049157707991576,9.77654789426998
300000000.0,22.47,0.0,0.0,0.0,0.02943,0.14126400582714005,9.78645602330856
305000000.0,22.47,0.0,0.0,0.0,0.025604094075740942,0.16245362369703625,9.81382590592426
310000000.0,22.47,0.0,0.0,0.0,0.030803418064134183,0.17893438795724387,9.812354387957244
315000000.0,22.47,0.0,0.0,0.0,0.04905,0.16677,9.803819706118498
320000000.0,22.47,0.0,0.0,0.0,0.03139196892191969,0.1561751813531518,9.813531606215616
325000000.0,22.47,0.0,0.0,0.0,0.010300518938205189,0.13047298737452986,9.802642468436325
330000000.0,22.47,0.0,0.0,0.0,0.022759187180291872,0.13106162563941626,9.774095406409854
335000000.0,22.47,0.0,0.0,0.0,0.013047306506973064,0.16343461301394613,9.78057
340000000.0,22.47,0.0,0.0,0.0,0.0290376198122762,0.17971920660409205,9.78057
345000000.0,22.47,0.0,0.0,0.0,0.04296778659757787,0.1772666798963668,9.783611106701212
350000000.0,22.47,0.0,0.0,0.0,0.03531601359666014,0.15401699320166992,9.79038
355000000.0,22.47,0.0,0.0,0.0,0.04620509310455093,0.14715,9.796069813790899
360000000.0,22.47,0.0,0.0,0.0,0.033746386014863856,0.14165638601486386,9.807253193007432
365000000.0,22.47,0.0,0.0,0.0,0.027566121269061213,0.13547612126906122,9.797541292910314
370000000.0,22.47,0.0,0.0,0.0,0.04649939281319393,0.15185878562638785,9.792930607186808
375000000.0,22.47,0.0,0.0,0.0,0.03188247814822478,0.14715002913570027,9.802642507283926
380000000.0,22.47,0.0,0.0,0.0,0.01687322214313222,0.17658,9.802936777856868
385000000.0,22.47,0.0,0.0,0.0,0.03924,0.1743236925218369,9.785082614956327
390000000.0,22.47,0.0,0.0,0.0,0.04139820757528207,0.16245358484943584,9.795873584849437
395000000.0,22.47,0.0,0.0,0.0,0.04286967698279677,0.1492101076724011,9.78057
400000000.0,22.47,0.0,0.0,0.0,0.01962,0.15499799223047991,9.786456023308562
405000000.0,22.47,0.0,0.0,0.0,0.023347815733278154,0.14715,9.806272184266723
410000000.0,22.47,0.0,0.0,0.0,0.035708384072483834,0.14361838407248384,9.79038
415000000.0,22.47,0.0,0.0,0.0,0.02462312418263124,0.13586854030438542,9.79038
420000000.0,22.47,0.0,0.0,0.0,0.04748039184200392,0.1750103918420039,9.793519216315993
425000000.0,22.47,0.0,0.0,0.0,0.04218301651023016,0.16677,9.81
430000000.0,22.47,0.0,0.0,0.0,0.05336636659106367,0.16814340835223407,9.804506366591063
435000000.0,22.47,0.0,0.0,0.0,0.020895308449353084,0.17275407465194073,9.775861233797412
440000000.0,22.47,0.0,0.0,0.0,0.030607208546472087,0.14479558290705583,9.81
445000000.0,22.47,0.0,0.0,0.0,0.03924,0.1286091086435911,9.80892089135641
450000000.0,22.47,0.0,0.0,0.0,0.03825899125928991,0.14224504370355043,9.801171008740711
455000000.0,22.47,0.0,0.0,0.0,0.028547091162170912,0.1855070911621709,9.809117091162172
460000000.0,22.47,0.0,0.0,0.0,0.01962,0.1757951910650519,9.799405191065052
465000000.0,22.47,0.0,0.0,0.0,0.01962,0.16677,9.789693290967934
470000000.0,22.47,0.0,0.0,0.0,0.02079721825837218,0.1661813908708139,9.781747218258372
475000000.0,22.47,0.0,0.0,0.0,0.03924,0.15745050922630507,9.800680509226305
480000000.0,22.47,0.0,0.0,0.0,0.038062772029727715,0.1671624093234241,9.81
485000000.0,22.47,0.0,0.0,0.0,0.00981,0.1756970717383707,9.810294309420543
490000000.0,22.47,0.0,0.0,0.0,0.010006209517662094,0.14715,9.819417580964677
495000000.0,22.47,0.0,0.0,0.0,0.019718109614781095,0.1469537807704378,9.80019
500000000.0,22.47,0.0,0.0,0.0,0.02943,0.1275300194238002,9.8001899902881
505000000.0,22.47,0.0,0.0,0.0,0.02943,0.1469538196180382,9.790478090190982
510000000.0,22.47,0.0,0.0,0.0,0.02943,0.1663776198122762,9.79038
515000000.0,22.47,0.0,0.0,0.0,0.02943,0.1953171300097713,9.799895710003257
520000000.0,22.47,0.0,0.0,0.0,0.02943,0.15852955959849557,9.80019
525000000.0,22.47,0.0,0.0,0.0,0.048069020394990204,0.15696,9.781550979605012
530000000.0,22.47,0.0,0.0,0.0,0.04905,0.12007435882154359,9.808234230883842
535000000.0,22.47,0.0,0.0,0.0,0.021680068824800686,0.1359666207834662,9.791753379216534
540000000.0,22.47,0.0,0.0,0.0,0.028645210488852105,0.16441563146655633,9.808430420977706
545000000.0,22.47,0.0,0.0,0.0,0.002648668242086684,0.15784288941402888,9.80107288941403
550000000.0,22.47,0.0,0.0,0.0,0.02648703204927032,0.1657890106830901,9.79136098931691
555000000.0,22.47,0.0,0.0,0.0,0.04689182156041821,0.1755009107802091,9.781649089219792
560000000.0,22.47,0.0,0.0,0.0,0.04905,0.1679471891226719,9.78057
565000000.0,22.47,0.0,0.0,0.0,0.03198057805110578,0.13263115610221157,9.772035289025553
570000000.0,22.47,0.0,0.0,0.0,0.01255677785686778,0.12753,9.796069833214698
575000000.0,22.47,0.0,0.0,0.0,0.026487022337370224,0.1358685111686851,9.816867022337371
580000000.0,22.47,0.0,0.0,0.0,0.021189588734195887,0.15382082253160823,9.79508876620259
585000000.0,22.47,0.0,0.0,0.0,0.027762311362923113,0.18138693408876932,9.798522311362923
590000000.0,22.47,0.0,0.0,0.0,0.03747421146004211,0.17834578853995786,9.80019
595000000.0,22.47,0.0,0.0,0.0,0.03129388844283888,0.16068777688567776,9.808136111557161
600000000.0,22.47,0.0,0.0,0.0,0.045126023308560234,0.17265602330856022,9.77860795338288
605000000.0,22.47,0.0,0.0,0.0,0.03355017649720177,0.13783044124300442,9.801759647005596
610000000.0,22.47,0.0,0.0,0.0,0.014126376302963765,0.15813724739407248,9.81
615000000.0,22.47,0.0,0.0,0.0,0.00981,0.13655515221745151,9.81
620000000.0,22.47,0.0,0.0,0.0,0.02472122408551224,0.14989683612826835,9.802544387957244
625000000.0,22.47,0.0,0.0,0.0,0.02207248786012488,0.1643175121398751,9.80019
630000000.0,22.47,0.0,0.0,0.0,0.026879412236994124,0.15951058776300586,9.771152351052024
635000000.0,22.47,0.0,0.0,0.0,0.022268687665886876,0.17128262466822625,9.76095
640000000.0,22.47,0.0,0.0,0.0,0.05493606215616062,0.15539036270630363,9.782139637293696
645000000.0,22.47,0.0,0.0,0.0,0.03384443735824437,0.16108022505670225,9.804310225056703
650000000.0,22.47,0.0,0.0,0.0,0.01962,0.16677,9.81
655000000.0,22.47,0.0,0.0,0.0,0.012851087277410871,0.16000108727741086,9.803231087277412
660000000.0,22.47,0.0,0.0,0.0,0.03649325127883252,0.14361837436058372,9.793519187180292
665000000.0,22.47,0.0,0.0,0.0,0.05562271291682713,0.13734,9.783807287083174
670000000.0,22.47,0.0,0.0,0.0,0.03296154794421548,0.13086538698605388,9.78057
675000000.0,22.47,0.0,0.0,0.0,0.02599651311106513,0.1466595393331954,9.793323026222131
680000000.0,22.47,0.0,0.0,0.0,0.03570841320818413,0.16323841320818414,9.806468413208185
685000000.0,22.47,0.0,0.0,0.0,0.03305968669469687,0.16677,9.81
690000000.0,22.47,0.0,0.0,0.0,0.02943,0.15460557319515572,9.81
695000000.0,22.47,0.0,0.0,0.0,0.02943,0.1291976595013766,9.792047659501378
700000000.0,22.47,0.0,0.0,0.0,0.03531601359666013,0.14126405438664053,9.786456013596661
705000000.0,22.47,0.0,0.0,0.0,0.045027913693779134,0.16853582738755826,9.796167913693779
710000000.0,22.47,0.0,0.0,0.0,0.04336018620910186,0.17658,9.80019
715000000.0,22.47,0.0,0.0,0.0,0.03364828611198286,0.15980485833594857,9.805781713888019
720000000.0,22.47,0.0,0.0,0.0,0.02393638601486386,0.14165638601486386,9.804506386014864
725000000.0,22.47,0.0,0.0,0.0,0.01962,0.14273551408225513,9.80019
730000000.0,22.47,0.0,0.0,0.0,0.009025171641251715,0.13655517164125172,9.80019
735000000.0,22.47,0.0,0.0,0.0,0.010398628552986285,0.13272931427649315,9.80019
740000000.0,22.47,0.0,0.0,0.0,0.009417571252775711,0.16794728624167288,9.805291214373613
745000000.0,22.47,0.0,0.0,0.0,0.025015572353655726,0.1861937710585377,9.81
750000000.0,22.47,0.0,0.0,0.0,0.044144985432149855,0.17167498543214985,9.8001899708643
755000000.0,22.47,0.0,0.0,0.0,0.03443308533503085,0.1763838293299383,9.79518691466497
760000000.0,22.47,0.0,0.0,0.0,0.02001237047582371,0.17226355571373556,9.80019
765000000.0,22.47,0.0,0.0,0.0,0.00981,0.14773857028158568,9.790968570281587
770000000.0,22.47,0.0,0.0,0.0,0.023347844868978444,0.13282738504367383,9.794107844868979
775000000.0,22.47,0.0,0.0,0.0,0.03482548494655485,0.1363590301068903,9.81
780000000.0,22.47,0.0,0.0,0.0,0.016480754548307545,0.1557828303011283,9.81
785000000.0,22.47,0.0,0.0,0.0,0.004218315247683153,0.17942494574304946,9.81
790000000.0,22.47,0.0,0.0,0.0,0.02217064603440646,0.18383935396559356,9.805879784655199
795000000.0,22.47,0.0,0.0,0.0,0.043262115441921156,0.16677,9.80019
800000000.0,22.47,0.0,0.0,0.0,0.04120196892191969,0.15892196892191968,9.79626598446096
805000000.0,22.47,0.0,0.0,0.0,0.017952253091522534,0.15097591563615914,9.79420591563616
810000000.0,22.47,0.0,0.0,0.0,0.011183447199834473,0.14577655280016552,9.803917815733278
815000000.0,22.47,0.0,0.0,0.0,0.03668943166079432,0.14204886332158864,9.806370284169603
820000000.0,22.47,0.0,0.0,0.0,0.041986768144967684,0.16323838407248384,9.80019
825000000.0,22.47,0.0,0.0,0.0,0.025996483975364842,0.16039351602463514,9.803623516024636
830000000.0,22.47,0.0,0.0,0.0,0.029626248365262484,0.16343458387824583,9.796658335512983
835000000.0,22.47,0.0,0.0,0.0,0.03933805134338052,0.15372268378112683,9.780471948656619
840000000.0,22.47,0.0,0.0,0.0,0.03217686526396865,0.14401078368400783,9.80019
845000000.0,22.47,0.0,0.0,0.0,0.04973665076066651,0.14342223282622232,9.80019
850000000.0,22.47,0.0,0.0,0.0,0.03237301651023017,0.16284603302046033,9.80019
855000000.0,22.47,0.0,0.0,0.0,0.042084916607349164,0.1737350833926508,9.80019
860000000.0,22.47,0.0,0.0,0.0,0.04355636659106367,0.16127636659106367,9.794696366591065
865000000.0,22.47,0.0,0.0,0.0,0.02943,0.14979871680158716,9.788516150404762
870000000.0,22.47,0.0,0.0,0.0,0.02687938310129383,0.15696,9.799797532405176
875000000.0,22.47,0.0,0.0,0.0,0.02452503399165034,0.15941251699582515,9.773212516995825
880000000.0,22.47,0.0,0.0,0.0,0.036885582907055826,0.16912441709294418,9.787633251278834
885000000.0,22.47,0.0,0.0,0.0,0.02717368280993683,0.17432368280993682,9.81
890000000.0,22.47,0.0,0.0,0.0,0.021778217287182173,0.16245356542563566,9.81
895000000.0,22.47,0.0,0.0,0.0,0.03149011738430117,0.14715,9.807939882615699
900000000.0,22.47,0.0,0.0,0.0,0.03531596503715965,0.14518798251857984,9.804114034962842
905000000.0,22.47,0.0,0.0,0.0,0.02334783515707835,0.14106783515707835,9.816082164842921
910000000.0,22.47,0.0,0.0,0.0,0.03924,0.15342836464868365,9.801955817675658
915000000.0,22.47,0.0,0.0,0.0,0.03924,0.14234315331833153,9.811667717772778
920000000.0,22.47,0.0,0.0,0.0,0.03924,0.16677,9.818240382130105
925000000.0,22.47,0.0,0.0,0.0,0.037768482032984815,0.16677,9.811471517967016
930000000.0,22.47,0.0,0.0,0.0,0.030803418064134183,0.16402316387173163,9.818436581935867
935000000.0,22.47,0.0,0.0,0.0,0.037964681838746815,0.14715,9.807449363677494
940000000.0,22.47,0.0,0.0,0.0,0.02943,0.1483272182583722,9.791557218258372
945000000.0,22.47,0.0,0.0,0.0,0.02943,0.15696,9.79911088164451
950000000.0,22.47,0.0,0.0,0.0,0.02943,0.15696,9.79038
955000000.0,22.47,0.0,0.0,0.0,0.03207875564918756,0.15784291854972918,9.79214583709946
960000000.0,22.47,0.0,0.0,0.0,0.056505544059455445,0.16598518135315182,9.808430362706304
965000000.0,22.47,0.0,0.0,0.0,0.030116718743967187,0.15833343748793435,9.791066718743968
970000000.0,22.47,0.0,0.0,0.0,0.03747414347674143,0.17304828695348284,9.799601381158915
975000000.0,22.47,0.0,0.0,0.0,0.011772075752820757,0.11968207575282076,9.790870518938206
980000000.0,22.47,0.0,0.0,0.0,0.04865758096467581,0.1561751619293516,9.80019
985000000.0,22.47,0.0,0.0,0.0,0.03953431913244319,0.13822295739732957,9.800484319132444
990000000.0,22.47,0.0,0.0,0.0,0.04885378077043781,0.1669662192295622,9.81
995000000.0,22.47,0.0,0.0,0.0,0.0391418806733188,0.17667811932668118,9.809705642019956
1000000000.0,22.47,0.0,0.0,0.0,0.029430019423800195,0.1863899417285994,9.780570038847602
1005000000.0,22.47,0.0,0.0,0.0,0.039141919520919194,0.1572542414372424,9.79999383904184
1010000000.0,22.47,0.0,0.0,0.0,0.020012360763923605,0.1377323607639236,9.780962360763924
1015000000.0,22.47,0.0,0.0,0.0,0.03865143943031439,0.1468557197151572,9.81863287886063
1020000000.0,22.47,0.0,0.0,0.0,0.010987140563171408,0.15656761981227618,9.810392380187725
1025000000.0,22.47,0.0,0.0,0.0,0.0191295199093952,0.1476404800906048,9.782041440271815
1030000000.0,22.47,0.0,0.0,0.0,0.0472842600195426,0.1563714200065142,9.771348579993486
1035000000.0,22.47,0.0,0.0,0.0,0.021680039689100396,0.1660833201036332,9.789006640207267
1040000000.0,22.47,0.0,0.0,0.0,0.028645220200752202,0.16677,9.79038
1045000000.0,22.47,0.0,0.0,0.0,0.020502879702128794,0.1489157594042576,9.808234240595743
1050000000.0,22.47,0.0,0.0,0.0,0.037278040789980406,0.1559790203949902,9.81
1055000000.0,22.47,0.0,0.0,0.0,0.030509079507890793,0.1482290795078908,9.81
1060000000.0,22.47,0.0,0.0,0.0,0.04669564117845641,0.1730484617676846,9.784101538232317
1065000000.0,22.47,0.0,0.0,0.0,0.04051527931365279,0.14244111725461117,9.789104720686348
1070000000.0,22.47,0.0,0.0,0.0,0.022366758433067582,0.1542132415669324,9.79038
1075000000.0,22.47,0.0,0.0,0.0,0.03629704176117042,0.1736370417611704,9.80705704176117
1080000000.0,22.47,0.0,0.0,0.0,0.02275915804459158,0.1683395790222958,9.81
1085000000.0,22.47,0.0,0.0,0.0,0.01962,0.16677,9.801857678925177
1090000000.0,22.47,0.0,0.0,0.0,0.03570844234388442,0.15872577882805777,9.808234221171944
1095000000.0,22.47,0.0,0.0,0.0,0.02334775746187757,0.15696,9.80205387873094
1100000000.0,22.47,0.0,0.0,0.0,0.03531604273236043,0.14911197863381978,9.77664593590146
1105000000.0,22.47,0.0,0.0,0.0,0.046989921463299215,0.1548999214632992,9.794009764389898
1110000000.0,22.47,0.0,0.0,0.0,0.010790892197908922,0.14165635687916356,9.80019
1115000000.0,22.47,0.0,0.0,0.0,0.015107443315074433,0.14489372165753722,9.807743721657538
1120000000.0,22.47,0.0,0.0,0.0,0.027075621754656217,0.16951686526396864,9.81
1125000000.0,22.47,0.0,0.0,0.0,0.02207247814822478,0.17658,9.780569912592899
1130000000.0,22.47,0.0,0.0,0.0,0.04139826584668266,0.16932057805110579,9.785278843897789
1135000000.0,22.47,0.0,0.0,0.0,0.02756603386196034,0.15960867795398678,9.79038
1140000000.0,22.47,0.0,0.0,0.0,0.005493555713735556,0.16402322214313222,9.783316777856868
1145000000.0,22.47,0.0,0.0,0.0,0.006965122240251222,0.13890951103899513,9.787535122240252
1150000000.0,22.47,0.0,0.0,0.0,0.023544044674740444,0.1618651116868511,9.80411404467474
1155000000.0,22.47,0.0,0.0,0.0,0.036198922434489224,0.16304215513102155,9.81
1160000000.0,22.47,0.0,0.0,0.0,0.032569177468391775,0.1836432901264329,9.81
1165000000.0,22.47,0.0,0.0,0.0,0.02943,0.16333638685636387,9.81
1170000000.0,22.47,0.0,0.0,0.0,0.016480754548307545,0.14715,9.81
1175000000.0,22.47,0.0,0.0,0.0,0.016186522822965226,0.14715,9.790870431531106
1180000000.0,22.47,0.0,0.0,0.0,0.013341577079915769,0.14715,9.793126845840169
1185000000.0,22.47,0.0,0.0,0.0,0.02835096905160969,0.15951064603440646,9.794009676982798
1190000000.0,22.47,0.0,0.0,0.0,0.027075553771355537,0.16677,9.802544446228644
1195000000.0,22.47,0.0,0.0,0.0,0.031588246422882466,0.16677,9.81
1200000000.0,22.47,0.0,0.0,0.0,0.02746795338287953,0.16677,9.80411397669144
1205000000.0,22.47,0.0,0.0,0.0,0.025407923405679232,0.15519415318864152,9.794402076594322
1210000000.0,22.47,0.0,0.0,0.0,0.035119823502798235,0.1642194705083947,9.7960698235028
1215000000.0,22.47,0.0,0.0,0.0,0.028056552800165523,0.16539655280016552,9.794598276400084
1220000000.0,22.47,0.0,0.0,0.0,0.030607247394072473,0.16245362369703623,9.801367247394072
1225000000.0,22.47,0.0,0.0,0.0,0.03384447620584476,0.17216552379415523,9.81
1230000000.0,22.47,0.0,0.0,0.0,0.02943,0.14479545665235455,9.804702576108726
1235000000.0,22.47,0.0,0.0,0.0,0.03982864797678648,0.13331797196517972,9.80019
1240000000.0,22.47,0.0,0.0,0.0,0.03884755182897552,0.15735244817102448,9.795088775914488
1245000000.0,22.47,0.0,0.0,0.0,0.03443312418263124,0.15676375163473752,9.795383124182631
1250000000.0,22.47,0.0,0.0,0.0,0.03433497572024976,0.1569600485595005,9.80019
1255000000.0,22.47,0.0,0.0,0.0,0.024623075623130757,0.17157692437686925,9.795383075623132
1260000000.0,22.47,0.0,0.0,0.0,0.029037648947976488,0.16245352657803527,9.785671175526012
1265000000.0,22.47,0.0,0.0,0.0,0.034629275428892756,0.15176072457110723,9.785180724571108
1270000000.0,22.47,0.0,0.0,0.0,0.02943,0.15696,9.785867375331774
1275000000.0,22.47,0.0,0.0,0.0,0.020600950469309508,0.1481309504693095,9.793813574296037
1280000000.0,22.47,0.0,0.0,0.0,0.018442849724928496,0.14165642486246424,9.81
1285000000.0,22.47,0.0,0.0,0.0,0.02943,0.164023299838333,9.805781675040418
1290000000.0,22.47,0.0,0.0,0.0,0.0376704501134045,0.18226977494329774,9.808430450113406
1295000000.0,22.47,0.0,0.0,0.0,0.0410057496923575,0.160491499384715,9.81578787484618
1300000000.0,22.47,0.0,0.0,0.0,0.03335402525094025,0.13734,9.80215194949812
1305000000.0,22.47,0.0,0.0,0.0,0.03158814930388149,0.12968814930388148,9.782728149303882
1310000000.0,22.47,0.0,0.0,0.0,0.030803476335534763,0.12890347633553476,9.778215650890356
1315000000.0,22.47,0.0,0.0,0.0,0.04542027445770275,0.15803917662689176,9.797639451084596
1320000000.0,22.47,0.0,0.0,0.0,0.032176748721167485,0.16951674872116748,9.81
1325000000.0,22.47,0.0,0.0,0.0,0.016186474263464742,0.1638270514730705,9.813433525736535
1330000000.0,22.47,0.0,0.0,0.0,0.01981627750096277,0.16990914833269147,9.816474574166346
1335000000.0,22.47,0.0,0.0,0.0,0.03600267406922674,0.15048534813845346,9.803525348138454
1340000000.0,22.47,0.0,0.0,0.0,0.02629077397210774,0.14361845205578452,9.79038
1345000000.0,22.47,0.0,0.0,0.0,0.01962,0.15391887387498873,9.796462252250024
1350000000.0,22.47,0.0,0.0,0.0,0.031392104888521045,0.15009302622213025,9.80411394755574
1355000000.0,22.47,0.0,0.0,0.0,0.04748029472300295,0.15127014736150146,9.7960698526385
1360000000.0,22.47,0.0,0.0,0.0,0.022366826416368262,0.14008682641636827,9.81
1365000000.0,22.47,0.0,0.0,0.0,0.02943,0.14450127348651273,9.807351273486514
1370000000.0,22.47,0.0,0.0,0.0,0.031980626610606265,0.1424412532212125,9.795088746778788
1375000000.0,22.47,0.0,0.0,0.0,0.029429893169098928,0.15450747329227474,9.778117473292275
1380000000.0,22.47,0.0,0.0,0.0,0.007063280414532804,0.15185885360968854,9.775468853609688
1385000000.0,22.47,0.0,0.0,0.0,0.03394265380392654,0.16451367309803672,9.794892653803927
1390000000.0,22.47,0.0,0.0,0.0,0.04473354600183546,0.15696,9.805683546001836
1395000000.0,22.47,0.0,0.0,0.0,0.02943,0.15902012709620125,9.792440127096201
1400000000.0,22.47,0.0,0.0,0.0,0.02943,0.16677,9.802152027193321
1405000000.0,22.47,0.0,0.0,0.0,0.027566072709560727,0.16677,9.806272145419122
1410000000.0,22.47,0.0,0.0,0.0,0.01608834522488345,0.1650041726124417,9.792145827387559
1415000000.0,22.47,0.0,0.0,0.0,0.0033354549693545496,0.16029545496935454,9.801857727484679
1420000000.0,22.47,0.0,0.0,0.0,0.01962,0.17501037241820372,9.81
1425000000.0,22.47,0.0,0.0,0.0,0.021091527678915277,0.16382694464216946,9.81
1430000000.0,22.47,0.0,0.0,0.0,0.02943,0.14715,9.81
1435000000.0,22.47,0.0,0.0,0.0,0.025604016380540166,0.14842532787315327,9.81
1440000000.0,22.47,0.0,0.0,0.0,0.0023544559405445594,0.15342831608918314,9.806468316089184
1445000000.0,22.47,0.0,0.0,0.0,0.02069912806739128,0.12968825613478258,9.783807384202175
1450000000.0,22.47,0.0,0.0,0.0,0.02943,0.15009308449353084,9.81098102816451
1455000000.0,22.47,0.0,0.0,0.0,0.02854707173837072,0.17481414347674143,9.81981
1460000000.0,22.47,0.0,0.0,0.0,0.018835171641251716,0.15774482835874828,9.819025171641252
1465000000.0,22.47,0.0,0.0,0.0,0.01461709919107099,0.16677,9.808626543088266
1470000000.0,22.47,0.0,0.0,0.0,0.07553685723506856,0.16500411434104115,9.790968628552987
1475000000.0,22.47,0.0,0.0,0.0,0.02943,0.13734,9.799699471349895
1480000000.0,22.47,0.0,0.0,0.0,0.02825271375832714,0.13773242874722427,9.791164857494449
1485000000.0,22.47,0.0,0.0,0.0,0.0017659730660597307,0.14832731537737315,9.81
1490000000.0,22.47,0.0,0.0,0.0,0.057878855292688554,0.18580131317561313,9.81
1495000000.0,22.47,0.0,0.0,0.0,0.01000625807716258,0.1568618709614187,9.809803741922838
1500000000.0,22.47,0.0,0.0,0.0,0.029429912592899128,0.1471500582714006,9.7903799708643
1505000000.0,22.47,0.0,0.0,0.0,0.00029421230154212316,0.1665738584656386,9.780668070767181
1510000000.0,22.47,0.0,0.0,0.0,0.019227658659876586,0.15715617067006168,9.799797658659877
1515000000.0,22.47,0.0,0.0,0.0,0.029135729427057295,0.1474442705729427,9.819221458854114
1520000000.0,22.47,0.0,0.0,0.0,0.0200123704758237,0.14715,9.81981
1525000000.0,22.47,0.0,0.0,0.0,0.01962,0.17510858886388586,9.81981
1530000000.0,22.47,0.0,0.0,0.0,0.01962,0.1673585702815857,9.792145710844759
1535000000.0,22.47,0.0,0.0,0.0,0.0104966701844667,0.15764667018446668,9.79038
1540000000.0,22.47,0.0,0.0,0.0,0.018835229912652296,0.1479347700873477,9.799405229912653
1545000000.0,22.47,0.0,0.0,0.0,0.01962,0.14715,9.782335739980459
1550000000.0,22.47,0.0,0.0,0.0,0.010790969893109698,0.14715,9.807057090320672
1555000000.0,22.47,0.0,0.0,0.0,0.0360027906120279,0.16461186040801862,9.81
1560000000.0,22.47,0.0,0.0,0.0,0.0306071696988717,0.15813716969887168,9.801367169698873
1565000000.0,22.47,0.0,0.0,0.0,0.04649946079649461,0.1398905392035054,9.80019
1570000000.0,22.47,0.0,0.0,0.0,0.03217673900926739,0.1457766304953663,9.80019
1575000000.0,22.47,0.0,0.0,0.0,0.02943,0.1721655917774559,9.808528530592486
1580000000.0,22.47,0.0,0.0,0.0,0.04591086137920862,0.15185870793118708,9.81
1585000000.0,22.47,0.0,0.0,0.0,0.04090766921327669,0.1715769923601699,9.801857669213277
1590000000.0,22.47,0.0,0.0,0.0,0.023151538232315378,0.1846242308838423,9.808234230883842
1595000000.0,22.47,0.0,0.0,0.0,0.01962,0.13871321411423215,9.81
1600000000.0,22.47,0.0,0.0,0.0,0.03531606215616062,0.15892212431232125,9.79430393784384
1605000000.0,22.47,0.0,0.0,0.0,0.015990206474402066,0.1590200688248007,9.79038
1610000000.0,22.47,0.0,0.0,0.0,0.025113662544636622,0.14930816872768168,9.805683662544638
1615000000.0,22.47,0.0,0.0,0.0,0.02943,0.1547037313694373,9.81
1620000000.0,22.47,0.0,0.0,0.0,0.05179689439966895,0.14204873706688737,9.81
1625000000.0,22.47,0.0,0.0,0.0,0.03678740530897406,0.16677012625470125,9.79528493687265
1630000000.0,22.47,0.0,0.0,0.0,0.02943,0.17658,9.79038
1635000000.0,22.47,0.0,0.0,0.0,0.05091399527373995,0.16225733648417334,9.79038
1640000000.0,22.47,0.0,0.0,0.0,0.044733536289935365,0.16402323185503231,9.783316768144969
1645000000.0,22.47,0.0,0.0,0.0,0.02530973609569736,0.15283973609569737,9.787535131952152
1650000000.0,22.47,0.0,0.0,0.0,0.012752967950729678,0.1540170320492703,9.79724703204927
1655000000.0,22.47,0.0,0.0,0.0,0.03011679643916796,0.17049786429277863,9.80019
1660000000.0,22.47,0.0,0.0,0.0,0.03924,0.17658,9.806860832243508
1665000000.0,22.47,0.0,0.0,0.0,0.03924,0.18972546468125465,9.796854535318746
1670000000.0,22.47,0.0,0.0,0.0,0.03924,0.1703014702490147,9.79038
1675000000.0,22.47,0.0,0.0,0.0,0.020110402395404025,0.15696,9.77762693493027
1680000000.0,22.47,0.0,0.0,0.0,0.022366865263968652,0.15068156736801566,9.789595297895954
1685000000.0,22.47,0.0,0.0,0.0,0.03561033272910333,0.15333033272910332,9.794009667270897
1690000000.0,22.47,0.0,0.0,0.0,0.03315776717377767,0.14479553434755532,9.79038
1695000000.0,22.47,0.0,0.0,0.0,0.03541413292334133,0.14332413292334134,9.778411734153318
1700000000.0,22.47,0.0,0.0,0.0,0.03924,0.15892206604092066,9.78253206604092
1705000000.0,22.47,0.0,0.0,0.0,0.03345206688242067,0.16677,9.79616793311758
1710000000.0,22.47,0.0,0.0,0.0,0.02943,0.16108016678530165,9.80019
1715000000.0,22.47,0.0,0.0,0.0,0.02943,0.1457765333763653,9.805781733311818
1720000000.0,22.47,0.0,0.0,0.0,0.012949099773191,0.15931453363574533,9.81
1725000000.0,22.47,0.0,0.0,0.0,0.01079106701211067,0.17118446649394467,9.804604466493945
1730000000.0,22.47,0.0,0.0,0.0,0.024917433603174336,0.16677,9.81078486720635
1735000000.0,22.47,0.0,0.0,0.0,0.024230666299706664,0.16157066629970665,9.809411332599414
1740000000.0,22.47,0.0,0.0,0.0,0.02472123379741234,0.16716246759482467,9.79508876620259
1745000000.0,22.47,0.0,0.0,0.0,0.02442686610546866,0.17658,9.800386267789063
1750000000.0,22.47,0.0,0.0,0.0,0.02452503399165034,0.15695986403339862,9.8001899320167
1755000000.0,22.47,0.0,0.0,0.0,0.02943,0.14695386817753867,9.804800802266309
1760000000.0,22.47,0.0,0.0,0.0,0.02001233162822332,0.1475423316282233,9.824518834185888
1765000000.0,22.47,0.0,0.0,0.0,0.019031468566014686,0.13734,9.825009265716993
1770000000.0,22.47,0.0,0.0,0.0,0.024917365619873656,0.15087790314037902,9.810784731239748
1775000000.0,22.47,0.0,0.0,0.0,0.02844906895449069,0.16677,9.79136093104551
1780000000.0,22.47,0.0,0.0,0.0,0.03924,0.16677,9.78057
1785000000.0,22.47,0.0,0.0,0.0,0.03924,0.16677,9.784788334671484
1790000000.0,22.47,0.0,0.0,0.0,0.0309995304627953,0.1585295304627953,9.794500234768604
1795000000.0,22.47,0.0,0.0,0.0,0.027664269731442696,0.1551942697314427,9.79616786513428
1800000000.0,22.47,0.0,0.0,0.0,0.023543860148638598,0.16284596503715965,9.78645596503716
1805000000.0,22.47,0.0,0.0,0.0,0.015303740239837403,0.16078593505995933,9.795873740239838
1810000000.0,22.47,0.0,0.0,0.0,0.03178432968584329,0.1518586593716866,9.816082164842921
1815000000.0,22.47,0.0,0.0,0.0,0.026879470508394704,0.1347894705083947,9.799110794237409
1820000000.0,22.47,0.0,0.0,0.0,0.04277163535131635,0.15068163535131635,9.787633270702633
1825000000.0,22.47,0.0,0.0,0.0,0.052483535448435356,0.15009292910312927,9.80019
1830000000.0,22.47,0.0,0.0,0.0,0.048853693363336934,0.14734630663666307,9.80019
1835000000.0,22.47,0.0,0.0,0.0,0.02943,0.15705799307197993,9.803427335642674
1840000000.0,22.47,0.0,0.0,0.0,0.02943,0.13734,9.813139235739794
1845000000.0,22.47,0.0,0.0,0.0,0.03247113583691136,0.13734,9.813727728326178
1850000000.0,22.47,0.0,0.0,0.0,0.03335392813193928,0.14322607186806072,9.803133035934032
1855000000.0,22.47,0.0,0.0,0.0,0.01962,0.15696,9.807155063968851
1860000000.0,22.47,0.0,0.0,0.0,0.022366836128268362,0.1624536722565367,9.805683672256537
1865000000.0,22.47,0.0,0.0,0.0,0.037376208676162086,0.17393126377461263,9.81186379132384
1870000000.0,22.47,0.0,0.0,0.0,0.05886,0.16677,9.787829363677494
1875000000.0,22.47,0.0,0.0,0.0,0.04659731790187318,0.16186492716074927,9.785475072839251
1880000000.0,22.47,0.0,0.0,0.0,0.021582182583721826,0.14244112696651126,9.802544436516746
1885000000.0,22.47,0.0,0.0,0.0,0.04757831693068317,0.12978633661386338,9.807743663386137
1890000000.0,22.47,0.0,0.0,0.0,0.011968236710982367,0.13949823671098235,9.804506473421965
1895000000.0,22.47,0.0,0.0,0.0,0.023740273616202734,0.14921013680810136,9.8177498631919
1900000000.0,22.47,0.0,0.0,0.0,0.037277963094779626,0.15892203690522036,9.80803796309478
1905000000.0,22.47,0.0,0.0,0.0,0.03502181100701811,0.16677,9.798326062997662
1910000000.0,22.47,0.0,0.0,0.0,0.05356248870162489,0.16323832580108327,9.79038
1915000000.0,22.47,0.0,0.0,0.0,0.03276547439315475,0.14881773719657737,9.792047737196578
1920000000.0,22.47,0.0,0.0,0.0,0.04591072541260726,0.15852963729369637,9.801759637293697
1925000000.0,22.47,0.0,0.0,0.0,0.030901537390815373,0.16235538782755388,9.81
1930000000.0,22.47,0.0,0.0,0.0,0.04198687497586875,0.14008687497586875,9.81
1935000000.0,22.47,0.0,0.0,0.0,0.0537586496597865,0.15951067517010675,9.808724662414948
1940000000.0,22.47,0.0,0.0,0.0,0.01962,0.17658,9.796658286953484
1945000000.0,22.47,0.0,0.0,0.0,0.02285741333787413,0.17442172444141724,9.773997413337874
1950000000.0,22.47,0.0,0.0,0.0,0.048068962123589624,0.15696,9.80019
1955000000.0,22.47,0.0,0.0,0.0,0.03659118607941186,0.15607706202647062,9.797541186079412
1960000000.0,22.47,0.0,0.0,0.0,0.01059483807064838,0.14715,9.772329676141297
1965000000.0,22.47,0.0,0.0,0.0,0.018933261832232616,0.14852347633553475,9.791066738167768
1970000000.0,22.47,0.0,0.0,0.0,0.010398638264886382,0.16559272347022724,9.799601361735114
1975000000.0,22.47,0.0,0.0,0.0,0.01962,0.14862161508601615,9.789889461637996
1980000000.0,22.47,0.0,0.0,0.0,0.020012438459124385,0.17618756154087561,9.78057
1985000000.0,22.47,0.0,0.0,0.0,0.02943,0.16677,9.780864338556244
1990000000.0,22.47,0.0,0.0,0.0,0.029626238653362388,0.16677,9.790772477306726
1995000000.0,22.47,0.0,0.0,0.0,0.03924,0.16657372249903724,9.80990186124952
2000000000.0,22.47,0.0,0.0,0.0,0.03924,0.14715011654280116,9.80019
2005000000.0,22.47,0.0,0.0,0.0,0.03924,0.17628581683415814,9.80019
2010000000.0,22.47,0.0,0.0,0.0,0.03924,0.14773848287448482,9.790576160958162
2015000000.0,22.47,0.0,0.0,0.0,0.0011770434441704322,0.15666573913895737,9.799895739138957
2020000000.0,22.47,0.0,0.0,0.0,0.009417639236076393,0.1475423607639236,9.80019
2025000000.0,22.47,0.0,0.0,0.0,0.00981,0.1378304606668046,9.790870460666806
2030000000.0,22.47,0.0,0.0,0.0,0.03747431829094318,0.15578287886062878,9.80882287886063
2035000000.0,22.47,0.0,0.0,0.0,0.03924,0.17520667905486678,9.791753320945134
2040000000.0,22.47,0.0,0.0,0.0,0.021189520750895204,0.17658,9.79038
2045000000.0,22.47,0.0,0.0,0.0,0.028547139721671395,0.15872572055665718,9.808234279443344
2050000000.0,22.47,0.0,0.0,0.0,0.0382590398187904,0.15696,9.80117096018121
2055000000.0,22.47,0.0,0.0,0.0,0.0305090600840906,0.1307671802522718,9.81765187983182
2060000000.0,22.47,0.0,0.0,0.0,0.0380628400130284,0.1620613600521136,9.802544319973943
2065000000.0,22.47,0.0,0.0,0.0,0.0477747401101474,0.1497005197797052,9.791655259889854
2070000000.0,22.47,0.0,0.0,0.0,0.023740079378200794,0.1555866402072664,9.798816640207267
2075000000.0,22.47,0.0,0.0,0.0,0.0029429193912291936,0.1652985403043854,9.766835838782457
2080000000.0,22.47,0.0,0.0,0.0,0.041202202007522025,0.16677,9.785671321204514
2085000000.0,22.47,0.0,0.0,0.0,0.04090765950137659,0.13420063800550638,9.806664680997248
2090000000.0,22.47,0.0,0.0,0.0,0.015107278212772784,0.14361848119148482,9.801955759404258
2095000000.0,22.47,0.0,0.0,0.0,0.017756140692861404,0.1550961406928614,9.808136140692861
2100000000.0,22.47,0.0,0.0,0.0,0.035316081579960815,0.14126391842003916,9.80215195921002
2105000000.0,22.47,0.0,0.0,0.0,0.03149005911290059,0.14508994088709942,9.807939940887099
2110000000.0,22.47,0.0,0.0,0.0,0.04473368196843682,0.13949815901578158,9.81
2115000000.0,22.47,0.0,0.0,0.0,0.03394251783732518,0.16755496432534964,9.802446258918664
2120000000.0,22.47,0.0,0.0,0.0,0.02197435882154359,0.16166871764308716,9.785278717643088
2125000000.0,22.47,0.0,0.0,0.0,0.026977541275575414,0.1643175412755754,9.802642623826728
2130000000.0,22.47,0.0,0.0,0.0,0.022170558627305586,0.15951055862730557,9.795481117254612
2135000000.0,22.47,0.0,0.0,0.0,0.04110402440944025,0.15696,9.819025365879254
2140000000.0,22.47,0.0,0.0,0.0,0.02079703373227034,0.15696,9.815493516866136
2145000000.0,22.47,0.0,0.0,0.0,0.02374028332810283,0.15696,9.803034858335948
2150000000.0,22.47,0.0,0.0,0.0,0.02943,0.1638270417611704,9.80705704176117
2155000000.0,22.47,0.0,0.0,0.0,0.02943,0.1735389418582894,9.789693174425132
2160000000.0,22.47,0.0,0.0,0.0,0.016088316089183163,0.16990915804459159,9.787240841955409
2165000000.0,22.47,0.0,0.0,0.0,0.01638274205252742,0.16019725794747258,9.79038
2170000000.0,22.47,0.0,0.0,0.0,0.013145357850353577,0.16343464214964643,9.803329284299293
2175000000.0,22.47,0.0,0.0,0.0,0.00981,0.15401691550646915,9.79724691550647
2180000000.0,22.47,0.0,0.0,0.0,0.00981,0.14715,9.80293688468777
2185000000.0,22.47,0.0,0.0,0.0,0.02217068488200685,0.14096965755899657,9.803819657558996
2190000000.0,22.47,0.0,0.0,0.0,0.02943,0.14950448507624484,9.80019
2195000000.0,22.47,0.0,0.0,0.0,0.02943,0.15696,9.806174142635243
2200000000.0,22.47,0.0,0.0,0.0,0.04120208546472086,0.14518791453527913,9.80411395726764
2205000000.0,22.47,0.0,0.0,0.0,0.04326205717052057,0.15470382848843828,9.80019
2210000000.0,22.47,0.0,0.0,0.0,0.033550157073401574,0.16677,9.783120471220204
2215000000.0,22.47,0.0,0.0,0.0,0.03502174302371743,0.1499947709288477,9.787535229071151
2220000000.0,22.47,0.0,0.0,0.0,0.028252713758327136,0.1593145724833457,9.811177286241673
2225000000.0,22.47,0.0,0.0,0.0,0.025015543217955433,0.17658,9.803623370346134
2230000000.0,22.47,0.0,0.0,0.0,0.034727443315074435,0.17128255668492556,9.800974886630149
2235000000.0,22.47,0.0,0.0,0.0,0.03924,0.16677,9.804800656587807
2240000000.0,22.47,0.0,0.0,0.0,0.02903751298137513,0.16166875649068757,9.795088756490689
2245000000.0,22.47,0.0,0.0,0.0,0.014616856393568562,0.15696,9.785376856393569
2250000000.0,22.47,0.0,0.0,0.0,0.024525131110651306,0.16186504370355043,9.795285131110653
2255000000.0,22.47,0.0,0.0,0.0,0.02962611239866112,0.1523491685979917,9.800386112398662
2260000000.0,22.47,0.0,0.0,0.0,0.01962,0.14204884389778843,9.795088843897789
2265000000.0,22.47,0.0,0.0,0.0,0.01962,0.15176074399490744,9.80019
2270000000.0,22.47,0.0,0.0,0.0,0.03315793227607933,0.15696,9.80019
2275000000.0,22.47,0.0,0.0,0.0,0.03580636743256368,0.16137454418914543,9.795775455810855
2280000000.0,22.47,0.0,0.0,0.0,0.028252888572528882,0.16245355571373554,9.794696444286265
2285000000.0,22.47,0.0,0.0,0.0,0.03080331123323311,0.15696,9.795971655616617
2290000000.0,22.47,0.0,0.0,0.0,0.01962,0.15283975551949755,9.79038
2295000000.0,22.47,0.0,0.0,0.0,0.01962,0.14715,9.794402144577623
2300000000.0,22.47,0.0,0.0,0.0,0.01962,0.1549980893494809,9.80019
2305000000.0,22.47,0.0,0.0,0.0,0.01962,0.15529216568442167,9.80401594477186
2310000000.0,22.47,0.0,0.0,0.0,0.030803534606935346,0.1447956897379569,9.802544310262043
2315000000.0,22.47,0.0,0.0,0.0,0.034531020135610206,0.16784923489829234,9.794009744966099
2320000000.0,22.47,0.0,0.0,0.0,0.0168732901264329,0.18285835493678354,9.796658354936785
2325000000.0,22.47,0.0,0.0,0.0,0.036297090320670904,0.16627936451899364,9.793813545160337
2330000000.0,22.47,0.0,0.0,0.0,0.04905,0.1538208905149089,9.796854554742547
2335000000.0,22.47,0.0,0.0,0.0,0.032863273227132735,0.16677,9.796854690709148
2340000000.0,22.47,0.0,0.0,0.0,0.009417736355077363,0.16677,9.81
2345000000.0,22.47,0.0,0.0,0.0,0.032471145548811454,0.16981114554881147,9.800876563353567
2350000000.0,22.47,0.0,0.0,0.0,0.036296954354069544,0.17069390870813908,9.789399136937792
2355000000.0,22.47,0.0,0.0,0.0,0.026585054256950544,0.15696,9.80715505425695
2360000000.0,22.47,0.0,0.0,0.0,0.027860537520505373,0.1624536916803369,9.80019
2365000000.0,22.47,0.0,0.0,0.0,0.04640125406271254,0.17393125406271254,9.80019
2370000000.0,22.47,0.0,0.0,0.0,0.031588061896780616,0.16932064603440647,9.805291292068814
2375000000.0,22.47,0.0,0.0,0.0,0.01226254613152546,0.16922236160542362,9.812452361605423
2380000000.0,22.47,0.0,0.0,0.0,0.021974446228644463,0.14715,9.79508889245729
2385000000.0,22.47,0.0,0.0,0.0,0.02943,0.15166269265152693,9.814512692651528
2390000000.0,22.47,0.0,0.0,0.0,0.02943,0.16892824642288246,9.823145260731353
2395000000.0,22.47,0.0,0.0,0.0,0.02530970695999707,0.17451985347999852,9.80019
2400000000.0,22.47,0.0,0.0,0.0,0.013734093234240932,0.16677,9.80215204661712
2405000000.0,22.47,0.0,0.0,0.0,0.02943,0.16304210657152107,9.80813605328576
2410000000.0,22.47,0.0,0.0,0.0,0.02943,0.14891584681135847,9.80019
2415000000.0,22.47,0.0,0.0,0.0,0.03109774690847747,0.15529225309152253,9.801857746908478
2420000000.0,22.47,0.0,0.0,0.0,0.03767035299440353,0.14871964700559648,9.806860705988807
2425000000.0,22.47,0.0,0.0,0.0,0.02795845289728453,0.15843154710271545,9.785965358691854
2430000000.0,22.47,0.0,0.0,0.0,0.02099344719983447,0.16951689439966894,9.765070341599502
2435000000.0,22.47,0.0,0.0,0.0,0.030705347296953473,0.18639,9.791655347296954
2440000000.0,22.47,0.0,0.0,0.0,0.03806275260592752,0.18403550521185505,9.799012752605929
2445000000.0,22.47,0.0,0.0,0.0,0.030509147491191477,0.16569085250880852,9.788221705017618
2450000000.0,22.47,0.0,0.0,0.0,0.03629685723506857,0.15401685723506855,9.77370314276493
2455000000.0,22.47,0.0,0.0,0.0,0.013341790741717907,0.12929589537085895,9.80019
2460000000.0,22.47,0.0,0.0,0.0,0.047480304434903045,0.14636515221745153,9.800974847782548
2465000000.0,22.47,0.0,0.0,0.0,0.02943,0.1400869915186699,9.807939756360998
2470000000.0,22.47,0.0,0.0,0.0,0.02943,0.17658,9.781158647976786
2475000000.0,22.47,0.0,0.0,0.0,0.02943,0.17658,9.789889451926095
2480000000.0,22.47,0.0,0.0,0.0,0.029822448171024484,0.1761875518289755,9.78135489634205
2485000000.0,22.47,0.0,0.0,0.0,0.03894565173185652,0.16735869653628696,9.80019
2490000000.0,22.47,0.0,0.0,0.0,0.02923375163473752,0.18560500653895007,9.80019
2495000000.0,22.47,0.0,0.0,0.0,0.01962,0.14715,9.80019
2500000000.0,22.47,0.0,0.0,0.0,0.01962009711900097,0.14715009711900098,9.800189854321498
2505000000.0,22.47,0.0,0.0,0.0,0.03904389731323897,0.16657389731323896,9.771054154030141
2510000000.0,22.47,0.0,0.0,0.0,0.02001230249252302,0.14754230249252304,9.799601546261217
2515000000.0,22.47,0.0,0.0,0.0,0.04816724655257247,0.1566657488508575,9.771642753447427
2520000000.0,22.47,0.0,0.0,0.0,0.04905,0.1663776489479765,9.789595297895954
2525000000.0,22.47,0.0,0.0,0.0,0.030410901909809024,0.16677,9.781060450954906
2530000000.0,22.47,0.0,0.0,0.0,0.020208550857785508,0.185212898284429,9.808234347426644
2535000000.0,22.47,0.0,0.0,0.0,0.01962,0.1590199522819995,9.791753301521334
2540000000.0,22.47,0.0,0.0,0.0,0.01962,0.17501049867290497,9.799405249336454
2545000000.0,22.47,0.0,0.0,0.0,0.01962,0.14979855169928552,9.782335701132858
2550000000.0,22.47,0.0,0.0,0.0,0.010790950469309503,0.14715,9.798228099061381
2555000000.0,22.47,0.0,0.0,0.0,0.018540949627809496,0.1558809496278095,9.791459050372191
2560000000.0,22.47,0.0,0.0,0.0,0.028252849724928496,0.174225699449857,9.79901284972493
2565000000.0,22.47,0.0,0.0,0.0,0.03796474982204749,0.1680452501779525,9.80019
2570000000.0,22.47,0.0,0.0,0.0,0.0308033500808335,0.183643299838333,9.808626649919168
2575000000.0,22.47,0.0,0.0,0.0,0.0544456500488565,0.1613743499511435,9.801661449983715
2580000000.0,22.47,0.0,0.0,0.0,0.034138649659786496,0.1652004501134045,9.791949549886596
2585000000.0,22.47,0.0,0.0,0.0,0.02943,0.1586276497894765,9.798522350210524
2590000000.0,22.47,0.0,0.0,0.0,0.013341499384714996,0.15696,9.80019
2595000000.0,22.47,0.0,0.0,0.0,0.02570230080952301,0.15696,9.79224384959524
2600000000.0,22.47,0.0,0.0,0.0,0.02943,0.15696,9.798228050501882
2605000000.0,22.47,0.0,0.0,0.0,0.044929901197999014,0.172459901197999,9.784690098802002
2610000000.0,22.47,0.0,0.0,0.0,0.064353701392237,0.15362444791164448,9.795873701392237
2615000000.0,22.47,0.0,0.0,0.0,0.053562498413524985,0.13959624920676247,9.785082498413527
2620000000.0,22.47,0.0,0.0,0.0,0.034138698219286986,0.15970695267106952,9.78057
2625000000.0,22.47,0.0,0.0,0.0,0.036787550987475506,0.18148510197495102,9.802642652962428
2630000000.0,22.47,0.0,0.0,0.0,0.03198054891540549,0.15735219566162195,9.81
2635000000.0,22.47,0.0,0.0,0.0,0.02226864881828649,0.14715,9.817161351181714
2640000000.0,22.47,0.0,0.0,0.0,0.03374650255766502,0.14715,9.812746748721167
2645000000.0,22.47,0.0,0.0,0.0,0.02530969724809697,0.16108030275190302,9.796069697248099
2650000000.0,22.47,0.0,0.0,0.0,0.012752948526929483,0.18737115441921157,9.80411410294614
2655000000.0,22.47,0.0,0.0,0.0,0.030116854710568543,0.16912419371924192,9.789693145289432
2660000000.0,22.47,0.0,0.0,0.0,0.01255659333076593,0.15696,9.78724085166731
2665000000.0,22.47,0.0,0.0,0.0,0.013145503528855036,0.15696,9.79038
2670000000.0,22.47,0.0,0.0,0.0,0.026094651861546518,0.14401069627690696,9.803329303723094
2675000000.0,22.47,0.0,0.0,0.0,0.02943,0.1437165519586655,9.81
2680000000.0,22.47,0.0,0.0,0.0,0.02943,0.15970690411156904,9.81
2685000000.0,22.47,0.0,0.0,0.0,0.02943,0.14822894354128943,9.822360704305808
2690000000.0,22.47,0.0,0.0,0.0,0.02943,0.14950450450004504,9.799208738749888
2695000000.0,22.47,0.0,0.0,0.0,0.023445847652858474,0.16294415234714152,9.798522457041425
2700000000.0,22.47,0.0,0.0,0.0,0.025506052444260525,0.1491118426672184,9.81
2705000000.0,22.47,0.0,0.0,0.0,0.023642047458620474,0.14312795254137953,9.81
2710000000.0,22.47,0.0,0.0,0.0,0.025309852638498526,0.15283985263849853,9.792930442084504
2715000000.0,22.47,0.0,0.0,0.0,0.03502175273561753,0.15136824726438247,9.791753505471236
2720000000.0,22.47,0.0,0.0,0.0,0.03374634716726347,0.1526436528327365,9.794696347167264
2725000000.0,22.47,0.0,0.0,0.0,0.03482555292985553,0.15156444707014446,9.784984447070146
2730000000.0,22.47,0.0,0.0,0.0,0.04453745302697453,0.15244745302697452,9.785867453026976
2735000000.0,22.47,0.0,0.0,0.0,0.03865129375181294,0.16215935312409352,9.800778706248188
2740000000.0,22.47,0.0,0.0,0.0,0.02943,0.16677,9.799797493557575
2745000000.0,22.47,0.0,0.0,0.0,0.02943,0.15676369336333693,9.800386306636664
2750000000.0,22.47,0.0,0.0,0.0,0.03433505341545053,0.15205505341545053,9.795284839753648
2755000000.0,22.47,0.0,0.0,0.0,0.03924,0.14734609297486093,9.794990860537709
2760000000.0,22.47,0.0,0.0,0.0,0.029822292780622924,0.14675770721937706,9.805291146390312
2765000000.0,22.47,0.0,0.0,0.0,0.024230753706807537,0.16618150741361506,9.795579246293194
2770000000.0,22.47,0.0,0.0,0.0,0.03394265380392654,0.17206734619607345,9.799405307607854
2775000000.0,22.47,0.0,0.0,0.0,0.03924,0.14911178439581785,9.805585446098956
2780000000.0,22.47,0.0,0.0,0.0,0.04787290799632908,0.13616290799632907,9.80019
2785000000.0,22.47,0.0,0.0,0.0,0.04620493771414938,0.14715,9.80019
2790000000.0,22.47,0.0,0.0,0.0,0.021189491615194917,0.15951076257720762,9.791949491615195
2795000000.0,22.47,0.0,0.0,0.0,0.021876462868564626,0.17255784571047844,9.788614308579044
2800000000.0,22.47,0.0,0.0,0.0,0.035315945613359455,0.16677,9.79234189122672
2805000000.0,22.47,0.0,0.0,0.0,0.033255954483759544,0.15911809103248092,9.78822190896752
2810000000.0,22.47,0.0,0.0,0.0,0.03924,0.1546057091617571,9.80019
2815000000.0,22.47,0.0,0.0,0.0,0.031980490644004905,0.16677,9.803819754677997
2820000000.0,22.47,0.0,0.0,0.0,0.01962,0.17030165477511655,9.806468345224884
2825000000.0,22.47,0.0,0.0,0.0,0.026487109744471098,0.16971289025552888,9.796756445127766
2830000000.0,22.47,0.0,0.0,0.0,0.0325690900612909,0.15028909006129088,9.79038
2835000000.0,22.47,0.0,0.0,0.0,0.026094710132947098,0.14057735506647354,9.79038
2840000000.0,22.47,0.0,0.0,0.0,0.042379255163592554,0.1534285103271851,9.79038
2845000000.0,22.47,0.0,0.0,0.0,0.04905,0.16372884473928845,9.79038
2850000000.0,22.47,0.0,0.0,0.0,0.05199305535783056,0.15107388928433887,9.796266110715662
2855000000.0,22.47,0.0,0.0,0.0,0.05317008909010089,0.14587486636484864,9.80715504454505
2860000000.0,22.47,0.0,0.0,0.0,0.03649314444793144,0.15852943334379432,9.797443144447932
2865000000.0,22.47,0.0,0.0,0.0,0.02943,0.13998875564918756,9.793028755649189
2870000000.0,22.47,0.0,0.0,0.0,0.02943,0.14970065574630656,9.80019
2875000000.0,22.47,0.0,0.0,0.0,0.024524888313148883,0.15696,9.802642555843427
2880000000.0,22.47,0.0,0.0,0.0,0.019227823762178235,0.15225108811891086,9.81
2885000000.0,22.47,0.0,0.0,0.0,0.0377682198116822,0.1418527120753271,9.81
2890000000.0,22.47,0.0,0.0,0.0,0.010791280673912808,0.16343476840434767,9.812158256134783
2895000000.0,22.47,0.0,0.0,0.0,0.042869531304295314,0.18226968753619688,9.811569375072395
2900000000.0,22.47,0.0,0.0,0.0,0.021582056329020563,0.16480794367097942,9.78057
2905000000.0,22.47,0.0,0.0,0.0,0.027566043573860437,0.15509604357386042,9.78057
2910000000.0,22.47,0.0,0.0,0.0,0.021385856523258563,0.14538414347674145,9.78233585652326
2915000000.0,22.47,0.0,0.0,0.0,0.02609448675924487,0.13734,9.795383269861134
2920000000.0,22.47,0.0,0.0,0.0,0.00981,0.13890965671749655,9.818240343282504
2925000000.0,22.47,0.0,0.0,0.0,0.00981,0.14862155681461556,9.808528443185384
2930000000.0,22.47,0.0,0.0,0.0,0.011183456911734568,0.15696,9.798816543088266
2935000000.0,22.47,0.0,0.0,0.0,0.02217071401770714,0.15568464299114643,9.791655357008855
2940000000.0,22.47,0.0,0.0,0.0,0.038062742894027425,0.1506817713179177,9.796658228682082
2945000000.0,22.47,0.0,0.0,0.0,0.02835084279690843,0.17442168559381685,9.773997471609274
2950000000.0,22.47,0.0,0.0,0.0,0.02060105730021057,0.15696,9.79920894269979
2955000000.0,22.47,0.0,0.0,0.0,0.02943,0.15431112780801126,9.79126295739733
2960000000.0,22.47,0.0,0.0,0.0,0.030999714988897153,0.1306694299777943,9.799405142505552
2965000000.0,22.47,0.0,0.0,0.0,0.046989727225297276,0.16745675759156758,9.791066757591569
2970000000.0,22.47,0.0,0.0,0.0,0.020797315377373154,0.17540268462262684,9.800778657688687
2975000000.0,22.47,0.0,0.0,0.0,0.03874944221419442,0.15696,9.808528326642584
2980000000.0,22.47,0.0,0.0,0.0,0.02943,0.15696,9.78135491576585
2985000000.0,22.47,0.0,0.0,0.0,0.02943,0.15696,9.800484357980045
2990000000.0,22.47,0.0,0.0,0.0,0.02923374192283742,0.1567637419228374,9.809607483845676
2995000000.0,22.47,0.0,0.0,0.0,0.01981631634856316,0.14705184182571843,9.790478158174283
3000000000.0,22.47,0.0,0.0,0.0,0.03923982518579825,0.13734005827140058,9.8001900582714
3005000000.0,22.47,0.0,0.0,0.0,0.01010412489444125,0.1470519583685196,9.80990195836852
3010000000.0,22.47,0.0,0.0,0.0,0.03865157539691575,0.14715,9.790772283068723
3015000000.0,22.47,0.0,0.0,0.0,0.029724241437242414,0.15666575856275758,9.809411517125517
3020000000.0,22.47,0.0,0.0,0.0,0.02943,0.1381246826802468,9.791164682680247
3025000000.0,22.47,0.0,0.0,0.0,0.02011044124300441,0.19325735254197354,9.809019117513992
3030000000.0,22.47,0.0,0.0,0.0,0.04728437656234377,0.15931416458354164,9.800778541145887
3035000000.0,22.47,0.0,0.0,0.0,0.0034332052438320534,0.15696,9.809313358951234
3040000000.0,22.47,0.0,0.0,0.0,0.045126295241762954,0.1479347409516474,9.800974740951649
3045000000.0,22.47,0.0,0.0,0.0,0.022268522563585226,0.1382228408545284,9.791262840854529
3050000000.0,22.47,0.0,0.0,0.0,0.04610717772777178,0.1461690592425906,9.79920905924259
3055000000.0,22.47,0.0,0.0,0.0,0.02285712198087122,0.17334287801912876,9.773997121980871
3060000000.0,22.47,0.0,0.0,0.0,0.036885718873657186,0.1506814216895142,9.788025718873659
3065000000.0,22.47,0.0,0.0,0.0,0.047774759533947594,0.14715,9.781845240466053
3070000000.0,22.47,0.0,0.0,0.0,0.0406133403689334,0.1640233192621332,9.78057
3075000000.0,22.47,0.0,0.0,0.0,0.014224320815443208,0.16677,9.805585679184558
3080000000.0,22.47,0.0,0.0,0.0,0.026290919650609194,0.1502890803493908,9.81
3085000000.0,22.47,0.0,0.0,0.0,0.037572359922423595,0.1634347198448472,9.81
3090000000.0,22.47,0.0,0.0,0.0,0.0553285200390852,0.1828585200390852,9.81
3095000000.0,22.47,0.0,0.0,0.0,0.0429676797666768,0.1784438398833384,9.802053839883339
3100000000.0,22.47,0.0,0.0,0.0,0.03924,0.17658,9.815886120427562
3105000000.0,22.47,0.0,0.0,0.0,0.0314900396891004,0.1688300396891004,9.796560119067301
3110000000.0,22.47,0.0,0.0,0.0,0.021778139591981396,0.1591181395919814,9.805683720816038
3115000000.0,22.47,0.0,0.0,0.0,0.03472752101027521,0.1720675210102752,9.772231197474312
3120000000.0,22.47,0.0,0.0,0.0,0.031784339397743396,0.16166867879548677,9.798228303011284
3125000000.0,22.47,0.0,0.0,0.0,0.022072439300624393,0.14224487860124876,9.802642439300625
3130000000.0,22.47,0.0,0.0,0.0,0.041398382389483825,0.1518589215929892,9.792930539203507
3135000000.0,22.47,0.0,0.0,0.0,0.034727278212772786,0.1641213608936136,9.804702721787228
3140000000.0,22.47,0.0,0.0,0.0,0.02943,0.15970673900926738,9.81
3145000000.0,22.47,0.0,0.0,0.0,0.04336032217570322,0.1639251610878516,9.789104516736446
3150000000.0,22.47,0.0,0.0,0.0,0.03531587763005878,0.15990293881502937,9.801171183554912
3155000000.0,22.47,0.0,0.0,0.0,0.022661038717910385,0.14342207743582075,9.803231038717911
3160000000.0,22.47,0.0,0.0,0.0,0.01962,0.1440108613792086,9.80019
3165000000.0,22.47,0.0,0.0,0.0,0.01962,0.16029552295265523,9.806762761476328
3170000000.0,22.47,0.0,0.0,0.0,0.026094661573446615,0.16677,9.790576015279662
3175000000.0,22.47,0.0,0.0,0.0,0.02943,0.14126375331773752,9.793323123341132
3180000000.0,22.47,0.0,0.0,0.0,0.02315153823231538,0.14636538530305385,9.787633076464632
3185000000.0,22.47,0.0,0.0,0.0,0.03816108559441086,0.15696,9.799111085594411
3190000000.0,22.47,0.0,0.0,0.0,0.05513226196192263,0.15087773803807739,9.81
3195000000.0,22.47,0.0,0.0,0.0,0.046891675881916756,0.1770708102952081,9.804015837940959
3200000000.0,22.47,0.0,0.0,0.0,0.04512606215616062,0.1667696892191969,9.811962124312322
3205000000.0,22.47,0.0,0.0,0.0,0.037474075493440756,0.14136203774672038,9.81402203774672
3210000000.0,22.47,0.0,0.0,0.0,0.040809724700797245,0.14871972470079725,9.81
3215000000.0,22.47,0.0,0.0,0.0,0.043458237552482376,0.15696,9.804408237552483
3220000000.0,22.47,0.0,0.0,0.0,0.028252674910726746,0.16794732508927324,9.794696337455363
3225000000.0,22.47,0.0,0.0,0.0,0.025015562641755626,0.15499774943297748,9.795775562641756
3230000000.0,22.47,0.0,0.0,0.0,0.024132537261125374,0.14263746273887462,9.80019
3235000000.0,22.47,0.0,0.0,0.0,0.03521808850798089,0.15754872567198727,9.794990637164007
3240000000.0,22.47,0.0,0.0,0.0,0.03884747413377475,0.16677,9.795481262933114
3245000000.0,22.47,0.0,0.0,0.0,0.03443316303023163,0.16677,9.80019
3250000000.0,22.47,0.0,0.0,0.0,0.034334936872649366,0.16677,9.805095063127352
3255000000.0,22.47,0.0,0.0,0.0,0.02943,0.17638392644893927,9.790772147102121
3260000000.0,22.47,0.0,0.0,0.0,0.02943,0.16755454671364547,9.784886589964765
3265000000.0,22.47,0.0,0.0,0.0,0.03865152683741527,0.16559305367483054,9.795579236581293
3270000000.0,22.47,0.0,0.0,0.0,0.05356266351582664,0.17285200945252008,9.785867336484174
3275000000.0,22.47,0.0,0.0,0.0,0.04561630916116309,0.15696,9.798228254451784
3280000000.0,22.47,0.0,0.0,0.0,0.02943,0.15696,9.811177072579872
3285000000.0,22.47,0.0,0.0,0.0,0.03364836380718364,0.15696,9.808626727614367
3290000000.0,22.47,0.0,0.0,0.0,0.03511973609569736,0.1487194721913947,9.807449208287093
3295000000.0,22.47,0.0,0.0,0.0,0.03345216400142164,0.16147298400852983,9.78635783599858
3300000000.0,22.47,0.0,0.0,0.0,0.03924,0.18442780770437808,9.788418128197081
3305000000.0,22.47,0.0,0.0,0.0,0.03924,0.16294403580434036,9.80401596419566
3310000000.0,22.47,0.0,0.0,0.0,0.04669572858555728,0.16068786429277865,9.81
3315000000.0,22.47,0.0,0.0,0.0,0.044340942440409425,0.15225094244040943,9.81
3320000000.0,22.47,0.0,0.0,0.0,0.01962,0.1416566579480666,9.81
3325000000.0,22.47,0.0,0.0,0.0,0.029920693752406937,0.17020356458413563,9.806566435415865
3330000000.0,22.47,0.0,0.0,0.0,0.04905,0.16657360595623605,9.80019
3335000000.0,22.47,0.0,0.0,0.0,0.03286317610813176,0.14715,9.80019
3340000000.0,22.47,0.0,0.0,0.0,0.006278529750985298,0.14715,9.793911470249016
3345000000.0,22.47,0.0,0.0,0.0,0.02266116497261165,0.1532323299452233,9.786652329945223
3350000000.0,22.47,0.0,0.0,0.0,0.02943,0.1608838698605387,9.80019
3355000000.0,22.47,0.0,0.0,0.0,0.035119930333699305,0.14999496516684965,9.797345034833151
3360000000.0,22.47,0.0,0.0,0.0,0.05179686526396866,0.15970686526396866,9.795873730527939
3365000000.0,22.47,0.0,0.0,0.0,0.04561617319456173,0.1614724692778247,9.804702469277824
3370000000.0,22.47,0.0,0.0,0.0,0.012360665458206653,0.14970066545820665,9.787829334541794
3375000000.0,22.47,0.0,0.0,0.0,0.022072565555325656,0.15696,9.785475131110653
3380000000.0,22.47,0.0,0.0,0.0,0.027075534347555344,0.15460553434755533,9.79548106869511
3385000000.0,22.47,0.0,0.0,0.0,0.02638909724869097,0.14940636574956365,9.789595462998255
3390000000.0,22.47,0.0,0.0,0.0,0.04257520245995203,0.15480173415331733,9.817651734153317
3395000000.0,22.47,0.0,0.0,0.0,0.02168016594380166,0.15127033188760333,9.805879668112397
3400000000.0,22.47,0.0,0.0,0.0,0.02943,0.16088380187723803,9.792342066040922
3405000000.0,22.47,0.0,0.0,0.0,0.02943,0.13734,9.798326033861962
3410000000.0,22.47,0.0,0.0,0.0,0.02943,0.142637598705476,9.793911732470319
3415000000.0,22.47,0.0,0.0,0.0,0.027762233667722336,0.16343446733544467,9.808332233667723
3420000000.0,22.47,0.0,0.0,0.0,0.021189666429396663,0.15342866571758665,9.797050667141207
3425000000.0,22.47,0.0,0.0,0.0,0.02943,0.18344686694696866,9.784984699579548
3430000000.0,22.47,0.0,0.0,0.0,0.026683066752730668,0.16539653337636534,9.81
3435000000.0,22.47,0.0,0.0,0.0,0.013636100162261,0.15313389983773898,9.807449266558493
3440000000.0,22.47,0.0,0.0,0.0,0.03806273318212733,0.13223906727149068,9.79038
3445000000.0,22.47,0.0,0.0,0.0,0.02943,0.16461166617001666,9.79038
3450000000.0,22.47,0.0,0.0,0.0,0.02746786597577866,0.14813106701211068,9.792342134024222
3455000000.0,22.47,0.0,0.0,0.0,0.00981,0.15607703289077032,9.807351098672312
3460000000.0,22.47,0.0,0.0,0.0,0.012164601619046015,0.14793486720634869,9.782924601619047
3465000000.0,22.47,0.0,0.0,0.0,0.03924,0.15696,9.808626465393065
3470000000.0,22.47,0.0,0.0,0.0,0.03865133259941332,0.15813733480117334,9.79038
3475000000.0,22.47,0.0,0.0,0.0,0.028939432502294325,0.17707056749770567,9.790870567497706
3480000000.0,22.47,0.0,0.0,0.0,0.02040493518964935,0.18560506481035066,9.799797532405176
3485000000.0,22.47,0.0,0.0,0.0,0.03924,0.16677,9.79038
3490000000.0,22.47,0.0,0.0,0.0,0.03943626778906267,0.16657373221093733,9.79038
3495000000.0,22.47,0.0,0.0,0.0,0.048755496341454964,0.15676366422763663,9.790674503658545
3500000000.0,22.47,0.0,0.0,0.0,0.01961986403339864,0.13734006798330067,9.819809796050098
3505000000.0,22.47,0.0,0.0,0.0,0.0001960638391606366,0.14705196808041968,9.790674095758742
3510000000.0,22.47,0.0,0.0,0.0,0.028841604532616045,0.16637773635507735,9.780766131822462
3515000000.0,22.47,0.0,0.0,0.0,0.01991423172534232,0.16677,9.799601536549316
3520000000.0,22.47,0.0,0.0,0.0,0.038455336743553364,0.16677,9.781354663256447
3525000000.0,22.47,0.0,0.0,0.0,0.03924,0.1574504315311043,9.789889568468896
3530000000.0,22.47,0.0,0.0,0.0,0.04846146856601469,0.1385170628679706,9.80882293713203
3535000000.0,22.47,0.0,0.0,0.0,0.02167989401059894,0.1282166313368663,9.800876631336866
3540000000.0,22.47,0.0,0.0,0.0,0.01962,0.16363107504101077,9.791164731239748
3545000000.0,22.47,0.0,0.0,0.0,0.01962,0.1399884934278849,9.79038
3550000000.0,22.47,0.0,0.0,0.0,0.03727813790898138,0.16382720686347207,9.79038
3555000000.0,22.47,0.0,0.0,0.0,0.06543290715482906,0.1580390309483903,9.79038
3560000000.0,22.47,0.0,0.0,0.0,0.042771392553813924,0.18285860744618607,9.79038
3565000000.0,22.47,0.0,0.0,0.0,0.03924,0.16932046150830463,9.815984307737544
3570000000.0,22.47,0.0,0.0,0.0,0.030803330657033307,0.1583333306570333,9.811373330657034
3575000000.0,22.47,0.0,0.0,0.0,0.03776856944008569,0.1402828611198286,9.81
3580000000.0,22.47,0.0,0.0,0.0,0.014518591388385915,0.12909953046279532,9.77703812185118
3585000000.0,22.47,0.0,0.0,0.0,0.050521848171618484,0.1519571089029711,9.787044739268648
3590000000.0,22.47,0.0,0.0,0.0,0.0427714605371146,0.14087146053711458,9.806468539462886
3595000000.0,22.47,0.0,0.0,0.0,0.0471861698285617,0.15323233965712338,9.778215320685753
3600000000.0,22.47,0.0,0.0,0.0,0.017657720297277205,0.1491119300743193,9.810000349628403
3605000000.0,22.47,0.0,0.0,0.0,0.0175599700227997,0.17039991006839908,9.804310059954402
3610000000.0,22.47,0.0,0.0,0.0,0.027271870119918704,0.1689281298800813,9.792538129880082
3615000000.0,22.47,0.0,0.0,0.0,0.021876229782962296,0.1592162297829623,9.79038
3620000000.0,22.47,0.0,0.0,0.0,0.03453134062831341,0.16441567031415671,9.797835670314157
3625000000.0,22.47,0.0,0.0,0.0,0.05395514082255141,0.15941242958872429,9.80019
3630000000.0,22.47,0.0,0.0,0.0,0.03708158847481589,0.1787384115251841,9.792930529491606
3635000000.0,22.47,0.0,0.0,0.0,0.022268629394486292,0.16490588818345886,9.797541370605515
3640000000.0,22.47,0.0,0.0,0.0,0.026683270702632707,0.1498967292973673,9.80019
3645000000.0,22.47,0.0,0.0,0.0,0.022464829200248292,0.1541151707997517,9.779294487600744
3650000000.0,22.47,0.0,0.0,0.0,0.01275292910312929,0.19129535448435353,9.777627070896871
3655000000.0,22.47,0.0,0.0,0.0,0.00981,0.0773995511141955,9.76703205801202
3660000000.0,22.47,0.0014479405780780628,0.03767019176081923,-0.003619851445195293,0.043164355455543556,0.006278257817782577,9.694241289088913
3665000000.0,22.47,0.0049825968520007735,0.09679291800981574,-0.0017566352628730166,-0.11860482208214823,0.24319253396442536,9.689141084752912
3670000000.0,22.47,0.01483155188112622,0.11507337409916481,0.0014053545864895767,-0.523268892981989,0.3305966435732664,9.851007439562975
3675000000.0,22.47,0.022641322456156066,0.102211585159702,-0.0006388214939576672,-0.8397377131791771,0.3649325710597257,9.774682286820823
3680000000.0,22.47,0.019734732615846354,0.06724162508474005,-8.51487950813642e-05,-0.8593552852041529,0.29194445632664456,9.654609171122491
3685000000.0,22.47,0.020405555789751843,0.0021413006111359947,-0.0009475625549437712,-0.7869577705397778,0.36522780311077807,9.608698513693184
3690000000.0,22.47,0.01708356942843705,-0.09994714354480419,0.0005110635191922087,-0.6192054798282548,0.8003040287555403,9.575933184978531
3695000000.0,22.47,-0.011498533014421192,-0.19686730541716724,0.0027787464911922417,-0.18864220905632212,1.0681133741675337,10.031515398133454
3700000000.0,22.47,-0.04304000667321478,-0.2620545959794113,0.001277557613563363,0.5591764681254646,0.7514417597844176,10.223980706374906
3705000000.0,22.47,-0.10543494154382589,-0.24627265225010186,0.0006281518079649375,1.2306684580848846,0.24210734567137343,9.782919794228498
3710000000.0,22.47,-0.144155849917171,-0.19826458349665135,0.0010646508437165,1.4689496161868962,-0.1444056501181565,9.44016191906552
3715000000.0,22.47,-0.14230327917874147,-0.10321862592286704,0.0010646508437165,1.5540030380724303,-0.45783493694194943,9.585255569898456
3720000000.0,22.47,-0.11151500027387722,0.02254075091656641,-0.002512623041925049,1.4275488155342884,-0.5940936722565368,9.796266722565367
3725000000.0,22.47,-0.07073532518608933,0.15834437458509715,-0.0035665567694532357,1.0854738229147383,-0.5552454211707543,10.146977624158378
3730000000.0,22.47,-0.016273962081123125,0.2533579412230336,-0.0009794630504743403,0.673158794813588,-0.5464173622538736,10.276758133632182
3735000000.0,22.47,0.04132484845112839,0.28606780929985165,0.0,0.07631643145586425,-0.39220133337161334,10.120976274521063
3740000000.0,22.47,0.07337728233668833,0.26516884352697445,-0.0005536263226850868,-0.5862501766358017,-0.2150349094199491,9.814705095104351
3745000000.0,22.47,0.10590917963714852,0.17996529782700932,-0.0005216710189285348,-1.0430015277482152,-0.09613654515736546,9.6846298003269
3750000000.0,22.47,0.12942491439673728,0.054863388958809184,0.0,-1.142864198768242,0.0882913111065131,9.633417669143977
3755000000.0,22.47,0.1320652406052018,-0.06762969051279248,-0.0015650604869812152,-0.9735426495271264,0.46499837618218387,9.611055242218352
3760000000.0,22.47,0.14542451429131212,-0.151650714490681,-0.0031939525311496,-0.6227352213590522,1.2972826527842267,9.699342396631623
3765000000.0,22.47,0.08512133280807084,-0.16069053602520042,-0.002193164864750595,-0.0546366539880665,1.6201174778165748,10.224187414456575
3770000000.0,22.47,0.0035985436933401644,-0.12009027428286576,-0.0010646508437165,0.30411,0.779101192989612,9.918090602494207
3775000000.0,22.47,-0.06274833525340645,-0.05145058977312494,0.0013308533433097245,0.105454200381942,0.20257774652237748,8.81183286662423
3780000000.0,22.47,-0.1257855362942437,0.01580718575109106,0.002384786016833598,-0.07690937209249371,0.06552690863586907,9.089165458473955
3785000000.0,22.47,-0.09784049997885955,0.017789537547873387,0.0009156156832219857,-0.01687349407633494,-0.1665727707328277,9.757915002083951
3790000000.0,22.47,-0.09033467153119303,-0.010207077074929991,0.0025764630311469134,-0.022758905535189052,-0.10889136808101367,10.22202
3795000000.0,22.47,-0.05708154412836906,-0.07236123704160935,0.0018844079936993097,0.048266084559860846,-0.17353956341989563,10.177776089153461
3800000000.0,22.47,-0.013850852708178084,-0.12080126691013365,-0.0012776050437589245,0.20404962382969624,-0.20208555713735557,9.984615564255456
3805000000.0,22.47,0.00625657206030165,-0.11757519043453211,-0.004024396231194652,0.4789270084872701,-0.0902505218488052,9.748294287016844
3810000000.0,22.47,0.02850752593340077,-0.07009658631916085,-0.003704952810081083,0.7920611021076109,-0.026488110070181103,9.74211598407486
3815000000.0,22.47,0.030221605770811302,0.023250746576674503,-0.0006707219894882363,0.8085376805388768,-0.04875429206584292,9.745055873353259
3820000000.0,22.47,0.02859263362231264,0.1093412850031563,0.00038328235633114204,0.49952312243033126,0.0439482806075828,9.640876787182668
3825000000.0,22.47,0.03606224309401987,0.16463526796428776,0.000319379126848459,0.1623520080863201,0.041202891552428914,9.779099317256392
3830000000.0,22.47,0.05571610534304844,0.17762469024682181,-0.0010646508437165,-0.25074612936726126,0.1710875902904759,9.819220730461607
3835000000.0,22.47,0.05571622655354824,0.17129449233714641,-0.0014159937063562774,-0.5712386091984861,0.30705374490273746,9.780374246941642
3840000000.0,22.47,0.05978303908163177,0.12161613453395619,-0.0028106944169183435,-0.8471933155100332,0.4669582376217824,9.826088549174786
3845000000.0,22.47,0.0413748322573175,0.058873706508381474,-0.0029384039074839313,-0.9854141265774413,0.6062565063097651,9.891129969636701
3850000000.0,22.47,0.008836447802011448,-0.002873372340430981,-0.0003194033689484128,-0.9339115513102155,0.46205077565510777,9.91790775655108
3855000000.0,22.47,-0.013664751325017892,-0.06637867917363427,-0.0001383802305626262,-0.8301205526675055,0.43291507536375073,9.686295226091252
3860000000.0,22.47,-0.040649595556138785,-0.1116805596998153,0.0027255224337413672,-0.5834962508204626,0.3955387501447875,9.648331874782818
3865000000.0,22.47,-0.05781351602099008,-0.16441524491995188,0.0028212839985808317,-0.23739899708048995,0.36110632521896324,9.748982851021829
3870000000.0,22.47,-0.06440840590380106,-0.19791303126727944,-0.0005110160889966467,0.19953983503629838,0.3494312227886122,9.882398777211387
3875000000.0,22.47,-0.07936443526619963,-0.1946825797405898,0.0007984799642536948,0.7136801343529013,0.21336622045716222,9.915455618319356
3880000000.0,22.47,-0.0763533252404455,-0.16460576496579,0.0,1.0347608348373083,0.02471916516269164,9.733874475364344
3885000000.0,22.47,-0.0820304748437334,-0.10584493532494796,-0.000244877883668562,1.2428291263843914,-0.22847663561366635,9.718766245385362
3890000000.0,22.47,-0.07617085034066404,-0.02991807748702324,-0.0008304194579450595,1.230957591062676,-0.4043682755585828,9.673445857820159
3895000000.0,22.47,-0.04935629315966242,0.05630643477526279,-0.00022358488787431894,1.0590857842631578,-0.4017191217214912,9.846495620982457
3900000000.0,22.47,-0.015979823300016516,0.1222956236624779,-0.0008517124537393026,0.7985311213928112,-0.34727339397743395,10.076831318224613
3905000000.0,22.47,0.032098921732121574,0.16849723428123473,0.0,0.43693482110204823,-0.2639862656506627,9.957736627901568
3910000000.0,22.47,0.060574317829013444,0.1874832682492308,-0.0009582269709148075,0.09613496211764963,-0.14302835700588357,9.721120108900001
3915000000.0,22.47,0.0868747599754541,0.1851302825975149,-0.004961256426011017,-0.28733771363457716,0.03482664066266641,9.586037776044178
3920000000.0,22.47,0.0991074247965823,0.16767488801277336,-0.0030236001327608726,-0.6372599603801996,0.18207481826074817,9.60359805684778
3925000000.0,22.47,0.0934222223236322,0.12819750211120934,-0.002129301687433,-0.9206699485298995,0.3889703881592039,9.678056796053069
3930000000.0,22.47,0.09056891661902097,0.07173804527442318,-0.0019802422848385318,-1.0736060946578612,0.8183504290066044,9.847279526710695
3935000000.0,22.47,0.07612728993069724,0.0013151975774471497,-0.0007878250343218067,-1.024555482808155,0.8564137643265376,10.014734623567346
3940000000.0,22.47,0.015982611608037763,-0.05326995857983812,0.0008091180301160498,-0.8832898745174987,0.897023491868635,9.934386131683862
3945000000.0,22.47,-0.033822245481383906,-0.10634073435579254,-0.0007132911170071894,-0.5833015272235152,0.5625049402386494,9.417502589642027
3950000000.0,22.47,-0.061254366996696716,-0.1582962605307812,0.001916354865421036,-0.42084585431555854,0.4865741586237416,9.503928613792086
3955000000.0,22.47,-0.09576455409942054,-0.17402611493335127,9.582691310886043e-05,-0.02530688079706881,0.2570204635774046,9.601932281455023
3960000000.0,22.47,-0.10553937022095843,-0.1762815863665095,0.0008091095980812833,0.3398209383022094,0.06121270779852707,9.887303646100737
3965000000.0,22.47,-0.10593740433571988,-0.15430034318599284,-0.001980233852803765,0.652759094338091,-0.1531358713534587,9.994134547169045
3970000000.0,22.47,-0.09678637653054913,-0.10614905991601449,-6.38874194174958e-05,0.8540586771124867,-0.36473603133746035,10.093901322887513
3975000000.0,22.47,-0.0758002117686291,-0.04671669977795718,-0.0010646508437165,0.86328,-0.3928905772096058,10.082717691161577
3980000000.0,22.47,-0.03681078614663852,0.019097097395140532,-0.0010220564200932472,0.8566078857856789,-0.40142504538655044,10.036020544638605
3985000000.0,22.47,0.0008950656568190185,0.06893983453681299,0.0,0.6915055841346558,-0.3778799615384996,9.807939358173094
3990000000.0,22.47,0.030381863243872174,0.09397594983073453,-4.2602855658019275e-05,0.5256181724797817,-0.22366722499037225,9.739759779992298
3995000000.0,22.47,0.057845874714672146,0.10558082723566246,-0.002129301687433,0.3209810272537103,-0.12595915843069158,9.663439065588491
4000000000.0,22.47,0.08948312350213163,0.11824603995854627,-0.0021293101194677666,0.04904805761998058,0.029431165428011656,9.721710776952008
4005000000.0,22.47,0.10107717130614528,0.11613803126690742,-0.003183314465287244,-0.19374944480799444,0.17510966688479665,9.818829777923199
4010000000.0,22.47,0.1011941900306312,0.09836242401066746,-0.001107219971235455,-0.3788636798993368,0.695729406029694,9.915948778894387
4015000000.0,22.47,0.07432654586457993,0.07629619224373005,-0.0010646508437165,-0.4396846679193467,0.6397095540940956,10.21289911758329
4020000000.0,22.47,0.05305434911822473,0.049051211100680954,-4.257755955371957e-05,-0.5921328493388285,0.6188146438326465,9.685212349230424
4025000000.0,22.47,-0.002447410065173211,0.03073335841877932,0.0030342803587970714,-0.59841,0.5434733745536339,9.504417170926471
4030000000.0,22.47,-0.012328716237162649,-0.01323868795173673,0.0021931722427809687,-0.59841,0.40122782583127825,9.431529652054596
4035000000.0,22.47,-0.0365552527973965,-0.04867786273530912,0.002129301687433,-0.5527931081248312,0.38327662162496623,9.473026891875168
4040000000.0,22.47,-0.051094275638512376,-0.08151831032196881,0.002129301687433,-0.39593026597340264,0.17500859514048595,9.693066683331667
4045000000.0,22.47,-0.059953524284568044,-0.10839667903407509,0.00019162009807865456,-0.2040464286145643,0.023052321460923203,9.845807678539076
4050000000.0,22.47,-0.0607200046768827,-0.12037544388440087,0.0009581942967800512,-0.0009793480057934956,0.03629723599917235,9.867879078666391
4055000000.0,22.47,-0.051244526688053044,-0.1252302005492973,0.00011710304483357036,0.28154936290529364,0.004316084945960849,9.973631745162118
4060000000.0,22.47,-0.040689124192137736,-0.1031976224672502,0.0018738026019716162,0.5642734869582349,-0.034531515442515155,9.90888409025434
4065000000.0,22.47,-0.03014698647914469,-0.06399041736148581,0.0002767920812556269,0.7178969054084691,-0.09044867374648674,9.727594420845044
4070000000.0,22.47,-0.010435849996818205,-0.022866969114760972,-0.00183121661038313,0.7610600371646005,-0.0981,9.567103135122132
4075000000.0,22.47,-0.0020227850622488693,0.025511009029783555,-0.002129301687433,0.7068099459360995,-0.06474568339205684,9.586822895759928
4080000000.0,22.47,0.01325905501335255,0.0688089027303384,0.0005536442407589656,0.5481813735161137,-0.05061952075089521,9.643622875494628
4085000000.0,22.47,0.023056566440269852,0.10304782239333955,-0.0007026867792839008,0.29194337830573375,-0.0001957239226572441,9.791460448885806
4090000000.0,22.47,0.03410766814763458,0.11390233311078554,-0.00019162853011342115,0.04414301391643016,0.09829707387677074,9.884164235546741
4095000000.0,22.47,0.03966508524170629,0.1055518330102461,0.0017247516314119146,-0.18276212943062128,0.21307415448554157,9.930074718161848
4100000000.0,22.47,0.04730198267192118,0.08116456667933195,0.00042584305181532847,-0.37474351311403514,0.3531611945637119,9.866897283261773
4105000000.0,22.47,0.03637881485437518,0.05375696317120886,-0.0025232484597352213,-0.44301991893879916,0.4910897162857972,9.787240162122401
4110000000.0,22.47,0.018060161941272482,0.024678363825677743,-0.0015330798871203365,-0.4589118798318188,0.4663668411772684,9.678937442018174
4115000000.0,22.47,-0.005014704986387529,6.770232767152815e-05,0.0005749288045184423,-0.46862377992893783,0.3983835404974354,9.592609760568498
4120000000.0,22.47,-0.029270069584926228,-0.024755958692563956,0.0002555075174961504,-0.43360159986971597,0.2931218396873184,9.582015680026057
4125000000.0,22.47,-0.044745983186984584,-0.045278360782058,0.000798496828323228,-0.3556117788914178,0.19865177889141777,9.702091281970812
4130000000.0,22.47,-0.05188344620441488,-0.06504265251781384,0.0010646508437165,-0.2536857175767572,0.11124467801734678,9.86474116374501
4135000000.0,22.47,-0.04782702194316379,-0.08508147613481773,0.004950670006361571,-0.10388653460396534,0.016676196825861966,10.022682085078621
4140000000.0,22.47,-0.04350265434727291,-0.10051292694368039,0.0017885610545078758,0.10359544953425448,0.025506402072664018,10.0862498412436
4145000000.0,22.47,-0.031264824490159944,-0.0968290341944331,0.0015118216734694837,0.34089951279129516,0.025309638976696386,10.080559638976696
4150000000.0,22.47,-0.01992634533589461,-0.07435254386665888,0.0006387730097577593,0.5424945315666453,0.012752919391229193,9.90319298478073
4155000000.0,22.47,-0.0177864846329251,-0.03150417745583536,0.0,0.6254859228235593,-0.03757286494122866,9.77546815435288
4160000000.0,22.47,-0.01158890716563762,0.012995374538813807,-0.0007239713430433772,0.5842829535759296,-0.09888528481805285,9.731127357590973
4165000000.0,22.47,-0.0013839582982695421,0.0487584884348886,-0.0017779756888627557,0.46057828649808286,-0.09142887639948877,9.78086502810115
4170000000.0,22.47,0.008453406812675472,0.07512579678981571,-0.0028319800346822003,0.3019504230468042,-0.03315723301927233,9.93301893894769
4175000000.0,22.47,0.024871109202986234,0.07823955795757015,-0.0025019206817975224,0.11771837811268379,0.04120264875492649,9.958130513433806
4180000000.0,22.47,0.040133602821475114,0.06949264832582003,-0.002129301687433,-0.05768418025524181,0.13773329310633292,9.874745188085152
4185000000.0,22.47,0.04943895642242994,0.06000660921344522,-0.002129301687433,-0.16098266902022668,0.30018762577207625,9.771445805825358
4190000000.0,22.47,0.04031031433909986,0.05316093952371314,-0.002129301687433,-0.21680140692861408,0.39710912554289124,9.810589658014397
4195000000.0,22.47,0.02717661672786072,0.04138581256357454,-0.002129301687433,-0.29528181482841814,0.3761149111029491,9.69747709996327
4200000000.0,22.47,0.008098115096836021,0.024930141377302865,-0.001490502327566595,-0.35708432631984327,0.3649321631599216,9.558863510520235
4205000000.0,22.47,-0.01030558648093515,0.002402398498567316,0.00019165488022206676,-0.35541605496876055,0.3496280732916807,9.529532018322922
4210000000.0,22.47,-0.020309760496773306,-0.025200001634830004,0.002299663571860882,-0.29783094580640945,0.3107804729032047,9.593788581290386
4215000000.0,22.47,-0.029508370516034433,-0.05064109840084654,0.0013733729326244222,-0.19217683567286836,0.23838218128682181,9.69355603684186
4220000000.0,22.47,-0.03349006692317128,-0.06847077846449592,0.0005962133682779187,-0.07690949834719499,0.15774422622094225,9.737013681968437
4225000000.0,22.47,-0.0336071963181135,-0.07691233258361246,0.0010646508437165,0.06229489511444897,0.11673883586888836,9.719747671737776
4230000000.0,22.47,-0.033511359918965526,-0.07077821217367296,-0.0006601102737345268,0.23269467892814677,0.07612510702395107,9.71268496432535
4235000000.0,22.47,-0.03245735557314609,-0.04923358607739466,-0.0004364800636733378,0.371113204857732,0.02305308870103089,9.716510617740207
4240000000.0,22.47,-0.02697433221381105,-0.019597684819564417,0.0016182782204059326,0.41672871764308717,-0.030607694141476943,9.671089741144696
4245000000.0,22.47,-0.019660216616605643,0.010953762557200989,-0.0005856027065286058,0.37699772282177724,-0.038847270183872705,9.693458189448382
4250000000.0,22.47,-0.009590458666322188,0.030892417350668992,-0.0015969493884639818,0.29429917448849174,-0.014714917448849174,9.81000099061381
4255000000.0,22.47,0.0036092650255458935,0.03673726986188037,0.0,0.19718017351730174,0.043066809130968095,9.902508878537889
4260000000.0,22.47,0.012656483631679209,0.03830231559280074,-0.0005110413851009464,0.10947893803688938,0.0981,9.989327710199277
4265000000.0,22.47,0.017488400609879523,0.041411114058847294,-0.0015650457309203249,0.03178373725993737,0.1303754798975548,10.031607651472475
4270000000.0,22.47,0.01574490109215078,0.044157886274204805,-0.00017030813020618664,-0.05042414645664147,0.15774463412074635,9.961857804724477
4275000000.0,22.47,0.00883654793242432,0.04425368683720502,-0.000745309661024535,-0.14666041340420413,0.15156458303674583,9.902704583036746
4280000000.0,22.47,0.0039178880380452315,0.036641306982210936,-0.0019163264073037548,-0.22327593253545933,0.1699094494015945,9.877884618062946
4285000000.0,22.47,-0.0015331694774897951,0.01899250114859565,-0.0007665847387448976,-0.25368676646196764,0.19060838323098384,9.86052191615492
4290000000.0,22.47,-0.0063879050622992,-0.002839509772613787,-0.0014053029402766896,-0.26074971667189717,0.20032028332810284,9.892600283328102
4295000000.0,22.47,-0.007260936861941432,-0.026218700688227937,0.0006281349438954044,-0.22288253259822532,0.20601,9.882201266299113
4300000000.0,22.47,-0.011072423161276223,-0.04452694879872508,-0.000425869401923974,-0.11771874716488748,0.1942377494329775,9.85905
4305000000.0,22.47,-0.014074666003977755,-0.05344846663923094,-0.0010646508437165,0.02030778705297787,0.15362409828324097,9.8399200819027
4310000000.0,22.47,-0.014805324555347641,-0.04891689556012357,-0.0022783800621057307,0.13537883716578838,0.07671327911763279,9.791360581417106
4315000000.0,22.47,-0.0181165176357011,-0.03243593504282603,-0.0030768136501682346,0.20708935144109353,0.0025504323726043233,9.731911729490417
4320000000.0,22.47,-0.014277400197750393,-0.015086452879597057,-0.0010646508437165,0.22563,0.0007850517324505171,9.647153160891833
4325000000.0,22.47,-0.003726186781631932,0.0019697043493891345,-0.0006920139312781336,0.22906358400793583,0.0711237601190376,9.591237168015871
4330000000.0,22.47,0.0064518662620209055,0.012121724764328474,0.0003619904145412448,0.23544,0.1901183887353839,9.607325484105054
4335000000.0,22.47,0.011370434458021874,0.020565305958425963,-0.0003407248228600259,0.21601569478695695,0.24838953680869535,9.617037384202174
4340000000.0,22.47,0.007495114493491262,0.030423954579126108,-0.0018311628561615612,0.1483264413063644,0.2684014314014143,9.617331431401414
4345000000.0,22.47,0.003342948693483357,0.03720573474143197,0.0007345999228666198,0.057878156035881555,0.23377170922511709,9.613113553189235
4350000000.0,22.47,-0.0036198862273386593,0.03877072566412635,0.0006388088459055172,-0.04512701392237014,0.18050383101293832,9.63342
4355000000.0,22.47,-0.010816889293671406,0.03635395904743186,0.0008942699872104517,-0.14744489213454892,0.15254507704675077,9.659024861315848
4360000000.0,22.47,-0.01473968232236696,0.028417276102860826,-0.0018311902602744844,-0.19894688468776886,0.12596065406330653,9.716216230624463
4365000000.0,22.47,-0.015897294535114997,0.009528487029393955,-0.0007771859144551059,-0.2166051391395514,0.1524475695697757,9.73917298698843
4370000000.0,22.47,-0.013887621857127101,-0.007116571459061647,-0.00027681843136427245,-0.23249657558996575,0.1769727395280274,9.847082054646021
4375000000.0,22.47,-0.0170518667919846,-0.025036877235390963,3.689015212857312e-08,-0.1814844901252449,0.19374707510437075,9.883575509874754
4380000000.0,22.47,-0.018585019405404822,-0.0387750252761494,0.0029384270955795464,-0.11379514923755149,0.1334151492375515,9.93242897015249
4385000000.0,22.47,-0.025153924417994224,-0.04785905945925928,0.0016395438120871842,-0.018932533439725327,0.04757807413318074,9.954109155520092
4390000000.0,22.47,-0.03042386288074801,-0.04949468012894134,0.0,0.07063285270482852,0.005493429459034293,9.965978573647586
4395000000.0,22.47,-0.02697433853783712,-0.04098510658235402,0.0004471718837573295,0.15951111220561112,-0.007749814632398145,9.923599629264796
4400000000.0,22.47,-0.018325873516743165,-0.027911175544557878,0.0014904833554883704,0.219744598253046,0.0,9.9081
4405000000.0,22.47,-0.00882587192240553,-0.013556384317450192,-0.0012669437898009217,0.2802719566855196,0.00931992780919928,9.90064405775264
4410000000.0,22.47,-0.0004897114991545996,-0.0014691344974638448,-0.002512594583807618,0.30234411434104114,0.05081588565895886,9.860030571705206
4415000000.0,22.47,0.0028533014885937483,0.008743871628371456,-0.0038966034742857255,0.28596107121961073,0.06886671453646714,9.816474428487846
4420000000.0,22.47,0.006898965419478387,0.02211970729945789,-0.0017885947826468858,0.23269251317442513,0.12242905755959058,9.797050628293606
4425000000.0,22.47,0.009422150638952864,0.03291522033099176,0.0,0.15941207024842072,0.15156475785094758,9.777626828099368
4430000000.0,22.47,0.008070025379935845,0.03879206503611186,-0.0002981209131976279,0.10535862557308626,0.17658,9.765070458142304
4435000000.0,22.47,0.0053232542185827,0.04070835244525481,-0.0019908877287313077,0.017951524699015245,0.1791307722891077,9.78655384156634
4440000000.0,22.47,0.004556649453755251,0.0341287914487291,-0.0009368833829119291,-0.06710100369171004,0.1938454275166543,9.756240855033308
4445000000.0,22.47,-0.0016502556582537685,0.02510923185185113,-0.00035136288872235897,-0.13292593169395933,0.18197593169395931,9.71631406830604
4450000000.0,22.47,-0.006707328457330193,0.011604591009484754,-0.0028745291361186066,-0.17559891356408913,0.2226867406922674,9.677565432179554
4455000000.0,22.47,-0.010060997429014848,-0.0002769406958684326,0.0,-0.16500402693394028,0.19708298653302989,9.72700791919818
4460000000.0,22.47,-0.0151620526372079,-0.014438127670355747,0.0,-0.14401045347940453,0.1965913604382136,9.78841886630149
4465000000.0,22.47,-0.018414657520976967,-0.021012330281574843,0.0,-0.10653642654546427,0.08210891945458919,9.877983213272731
4470000000.0,22.47,-0.02211956711687992,-0.016923042493117598,-6.388847342184163e-05,-0.08711262635122625,0.0005886868243868683,9.863561818580518
4475000000.0,22.47,-0.01774295098775715,-0.015118952533401285,-0.0010114088681917799,-0.06523589154945891,0.012262934607529346,9.778607652313978
4480000000.0,22.47,-0.010305744616144596,-0.019223763957045205,0.0,0.0011774610558746106,0.062392383167623834,9.739367564906875
4485000000.0,22.47,-0.00216125066716348,-0.020373615242056112,0.0,0.032668258273182586,0.14979948404169485,9.693163161347233
4490000000.0,22.47,-0.003300464940316381,-0.024355305325166807,-2.130248183335546e-05,0.13910658491576583,0.23504742557427427,9.722298861638588
4495000000.0,22.47,-0.008527862733668535,-0.01690250832861607,-0.001053994859780266,0.22553181269001812,0.21532906345009065,9.750452688830126
4500000000.0,22.47,-0.009581952609348762,-0.002129197341002764,-2.8458117337124106e-08,0.21581947555739478,0.16676930074319302,9.682470437035505
4505000000.0,22.47,-0.02013927482731053,0.009464850463010696,-0.003162041495575571,0.15754807497468074,0.08907409996624101,9.731029937521098
4510000000.0,22.47,-0.019202451989172732,0.012711959595333005,-0.0021505851971881326,0.09927667439196675,0.049834449594644496,9.750747775202678
4515000000.0,22.47,-0.020213889315481945,0.013808530960662745,-6.386001530450441e-05,0.041005273809252736,0.0014710615077106123,9.789203150793833
4520000000.0,22.47,-0.014096617977112064,0.01692343929983566,-0.0010220743381671262,0.02040462440884624,0.03767075118230751,9.809215375591155
4525000000.0,22.47,-0.005749038246154678,0.024131861673874825,-0.0010646508437165,0.000980824214608239,0.10447711524887116,9.828639175785392
4530000000.0,22.47,0.0016822151780276698,0.022502860013254532,-0.0010646508437165,-0.05532892793888928,0.18168190391851904,9.84806297597963
4535000000.0,22.47,0.0011391668429572384,0.014437810535998977,0.0009156188452350232,-0.1044769404346694,0.20463677617386777,9.885733552347736
4540000000.0,22.47,-0.010689209315227547,0.0020866008093708577,-0.0008943258494407802,-0.09888471181594713,0.1428329827116298,9.88848
4545000000.0,22.47,-0.0165712511775468,-0.0028107165510096645,-0.0020334926923980187,-0.10702718828117189,0.07484968203179682,9.852771246875312
4550000000.0,22.47,-0.0170518667919846,-0.006068538583502881,-0.000212910985864206,-0.07259364648683647,0.051011823243418235,9.84041091162171
4555000000.0,22.47,-0.009455942381133828,-0.012073198179623029,0.0009475488528872754,-0.06867,0.08397395390163953,9.81323703457377
4560000000.0,22.47,-0.003832694974781355,-0.01841258330953939,0.00012774848872634608,-0.04277133428241334,0.1487202200077022,9.784101334282415
4565000000.0,22.47,-0.0022676966740564804,-0.024738703621976055,0.0009262558570930324,0.04610788669647886,0.18256436600894366,9.746430845321408
4570000000.0,22.47,-0.006707348483412727,-0.020991026745737176,-0.0016821772338712325,0.134790198900902,0.21170006630030067,9.682273178632633
4575000000.0,22.47,-0.012882333073808691,-0.011181355253403316,-0.0012243388261342107,0.18050435545554355,0.19080423340834235,9.664321411136115
4580000000.0,22.47,-0.022798285526322168,-0.001533010322833539,-0.001958967207118168,0.1781495110389951,0.12046608831196089,9.71229293376603
4585000000.0,22.47,-0.026271762429009478,-0.0008836698655045462,-0.0012456318219284538,0.1602952218837522,0.034628498476884984,9.786849112464992
4590000000.0,22.47,-0.024014654282611046,-0.00019162747610907533,-0.00019162747610907533,0.12478284337902844,-0.012557156620971566,9.864544313241943
4595000000.0,22.47,-0.017403133766311436,0.00258713060913099,-0.0008623768697103031,0.10182762149527622,-0.01962,9.894562378504723
4600000000.0,22.47,-0.00915941018078172,0.005749143646589225,-0.0010646508437165,0.05885955325259554,0.011772357397923573,9.882593821301038
4605000000.0,22.47,0.0009582828331451366,0.004705737314467001,-0.00022356696980043995,0.0567999894465999,0.08161991557279916,9.8476700422136
4610000000.0,22.47,0.0015330777791116449,0.00010641649477132961,-0.0008304373760189385,0.0665118895437189,0.18227078498090785,9.816474331368843
4615000000.0,22.47,-0.0022145126687708443,-0.002704232599960211,-0.0010646508437165,0.12154652748586527,0.20601,9.794892420718325
4620000000.0,22.47,-0.007239674432273228,0.0032792025106481906,-0.0010646508437165,0.1224286205240862,0.1463644820963448,9.775468620524085
4625000000.0,22.47,-0.010912700396715096,0.010114241512548292,-0.0002661529613889261,0.07357446098954462,0.10545723049477232,9.73397205082462
4630000000.0,22.47,-0.00934760512759047,0.01802688595279186,0.0,0.029822040271220405,0.0835810201356102,9.73622897986439
4635000000.0,22.47,-0.011626026295865696,0.014015439167153632,0.0,-0.009025560117255603,0.07131860997068609,9.784298340175884
4640000000.0,22.47,-0.009709576570053492,0.00787836733770071,0.0,-0.0337465802528658,0.10398645063216451,9.750746969114969
4645000000.0,22.47,-0.007005382968254053,0.0056319931715601125,0.0,-0.032274809776448095,0.1246851902235519,9.73152
4650000000.0,22.47,-0.008623701240825168,0.007559050397108668,0.0,-0.02943,0.15499836128268363,9.73152
4655000000.0,22.47,-0.011051095383338557,0.007047968959842541,0.0,-0.04296798083557981,0.14646302874663028,9.77213394250674
4660000000.0,22.47,-0.016790834460167738,0.0013200982829650026,0.0,-0.04237910948509109,0.10398554742545546,9.837076233604362
4665000000.0,22.47,-0.024174449773472013,-0.006057932137770911,0.0,-0.05895837183608371,0.035707675103776745,9.878768371836083
4670000000.0,22.47,-0.02312032737916587,-0.012030603755999831,0.0,-0.04277123716341237,0.0033353092908530923,9.862581237163413
4675000000.0,22.47,-0.015762862138305234,-0.015235871576722121,0.0,-0.02305340919373409,0.012753181612531816,9.855616590806266
4680000000.0,22.47,-0.00868749169184285,-0.013931886462948235,0.0,0.011772454516924546,0.06356943632369436,9.833936036386461
4685000000.0,22.47,-0.004375685339612791,-0.01143433030947417,0.0,0.06033195500251955,0.11919195500251954,9.795088435997984
4690000000.0,22.47,-0.004514139350479649,-0.006685947979175251,0.0,0.10280916439049165,0.15558687329286874,9.756240835609509
4695000000.0,22.47,-0.00792104186565425,-0.0003619219042588057,0.0,0.12968838238948383,0.13684904402629045,9.735345808805258
4700000000.0,22.47,-0.010859458421190361,0.005962104170657685,0.0,0.09025126966511268,0.11772,9.737406091291861
4705000000.0,22.47,-0.018631149961771988,0.015437197430622386,0.0,0.02992004305510043,0.08299205166612053,9.77605794833388
4710000000.0,22.47,-0.02158724960005422,0.019628311905057635,0.0,-0.012949565944395659,0.04748021702780217,9.840019240402693
4715000000.0,22.47,-0.016594705262382665,0.014316332578307294,0.0,-0.051797166332871666,0.016872833667128332,9.89681895791609
4720000000.0,22.47,-0.010859388856903565,0.005876793058907059,0.0,-0.07416369168033692,0.010987383360673834,9.87945415823764
4725000000.0,22.47,-0.007346070900961959,-0.001969673783263111,0.0,-0.07848,0.046597958887279585,9.838448816445089
4730000000.0,22.47,-0.004663140782835081,-0.007048018498046819,0.0,-0.04139755687797556,0.10575244312202442,9.819025016250851
4735000000.0,22.47,-0.002629677602558647,-0.012476381658534161,0.0,0.005788175915081758,0.14773878394338782,9.825598175915083
4740000000.0,22.47,-0.006004700702289605,-0.014317254780273571,0.0,0.04002516827525168,0.1365548317247483,9.813923539655935
4745000000.0,22.47,-0.010124839526245507,-0.0127758101245984,0.0,0.0788727686637277,0.10771361566813616,9.750354462672545
4750000000.0,22.47,-0.014381583291870465,-0.0127758101245984,0.0,0.11281527678915278,0.09319490773694908,9.692279630947796
4755000000.0,22.47,-0.017594828698698686,-0.009645676502583819,0.0,0.12272300763983009,0.10271097708050977,9.68708097708051
4760000000.0,22.47,-0.01654082435287926,-0.004854777744983276,0.0,0.12713778491457783,0.11772,9.711507784914577
4765000000.0,22.47,-0.014978220853700678,-0.00019157688390048205,0.0,0.14195079255440793,0.10849841489118416,9.72171
4770000000.0,22.47,-0.012860962081692856,0.0027042030878385048,0.0,0.14263730734847307,0.09358730734847308,9.717197307348473
4775000000.0,22.47,-0.013635425209183812,0.0030875075782609,0.0,0.1064378507594785,0.06621703625677036,9.720729185497293
4780000000.0,22.47,-0.01645567239578485,0.008474711402517529,0.0,0.06435350715423507,0.043556492845764926,9.761735449920355
4785000000.0,22.47,-0.01567093186198417,0.012924841069075588,0.0,0.037768035285580356,0.036394821171348214,9.817063571771536
4790000000.0,22.47,-0.012946134064869831,0.011263995829159337,0.0,0.00981,0.02786058608000586,9.843550293040003
4795000000.0,22.47,-0.009965091465580053,0.0071543728065617046,0.0,0.005787806862878068,0.055328772548487726,9.825106841177268
4800000000.0,22.47,-0.005323203626374021,-5.059220863903521e-08,0.0,0.0,0.11379683910816839,9.770759533828796
4805000000.0,22.47,-0.002129301687433,-0.0011178327409935695,0.0,0.01912996665679967,0.18207397332543973,9.72602602667456
4810000000.0,22.47,-0.0033430340678353063,0.005770498828639843,0.0,0.0266826394291264,0.19855421314304214,9.69836210657152
4815000000.0,22.47,-0.010056883650053167,0.012105090243118856,0.0,-0.006180206474402063,0.16461123884641238,9.706799174102391
4820000000.0,22.47,-0.020416224421740174,0.011242672267239028,0.0,-0.024721855359018552,0.09574475739554758,9.752710161736301
4825000000.0,22.47,-0.02674025049665668,0.007026654883961381,0.0,-0.07897078115950781,0.025505625120656246,9.817848749758689
4830000000.0,22.47,-0.02944436188611717,0.002810637500683703,0.0,-0.10810648145086482,-0.006670987633909877,9.885537469084774
4835000000.0,22.47,-0.023120274678948578,-0.0014053798825939092,0.0,-0.11458042434370425,-0.026094787828147878,9.94380915131259
4840000000.0,22.47,-0.01359674141814371,-0.0066434926841256285,0.0,-0.08515070598880706,-0.026682823955228238,9.983832823955229
4845000000.0,22.47,-0.007857102800023818,-0.014026933792973926,0.0,-0.06631522356675223,0.012164776433247764,9.92673805891688
4850000000.0,22.47,-0.005110283154470722,-0.02045879038724608,0.0,-0.018638340561983404,0.06867094205430942,9.841391434767415
4855000000.0,22.47,-0.001511783729313034,-0.020347120441076297,0.0,0.052189954420399545,0.15440996581529964,9.783120034184702
4860000000.0,22.47,-0.002384899849302975,-0.009198460350643952,0.0,0.11340378879933789,0.18521242240132424,9.735836211200661
4865000000.0,22.47,-0.010242002649326792,0.0022997278661259996,0.0,0.12223241100642411,0.14106723301927232,9.72171
4870000000.0,22.47,-0.016293747263224963,0.007963567778995036,0.0,0.09515652703046527,0.08789722162437222,9.729362083781721
4875000000.0,22.47,-0.0202458193231342,0.005057040124941666,0.0,0.05395481061794811,0.056407405308974055,9.75114
4880000000.0,22.47,-0.0199902928335598,0.002086756802014049,0.0,0.03217651563556515,0.039632020847420214,9.76526696872887
4885000000.0,22.47,-0.017952754094938225,0.004833494235228169,0.0,0.00981,0.00981,9.807743605114737
4890000000.0,22.47,-0.013371993980754714,0.0024912520498091817,0.0,0.007651705017617049,0.0184431799295318,9.80019
4895000000.0,22.47,-0.011263985289115857,-0.0013415219752981053,0.0,0.006180585238505853,0.05523058523850585,9.787828829522988
4900000000.0,22.47,-0.008943036099491113,-0.007239667054242796,0.0,0.03531628552986286,0.09221466623634667,9.74133
4905000000.0,22.47,-0.0063879050622992,-0.01003962643689906,0.0,0.0625879905474799,0.15646997636869978,9.73946600472626
4910000000.0,22.47,-0.007346142573257466,-0.007260908403824054,0.0,0.08730947685429477,0.18913641851656418,9.727988209258282
4915000000.0,22.47,-0.01280013253622769,-0.006206904058004676,0.0,0.12586220453202204,0.1486210226601102,9.713567795467977
4920000000.0,22.47,-0.01930899918048297,-0.004471481686595654,0.0,0.11458060886980609,0.09535243547922437,9.713861522174515
4925000000.0,22.47,-0.026207905575718043,0.0004791240255008589,0.0,0.09368521301335214,0.026486808675568088,9.677074786986648
4930000000.0,22.47,-0.029827676916583,0.003939260084165426,0.0,0.06592300848133008,0.004316016962660169,9.717198453352685
4935000000.0,22.47,-0.028720356814934657,0.008378791737026249,0.0,0.04905,-0.03070539585645396,9.82275395856454
4940000000.0,22.47,-0.020671627592806094,0.006558176302353259,0.0,0.04434081618570816,-0.03688540809285408,9.912809183814291
4945000000.0,22.47,-0.015516807847556675,-0.0005856100845589978,0.0,0.01304758815207588,-0.012065627645156275,9.944102411847924
4950000000.0,22.47,-0.01053992857172045,-0.0050038276615386595,0.0,0.03825890385218904,0.05003109614781096,9.913985615408755
4955000000.0,22.47,0.0,-0.0011710114762574523,0.0,0.031195992489859926,0.06239198497971985,9.87072303379563
4960000000.0,22.47,-0.00042591261610216866,0.009114880847082226,0.0,0.04905,0.09731510365795104,9.785670621947707
4965000000.0,22.47,-0.005695934345199259,0.016061751973591318,0.0,0.04630281424332815,0.08691640712166407,9.730833203560831
4970000000.0,22.47,-0.011030892971024608,0.016923040367830145,0.0,0.0074552138548521375,0.07043608960886089,9.724064786145147
4975000000.0,22.47,-0.0170518667919846,0.015118956766697429,0.0,-0.03139238653362387,0.0966282100997821,9.764874773067246
4980000000.0,22.47,-0.0170518667919846,0.018882294454196737,0.0,-0.07180997384419974,0.0674925098084251,9.84178498038315
4985000000.0,22.47,-0.01724356699439354,0.011327758876064013,0.0,-0.14715,0.03865120634471206,9.898878793655287
4990000000.0,22.47,-0.023375861246770695,-0.0013632495837367503,0.0,-0.14656110922571108,0.01922740615047406,9.917124812300948
4995000000.0,22.47,-0.02018170238995071,-0.0160405011379709,0.0,-0.11703262084682621,0.00039278808752788087,9.87817901489059
5000000000.0,22.47,-0.013840387188010792,-0.021310438546720326,0.0,-0.049049514404995144,0.039240485595004856,9.829619320166993
5005000000.0,22.47,-0.006462356767274846,-0.018148425509262094,0.0,-0.0004900139194001368,0.08779998608059986,9.76163601948716
5010000000.0,22.47,-0.004301168286367672,-0.017073149247735384,0.0,0.06729728119267281,0.14597338387943384,9.722494410747045
5015000000.0,22.47,-0.010454934715277954,-0.014969493144796956,0.0,0.08770159482071595,0.14715,9.740741594820715
5020000000.0,22.47,-0.02088401769317836,-0.008772659459002477,0.0,0.1259607900299079,0.08122611744766116,9.731912302492523
5025000000.0,22.47,-0.026367614638222646,-0.0004257755955372113,0.0,0.10889080479080805,0.003923219163232183,9.768798390418382
5030000000.0,22.47,-0.02763450678181072,0.002001564792754458,0.0,0.08024550689485506,-0.027664493105144933,9.835310483912005
5035000000.0,22.47,-0.026708239330669802,-0.00975232909432866,0.0,0.06023320440233204,-0.06592359119533592,9.921540580189507
5040000000.0,22.47,-0.022715766783101363,-0.01260548723833137,0.0,0.06788529789595298,-0.04159410631214106,9.92772
5045000000.0,22.47,-0.009764280605114722,-0.010838124319226672,0.0,0.12223318795843188,-0.0035312080277120766,9.847375218062352
5050000000.0,22.47,-0.0008516355114220877,-0.005855526413221506,0.0,0.16284639236076393,0.07063278472152784,9.804113607639236
5055000000.0,22.47,0.004737749534458284,-0.0053232542185827,0.0,0.2191559891238599,0.1657899818730998,9.69541802175228
5060000000.0,22.47,-0.0021719730533735614,-0.001575640582604525,0.0,0.27742738970657393,0.17658,9.673837101715572
5065000000.0,22.47,-0.012456521642123729,0.010050432089452385,0.0,0.2503508064738081,0.12537120971071208,9.638520806473807
5070000000.0,22.47,-0.014756071381515256,0.026375935898860347,0.0,0.14400961825599617,0.0670998091279981,9.675603492393336
5075000000.0,22.47,-0.024874550354387737,0.0350977734799887,0.0,0.02746681709056817,-0.02452598575785985,9.774194584333646
5080000000.0,22.47,-0.025739406968027387,0.029955360057039953,0.0,-0.07259498672904986,-0.014518503981285041,9.856303989383239
5085000000.0,22.47,-0.022034389863681166,0.01637714679122501,0.0,-0.11271719631007196,-0.0016676012299760117,9.885144797540047
5090000000.0,22.47,-0.012565914074968576,0.0077292900170323605,0.0,-0.125764298867143,0.03217719546857196,9.80803701132857
5095000000.0,22.47,-0.007196996742306642,0.0063879050622992,0.0,-0.11163760207147602,0.023347602071476018,9.71091801035738
5100000000.0,22.47,0.002129409195876314,0.00298097935902893,0.0,-0.10791,0.051012396245523964,9.660887603754476
5105000000.0,22.47,-0.004152245904338195,0.00044713183159218826,0.0,-0.09241000168300001,0.13635999158499992,9.684039996634
5110000000.0,22.47,-0.012200974072462425,-0.007473945870209792,0.0,-0.080638100744381,0.141656201488762,9.753495194044952
5115000000.0,22.47,-0.017952859840948004,-0.0095818575934488,0.0,-0.07848,0.10712480258904802,9.785867598705476
5120000000.0,22.47,-0.026463477387479277,-0.010391003027677917,0.0,-0.071024300550143,0.06827720220057203,9.805291398899714
5125000000.0,22.47,-0.0287630260728665,-0.017047590074318195,0.0,-0.04659720135907201,-7.963758079584937e-07,9.868860796375808
5130000000.0,22.47,-0.031126583388170967,-0.022332578233156944,0.0,-0.01746150106771501,-0.04139849893228499,9.873961000711809
5135000000.0,22.47,-0.02573933107971447,-0.0234397718542838,0.0,0.018835598964855992,-0.020404401035144012,9.86886
5140000000.0,22.47,-0.020373534083721438,-0.017294729764919095,0.0,0.07887309886833099,-0.016873299838332998,9.861796700161667
5145000000.0,22.47,-0.015389211740212724,-0.013393285922544561,0.0,0.105065199935452,-0.033550399870903996,9.810293600451837
5150000000.0,22.47,-0.01608847779158923,-0.0127758101245984,0.0,0.13537840013028402,-0.011771599869715994,9.78351289996743
5155000000.0,22.47,-0.012632104148306506,-0.00689885053300467,0.0,0.17422600051876,0.027076000518760007,9.78057
5160000000.0,22.47,-0.009922534986113262,0.0051530514888110685,0.0,0.16637729931957299,0.032569099773191,9.833937201814472
5165000000.0,22.47,-0.01100851149975876,0.015300167103166569,0.0,0.12409599838035998,0.0031387987042879872,9.845904399352143
5170000000.0,22.47,-0.014533400453638845,0.014591596007686263,0.0,0.07553649789476499,-0.016284700421047002,9.813531198315813
5175000000.0,22.47,-0.017371283862989476,0.010699708252516222,0.0,0.04610679896366799,-0.006866798963667988,9.787436798963668
5180000000.0,22.47,-0.011291472754844267,0.008219082674521571,0.0,0.04551850061528501,0.025114002461140025,9.78057
5185000000.0,22.47,-0.004098851098183269,0.006111073982882778,0.0,0.04286959928759599,0.10722440783644407,9.74966799643798
5190000000.0,22.47,-0.005429774005779822,0.004003065291243959,0.0,0.03924,0.14715,9.749766902428568
5195000000.0,22.47,-0.011349243700649192,0.0018950565996051025,0.0,0.021287397280073974,0.08730799093357991,9.725044794560148
5200000000.0,22.47,-0.022155352205902656,0.0017034523115915965,0.0,0.00981,0.043163898996238986,9.70209
5205000000.0,22.47,-0.03021099510906196,0.0002448367774990751,0.0,0.004021998899119988,0.016087995596479953,9.725242004403519
5210000000.0,22.47,-0.03133947013193525,-0.004769701676201736,0.0,0.011379802395998024,-0.011379802395998024,9.781159308385993
5215000000.0,22.47,-0.029678603811932082,-0.012924262230623379,0.0,0.030803602590236026,-0.01962,9.83795900647559
5220000000.0,22.47,-0.022800871310000175,-0.01584966181520987,0.0,0.055721104176711035,-0.008632597215525971,9.87553110417671
5225000000.0,22.47,-0.01576464223069405,-0.010220559984915424,0.0,0.09025240595742406,0.005395601489356015,9.845315188085152
5230000000.0,22.47,-0.009816003604868267,-0.0012136027378677324,0.0,0.09731499682704997,-0.0007850031729500322,9.783512492067624
5235000000.0,22.47,-0.01033783694046608,0.007143884409316479,0.0,0.08309059831640597,-0.004610598316405983,9.734952991582029
5240000000.0,22.47,-0.016064054800299352,0.012307396891259825,0.0,0.06827739643857396,0.015303905342139053,9.7119
5245000000.0,22.47,-0.0181165176357011,0.01927919219676457,0.0,0.02383758685517586,0.02442679812216798,9.73691600938916
5250000000.0,22.47,-0.017584181146797218,0.028230778120327617,0.0,-0.03924061184970611,0.00980979605009796,9.790380611849706
5255000000.0,22.47,-0.013913174551009379,0.027783458675961877,0.0,-0.10712601657656015,0.0,9.84865201243242
5260000000.0,22.47,-0.011157551930275037,0.013210524229908503,0.0,-0.15185890216918901,0.014126706507567066,9.873961097830811
5265000000.0,22.47,-0.013720950491161754,-0.003375065259904822,0.0,-0.14312759320107593,0.03404080226630802,9.836584384135843
5270000000.0,22.47,-0.014999686256959882,-0.0095818575934488,0.0,-0.12301729763657299,0.04375270236342702,9.777626488182865
5275000000.0,22.47,-0.014319564967733274,-0.008623649594612209,0.0,-0.09564698769726987,0.03580619261836193,9.768798409842184
5280000000.0,22.47,-0.015381248944725156,-0.010263300915142742,0.0,-0.060036994884669945,0.023936502557665024,9.79038
5285000000.0,22.47,-0.020107514980884447,-0.01705264309210339,0.0,-0.027957986726079867,0.020993194690431947,9.819908818583489
5290000000.0,22.47,-0.02646340255317076,-0.02309912818975842,0.0,0.012360908255709083,-0.006671211007612112,9.854929697248098
5295000000.0,22.47,-0.02726185722132017,-0.026878627565206304,0.0,0.05356321709413217,-0.037474405698044055,9.877395419943154
5300000000.0,22.47,-0.024930238345702696,-0.03089238362252991,0.0,0.1157587206229872,-0.041201794107717946,9.910061794107717
5305000000.0,22.47,-0.02154467098649617,-0.03159493021923586,0.0,0.18756802434608025,-0.02943,9.89446399695674
5310000000.0,22.47,-0.01943666229485732,-0.021623065082415405,0.0,0.2578074188422742,-0.040613709421137095,9.854928871736588
5315000000.0,22.47,-0.015352535620106304,-0.006590043069744838,0.0,0.2834105902875059,-0.0479705902875059,9.771151574100015
5320000000.0,22.47,-0.009879937400477004,0.00519558583418658,0.0,0.26133829666538294,-0.02943,9.707583186661532
5325000000.0,22.47,-0.01038040185196766,0.013261090416695667,0.0,0.24132558627305586,-0.022562793136527932,9.69963801715868
5330000000.0,22.47,-0.012392490878115186,0.019564487725900914,0.0,0.2058134894134349,-0.006474496471144964,9.74486201411542
5335000000.0,22.47,-0.009933203618101648,0.02378050510917859,0.0,0.14754115648831156,0.006474807251948073,9.78694701812987
5340000000.0,22.47,-0.009283710330142563,0.027655822965700513,0.0,0.04983417766144177,0.02275930372309304,9.816670696276907
5345000000.0,22.47,-0.006717958091157772,0.028837517830007254,0.0,0.0006863885393638865,0.02943,9.797835184719151
5350000000.0,22.47,-0.008410775498900111,0.02471728519966464,0.0,-0.03433551958665519,0.02943,9.74427206474402
5355000000.0,22.47,-0.010337748404101042,0.020863339389262887,0.0,-0.07436000802890008,0.03796501204335012,9.6710899839422
5360000000.0,22.47,-0.00868751698794715,0.022077007475400066,0.0,-0.1020245205578452,0.06710071233470713,9.64323
5365000000.0,22.47,-0.009554755046651743,0.02016060201777033,0.0,-0.1505840210434402,0.07239717474787175,9.661771629460818
5370000000.0,22.47,-0.021438364108176802,0.013448661738506855,0.0,-0.19659281722322816,0.026879295694192958,9.734856338752264
5375000000.0,22.47,-0.031424675843251315,-0.00026631000803647867,0.0,-0.2207247911941479,0.014714791194147911,9.82471604402926
5380000000.0,22.47,-0.03276610190415396,-0.012694917761919472,0.0,-0.20130099099990992,-0.00941801800018018,9.89829
5385000000.0,22.47,-0.03146721651265288,-0.022609503118960133,0.0,-0.17059516781985168,-0.050522022985820224,9.893777190805672
5390000000.0,22.47,-0.029359207821014043,-0.036194391221509595,0.0,-0.09182034366860345,-0.07749847652858476,9.854928648362886
5395000000.0,22.47,-0.02702761107948789,-0.041432257386024456,0.0,0.01854184312261843,-0.03305938562579386,9.764579385625794
5400000000.0,22.47,-0.023652656490039344,-0.03067927237584002,0.0,0.10202473421964733,-0.019620524442605244,9.735443685334436
5405000000.0,22.47,-0.02004352426904107,-0.018475023097184826,0.0,0.15882400498564003,-0.05886,9.7212200249282
5410000000.0,22.47,-0.020331059816593607,-0.005621310837515197,0.0,0.16677,-0.062391810165518105,9.769779525413794
5415000000.0,22.47,-0.02593107765831466,-0.002129301687433,0.0,0.16510219482012195,-0.08014780517987805,9.825010246618902
5420000000.0,22.47,-0.02650588630633771,-0.0012775238854242405,0.0,0.15539029472300295,-0.08672029472300294,9.89829
5425000000.0,22.47,-0.0184864014542307,0.004471625031186662,0.0,0.14567839462588394,-0.07259357850353577,9.895346789251768
5430000000.0,22.47,-0.007771893926694744,0.01215834697470443,0.0,0.13184597811505977,-0.04061350547123505,9.869055461701354
5435000000.0,22.47,-0.003332368597859984,0.0149051118120315,0.0,0.09172297215822972,-0.042672972158229724,9.799796755453167
5440000000.0,22.47,-0.005152990356558973,0.014649572674404962,0.0,0.04905,-0.0011773056654730567,9.725633471672635
5445000000.0,22.47,-0.011945405422714193,0.012190194770017673,0.0,0.04581238271222383,-0.007651588474815884,9.68247
5450000000.0,22.47,-0.013946937541334019,0.006707219894882544,0.0,0.01863889414028894,0.00882889414028894,9.691299952737399
5455000000.0,22.47,-0.015769153472966677,-0.0006708105258533033,0.0,0.00981,0.0008830059568300596,9.7795900595683
5460000000.0,22.47,-0.023993321234651626,-0.008476155284798713,0.0,0.012164718161847181,0.009025093946050939,9.874354342377643
5465000000.0,22.47,-0.018041980556373446,-0.02039489348178952,0.0,0.04473444920854449,0.0,9.935469581546796
5470000000.0,22.47,-0.01679525707968162,-0.02173516780968111,0.0,0.12007482499274826,0.0,9.899269406277194
5475000000.0,22.47,-0.012989659312560476,-0.011285206612614592,0.0,0.1584318190359182,-0.0014718190359181904,9.754081511165715
5480000000.0,22.47,-0.017477842648347515,-0.002512391160968933,0.0,0.18599749355757494,-0.029037493557574935,9.62361
5485000000.0,22.47,-0.027762277404628336,0.014480006511421988,0.0,0.17363593460455934,-0.019914406539544065,9.62655406539544
5490000000.0,22.47,-0.02976376314705686,0.03532136785390209,0.0,0.0767132402700324,-0.0300189199099892,9.723280453093304
5495000000.0,22.47,-0.02661240820154355,0.0436255055171184,0.0,-0.011086687539166874,-0.05866358653243587,9.801172067337822
5500000000.0,22.47,-0.024504434292048106,0.03940936059931484,0.0,-0.13734074781630748,-0.03924042732360427,9.8982901068309
5505000000.0,22.47,-0.025558438637867584,0.02359929541202357,0.0,-0.2053240484961405,-0.07808802771208027,9.908002006928019
5510000000.0,22.47,-0.0203522263318664,0.009858864691590984,0.0,-0.24446562810055628,-0.04002437189944371,9.869644371899444
5515000000.0,22.47,-0.01611492754684225,0.0033855199290109697,0.0,-0.2071867715109677,-0.04875580712225808,9.840312578633226
5520000000.0,22.47,-0.009838001919636193,-0.006004735484433048,0.0,-0.17775687834186876,-0.04905,9.754670635025606
5525000000.0,22.47,-0.021735597791617926,-0.015507355415632048,0.0,-0.16726039268350393,-0.04905,9.713861570734016
5530000000.0,22.47,-0.026378254812093695,-0.02499426700170255,0.0,-0.10221944810469448,-0.03982849258638492,9.785672059308922
5535000000.0,22.47,-0.0266337243854334,-0.0315098952566238,0.0,-0.0068659248926592475,-0.05748681502146815,9.845120445064405
5540000000.0,22.47,-0.02075678165790923,-0.04077239269530245,0.0,0.04512653803926538,-0.07691061521570615,9.93949307607853
5545000000.0,22.47,-0.017339287453063477,-0.043476524110845516,0.0,0.12046766163977662,-0.06062558459005585,9.956267207704972
5550000000.0,22.47,-0.014161566260543011,-0.035044360755759944,0.0,0.23347929362509293,-0.05886,9.913004460989544
5555000000.0,22.47,-0.01099780808562701,-0.01701482937301135,0.0,0.26271201579842013,-0.05886,9.794596897310269
5560000000.0,22.47,-0.012520317363163091,-0.0008515448670483768,0.0,0.2821358159926582,-0.06749290799632908,9.711506736029367
5565000000.0,22.47,-0.016496026541810465,0.016826220807251328,0.0,0.26742038381310385,-0.04306557571965576,9.650881151439313
5570000000.0,22.47,-0.0207143126608031,0.02101239141382689,0.0,0.2142497508565975,-0.022366583618865832,9.634793291809432
5575000000.0,22.47,-0.02312040010546575,0.016785645320313125,0.0,0.15597835027388351,-0.044635824863058254,9.683451649726116
5580000000.0,22.47,-0.016270563124452915,0.01150096263266836,0.0,0.08946644130636441,-0.007847458075974582,9.832368642541686
5585000000.0,22.47,-0.005184720103385552,0.007995492516625522,0.0,0.0703375915180759,-0.024427225445772256,9.875334816963848
5590000000.0,22.47,-0.00930513086046266,0.006579530430399584,0.0,0.052581382841913826,-0.02943,9.846492765683827
5595000000.0,22.47,-0.01583491966377005,0.009837420973175342,0.0,0.06494241735232417,-0.021483791323837913,9.76791412191454
5600000000.0,22.47,-0.021310529191094125,0.019177796062922484,0.0,0.02942945613359456,-0.02746810877328109,9.680507021040471
5605000000.0,22.47,-0.023216206992492053,0.02551590007647462,0.0,-0.0036300266112002655,-0.02167999112959991,9.6473499822592
5610000000.0,22.47,-0.028422408758449737,0.0233119664493228,0.0,-0.05572145380511453,-0.03492381793503818,9.696793362772635
5615000000.0,22.47,-0.030647469902713588,0.01252416594771994,0.0,-0.12910047251710471,-0.07700904532319044,9.802545708775657
5620000000.0,22.47,-0.024419155854432273,0.002299539199348088,0.0,-0.1546057091617571,-0.07337858167648581,9.919088509941085
5625000000.0,22.47,-0.020778121029894694,-0.005589499932354009,0.0,-0.12752956296449564,-0.07602760925887608,9.954697609258876
5630000000.0,22.47,-0.019457965830694982,-0.01376829947655271,0.0,-0.11046049064400491,-0.08573950935599509,9.913592943864028
5635000000.0,22.47,-0.023067203452127857,-0.014420060860912734,0.0,-0.07210295273442953,-0.0811285905468859,9.819514496015746
5640000000.0,22.47,-0.026804104187935145,-0.00540829550522073,0.0,-0.03060676179906762,-0.0714166904497669,9.719746904497669
5645000000.0,22.47,-0.02391880523541096,0.000894354307558117,0.0,-0.012654790352647903,-0.08260041929470419,9.657453951763241
5650000000.0,22.47,-0.021629853509716572,-0.0038328383193724012,0.0,-0.00981,-0.0951571097444711,9.656964219488943
5655000000.0,22.47,-0.0213104701668507,-0.013011537056142808,0.0,-0.003040990158409901,-0.07102396063363961,9.744078118099083
5660000000.0,22.47,-0.01769059764156849,-0.01960708847355021,0.0,0.040025459632254595,-0.0521890900612909,9.847279099387091
5665000000.0,22.47,-0.01169555400355536,-0.0177438301310541,0.0,0.0785784301074843,-0.04905,9.91810686021497
5670000000.0,22.47,-0.0095818575934488,-0.0075435184681173426,0.0,0.1012394202658942,-0.0555247101329471,9.905156449335264
5675000000.0,22.47,-0.013745412497891154,-0.001117847497054385,0.0,0.1142866102300661,-0.0524833897699339,9.837467118159472
5680000000.0,22.47,-0.019394158515607773,0.004088331080807699,0.0,0.11772,-0.05532851032718511,9.72210085541941
5685000000.0,22.47,-0.023993438229134054,0.011753841186865843,0.0,0.09299835830278358,-0.05886,9.654118768727088
5690000000.0,22.47,-0.021608500435674603,0.011604634223662948,0.0,0.054150757914307575,-0.052777689478576896,9.673641552607116
5695000000.0,22.47,-0.01788227043986447,0.0037368164154595413,0.0,0.04522421061854211,-0.055034210618542106,9.752122106185421
5700000000.0,22.47,-0.0170518667919846,-0.009592510000681797,0.0,0.04316388928433889,-0.04708777856867778,9.84335499644095
5705000000.0,22.47,-0.017680022815966923,-0.019127996068179724,0.0,0.06239204325112043,-0.05081602162556022,9.9076100540639
5710000000.0,22.47,-0.0181165176357011,-0.017595289903354353,0.0,0.10692955454949554,-0.07023982181979821,9.893580534540606
5715000000.0,22.47,-0.022364558833017818,-0.010657070614714785,0.0,0.14430543302105434,-0.0840718110070181,9.83530913395789
5720000000.0,22.47,-0.030935022314335675,-0.0014903906031059708,0.0,0.14597257779172576,-0.08279628889586288,9.744075466750354
5725000000.0,22.47,-0.03280865100559031,0.006121802693118883,0.0,0.13734,-0.07848,9.686884388798743
5730000000.0,22.47,-0.02686786301882245,0.011966747956712686,0.0,0.12144746610487467,-0.09437253389512534,9.730147601685376
5735000000.0,22.47,-0.01835202808166434,0.013212280702232673,0.0,0.09751117720901177,-0.09231176581351766,9.833152936745929
5740000000.0,22.47,-0.016617689572297964,0.0117111592808819,0.0,0.07298606552216065,-0.08868262298522624,9.934391803433519
5745000000.0,22.47,-0.020810120601833747,0.014434980862626894,0.0,0.028840730461607306,-0.10310321158973212,9.991779634769197
5750000000.0,22.47,-0.023972133639292032,0.019181216963617558,0.0,-0.024525558434255586,-0.11772022337370223,9.986579553252596
5755000000.0,22.47,-0.024004000406683535,0.02235385225687296,0.0,-0.07308505891985059,-0.12753,9.904468846808388
5760000000.0,22.47,-0.0223751210105673,0.020884549118713788,0.0,-0.10751782376217825,-0.12282108811891089,9.782923057426931
5765000000.0,22.47,-0.02137432491213353,0.01310433389682379,0.0,-0.10849837604358377,-0.11310918802179189,9.703266752087167
5770000000.0,22.47,-0.017299281301259576,0.0025550403928181553,0.0,-0.10712542415065425,-0.10339728792467288,9.70052084830131
5775000000.0,22.47,-0.009528515487511248,-0.00654768790510807,0.0,-0.11330538782755388,-0.10251461217244613,9.748197673034676
5780000000.0,22.47,-0.004727061930391642,-0.013933397974295235,0.0,-0.08201092638260926,-0.09064395092173952,9.819418610426087
5785000000.0,22.47,-0.008070126564353042,-0.01994776586621469,0.0,-0.04483158763331588,-0.06867,9.860423175266632
5790000000.0,22.47,-0.014848648781947204,-0.019237631509501953,0.0,-0.0227587501447875,-0.06042937507239375,9.832758750144787
5795000000.0,22.47,-0.0191811684794176,-0.011849478379192445,0.0,0.02011106280461063,-0.06111663768276637,9.76977787439078
5800000000.0,22.47,-0.016618951578353837,-0.008730173597826815,0.0,0.0647464506321645,-0.06670766202587662,9.68050709873567
5805000000.0,22.47,-0.01236058405855851,-0.013144671818094018,0.0,0.09594202551032026,-0.04905,9.618115948979359
5810000000.0,22.47,-0.012520318417167475,-0.01745644636012737,0.0,0.12282165140911652,-0.041594174295441745,9.612819564261395
5815000000.0,22.47,-0.013446527898069317,-0.01495859515455144,0.0,0.16166925179759253,-0.03668962589879626,9.68315794244338
5820000000.0,22.47,-0.015081812945121589,-0.005365705297614914,0.0,0.1757948608604486,-0.05964513913955139,9.793520556558205
5825000000.0,22.47,-0.02365284937283462,0.005110422283044371,0.0,0.13979193428181935,-0.08191361314363613,9.879160839430908
5830000000.0,22.47,-0.035938907946113374,0.010284514860611084,0.0,0.10791,-0.0982965397222654,9.881612433796224
5835000000.0,22.47,-0.040506014176983525,0.008879163436134445,0.0,0.10467258666212587,-0.11124517332425174,9.836290346648504
5840000000.0,22.47,-0.03136067564536879,0.0074525559060157,0.0,0.0886820596950206,-0.11065725373997254,9.788024805955049
5845000000.0,22.47,-0.022598586795950518,0.0061323395745639985,0.0,0.06562878646788786,-0.12821635940366358,9.74133
5850000000.0,22.47,-0.017264846288131245,0.002235729776252182,0.0,0.0676893408876934,-0.10496688637076887,9.74133
5855000000.0,22.47,-0.02086334149727158,-0.00030876108706867454,0.0,0.08259997254729971,-0.10663504117905041,9.76693512353715
5860000000.0,22.47,-0.0223751210105673,0.0007240366913128739,0.0,0.05768234470612344,-0.1330238276469383,9.843354569117345
5865000000.0,22.47,-0.024099929558213943,0.0056107223098571316,0.0,0.02943,-0.14979881392058814,9.886616441761763
5870000000.0,22.47,-0.028209382886111856,0.004450153908657979,0.0,0.03198071401770714,-0.15440928598229287,9.902998571964584
5875000000.0,22.47,-0.02583519909899281,-0.0013308259391966884,0.0,0.03678738588517386,-0.13979215765552158,9.866406472966565
5880000000.0,22.47,-0.020624768287466955,-0.001873773089849933,0.0,0.02943,-0.11772,9.78606291472833
5885000000.0,22.47,-0.009262338284022354,-0.00033000454465866415,0.0,0.031686414309064145,-0.11546358569093586,9.74133
5890000000.0,22.47,-0.002235828852660663,0.003066244094588339,0.0,0.03492337118763371,-0.10575168559381687,9.745646628812366
5895000000.0,22.47,-0.009074639704145487,0.007058672373974327,0.0,0.013439356490093564,-0.1022204290066043,9.77125107251651
5900000000.0,22.47,-0.020458824115385146,0.012140659727777232,0.0,-0.021582687602526872,-0.11575788539957886,9.81
5905000000.0,22.47,-0.025164481325521966,0.022982009334859697,0.0,-0.07985408818524088,-0.10791,9.81745605879016
5910000000.0,22.47,-0.022098224582881385,0.02326613642242422,0.0,-0.1310618295893183,-0.10791,9.851005914794658
5915000000.0,22.47,-0.015987215948268,0.008612738541624296,0.0,-0.14715,-0.10624218510822185,9.847375295757553
5920000000.0,22.47,-0.015132640144853797,-0.01290644831310831,0.0,-0.1345922800888228,-0.09653028501110285,9.776252565099925
5925000000.0,22.47,-0.010486798320656411,-0.018861748246399655,0.0,-0.05984030948390309,-0.08681838491398385,9.696203539655935
5930000000.0,22.47,-0.010478682970998828,-0.016304105033046423,0.0,-0.007062969633729696,-0.08260054554940545,9.668344060732542
5935000000.0,22.47,-0.017648221396844826,-0.012267096896867311,0.0,0.013636245840762458,-0.10408375415923754,9.703365415280254
5940000000.0,22.47,-0.029657420432589794,-0.01611498657108562,0.0,0.04159463075474631,-0.08201194613211946,9.722495838396359
5945000000.0,22.47,-0.03551283722935934,-0.015761581350237547,0.0,0.05886,-0.11006843094898432,9.808823723795937
5950000000.0,22.47,-0.02897585590039605,-0.004684388456442488,0.0,0.05886,-0.12753,9.883575577858055
5955000000.0,22.47,-0.020927145650345716,0.0005854951980852725,0.0,0.05974301566873016,-0.12929603133746032,9.922421905987619
5960000000.0,22.47,-0.017307420685671975,-0.004854895793469979,0.0,0.07023983153169831,-0.14793491576584916,9.864150505404904
5965000000.0,22.47,-0.02054397185646221,-0.01148754488088589,0.0,0.09103726345187263,-0.15627318413703184,9.80656592068516
5970000000.0,22.47,-0.024632205968870065,-0.008069965301688128,0.0,0.12929614788026147,-0.14891614788026147,9.759772568079825
5975000000.0,22.47,-0.026686969522971164,-0.0011711411187920202,0.0,0.15548815182838152,-0.17559876788558768,9.747217392686473
5980000000.0,22.47,-0.027911368427353186,-0.003492143008634064,0.0,0.12713748384567483,-0.1577450323086503,9.862582645388926
5985000000.0,22.47,-0.03286186873901512,-0.010870697234972361,0.0,0.11919208125722082,-0.17687441625144415,9.94940091376011
5990000000.0,22.47,-0.02742105258629694,-0.01815912892339389,0.0,0.16755526539425267,-0.18599736730287367,10.015421050954311
5995000000.0,22.47,-0.013744528654771554,-0.020149712269493227,0.0,0.20620643289136434,-0.16686821644568217,9.984910320423403
6000000000.0,22.47,-0.004258653967074699,-0.010646344012487452,0.0,0.22563046617120466,-0.17657941728599416,9.81980895111479
6005000000.0,22.47,-0.008474671350352412,0.0030557124831649633,0.0,0.26447806655968065,-0.12801991680039917,9.732401850240718
