#timestamp [ns], temperature [degC], w_RS_S_x [rad s^-1], w_RS_S_y [rad s^-1], w_RS_S_z [rad s^-1], a_RS_S_x [m s^-2], a_RS_S_y [m s^-2], a_RS_S_z [m s^-2]
0,21.71,0.0,0.0,0.0,0.35316,0.24525000000000002,9.84924
5050505,21.71,0.0,0.0,0.0,0.31392000000000003,0.25506,9.84924
10101010,21.71,0.0,0.0,0.0,0.34335000000000004,0.24525000000000002,9.888480000000001
15151515,21.71,0.0,0.0,0.0,0.34335000000000004,0.25506,9.86886
20202020,21.71,0.0,0.0,0.0,0.33354000000000006,0.24525000000000002,9.85905
25252525,21.71,0.0,0.0,0.0,0.30411,0.25506,9.85905
30303030,21.71,0.0,0.0,0.0,0.34335000000000004,0.23544,9.82962
35353535,21.71,0.0,0.0,0.0,0.35316,0.23544,9.84924
40404040,21.71,0.0,0.0,0.0,0.36297,0.25506,9.86886
45454545,21.71,0.0,0.0,0.0,0.34335000000000004,0.26487,9.87867
50505050,21.71,0.0,0.0,0.0,0.34335000000000004,0.24525000000000002,9.888480000000001
55555555,21.71,0.0,0.0,0.0,0.33354000000000006,0.23544,9.908100000000001
60606060,21.71,0.0,0.0,0.0,0.30411,0.26487,9.86886
65656565,21.71,0.0,0.0,0.0,0.34335000000000004,0.24525000000000002,9.86886
70707070,21.71,0.0,0.0,0.0,0.34335000000000004,0.23544,9.87867
75757575,21.71,0.0,0.0,0.0,0.33354000000000006,0.26487,9.86886
80808080,21.71,0.0,0.0,0.0,0.31392000000000003,0.24525000000000002,9.85905
85858585,21.71,0.0,0.0,0.0,0.32373,0.23544,9.888480000000001
90909090,21.71,0.0,0.0,0.0,0.34335000000000004,0.22563,9.888480000000001
95959595,21.71,0.0,0.0,0.0,0.31392000000000003,0.27468000000000004,9.86886
101010100,21.71,0.0,0.0,0.0,0.30411,0.28449,9.87867
106060605,21.71,0.0,0.0,0.0,0.30411,0.25506,9.87867
111111110,21.71,0.0,0.0,0.0,0.35316,0.25506,9.84924
116161615,21.71,0.0,0.0,0.0,0.32373,0.20601000000000003,9.888480000000001
121212120,21.71,0.0,0.0,0.0,0.32373,0.24525000000000002,9.84924
126262625,21.71,0.0,0.0,0.0,0.33354000000000006,0.24525000000000002,9.85905
131313130,21.71,0.0,0.0,0.0,0.34335000000000004,0.27468000000000004,9.85905
136363635,21.71,0.0,0.0,0.0,0.33354000000000006,0.25506,9.85905
141414140,21.71,0.0,0.0,0.0,0.2943,0.25506,9.85905
146464645,21.71,0.0,0.0,0.0,0.32373,0.24525000000000002,9.84924
151515150,21.71,0.0,0.0,0.0,0.34335000000000004,0.24525000000000002,9.86886
156565655,21.71,0.0,0.0,0.0,0.32373,0.22563,9.85905
161616160,21.71,0.0,0.0,0.0,0.35316,0.24525000000000002,9.87867
166666665,21.71,0.0,0.0,0.0,0.34335000000000004,0.26487,9.84924
171717170,21.71,0.0,0.0,0.0,0.31392000000000003,0.25506,9.86886
176767675,21.71,0.0,0.0,0.0,0.32373,0.24525000000000002,9.86886
181818180,21.71,0.0,0.0,0.0,0.33354000000000006,0.23544,9.85905
186868685,21.71,0.0,0.0,0.0,0.34335000000000004,0.21582,9.86886
191919190,21.71,0.0,0.0,0.0,0.36297,0.24525000000000002,9.89829
196969695,21.71,0.0,0.0,0.0,0.35316,0.25506,9.888480000000001
202020200,21.71,0.0,0.0,0.0,0.31392000000000003,0.24525000000000002,9.888480000000001
207070705,21.71,0.0,0.0,0.0,0.32373,0.27468000000000004,9.85905
212121210,21.71,0.0,0.0,0.0,0.30411,0.23544,9.86886
217171715,21.71,0.0,0.0,0.0,0.30411,0.23544,9.87867
222222220,21.71,0.0,0.0,0.0,0.32373,0.23544,9.87867
227272725,21.71,0.0,0.0,0.0,0.32373,0.23544,9.87867
232323230,21.71,0.0,0.0,0.0,0.35316,0.25506,9.888480000000001
237373735,21.71,0.0,0.0,0.0,0.33354000000000006,0.24525000000000002,9.85905
242424240,21.71,0.0,0.0,0.0,0.35316,0.23544,9.86886
247474745,21.71,0.0,0.0,0.0,0.33354000000000006,0.26487,9.85905
252525250,21.71,0.0,0.0,0.0,0.33354000000000006,0.23544,9.85905
257575755,21.71,0.0,0.0,0.0,0.32373,0.24525000000000002,9.87867
262626260,21.71,0.0,0.0,0.0,0.30411,0.26487,9.86886
267676765,21.71,0.0,0.0,0.0,0.30411,0.24525000000000002,9.83943
272727270,21.71,0.0,0.0,0.0,0.33354000000000006,0.23544,9.85905
277777775,21.71,0.0,0.0,0.0,0.37278,0.25506,9.87867
282828280,21.71,0.0,0.0,0.0,0.35316,0.24525000000000002,9.86886
287878785,21.71,0.0,0.0,0.0,0.32373,0.24525000000000002,9.87867
292929290,21.71,0.0,0.0,0.0,0.32373,0.25506,9.85905
297979795,21.71,0.0,0.0,0.0,0.31392000000000003,0.25506,9.86886
303030300,21.71,0.0,0.0,0.0,0.32373,0.24525000000000002,9.86886
308080805,21.71,0.0,0.0,0.0,0.32373,0.22563,9.84924
313131310,21.71,0.0,0.0,0.0,0.35316,0.23544,9.888480000000001
318181815,21.71,0.0,0.0,0.0,0.35316,0.25506,9.87867
323232320,21.71,0.0,0.0,0.0,0.33354000000000006,0.23544,9.85905
328282825,21.71,0.0,0.0,0.0,0.35316,0.26487,9.86886
333333330,21.71,0.0,0.0,0.0,0.33354000000000006,0.28449,9.888480000000001
338383835,21.71,0.0,0.0,0.0,0.32373,0.26487,9.85905
343434340,21.71,0.0,0.0,0.0,0.2943,0.23544,9.86886
348484845,21.71,0.0,0.0,0.0,0.2943,0.24525000000000002,9.86886
353535350,21.71,0.0,0.0,0.0,0.30411,0.25506,9.85905
358585855,21.71,0.0,0.0,0.0,0.32373,0.22563,9.86886
363636360,21.71,0.0,0.0,0.0,0.34335000000000004,0.23544,9.85905
368686865,21.71,0.0,0.0,0.0,0.36297,0.21582,9.85905
373737370,21.71,0.0,0.0,0.0,0.34335000000000004,0.24525000000000002,9.87867
378787875,21.71,0.0,0.0,0.0,0.32373,0.24525000000000002,9.85905
383838380,21.71,0.0,0.0,0.0,0.31392000000000003,0.24525000000000002,9.87867
388888885,21.71,0.0,0.0,0.0,0.30411,0.28449,9.85905
393939390,21.71,0.0,0.0,0.0,0.32373,0.26487,9.85905
398989895,21.71,0.0,0.0,0.0,0.32373,0.26487,9.83943
404040400,21.71,0.0,0.0,0.0,0.32373,0.20601000000000003,9.888480000000001
409090905,21.71,0.0,0.0,0.0,0.2943,0.24525000000000002,9.83943
414141410,21.71,0.0,0.0,0.0,0.34335000000000004,0.22563,9.87867
419191915,21.71,0.0,0.0,0.0,0.34335000000000004,0.2943,9.87867
424242420,21.71,0.0,0.0,0.0,0.34335000000000004,0.24525000000000002,9.86886
429292925,21.71,0.0,0.0,0.0,0.33354000000000006,0.28449,9.86886
434343430,21.71,0.0,0.0,0.0,0.30411,0.22563,9.86886
439393935,21.71,0.0,0.0,0.0,0.30411,0.24525000000000002,9.86886
444444440,21.71,0.0,0.0,0.0,0.2943,0.22563,9.86886
449494945,21.71,0.0,0.0,0.0,0.34335000000000004,0.23544,9.87867
454545450,21.71,0.0,0.0,0.0,0.30411,0.26487,9.87867
459595955,21.71,0.0,0.0,0.0,0.34335000000000004,0.27468000000000004,9.888480000000001
464646460,21.71,0.0,0.0,0.0,0.34335000000000004,0.23544,9.85905
469696965,21.71,0.0,0.0,0.0,0.33354000000000006,0.22563,9.87867
474747470,21.71,0.0,0.0,0.0,0.32373,0.23544,9.888480000000001
479797975,21.71,0.0,0.0,0.0,0.33354000000000006,0.24525000000000002,9.83943
484848480,21.71,0.0,0.0,0.0,0.31392000000000003,0.26487,9.888480000000001
489898985,21.71,0.0,0.0,0.0,0.33354000000000006,0.27468000000000004,9.86886
494949490,21.71,0.0,0.0,0.0,0.32373,0.24525000000000002,9.84924
499999995,21.71,0.0,0.0,0.0,0.34335000000000004,0.22563,9.86886
505050500,21.71,0.0,0.0,0.0,0.34335000000000004,0.21582,9.87867
510101005,21.71,0.0,0.0,0.0,0.32373,0.23544,9.84924
515151510,21.71,0.0,0.0,0.0,0.33354000000000006,0.24525000000000002,9.85905
520202015,21.71,0.0,0.0,0.0,0.33354000000000006,0.27468000000000004,9.87867
525252520,21.71,0.0,0.0,0.0,0.31392000000000003,0.25506,9.85905
530303025,21.71,0.0,0.0,0.0,0.33354000000000006,0.24525000000000002,9.84924
535353530,21.71,0.0,0.0,0.0,0.33354000000000006,0.24525000000000002,9.89829
540404035,21.71,0.0,0.0,0.0,0.31392000000000003,0.24525000000000002,9.86886
545454540,21.71,0.0,0.0,0.0,0.31392000000000003,0.26487,9.87867
550505045,21.71,0.0,0.0,0.0,0.38259000000000004,0.26487,9.85905
555555550,21.71,0.0,0.0,0.0,0.33354000000000006,0.25506,9.86886
560606055,21.71,0.0,0.0,0.0,0.33354000000000006,0.25506,9.86886
565656560,21.71,0.0,0.0,0.0,0.31392000000000003,0.25506,9.86886
570707065,21.71,0.0,0.0,0.0,0.32373,0.22563,9.83943
575757570,21.71,0.0,0.0,0.0,0.33354000000000006,0.24525000000000002,9.87867
580808075,21.71,0.0,0.0,0.0,0.33354000000000006,0.24525000000000002,9.86886
585858580,21.71,0.0,0.0,0.0,0.32373,0.27468000000000004,9.888480000000001
590909085,21.71,0.0,0.0,0.0,0.34335000000000004,0.25506,9.86886
595959590,21.71,0.0,0.0,0.0,0.32373,0.22563,9.85905
601010095,21.71,0.0,0.0,0.0,0.31392000000000003,0.24525000000000002,9.86886
606060600,21.71,0.0,0.0,0.0,0.33354000000000006,0.23544,9.84924
611111105,21.71,0.0,0.0,0.0,0.33354000000000006,0.24525000000000002,9.85905
616161610,21.71,0.0,0.0,0.0,0.34335000000000004,0.26487,9.85905
621212115,21.71,0.0,0.0,0.0,0.33354000000000006,0.27468000000000004,9.84924
626262620,21.71,0.0,0.0,0.0,0.33354000000000006,0.26487,9.87867
631313125,21.71,0.0,0.0,0.0,0.32373,0.23544,9.87867
636363630,21.71,0.0,0.0,0.0,0.30411,0.25506,9.888480000000001
641414135,21.71,0.0,0.0,0.0,0.30411,0.28449,9.87867
646464640,21.71,0.0,0.0,0.0,0.32373,0.25506,9.85905
651515145,21.71,0.0,0.0,0.0,0.34335000000000004,0.25506,9.83943
656565650,21.71,0.0,0.0,0.0,0.33354000000000006,0.25506,9.86886
661616155,21.71,0.0,0.0,0.0,0.35316,0.25506,9.86886
666666660,21.71,0.0,0.0,0.0,0.35316,0.21582,9.87867
671717165,21.71,0.0,0.0,0.0,0.32373,0.23544,9.87867
676767670,21.71,0.0,0.0,0.0,0.30411,0.26487,9.86886
681818175,21.71,0.0,0.0,0.0,0.30411,0.27468000000000004,9.86886
686868680,21.71,0.0,0.0,0.0,0.33354000000000006,0.26487,9.82962
691919185,21.71,0.0,0.0,0.0,0.33354000000000006,0.23544,9.86886
696969690,21.71,0.0,0.0,0.0,0.33354000000000006,0.21582,9.87867
702020195,21.71,0.0,0.0,0.0,0.34335000000000004,0.20601000000000003,9.84924
707070700,21.71,0.0,0.0,0.0,0.31392000000000003,0.25506,9.86886
712121205,21.71,0.0,0.0,0.0,0.32373,0.28449,9.87867
717171710,21.71,0.0,0.0,0.0,0.33354000000000006,0.27468000000000004,9.86886
722222215,21.71,0.0,0.0,0.0,0.33354000000000006,0.25506,9.888480000000001
727272720,21.71,0.0,0.0,0.0,0.2943,0.21582,9.87867
732323225,21.71,0.0,0.0,0.0,0.2943,0.20601000000000003,9.85905
737373730,21.71,0.0,0.0,0.0,0.31392000000000003,0.22563,9.87867
742424235,21.71,0.0,0.0,0.0,0.33354000000000006,0.25506,9.87867
747474740,21.71,0.0,0.0,0.0,0.35316,0.25506,9.87867
752525245,21.71,0.0,0.0,0.0,0.35316,0.27468000000000004,9.87867
757575750,21.71,0.0,0.0,0.0,0.35316,0.22563,9.87867
762626255,21.71,0.0,0.0,0.0,0.30411,0.23544,9.85905
767676760,21.71,0.0,0.0,0.0,0.30411,0.22563,9.87867
772727265,21.71,0.0,0.0,0.0,0.31392000000000003,0.24525000000000002,9.83943
777777770,21.71,0.0,0.0,0.0,0.34335000000000004,0.26487,9.888480000000001
782828275,21.71,0.0,0.0,0.0,0.35316,0.2943,9.888480000000001
787878780,21.71,0.0,0.0,0.0,0.33354000000000006,0.25506,9.87867
792929285,21.71,0.0,0.0,0.0,0.33354000000000006,0.21582,9.87867
797979790,21.71,0.0,0.0,0.0,0.34335000000000004,0.25506,9.86886
803030295,21.71,0.0,0.0,0.0,0.34335000000000004,0.22563,9.87867
808080800,21.71,0.0,0.0,0.0,0.33354000000000006,0.26487,9.87867
813131305,21.71,0.0,0.0,0.0,0.33354000000000006,0.26487,9.86886
818181810,21.71,0.0,0.0,0.0,0.31392000000000003,0.23544,9.85905
823232315,21.71,0.0,0.0,0.0,0.33354000000000006,0.25506,9.85905
828282820,21.71,0.0,0.0,0.0,0.32373,0.24525000000000002,9.888480000000001
833333325,21.71,0.0,0.0,0.0,0.33354000000000006,0.21582,9.85905
838383830,21.71,0.0,0.0,0.0,0.33354000000000006,0.26487,9.89829
843434335,21.71,0.0,0.0,0.0,0.32373,0.27468000000000004,9.86886
848484840,21.71,0.0,0.0,0.0,0.32373,0.26487,9.86886
853535345,21.71,0.0,0.0,0.0,0.35316,0.25506,9.83943
858585850,21.71,0.0,0.0,0.0,0.33354000000000006,0.20601000000000003,9.84924
863636355,21.71,0.0,0.0,0.0,0.33354000000000006,0.23544,9.87867
868686860,21.71,0.0,0.0,0.0,0.31392000000000003,0.25506,9.84924
873737365,21.71,0.0,0.0,0.0,0.31392000000000003,0.26487,9.87867
878787870,21.71,0.0,0.0,0.0,0.33354000000000006,0.27468000000000004,9.87867
883838375,21.71,0.0,0.0,0.0,0.33354000000000006,0.27468000000000004,9.87867
888888880,21.71,0.0,0.0,0.0,0.31392000000000003,0.25506,9.888480000000001
893939385,21.71,0.0,0.0,0.0,0.2943,0.22563,9.89829
898989890,21.71,0.0,0.0,0.0,0.33354000000000006,0.26487,9.84924
904040395,21.71,0.0,0.0,0.0,0.32373,0.23544,9.87867
909090900,21.71,0.0,0.0,0.0,0.32373,0.25506,9.84924
914141405,21.71,0.0,0.0,0.0,0.32373,0.27468000000000004,9.89829
919191910,21.71,0.0,0.0,0.0,0.32373,0.25506,9.86886
924242415,21.71,0.0,0.0,0.0,0.2943,0.24525000000000002,9.86886
929292920,21.71,0.0,0.0,0.0,0.31392000000000003,0.23544,9.888480000000001
934343425,21.71,0.0,0.0,0.0,0.30411,0.23544,9.85905
939393930,21.71,0.0,0.0,0.0,0.35316,0.25506,9.84924
944444435,21.71,0.0,0.0,0.0,0.34335000000000004,0.26487,9.83943
949494940,21.71,0.0,0.0,0.0,0.33354000000000006,0.24525000000000002,9.86886
954545445,21.71,0.0,0.0,0.0,0.31392000000000003,0.24525000000000002,9.86886
959595950,21.71,0.0,0.0,0.0,0.32373,0.22563,9.84924
964646455,21.71,0.0,0.0,0.0,0.31392000000000003,0.26487,9.87867
969696960,21.71,0.0,0.0,0.0,0.30411,0.25506,9.85905
974747465,21.71,0.0,0.0,0.0,0.33354000000000006,0.24525000000000002,9.83943
979797970,21.71,0.0,0.0,0.0,0.34335000000000004,0.22563,9.84924
984848475,21.71,0.0,0.0,0.0,0.33354000000000006,0.21582,9.87867
989898980,21.71,0.0,0.0,0.0,0.32373,0.24525000000000002,9.87867
994949485,21.71,0.0,0.0,0.0,0.33354000000000006,0.24525000000000002,9.89829
999999990,21.71,0.0,0.0,0.0,0.35316,0.25506,9.87867
1005050495,21.71,0.0,0.0,0.0,0.33354000000000006,0.27468000000000004,9.85905
1010101000,21.71,0.0,0.0,0.0,0.32373,0.28449,9.87867
1015151505,21.71,0.0,0.0,0.0,0.31392000000000003,0.23544,9.84924
1020202010,21.71,0.0,0.0,0.0,0.31392000000000003,0.22563,9.87867
1025252515,21.71,0.0,0.0,0.0,0.35316,0.25506,9.85905
1030303020,21.71,0.0,0.0,0.0,0.35316,0.25506,9.85905
1035353525,21.71,0.0,0.0,0.0,0.34335000000000004,0.24525000000000002,9.888480000000001
1040404030,21.71,0.0,0.0,0.0,0.34335000000000004,0.28449,9.87867
1045454535,21.71,0.0,0.0,0.0,0.33354000000000006,0.25506,9.84924
1050505040,21.71,0.0,0.0,0.0,0.30411,0.26487,9.86886
1055555545,21.71,0.0,0.0,0.0,0.30411,0.22563,9.83943
1060606050,21.71,0.0,0.0,0.0,0.31392000000000003,0.25506,9.888480000000001
1065656555,21.71,0.0,0.0,0.0,0.33354000000000006,0.27468000000000004,9.84924
1070707060,21.71,0.0,0.0,0.0,0.34335000000000004,0.26487,9.85905
1075757565,21.71,0.0,0.0,0.0,0.33354000000000006,0.25506,9.84924
1080808070,21.71,0.0,0.0,0.0,0.33354000000000006,0.24525000000000002,9.85905
1085858575,21.71,0.0,0.0,0.0,0.32373,0.22563,9.84924
1090909080,21.71,0.0,0.0,0.0,0.31392000000000003,0.23544,9.86886
1095959585,21.71,0.0,0.0,0.0,0.31392000000000003,0.23544,9.85905
1101010090,21.71,0.0,0.0,0.0,0.31392000000000003,0.22563,9.83943
1106060595,21.71,0.0,0.0,0.0,0.32373,0.24525000000000002,9.82962
1111111100,21.71,0.0,0.0,0.0,0.36297,0.23544,9.86886
1116161605,21.71,0.0,0.0,0.0,0.34335000000000004,0.25506,9.86886
1121212110,21.71,0.0,0.0,0.0,0.31392000000000003,0.24525000000000002,9.888480000000001
1126262615,21.71,0.0,0.0,0.0,0.33354000000000006,0.26487,9.83943
1131313120,21.71,0.0,0.0,0.0,0.31392000000000003,0.26487,9.86886
1136363625,21.71,0.0,0.0,0.0,0.32373,0.26487,9.85905
1141414130,21.71,0.0,0.0,0.0,0.34335000000000004,0.25506,9.86886
1146464635,21.71,0.0,0.0,0.0,0.33354000000000006,0.25506,9.85905
1151515140,21.71,0.0,0.0,0.0,0.33354000000000006,0.24525000000000002,9.84924
1156565645,21.71,0.0,0.0,0.0,0.35316,0.22563,9.86886
1161616150,21.71,0.0,0.0,0.0,0.34335000000000004,0.24525000000000002,9.85905
1166666655,21.71,0.0,0.0,0.0,0.33354000000000006,0.2943,9.86886
1171717160,21.71,0.0,0.0,0.0,0.32373,0.25506,9.84924
1176767665,21.71,0.0,0.0,0.0,0.32373,0.23544,9.888480000000001
1181818170,21.71,0.0,0.0,0.0,0.33354000000000006,0.22563,9.83943
1186868675,21.71,0.0,0.0,0.0,0.31392000000000003,0.25506,9.85905
1191919180,21.71,0.0,0.0,0.0,0.30411,0.24525000000000002,9.87867
1196969685,21.71,0.0,0.0,0.0,0.32373,0.25506,9.86886
1202020190,21.71,0.0,0.0,0.0,0.33354000000000006,0.24525000000000002,9.888480000000001
1207070695,21.71,0.0,0.0,0.0,0.32373,0.23544,9.85905
1212121200,21.71,0.0,0.0,0.0,0.28449,0.23544,9.87867
1217171705,21.71,0.0,0.0,0.0,0.34335000000000004,0.27468000000000004,9.84924
1222222210,21.71,0.0,0.0,0.0,0.35316,0.24525000000000002,9.84924
1227272715,21.71,0.0,0.0,0.0,0.32373,0.24525000000000002,9.86886
1232323220,21.71,0.0,0.0,0.0,0.32373,0.25506,9.86886
1237373725,21.71,0.0,0.0,0.0,0.34335000000000004,0.25506,9.888480000000001
1242424230,21.71,0.0,0.0,0.0,0.31392000000000003,0.22563,9.85905
1247474735,21.71,0.0,0.0,0.0,0.34335000000000004,0.28449,9.86886
1252525240,21.71,0.0,0.0,0.0,0.33354000000000006,0.24525000000000002,9.85905
1257575745,21.71,0.0,0.0,0.0,0.34335000000000004,0.25506,9.84924
1262626250,21.71,0.0,0.0,0.0,0.2943,0.25506,9.908100000000001
1267676755,21.71,0.0,0.0,0.0,0.31392000000000003,0.24525000000000002,9.85905
1272727260,21.71,0.0,0.0,0.0,0.32373,0.21582,9.86886
1277777765,21.71,0.0,0.0,0.0,0.30411,0.26487,9.87867
1282828270,21.71,0.0,0.0,0.0,0.34335000000000004,0.26487,9.84924
1287878775,21.71,0.0,0.0,0.0,0.35316,0.2943,9.86886
1292929280,21.71,0.0,0.0,0.0,0.33354000000000006,0.24525000000000002,9.87867
1297979785,21.71,0.0,0.0,0.0,0.30411,0.24525000000000002,9.85905
1303030290,21.71,0.0,0.0,0.0,0.33354000000000006,0.24525000000000002,9.82962
1308080795,21.71,0.0,0.0,0.0,0.31392000000000003,0.21582,9.86886
1313131300,21.71,0.0,0.0,0.0,0.30411,0.21582,9.85905
1318181805,21.71,0.0,0.0,0.0,0.36297,0.25506,9.87867
1323232310,21.71,0.0,0.0,0.0,0.34335000000000004,0.26487,9.888480000000001
1328282815,21.71,0.0,0.0,0.0,0.31392000000000003,0.2943,9.83943
1333333320,21.71,0.0,0.0,0.0,0.32373,0.24525000000000002,9.87867
1338383825,21.71,0.0,0.0,0.0,0.32373,0.21582,9.86886
1343434330,21.71,0.0,0.0,0.0,0.30411,0.23544,9.89829
1348484835,21.71,0.0,0.0,0.0,0.31392000000000003,0.24525000000000002,9.86886
1353535340,21.71,0.0,0.0,0.0,0.36297,0.25506,9.84924
1358585845,21.71,0.0,0.0,0.0,0.34335000000000004,0.23544,9.87867
1363636350,21.71,0.0,0.0,0.0,0.30411,0.26487,9.84924
1368686855,21.71,0.0,0.0,0.0,0.31392000000000003,0.23544,9.85905
1373737360,21.71,0.0,0.0,0.0,0.36297,0.23544,9.87867
1378787865,21.71,0.0,0.0,0.0,0.35316,0.25506,9.87867
1383838370,21.71,0.0,0.0,0.0,0.33354000000000006,0.28449,9.87867
1388888875,21.71,0.0,0.0,0.0,0.33354000000000006,0.26487,9.86886
1393939380,21.71,0.0,0.0,0.0,0.30411,0.24525000000000002,9.84924
1398989885,21.71,0.0,0.0,0.0,0.31392000000000003,0.24525000000000002,9.89829
1404040390,21.71,0.0,0.0,0.0,0.31392000000000003,0.23544,9.83943
1409090895,21.71,0.0,0.0,0.0,0.32373,0.23544,9.87867
1414141400,21.71,0.0,0.0,0.0,0.33354000000000006,0.26487,9.86886
1419191905,21.71,0.0,0.0,0.0,0.34335000000000004,0.28449,9.85905
1424242410,21.71,0.0,0.0,0.0,0.32373,0.26487,9.86886
1429292915,21.71,0.0,0.0,0.0,0.31392000000000003,0.24525000000000002,9.86886
1434343420,21.71,0.0,0.0,0.0,0.33354000000000006,0.22563,9.87867
1439393925,21.71,0.0,0.0,0.0,0.32373,0.22563,9.89829
1444444430,21.71,0.0,0.0,0.0,0.33354000000000006,0.25506,9.86886
1449494935,21.71,0.0,0.0,0.0,0.35316,0.2943,9.888480000000001
1454545440,21.71,0.0,0.0,0.0,0.32373,0.26487,9.87867
1459595945,21.71,0.0,0.0,0.0,0.33354000000000006,0.22563,9.83943
1464646450,21.71,0.0,0.0,0.0,0.34335000000000004,0.25506,9.84924
1469696955,21.71,0.0,0.0,0.0,0.2943,0.22563,9.83943
1474747460,21.71,0.0,0.0,0.0,0.34335000000000004,0.22563,9.87867
1479797965,21.71,0.0,0.0,0.0,0.33354000000000006,0.21582,9.85905
1484848470,21.71,0.0,0.0,0.0,0.32373,0.27468000000000004,9.86886
1489898975,21.71,0.0,0.0,0.0,0.31392000000000003,0.26487,9.86886
1494949480,21.71,0.0,0.0,0.0,0.31392000000000003,0.25506,9.86886
1499999985,21.71,0.0,0.0,0.0,0.33354000000000006,0.24525000000000002,9.908100000000001
1505050490,21.71,0.0,0.0,0.0,0.34335000000000004,0.22563,9.84924
1510100995,21.71,0.0,0.0,0.0,0.33354000000000006,0.22563,9.84924
1515151500,21.71,0.0,0.0,0.0,0.31392000000000003,0.25506,9.84924
1520202005,21.71,0.0,0.0,0.0,0.35316,0.27468000000000004,9.83943
1525252510,21.71,0.0,0.0,0.0,0.33354000000000006,0.24525000000000002,9.888480000000001
1530303015,21.71,0.0,0.0,0.0,0.34335000000000004,0.22563,9.85905
1535353520,21.71,0.0,0.0,0.0,0.31392000000000003,0.25506,9.86886
1540404025,21.71,0.0,0.0,0.0,0.2943,0.26487,9.89829
1545454530,21.71,0.0,0.0,0.0,0.31392000000000003,0.24525000000000002,9.888480000000001
1550505035,21.71,0.0,0.0,0.0,0.33354000000000006,0.26487,9.87867
1555555540,21.71,0.0,0.0,0.0,0.37278,0.26487,9.84924
1560606045,21.71,0.0,0.0,0.0,0.34335000000000004,0.23544,9.86886
1565656550,21.71,0.0,0.0,0.0,0.34335000000000004,0.23544,9.888480000000001
1570707055,21.71,0.0,0.0,0.0,0.31392000000000003,0.23544,9.87867
1575757560,21.71,0.0,0.0,0.0,0.32373,0.28449,9.86886
1580808065,21.71,0.0,0.0,0.0,0.31392000000000003,0.26487,9.87867
1585858570,21.71,0.0,0.0,0.0,0.33354000000000006,0.26487,9.83943
1590909075,21.71,0.0,0.0,0.0,0.34335000000000004,0.20601000000000003,9.84924
1595959580,21.71,0.0,0.0,0.0,0.31392000000000003,0.1962,9.86886
1601010085,21.71,0.0,0.0,0.0,0.30411,0.24525000000000002,9.85905
1606060590,21.71,0.0,0.0,0.0,0.32373,0.24525000000000002,9.85905
1611111095,21.71,0.0,0.0,0.0,0.35316,0.24525000000000002,9.86886
1616161600,21.71,0.0,0.0,0.0,0.38259000000000004,0.2943,9.85905
1621212105,21.71,0.0,0.0,0.0,0.33354000000000006,0.26487,9.87867
1626262610,21.71,0.0,0.0,0.0,0.32373,0.23544,9.86886
1631313115,21.71,0.0,0.0,0.0,0.32373,0.21582,9.85905
1636363620,21.71,0.0,0.0,0.0,0.32373,0.22563,9.86886
1641414125,21.71,0.0,0.0,0.0,0.33354000000000006,0.25506,9.86886
1646464630,21.71,0.0,0.0,0.0,0.35316,0.25506,9.85905
1651515135,21.71,0.0,0.0,0.0,0.35316,0.2943,9.83943
1656565640,21.71,0.0,0.0,0.0,0.34335000000000004,0.25506,9.83943
1661616145,21.71,0.0,0.0,0.0,0.31392000000000003,0.20601000000000003,9.89829
1666666650,21.71,0.0,0.0,0.0,0.32373,0.21582,9.84924
1671717155,21.71,0.0,0.0,0.0,0.30411,0.24525000000000002,9.85905
1676767660,21.71,0.0,0.0,0.0,0.32373,0.24525000000000002,9.86886
1681818165,21.71,0.0,0.0,0.0,0.30411,0.24525000000000002,9.888480000000001
1686868670,21.71,0.0,0.0,0.0,0.31392000000000003,0.28449,9.86886
1691919175,21.71,0.0,0.0,0.0,0.34335000000000004,0.24525000000000002,9.888480000000001
1696969680,21.71,0.0,0.0,0.0,0.34335000000000004,0.24525000000000002,9.908100000000001
1702020185,21.71,0.0,0.0,0.0,0.34335000000000004,0.23544,9.86886
1707070690,21.71,0.0,0.0,0.0,0.31392000000000003,0.25506,9.86886
1712121195,21.71,0.0,0.0,0.0,0.32373,0.25506,9.85905
1717171700,21.71,0.0,0.0,0.0,0.33354000000000006,0.24525000000000002,9.84924
1722222205,21.71,0.0,0.0,0.0,0.32373,0.24525000000000002,9.85905
1727272710,21.71,0.0,0.0,0.0,0.34335000000000004,0.21582,9.87867
1732323215,21.71,0.0,0.0,0.0,0.34335000000000004,0.23544,9.85905
1737373720,21.71,0.0,0.0,0.0,0.33354000000000006,0.23544,9.888480000000001
1742424225,21.71,0.0,0.0,0.0,0.33354000000000006,0.25506,9.87867
1747474730,21.71,0.0,0.0,0.0,0.33354000000000006,0.27468000000000004,9.86886
1752525235,21.71,0.0,0.0,0.0,0.32373,0.24525000000000002,9.87867
1757575740,21.71,0.0,0.0,0.0,0.34335000000000004,0.24525000000000002,9.85905
1762626245,21.71,0.0,0.0,0.0,0.33354000000000006,0.20601000000000003,9.85905
1767676750,21.71,0.0,0.0,0.0,0.33354000000000006,0.25506,9.85905
1772727255,21.71,0.0,0.0,0.0,0.31392000000000003,0.23544,9.85905
1777777760,21.71,0.0,0.0,0.0,0.32373,0.24525000000000002,9.84924
1782828265,21.71,0.0,0.0,0.0,0.32373,0.25506,9.888480000000001
1787878770,21.71,0.0,0.0,0.0,0.34335000000000004,0.27468000000000004,9.86886
1792929275,21.71,0.0,0.0,0.0,0.33354000000000006,0.23544,9.86886
1797979780,21.71,0.0,0.0,0.0,0.33354000000000006,0.24525000000000002,9.85905
1803030285,21.71,0.0,0.0,0.0,0.31392000000000003,0.26487,9.84924
1808080790,21.71,0.0,0.0,0.0,0.31392000000000003,0.26487,9.86886
1813131295,21.71,0.0,0.0,0.0,0.35316,0.24525000000000002,9.85905
1818181800,21.71,0.0,0.0,0.0,0.35316,0.26487,9.86886
1823232305,21.71,0.0,0.0,0.0,0.33354000000000006,0.24525000000000002,9.85905
1828282810,21.71,0.0,0.0,0.0,0.33354000000000006,0.25506,9.888480000000001
1833333315,21.71,0.0,0.0,0.0,0.32373,0.23544,9.85905
1838383820,21.71,0.0,0.0,0.0,0.32373,0.25506,9.87867
1843434325,21.71,0.0,0.0,0.0,0.34335000000000004,0.21582,9.85905
1848484830,21.71,0.0,0.0,0.0,0.34335000000000004,0.23544,9.85905
1853535335,21.71,0.0,0.0,0.0,0.32373,0.22563,9.908100000000001
1858585840,21.71,0.0,0.0,0.0,0.30411,0.25506,9.86886
1863636345,21.71,0.0,0.0,0.0,0.32373,0.26487,9.87867
1868686850,21.71,0.0,0.0,0.0,0.34335000000000004,0.28449,9.85905
1873737355,21.71,0.0,0.0,0.0,0.30411,0.26487,9.85905
1878787860,21.71,0.0,0.0,0.0,0.33354000000000006,0.26487,9.85905
1883838365,21.71,0.0,0.0,0.0,0.31392000000000003,0.24525000000000002,9.86886
1888888870,21.71,0.0,0.0,0.0,0.33354000000000006,0.22563,9.86886
1893939375,21.71,0.0,0.0,0.0,0.34335000000000004,0.28449,9.83943
1898989880,21.71,0.0,0.0,0.0,0.33354000000000006,0.25506,9.91791
1904040385,21.71,0.0,0.0,0.0,0.33354000000000006,0.27468000000000004,9.87867
1909090890,21.71,0.0,0.0,0.0,0.31392000000000003,0.24525000000000002,9.86886
1914141395,21.71,0.0,0.0,0.0,0.31392000000000003,0.25506,9.83943
1919191900,21.71,0.0,0.0,0.0,0.31392000000000003,0.25506,9.87867
1924242405,21.71,0.0,0.0,0.0,0.32373,0.23544,9.84924
1929292910,21.71,0.0,0.0,0.0,0.32373,0.24525000000000002,9.86886
1934343415,21.71,0.0,0.0,0.0,0.33354000000000006,0.26487,9.888480000000001
1939393920,21.71,0.0,0.0,0.0,0.33354000000000006,0.25506,9.87867
1944444425,21.71,0.0,0.0,0.0,0.31392000000000003,0.24525000000000002,9.87867
1949494930,21.71,0.0,0.0,0.0,0.33354000000000006,0.22563,9.85905
1954545435,21.71,0.0,0.0,0.0,0.35316,0.2943,9.87867
1959595940,21.71,0.0,0.0,0.0,0.31392000000000003,0.27468000000000004,9.87867
1964646445,21.71,0.0,0.0,0.0,0.32373,0.27468000000000004,9.85905
1969696950,21.71,0.0,0.0,0.0,0.30411,0.26487,9.888480000000001
1974747455,21.71,0.0,0.0,0.0,0.32373,0.22563,9.85905
1979797960,21.71,0.0,0.0,0.0,0.36297,0.24525000000000002,9.89829
1984848465,21.71,0.0,0.0,0.0,0.32373,0.23544,9.85905
1989898970,21.71,0.0,0.0,0.0,0.32373,0.25506,9.87867
1994949475,21.71,0.0,0.0,0.0,0.32373,0.25506,9.83943
1999999980,21.71,0.0,0.0,0.0,0.32373,0.24525000000000002,9.85905
2005050485,21.71,0.0,0.0,0.0,0.36297,0.24525000000000002,9.86886
2010100990,21.71,0.0,0.0,0.0,0.31392000000000003,0.25506,9.888480000000001
2015151495,21.71,0.0,0.0,0.0,0.31392000000000003,0.24525000000000002,9.86886
2020202000,21.71,0.0,0.0,0.0,0.31392000000000003,0.24525000000000002,9.87867
2025252505,21.71,0.0,0.0,0.0,0.31392000000000003,0.24525000000000002,9.84924
2030303010,21.71,0.0,0.0,0.0,0.31392000000000003,0.25506,9.86886
2035353515,21.71,0.0,0.0,0.0,0.32373,0.24525000000000002,9.87867
2040404020,21.71,0.0,0.0,0.0,0.34335000000000004,0.25506,9.86886
2045454525,21.71,0.0,0.0,0.0,0.32373,0.22563,9.85905
2050505030,21.71,0.0,0.0,0.0,0.33354000000000006,0.24525000000000002,9.85905
2055555535,21.71,0.0,0.0,0.0,0.32373,0.23544,9.84924
2060606040,21.71,0.0,0.0,0.0,0.32373,0.23544,9.84924
2065656545,21.71,0.0,0.0,0.0,0.36297,0.24525000000000002,9.89829
2070707050,21.71,0.0,0.0,0.0,0.32373,0.23544,9.87867
2075757555,21.71,0.0,0.0,0.0,0.33354000000000006,0.25506,9.87867
2080808060,21.71,0.0,0.0,0.0,0.32373,0.22563,9.85905
2085858565,21.71,0.0,0.0,0.0,0.31392000000000003,0.25506,9.85905
2090909070,21.71,0.0,0.0,0.0,0.35316,0.26487,9.84924
2095959575,21.71,0.0,0.0,0.0,0.33354000000000006,0.24525000000000002,9.86886
2101010080,21.71,0.0,0.0,0.0,0.34335000000000004,0.24525000000000002,9.86886
2106060585,21.71,0.0,0.0,0.0,0.32373,0.23544,9.85905
2111111090,21.71,0.0,0.0,0.0,0.32373,0.23544,9.87867
2116161595,21.71,0.0,0.0,0.0,0.32373,0.2943,9.87867
2121212100,21.71,0.0,0.0,0.0,0.32373,0.28449,9.86886
2126262605,21.71,0.0,0.0,0.0,0.34335000000000004,0.23544,9.85905
2131313110,21.71,0.0,0.0,0.0,0.36297,0.24525000000000002,9.87867
2136363615,21.71,0.0,0.0,0.0,0.32373,0.26487,9.87867
2141414120,21.71,0.0,0.0,0.0,0.32373,0.22563,9.86886
2146464625,21.71,0.0,0.0,0.0,0.33354000000000006,0.23544,9.85905
2151515130,21.71,0.0,0.0,0.0,0.35316,0.25506,9.888480000000001
2156565635,21.71,0.0,0.0,0.0,0.33354000000000006,0.27468000000000004,9.87867
2161616140,21.71,0.0,0.0,0.0,0.31392000000000003,0.28449,9.82962
2166666645,21.71,0.0,0.0,0.0,0.30411,0.26487,9.85905
2171717150,21.71,0.0,0.0,0.0,0.33354000000000006,0.22563,9.87867
2176767655,21.71,0.0,0.0,0.0,0.31392000000000003,0.21582,9.86886
2181818160,21.71,0.0,0.0,0.0,0.32373,0.22563,9.85905
2186868665,21.71,0.0,0.0,0.0,0.33354000000000006,0.26487,9.86886
2191919170,21.71,0.0,0.0,0.0,0.32373,0.28449,9.86886
2196969675,21.71,0.0,0.0,0.0,0.33354000000000006,0.28449,9.83943
2202020180,21.71,0.0,0.0,0.0,0.32373,0.22563,9.85905
2207070685,21.71,0.0,0.0,0.0,0.33354000000000006,0.22563,9.86886
2212121190,21.71,0.0,0.0,0.0,0.32373,0.20601000000000003,9.87867
2217171695,21.71,0.0,0.0,0.0,0.34335000000000004,0.25506,9.86886
2222222200,21.71,0.0,0.0,0.0,0.32373,0.26487,9.86886
2227272705,21.71,0.0,0.0,0.0,0.33354000000000006,0.27468000000000004,9.888480000000001
2232323210,21.71,0.0,0.0,0.0,0.30411,0.25506,9.888480000000001
2237373715,21.71,0.0,0.0,0.0,0.31392000000000003,0.22563,9.86886
2242424220,21.71,0.0,0.0,0.0,0.31392000000000003,0.23544,9.85905
2247474725,21.71,0.0,0.0,0.0,0.31392000000000003,0.24525000000000002,9.888480000000001
2252525230,21.71,0.0,0.0,0.0,0.34335000000000004,0.26487,9.87867
2257575735,21.71,0.0,0.0,0.0,0.33354000000000006,0.26487,9.85905
2262626240,21.71,0.0,0.0,0.0,0.35316,0.24525000000000002,9.86886
2267676745,21.71,0.0,0.0,0.0,0.30411,0.23544,9.84924
2272727250,21.71,0.0,0.0,0.0,0.32373,0.26487,9.87867
2277777755,21.71,0.0,0.0,0.0,0.31392000000000003,0.22563,9.87867
2282828260,21.71,0.0,0.0,0.0,0.33354000000000006,0.25506,9.85905
2287878765,21.71,0.0,0.0,0.0,0.33354000000000006,0.26487,9.84924
2292929270,21.71,0.0,0.0,0.0,0.35316,0.26487,9.85905
2297979775,21.71,0.0,0.0,0.0,0.32373,0.22563,9.85905
2303030280,21.71,0.0,0.0,0.0,0.34335000000000004,0.22563,9.86886
2308080785,21.71,0.0,0.0,0.0,0.32373,0.23544,9.84924
2313131290,21.71,0.0,0.0,0.0,0.31392000000000003,0.24525000000000002,9.888480000000001
2318181795,21.71,0.0,0.0,0.0,0.30411,0.24525000000000002,9.87867
2323232300,21.71,0.0,0.0,0.0,0.32373,0.28449,9.85905
2328282805,21.71,0.0,0.0,0.0,0.31392000000000003,0.28449,9.84924
2333333310,21.71,0.0,0.0,0.0,0.36297,0.25506,9.83943
2338383815,21.71,0.0,0.0,0.0,0.33354000000000006,0.23544,9.89829
2343434320,21.71,0.0,0.0,0.0,0.32373,0.24525000000000002,9.86886
2348484825,21.71,0.0,0.0,0.0,0.32373,0.26487,9.87867
2353535330,21.71,0.0,0.0,0.0,0.31392000000000003,0.24525000000000002,9.84924
2358585835,21.71,0.0,0.0,0.0,0.35316,0.27468000000000004,9.86886
2363636340,21.71,0.0,0.0,0.0,0.35316,0.23544,9.888480000000001
2368686845,21.71,0.0,0.0,0.0,0.30411,0.25506,9.86886
2373737350,21.71,0.0,0.0,0.0,0.31392000000000003,0.23544,9.87867
2378787855,21.71,0.0,0.0,0.0,0.32373,0.23544,9.87867
2383838360,21.71,0.0,0.0,0.0,0.33354000000000006,0.25506,9.87867
2388888865,21.71,0.0,0.0,0.0,0.32373,0.25506,9.888480000000001
2393939370,21.71,0.0,0.0,0.0,0.36297,0.27468000000000004,9.86886
2398989875,21.71,0.0,0.0,0.0,0.33354000000000006,0.27468000000000004,9.87867
2404040380,21.71,0.0,0.0,0.0,0.33354000000000006,0.23544,9.888480000000001
2409090885,21.71,0.0,0.0,0.0,0.31392000000000003,0.25506,9.86886
2414141390,21.71,0.0,0.0,0.0,0.34335000000000004,0.25506,9.87867
2419191895,21.71,0.0,0.0,0.0,0.34335000000000004,0.25506,9.87867
2424242400,21.71,0.0,0.0,0.0,0.35316,0.25506,9.84924
2429292905,21.71,0.0,0.0,0.0,0.36297,0.23544,9.888480000000001
2434343410,21.71,0.0,0.0,0.0,0.32373,0.25506,9.87867
2439393915,21.71,0.0,0.0,0.0,0.33354000000000006,0.23544,9.86886
2444444420,21.71,0.0,0.0,0.0,0.34335000000000004,0.26487,9.87867
2449494925,21.71,0.0,0.0,0.0,0.34335000000000004,0.28449,9.85905
2454545430,21.71,0.0,0.0,0.0,0.36297,0.21582,9.85905
2459595935,21.71,0.0,0.0,0.0,0.30411,0.23544,9.87867
2464646440,21.71,0.0,0.0,0.0,0.2943,0.22563,9.86886
2469696945,21.71,0.0,0.0,0.0,0.33354000000000006,0.22563,9.888480000000001
2474747450,21.71,0.0,0.0,0.0,0.33354000000000006,0.26487,9.908100000000001
2479797955,21.71,0.0,0.0,0.0,0.34335000000000004,0.26487,9.87867
2484848460,21.71,0.0,0.0,0.0,0.33354000000000006,0.25506,9.86886
2489898965,21.71,0.0,0.0,0.0,0.32373,0.24525000000000002,9.86886
2494949470,21.71,0.0,0.0,0.0,0.31392000000000003,0.22563,9.85905
2499999975,21.71,0.0,0.0,0.0,0.32373,0.22563,9.81
2505050480,21.71,0.0,0.0,0.0,0.34335000000000004,0.23544,9.86886
2510100985,21.71,0.0,0.0,0.0,0.34335000000000004,0.25506,9.87867
2515151490,21.71,0.0,0.0,0.0,0.31392000000000003,0.26487,9.85905
2520201995,21.71,0.0,0.0,0.0,0.31392000000000003,0.24525000000000002,9.87867
2525252500,21.71,0.0,0.0,0.0,0.28449,0.25506,9.87867
2530303005,21.71,0.0,0.0,0.0,0.31392000000000003,0.24525000000000002,9.84924
2535353510,21.71,0.0,0.0,0.0,0.32373,0.23544,9.85905
2540404015,21.71,0.0,0.0,0.0,0.33354000000000006,0.26487,9.87867
2545454520,21.71,0.0,0.0,0.0,0.35316,0.25506,9.87867
2550505025,21.71,0.0,0.0,0.0,0.31392000000000003,0.24525000000000002,9.86886
2555555530,21.71,0.0,0.0,0.0,0.32373,0.25506,9.86886
2560606035,21.71,0.0,0.0,0.0,0.32373,0.23544,9.85905
2565656540,21.71,0.0,0.0,0.0,0.33354000000000006,0.24525000000000002,9.86886
2570707045,21.71,0.0,0.0,0.0,0.32373,0.25506,9.85905
2575757550,21.71,0.0,0.0,0.0,0.31392000000000003,0.25506,9.86886
2580808055,21.71,0.0,0.0,0.0,0.31392000000000003,0.24525000000000002,9.83943
2585858560,21.71,0.0,0.0,0.0,0.32373,0.21582,9.86886
2590909065,21.71,0.0,0.0,0.0,0.33354000000000006,0.24525000000000002,9.87867
2595959570,21.71,0.0,0.0,0.0,0.32373,0.26487,9.84924
2601010075,21.71,0.0,0.0,0.0,0.35316,0.2943,9.87867
2606060580,21.71,0.0,0.0,0.0,0.30411,0.25506,9.86886
2611111085,21.71,0.0,0.0,0.0,0.30411,0.21582,9.84924
2616161590,21.71,0.0,0.0,0.0,0.2943,0.24525000000000002,9.87867
2621212095,21.71,0.0,0.0,0.0,0.32373,0.24525000000000002,9.84924
2626262600,21.71,0.0,0.0,0.0,0.35316,0.23544,9.85905
2631313105,21.71,0.0,0.0,0.0,0.34335000000000004,0.23544,9.84924
2636363610,21.71,0.0,0.0,0.0,0.31392000000000003,0.24525000000000002,9.87867
2641414115,21.71,0.0,0.0,0.0,0.33354000000000006,0.24525000000000002,9.86886
2646464620,21.71,0.0,0.0,0.0,0.32373,0.24525000000000002,9.86886
2651515125,21.71,0.0,0.0,0.0,0.31392000000000003,0.26487,9.83943
2656565630,21.71,0.0,0.0,0.0,0.34335000000000004,0.22563,9.86886
2661616135,21.71,0.0,0.0,0.0,0.33354000000000006,0.24525000000000002,9.85905
2666666640,21.71,0.0,0.0,0.0,0.32373,0.26487,9.84924
2671717145,21.71,0.0,0.0,0.0,0.32373,0.28449,9.888480000000001
2676767650,21.71,0.0,0.0,0.0,0.32373,0.26487,9.86886
2681818155,21.71,0.0,0.0,0.0,0.30411,0.25506,9.87867
2686868660,21.71,0.0,0.0,0.0,0.28449,0.21582,9.87867
2691919165,21.71,0.0,0.0,0.0,0.31392000000000003,0.24525000000000002,9.85905
2696969670,21.71,0.0,0.0,0.0,0.31392000000000003,0.27468000000000004,9.82962
2702020175,21.71,0.0,0.0,0.0,0.34335000000000004,0.25506,9.888480000000001
2707070680,21.71,0.0,0.0,0.0,0.32373,0.26487,9.84924
2712121185,21.71,0.0,0.0,0.0,0.32373,0.23544,9.87867
2717171690,21.71,0.0,0.0,0.0,0.33354000000000006,0.21582,9.85905
2722222195,21.71,0.0,0.0,0.0,0.32373,0.24525000000000002,9.84924
2727272700,21.71,0.0,0.0,0.0,0.33354000000000006,0.26487,9.888480000000001
2732323205,21.71,0.0,0.0,0.0,0.33354000000000006,0.28449,9.83943
2737373710,21.71,0.0,0.0,0.0,0.31392000000000003,0.2943,9.85905
2742424215,21.71,0.0,0.0,0.0,0.30411,0.23544,9.89829
2747474720,21.71,0.0,0.0,0.0,0.31392000000000003,0.20601000000000003,9.84924
2752525225,21.71,0.0,0.0,0.0,0.31392000000000003,0.1962,9.87867
2757575730,21.71,0.0,0.0,0.0,0.35316,0.24525000000000002,9.86886
2762626235,21.71,0.0,0.0,0.0,0.33354000000000006,0.26487,9.888480000000001
2767676740,21.71,0.0,0.0,0.0,0.33354000000000006,0.2943,9.86886
2772727245,21.71,0.0,0.0,0.0,0.33354000000000006,0.30411,9.85905
2777777750,21.71,0.0,0.0,0.0,0.31392000000000003,0.23544,9.86886
2782828255,21.71,0.0,0.0,0.0,0.31392000000000003,0.1962,9.888480000000001
2787878760,21.71,0.0,0.0,0.0,0.30411,0.22563,9.87867
2792929265,21.71,0.0,0.0,0.0,0.35316,0.27468000000000004,9.85905
2797979770,21.71,0.0,0.0,0.0,0.33354000000000006,0.26487,9.87867
2803030275,21.71,0.0,0.0,0.0,0.33354000000000006,0.27468000000000004,9.85905
2808080780,21.71,0.0,0.0,0.0,0.33354000000000006,0.2943,9.84924
2813131285,21.71,0.0,0.0,0.0,0.31392000000000003,0.26487,9.86886
2818181790,21.71,0.0,0.0,0.0,0.32373,0.21582,9.86886
2823232295,21.71,0.0,0.0,0.0,0.31392000000000003,0.25506,9.87867
2828282800,21.71,0.0,0.0,0.0,0.34335000000000004,0.23544,9.85905
2833333305,21.71,0.0,0.0,0.0,0.35316,0.28449,9.86886
2838383810,21.71,0.0,0.0,0.0,0.33354000000000006,0.26487,9.85905
2843434315,21.71,0.0,0.0,0.0,0.32373,0.23544,9.89829
2848484820,21.71,0.0,0.0,0.0,0.33354000000000006,0.26487,9.86886
2853535325,21.71,0.0,0.0,0.0,0.31392000000000003,0.23544,9.87867
2858585830,21.71,0.0,0.0,0.0,0.33354000000000006,0.26487,9.84924
2863636335,21.71,0.0,0.0,0.0,0.31392000000000003,0.26487,9.86886
2868686840,21.71,0.0,0.0,0.0,0.30411,0.27468000000000004,9.87867
2873737345,21.71,0.0,0.0,0.0,0.33354000000000006,0.28449,9.87867
2878787850,21.71,0.0,0.0,0.0,0.31392000000000003,0.23544,9.87867
2883838355,21.71,0.0,0.0,0.0,0.33354000000000006,0.21582,9.85905
2888888860,21.71,0.0,0.0,0.0,0.32373,0.22563,9.85905
2893939365,21.71,0.0,0.0,0.0,0.32373,0.26487,9.85905
2898989870,21.71,0.0,0.0,0.0,0.33354000000000006,0.25506,9.87867
2904040375,21.71,0.0,0.0,0.0,0.35316,0.26487,9.84924
2909090880,21.71,0.0,0.0,0.0,0.34335000000000004,0.23544,9.85905
2914141385,21.71,0.0,0.0,0.0,0.31392000000000003,0.20601000000000003,9.85905
2919191890,21.71,0.0,0.0,0.0,0.33354000000000006,0.21582,9.87867
2924242395,21.71,0.0,0.0,0.0,0.33354000000000006,0.24525000000000002,9.888480000000001
2929292900,21.71,0.0,0.0,0.0,0.37278,0.26487,9.84924
2934343405,21.71,0.0,0.0,0.0,0.32373,0.28449,9.84924
2939393910,21.71,0.0,0.0,0.0,0.34335000000000004,0.23544,9.888480000000001
2944444415,21.71,0.0,0.0,0.0,0.2943,0.21582,9.83943
2949494920,21.71,0.0,0.0,0.0,0.30411,0.22563,9.87867
2954545425,21.71,0.0,0.0,0.0,0.31392000000000003,0.25506,9.84924
2959595930,21.71,0.0,0.0,0.0,0.36297,0.26487,9.84924
2964646435,21.71,0.0,0.0,0.0,0.35316,0.26487,9.89829
2969696940,21.71,0.0,0.0,0.0,0.32373,0.27468000000000004,9.86886
2974747445,21.71,0.0,0.0,0.0,0.32373,0.24525000000000002,9.85905
2979797950,21.71,0.0,0.0,0.0,0.32373,0.25506,9.888480000000001
2984848455,21.71,0.0,0.0,0.0,0.33354000000000006,0.22563,9.85905
2989898960,21.71,0.0,0.0,0.0,0.33354000000000006,0.24525000000000002,9.87867
2994949465,21.71,0.0,0.0,0.0,0.33354000000000006,0.25506,9.85905
2999999970,21.71,0.0,0.0,0.0,0.31392000000000003,0.25506,9.85905
3005050475,21.71,0.0,0.0,0.0,0.32373,0.25506,9.86886
3010100980,21.71,0.0,0.0,0.0,0.32373,0.23544,9.888480000000001
3015151485,21.71,0.0,0.0,0.0,0.2943,0.23544,9.86886
3020201990,21.71,0.0,0.0,0.0,0.31392000000000003,0.24525000000000002,9.86886
3025252495,21.71,0.0,0.0,0.0,0.31392000000000003,0.25506,9.84924
3030303000,21.71,0.0,0.0,0.0,0.31392000000000003,0.25506,9.82962
3035353505,21.71,0.0,0.0,0.0,0.34335000000000004,0.27468000000000004,9.83943
3040404010,21.71,0.0,0.0,0.0,0.32373,0.25506,9.86886
3045454515,21.71,0.0,0.0,0.0,0.31392000000000003,0.21582,9.87867
3050505020,21.71,0.0,0.0,0.0,0.30411,0.23544,9.908100000000001
3055555525,21.71,0.0,0.0,0.0,0.32373,0.27468000000000004,9.87867
3060606030,21.71,0.0,0.0,0.0,0.32373,0.26487,9.86886
3065656535,21.71,0.0,0.0,0.0,0.32373,0.25506,9.86886
3070707040,21.71,0.0,0.0,0.0,0.36297,0.22563,9.84924
3075757545,21.71,0.0,0.0,0.0,0.34335000000000004,0.22563,9.85905
3080808050,21.71,0.0,0.0,0.0,0.34335000000000004,0.23544,9.888480000000001
3085858555,21.71,0.0,0.0,0.0,0.34335000000000004,0.23544,9.888480000000001
3090909060,21.71,0.0,0.0,0.0,0.34335000000000004,0.27468000000000004,9.888480000000001
3095959565,21.71,0.0,0.0,0.0,0.32373,0.25506,9.85905
3101010070,21.71,0.0,0.0,0.0,0.33354000000000006,0.25506,9.86886
3106060575,21.71,0.0,0.0,0.0,0.30411,0.24525000000000002,9.84924
3111111080,21.71,0.0,0.0,0.0,0.30411,0.23544,9.87867
3116161585,21.71,0.0,0.0,0.0,0.34335000000000004,0.22563,9.85905
3121212090,21.71,0.0,0.0,0.0,0.32373,0.22563,9.89829
3126262595,21.71,0.0,0.0,0.0,0.33354000000000006,0.25506,9.87867
3131313100,21.71,0.0,0.0,0.0,0.33354000000000006,0.2943,9.86886
3136363605,21.71,0.0,0.0,0.0,0.33354000000000006,0.26487,9.86886
3141414110,21.71,0.0,0.0,0.0,0.30411,0.22563,9.888480000000001
3146464615,21.71,0.0,0.0,0.0,0.34335000000000004,0.24525000000000002,9.82962
3151515120,21.71,0.0,0.0,0.0,0.32373,0.23544,9.87867
3156565625,21.71,0.0,0.0,0.0,0.34335000000000004,0.25506,9.888480000000001
3161616130,21.71,0.0,0.0,0.0,0.33354000000000006,0.25506,9.86886
3166666635,21.71,0.0,0.0,0.0,0.34335000000000004,0.23544,9.86886
3171717140,21.71,0.0,0.0,0.0,0.32373,0.24525000000000002,9.86886
3176767645,21.71,0.0,0.0,0.0,0.34335000000000004,0.24525000000000002,9.87867
3181818150,21.71,0.0,0.0,0.0,0.34335000000000004,0.25506,9.87867
3186868655,21.71,0.0,0.0,0.0,0.32373,0.26487,9.87867
3191919160,21.71,0.0,0.0,0.0,0.30411,0.25506,9.85905
3196969665,21.71,0.0,0.0,0.0,0.34335000000000004,0.23544,9.85905
3202020170,21.71,0.0,0.0,0.0,0.32373,0.23544,9.85905
3207070675,21.71,0.0,0.0,0.0,0.30411,0.25506,9.84924
3212121180,21.71,0.0,0.0,0.0,0.32373,0.23544,9.82962
3217171685,21.71,0.0,0.0,0.0,0.33354000000000006,0.28449,9.81
3222222190,21.71,0.0,0.0,0.0,0.32373,0.28449,9.78057
3227272695,21.71,0.0,0.0,0.0,0.33354000000000006,0.30411,9.73152
3232323200,21.71,0.0,0.0,0.0,0.31392000000000003,0.2943,9.67266
3237373705,21.71,0.0,0.0,0.0,0.33354000000000006,0.27468000000000004,9.65304
3242424210,21.71,0.0,0.0,0.0,0.32373,0.26487,9.67266
3247474715,21.71,0.0,0.0,0.0,0.32373,0.23544,9.66285
3252525220,21.71,0.0,0.0,0.0,0.32373,0.21582,9.67266
3257575725,21.71,0.0,0.0,0.0,0.33354000000000006,0.20601000000000003,9.751140000000001
3262626230,21.71,0.0,0.0,0.0,0.33354000000000006,0.23544,9.760950000000001
3267676735,21.71,0.0,0.0,0.0,0.30411,0.24525000000000002,9.81
3272727240,21.71,0.0,0.0,0.0,0.36297,0.28449,9.83943
3277777745,21.71,0.0,0.0,0.0,0.31392000000000003,0.30411,9.819809999999999
3282828250,21.71,0.0,0.0,0.0,0.31392000000000003,0.25506,9.82962
3287878755,21.71,-0.011711159280881954,-0.001064650843716541,0.0,0.2943,0.21582,9.80019
3292929260,21.71,-0.007452555906015787,-0.003193952531149623,0.0,0.30411,0.2943,9.81
3297979765,21.71,-0.008517206749732328,-0.013840460968315033,0.0,0.34335000000000004,0.28449,9.78057
3303030270,21.71,-0.01064650843716541,-0.006387905062299246,0.0,0.49050000000000005,0.30411,9.68247
3308080775,21.71,-0.013840460968315033,0.0170518667919846,0.0,0.42183,0.3924,9.60399
3313131280,21.71,-0.005323254218582705,0.005323254218582705,0.0,0.26487,0.41202000000000005,9.6138
3318181785,21.71,-0.0170518667919846,-0.005323254218582705,0.0,0.25506,0.25506,9.64323
3323232290,21.71,-0.02769837522915001,0.00958185759344887,0.0,0.20601000000000003,0.0981,9.6138
3328282795,21.71,-0.022375121010567305,0.008517206749732328,0.0,0.25506,0.10791,9.888480000000001
3333333300,21.71,-0.008517206749732328,-0.004258603374866164,0.0,0.32373,0.2943,9.96696
3338383805,21.71,0.006387905062299246,-0.001064650843716541,0.0,0.48069000000000006,0.46107000000000004,9.92772
3343434310,21.71,-0.007452555906015787,0.02769837522915001,0.0,0.40221,0.44145,9.91791
3348484815,21.71,-0.023439771854283843,0.014905111812031574,0.0,-0.06867000000000001,0.12753,9.908100000000001
3353535320,21.71,-0.04153883619746504,-0.03728023282259888,0.0,0.15696000000000002,-0.11772,10.006200000000002
3358585825,21.71,-0.02663372438543347,-0.033021629447732716,0.0,0.2943,0.05886,9.67266
3363636330,21.71,0.0,-0.028763026072866547,0.0,0.5395500000000001,0.48069000000000006,9.72171
3368686835,21.71,0.0,-0.0170518667919846,0.0,0.8240400000000001,0.5591700000000001,9.74133
3373737340,21.71,-0.014905111812031574,0.02663372438543347,0.0,0.7651800000000001,0.18639,9.70209
3378787845,21.71,-0.03089232776029963,0.07243116395776468,0.0,0.1962,0.0,9.87867
3383838350,21.71,-0.020245819323134222,0.04581489286485115,0.0,-0.1962,0.17658,10.074869999999999
3388888855,21.71,-0.008517206749732328,-0.014905111812031574,0.0,0.08829,0.20601000000000003,10.13373
3393939360,21.71,-0.006387905062299246,-0.022375121010567305,0.0,0.16677000000000003,0.26487,9.86886
3398989865,21.71,-0.011711159280881954,-0.03089232776029963,0.0,0.0981,0.35316,9.888480000000001
3404040370,21.71,-0.0170518667919846,-0.04260348704118158,0.0,0.35316,0.40221,9.819809999999999
3409090875,21.71,-0.021310470166850764,-0.028763026072866547,0.0,0.6768900000000001,0.23544,9.69228
3414141380,21.71,-0.028763026072866547,0.001064650843716541,0.0,0.73575,0.02943,9.79038
3419191885,21.71,-0.024504422698000388,0.01918116847941768,0.0,0.6180300000000001,-0.019620000000000002,9.84924
3424242390,21.71,-0.012775810124598492,0.039409534510031964,0.0,0.45126,0.06867000000000001,9.92772
3429292895,21.71,0.0,0.05113814708343386,0.0,0.06867000000000001,0.33354000000000006,9.92772
3434343400,21.71,0.004258603374866164,0.024504422698000388,0.0,-0.14715,0.5591700000000001,10.01601
3439393905,21.71,-0.013840460968315033,-0.02663372438543347,0.0,0.0,0.45126,9.97677
3444444410,21.71,-0.03089232776029963,-0.05113814708343386,0.0,0.22563,0.18639,9.74133
3449494915,21.71,-0.039409534510031964,-0.03515093113516579,0.0,0.45126,0.07848000000000001,9.633420000000001
3454545420,21.71,-0.028763026072866547,-0.014905111812031574,0.0,0.52974,0.07848000000000001,9.60399
3459595925,21.71,-0.014905111812031574,0.004258603374866164,0.0,0.5591700000000001,0.1962,9.65304
3464646430,21.71,-0.008517206749732328,0.015987215948268057,0.0,0.51993,0.35316,9.68247
3469696935,21.71,-0.014905111812031574,0.023439771854283843,0.0,0.35316,0.35316,9.760950000000001
3474747440,21.71,-0.020245819323134222,0.021310470166850764,0.0,0.24525000000000002,0.30411,9.81
3479797945,21.71,-0.021310470166850764,0.0170518667919846,0.0,0.1962,0.30411,9.819809999999999
3484848450,21.71,-0.021310470166850764,0.004258603374866164,0.0,0.04905,0.2943,9.760950000000001
3489898955,21.71,-0.031956978604016174,-0.013840460968315033,0.0,0.10791,0.16677000000000003,9.74133
3494949460,21.71,-0.03621558197888234,-0.02769837522915001,0.0,0.27468000000000004,0.039240000000000004,9.770760000000001
3499999965,21.71,-0.02982767691658309,-0.022375121010567305,0.0,0.48069000000000006,0.02943,9.760950000000001
3505050470,21.71,-0.01918116847941768,-0.002129301687433082,0.0,0.51993,0.18639,9.908100000000001
3510100975,21.71,-0.006387905062299246,0.00958185759344887,0.0,0.51993,0.43164,9.95715
3515151480,21.71,-0.004258603374866164,0.01918116847941768,0.0,0.45126,0.41202000000000005,10.006200000000002
3520201985,21.71,-0.021310470166850764,0.0170518667919846,0.0,0.31392000000000003,0.21582,9.99639
3525252490,21.71,-0.04153883619746504,0.01064650843716541,0.0,0.18639,-0.04905,9.92772
3530302995,21.71,-0.0404741853537485,0.002129301687433082,0.0,0.14715,-0.11772,9.81
3535353500,21.71,-0.0170518667919846,-0.00958185759344887,0.0,0.16677000000000003,0.22563,9.760950000000001
3540404005,21.71,-0.002129301687433082,-0.01918116847941768,0.0,0.2943,0.57879,9.760950000000001
3545454510,21.71,-0.007452555906015787,-0.013840460968315033,0.0,0.49050000000000005,0.5591700000000001,9.81
3550505015,21.71,-0.03089232776029963,0.002129301687433082,0.0,0.48069000000000006,0.18639,9.908100000000001
3555555520,21.71,-0.04794419455228423,0.011711159280881954,0.0,0.28449,-0.1962,10.03563
3560606025,21.71,-0.03834488366631542,0.004258603374866164,0.0,0.24525000000000002,-0.14715,10.01601
3565656530,21.71,-0.012775810124598492,-0.014905111812031574,0.0,0.32373,0.21582,9.81
3570707035,21.71,0.0,-0.011711159280881954,0.0,0.49050000000000005,0.50031,9.59418
3575757540,21.71,-0.00958185759344887,0.005323254218582705,0.0,0.47088,0.5886,9.59418
3580808045,21.71,-0.028763026072866547,0.024504422698000388,0.0,0.32373,0.37278,9.69228
3585858550,21.71,-0.04260348704118158,0.02982767691658309,0.0,0.10791,0.04905,9.91791
3590909055,21.71,-0.04260348704118158,0.005323254218582705,0.0,0.0,-0.13734000000000002,10.074869999999999
3595959560,21.71,-0.033021629447732716,-0.031956978604016174,0.0,0.24525000000000002,-0.07848000000000001,10.13373
3601010065,21.71,-0.0170518667919846,-0.03408628029144926,0.0,0.51012,0.11772,9.91791
3606060570,21.71,-0.008517206749732328,-0.00958185759344887,0.0,0.6278400000000001,0.32373,9.78057
3611111075,21.71,-0.013840460968315033,0.015987215948268057,0.0,0.48069000000000006,0.42183,9.69228
3616161580,21.71,-0.023439771854283843,0.01811651763570114,0.0,0.34335000000000004,0.42183,9.73152
3621212085,21.71,-0.031956978604016174,0.005323254218582705,0.0,0.27468000000000004,0.20601000000000003,9.819809999999999
3626262590,21.71,-0.0404741853537485,0.003193952531149623,0.0,0.28449,-0.0981,9.91791
3631313095,21.71,-0.0404741853537485,0.008517206749732328,0.0,0.26487,-0.20601000000000003,9.99639
3636363600,21.71,-0.01918116847941768,0.012775810124598492,0.0,0.15696000000000002,0.04905,9.99639
3641414105,21.71,0.0,-0.003193952531149623,0.0,0.14715,0.51993,9.94734
3646464610,21.71,-0.004258603374866164,-0.031956978604016174,0.0,0.31392000000000003,0.6670800000000001,9.819809999999999
3651515115,21.71,-0.03089232776029963,-0.03621558197888234,0.0,0.5886,0.35316,9.65304
3656565620,21.71,-0.054332099614583476,-0.006387905062299246,0.0,0.6278400000000001,-0.12753,9.64323
3661616125,21.71,-0.05113814708343386,0.024504422698000388,0.0,0.3924,-0.30411,9.7119
3666666630,21.71,-0.02769837522915001,0.02556907354171693,0.0,0.17658,-0.009810000000000001,9.85905
3671717135,21.71,-0.004258603374866164,0.002129301687433082,0.0,0.1962,0.36297,9.908100000000001
3676767640,21.71,-0.003193952531149623,-0.01064650843716541,0.0,0.38259000000000004,0.51012,9.91791
3681818145,21.71,-0.021310470166850764,0.0,0.0,0.44145,0.36297,9.87867
3686868650,21.71,-0.03834488366631542,0.01811651763570114,0.0,0.25506,0.11772,9.82962
3691919155,21.71,-0.0404741853537485,0.00958185759344887,0.0,0.08829,0.10791,9.85905
3696969660,21.71,-0.03515093113516579,-0.022375121010567305,0.0,0.15696000000000002,0.15696000000000002,9.760950000000001
3702020165,21.71,-0.03515093113516579,-0.0404741853537485,0.0,0.48069000000000006,0.07848000000000001,9.7119
3707070670,21.71,-0.03834488366631542,-0.020245819323134222,0.0,0.6768900000000001,-0.0981,9.70209
3712121175,21.71,-0.02982767691658309,0.02769837522915001,0.0,0.5395500000000001,0.02943,9.751140000000001
3717171680,21.71,-0.011711159280881954,0.04366813788489812,0.0,0.24525000000000002,0.42183,9.96696
3722222185,21.71,-0.002129301687433082,0.01918116847941768,0.0,0.07848000000000001,0.64746,9.99639
3727272690,21.71,-0.028763026072866547,-0.00958185759344887,0.0,0.1962,0.34335000000000004,9.94734
3732323195,21.71,-0.060720004676882725,-0.01811651763570114,0.0,0.31392000000000003,-0.18639,9.82962
3737373700,21.71,-0.06284930636431581,-0.007452555906015787,0.0,0.24525000000000002,-0.37278,9.74133
3742424205,21.71,-0.031956978604016174,-0.006387905062299246,0.0,0.25506,0.009810000000000001,9.81
3747474710,21.71,0.0,-0.01811651763570114,0.0,0.40221,0.45126,9.908100000000001
3752525215,21.71,-0.005323254218582705,-0.014905111812031574,0.0,0.63765,0.51012,9.94734
3757575720,21.71,-0.033021629447732716,0.007452555906015787,0.0,0.65727,0.12753,10.006200000000002
3762626225,21.71,-0.05007349623971732,0.039409534510031964,0.0,0.33354000000000006,-0.22563,10.025820000000001
3767676730,21.71,-0.039409534510031964,0.033021629447732716,0.0,0.0,-0.13734000000000002,10.12392
3772727235,21.71,-0.01064650843716541,-0.011711159280881954,0.0,-0.02943,0.20601000000000003,10.01601
3777777740,21.71,-0.011711159280881954,-0.039409534510031964,0.0,0.28449,0.43164,9.82962
3782828245,21.71,-0.02769837522915001,-0.031956978604016174,0.0,0.51993,0.31392000000000003,9.68247
3787878750,21.71,-0.0404741853537485,-0.006387905062299246,0.0,0.49050000000000005,0.11772,9.67266
3792929255,21.71,-0.0404741853537485,0.012775810124598492,0.0,0.40221,0.009810000000000001,9.82962
3797979760,21.71,-0.03089232776029963,0.014905111812031574,0.0,0.33354000000000006,0.04905,9.91791
3803030265,21.71,-0.022375121010567305,0.005323254218582705,0.0,0.2943,0.12753,9.937529999999999
3808080770,21.71,-0.023439771854283843,-0.002129301687433082,0.0,0.33354000000000006,0.17658,9.80019
3813131275,21.71,-0.02982767691658309,0.0,0.0,0.31392000000000003,0.21582,9.64323
3818181780,21.71,-0.03089232776029963,0.001064650843716541,0.0,0.21582,0.20601000000000003,9.6138
3823232285,21.71,-0.031956978604016174,-0.002129301687433082,0.0,0.23544,0.23544,9.64323
3828282790,21.71,-0.03834488366631542,-0.011711159280881954,0.0,0.24525000000000002,0.15696000000000002,9.74133
3833333295,21.71,-0.04153883619746504,-0.015987215948268057,0.0,0.42183,0.039240000000000004,9.82962
3838383800,21.71,-0.039409534510031964,-0.00958185759344887,0.0,0.50031,-0.07848000000000001,9.85905
3843434305,21.71,-0.033021629447732716,0.012775810124598492,0.0,0.47088,-0.039240000000000004,9.85905
3848484810,21.71,-0.023439771854283843,0.02769837522915001,0.0,0.30411,0.15696000000000002,9.85905
3853535315,21.71,-0.015987215948268057,0.015987215948268057,0.0,0.17658,0.38259000000000004,9.84924
3858585820,21.71,-0.023439771854283843,-0.00958185759344887,0.0,0.17658,0.41202000000000005,9.82962
3863636325,21.71,-0.04366813788489812,-0.021310470166850764,0.0,0.34335000000000004,0.06867000000000001,9.80019
3868686830,21.71,-0.05859070298944965,-0.002129301687433082,0.0,0.40221,-0.22563,9.81
3873737335,21.71,-0.044732788728614664,0.006387905062299246,0.0,0.2943,-0.18639,9.91791
3878787840,21.71,-0.022375121010567305,0.0,0.0,0.27468000000000004,0.08829,10.09449
3883838345,21.71,-0.012775810124598492,-0.008517206749732328,0.0,0.42183,0.24525000000000002,10.1043
3888888850,21.71,-0.021310470166850764,-0.004258603374866164,0.0,0.49050000000000005,0.20601000000000003,10.025820000000001
3893939355,21.71,-0.02982767691658309,0.00958185759344887,0.0,0.3924,0.11772,9.94734
3898989860,21.71,-0.03408628029144926,0.01918116847941768,0.0,0.23544,0.06867000000000001,9.908100000000001
3904040365,21.71,-0.03834488366631542,0.005323254218582705,0.0,0.15696000000000002,-0.02943,9.95715
3909090870,21.71,-0.039409534510031964,-0.0170518667919846,0.0,0.22563,-0.02943,9.96696
3914141375,21.71,-0.02982767691658309,-0.028763026072866547,0.0,0.37278,0.039240000000000004,9.908100000000001
3919191880,21.71,-0.01918116847941768,-0.012775810124598492,0.0,0.5493600000000001,0.15696000000000002,9.84924
3924242385,21.71,-0.01918116847941768,0.013840460968315033,0.0,0.51012,0.22563,9.85905
3929292890,21.71,-0.024504422698000388,0.021310470166850764,0.0,0.2943,0.16677000000000003,9.908100000000001
3934343395,21.71,-0.03515093113516579,0.006387905062299246,0.0,0.15696000000000002,0.11772,9.888480000000001
3939393900,21.71,-0.03834488366631542,-0.013840460968315033,0.0,0.1962,0.02943,9.770760000000001
3944444405,21.71,-0.04366813788489812,-0.021310470166850764,0.0,0.35316,-0.14715,9.67266
3949494910,21.71,-0.039409534510031964,-0.008517206749732328,0.0,0.41202000000000005,-0.07848000000000001,9.68247
3954545415,21.71,-0.020245819323134222,0.002129301687433082,0.0,0.37278,0.20601000000000003,9.70209
3959595920,21.71,-0.013840460968315033,0.004258603374866164,0.0,0.33354000000000006,0.45126,9.751140000000001
3964646425,21.71,-0.021310470166850764,0.001064650843716541,0.0,0.41202000000000005,0.36297,9.79038
3969696930,21.71,-0.04581489286485115,0.003193952531149623,0.0,0.41202000000000005,0.019620000000000002,9.80019
3974747435,21.71,-0.054332099614583476,0.014905111812031574,0.0,0.2943,-0.28449,9.79038
3979797940,21.71,-0.04260348704118158,0.014905111812031574,0.0,0.12753,-0.15696000000000002,9.78057
3984848445,21.71,-0.020245819323134222,-0.00958185759344887,0.0,0.08829,0.20601000000000003,9.81
3989898950,21.71,-0.022375121010567305,-0.03408628029144926,0.0,0.44145,0.31392000000000003,9.80019
3994949455,21.71,-0.03515093113516579,-0.020245819323134222,0.0,0.60822,0.14715,9.760950000000001
3999999960,21.71,-0.04260348704118158,0.00958185759344887,0.0,0.5395500000000001,-0.02943,9.82962
4005050465,21.71,-0.03834488366631542,0.031956978604016174,0.0,0.34335000000000004,-0.05886,9.97677
4010100970,21.71,-0.02769837522915001,0.02663372438543347,0.0,0.1962,-0.02943,10.12392
4015151475,21.71,-0.02769837522915001,0.0,0.0,0.17658,-0.02943,10.17297
4020201980,21.71,-0.031956978604016174,-0.015987215948268057,0.0,0.25506,-0.02943,10.06506
4025252485,21.71,-0.02769837522915001,-0.013840460968315033,0.0,0.36297,0.04905,9.94734
4030302990,21.71,-0.024504422698000388,-0.007452555906015787,0.0,0.38259000000000004,0.04905,9.97677
4035353495,21.71,-0.02663372438543347,-0.001064650843716541,0.0,0.3924,0.039240000000000004,10.05525
4040404000,21.71,-0.031956978604016174,-0.005323254218582705,0.0,0.40221,0.04905,10.045440000000001
4045454505,21.71,-0.02663372438543347,-0.003193952531149623,0.0,0.42183,0.06867000000000001,9.98658
4050505010,21.71,-0.024504422698000388,0.005323254218582705,0.0,0.41202000000000005,0.0,9.91791
4055555515,21.71,-0.028763026072866547,0.015987215948268057,0.0,0.27468000000000004,-0.04905,9.87867
4060606020,21.71,-0.033021629447732716,0.01064650843716541,0.0,0.13734000000000002,0.06867000000000001,9.84924
4065656525,21.71,-0.021310470166850764,-0.012775810124598492,0.0,0.13734000000000002,0.24525000000000002,9.770760000000001
4070707030,21.71,-0.02556907354171693,-0.03089232776029963,0.0,0.32373,0.24525000000000002,9.73152
4075757535,21.71,-0.0404741853537485,-0.023439771854283843,0.0,0.51993,-0.009810000000000001,9.67266
4080808040,21.71,-0.05220279792715039,0.0,0.0,0.48069000000000006,-0.20601000000000003,9.633420000000001
4085858545,21.71,-0.03728023282259888,0.0170518667919846,0.0,0.35316,-0.02943,9.68247
4090909050,21.71,-0.015987215948268057,0.011711159280881954,0.0,0.27468000000000004,0.26487,9.72171
4095959555,21.71,-0.01811651763570114,0.001064650843716541,0.0,0.32373,0.33354000000000006,9.73152
4101010060,21.71,-0.03408628029144926,0.002129301687433082,0.0,0.33354000000000006,0.07848000000000001,9.70209
4106060565,21.71,-0.05326744877086694,0.00958185759344887,0.0,0.23544,-0.11772,9.74133
4111111070,21.71,-0.04581489286485115,-0.001064650843716541,0.0,0.13734000000000002,-0.11772,9.78057
4116161575,21.71,-0.03515093113516579,-0.01918116847941768,0.0,0.25506,-0.04905,9.86886
4121212080,21.71,-0.031956978604016174,-0.02663372438543347,0.0,0.50031,-0.019620000000000002,9.89829
4126262585,21.71,-0.028763026072866547,-0.005323254218582705,0.0,0.6180300000000001,0.0981,9.83943
4131313090,21.71,-0.021310470166850764,0.01811651763570114,0.0,0.5395500000000001,0.20601000000000003,9.888480000000001
4136363595,21.71,-0.02556907354171693,0.02982767691658309,0.0,0.35316,0.08829,9.99639
4141414100,21.71,-0.0404741853537485,0.02982767691658309,0.0,0.13734000000000002,-0.14715,10.1043
4146464605,21.71,-0.04794419455228423,0.001064650843716541,0.0,0.05886,-0.25506,10.2024
4151515110,21.71,-0.03728023282259888,-0.02556907354171693,0.0,0.20601000000000003,-0.18639,10.143540000000002
4156565615,21.71,-0.022375121010567305,-0.02982767691658309,0.0,0.45126,-0.05886,10.03563
4161616120,21.71,-0.020245819323134222,-0.008517206749732328,0.0,0.52974,0.039240000000000004,10.01601
4166666625,21.71,-0.020245819323134222,0.007452555906015787,0.0,0.47088,0.13734000000000002,10.01601
4171717130,21.71,-0.020245819323134222,0.011711159280881954,0.0,0.37278,0.22563,9.99639
4176767635,21.71,-0.02769837522915001,0.004258603374866164,0.0,0.38259000000000004,0.07848000000000001,10.006200000000002
4181818140,21.71,-0.04153883619746504,0.007452555906015787,0.0,0.2943,-0.22563,9.92772
4186868645,21.71,-0.04260348704118158,0.004258603374866164,0.0,0.13734000000000002,-0.2943,9.908100000000001
4191919150,21.71,-0.02982767691658309,-0.006387905062299246,0.0,0.15696000000000002,-0.009810000000000001,9.83943
4196969655,21.71,-0.011711159280881954,-0.0170518667919846,0.0,0.27468000000000004,0.24525000000000002,9.760950000000001
4202020160,21.71,-0.01918116847941768,-0.02663372438543347,0.0,0.46107000000000004,0.27468000000000004,9.72171
4207070665,21.71,-0.03621558197888234,-0.01811651763570114,0.0,0.5591700000000001,0.04905,9.68247
4212121170,21.71,-0.04794419455228423,0.01064650843716541,0.0,0.45126,-0.14715,9.623610000000001
4217171675,21.71,-0.039409534510031964,0.02556907354171693,0.0,0.32373,-0.039240000000000004,9.67266
4222222180,21.71,-0.021310470166850764,0.011711159280881954,0.0,0.20601000000000003,0.10791,9.72171
4227272685,21.71,-0.02556907354171693,-0.003193952531149623,0.0,0.24525000000000002,0.08829,9.72171
4232323190,21.71,-0.03834488366631542,-0.006387905062299246,0.0,0.31392000000000003,-0.019620000000000002,9.66285
4237373695,21.71,-0.03834488366631542,-0.003193952531149623,0.0,0.2943,-0.009810000000000001,9.66285
4242424200,21.71,-0.03515093113516579,-0.008517206749732328,0.0,0.32373,0.02943,9.74133
4247474705,21.71,-0.033021629447732716,-0.00958185759344887,0.0,0.42183,0.009810000000000001,9.84924
4252525210,21.71,-0.03621558197888234,-0.003193952531149623,0.0,0.46107000000000004,-0.05886,9.87867
4257575715,21.71,-0.03408628029144926,0.00958185759344887,0.0,0.44145,-0.06867000000000001,9.91791
4262626220,21.71,-0.033021629447732716,0.0170518667919846,0.0,0.34335000000000004,-0.05886,9.97677
4267676725,21.71,-0.03089232776029963,0.013840460968315033,0.0,0.24525000000000002,-0.10791,10.1043
4272727230,21.71,-0.02982767691658309,0.005323254218582705,0.0,0.23544,-0.16677000000000003,10.17297
4277777735,21.71,-0.031956978604016174,-0.007452555906015787,0.0,0.26487,-0.0981,10.19259
4282828240,21.71,-0.023439771854283843,-0.015987215948268057,0.0,0.34335000000000004,0.0,10.15335
4287878745,21.71,-0.02663372438543347,-0.012775810124598492,0.0,0.48069000000000006,-0.05886,10.09449
4292929250,21.71,-0.02982767691658309,0.004258603374866164,0.0,0.45126,-0.16677000000000003,10.1043
4297979755,21.71,-0.02982767691658309,0.012775810124598492,0.0,0.36297,-0.12753,10.074869999999999
4303030260,21.71,-0.01918116847941768,0.006387905062299246,0.0,0.27468000000000004,0.04905,10.045440000000001
4308080765,21.71,-0.015987215948268057,-0.002129301687433082,0.0,0.2943,0.13734000000000002,9.99639
4313131270,21.71,-0.024504422698000388,-0.007452555906015787,0.0,0.33354000000000006,0.009810000000000001,9.888480000000001
4318181775,21.71,-0.03728023282259888,-0.005323254218582705,0.0,0.33354000000000006,-0.14715,9.80019
4323232280,21.71,-0.03515093113516579,-0.005323254218582705,0.0,0.28449,-0.0981,9.760950000000001
4328282785,21.71,-0.022375121010567305,-0.00958185759344887,0.0,0.31392000000000003,0.04905,9.69228
4333333290,21.71,-0.020245819323134222,-0.015987215948268057,0.0,0.41202000000000005,0.08829,9.66285
4338383795,21.71,-0.02769837522915001,-0.005323254218582705,0.0,0.50031,0.04905,9.59418
4343434300,21.71,-0.031956978604016174,0.013840460968315033,0.0,0.42183,0.0,9.60399
4348484805,21.71,-0.031956978604016174,0.023439771854283843,0.0,0.20601000000000003,-0.019620000000000002,9.633420000000001
4353535310,21.71,-0.031956978604016174,0.004258603374866164,0.0,0.15696000000000002,0.02943,9.73152
4358585815,21.71,-0.033021629447732716,-0.012775810124598492,0.0,0.22563,-0.009810000000000001,9.72171
4363636320,21.71,-0.0404741853537485,-0.0170518667919846,0.0,0.3924,-0.15696000000000002,9.66285
4368686825,21.71,-0.039409534510031964,-0.001064650843716541,0.0,0.42183,-0.18639,9.68247
4373737330,21.71,-0.033021629447732716,0.002129301687433082,0.0,0.38259000000000004,-0.009810000000000001,9.760950000000001
4378787835,21.71,-0.021310470166850764,0.001064650843716541,0.0,0.34335000000000004,0.12753,9.819809999999999
4383838340,21.71,-0.02663372438543347,0.0,0.0,0.3924,0.06867000000000001,9.89829
4388888845,21.71,-0.03728023282259888,0.005323254218582705,0.0,0.41202000000000005,-0.10791,9.97677
4393939350,21.71,-0.04153883619746504,0.0170518667919846,0.0,0.31392000000000003,-0.2943,10.03563
4398989855,21.71,-0.03515093113516579,0.01064650843716541,0.0,0.18639,-0.28449,10.12392
4404040360,21.71,-0.02556907354171693,-0.003193952531149623,0.0,0.15696000000000002,-0.14715,10.17297
4409090865,21.71,-0.020245819323134222,-0.022375121010567305,0.0,0.33354000000000006,-0.05886,10.163160000000001
4414141370,21.71,-0.020245819323134222,-0.01811651763570114,0.0,0.56898,-0.04905,10.074869999999999
4419191875,21.71,-0.02556907354171693,0.008517206749732328,0.0,0.52974,-0.14715,10.074869999999999
4424242380,21.71,-0.02556907354171693,0.01918116847941768,0.0,0.35316,-0.15696000000000002,10.17297
4429292885,21.71,-0.022375121010567305,0.011711159280881954,0.0,0.24525000000000002,-0.14715,10.2024
4434343390,21.71,-0.01918116847941768,0.0,0.0,0.22563,-0.07848000000000001,10.1043
4439393895,21.71,-0.022375121010567305,-0.01064650843716541,0.0,0.2943,-0.06867000000000001,10.025820000000001
4444444400,21.71,-0.022375121010567305,-0.01064650843716541,0.0,0.33354000000000006,-0.06867000000000001,9.89829
4449494905,21.71,-0.024504422698000388,-0.007452555906015787,0.0,0.33354000000000006,-0.05886,9.80019
4454545410,21.71,-0.021310470166850764,-0.004258603374866164,0.0,0.34335000000000004,0.02943,9.78057
4459595915,21.71,-0.020245819323134222,-0.004258603374866164,0.0,0.35316,0.02943,9.74133
4464646420,21.71,-0.02769837522915001,-0.003193952531149623,0.0,0.36297,-0.0981,9.72171
4469696925,21.71,-0.03834488366631542,-0.001064650843716541,0.0,0.3924,-0.20601000000000003,9.67266
4474747430,21.71,-0.03089232776029963,0.004258603374866164,0.0,0.32373,-0.0981,9.65304
4479797935,21.71,-0.015987215948268057,0.002129301687433082,0.0,0.33354000000000006,0.06867000000000001,9.623610000000001
4484848440,21.71,-0.021310470166850764,0.002129301687433082,0.0,0.33354000000000006,0.12753,9.633420000000001
4489898945,21.71,-0.03408628029144926,-0.001064650843716541,0.0,0.2943,0.0,9.633420000000001
4494949450,21.71,-0.04153883619746504,-0.005323254218582705,0.0,0.32373,-0.07848000000000001,9.633420000000001
4499999955,21.71,-0.0404741853537485,-0.005323254218582705,0.0,0.37278,-0.15696000000000002,9.67266
4505050460,21.71,-0.03408628029144926,0.001064650843716541,0.0,0.43164,-0.22563,9.78057
4510100965,21.71,-0.028763026072866547,0.013840460968315033,0.0,0.36297,-0.20601000000000003,9.87867
4515151470,21.71,-0.023439771854283843,0.011711159280881954,0.0,0.2943,-0.06867000000000001,9.96696
4520201975,21.71,-0.015987215948268057,0.0,0.0,0.28449,0.019620000000000002,9.98658
4525252480,21.71,-0.024504422698000388,-0.006387905062299246,0.0,0.40221,-0.02943,10.01601
4530302985,21.71,-0.033021629447732716,0.002129301687433082,0.0,0.43164,-0.23544,10.03563
4535353490,21.71,-0.03728023282259888,0.007452555906015787,0.0,0.36297,-0.34335000000000004,10.08468
4540403995,21.71,-0.024504422698000388,0.006387905062299246,0.0,0.25506,-0.23544,10.11411
4545454500,21.71,-0.013840460968315033,-0.006387905062299246,0.0,0.26487,-0.039240000000000004,10.163160000000001
4550505005,21.71,-0.0170518667919846,-0.012775810124598492,0.0,0.41202000000000005,-0.06867000000000001,10.163160000000001
4555555510,21.71,-0.021310470166850764,-0.002129301687433082,0.0,0.48069000000000006,-0.13734000000000002,10.13373
4560606015,21.71,-0.02556907354171693,0.01064650843716541,0.0,0.37278,-0.23544,10.12392
4565656520,21.71,-0.023439771854283843,0.011711159280881954,0.0,0.24525000000000002,-0.15696000000000002,10.12392
4570707025,21.71,-0.013840460968315033,-0.008517206749732328,0.0,0.21582,-0.009810000000000001,10.06506
4575757530,21.71,-0.015987215948268057,-0.024504422698000388,0.0,0.41202000000000005,-0.009810000000000001,9.908100000000001
4580808035,21.71,-0.024504422698000388,-0.0170518667919846,0.0,0.51993,-0.13734000000000002,9.78057
4585858540,21.71,-0.028763026072866547,0.008517206749732328,0.0,0.43164,-0.20601000000000003,9.74133
4590909045,21.71,-0.023439771854283843,0.01918116847941768,0.0,0.25506,-0.13734000000000002,9.79038
4595959550,21.71,-0.014905111812031574,0.007452555906015787,0.0,0.17658,0.06867000000000001,9.819809999999999
4601010055,21.71,-0.014905111812031574,-0.013840460968315033,0.0,0.28449,0.11772,9.74133
4606060560,21.71,-0.02663372438543347,-0.01811651763570114,0.0,0.41202000000000005,-0.04905,9.66285
4611111065,21.71,-0.03834488366631542,-0.001064650843716541,0.0,0.42183,-0.25506,9.6138
4616161570,21.71,-0.033021629447732716,0.013840460968315033,0.0,0.2943,-0.23544,9.623610000000001
4621212075,21.71,-0.022375121010567305,0.003193952531149623,0.0,0.20601000000000003,-0.0981,9.72171
4626262580,21.71,-0.01811651763570114,-0.01064650843716541,0.0,0.31392000000000003,0.02943,9.72171
4631313085,21.71,-0.023439771854283843,-0.01811651763570114,0.0,0.50031,0.0,9.72171
4636363590,21.71,-0.028763026072866547,0.0,0.0,0.5591700000000001,-0.15696000000000002,9.760950000000001
4641414095,21.71,-0.033021629447732716,0.02556907354171693,0.0,0.38259000000000004,-0.24525000000000002,9.819809999999999
4646464600,21.71,-0.02663372438543347,0.023439771854283843,0.0,0.17658,-0.21582,9.937529999999999
4651515105,21.71,-0.021310470166850764,-0.001064650843716541,0.0,0.14715,-0.07848000000000001,10.006200000000002
4656565610,21.71,-0.020245819323134222,-0.024504422698000388,0.0,0.2943,-0.06867000000000001,9.937529999999999
4661616115,21.71,-0.02556907354171693,-0.021310470166850764,0.0,0.45126,-0.15696000000000002,9.85905
4666666620,21.71,-0.031956978604016174,0.005323254218582705,0.0,0.48069000000000006,-0.26487,9.937529999999999
4671717125,21.71,-0.028763026072866547,0.01918116847941768,0.0,0.34335000000000004,-0.26487,10.08468
4676767630,21.71,-0.01918116847941768,0.012775810124598492,0.0,0.22563,-0.16677000000000003,10.163160000000001
4681818135,21.71,-0.015987215948268057,-0.01064650843716541,0.0,0.27468000000000004,-0.0981,10.17297
4686868640,21.71,-0.020245819323134222,-0.01918116847941768,0.0,0.46107000000000004,-0.18639,10.06506
4691919145,21.71,-0.023439771854283843,-0.003193952531149623,0.0,0.51993,-0.22563,9.98658
4696969650,21.71,-0.01811651763570114,0.015987215948268057,0.0,0.38259000000000004,-0.16677000000000003,9.99639
4702020155,21.71,-0.008517206749732328,0.015987215948268057,0.0,0.21582,-0.009810000000000001,10.01601
4707070660,21.71,-0.015987215948268057,-0.001064650843716541,0.0,0.20601000000000003,-0.02943,10.006200000000002
4712121165,21.71,-0.02769837522915001,-0.01918116847941768,0.0,0.30411,-0.20601000000000003,9.95715
4717171670,21.71,-0.033021629447732716,-0.01811651763570114,0.0,0.43164,-0.40221,9.91791
4722222175,21.71,-0.020245819323134222,0.001064650843716541,0.0,0.46107000000000004,-0.2943,9.86886
4727272680,21.71,-0.002129301687433082,0.011711159280881954,0.0,0.37278,0.0,9.87867
4732323185,21.71,0.003193952531149623,0.008517206749732328,0.0,0.30411,0.14715,9.87867
4737373690,21.71,-0.015987215948268057,-0.003193952531149623,0.0,0.31392000000000003,-0.019620000000000002,9.81
4742424195,21.71,-0.03728023282259888,-0.005323254218582705,0.0,0.34335000000000004,-0.2943,9.751140000000001
4747474700,21.71,-0.03621558197888234,0.0,0.0,0.31392000000000003,-0.3924,9.7119
4752525205,21.71,-0.023439771854283843,0.003193952531149623,0.0,0.31392000000000003,-0.21582,9.73152
4757575710,21.71,-0.002129301687433082,-0.001064650843716541,0.0,0.34335000000000004,0.05886,9.770760000000001
4762626215,21.71,-0.002129301687433082,-0.006387905062299246,0.0,0.40221,0.14715,9.760950000000001
4767676720,21.71,-0.024504422698000388,-0.001064650843716541,0.0,0.40221,-0.06867000000000001,9.751140000000001
4772727225,21.71,-0.04153883619746504,0.005323254218582705,0.0,0.34335000000000004,-0.36297,9.79038
4777777730,21.71,-0.03621558197888234,0.004258603374866164,0.0,0.25506,-0.3924,9.81
4782828235,21.71,-0.01918116847941768,0.0,0.0,0.27468000000000004,-0.16677000000000003,9.819809999999999
4787878740,21.71,-0.003193952531149623,-0.01064650843716541,0.0,0.41202000000000005,0.04905,9.82962
4792929245,21.71,-0.012775810124598492,-0.007452555906015787,0.0,0.49050000000000005,0.0,9.83943
4797979750,21.71,-0.02769837522915001,0.013840460968315033,0.0,0.45126,-0.23544,9.888480000000001
4803030255,21.71,-0.03408628029144926,0.023439771854283843,0.0,0.22563,-0.46107000000000004,10.045440000000001
4808080760,21.71,-0.02663372438543347,0.011711159280881954,0.0,0.15696000000000002,-0.3924,10.15335
4813131265,21.71,-0.013840460968315033,-0.013840460968315033,0.0,0.22563,-0.20601000000000003,10.143540000000002
4818181770,21.71,-0.002129301687433082,-0.02556907354171693,0.0,0.47088,-0.039240000000000004,9.99639
4823232275,21.71,-0.005323254218582705,-0.006387905062299246,0.0,0.59841,0.039240000000000004,9.87867
4828282780,21.71,-0.01811651763570114,0.020245819323134222,0.0,0.43164,-0.12753,9.908100000000001
4833333285,21.71,-0.02663372438543347,0.022375121010567305,0.0,0.21582,-0.25506,10.025820000000001
4838383790,21.71,-0.02663372438543347,0.001064650843716541,0.0,0.18639,-0.3924,10.06506
4843434295,21.71,-0.024504422698000388,-0.014905111812031574,0.0,0.26487,-0.38259000000000004,9.98658
4848484800,21.71,-0.012775810124598492,-0.020245819323134222,0.0,0.38259000000000004,-0.25506,9.92772
4853535305,21.71,-0.001064650843716541,-0.008517206749732328,0.0,0.45126,0.019620000000000002,9.82962
4858585810,21.71,0.003193952531149623,0.004258603374866164,0.0,0.42183,0.22563,9.760950000000001
4863636315,21.71,-0.01064650843716541,0.007452555906015787,0.0,0.35316,0.08829,9.80019
4868686820,21.71,-0.03408628029144926,0.003193952531149623,0.0,0.30411,-0.31392000000000003,9.82962
4873737325,21.71,-0.04153883619746504,0.003193952531149623,0.0,0.2943,-0.57879,9.81
4878787830,21.71,-0.02982767691658309,0.0,0.0,0.27468000000000004,-0.5591700000000001,9.84924
4883838335,21.71,-0.004258603374866164,-0.001064650843716541,0.0,0.28449,-0.16677000000000003,9.82962
4888888840,21.71,0.011711159280881954,-0.007452555906015787,0.0,0.33354000000000006,0.22563,9.80019
4893939345,21.71,0.005323254218582705,-0.01064650843716541,0.0,0.46107000000000004,0.30411,9.79038
4898989850,21.71,-0.020245819323134222,-0.001064650843716541,0.0,0.47088,0.0,9.751140000000001
4904040355,21.71,-0.04366813788489812,0.013840460968315033,0.0,0.37278,-0.40221,9.760950000000001
4909090860,21.71,-0.04260348704118158,0.014905111812031574,0.0,0.26487,-0.60822,9.81
4914141365,21.71,-0.024504422698000388,0.007452555906015787,0.0,0.1962,-0.50031,9.89829
4919191870,21.71,-0.003193952531149623,-0.007452555906015787,0.0,0.22563,-0.17658,9.95715
4924242375,21.71,0.005323254218582705,-0.0170518667919846,0.0,0.43164,0.06867000000000001,9.94734
4929292880,21.71,-0.002129301687433082,-0.007452555906015787,0.0,0.51993,0.08829,9.96696
4934343385,21.71,-0.014905111812031574,0.007452555906015787,0.0,0.47088,-0.04905,9.98658
4939393890,21.71,-0.02663372438543347,0.00958185759344887,0.0,0.34335000000000004,-0.32373,10.045440000000001
4944444395,21.71,-0.03089232776029963,0.003193952531149623,0.0,0.2943,-0.49050000000000005,10.025820000000001
4949494900,21.71,-0.020245819323134222,0.0,0.0,0.30411,-0.50031,10.01601
4954545405,21.71,-0.005323254218582705,-0.001064650843716541,0.0,0.32373,-0.2943,9.97677
4959595910,21.71,0.002129301687433082,0.0,0.0,0.35316,-0.05886,10.006200000000002
4964646415,21.71,0.005323254218582705,0.003193952531149623,0.0,0.35316,0.0,10.11411
4969696920,21.71,-0.005323254218582705,-0.003193952531149623,0.0,0.32373,-0.06867000000000001,10.13373
4974747425,21.71,-0.01811651763570114,-0.008517206749732328,0.0,0.36297,-0.25506,10.074869999999999
4979797930,21.71,-0.021310470166850764,-0.012775810124598492,0.0,0.44145,-0.3924,9.94734
4984848435,21.71,-0.012775810124598492,-0.006387905062299246,0.0,0.43164,-0.30411,9.79038
4989898940,21.71,-0.001064650843716541,0.006387905062299246,0.0,0.37278,-0.05886,9.67266
4994949445,21.71,0.0,0.01064650843716541,0.0,0.30411,0.05886,9.65304
4999999950,21.71,-0.011711159280881954,0.007452555906015787,0.0,0.25506,-0.04905,9.751140000000001
5005050455,21.71,-0.022375121010567305,-0.001064650843716541,0.0,0.27468000000000004,-0.30411,9.819809999999999
5010100960,21.71,-0.024504422698000388,-0.004258603374866164,0.0,0.27468000000000004,-0.42183,9.89829
5015151465,21.71,-0.01918116847941768,-0.008517206749732328,0.0,0.33354000000000006,-0.37278,9.89829
5020201970,21.71,-0.003193952531149623,-0.006387905062299246,0.0,0.41202000000000005,-0.16677000000000003,9.81
5025252475,21.71,0.004258603374866164,0.0,0.0,0.43164,0.05886,9.69228
5030302980,21.71,0.0,0.0,0.0,0.43164,0.11772,9.633420000000001
5035353485,21.71,-0.0170518667919846,0.00958185759344887,0.0,0.37278,-0.02943,9.67266
5040403990,21.71,-0.03089232776029963,0.012775810124598492,0.0,0.2943,-0.34335000000000004,9.78057
5045454495,21.71,-0.028763026072866547,0.006387905062299246,0.0,0.22563,-0.48069000000000006,9.96696
5050505000,21.71,-0.01918116847941768,-0.001064650843716541,0.0,0.28449,-0.45126,10.045440000000001
5055555505,21.71,-0.004258603374866164,-0.008517206749732328,0.0,0.33354000000000006,-0.26487,10.05525
5060606010,21.71,0.002129301687433082,-0.007452555906015787,0.0,0.44145,-0.10791,10.006200000000002
5065656515,21.71,0.001064650843716541,0.0,0.0,0.45126,-0.05886,9.96696
5070707020,21.71,-0.008517206749732328,0.007452555906015787,0.0,0.35316,-0.08829,10.006200000000002
5075757525,21.71,-0.015987215948268057,0.002129301687433082,0.0,0.31392000000000003,-0.22563,10.03563
5080808030,21.71,-0.020245819323134222,-0.001064650843716541,0.0,0.30411,-0.44145,10.08468
5085858535,21.71,-0.0170518667919846,-0.004258603374866164,0.0,0.33354000000000006,-0.49050000000000005,10.11411
5090909040,21.71,-0.005323254218582705,-0.003193952531149623,0.0,0.37278,-0.33354000000000006,10.05525
5095959545,21.71,0.004258603374866164,-0.001064650843716541,0.0,0.41202000000000005,-0.05886,9.99639
5101010050,21.71,0.008517206749732328,0.001064650843716541,0.0,0.42183,0.11772,9.87867
5106060555,21.71,-0.001064650843716541,0.01064650843716541,0.0,0.32373,0.06867000000000001,9.82962
5111111060,21.71,-0.01811651763570114,0.003193952531149623,0.0,0.24525000000000002,-0.20601000000000003,9.81
5116161565,21.71,-0.02982767691658309,-0.002129301687433082,0.0,0.20601000000000003,-0.44145,9.82962
5121212070,21.71,-0.024504422698000388,-0.012775810124598492,0.0,0.24525000000000002,-0.5493600000000001,9.85905
5126262575,21.71,-0.006387905062299246,-0.01811651763570114,0.0,0.41202000000000005,-0.37278,9.888480000000001
5131313080,21.71,0.00958185759344887,-0.011711159280881954,0.0,0.5886,-0.08829,9.87867
5136363585,21.71,0.014905111812031574,0.004258603374866164,0.0,0.56898,0.10791,9.83943
5141414090,21.71,0.004258603374866164,0.022375121010567305,0.0,0.43164,0.02943,9.819809999999999
5146464595,21.71,-0.012775810124598492,0.02663372438543347,0.0,0.22563,-0.18639,9.85905
5151515100,21.71,-0.02556907354171693,0.01064650843716541,0.0,0.10791,-0.41202000000000005,9.83943
5156565605,21.71,-0.022375121010567305,-0.011711159280881954,0.0,0.13734000000000002,-0.44145,9.81
5161616110,21.71,-0.008517206749732328,-0.022375121010567305,0.0,0.26487,-0.27468000000000004,9.79038
5166666615,21.71,0.004258603374866164,-0.01918116847941768,0.0,0.46107000000000004,-0.06867000000000001,9.760950000000001
5171717120,21.71,0.003193952531149623,-0.004258603374866164,0.0,0.5493600000000001,0.0,9.81
5176767625,21.71,-0.004258603374866164,0.00958185759344887,0.0,0.46107000000000004,-0.06867000000000001,9.85905
5181818130,21.71,-0.015987215948268057,0.011711159280881954,0.0,0.40221,-0.24525000000000002,9.87867
5186868635,21.71,-0.01811651763570114,0.006387905062299246,0.0,0.33354000000000006,-0.3924,9.888480000000001
5191919140,21.71,-0.01064650843716541,0.006387905062299246,0.0,0.31392000000000003,-0.38259000000000004,9.85905
5196969645,21.71,-0.004258603374866164,0.004258603374866164,0.0,0.24525000000000002,-0.27468000000000004,9.888480000000001
5202020150,21.71,0.002129301687433082,0.001064650843716541,0.0,0.23544,-0.16677000000000003,9.937529999999999
5207070655,21.71,0.002129301687433082,-0.005323254218582705,0.0,0.30411,-0.11772,10.045440000000001
5212121160,21.71,-0.003193952531149623,-0.00958185759344887,0.0,0.38259000000000004,-0.20601000000000003,10.12392
5217171665,21.71,-0.01064650843716541,-0.00958185759344887,0.0,0.42183,-0.36297,10.143540000000002
5222222170,21.71,-0.007452555906015787,0.0,0.0,0.45126,-0.42183,10.12392
5227272675,21.71,0.0,0.004258603374866164,0.0,0.42183,-0.34335000000000004,10.05525
5232323180,21.71,0.006387905062299246,0.004258603374866164,0.0,0.35316,-0.17658,10.01601
5237373685,21.71,0.01064650843716541,0.003193952531149623,0.0,0.34335000000000004,-0.04905,9.94734
5242424190,21.71,0.003193952531149623,0.005323254218582705,0.0,0.34335000000000004,-0.07848000000000001,9.89829
5247474695,21.71,-0.004258603374866164,0.004258603374866164,0.0,0.24525000000000002,-0.22563,9.908100000000001
5252525200,21.71,-0.00958185759344887,0.0,0.0,0.20601000000000003,-0.30411,9.937529999999999
5257575705,21.71,-0.006387905062299246,-0.00958185759344887,0.0,0.22563,-0.33354000000000006,9.89829
5262626210,21.71,0.001064650843716541,-0.021310470166850764,0.0,0.35316,-0.18639,9.819809999999999
5267676715,21.71,0.002129301687433082,-0.020245819323134222,0.0,0.50031,-0.11772,9.70209
5272727220,21.71,0.0,-0.005323254218582705,0.0,0.52974,-0.0981,9.64323
5277777725,21.71,-0.005323254218582705,0.012775810124598492,0.0,0.45126,-0.13734000000000002,9.60399
5282828230,21.71,-0.006387905062299246,0.0170518667919846,0.0,0.35316,-0.18639,9.69228
5287878735,21.71,-0.01064650843716541,0.012775810124598492,0.0,0.27468000000000004,-0.26487,9.770760000000001
5292929240,21.71,-0.007452555906015787,0.005323254218582705,0.0,0.24525000000000002,-0.31392000000000003,9.82962
5297979745,21.71,-0.003193952531149623,-0.001064650843716541,0.0,0.27468000000000004,-0.28449,9.92772
5303030250,21.71,0.0,-0.004258603374866164,0.0,0.32373,-0.17658,9.888480000000001
5308080755,21.71,0.007452555906015787,-0.001064650843716541,0.0,0.33354000000000006,-0.06867000000000001,9.89829
5313131260,21.71,0.0,0.0,0.0,0.38259000000000004,-0.04905,9.908100000000001
5318181765,21.71,-0.007452555906015787,-0.001064650843716541,0.0,0.3924,-0.20601000000000003,9.91791
5323232270,21.71,-0.014905111812031574,0.003193952531149623,0.0,0.37278,-0.41202000000000005,9.94734
5328282775,21.71,-0.011711159280881954,0.007452555906015787,0.0,0.32373,-0.47088,10.01601
5333333280,21.71,0.002129301687433082,0.006387905062299246,0.0,0.2943,-0.34335000000000004,10.045440000000001
5338383785,21.71,0.01064650843716541,-0.002129301687433082,0.0,0.33354000000000006,-0.08829,10.09449
5343434290,21.71,0.01064650843716541,-0.003193952531149623,0.0,0.38259000000000004,-0.06867000000000001,10.025820000000001
5348484795,21.71,0.0,0.0,0.0,0.40221,-0.15696000000000002,9.98658
5353535300,21.71,-0.006387905062299246,0.0,0.0,0.32373,-0.30411,9.98658
5358585805,21.71,-0.006387905062299246,0.001064650843716541,0.0,0.33354000000000006,-0.40221,9.95715
5363636310,21.71,-0.001064650843716541,-0.002129301687433082,0.0,0.30411,-0.31392000000000003,9.96696
5368686815,21.71,0.007452555906015787,-0.006387905062299246,0.0,0.37278,-0.1962,9.92772
5373737320,21.71,0.00958185759344887,-0.002129301687433082,0.0,0.42183,-0.15696000000000002,9.908100000000001
5378787825,21.71,0.007452555906015787,0.004258603374866164,0.0,0.36297,-0.12753,9.83943
5383838330,21.71,0.003193952531149623,0.007452555906015787,0.0,0.32373,-0.0981,9.80019
5388888835,21.71,0.0,0.003193952531149623,0.0,0.20601000000000003,-0.13734000000000002,9.80019
5393939340,21.71,-0.006387905062299246,-0.006387905062299246,0.0,0.24525000000000002,-0.20601000000000003,9.68247
5398989845,21.71,-0.005323254218582705,-0.01064650843716541,0.0,0.32373,-0.26487,9.66285
5404040350,21.71,-0.007452555906015787,-0.011711159280881954,0.0,0.40221,-0.30411,9.633420000000001
5409090855,21.71,0.0,-0.005323254218582705,0.0,0.41202000000000005,-0.24525000000000002,9.72171
5414141360,21.71,0.002129301687433082,0.001064650843716541,0.0,0.46107000000000004,-0.17658,9.770760000000001
5419191865,21.71,0.006387905062299246,0.00958185759344887,0.0,0.49050000000000005,-0.12753,9.82962
5424242370,21.71,0.002129301687433082,0.015987215948268057,0.0,0.41202000000000005,-0.1962,9.84924
5429292875,21.71,-0.002129301687433082,0.01918116847941768,0.0,0.2943,-0.28449,9.89829
5434343380,21.71,-0.005323254218582705,0.011711159280881954,0.0,0.16677000000000003,-0.30411,9.94734
5439393885,21.71,0.001064650843716541,-0.006387905062299246,0.0,0.18639,-0.24525000000000002,9.98658
5444444390,21.71,0.001064650843716541,-0.014905111812031574,0.0,0.2943,-0.27468000000000004,10.025820000000001
5449494895,21.71,0.002129301687433082,-0.015987215948268057,0.0,0.43164,-0.24525000000000002,10.05525
5454545400,21.71,0.004258603374866164,-0.004258603374866164,0.0,0.45126,-0.28449,10.11411
5459595905,21.71,0.004258603374866164,0.004258603374866164,0.0,0.48069000000000006,-0.26487,10.15335
5464646410,21.71,0.008517206749732328,0.008517206749732328,0.0,0.41202000000000005,-0.23544,10.1043
5469696915,21.71,0.00958185759344887,0.006387905062299246,0.0,0.32373,-0.18639,10.03563
5474747420,21.71,0.008517206749732328,0.007452555906015787,0.0,0.28449,-0.17658,9.97677
5479797925,21.71,0.004258603374866164,0.004258603374866164,0.0,0.23544,-0.18639,9.92772
5484848430,21.71,0.004258603374866164,0.0,0.0,0.22563,-0.21582,9.908100000000001
5489898935,21.71,0.004258603374866164,-0.005323254218582705,0.0,0.2943,-0.21582,9.937529999999999
5494949440,21.71,0.003193952531149623,-0.011711159280881954,0.0,0.41202000000000005,-0.24525000000000002,9.92772
5499999945,21.71,0.004258603374866164,-0.015987215948268057,0.0,0.46107000000000004,-0.24525000000000002,9.87867
5505050450,21.71,0.006387905062299246,-0.003193952531149623,0.0,0.48069000000000006,-0.26487,9.82962
5510100955,21.71,0.01064650843716541,0.008517206749732328,0.0,0.3924,-0.20601000000000003,9.80019
5515151460,21.71,0.01064650843716541,0.013840460968315033,0.0,0.34335000000000004,-0.12753,9.770760000000001
5520201965,21.71,0.01064650843716541,0.012775810124598492,0.0,0.2943,-0.15696000000000002,9.82962
5525252470,21.71,0.003193952531149623,0.007452555906015787,0.0,0.30411,-0.24525000000000002,9.86886
5530302975,21.71,0.0,0.002129301687433082,0.0,0.27468000000000004,-0.33354000000000006,9.87867
5535353480,21.71,0.003193952531149623,-0.001064650843716541,0.0,0.2943,-0.32373,9.91791
5540403985,21.71,0.01064650843716541,-0.01064650843716541,0.0,0.31392000000000003,-0.18639,9.908100000000001
5545454490,21.71,0.013840460968315033,-0.014905111812031574,0.0,0.45126,-0.08829,9.87867
5550504995,21.71,0.008517206749732328,-0.007452555906015787,0.0,0.47088,-0.11772,9.819809999999999
5555555500,21.71,0.003193952531149623,0.0,0.0,0.41202000000000005,-0.23544,9.770760000000001
5560606005,21.71,0.0,0.005323254218582705,0.0,0.32373,-0.2943,9.751140000000001
5565656510,21.71,0.001064650843716541,0.008517206749732328,0.0,0.30411,-0.26487,9.78057
5570707015,21.71,0.005323254218582705,0.007452555906015787,0.0,0.30411,-0.22563,9.82962
5575757520,21.71,0.00958185759344887,0.005323254218582705,0.0,0.28449,-0.17658,9.86886
5580808025,21.71,0.008517206749732328,0.003193952531149623,0.0,0.2943,-0.13734000000000002,9.908100000000001
5585858530,21.71,0.006387905062299246,0.001064650843716541,0.0,0.2943,-0.16677000000000003,9.937529999999999
5590909035,21.71,0.001064650843716541,-0.003193952531149623,0.0,0.30411,-0.25506,9.937529999999999
5595959540,21.71,0.002129301687433082,-0.006387905062299246,0.0,0.35316,-0.31392000000000003,9.94734
5601010045,21.71,0.005323254218582705,-0.006387905062299246,0.0,0.42183,-0.33354000000000006,9.95715
5606060550,21.71,0.007452555906015787,0.003193952531149623,0.0,0.48069000000000006,-0.27468000000000004,9.97677
5611111055,21.71,0.013840460968315033,0.014905111812031574,0.0,0.45126,-0.23544,10.025820000000001
5616161560,21.71,0.0170518667919846,0.0170518667919846,0.0,0.33354000000000006,-0.18639,10.074869999999999
5621212065,21.71,0.01811651763570114,0.01064650843716541,0.0,0.24525000000000002,-0.17658,10.1043
5626262570,21.71,0.012775810124598492,0.005323254218582705,0.0,0.22563,-0.1962,10.09449
5631313075,21.71,0.005323254218582705,-0.00958185759344887,0.0,0.20601000000000003,-0.28449,10.01601
5636363580,21.71,0.005323254218582705,-0.0170518667919846,0.0,0.27468000000000004,-0.35316,9.91791
5641414085,21.71,0.007452555906015787,-0.02556907354171693,0.0,0.44145,-0.30411,9.87867
5646464590,21.71,0.0170518667919846,-0.01811651763570114,0.0,0.5886,-0.16677000000000003,9.80019
5651515095,21.71,0.022375121010567305,0.0,0.0,0.6768900000000001,-0.05886,9.770760000000001
5656565600,21.71,0.01918116847941768,0.02663372438543347,0.0,0.5493600000000001,-0.039240000000000004,9.81
5661616105,21.71,0.012775810124598492,0.04260348704118158,0.0,0.28449,-0.14715,9.89829
5666666610,21.71,0.008517206749732328,0.03408628029144926,0.0,0.009810000000000001,-0.27468000000000004,9.94734
5671717115,21.71,0.007452555906015787,0.00958185759344887,0.0,-0.12753,-0.28449,9.99639
5676767620,21.71,0.01064650843716541,-0.02982767691658309,0.0,0.02943,-0.20601000000000003,9.937529999999999
5681818125,21.71,0.011711159280881954,-0.044732788728614664,0.0,0.38259000000000004,-0.17658,9.81
5686868630,21.71,0.00958185759344887,-0.03834488366631542,0.0,0.5886,-0.21582,9.70209
5691919135,21.71,0.007452555906015787,-0.013840460968315033,0.0,0.70632,-0.1962,9.74133
5696969640,21.71,0.008517206749732328,0.006387905062299246,0.0,0.69651,-0.22563,9.78057
5702020145,21.71,0.013840460968315033,0.024504422698000388,0.0,0.6180300000000001,-0.20601000000000003,9.85905
5707070650,21.71,0.01918116847941768,0.03408628029144926,0.0,0.44145,-0.17658,9.85905
5712121155,21.71,0.020245819323134222,0.03728023282259888,0.0,0.20601000000000003,-0.10791,9.888480000000001
5717171660,21.71,0.020245819323134222,0.020245819323134222,0.0,0.0,-0.009810000000000001,9.888480000000001
5722222165,21.71,0.008517206749732328,-0.003193952531149623,0.0,-0.019620000000000002,-0.05886,9.87867
5727272670,21.71,0.001064650843716541,-0.02556907354171693,0.0,0.12753,-0.22563,9.87867
5732323175,21.71,-0.003193952531149623,-0.04260348704118158,0.0,0.30411,-0.3924,9.86886
5737373680,21.71,0.003193952531149623,-0.031956978604016174,0.0,0.56898,-0.43164,9.89829
5742424185,21.71,0.015987215948268057,-0.005323254218582705,0.0,0.6867000000000001,-0.33354000000000006,9.98658
5747474690,21.71,0.02663372438543347,0.015987215948268057,0.0,0.60822,-0.1962,10.03563
5752525195,21.71,0.03089232776029963,0.02982767691658309,0.0,0.51012,-0.07848000000000001,10.006200000000002
5757575700,21.71,0.02663372438543347,0.031956978604016174,0.0,0.37278,-0.05886,10.05525
5762626205,21.71,0.01064650843716541,0.02556907354171693,0.0,0.20601000000000003,-0.15696000000000002,10.01601
5767676710,21.71,0.008517206749732328,0.01064650843716541,0.0,0.05886,-0.24525000000000002,9.95715
5772727215,21.71,0.007452555906015787,-0.008517206749732328,0.0,0.02943,-0.22563,9.92772
5777777720,21.71,0.013840460968315033,-0.02556907354171693,0.0,0.20601000000000003,-0.23544,9.94734
5782828225,21.71,0.015987215948268057,-0.02663372438543347,0.0,0.36297,-0.25506,9.98658
5787878730,21.71,0.015987215948268057,-0.01811651763570114,0.0,0.52974,-0.26487,10.025820000000001
5792929235,21.71,0.022375121010567305,0.0,0.0,0.5886,-0.20601000000000003,10.06506
5797979740,21.71,0.02556907354171693,0.00958185759344887,0.0,0.5591700000000001,-0.16677000000000003,9.888480000000001
5803030245,21.71,0.023439771854283843,0.011711159280881954,0.0,0.46107000000000004,-0.08829,9.760950000000001
5808080750,21.71,0.0170518667919846,0.01064650843716541,0.0,0.35316,-0.05886,9.70209
5813131255,21.71,0.015987215948268057,0.012775810124598492,0.0,0.24525000000000002,-0.07848000000000001,9.7119
5818181760,21.71,0.014905111812031574,0.007452555906015787,0.0,0.15696000000000002,-0.11772,9.68247
5823232265,21.71,0.013840460968315033,0.002129301687433082,0.0,0.15696000000000002,-0.12753,9.81
5828282770,21.71,0.01064650843716541,-0.005323254218582705,0.0,0.17658,-0.18639,9.91791
5833333275,21.71,0.01064650843716541,-0.01064650843716541,0.0,0.30411,-0.26487,9.94734
5838383780,21.71,0.00958185759344887,-0.014905111812031574,0.0,0.43164,-0.2943,9.91791
5843434285,21.71,0.01811651763570114,-0.00958185759344887,0.0,0.5395500000000001,-0.23544,9.84924
5848484790,21.71,0.022375121010567305,0.0,0.0,0.5493600000000001,-0.10791,9.78057
5853535295,21.71,0.02556907354171693,0.008517206749732328,0.0,0.47088,-0.009810000000000001,9.79038
5858585800,21.71,0.01918116847941768,0.01811651763570114,0.0,0.37278,-0.05886,9.79038
5863636305,21.71,0.011711159280881954,0.024504422698000388,0.0,0.25506,-0.21582,9.92772
5868686810,21.71,0.00958185759344887,0.0170518667919846,0.0,0.20601000000000003,-0.40221,10.08468
5873737315,21.71,0.013840460968315033,0.003193952531149623,0.0,0.16677000000000003,-0.37278,10.212209999999999
5878787820,21.71,0.022375121010567305,-0.01064650843716541,0.0,0.20601000000000003,-0.2943,10.22202
5883838325,21.71,0.03089232776029963,-0.021310470166850764,0.0,0.34335000000000004,-0.07848000000000001,10.12392
5888888830,21.71,0.02769837522915001,-0.021310470166850764,0.0,0.47088,0.039240000000000004,9.97677
5893939335,21.71,0.023439771854283843,-0.015987215948268057,0.0,0.52974,-0.04905,9.83943
5898989840,21.71,0.013840460968315033,0.0,0.0,0.5591700000000001,-0.18639,9.751140000000001
5904040345,21.71,0.012775810124598492,0.023439771854283843,0.0,0.40221,-0.32373,9.81
5909090850,21.71,0.01811651763570114,0.02556907354171693,0.0,0.27468000000000004,-0.31392000000000003,9.97677
5914141355,21.71,0.02556907354171693,0.0170518667919846,0.0,0.16677000000000003,-0.26487,10.06506
5919191860,21.71,0.02769837522915001,0.003193952531149623,0.0,0.15696000000000002,-0.08829,10.05525
5924242365,21.71,0.028763026072866547,-0.011711159280881954,0.0,0.24525000000000002,-0.019620000000000002,9.95715
5929292870,21.71,0.02556907354171693,-0.023439771854283843,0.0,0.38259000000000004,0.08829,9.81
5934343375,21.71,0.01811651763570114,-0.022375121010567305,0.0,0.48069000000000006,0.0,9.67266
5939393880,21.71,0.008517206749732328,-0.008517206749732328,0.0,0.49050000000000005,-0.25506,9.633420000000001
5944444385,21.71,0.005323254218582705,0.007452555906015787,0.0,0.45126,-0.42183,9.69228
5949494890,21.71,0.012775810124598492,0.013840460968315033,0.0,0.3924,-0.42183,9.83943
5954545395,21.71,0.03089232776029963,0.0170518667919846,0.0,0.32373,-0.1962,9.91791
5959595900,21.71,0.04153883619746504,0.011711159280881954,0.0,0.2943,0.05886,9.94734
5964646405,21.71,0.039409534510031964,0.005323254218582705,0.0,0.28449,0.21582,9.888480000000001
5969696910,21.71,0.02556907354171693,-0.001064650843716541,0.0,0.30411,0.10791,9.819809999999999
5974747415,21.71,0.006387905062299246,-0.002129301687433082,0.0,0.28449,-0.17658,9.80019
5979797920,21.71,-0.003193952531149623,-0.006387905062299246,0.0,0.21582,-0.45126,9.81
5984848425,21.71,0.0,-0.014905111812031574,0.0,0.27468000000000004,-0.5591700000000001,9.83943
5989898930,21.71,0.020245819323134222,-0.0170518667919846,0.0,0.44145,-0.35316,9.888480000000001
5994949435,21.71,0.04153883619746504,-0.004258603374866164,0.0,0.59841,0.0,9.937529999999999
5999999940,21.71,0.05113814708343386,0.014905111812031574,0.0,0.5886,0.24525000000000002,10.006200000000002
6005050445,21.71,0.03834488366631542,0.02982767691658309,0.0,0.42183,0.17658,9.98658
6010100950,21.71,0.014905111812031574,0.02556907354171693,0.0,0.16677000000000003,-0.15696000000000002,10.006200000000002
6015151455,21.71,-0.001064650843716541,0.007452555906015787,0.0,0.04905,-0.50031,9.99639
6020201960,21.71,0.001064650843716541,-0.014905111812031574,0.0,0.039240000000000004,-0.5591700000000001,9.91791
6025252465,21.71,0.022375121010567305,-0.03089232776029963,0.0,0.26487,-0.28449,9.83943
6030302970,21.71,0.04366813788489812,-0.02769837522915001,0.0,0.52974,0.08829,9.82962
6035353475,21.71,0.049008845396000776,-0.002129301687433082,0.0,0.65727,0.33354000000000006,9.86886
6040403980,21.71,0.033021629447732716,0.021310470166850764,0.0,0.56898,0.14715,9.937529999999999
6045454485,21.71,0.006387905062299246,0.02982767691658309,0.0,0.33354000000000006,-0.31392000000000003,10.03563
6050504990,21.71,-0.003193952531149623,0.01918116847941768,0.0,0.12753,-0.5886,10.025820000000001
6055555495,21.71,0.013840460968315033,0.0,0.0,0.12753,-0.47088,9.937529999999999
6060606000,21.71,0.039409534510031964,-0.015987215948268057,0.0,0.23544,-0.04905,9.78057
6065656505,21.71,0.05220279792715039,-0.020245819323134222,0.0,0.40221,0.26487,9.74133
6070707010,21.71,0.04153883619746504,-0.002129301687433082,0.0,0.49050000000000005,0.20601000000000003,9.819809999999999
6075757515,21.71,0.013840460968315033,0.011711159280881954,0.0,0.3924,-0.11772,9.98658
6080808020,21.71,-0.001064650843716541,0.00958185759344887,0.0,0.27468000000000004,-0.50031,10.025820000000001
6085858525,21.71,0.01064650843716541,-0.003193952531149623,0.0,0.33354000000000006,-0.49050000000000005,10.05525
6090909030,21.71,0.03408628029144926,-0.004258603374866164,0.0,0.43164,-0.21582,9.95715
6095959535,21.71,0.05220279792715039,0.004258603374866164,0.0,0.44145,0.11772,9.81
6101010040,21.71,0.049008845396000776,0.0170518667919846,0.0,0.32373,0.30411,9.751140000000001
6106060545,21.71,0.03408628029144926,0.013840460968315033,0.0,0.21582,0.13734000000000002,9.760950000000001
6111111050,21.71,0.006387905062299246,0.0,0.0,0.15696000000000002,-0.20601000000000003,9.91791
6116161555,21.71,0.0,-0.014905111812031574,0.0,0.21582,-0.52974,9.96696
6121212060,21.71,0.012775810124598492,-0.021310470166850764,0.0,0.41202000000000005,-0.57879,9.97677
6126262565,21.71,0.03834488366631542,-0.006387905062299246,0.0,0.52974,-0.27468000000000004,9.97677
6131313070,21.71,0.05539675045830002,0.01064650843716541,0.0,0.49050000000000005,0.16677000000000003,9.91791
6136363575,21.71,0.05752605214573309,0.011711159280881954,0.0,0.37278,0.44145,9.80019
6141414080,21.71,0.03408628029144926,0.006387905062299246,0.0,0.35316,0.25506,9.760950000000001
6146464585,21.71,0.005323254218582705,0.004258603374866164,0.0,0.30411,-0.22563,9.72171
6151515090,21.71,-0.008517206749732328,0.012775810124598492,0.0,0.20601000000000003,-0.64746,9.819809999999999
6156565595,21.71,0.008517206749732328,0.006387905062299246,0.0,0.13734000000000002,-0.5493600000000001,9.94734
6161616100,21.71,0.04153883619746504,-0.00958185759344887,0.0,0.20601000000000003,-0.11772,9.95715
6166666605,21.71,0.05965535383316618,-0.022375121010567305,0.0,0.43164,0.27468000000000004,9.91791
6171717110,21.71,0.04581489286485115,-0.013840460968315033,0.0,0.6278400000000001,0.31392000000000003,9.84924
6176767615,21.71,0.022375121010567305,0.00958185759344887,0.0,0.5886,0.02943,9.78057
6181818120,21.71,0.006387905062299246,0.03515093113516579,0.0,0.35316,-0.30411,9.81
6186868625,21.71,0.008517206749732328,0.022375121010567305,0.0,0.11772,-0.40221,9.91791
6191919130,21.71,0.023439771854283843,-0.01064650843716541,0.0,0.11772,-0.23544,9.89829
6196969635,21.71,0.039409534510031964,-0.024504422698000388,0.0,0.40221,-0.02943,9.84924
6202020140,21.71,0.04153883619746504,-0.007452555906015787,0.0,0.5493600000000001,0.019620000000000002,9.86886
6207070645,21.71,0.03408628029144926,0.01811651763570114,0.0,0.41202000000000005,0.02943,9.89829
6212121150,21.71,0.02982767691658309,0.022375121010567305,0.0,0.28449,0.07848000000000001,9.99639
6217171655,21.71,0.028763026072866547,0.001064650843716541,0.0,0.21582,0.0,10.01601
6222222160,21.71,0.020245819323134222,-0.014905111812031574,0.0,0.30411,-0.26487,9.95715
6227272665,21.71,0.011711159280881954,-0.012775810124598492,0.0,0.43164,-0.51993,9.937529999999999
6232323170,21.71,0.021310470166850764,0.002129301687433082,0.0,0.42183,-0.42183,9.937529999999999
6237373675,21.71,0.04581489286485115,0.01064650843716541,0.0,0.30411,0.0,9.98658
6242424180,21.71,0.06497860805174888,0.0,0.0,0.32373,0.41202000000000005,9.97677
6247474685,21.71,0.04581489286485115,-0.006387905062299246,0.0,0.49050000000000005,0.28449,9.98658
6252525190,21.71,0.014905111812031574,0.008517206749732328,0.0,0.50031,-0.21582,9.937529999999999
6257575695,21.71,0.004258603374866164,0.03089232776029963,0.0,0.22563,-0.5493600000000001,9.94734
6262626200,21.71,0.022375121010567305,0.01811651763570114,0.0,0.019620000000000002,-0.31392000000000003,10.01601
6267676705,21.71,0.05220279792715039,-0.021310470166850764,0.0,0.10791,0.10791,9.89829
6272727210,21.71,0.05646140130201656,-0.04366813788489812,0.0,0.47088,0.25506,9.81
6277777715,21.71,0.03408628029144926,-0.015987215948268057,0.0,0.65727,0.08829,9.7119
6282828220,21.71,0.015987215948268057,0.021310470166850764,0.0,0.5591700000000001,-0.16677000000000003,9.72171
6287878725,21.71,0.021310470166850764,0.03089232776029963,0.0,0.32373,-0.1962,9.84924
6292929230,21.71,0.033021629447732716,0.013840460968315033,0.0,0.20601000000000003,-0.12753,9.91791
6297979735,21.71,0.04153883619746504,-0.00958185759344887,0.0,0.26487,-0.02943,9.86886
6303030240,21.71,0.03408628029144926,-0.006387905062299246,0.0,0.36297,-0.07848000000000001,9.819809999999999
6308080745,21.71,0.03089232776029963,0.013840460968315033,0.0,0.28449,-0.05886,9.751140000000001
6313131250,21.71,0.03408628029144926,0.00958185759344887,0.0,0.20601000000000003,0.0,9.819809999999999
6318181755,21.71,0.033021629447732716,-0.008517206749732328,0.0,0.24525000000000002,0.05886,9.888480000000001
6323232260,21.71,0.02769837522915001,-0.021310470166850764,0.0,0.40221,-0.05886,9.87867
6328282765,21.71,0.01918116847941768,-0.011711159280881954,0.0,0.5395500000000001,-0.22563,9.80019
6333333270,21.71,0.023439771854283843,0.012775810124598492,0.0,0.50031,-0.24525000000000002,9.819809999999999
6338383775,21.71,0.03834488366631542,0.020245819323134222,0.0,0.31392000000000003,-0.039240000000000004,9.85905
6343434280,21.71,0.046879543708567686,0.014905111812031574,0.0,0.23544,0.17658,9.87867
6348484785,21.71,0.04153883619746504,0.006387905062299246,0.0,0.24525000000000002,0.16677000000000003,9.89829
6353535290,21.71,0.02556907354171693,-0.003193952531149623,0.0,0.25506,-0.009810000000000001,9.96696
6358585795,21.71,0.013840460968315033,-0.008517206749732328,0.0,0.30411,-0.2943,9.94734
6363636300,21.71,0.014905111812031574,-0.003193952531149623,0.0,0.36297,-0.36297,10.006200000000002
6368686805,21.71,0.03621558197888234,-0.003193952531149623,0.0,0.36297,-0.18639,10.06506
6373737310,21.71,0.05220279792715039,-0.007452555906015787,0.0,0.41202000000000005,0.11772,10.006200000000002
6378787815,21.71,0.05326744877086694,-0.002129301687433082,0.0,0.48069000000000006,0.18639,9.98658
6383838320,21.71,0.03621558197888234,0.011711159280881954,0.0,0.50031,-0.009810000000000001,10.006200000000002
6388888825,21.71,0.024504422698000388,0.02556907354171693,0.0,0.30411,-0.21582,9.97677
6393939330,21.71,0.02769837522915001,0.01918116847941768,0.0,0.13734000000000002,-0.13734000000000002,10.03563
6398989835,21.71,0.04153883619746504,-0.005323254218582705,0.0,0.11772,-0.04905,10.045440000000001
6404040340,21.71,0.03728023282259888,-0.020245819323134222,0.0,0.27468000000000004,-0.05886,9.96696
6409090845,21.71,0.03089232776029963,-0.020245819323134222,0.0,0.41202000000000005,-0.05886,9.85905
6414141350,21.71,0.03621558197888234,-0.006387905062299246,0.0,0.48069000000000006,0.039240000000000004,9.770760000000001
6419191855,21.71,0.04366813788489812,0.008517206749732328,0.0,0.41202000000000005,0.11772,9.73152
6424242360,21.71,0.0404741853537485,0.0170518667919846,0.0,0.36297,0.0981,9.80019
6429292865,21.71,0.02982767691658309,0.01064650843716541,0.0,0.30411,-0.04905,9.819809999999999
6434343370,21.71,0.02769837522915001,0.0,0.0,0.27468000000000004,-0.07848000000000001,9.79038
6439393875,21.71,0.033021629447732716,0.0,0.0,0.32373,-0.07848000000000001,9.74133
6444444380,21.71,0.03515093113516579,0.006387905062299246,0.0,0.2943,-0.019620000000000002,9.68247
6449494885,21.71,0.03728023282259888,0.0,0.0,0.2943,0.10791,9.751140000000001
6454545390,21.71,0.0404741853537485,-0.008517206749732328,0.0,0.32373,0.17658,9.760950000000001
6459595895,21.71,0.03621558197888234,-0.007452555906015787,0.0,0.42183,0.0981,9.73152
6464646400,21.71,0.021310470166850764,0.006387905062299246,0.0,0.42183,-0.16677000000000003,9.83943
6469696905,21.71,0.01811651763570114,0.023439771854283843,0.0,0.27468000000000004,-0.32373,9.89829
6474747410,21.71,0.03515093113516579,0.01811651763570114,0.0,0.16677000000000003,-0.07848000000000001,9.96696
6479797915,21.71,0.05220279792715039,-0.003193952531149623,0.0,0.24525000000000002,0.13734000000000002,9.96696
6484848420,21.71,0.044732788728614664,-0.011711159280881954,0.0,0.41202000000000005,0.11772,9.95715
6489898925,21.71,0.02769837522915001,0.0,0.0,0.44145,-0.08829,9.97677
6494949430,21.71,0.02769837522915001,0.011711159280881954,0.0,0.36297,-0.10791,9.97677
6499999935,21.71,0.04153883619746504,0.00958185759344887,0.0,0.27468000000000004,0.0,10.045440000000001
6505050440,21.71,0.04153883619746504,-0.003193952531149623,0.0,0.2943,-0.04905,10.13373
6510100945,21.71,0.03515093113516579,-0.004258603374866164,0.0,0.34335000000000004,-0.12753,10.12392
6515151450,21.71,0.03621558197888234,-0.001064650843716541,0.0,0.3924,-0.06867000000000001,10.03563
6520201955,21.71,0.04794419455228423,0.003193952531149623,0.0,0.37278,0.10791,9.95715
6525252460,21.71,0.046879543708567686,0.004258603374866164,0.0,0.33354000000000006,0.08829,9.937529999999999
6530302965,21.71,0.03728023282259888,0.002129301687433082,0.0,0.23544,0.009810000000000001,9.94734
6535353470,21.71,0.03408628029144926,-0.008517206749732328,0.0,0.2943,0.08829,9.84924
6540403975,21.71,0.03728023282259888,-0.00958185759344887,0.0,0.3924,0.04905,9.760950000000001
6545454480,21.71,0.03621558197888234,0.001064650843716541,0.0,0.45126,-0.0981,9.79038
6550504985,21.71,0.03515093113516579,0.0170518667919846,0.0,0.2943,-0.06867000000000001,9.819809999999999
6555555490,21.71,0.046879543708567686,0.008517206749732328,0.0,0.20601000000000003,0.1962,9.87867
6560605995,21.71,0.05326744877086694,-0.00958185759344887,0.0,0.27468000000000004,0.23544,9.78057
6565656500,21.71,0.03515093113516579,-0.01064650843716541,0.0,0.38259000000000004,-0.009810000000000001,9.760950000000001
6570707005,21.71,0.021310470166850764,0.001064650843716541,0.0,0.41202000000000005,-0.15696000000000002,9.70209
6575757510,21.71,0.031956978604016174,0.01064650843716541,0.0,0.33354000000000006,0.0,9.68247
6580808015,21.71,0.049008845396000776,0.005323254218582705,0.0,0.32373,0.16677000000000003,9.73152
6585858520,21.71,0.04260348704118158,0.0,0.0,0.36297,0.11772,9.819809999999999
6590909025,21.71,0.033021629447732716,0.002129301687433082,0.0,0.36297,0.04905,9.82962
6595959530,21.71,0.03408628029144926,0.008517206749732328,0.0,0.31392000000000003,0.02943,9.82962
6601010035,21.71,0.03621558197888234,0.014905111812031574,0.0,0.30411,-0.039240000000000004,9.91791
6606060540,21.71,0.03089232776029963,0.01064650843716541,0.0,0.22563,-0.08829,9.98658
6611111045,21.71,0.03728023282259888,-0.011711159280881954,0.0,0.20601000000000003,0.0,10.006200000000002
6616161550,21.71,0.04581489286485115,-0.024504422698000388,0.0,0.40221,0.13734000000000002,9.96696
6621212055,21.71,0.0404741853537485,-0.011711159280881954,0.0,0.5886,0.019620000000000002,9.92772
6626262560,21.71,0.031956978604016174,0.01918116847941768,0.0,0.42183,-0.08829,9.99639
6631313065,21.71,0.039409534510031964,0.024504422698000388,0.0,0.25506,0.019620000000000002,10.05525
6636363570,21.71,0.046879543708567686,0.011711159280881954,0.0,0.23544,0.06867000000000001,10.1043
6641414075,21.71,0.039409534510031964,-0.003193952531149623,0.0,0.26487,-0.07848000000000001,10.17297
6646464580,21.71,0.03621558197888234,-0.006387905062299246,0.0,0.27468000000000004,-0.039240000000000004,10.08468
6651515085,21.71,0.044732788728614664,-0.005323254218582705,0.0,0.31392000000000003,0.10791,9.91791
6656565590,21.71,0.05007349623971732,-0.007452555906015787,0.0,0.36297,0.20601000000000003,9.85905
6661616095,21.71,0.039409534510031964,-0.003193952531149623,0.0,0.41202000000000005,0.11772,9.85905
6666666600,21.71,0.03408628029144926,-0.001064650843716541,0.0,0.41202000000000005,0.08829,9.81
6671717105,21.71,0.03728023282259888,0.003193952531149623,0.0,0.41202000000000005,-0.009810000000000001,9.78057
6676767610,21.71,0.03834488366631542,0.01064650843716541,0.0,0.31392000000000003,-0.04905,9.82962
6681818115,21.71,0.039409534510031964,0.008517206749732328,0.0,0.22563,0.009810000000000001,9.819809999999999
6686868620,21.71,0.05113814708343386,-0.002129301687433082,0.0,0.20601000000000003,0.28449,9.751140000000001
6691919125,21.71,0.049008845396000776,-0.003193952531149623,0.0,0.33354000000000006,0.37278,9.67266
6696969630,21.71,0.031956978604016174,-0.006387905062299246,0.0,0.3924,0.16677000000000003,9.66285
6702020135,21.71,0.021310470166850764,-0.003193952531149623,0.0,0.38259000000000004,-0.02943,9.65304
6707070640,21.71,0.028763026072866547,0.006387905062299246,0.0,0.37278,-0.07848000000000001,9.64323
6712121145,21.71,0.03408628029144926,0.013840460968315033,0.0,0.26487,-0.06867000000000001,9.81
6717171650,21.71,0.03728023282259888,0.006387905062299246,0.0,0.26487,0.04905,9.91791
6722222155,21.71,0.046879543708567686,-0.003193952531149623,0.0,0.38259000000000004,0.15696000000000002,9.95715
6727272660,21.71,0.04581489286485115,0.003193952531149623,0.0,0.44145,0.15696000000000002,9.95715
6732323165,21.71,0.039409534510031964,0.013840460968315033,0.0,0.31392000000000003,0.07848000000000001,10.006200000000002
6737373670,21.71,0.03408628029144926,0.005323254218582705,0.0,0.22563,0.05886,10.05525
6742424175,21.71,0.03728023282259888,-0.005323254218582705,0.0,0.31392000000000003,0.0,10.01601
6747474680,21.71,0.03834488366631542,-0.004258603374866164,0.0,0.36297,-0.07848000000000001,9.98658
6752525185,21.71,0.03834488366631542,0.0,0.0,0.32373,0.0,10.03563
6757575690,21.71,0.05113814708343386,-0.001064650843716541,0.0,0.3924,0.18639,10.045440000000001
6762626195,21.71,0.05220279792715039,0.006387905062299246,0.0,0.43164,0.20601000000000003,10.05525
6767676700,21.71,0.04581489286485115,0.011711159280881954,0.0,0.33354000000000006,0.13734000000000002,10.045440000000001
6772727205,21.71,0.039409534510031964,0.0,0.0,0.23544,0.12753,10.006200000000002
6777777710,21.71,0.039409534510031964,-0.0170518667919846,0.0,0.33354000000000006,0.06867000000000001,9.87867
6782828215,21.71,0.03515093113516579,-0.006387905062299246,0.0,0.42183,-0.019620000000000002,9.72171
6787878720,21.71,0.039409534510031964,0.003193952531149623,0.0,0.27468000000000004,0.08829,9.73152
6792929225,21.71,0.05007349623971732,-0.003193952531149623,0.0,0.27468000000000004,0.32373,9.751140000000001
6797979730,21.71,0.05539675045830002,-0.005323254218582705,0.0,0.45126,0.33354000000000006,9.74133
6803030235,21.71,0.03621558197888234,0.011711159280881954,0.0,0.44145,0.12753,9.819809999999999
6808080740,21.71,0.028763026072866547,0.01064650843716541,0.0,0.24525000000000002,0.0,9.85905
6813131245,21.71,0.03834488366631542,0.001064650843716541,0.0,0.18639,0.019620000000000002,9.819809999999999
6818181750,21.71,0.039409534510031964,-0.001064650843716541,0.0,0.26487,0.019620000000000002,9.79038
6823232255,21.71,0.04366813788489812,0.0,0.0,0.33354000000000006,0.15696000000000002,9.81
6828282760,21.71,0.05007349623971732,-0.00958185759344887,0.0,0.38259000000000004,0.30411,9.78057
6833333265,21.71,0.04794419455228423,-0.001064650843716541,0.0,0.5395500000000001,0.25506,9.84924
6838383770,21.71,0.031956978604016174,0.023439771854283843,0.0,0.41202000000000005,0.04905,9.908100000000001
6843434275,21.71,0.033021629447732716,0.01811651763570114,0.0,0.1962,0.019620000000000002,10.025820000000001
6848484780,21.71,0.04260348704118158,-0.001064650843716541,0.0,0.22563,0.0,10.045440000000001
6853535285,21.71,0.039409534510031964,-0.005323254218582705,0.0,0.28449,0.02943,9.98658
6858585790,21.71,0.04581489286485115,-0.001064650843716541,0.0,0.27468000000000004,0.1962,9.908100000000001
6863636295,21.71,0.049008845396000776,-0.004258603374866164,0.0,0.35316,0.32373,9.83943
6868686800,21.71,0.04366813788489812,0.001064650843716541,0.0,0.40221,0.24525000000000002,9.81
6873737305,21.71,0.03408628029144926,0.004258603374866164,0.0,0.34335000000000004,0.06867000000000001,9.85905
6878787810,21.71,0.031956978604016174,0.002129301687433082,0.0,0.32373,0.02943,9.92772
6883838315,21.71,0.03728023282259888,-0.001064650843716541,0.0,0.32373,-0.02943,9.98658
6888888820,21.71,0.04260348704118158,0.0,0.0,0.36297,0.0,9.97677
6893939325,21.71,0.049008845396000776,0.008517206749732328,0.0,0.34335000000000004,0.18639,9.888480000000001
6898989830,21.71,0.05752605214573309,0.006387905062299246,0.0,0.27468000000000004,0.43164,9.85905
6904040335,21.71,0.05113814708343386,-0.005323254218582705,0.0,0.35316,0.40221,9.83943
6909090840,21.71,0.02982767691658309,-0.001064650843716541,0.0,0.36297,0.15696000000000002,9.79038
6914141345,21.71,0.02556907354171693,0.003193952531149623,0.0,0.2943,-0.02943,9.78057
6919191850,21.71,0.02982767691658309,0.006387905062299246,0.0,0.2943,-0.16677000000000003,9.908100000000001
6924242355,21.71,0.04153883619746504,0.007452555906015787,0.0,0.26487,0.0,9.94734
6929292860,21.71,0.060720004676882725,-0.006387905062299246,0.0,0.33354000000000006,0.37278,9.95715
6934343365,21.71,0.060720004676882725,-0.003193952531149623,0.0,0.51012,0.45126,9.92772
6939393870,21.71,0.04260348704118158,0.00958185759344887,0.0,0.46107000000000004,0.26487,9.84924
6944444375,21.71,0.03408628029144926,0.014905111812031574,0.0,0.28449,0.11772,9.85905
6949494880,21.71,0.03515093113516579,0.008517206749732328,0.0,0.22563,0.02943,9.83943
6954545385,21.71,0.033021629447732716,0.0,0.0,0.23544,-0.039240000000000004,9.83943
6959595890,21.71,0.0404741853537485,-0.011711159280881954,0.0,0.28449,0.10791,9.888480000000001
6964646395,21.71,0.05326744877086694,-0.01064650843716541,0.0,0.50031,0.32373,9.82962
6969696900,21.71,0.054332099614583476,0.008517206749732328,0.0,0.50031,0.35316,9.82962
6974747405,21.71,0.04153883619746504,0.022375121010567305,0.0,0.32373,0.2943,9.91791
6979797910,21.71,0.039409534510031964,0.00958185759344887,0.0,0.21582,0.1962,9.89829
6984848415,21.71,0.03408628029144926,-0.003193952531149623,0.0,0.28449,0.06867000000000001,9.82962
6989898920,21.71,0.028763026072866547,-0.007452555906015787,0.0,0.33354000000000006,-0.05886,9.81
6994949425,21.71,0.03621558197888234,-0.003193952531149623,0.0,0.36297,0.07848000000000001,9.81
6999999930,21.71,0.05539675045830002,-0.003193952531149623,0.0,0.41202000000000005,0.36297,9.79038
7005050435,21.71,0.05965535383316618,0.005323254218582705,0.0,0.44145,0.51012,9.888480000000001
7010100940,21.71,0.046879543708567686,0.00958185759344887,0.0,0.38259000000000004,0.37278,9.94734
7015151445,21.71,0.03089232776029963,0.007452555906015787,0.0,0.2943,0.0981,9.91791
7020201950,21.71,0.022375121010567305,0.012775810124598492,0.0,0.26487,-0.16677000000000003,9.95715
7025252455,21.71,0.031956978604016174,0.005323254218582705,0.0,0.20601000000000003,-0.06867000000000001,9.937529999999999
7030302960,21.71,0.054332099614583476,-0.013840460968315033,0.0,0.26487,0.23544,9.92772
7035353465,21.71,0.06604325889546543,-0.01918116847941768,0.0,0.47088,0.48069000000000006,9.84924
7040403970,21.71,0.04794419455228423,0.0,0.0,0.5591700000000001,0.40221,9.82962
7045454475,21.71,0.03515093113516579,0.012775810124598492,0.0,0.40221,0.1962,9.91791
7050504980,21.71,0.033021629447732716,0.01811651763570114,0.0,0.33354000000000006,0.019620000000000002,9.99639
7055555485,21.71,0.03515093113516579,0.01064650843716541,0.0,0.22563,0.0,9.98658
7060605990,21.71,0.046879543708567686,-0.001064650843716541,0.0,0.1962,0.17658,9.96696
7065656495,21.71,0.05539675045830002,-0.012775810124598492,0.0,0.31392000000000003,0.34335000000000004,9.888480000000001
7070707000,21.71,0.05220279792715039,-0.005323254218582705,0.0,0.38259000000000004,0.3924,9.770760000000001
7075757505,21.71,0.04153883619746504,0.005323254218582705,0.0,0.33354000000000006,0.34335000000000004,9.770760000000001
7080808010,21.71,0.03515093113516579,0.002129301687433082,0.0,0.28449,0.22563,9.819809999999999
7085858515,21.71,0.03089232776029963,-0.007452555906015787,0.0,0.35316,0.07848000000000001,9.84924
7090909020,21.71,0.03408628029144926,-0.004258603374866164,0.0,0.38259000000000004,0.019620000000000002,9.82962
7095959525,21.71,0.04153883619746504,0.006387905062299246,0.0,0.36297,0.1962,9.81
7101010030,21.71,0.054332099614583476,0.007452555906015787,0.0,0.30411,0.43164,9.760950000000001
7106060535,21.71,0.05539675045830002,0.007452555906015787,0.0,0.33354000000000006,0.52974,9.79038
7111111040,21.71,0.0404741853537485,0.007452555906015787,0.0,0.27468000000000004,0.45126,9.72171
7116161545,21.71,0.02769837522915001,0.0,0.0,0.28449,0.16677000000000003,9.73152
7121212050,21.71,0.01811651763570114,-0.001064650843716541,0.0,0.28449,-0.07848000000000001,9.86886
7126262555,21.71,0.02769837522915001,0.001064650843716541,0.0,0.2943,-0.009810000000000001,9.89829
7131313060,21.71,0.05220279792715039,-0.005323254218582705,0.0,0.33354000000000006,0.21582,9.937529999999999
7136363565,21.71,0.06178465552059926,-0.003193952531149623,0.0,0.47088,0.45126,9.94734
7141414070,21.71,0.05646140130201656,0.00958185759344887,0.0,0.48069000000000006,0.52974,9.92772
7146464575,21.71,0.046879543708567686,0.0170518667919846,0.0,0.37278,0.34335000000000004,9.94734
7151515080,21.71,0.02982767691658309,0.01918116847941768,0.0,0.25506,0.07848000000000001,9.96696
7156565585,21.71,0.023439771854283843,0.00958185759344887,0.0,0.13734000000000002,-0.08829,10.025820000000001
7161616090,21.71,0.04153883619746504,-0.00958185759344887,0.0,0.15696000000000002,0.10791,9.98658
7166666595,21.71,0.05752605214573309,-0.022375121010567305,0.0,0.37278,0.35316,9.96696
7171717100,21.71,0.05965535383316618,-0.008517206749732328,0.0,0.51012,0.41202000000000005,9.888480000000001
7176767605,21.71,0.05220279792715039,0.01064650843716541,0.0,0.43164,0.40221,9.89829
7181818110,21.71,0.039409534510031964,0.014905111812031574,0.0,0.28449,0.33354000000000006,9.908100000000001
7186868615,21.71,0.03621558197888234,0.007452555906015787,0.0,0.26487,0.1962,9.89829
7191919120,21.71,0.033021629447732716,0.001064650843716541,0.0,0.21582,0.10791,9.84924
7196969625,21.71,0.04153883619746504,-0.01064650843716541,0.0,0.30411,0.20601000000000003,9.770760000000001
7202020130,21.71,0.05007349623971732,-0.008517206749732328,0.0,0.38259000000000004,0.37278,9.69228
7207070635,21.71,0.05113814708343386,0.003193952531149623,0.0,0.38259000000000004,0.50031,9.69228
7212121140,21.71,0.04581489286485115,0.00958185759344887,0.0,0.32373,0.46107000000000004,9.74133
7217171645,21.71,0.03621558197888234,0.006387905062299246,0.0,0.2943,0.33354000000000006,9.770760000000001
7222222150,21.71,0.02769837522915001,0.001064650843716541,0.0,0.30411,0.0981,9.82962
7227272655,21.71,0.028763026072866547,0.002129301687433082,0.0,0.28449,0.05886,9.83943
7232323160,21.71,0.044732788728614664,0.001064650843716541,0.0,0.27468000000000004,0.21582,9.85905
7237373665,21.71,0.05752605214573309,-0.004258603374866164,0.0,0.33354000000000006,0.48069000000000006,9.83943
7242424170,21.71,0.05326744877086694,-0.001064650843716541,0.0,0.41202000000000005,0.5493600000000001,9.86886
7247474675,21.71,0.03834488366631542,0.005323254218582705,0.0,0.41202000000000005,0.36297,9.92772
7252525180,21.71,0.028763026072866547,0.00958185759344887,0.0,0.33354000000000006,0.10791,9.937529999999999
7257575685,21.71,0.028763026072866547,0.007452555906015787,0.0,0.26487,0.07848000000000001,10.006200000000002
7262626190,21.71,0.04366813788489812,0.004258603374866164,0.0,0.25506,0.1962,9.99639
7267676695,21.71,0.05539675045830002,-0.001064650843716541,0.0,0.34335000000000004,0.41202000000000005,9.95715
7272727200,21.71,0.05646140130201656,-0.003193952531149623,0.0,0.36297,0.45126,9.92772
7277777705,21.71,0.044732788728614664,0.003193952531149623,0.0,0.36297,0.41202000000000005,9.86886
7282828210,21.71,0.03515093113516579,0.001064650843716541,0.0,0.31392000000000003,0.27468000000000004,9.87867
7287878715,21.71,0.03089232776029963,-0.002129301687433082,0.0,0.26487,0.18639,9.86886
7292929220,21.71,0.03834488366631542,-0.008517206749732328,0.0,0.33354000000000006,0.20601000000000003,9.82962
7297979725,21.71,0.049008845396000776,-0.002129301687433082,0.0,0.37278,0.34335000000000004,9.73152
7303030230,21.71,0.05007349623971732,0.006387905062299246,0.0,0.37278,0.48069000000000006,9.78057
7308080735,21.71,0.04794419455228423,0.011711159280881954,0.0,0.33354000000000006,0.49050000000000005,9.78057
7313131240,21.71,0.039409534510031964,0.006387905062299246,0.0,0.24525000000000002,0.41202000000000005,9.79038
7318181745,21.71,0.03515093113516579,0.002129301687433082,0.0,0.25506,0.24525000000000002,9.819809999999999
