#timestamp [ns], temperature [degC], w_RS_S_x [rad s^-1], w_RS_S_y [rad s^-1], w_RS_S_z [rad s^-1], a_RS_S_x [m s^-2], a_RS_S_y [m s^-2], a_RS_S_z [m s^-2]
0.0,22.35,0.0,0.0,0.0,-0.2943,-0.27468,9.81
5000000.0,22.35,0.0,0.0,0.0,-0.31372380019423796,-0.245544299708643,9.829423800194238
10000000.0,22.35,0.0,0.0,0.0,-0.294692399611524,-0.254863800194238,9.858461400582714
15000000.0,22.35,0.0,0.0,0.0,-0.265752899125929,-0.22651289912592898,9.830502899125928
20000000.0,22.35,0.0,0.0,0.0,-0.28370520077695205,-0.22563,9.820202399611524
25000000.0,22.35,0.0,0.0,0.0,-0.30312900097119,-0.26290800194238,9.83844900097119
30000000.0,22.35,0.0,0.0,0.0,-0.26722439766914396,-0.255648599417286,9.830208599417286
35000000.0,22.35,0.0,0.0,0.0,-0.30136320271933204,-0.236813398640334,9.838743300679834
40000000.0,22.35,0.0,0.0,0.0,-0.286059598446096,-0.23544,9.830404799223048
45000000.0,22.35,0.0,0.0,0.0,-0.28449,-0.262221302622213,9.838547100874072
50000000.0,22.35,0.0,0.0,0.0,-0.30214800194238,-0.25604099902881,9.84825900097119
55000000.0,22.35,0.0,0.0,0.0,-0.312840901068309,-0.25506,9.814316395726765
60000000.0,22.35,0.0,0.0,0.0,-0.305287198834572,-0.23779439766914398,9.835898403496284
65000000.0,22.35,0.0,0.0,0.0,-0.27850589621235894,-0.226905298737453,9.813825896212359
70000000.0,22.35,0.0,0.0,0.0,-0.30842640543866406,-0.2762496081579961,9.826873202719332
75000000.0,22.35,0.0,0.0,0.0,-0.305581498543215,-0.259474495629645,9.82962
80000000.0,22.35,0.0,0.0,0.0,-0.295869598446096,-0.23857919689219198,9.837860401553904
85000000.0,22.35,0.0,0.0,0.0,-0.2943,-0.25172460330204605,9.831287698348977
90000000.0,22.35,0.0,0.0,0.0,-0.286255798251858,-0.23897159650371597,9.837664201748142
95000000.0,22.35,0.0,0.0,0.0,-0.29243610184526103,-0.25133220369052206,9.831483898154739
100000000.0,22.35,0.0,0.0,0.0,-0.2943,-0.26290800194238,9.83746800194238
105000000.0,22.35,0.0,0.0,0.0,-0.302049902039499,-0.24937019592100196,9.8316800979605
110000000.0,22.35,0.0,0.0,0.0,-0.29645819786338196,-0.252901802136618,9.821968197863383
115000000.0,22.35,0.0,0.0,0.0,-0.286746297766263,-0.25506,9.834917404467474
120000000.0,22.35,0.0,0.0,0.0,-0.28449,-0.262515602330856,9.83943
125000000.0,22.35,0.0,0.0,0.0,-0.3139200097119001,-0.24279749271607493,9.832072497572025
130000000.0,22.35,0.0,0.0,0.0,-0.29469238989962393,-0.26447761010037607,9.822360597474907
135000000.0,22.35,0.0,0.0,0.0,-0.277328697377787,-0.281841302622213,9.834132605244426
140000000.0,22.35,0.0,0.0,0.0,-0.3099960135966601,-0.27036359456133596,9.832366797280669
145000000.0,22.35,0.0,0.0,0.0,-0.2958695887341959,-0.257904897183549,9.836585102816452
150000000.0,22.35,0.0,0.0,0.0,-0.3050910087407101,-0.25506,9.83256299708643
155000000.0,22.35,0.0,0.0,0.0,-0.32068890301068903,-0.24829109698931098,9.82285109698931
160000000.0,22.35,0.0,0.0,0.0,-0.3037175906765759,-0.24525,9.826480803107808
165000000.0,22.35,0.0,0.0,0.0,-0.287727296795073,-0.27154081281970815,9.823047296795073
170000000.0,22.35,0.0,0.0,0.0,-0.29096460330204604,-0.2715407933959079,9.832759206604091
175000000.0,22.35,0.0,0.0,0.0,-0.287923496600835,-0.2521169932016699,9.826676993201671
180000000.0,22.35,0.0,0.0,0.0,-0.27821159650371596,-0.23897159650371597,9.826088403496284
185000000.0,22.35,0.0,0.0,0.0,-0.2870406071868061,-0.2601612143736121,9.841980607186807
190000000.0,22.35,0.0,0.0,0.0,-0.30038220369052204,-0.2442689815473898,9.837075592618955
195000000.0,22.35,0.0,0.0,0.0,-0.29812589621235897,-0.23161410378764105,9.835604103787642
200000000.0,22.35,0.0,0.0,0.0,-0.2943,-0.25898401553904016,9.82177198834572
205000000.0,22.35,0.0,0.0,0.0,-0.31166371194563713,-0.25152838407248385,9.81578790398188
210000000.0,22.35,0.0,0.0,0.0,-0.29528097960500976,-0.22975019592100196,9.831189608157997
215000000.0,22.35,0.0,0.0,0.0,-0.280271704176117,-0.2535885208805852,9.833838295823883
220000000.0,22.35,0.0,0.0,0.0,-0.3119580213661802,-0.27468,9.82962
225000000.0,22.35,0.0,0.0,0.0,-0.3065624781482248,-0.25309798251857984,9.84041100874071
230000000.0,22.35,0.0,0.0,0.0,-0.27919259553252596,-0.2513322134024221,9.833347786597578
235000000.0,22.35,0.0,0.0,0.0,-0.29027791369377914,-0.26487,9.835407913693778
240000000.0,22.35,0.0,0.0,0.0,-0.30411,-0.24956638601486386,9.833936386014864
245000000.0,22.35,0.0,0.0,0.0,-0.30411,-0.23043689524116895,9.839822419035324
250000000.0,22.35,0.0,0.0,0.0,-0.2942999902880999,-0.2550600291357003,9.84433498543215
255000000.0,22.35,0.0,0.0,0.0,-0.29891071485920717,-0.27006928514079287,9.82962
260000000.0,22.35,0.0,0.0,0.0,-0.31392,-0.24564238989962392,9.824911194949813
265000000.0,22.35,0.0,0.0,0.0,-0.3046985897053859,-0.24927211544192115,9.824420705147308
270000000.0,22.35,0.0,0.0,0.0,-0.3123504209777042,-0.26938260524442603,9.82962
275000000.0,22.35,0.0,0.0,0.0,-0.3202964839753648,-0.26585098931690987,9.825205494658455
280000000.0,22.35,0.0,0.0,0.0,-0.2997935945613359,-0.25506,9.828442810877329
285000000.0,22.35,0.0,0.0,0.0,-0.2943,-0.25927830553578307,9.835211694464217
290000000.0,22.35,0.0,0.0,0.0,-0.30666061689870616,-0.24838917746839176,9.825499794367099
295000000.0,22.35,0.0,0.0,0.0,-0.3036194713498947,-0.2336742114600421,9.835898422920085
300000000.0,22.35,0.0,0.0,0.0,-0.27860400582714007,-0.2648700291357003,9.85120198834572
305000000.0,22.35,0.0,0.0,0.0,-0.2921418118485181,-0.28282228222722283,9.835604094075741
310000000.0,22.35,0.0,0.0,0.0,-0.30411,-0.2536865819358658,9.840803418064134
315000000.0,22.35,0.0,0.0,0.0,-0.2932208816445088,-0.23544,9.840901469407514
320000000.0,22.35,0.0,0.0,0.0,-0.28527481864684817,-0.23897160621561606,9.82765803107808
325000000.0,22.35,0.0,0.0,0.0,-0.2938094810617948,-0.24868350631273506,9.848749481061795
330000000.0,22.35,0.0,0.0,0.0,-0.27468,-0.25506,9.82962
335000000.0,22.35,0.0,0.0,0.0,-0.2811546130139461,-0.25506,9.823145386986054
340000000.0,22.35,0.0,0.0,0.0,-0.3005784132081841,-0.25192079339590795,9.813139206604092
345000000.0,22.35,0.0,0.0,0.0,-0.3108788932987889,-0.24829110670121107,9.822851106701211
350000000.0,22.35,0.0,0.0,0.0,-0.30116699320166995,-0.25506,9.83256300679833
355000000.0,22.35,0.0,0.0,0.0,-0.3056796275817963,-0.2465252793136528,9.84227490689545
360000000.0,22.35,0.0,0.0,0.0,-0.3225527720297277,-0.23112361398513614,9.843746386014864
365000000.0,22.35,0.0,0.0,0.0,-0.2943,-0.24789870708968706,9.82962
370000000.0,22.35,0.0,0.0,0.0,-0.2943,-0.25250939281319396,9.832170607186807
375000000.0,22.35,0.0,0.0,0.0,-0.29920501456785015,-0.24279749271607493,9.836977492716075
380000000.0,22.35,0.0,0.0,0.0,-0.3021479630947796,-0.24250322214313222,9.827265592618955
385000000.0,22.35,0.0,0.0,0.0,-0.2716389224344892,-0.26487,9.824322614956326
390000000.0,22.35,0.0,0.0,0.0,-0.2943,-0.2627117924247179,9.837271792424717
395000000.0,22.35,0.0,0.0,0.0,-0.29223989232759895,-0.25506,9.8275598923276
400000000.0,22.35,0.0,0.0,0.0,-0.2864520077695201,-0.2570220077695201,9.825696023308561
405000000.0,22.35,0.0,0.0,0.0,-0.29802781573327813,-0.2611421842667218,9.84924
410000000.0,22.35,0.0,0.0,0.0,-0.31568580796375806,-0.24171838407248383,9.845708384072484
415000000.0,22.35,0.0,0.0,0.0,-0.3170591677564917,-0.2323008322435083,9.827952291939123
420000000.0,22.35,0.0,0.0,0.0,-0.2860596081579961,-0.26487,9.822949216315992
425000000.0,22.35,0.0,0.0,0.0,-0.2943,-0.2633984917448849,9.840901508255115
430000000.0,22.35,0.0,0.0,0.0,-0.2929265916477659,-0.25506,9.84924
435000000.0,22.35,0.0,0.0,0.0,-0.2857653084493531,-0.2563353084493531,9.847964691550647
440000000.0,22.35,0.0,0.0,0.0,-0.2954772085464721,-0.26487,9.838252791453527
445000000.0,22.35,0.0,0.0,0.0,-0.30411,-0.2627117827128178,9.830699108643591
450000000.0,22.35,0.0,0.0,0.0,-0.3021479825185798,-0.24917403496284035,9.83746798251858
455000000.0,22.35,0.0,0.0,0.0,-0.2853729088378291,-0.2836070911621709,9.82069290883783
460000000.0,22.35,0.0,0.0,0.0,-0.2935151910650519,-0.2723255731951557,9.828835191065052
465000000.0,22.35,0.0,0.0,0.0,-0.28449,-0.24456329096793292,9.81981
470000000.0,22.35,0.0,0.0,0.0,-0.2856672182583722,-0.23720582738755827,9.820987218258372
475000000.0,22.35,0.0,0.0,0.0,-0.3036194907736949,-0.2638889815473898,9.837958472321084
480000000.0,22.35,0.0,0.0,0.0,-0.2943,-0.24603481864684817,9.810392409323425
485000000.0,22.35,0.0,0.0,0.0,-0.2943,-0.2645756905794569,9.820104309420543
490000000.0,22.35,0.0,0.0,0.0,-0.2948886285529863,-0.2544713714470137,9.830208628552986
495000000.0,22.35,0.0,0.0,0.0,-0.32363189038521895,-0.2258262192295622,9.858559451926094
500000000.0,22.35,0.0,0.0,0.0,-0.31391996115239956,-0.24525003884760038,9.810000009711901
505000000.0,22.35,0.0,0.0,0.0,-0.2750723607639236,-0.2840976392360764,9.819711909809019
510000000.0,22.35,0.0,0.0,0.0,-0.3035214297184143,-0.2460347603754476,9.848651429718414
515000000.0,22.35,0.0,0.0,0.0,-0.3231414200065142,-0.2547657100032571,9.84924
520000000.0,22.35,0.0,0.0,0.0,-0.2766419494981195,-0.2456423898996239,9.811569559598496
525000000.0,22.35,0.0,0.0,0.0,-0.3026385305924853,-0.2638890203949902,9.82863902039499
530000000.0,22.35,0.0,0.0,0.0,-0.3133314102946141,-0.2464271794107718,9.82962
535000000.0,22.35,0.0,0.0,0.0,-0.2865500688248007,-0.2361266896082669,9.82962
540000000.0,22.35,0.0,0.0,0.0,-0.28449,-0.23544,9.82962
545000000.0,22.35,0.0,0.0,0.0,-0.32019844234388445,-0.2622213317579133,9.83854711058597
550000000.0,22.35,0.0,0.0,0.0,-0.2972429679507297,-0.2383829679507297,9.83060098931691
555000000.0,22.35,0.0,0.0,0.0,-0.2943,-0.27909455390104554,9.82962
560000000.0,22.35,0.0,0.0,0.0,-0.3288312435093124,-0.28449,9.82962
565000000.0,22.35,0.0,0.0,0.0,-0.30793586707665865,-0.2162123122044231,9.838154710974447
570000000.0,22.35,0.0,0.0,0.0,-0.2872367778568678,-0.25662966642939666,9.814120166785303
575000000.0,22.35,0.0,0.0,0.0,-0.3095055335060553,-0.24819297766262977,9.826677022337371
580000000.0,22.35,0.0,0.0,0.0,-0.28919876620258766,-0.24525,9.82962
585000000.0,22.35,0.0,0.0,0.0,-0.27634768863707687,-0.24525,9.837762311362923
590000000.0,22.35,0.0,0.0,0.0,-0.2907684229200842,-0.2532942114600421,9.815297365619873
595000000.0,22.35,0.0,0.0,0.0,-0.3101922231143222,-0.23916777688567778,9.841784446228644
600000000.0,22.35,0.0,0.0,0.0,-0.29822397669143974,-0.2511360233085602,9.84924
605000000.0,22.35,0.0,0.0,0.0,-0.2943,-0.23956017649720177,9.833740176497201
610000000.0,22.35,0.0,0.0,0.0,-0.3019518118485181,-0.23544,9.821968188151482
615000000.0,22.35,0.0,0.0,0.0,-0.28900257610872576,-0.25810113583691136,9.827363711945637
620000000.0,22.35,0.0,0.0,0.0,-0.28449,-0.25741438795724386,9.814708775914488
625000000.0,22.35,0.0,0.0,0.0,-0.29184751213987514,-0.2477024878601249,9.832072536419625
630000000.0,22.35,0.0,0.0,0.0,-0.2943,-0.24525,9.810392351052023
635000000.0,22.35,0.0,0.0,0.0,-0.27281606299766065,-0.2667339370023394,9.814512624668227
640000000.0,22.35,0.0,0.0,0.0,-0.2860596372936964,-0.2888064248624643,9.826873212431233
645000000.0,22.35,0.0,0.0,0.0,-0.3151953375850534,-0.2594744373582444,9.843550225056703
650000000.0,22.35,0.0,0.0,0.0,-0.2962619494981195,-0.2589840252509403,9.82863896212359
655000000.0,22.35,0.0,0.0,0.0,-0.29802782544517825,-0.2581010872774109,9.81981
660000000.0,22.35,0.0,0.0,0.0,-0.3107808128197081,-0.24171837436058374,9.81981
665000000.0,22.35,0.0,0.0,0.0,-0.30077457416634573,-0.22886728708317286,9.826382712916827
670000000.0,22.35,0.0,0.0,0.0,-0.30077461301394615,-0.23857922602789225,9.823145386986054
675000000.0,22.35,0.0,0.0,0.0,-0.31686302622213025,-0.25162651311106515,9.81981
680000000.0,22.35,0.0,0.0,0.0,-0.33000841320818414,-0.2362247603754476,9.838645239624553
685000000.0,22.35,0.0,0.0,0.0,-0.3149990600840906,-0.22563,9.843059686694698
690000000.0,22.35,0.0,0.0,0.0,-0.29194557319515574,-0.2438766402072664,9.827265573195156
695000000.0,22.35,0.0,0.0,0.0,-0.29645822699908225,-0.24907588650045887,9.82579411349954
700000000.0,22.35,0.0,0.0,0.0,-0.29822398640333986,-0.25113601359666016,9.84139202719332
705000000.0,22.35,0.0,0.0,0.0,-0.2943,-0.25506,9.837664172612442
710000000.0,22.35,0.0,0.0,0.0,-0.2999898137908981,-0.2607498137908981,9.846689441372694
715000000.0,22.35,0.0,0.0,0.0,-0.30970171388801715,-0.25368657222396573,9.836683144447932
720000000.0,22.35,0.0,0.0,0.0,-0.2974391580445916,-0.2507436139851361,9.825303613985136
725000000.0,22.35,0.0,0.0,0.0,-0.2790944859177449,-0.26045551408225515,9.82962
730000000.0,22.35,0.0,0.0,0.0,-0.29586965671749654,-0.24897775746187759,9.82962
735000000.0,22.35,0.0,0.0,0.0,-0.2879234286175343,-0.24063931427649315,9.82962
740000000.0,22.35,0.0,0.0,0.0,-0.2801736431208364,-0.2605536431208364,9.824518785626388
745000000.0,22.35,0.0,0.0,0.0,-0.2943,-0.24966442764634428,9.824813114470732
750000000.0,22.35,0.0,0.0,0.0,-0.27467994172859944,-0.24034504370355045,9.8394300291357
755000000.0,22.35,0.0,0.0,0.0,-0.2790945733248457,-0.26948074399490746,9.84924
760000000.0,22.35,0.0,0.0,0.0,-0.3135276295241763,-0.27036355571373555,9.839822370475824
765000000.0,22.35,0.0,0.0,0.0,-0.3098978554223786,-0.2458385702815857,9.820398570281586
770000000.0,22.35,0.0,0.0,0.0,-0.28076215513102154,-0.2534904598253046,9.81
775000000.0,22.35,0.0,0.0,0.0,-0.27811354516033543,-0.27468,9.814414515053446
780000000.0,22.35,0.0,0.0,0.0,-0.29861641515056414,-0.2574143393977434,9.815493584849436
785000000.0,22.35,0.0,0.0,0.0,-0.3083283152476831,-0.23122168475231686,9.818436630495366
790000000.0,22.35,0.0,0.0,0.0,-0.29743913862079135,-0.24623107672401076,9.825499784655198
795000000.0,22.35,0.0,0.0,0.0,-0.2827242308838423,-0.2626136536742365,9.811765769116159
800000000.0,22.35,0.0,0.0,0.0,-0.29822401553904015,-0.23740196892191967,9.81196204661712
805000000.0,22.35,0.0,0.0,0.0,-0.30028408436384085,-0.24475957818079577,9.83344591563616
810000000.0,22.35,0.0,0.0,0.0,-0.3017556314665563,-0.27840781573327816,9.831974368533444
815000000.0,22.35,0.0,0.0,0.0,-0.3066605683392057,-0.2590819891872199,9.83432886332159
820000000.0,22.35,0.0,0.0,0.0,-0.2872367681449677,-0.22641484778254847,9.844923536289935
825000000.0,22.35,0.0,0.0,0.0,-0.2815470320492703,-0.25211703204927033,9.823243516024636
830000000.0,22.35,0.0,0.0,0.0,-0.3009708322435083,-0.25819916775649165,9.832955416121754
835000000.0,22.35,0.0,0.0,0.0,-0.31068268378112684,-0.25172463243774634,9.83943
840000000.0,22.35,0.0,0.0,0.0,-0.30411,-0.2585915673680157,9.836290783684008
845000000.0,22.35,0.0,0.0,0.0,-0.30411,-0.24829111641311116,9.82962
850000000.0,22.35,0.0,0.0,0.0,-0.30116698348976984,-0.2462309504693095,9.83256301651023
855000000.0,22.35,0.0,0.0,0.0,-0.29998983321469835,-0.2398545830367458,9.83658508339265
860000000.0,22.35,0.0,0.0,0.0,-0.30842636659106365,-0.27193318329553184,9.82962
865000000.0,22.35,0.0,0.0,0.0,-0.2969487168015872,-0.2542751327936513,9.832268716801588
870000000.0,22.35,0.0,0.0,0.0,-0.29900876620258765,-0.23583246759482468,9.83943
875000000.0,22.35,0.0,0.0,0.0,-0.2869425169958252,-0.26241748300417483,9.836977483004175
880000000.0,22.35,0.0,0.0,0.0,-0.2943,-0.25035116581411165,9.82962
885000000.0,22.35,0.0,0.0,0.0,-0.2875310484298105,-0.23769631719006318,9.827363682809937
890000000.0,22.35,0.0,0.0,0.0,-0.27566108643591086,-0.24740821728718218,9.815493565425635
895000000.0,22.35,0.0,0.0,0.0,-0.3118598826156988,-0.25093976523139766,9.806370352152904
900000000.0,22.35,0.0,0.0,0.0,-0.29822394755573944,-0.23347798251857985,9.83158201748142
905000000.0,22.35,0.0,0.0,0.0,-0.2802717527356175,-0.23681350547123506,9.833838247264383
910000000.0,22.35,0.0,0.0,0.0,-0.3111732707026327,-0.2791925469730255,9.811765817675658
915000000.0,22.35,0.0,0.0,0.0,-0.3300082578177826,-0.25506,9.823145435545555
920000000.0,22.35,0.0,0.0,0.0,-0.26800923573979235,-0.25506,9.836290764260207
925000000.0,22.35,0.0,0.0,0.0,-0.2889045539010456,-0.25506,9.824224553901045
930000000.0,22.35,0.0,0.0,0.0,-0.31392,-0.25506,9.845119745807597
935000000.0,22.35,0.0,0.0,0.0,-0.3100940455162404,-0.2537846818387468,9.821085318161254
940000000.0,22.35,0.0,0.0,0.0,-0.28449,-0.24878165477511655,9.828442781741629
945000000.0,22.35,0.0,0.0,0.0,-0.2866482367109824,-0.2736008816445088,9.824126473421964
950000000.0,22.35,0.0,0.0,0.0,-0.3031289815473898,-0.26290796309477965,9.85610694464217
955000000.0,22.35,0.0,0.0,0.0,-0.29518291854972917,-0.24613291854972918,9.827854162900541
960000000.0,22.35,0.0,0.0,0.0,-0.3048948186468482,-0.25270554405945544,9.812354455940545
965000000.0,22.35,0.0,0.0,0.0,-0.3125465625120656,-0.22563,9.838056562512065
970000000.0,22.35,0.0,0.0,0.0,-0.2937113811589138,-0.22798447536434474,9.821575856523259
975000000.0,22.35,0.0,0.0,0.0,-0.28547103787641037,-0.2643794810617948,9.847277924247178
980000000.0,22.35,0.0,0.0,0.0,-0.30450241903532416,-0.25466758096467584,9.811177257105973
985000000.0,22.35,0.0,0.0,0.0,-0.3121540852053408,-0.24525,9.83943
990000000.0,22.35,0.0,0.0,0.0,-0.25604109614781095,-0.24564243845912437,9.838841342311314
995000000.0,22.35,0.0,0.0,0.0,-0.30411,-0.2647718806733188,9.810098119326682
1000000000.0,22.35,0.0,0.0,0.0,-0.3041099805761998,-0.25505998057619983,9.819810038847601
1005000000.0,22.35,0.0,0.0,0.0,-0.29439808047908084,-0.2453480804790808,9.839233839041839
1010000000.0,22.35,0.0,0.0,0.0,-0.2943,-0.2548638196180382,9.820202360763924
1015000000.0,22.35,0.0,0.0,0.0,-0.2943,-0.25506,9.81981
1020000000.0,22.35,0.0,0.0,0.0,-0.3037176198122762,-0.2644776198122762,9.829227619812276
1025000000.0,22.35,0.0,0.0,0.0,-0.30411,-0.2462309601812096,9.82962
1030000000.0,22.35,0.0,0.0,0.0,-0.31333142000651415,-0.2544714200065142,9.82962
1035000000.0,22.35,0.0,0.0,0.0,-0.2956733597927336,-0.2459366798963668,9.82962
1040000000.0,22.35,0.0,0.0,0.0,-0.27624955959849556,-0.2362247797992478,9.847670440401505
1045000000.0,22.35,0.0,0.0,0.0,-0.3014613608936136,-0.2622213608936136,9.831385759404258
1050000000.0,22.35,0.0,0.0,0.0,-0.2952809796050098,-0.2560409796050098,9.81196195921002
1055000000.0,22.35,0.0,0.0,0.0,-0.2855690795078908,-0.2463290795078908,9.827461840984219
1060000000.0,22.35,0.0,0.0,0.0,-0.29312282058922823,-0.2625156411784564,9.82962
1065000000.0,22.35,0.0,0.0,0.0,-0.31990416205904165,-0.2563352793136528,9.804015837940959
1070000000.0,22.35,0.0,0.0,0.0,-0.3152933792165338,-0.2466233792165338,9.817063241566933
1075000000.0,22.35,0.0,0.0,0.0,-0.29724295823882957,-0.2535885208805852,9.844825562641756
1080000000.0,22.35,0.0,0.0,0.0,-0.3107808419554084,-0.26330042097770423,9.832759158044592
1085000000.0,22.35,0.0,0.0,0.0,-0.29763535785035355,-0.2567276789251768,9.845904642149646
1090000000.0,22.35,0.0,0.0,0.0,-0.2943,-0.23897155765611558,9.833151557656116
1095000000.0,22.35,0.0,0.0,0.0,-0.3022461212690612,-0.2513322425381224,9.853458363807183
1100000000.0,22.35,0.0,0.0,0.0,-0.30411,-0.25506,9.85905
1105000000.0,22.35,0.0,0.0,0.0,-0.30411,-0.2395601570734016,9.843550157073402
1110000000.0,22.35,0.0,0.0,0.0,-0.2964581784395818,-0.24309182156041823,9.847081821560419
1115000000.0,22.35,0.0,0.0,0.0,-0.3094074433150744,-0.25280372165753723,9.834132556684926
1120000000.0,22.35,0.0,0.0,0.0,-0.3064643782453438,-0.25506,9.822164378245343
1125000000.0,22.35,0.0,0.0,0.0,-0.28203743444467433,-0.24034495629644959,9.827167521851775
1130000000.0,22.35,0.0,0.0,0.0,-0.27468,-0.2426994219488942,9.844138843897788
1135000000.0,22.35,0.0,0.0,0.0,-0.30332528818405285,-0.25957264409202646,9.842078677953987
1140000000.0,22.35,0.0,0.0,0.0,-0.2856671114274711,-0.2578067778568678,9.832366777856867
1145000000.0,22.35,0.0,0.0,0.0,-0.3025404889610049,-0.26899024448050246,9.82265487775975
1150000000.0,22.35,0.0,0.0,0.0,-0.29331893298788936,-0.2540789329878893,9.81981
1155000000.0,22.35,0.0,0.0,0.0,-0.27095215513102155,-0.2520189224344892,9.82657892243449
1160000000.0,22.35,0.0,0.0,0.0,-0.2715408225316082,-0.26173082253160823,9.82962
1165000000.0,22.35,0.0,0.0,0.0,-0.28782544525745446,-0.2582972773712728,9.80990183211382
1170000000.0,22.35,0.0,0.0,0.0,-0.2878253772741538,-0.24858537727415378,9.83256311362923
1175000000.0,22.35,0.0,0.0,0.0,-0.29724304564593046,-0.24525,9.842863477177035
1180000000.0,22.35,0.0,0.0,0.0,-0.2915531541598316,-0.2389715770799158,9.826873154159832
1185000000.0,22.35,0.0,0.0,0.0,-0.3030309690516097,-0.24780064603440646,9.813629676982798
1190000000.0,22.35,0.0,0.0,0.0,-0.28959110754271106,-0.26722444622864444,9.816082223114323
1195000000.0,22.35,0.0,0.0,0.0,-0.2926323696343237,-0.28066412321144124,9.81382587678856
1200000000.0,22.35,0.0,0.0,0.0,-0.30411,-0.2491738601486386,9.82177204661712
1205000000.0,22.35,0.0,0.0,0.0,-0.28674622978296227,-0.23141792340567924,9.82962
1210000000.0,22.35,0.0,0.0,0.0,-0.28036982350279827,-0.24112982350279824,9.835309823502799
1215000000.0,22.35,0.0,0.0,0.0,-0.3124486179995862,-0.25084172359991724,9.83943
1220000000.0,22.35,0.0,0.0,0.0,-0.31156550521185505,-0.24956637630296377,9.833936376302963
1225000000.0,22.35,0.0,0.0,0.0,-0.2835089524116895,-0.2560410475883105,9.81882895241169
1230000000.0,22.35,0.0,0.0,0.0,-0.28527484778254847,-0.2489777283261773,9.825892271673823
1235000000.0,22.35,0.0,0.0,0.0,-0.3046986479767865,-0.24063932398839324,9.834230676011607
1240000000.0,22.35,0.0,0.0,0.0,-0.30881877591448775,-0.24014877591448777,9.82962
1245000000.0,22.35,0.0,0.0,0.0,-0.2991068758173688,-0.2454462483652625,9.834623124182631
1250000000.0,22.35,0.0,0.0,0.0,-0.313920097119001,-0.25506,9.83943
1255000000.0,22.35,0.0,0.0,0.0,-0.314312302492523,-0.25025307562313076,9.83943
1260000000.0,22.35,0.0,0.0,0.0,-0.2801735265780353,-0.2546676489479765,9.830012351052023
1265000000.0,22.35,0.0,0.0,0.0,-0.28331289828442896,-0.25103782628667826,9.815199275428894
1270000000.0,22.35,0.0,0.0,0.0,-0.2995973753317738,-0.23995262466822626,9.819025249336454
1275000000.0,22.35,0.0,0.0,0.0,-0.28988547523465474,-0.24966452476534526,9.82962
1280000000.0,22.35,0.0,0.0,0.0,-0.2888064248624643,-0.2464271502750715,9.833936424862465
1285000000.0,22.35,0.0,0.0,0.0,-0.2943,-0.23965832495958325,9.830993350080833
1290000000.0,22.35,0.0,0.0,0.0,-0.2901797749432978,-0.2534904501134045,9.823930225056703
1295000000.0,22.35,0.0,0.0,0.0,-0.2925342503076425,-0.2528036245385362,9.82962
1300000000.0,22.35,0.0,0.0,0.0,-0.3001859747490597,-0.23151597474905974,9.837468050501881
1305000000.0,22.35,0.0,0.0,0.0,-0.2943,-0.23710777604417776,9.837762223955822
1310000000.0,22.35,0.0,0.0,0.0,-0.29057217455482176,-0.26997130178071305,9.827265650890357
1315000000.0,22.35,0.0,0.0,0.0,-0.28811972554229726,-0.2725216467462165,9.83943
1320000000.0,22.35,0.0,0.0,0.0,-0.2872367487211675,-0.23544,9.832366748721167
1325000000.0,22.35,0.0,0.0,0.0,-0.2712464742634647,-0.24917410294614104,9.823243525736535
1330000000.0,22.35,0.0,0.0,0.0,-0.28488255500192555,-0.2646737224990372,9.832955425833655
1335000000.0,22.35,0.0,0.0,0.0,-0.32049267406922677,-0.23553802220768022,9.83943
1340000000.0,22.35,0.0,0.0,0.0,-0.29508464383264643,-0.22523767808367678,9.833151547944215
1345000000.0,22.35,0.0,0.0,0.0,-0.2702656306250563,-0.25133225225002254,9.825892252250023
1350000000.0,22.35,0.0,0.0,0.0,-0.30411,-0.25604092133360923,9.84237302622213
1355000000.0,22.35,0.0,0.0,0.0,-0.30695492631924925,-0.23544,9.843550147361501
1360000000.0,22.35,0.0,0.0,0.0,-0.3029326943345269,-0.24093365283273654,9.837860479249105
1365000000.0,22.35,-0.0002874586052353191,0.002874586052353299,0.0,-0.2879236325674363,-0.28949344467533444,9.853752546973025
1370000000.0,22.35,-0.00023421452170190732,0.019509033775387034,0.0,-0.32883125322121254,-0.5764376224060763,9.864936266106064
1375000000.0,22.35,0.021838646898013115,0.07988846602807084,0.001596993656646506,-0.6327481515115816,-0.7921538410416386,9.881121885722319
1380000000.0,22.35,0.08173238133464879,0.17052548041645946,0.007154462396931087,-1.745790387703804,0.28880723095017236,9.761342962901729
1385000000.0,22.35,0.06504766975128756,0.08118226304944427,0.008602367138861445,-2.469274481254845,0.6823855369413554,9.88406509647055
1390000000.0,22.35,-0.030575073644442445,-0.10970014127529962,0.002278314713836342,-1.8962680051697802,0.9133070851330709,9.751335957008259
1395000000.0,22.35,-0.15907912210312974,-0.2867115635687052,-0.010309508932190022,-0.23141462135964624,-0.583503894085839,9.66598898323039
1400000000.0,22.35,-0.17512570819825551,-0.23840764063343595,-0.015344911125456264,0.8829024473988245,-1.6186441534361415,9.545129184200391
1405000000.0,22.35,0.020760203750838674,0.03872044390300382,-0.006089767285032063,1.4065551255369513,-0.13449807465788077,9.330193200194833
1410000000.0,22.35,0.10043735168735081,0.21062365051465987,0.005600084243994731,0.30469358807683594,-0.6086063199620633,9.459979857301398
1415000000.0,22.35,0.1658160974046328,0.32033086434918634,0.011168178402089573,-1.5159450442975504,0.9970854316548543,9.783122743804828
1420000000.0,22.35,0.05721924889765492,0.15319023040479707,0.0073247768511633775,-3.0842616555473166,0.26997387543423873,10.269105379729355
1425000000.0,22.35,-0.04596249644554136,-0.11398618903994613,-0.0003726548305122903,-2.2646362580078625,0.9280233428241336,9.453896391063864
1430000000.0,22.35,-0.09890219427127109,-0.26781536963090374,-0.009113423280023271,-1.3392561447617615,-0.2597766328416664,9.30890597772896
1435000000.0,22.35,-0.17910566765806668,-0.3007607640847015,-0.011391733777842172,0.40407844332398446,-2.298377457868075,9.585940491940905
1440000000.0,22.35,-0.04482234352104294,-0.11172381847447288,-0.0009794514564265124,1.6268864002510641,-0.1550012165813122,9.942633185889331
1445000000.0,22.35,0.11196464730541378,0.2066443485980516,0.00815524373930398,0.2995949862043499,-0.9362608987913091,10.388295149554352
1450000000.0,22.35,0.12495520338560627,0.3017863908322042,0.01277577955847243,-0.6651241398632415,0.7877433661386337,9.153714407905746
1455000000.0,22.35,0.14105840922916743,0.20458028836276648,0.002619022672626794,-2.5757131478139317,0.8354174521161745,10.131078389052185
1460000000.0,22.35,-0.020758420392764314,-0.04260945700819003,-0.0033643028215296273,-2.366169589506396,0.14361791790127917,9.237489335838692
1465000000.0,22.35,-0.08077125849543328,-0.16920966640197882,-0.005248725571289805,-1.5193694991193951,-0.09839797080687972,9.584764448822446
1470000000.0,22.35,-0.1473486371514831,-0.22210179649321896,-0.0042586033748661,-0.37336434560504345,-1.2664705717052058,10.23693097157611
1475000000.0,22.35,-0.11030864626947089,-0.1854702253837078,-0.0038859538143755736,0.9893378410475785,-1.1095099112959994,10.148934669146946
1480000000.0,22.35,0.0613595401637515,0.04269340041971124,0.003321719991954175,0.7420259852331599,-0.7286848451887484,9.861795563869356
1485000000.0,22.35,0.07862482726760193,0.224434054959408,0.006515675685116814,-0.09555395740623959,-0.06180040400910403,9.474205401816254
1490000000.0,22.35,0.13880995706754087,0.24432527750114177,0.010412250701285305,-1.6137471706096718,0.7859759265756593,10.030331818580517
1495000000.0,22.35,0.04907172986980755,0.05259515754169527,-0.0010965998234469779,-2.3271259349906592,0.3591429674953297,9.768208644996886
1500000000.0,22.35,-0.05007375884230825,-0.11931085006059154,-0.00425859072681395,-1.5695979313652795,-0.019622534805925348,9.515701485920715
1505000000.0,22.35,-0.1376079558246226,-0.16677560314200054,-4.257334353633714e-05,-0.8800530244698302,-0.8645578432552785,10.011008390873783
1510000000.0,22.35,-0.1144774686383859,-0.16097763188015307,-0.0020867220198705887,-0.09436982427499818,-0.9788421226293212,9.95832702402037
1515000000.0,22.35,-0.01684457033176169,-0.0885256685289245,-0.0031620161994712695,0.8635772132786721,-0.16264726927307271,9.85247697630237
1520000000.0,22.35,0.018882470697546425,0.007791444722420368,-0.0031939525311496,0.9680510361934104,-0.46695703334617045,9.811569481903295
1525000000.0,22.35,0.024291505388110014,0.09267462262218189,0.0038859980825580983,0.23494715991767168,-0.35021658530186583,9.437218815148189
1530000000.0,22.35,0.008475616256609,0.06689592995751784,0.00626015341155981,-0.20954290761022906,-0.26035713253427134,10.035435791133759
1535000000.0,22.35,0.030241743491448723,0.04614993454811471,0.005397776541849513,-0.3084266385242664,-0.02697675461166754,10.1569799683398
1540000000.0,22.35,-0.00234094926766186,0.030040558390325572,0.00042584410581969056,-0.45832367860243683,-0.2083650580783506,9.901428332533083
1545000000.0,22.35,-0.0014479121199607431,0.014214610653449733,0.0,-0.7297667702833677,0.03325677028336771,9.441240629521207
1550000000.0,22.35,-0.006813785004266612,-0.03898210533718495,-0.002874567080275056,-0.693566789251768,-0.0647464214964642,9.512757391389574
1555000000.0,22.35,-0.05201812173065322,-0.0883508120243909,-0.0041414950600108,-0.058073025311330295,-0.32294604571226043,9.857285347752352
1560000000.0,22.35,-0.06876880451730238,-0.07311456249207754,0.0004258767799543827,0.3563003817440038,-0.8624969877665698,10.10547792722708
1565000000.0,22.35,-0.03694169466134489,-0.024900450731474018,0.001990900376783457,0.5899740687614408,-0.5990955144683552,10.048382696017526
1570000000.0,22.35,0.016600002031631846,0.04144270930780782,0.0002980956170933282,0.41555086811120867,-0.29626108513901084,9.841587498606575
1575000000.0,22.35,0.04533325840834359,0.08011159162923186,0.0,0.05738730689307309,-0.04659673518786736,9.593198204595382
1580000000.0,22.35,0.03200229382754617,0.07447804608205788,0.0,-0.3790598117217981,-0.10869516827525168,9.72798904448169
1585000000.0,22.35,0.00400596062390321,0.03353548184514519,0.0026509906244354966,-0.6385336080946362,-0.013537368985873668,9.956365938881358
1590000000.0,22.35,-0.03076154208029631,-0.04606125929639489,0.0005749014004054693,-0.4838284587877846,-0.11889769414147695,10.068788077954581
1595000000.0,22.35,-0.06747733914360836,-0.09543124402434584,-0.002587111637052765,0.035317858857678575,-0.44910297727652976,9.989326428228464
1600000000.0,22.35,-0.06263632897617773,-0.07349918735620642,-0.0023422284833624135,0.4846153363574534,-0.6062583418588835,9.825695440594554
1605000000.0,22.35,-0.011686357176324054,-0.012186719389393218,-0.0012882241375430149,0.6232295182263953,-0.5348408258976083,9.697380825897609
1610000000.0,22.35,0.02266947181933494,0.056134547314577565,0.003087504416247896,0.4616578807366788,-0.12752843638408434,9.687963662544638
1615000000.0,22.35,0.03450151795153693,0.054970822032132646,0.000979465158483055,0.12497820796138209,-0.18580209012762092,9.949106866560868
1620000000.0,22.35,0.011928175734624395,0.04439626528802834,0.0024274141685959373,-0.18442894399668944,-0.06396047626920479,9.861796107735762
1625000000.0,22.35,-0.010925826258408801,0.007456768450368384,0.0007984778562450286,-0.36542297345512975,-0.2820386678559867,9.861502720945728
1630000000.0,22.35,-0.01913859618988566,-0.021604110196556624,-0.0007878450604043774,-0.32235625173126253,-0.1332187551937875,9.740740798444907
1635000000.0,22.35,-0.029572202073221636,-0.05258147018942421,-0.0018418494062237558,0.056605256137752524,-0.36414859734818594,9.84266796691618
1640000000.0,22.35,-0.03838749390000386,-0.04414139160727673,-0.0013627496228228657,0.3347178689556787,-0.5654487822603879,9.89829
1645000000.0,22.35,-0.013249193057542658,0.002051640435551852,0.0004471602897095255,0.2600624929091249,-0.44517709705267094,9.926150527808606
1650000000.0,22.35,0.006068548069542013,0.016625999498069248,-0.0011711263627311736,0.1716748397536484,-0.2521163910638639,9.875726711556567
1655000000.0,22.35,0.023551539269937402,0.025537179370212354,-0.0006600765455954606,0.14342213570722134,-0.1352796106824961,9.828933203560831
1660000000.0,22.35,0.005200962137567065,0.02548388047845298,0.0014479321460432962,0.0773025098084251,-0.39475578647085785,9.886518322435082
1665000000.0,22.35,-0.0006813484613028536,0.027006369729906568,0.0028426212625575938,-0.19414109660321094,-0.2536852416936524,9.878473605956236
1670000000.0,22.35,0.0035346478418878755,-0.012717723945100366,0.0010859332994673189,-0.22974977830929777,-0.033549778309297784,9.85905
1675000000.0,22.35,-0.017897591861725532,-0.05416639579004999,-0.001384053158660567,0.22170808223138083,-0.29626356167353557,9.83354386986054
1680000000.0,22.35,-0.03800423789378126,-0.02543622299808513,-8.516144313351409e-05,0.37238724104817245,-0.7059288726473887,9.882594326319843
1685000000.0,22.35,-0.014421680900149836,0.014256116273305038,0.0010646508437165,0.16049068358510685,-0.6149876890231769,9.911729667270896
1690000000.0,22.35,0.04505660445349355,0.04497794345257214,0.0023848250149944,0.0041199045639990425,0.030217557402675566,9.810784274780442
1695000000.0,22.35,0.04472880244962124,0.034784985007757105,0.001895071355665944,-0.04139826584668266,0.07406401844964017,9.870822658466826
1700000000.0,22.35,-0.00873383196051741,-0.003410506069639146,0.0004258567538718242,-0.09025223114322233,-0.4041737170639372,9.888479669795396
1705000000.0,22.35,-0.03113718667188992,-0.011633099874539343,0.0,-0.17559933117579332,-0.677675197410952,9.947634862998848
1710000000.0,22.35,0.009712639040156006,0.02264476932682714,0.0012350021881008654,-0.27840816536168167,-0.4186890064062901,9.919282835350128
1715000000.0,22.35,0.04806450564077126,0.05399461445550728,0.0039498654758930475,-0.525032399225424,0.1448957320208573,9.82687306675273
1720000000.0,22.35,0.03093267062329506,-0.005625955195353159,0.00234221372730164,-0.6384345661374456,0.6549171368110713,9.683646431594465
1725000000.0,22.35,-0.0632791230470724,-0.15760820967312206,-0.004098931202513587,0.17413235837802366,-0.6410927811773279,9.719258337651384
1730000000.0,22.35,-0.11312623499793038,-0.22883843375306598,-0.009177301213401648,2.1068037991745383,-1.2705874364444745,9.808430265587303
1735000000.0,22.35,-0.000571103857305022,-0.02967110569413106,-0.006132359600646588,2.5371559526621597,-1.103136690519067,10.16473202642112
1740000000.0,22.35,0.07282269840785813,0.24203107135643834,0.005621407805915057,0.871120902543409,-0.8620992174742922,10.073297594814777
1745000000.0,22.35,0.14338200490275316,0.31054102113218124,0.010603907689516022,-1.1283530466953307,0.48756276207032767,9.902607891359379
1750000000.0,22.35,0.13688554948796633,0.13848213078701108,0.004790902973617927,-2.4279772774405726,1.0790984363840843,9.97186401424214
1755000000.0,22.35,-0.022025322074227804,-0.12648589467425514,-0.0031088100600943098,-1.7615746436247464,0.6756134387155344,9.877689340887693
1760000000.0,22.35,-0.16277339786646644,-0.2886428375546238,-0.0074525559060157,-0.12320922420629232,-1.3318188299387883,9.965390673487107
1765000000.0,22.35,-0.1524413109171182,-0.2752219490552531,-0.0074525559060157,1.8115241306760415,-1.609219783853298,9.563569508831296
1770000000.0,22.35,0.030271302265783118,-0.050765861793756695,-0.004024354071020789,2.453671080337511,-0.3863230601593306,9.687183544457437
1775000000.0,22.35,0.09277703270820466,0.19409850039863738,0.0057491594566544115,1.2900132761377328,-0.8348281728658817,9.959108414366485
1780000000.0,22.35,0.08504253787948252,0.2611242869399671,0.009965109383653924,-0.06318507816545083,0.03061058828770591,9.881420672328808
1785000000.0,22.35,0.11573645303661502,0.17427007267122596,0.005014494185518328,-1.7584451003612511,0.6575650281011504,10.167669895624298
1790000000.0,22.35,0.03696598844206929,-0.04084330686795466,6.38526372740999e-05,-1.70399300161073,0.585459200644292,9.607912956941929
1795000000.0,22.35,-0.08213107321723707,-0.20118916398163103,-0.003822092745066733,-0.5147260628590608,-0.7099586604903867,9.690614496540444
1800000000.0,22.35,-0.15211941453415304,-0.2045314165311621,-0.004471544926856375,0.9810064681254647,-1.734403874384839,10.377020866952908
1805000000.0,22.35,-0.047870447302344285,-0.08391886547060794,-0.0038965992582683817,2.0010431689207318,-0.7261333250833333,10.56507300038313
1810000000.0,22.35,0.0920847309127888,0.09250534435789412,0.0020228556805400853,1.5093629788209297,-0.27644618672786186,9.779978341334184
1815000000.0,22.35,0.07163514383230891,0.18266697631525824,0.0053232542185827,0.36747759390397594,-0.17638217830692177,9.504911467793816
1820000000.0,22.35,0.093107596134348,0.16205131205080392,0.006089810499210218,-0.8350304523211045,0.24917541405265417,9.919871823243419
1825000000.0,22.35,0.04984814859005021,0.032493089966287705,0.0033536078394325857,-1.295899794753198,0.4659746455156465,9.788907471995374
1830000000.0,22.35,-0.020203945164611877,-0.10142908265726017,-0.003896618230346584,-0.7488918809901188,0.12870428526454286,9.590648257817783
1835000000.0,22.35,-0.0975376745604613,-0.1661147483092288,-0.0024912752379047786,0.0992794811310948,-0.7486049137660491,9.648920726709507
1840000000.0,22.35,-0.07435399284617425,-0.12783431360474454,-0.0007239586949912274,0.7459549732650498,-0.9652984603321846,9.728772163546022
1845000000.0,22.35,0.03499678021770934,0.02012131689133289,0.001980273904968968,1.0863577515020775,-0.13204496523614967,9.550525679184558
1850000000.0,22.35,0.06807142124598406,0.13060675949986017,0.005429707603506082,0.4836294425309945,-0.3757205205519052,9.602028215604182
1855000000.0,22.35,0.07811805479016795,0.15277629882888144,0.001650189255980031,-0.440864498678845,0.10378987206229873,9.794011609650916
1860000000.0,22.35,0.049387083719501804,0.04371309671672922,-0.0018311955302962135,-0.949214407767144,0.1396946890261469,10.094489096793291
1865000000.0,22.35,-0.0013277924801319424,-0.05617680744603562,-0.0007771911844768351,-0.6022343423083435,0.024032145349821427,9.894071373971514
1870000000.0,22.35,-0.07156285769157367,-0.11214344900005006,-0.0002768131613425434,-0.1412618206496182,-0.6939629959281299,9.878082090127622
1875000000.0,22.35,-0.07402767356723501,-0.11291375962687865,-0.0005323175168256563,0.4512623308560233,-1.0864526561898264,9.944886443830864
1880000000.0,22.35,0.0230565411441656,-0.026510504262230672,0.0008091306781681997,0.9574565477511655,-0.22092295280372953,9.792735349435354
1885000000.0,22.35,0.04175593963248414,0.06874646544811308,0.0007346210029535591,0.8932957441186575,-0.49304920867319213,9.855712476395924
1890000000.0,22.35,0.07479469281495177,0.15359254059791075,0.0027254981916414634,-0.004517849670478469,-0.20385176328901763,9.538461255815013
1895000000.0,22.35,0.07585236241768692,0.1530518190897456,0.0010646508437165,-1.2037869772131697,-0.05611069704910698,9.952539042343291
1900000000.0,22.35,0.06285602714527243,0.0694532154487077,0.001277585017676314,-1.5794096309477965,0.46303185237911854,9.880631667853017
1905000000.0,22.35,-0.00853811907717019,-0.044075817400773216,0.0011178633071195182,-1.3369035437941355,0.3198037798596378,9.772721259953213
1910000000.0,22.35,-0.08629242119208808,-0.15710525949925128,-0.0031939525311496,-0.494617194943872,-0.4430256101122561,9.633224208094042
1915000000.0,22.35,-0.11872961167504131,-0.1706205443686521,-0.0031939525311496,0.3037208732988087,-1.4843452601373526,9.786751750666518
1920000000.0,22.35,-0.04329065676848633,-0.0619579881076364,-0.0026829079840356,1.0375060102306601,-0.3080364240902642,10.116857098349572
1925000000.0,22.35,0.06561741478964567,0.07057904504162425,0.001597016844742124,0.9883539478725396,-0.7185793217806932,10.059170859171507
1930000000.0,22.35,0.07192264831265144,0.1929555776543906,0.0104974532505883,0.0011718767133187813,0.0025509373914093733,9.472735311498552
1935000000.0,22.35,0.08371021549601737,0.17642260255826847,0.008751405461368994,-1.247833503402135,0.1422468792526688,10.133434534863344
1940000000.0,22.35,0.04696035918076563,0.042652510148327605,0.0028106659588010624,-1.5409532550309326,0.5536759101317591,9.811175353573553
1945000000.0,22.35,-0.005427240421235217,-0.09304510976316623,-0.0005855784644286232,-1.0974415643188156,0.31734915538149155,9.412990168923702
1950000000.0,22.35,-0.11941721796749043,-0.1800288847342369,-0.004897377438628285,-0.29527800776358004,-0.7534105755959059,9.634401795404617
1955000000.0,22.35,-0.11682165228253111,-0.150015295636913,-0.0009688281466250228,0.4737279758558798,-1.262837388726474,9.82069293797353
1960000000.0,22.35,0.01939566024717669,-0.02760559761972864,0.0005110571951661496,1.157578096467581,-0.3339319431522194,9.834329028423891
1965000000.0,22.35,0.06142405343712653,0.12522223269113314,0.006536964464893675,0.6259716343712163,-0.19335330611493307,9.869251331302513
1970000000.0,22.35,0.09580475043853322,0.18469146874359602,0.008070024325931494,-0.4956047203695472,0.24073774438397746,9.622629573973295
1975000000.0,22.35,0.0424959743646118,0.10163354643760679,0.000904940727207527,-1.344951076724011,0.31342869439788695,9.77370399741214
1980000000.0,22.35,-0.0022160871957546684,-0.015504480558303172,-0.0022996625178564856,-1.3380815001569153,0.10673172314451723,10.009338546194885
1985000000.0,22.35,-0.05654724767518724,-0.10778122588774729,-0.006451792481716698,-0.7076910095129101,-0.17403163626211635,9.84659095299381
1990000000.0,22.35,-0.0931662602710816,-0.14681649997307317,-0.008538503961543925,-0.10378705561127055,-0.7255475226932753,9.76683715960087
1995000000.0,22.35,-0.06409407499124252,-0.0839988968672452,-0.009486001168218253,0.578004889996149,-0.7052404737447047,10.053581641241816
2000000000.0,22.35,0.023439932132059405,0.03728056187929981,8.432034766555027e-09,0.5003072806679728,-0.5984074360583743,9.888479494981194
2005000000.0,22.35,0.06350937603296486,0.11954473713251715,0.0021080171236735235,-0.17952572613035733,0.04257797035147981,9.762224793718648
2010000000.0,22.35,0.08375494071901637,0.1151585481903504,0.005259387879252116,-0.6670819520919196,0.443217400715374,9.857088390418383
2015000000.0,22.35,0.007688035353884001,0.02515506075563037,0.0011923919544124311,-0.8672047827791478,-0.19581026144910263,10.020817565362275
2020000000.0,22.35,-0.047857847786230645,-0.02978391192610055,0.0010646508437165,-0.9484311138886112,-0.31941403159684034,9.92222596840316
2025000000.0,22.35,-0.0500734962397173,-0.08660695879317093,0.0010646508437165,-0.783818292002483,-0.23985414600124147,9.787436449335265
2030000000.0,22.35,-0.030041568627572904,-0.10249311969031477,6.387477136534595e-05,-0.046496285005162785,-0.17088992398779923,9.55003401424214
2035000000.0,22.35,-0.03074328522177466,-0.037942476539359435,0.001980259148908065,0.28282352535043526,-0.5773202787345028,9.6174300557469
2040000000.0,22.35,-0.0063891937467601655,0.03753326626359895,0.001149818610876089,-0.011773386859333879,-0.49089188488081886,9.668736198122762
2045000000.0,22.35,0.05196568332113026,0.08051569300769804,-0.001841858892262868,-0.6016498024652981,0.08171980246529803,9.574461463061615
2050000000.0,22.35,0.057526052145733,0.05539836607417447,-0.00021292152590766424,-0.9044831149261311,0.21680135836911357,9.626553278731532
2055000000.0,22.35,-0.007901055576067434,0.0010043774496920135,-0.0009475435828655463,-0.9057571802522718,-0.3331501546182015,9.886617257561372
2060000000.0,22.35,-0.058162943740454776,-0.03063483448133714,0.0008091433262203496,-0.9284185200390851,-0.5662339602475396,10.19416088041691
2065000000.0,22.35,-0.04444751044368055,-0.05725772940408633,0.00013840025664519674,-0.7271162373564624,-0.3923009774666098,10.129413118678231
2070000000.0,22.35,-0.01863372406500833,-0.04973275560679209,0.0,-0.3252978308802783,-0.24485703709827036,9.734461190673013
2075000000.0,22.35,-0.01038032385564603,-0.0017616866564548125,-0.0018099151825541203,-0.223177298478073,-0.4757862091315621,9.514227734216677
2080000000.0,22.35,-0.0024273688464090393,0.046661225939590746,-0.00034067950067312273,-0.49599497365114975,-0.47048735759097354,9.659319248431592
2085000000.0,22.35,0.018390456561750167,0.06405241016489481,0.002650993786448534,-0.7447761719669618,-0.07837999656469996,9.936550214958702
2090000000.0,22.35,0.01624968255537557,0.032854259415116126,0.004066970628735295,-0.8008884811914848,0.016088481191484812,10.058978165361681
2095000000.0,22.35,-0.012704916617342962,-0.002040954887657643,0.003396231775177526,-0.6772817489142176,-0.16314123593581234,9.931839467528494
2100000000.0,22.35,-0.038770845820621805,-0.02471394639035725,-0.003619848283182259,-0.7102443263198432,-0.4100590605394906,9.780569388150294
2105000000.0,22.35,-0.0243233299953277,-0.032127340488443984,-0.0011178611991108879,-0.7801895862096959,-0.34482088669350885,9.557391477822515
2110000000.0,22.35,-0.015015394308349509,-0.025547740493757506,-0.0008304321059972094,-0.4426253147259532,-0.2527052721262527,9.773704434447644
2115000000.0,22.35,-0.007282176103514067,-0.0029316925434513565,0.0013947059805837633,-0.2904738124306381,-0.46960597352145983,10.128728420009486
2120000000.0,22.35,-0.0077506715491916746,0.03314536418423756,0.002129301687433,-0.4685266706398667,-0.38298153525241535,10.160020511750806
2125000000.0,22.35,0.016249154274574438,0.029029112631981616,0.0029277942997389195,-0.8240416510230164,-0.17167409193734093,9.908098679181588
2130000000.0,22.35,0.01740089215824925,0.0245044226980003,0.0016182603023320793,-0.8640644690184447,0.11458212392622123,9.582798993328389
2135000000.0,22.35,-0.007646418044125584,-0.01748983854826746,-0.002821347238841581,-0.7720465853018659,-0.38386865905488654,9.710920244094403
2140000000.0,22.35,-0.03515104391363072,-0.014611788156416967,-0.0019589440190225875,-0.7526232415669324,-0.4500819270944193,9.868075657236256
2145000000.0,22.35,-0.01991389650784488,-0.0286303331979176,-0.0003087442229991414,-0.7205442916797429,-0.3366788666875887,9.988836841632668
2150000000.0,22.35,-0.005429687577423531,-0.03355393220849747,0.001490520245640474,-0.45223945483669453,-0.3276540835223408,9.86787803949308
2155000000.0,22.35,-0.0002554980314570694,0.012143924583992854,0.0013946880625098845,-0.37042576743315764,-0.3470778837165788,9.81372788371658
2160000000.0,22.35,-0.0003832834103354879,0.03340491285806815,0.0010646508437165,-0.6427528362609285,-0.41319757759867576,9.893189261509493
2165000000.0,22.35,0.016780058665311345,0.032659639033191384,0.002491292101974312,-0.8571983887353839,-0.0865219291635193,9.815983385107033
2170000000.0,22.35,0.01572011645641904,0.005243842369155625,0.0010859301374542816,-0.8183496520545965,-0.11889854878868548,9.819221779346817
2175000000.0,22.35,-0.01566188634485203,-0.007133151483062976,0.0,-0.7048480352855805,-0.4041731829094318,9.913005422467654
2180000000.0,22.35,-0.024376627833082747,-0.010476191874924375,0.0,-0.830319500940995,-0.4061333648417337,9.997567538751076
2185000000.0,22.35,-0.012579924229029585,-0.03962718692580641,-0.0020122039126212214,-0.7058280145648801,-0.21719246629792466,9.926934520943945
2190000000.0,22.35,-0.006792467766372435,-0.04020390212946098,-0.002533864391506273,-0.27467787309387875,-0.3076427910674279,9.808037574618774
2195000000.0,22.35,-0.01289296806405183,-0.00034727742964792835,0.0011179065212977768,-0.2199411379753114,-0.6872905612211057,9.920363565881035
2200000000.0,22.35,0.012992449071997581,0.054335845494192195,0.0038327476749986213,-0.5925260938856609,-0.46302909419949095,9.974807700873477
2205000000.0,22.35,0.04999194040722073,0.06771119561485041,0.006771197958673819,-0.9700141705433417,0.19738011240460115,9.85473291472833
2210000000.0,22.35,0.038309450908483034,0.011906966022452309,0.003577189565293898,-1.070270785367008,0.4253612565872126,9.659513612688237
2215000000.0,22.35,-0.04305602256298845,-0.08901997588443836,-0.0024274226006306848,-0.6526562453160625,-0.16118255934802556,9.710135318616654
2220000000.0,22.35,-0.10354628940292235,-0.1456463859728767,-0.0042586033748661,-0.012554126508141195,-1.0402560221502601,9.940670148658402
2225000000.0,22.35,-0.04495913714676869,-0.07568210691858296,-0.0019163527574123894,0.4492995558463956,-1.2193815305895153,9.879159246679292
2230000000.0,22.35,0.046894500859615315,0.1115572351265098,0.0028745807823315696,0.2638861845201618,-0.7620382877256829,9.915360742767307
2235000000.0,22.35,0.13591939726830898,0.29121263357631444,0.007580332852859436,-1.2044816111557162,0.555156712675267,10.143638838007288
2240000000.0,22.35,0.11547595420378477,0.2195298416805617,0.006813741790088449,-3.0932964225458646,0.6902247690379476,10.079185181739252
2245000000.0,22.35,-0.009668239210760918,-0.0393677595661482,0.00154372006099141,-2.699211252488613,0.5813460944103609,9.712192250497722
2250000000.0,22.35,-0.10972051258749035,-0.27378202226228265,-0.005323292162739099,-1.0987158044591583,-0.5640906021675061,10.006204632576345
2255000000.0,22.35,-0.2092513490897649,-0.3782119571503796,-0.011146908594390902,1.2853236326664361,-1.9594461587504617,10.88184384124954
2260000000.0,22.35,-0.07563659343856335,-0.1423531585348279,-0.006132326926511887,3.149401214759712,-1.1512975175056752,10.856527112585772
2265000000.0,22.35,0.09954471791229656,0.2369657781874025,0.007069338897954034,1.849762513283325,-0.718386695954167,9.879351464606014
2270000000.0,22.35,0.15105142911442523,0.38511952324531984,0.01433020514160432,-0.8954708212644084,0.37200631119066296,9.332842305472424
2275000000.0,22.35,0.1726183511348297,0.2501269507718268,0.01346781878585486,-3.0744589491842897,0.9520529436561295,9.479403618648037
2280000000.0,22.35,0.011501792773402617,-0.03813243360864678,0.005621293973445724,-2.819777587033376,0.35747976575609774,9.48587689141977
2285000000.0,22.35,-0.1077259997231235,-0.2461304724375451,-0.005333934444618817,-1.4650226482302264,0.205513508243235,9.65529900738639
2290000000.0,22.35,-0.18848152283216918,-0.3316817115360208,-0.010029015775149676,-0.4755818610416185,-1.319845717853957,9.967548288636483
2295000000.0,22.35,-0.10621280392172591,-0.20122431563132073,-0.008027438334343003,1.1440503131271031,-1.2576295182659951,9.79096708436087
2300000000.0,22.35,0.072651187036658,0.0796857322662673,0.0008517788560131493,1.3537703949308042,-0.2923454606816547,9.790382233737022
2305000000.0,22.35,0.11976120731826956,0.25698633368013335,0.009762862813760747,-0.44351632328846335,-0.2805543593165435,9.805386031654262
2310000000.0,22.35,0.16235077861653346,0.27123948709538603,0.009283726140207739,-1.953767766154078,0.9025155131021552,9.767429400980696
2315000000.0,22.35,0.08331404719357191,0.07100433389449887,0.0017779229886455538,-2.6432993288987934,0.40682209394902097,10.091542953051231
2320000000.0,22.35,-0.052538902651551145,-0.14154882523519402,-0.0061749993464566945,-1.6641649751955496,0.315878394942684,9.60595290126433
2325000000.0,22.35,-0.1123322391655752,-0.22226777344310805,-0.008463959504185815,-0.8058864872027649,-0.7666591320966913,9.783023177405031
2330000000.0,22.35,-0.1126452069394969,-0.18870157219205616,-0.004939960268203685,0.4489130222225302,-1.3839885544712853,9.928701678861817
2335000000.0,22.35,-0.00437053682212242,-0.030502697308581225,-0.00107528258555278,1.225853608797536,-0.6297058502466585,10.022582654645426
2340000000.0,22.35,0.10307377275787782,0.15323220685357725,0.0037901964655535436,0.29586450941044506,-0.44144318224613177,9.714642436637524
2345000000.0,22.35,0.13322567936386637,0.24156492443978833,0.008591717478951278,-0.8709380857359809,0.5561288544511886,9.338829662746596
2350000000.0,22.35,0.09874673783984167,0.15723228984816412,0.004790904027622263,-1.9786796931098969,0.45518253933022546,9.865916041435462
2355000000.0,22.35,-0.0037457391497247687,-0.03083532732622903,-0.00017036399243654417,-2.147699503326895,0.1301770075071701,9.755849348916593
2360000000.0,22.35,-0.08372646077860564,-0.16746047647029588,-0.004088274164573025,-1.270193803421638,-0.31980920881179214,9.92732906688539
2365000000.0,22.35,-0.1093300622413422,-0.19458741140740943,-0.0055255229225671405,-0.2645716115814162,-0.9360723131152232,10.108321319066112
2370000000.0,22.35,-0.05669441144232641,-0.0971471688877244,-0.0023635098851089065,0.39573581430965815,-1.0945967156947671,9.955972247587123
2375000000.0,22.35,0.042346386577543624,0.03142514414947731,-0.0007985031523493278,0.3458003318183033,-0.507665608607456,9.930173653288136
2380000000.0,22.35,0.10226315517331656,0.1263461070887095,-0.0021718676529389916,-0.14597566617595667,-0.07651545742455457,10.069375521655756
2385000000.0,22.35,0.10829389766206239,0.1642655495207679,0.002044149730338644,-0.8631871348112714,0.25005518594675186,9.905156536742366
2390000000.0,22.35,0.045955946966209034,0.0878662711077029,0.004854797771065872,-1.7318577249601772,0.02020966772629668,9.851202464228825
2395000000.0,22.35,-0.01623283154858486,-0.0360360854016432,0.0014052987242592853,-1.635029304039893,0.10143326007993261,9.92565985348
2400000000.0,22.35,-0.05902019066734147,-0.14147294404114402,-0.00447151330672602,-0.8966298976933991,-0.28841479249104796,9.83550404208094
2405000000.0,22.35,-0.07939740514417219,-0.14124580790161098,-0.001671517033917634,-0.13518002485890024,-0.4833402415699024,9.477930799286408
2410000000.0,22.35,-0.061078656316674085,-0.1014607136041384,-0.0044502456070360345,0.2921451236064513,-0.6837553616024536,9.415247097963471
2415000000.0,22.35,-0.016449381855946358,-0.05556833567891939,-0.00441827554721869,0.8599445061830451,-0.4455714196204142,9.722692407254325
2420000000.0,22.35,0.04349778864852241,0.048148533891002904,0.000681396945502711,0.733784709608247,-0.6195984718656847,9.949693882938439
2425000000.0,22.35,0.05027445464351226,0.13826689242132123,0.004418306113344667,-0.004910181298701827,-0.32176479701534794,9.879651659438016
2430000000.0,22.35,0.09195295923763816,0.1545777911344118,0.004428916775094088,-0.9880654655920547,0.26310481359784815,9.970294503203146
2435000000.0,22.35,0.06919418883532472,0.059533067471419954,-0.0013414703290851313,-1.3777158324365584,0.3255921500127215,9.793420485139606
2440000000.0,22.35,-0.019425910880330848,-0.06485541953139771,-0.0034494790207239873,-1.1787657136860572,-0.047875122309551224,9.707192195275523
2445000000.0,22.35,-0.09102674870273195,-0.1358573738814952,-0.005206137471692623,-0.40289370805493707,-0.5302331120155311,9.89603403243834
2450000000.0,22.35,-0.08138795593708813,-0.1413608201646764,-0.0038327223788943115,0.22759590224145904,-0.9535292398779923,9.947339524116895
2455000000.0,22.35,-0.030569428483559934,-0.06130030660548978,9.582375109582297e-05,0.9347939939768399,-0.4476306337980063,9.848454627774846
2460000000.0,22.35,0.039666592260575624,0.0484012552948804,0.001235005350113911,0.7251527630900277,-0.4638139808296398,9.711505784263158
2465000000.0,22.35,0.06785443910785842,0.1403763652977839,0.0031939525311496,0.2058096823485968,0.07553747879667479,9.391899427908696
2470000000.0,22.35,0.07527829086427679,0.14628157234407577,0.003066184016340677,-0.6152861745607617,0.1755997196517972,9.704444591907146
2475000000.0,22.35,0.03270014435108622,0.06119492308681368,0.0009581753247018263,-1.1762179423740793,0.30263739430017395,9.748197673034676
2480000000.0,22.35,-0.036217239806766936,-0.07460554364863492,-0.0011924246285471497,-0.9362621127788211,0.06474310973853109,9.881809585368195
2485000000.0,22.35,-0.087321784298603,-0.15111791240831635,-0.004354437666005384,-0.0813221487158215,-0.5200313339656134,9.95626695519557
2490000000.0,22.35,-0.08488269437094814,-0.10998285691281501,-0.007303468045303891,0.4616587450957874,-1.1414876340484763,9.92850499346105
2495000000.0,22.35,-0.015304978944022904,-0.017434280631456002,2.1303535837701276e-05,0.49089259384952594,-0.3521785153761851,9.967843336161433
2500000000.0,22.35,0.052202919224043874,0.05007380207376518,0.002129301687433,0.5297379605009795,-0.25505839753648396,10.055248154738981
2505000000.0,22.35,0.07646229793765805,0.11124061165082648,0.002129301687433,0.12183815642198154,0.0654343056684431,9.68619595104846
2510000000.0,22.35,0.028678308572907728,0.10453750562129943,4.257545154502792e-05,-0.70907099282151,0.03982845373878453,9.672856151246261
2515000000.0,22.35,0.0008308133272739923,0.010360140795542969,0.002065433240093729,-0.9923809678240098,0.23907072586800726,9.720238744254287
2520000000.0,22.35,-0.0408995601338953,-0.09889300254127387,-0.005025189167615393,-0.4920669568092696,-0.07495006423120068,9.740545297895952
2525000000.0,22.35,-0.08309359344159135,-0.12255712129401651,-0.006334677842835321,0.14421023697630247,-0.6754215898410159,9.694732254774523
2530000000.0,22.35,-0.06919558717079521,-0.06649220247413429,0.0026190890749005803,0.3149017371332174,-0.8354202879910029,9.766051593137716
2535000000.0,22.35,0.005129569222318026,0.0055021702986086385,0.0022038219026911283,0.14126301521333015,-0.46047933194799334,9.807253396957334
2540000000.0,22.35,0.04789901963228345,0.06944767050463191,0.006047238209678212,0.10045425199064253,0.01059721748617215,9.791949501327096
2545000000.0,22.35,0.041433888172650084,0.07552930327786193,0.004450229796970838,-0.27684027621000273,0.04905,9.826088597734286
2550000000.0,22.35,0.009796360989813218,0.03536538077730852,0.00042583883579795515,-0.5611333868593339,0.022562851407928512,9.661868058916882
2555000000.0,22.35,-0.015421155104346294,-0.02409632821543063,-0.003790178547479657,-0.5973309496278095,-0.18119184143961842,9.686884748139049
2560000000.0,22.35,-0.04153897111002125,-0.0627622234712598,-0.0033217052358933295,-0.3394245082521451,-0.38729984422349845,9.813139896149
2565000000.0,22.35,-0.038249027241084796,-0.06432915481595486,-0.0041202041722252485,-0.030998005694480024,-0.5059022480425225,10.000314996440949
2570000000.0,22.35,-0.02629297110445604,-0.033683977562759745,-0.0005961828021519037,0.23759954781749548,-0.5621132495958325,9.975200100485
2575000000.0,22.35,-0.005485455759462483,0.022849287483430646,0.0027148759358443025,0.2830185500162855,-0.4439017497557175,9.933605799934858
2580000000.0,22.35,0.013982977820359822,0.0561180674382679,0.004982576825918253,0.029036046484460454,-0.19933784693807843,9.845315498865956
2585000000.0,22.35,0.030306851534292543,0.04656686796296481,2.1260321659557005e-05,-0.20689405484204054,0.04659875526308754,9.609776544315865
2590000000.0,22.35,0.006816743110660099,0.0174632515478255,-0.00019163169212645863,-0.261338500615285,-0.07259500615285004,9.540617249077073
2595000000.0,22.35,-0.03171964725323355,-0.009848157061441824,0.0008623726536929198,-0.296654601619046,-0.3145099105237991,9.773704512142846
2600000000.0,22.35,-0.051347663415039026,-0.04900208349159574,0.0002129246879207017,-0.10006068695110687,-0.42575440401504405,10.096453717063937
2605000000.0,22.35,-0.03245024031810388,-0.05584389282993565,0.0,0.2996977769549778,-0.34845059281200597,10.093410444609004
2610000000.0,22.35,-0.024972858065430214,-0.02215219674151509,-0.0016608663200031104,0.5148296111378962,-0.5379818194913182,9.937136687469867
2615000000.0,22.35,-0.0015369570334670749,0.029046748768337495,0.000330058298880301,0.3378549777893498,-0.3340287222366872,9.800091239687912
2620000000.0,22.35,0.019901041767170675,0.03344743455539158,-0.0005536294846981242,0.12556698219286982,-0.18795914198679142,9.882594763355346
2625000000.0,22.35,0.01811647336751855,0.024504378429817848,-0.0002661571774063094,-0.009810611849706108,-0.0931944901252449,9.895837347037572
2630000000.0,22.35,-0.013188960337718665,0.009756650788606675,0.000787847168413069,-0.010202195661621952,-0.28645353253783534,9.910258353253782
2635000000.0,22.35,-0.019553768501703917,-0.004003153827608961,0.0018418515142324475,-0.13606567245255674,-0.29135648818286486,9.860619190546291
2640000000.0,22.35,-0.017349963463082273,-0.018196880784525946,-0.0009369150030423038,0.046697292201472895,-0.3284392615094926,9.782923989769339
2645000000.0,22.35,-0.0019213213684561754,-0.005732760237595395,-0.0006174863379895912,0.06768848624048486,-0.21385697248096971,9.684333334864533
2650000000.0,22.35,-0.006920314277502993,-0.0019163938635819013,0.0007452611768245829,0.059841154419211534,-0.26683282356912824,9.749178720622988
2655000000.0,22.35,-0.008772700565171918,-0.004663181889004592,0.00033003616478903867,0.12959056413170564,-0.29361314528943144,9.851300564131705
2660000000.0,22.35,-0.005280651362924613,0.004812300315842396,0.0,-0.023152995017329953,-0.3311859616711596,9.912024258336542
2665000000.0,22.35,-0.012116835687415959,-0.008976199966099666,0.0007133216831332182,0.010399531759695324,-0.2808597305912973,9.914574496471145
2670000000.0,22.35,-0.0019221929782138273,-0.007564870591827477,-0.00104337471199179,0.11399256303082562,-0.28409791116927907,9.921049303723093
2675000000.0,22.35,-0.007133262153519308,0.002022870436600915,-5.321562541607452e-05,0.1692227597933276,-0.4571472470079725,9.965979311751994
2680000000.0,22.35,0.0025127115782900625,0.01789741736353064,0.0037901796014840426,0.0357071506611715,-0.2507412054339121,9.936352383553723
2685000000.0,22.35,0.012381894972426631,0.0007408572874863933,0.0006281043777694494,-0.04286964784709648,-0.11301140861161409,9.901919647847096
2690000000.0,22.35,-0.002406241329297138,-0.02111226323276109,-0.0014692124937853894,0.20405009000090088,-0.3099975675006757,9.855714234249842
2695000000.0,22.35,-0.01691734744845571,0.00042992749144300096,0.0015331199392855167,0.15568297254432972,-0.5953704180671041,9.86552491408285
2700000000.0,22.35,-0.00490423850583554,0.022162236374811718,0.0006387677397360703,-0.04708868177538682,-0.3825871155656711,9.88848
2705000000.0,22.35,0.0348668851886571,0.024312774141804352,0.00019164855619599182,-0.13861566778965667,0.04159629148966296,9.778508901713789
2710000000.0,22.35,0.020796325136362863,0.008609572001551874,0.0004471476416573756,-0.07004250514552504,-0.08103307400943072,9.70209
2715000000.0,22.35,-0.024294823082773,-0.013062670832909514,0.0,-0.05032577462055774,-0.5374923785740238,9.797149796505497
2720000000.0,22.35,-0.02629290997220401,-0.00401060024736093,-0.0011924204125297625,-0.10477095849820958,-0.6863071245053712,9.973239403821994
2725000000.0,22.35,0.02444547814427452,0.043563751488890606,-0.0009581742706974805,-0.2580043761762438,-0.3345179300683793,9.963525600192455
2730000000.0,22.35,0.052926714461967735,0.0650424237988708,0.002874586052353299,-0.5687857619980576,0.2923417118882171,9.835505469730254
2735000000.0,22.35,0.019648267663075994,-0.026724316888337152,0.002501900655715011,-0.5797694062771941,0.7226057687300578,9.727987762510878
2740000000.0,22.35,-0.08117255307760532,-0.18697520297499104,-0.0027681210733820796,0.2982317170758172,-0.7879560179031602,9.784887570866676
2745000000.0,22.35,-0.11271977042076951,-0.18975803530539048,-0.004780276501803375,2.426911308997813,-1.1101852768287528,9.723375940495059
2750000000.0,22.35,0.009582797281520089,0.03941997812073186,-0.001064616061573138,2.4966306312438062,-0.9908208967519093,9.898293632250637
2755000000.0,22.35,0.1068348671612753,0.2879070338378429,0.008919755268779408,0.23023015802380153,-0.8041124823953252,9.967447556808676
2760000000.0,22.35,0.16886397393568572,0.31595968831662513,0.011890532487776231,-1.4946600167211002,0.7094623629716237,10.106659117652592
2765000000.0,22.35,0.1190595576619832,0.09374512056364628,0.0029490303792985197,-2.3001507537068075,0.9597117092251171,10.025323323717135
2770000000.0,22.35,-0.05626765519077859,-0.16530469335564313,-0.005557518278488799,-1.5246608919207087,0.5369950418819505,9.662067997804181
2775000000.0,22.35,-0.18397502133282087,-0.29598633474976094,-0.008623660134655667,-0.03874254676512545,-1.3091618022356182,10.078795724833459
2780000000.0,22.35,-0.14249421896021186,-0.21641595270182135,-0.006515651443016855,1.7838644935209451,-1.3188348547323487,9.668728710247787
2785000000.0,22.35,0.048237973848793775,0.018277593983744927,-0.0021186140833665055,2.234803495798935,-0.1350966287727663,9.353153763623638
2790000000.0,22.35,0.09131682256920938,0.20359345749361837,0.006600894044484964,0.7753803406887034,-1.0100315304509153,9.695416273610263
2795000000.0,22.35,0.1039348109211176,0.2736372438797657,0.011029759173366127,-0.36190333230043337,0.04552404611024047,9.947249446243495
2800000000.0,22.35,0.12335946997258215,0.16234228190736916,0.006387875550177537,-1.8325100123057,0.7651816315992164,10.410367268362274
2805000000.0,22.35,0.02630379203143314,-0.060844280964276284,0.0007026340790666319,-1.5337861446924614,0.6318576868154768,9.71464418477954
2810000000.0,22.35,-0.10003277217104431,-0.21260124270427672,-0.004003099019383025,-0.34197097816950983,-0.8668264459989646,9.587707746977777
2815000000.0,22.35,-0.14572922568633898,-0.2022436518389851,-0.004929327472363091,0.6547249771557497,-1.7625512722985128,10.05613601664586
2820000000.0,22.35,-0.02300355703685164,-0.06447480524019857,-0.0023422021332538115,1.3910596432534967,-0.5167915120765152,10.411941654775116
2825000000.0,22.35,0.09597608725970218,0.10998522603812427,0.0033004533462685434,1.315026274837863,-0.4885362440884624,10.037095409181855
2830000000.0,22.35,0.06646982653207156,0.1972202364570111,0.0056426196433745955,0.24033538036295388,-0.1277236164403362,9.599481852517718
2835000000.0,22.35,0.09424770892028753,0.16523057215878423,0.0024806424420641187,-1.1193248546531487,0.3125489127918891,10.036511413205215
2840000000.0,22.35,0.043844393830742776,0.01474077266394453,0.0014904812474797466,-1.3628013937121142,0.5383719173825192,9.764872345092224
2845000000.0,22.35,-0.034091069203391354,-0.12479282789945188,-0.002129301687433,-0.6257748712752487,0.06670136871461368,9.586038086824981
2850000000.0,22.35,-0.11686742103894758,-0.1786467803950542,-0.003406906731191945,0.24034970541559708,-0.9398016536168166,9.677565830367458
2855000000.0,22.35,-0.08257183316058984,-0.14708550977004448,-0.005152886010128743,0.895163886373739,-0.9947262363070624,9.732205757265858
2860000000.0,22.35,0.05015369688180646,0.00750298588433973,0.000553672698876359,1.025340311166903,-0.15146906649929065,9.539634900094148
2865000000.0,22.35,0.05551681845191585,0.13587584582601853,0.0074525559060157,0.5971280777466808,-0.3103846158552461,9.47871902681019
2870000000.0,22.35,0.089095000691318,0.1553971554172337,0.005514849020557003,-0.4642137711971377,0.19698524597045244,9.901038360896584
2875000000.0,22.35,0.050335059167689,0.03727955364638867,-0.0007985063143623653,-0.9466624312024243,0.2746804467474045,10.018460545480105
2880000000.0,22.35,-0.0028063137156758393,-0.06805355666714531,-0.0039605193518206,-0.5258140420809404,0.07925875842118757,9.746823264356733
2885000000.0,22.35,-0.0788019484818995,-0.12020506302789483,-0.004918650408339931,-0.12046321358953213,-0.8116815294312153,9.787831529431216
2890000000.0,22.35,-0.06966437378085362,-0.11246759798036862,0.0,0.4600915260652153,-0.9195847408130473,10.012280572091306
2895000000.0,22.35,0.040807959536310605,-0.03359856409163628,0.002235827798656357,0.7632168753619688,-0.27212906260859065,9.771838593912886
2900000000.0,22.35,0.05284166790530797,0.08649543084384892,0.009368890745354306,0.5003069019038691,-0.1667683101293831,9.639304197471342
2905000000.0,22.35,0.06148647979917559,0.13141561916068148,0.004056313590794716,-0.09722212192642123,-0.004024300619443005,9.444088692784188
2910000000.0,22.35,0.049410215814649404,0.07561475414022152,0.0022357361002782686,-0.81678099566281,-0.2538808782092088,9.654216295627863
2915000000.0,22.35,0.03755690685536774,0.03990986510297066,-0.0017673081108787177,-0.9147839155094392,-0.008731862546418629,9.565536158889062
2920000000.0,22.35,0.014195668329249365,0.023774579410352572,0.0006814011615200943,-1.1167703432825034,-0.12674446267254463,9.770367940304979
2925000000.0,22.35,-0.009584599006916026,-0.02797011325589481,0.0034600844124515946,-1.0673264091907642,-0.02844934088769341,9.83305401133154
2930000000.0,22.35,-0.03083102197765775,-0.08433283599284803,-0.0018099373166454106,-0.7253469039729691,-0.1183102504403025,9.888871603235716
2935000000.0,22.35,-0.0514576042066039,-0.119372082581292,-0.006249494265610545,0.004907850442678503,-0.4254624934338249,9.755455715893756
2940000000.0,22.35,-0.055094186536652004,-0.07380458483894742,-0.004939961322208076,0.42575371447013716,-0.8389509715761096,9.6659898281657
2945000000.0,22.35,-0.006926670787646268,0.01279278146067216,-0.0015437126829609296,0.3437403406887034,-0.7580162402670624,9.786849772874197
2950000000.0,22.35,0.05337591425008645,0.10332723132548324,0.003513366440141481,-0.025509208811792087,-0.31097281708462815,9.99540894269979
2955000000.0,22.35,0.09027979225495023,0.13717892104030305,0.0061962554520988535,-0.5746733586344336,0.3406036591786366,9.96715493725875
2960000000.0,22.35,0.059566914816649864,0.0834310258486139,0.00400306845325695,-1.1234408550333088,0.38141055771650556,9.75427799261658
2965000000.0,22.35,-0.018037891468759382,-0.016538186871152077,0.0009901190344105742,-1.0473137570698376,0.004706726703567265,9.577111636648217
2970000000.0,22.35,-0.06099799267293807,-0.09736379202505824,-0.00044719717986164124,-0.7141639617919396,-0.3425670460379705,9.75133718070767
2975000000.0,22.35,-0.07973946032786172,-0.13428351700254024,-0.007133123024945595,-0.04021764842327648,-0.6302916332129164,9.898779402069692
2980000000.0,22.35,-0.03476674501330496,-0.070767654851455,-0.001149835474945626,0.50031,-0.49874161554141616,9.72681195247802
2985000000.0,22.35,0.0016302841074490651,0.023090568205775812,-0.0029383859894100747,0.4850033850377339,-0.678259805237298,9.848945642019956
2990000000.0,22.35,0.05473678669116946,0.11511600225092707,0.005280655578942062,-0.022174258861242586,-0.08240225768512258,9.840803806540139
2995000000.0,22.35,0.07427283945327137,0.11772371927552922,0.0031619940653800096,-0.631373694274137,0.2075805307885053,9.906038678340087
3000000000.0,22.35,0.04581440560382566,0.06604268942210098,-1.8972078224749404e-08,-0.9809997669143976,0.36296615408756155,9.7020901165428
3005000000.0,22.35,-0.03539576530357212,-0.02886953798094921,-0.003162032009536459,-0.9421521665259217,-0.27801925232229263,9.72151391673704
3010000000.0,22.35,-0.07066370398386626,-0.07681327331563516,-0.006324045046994693,-0.6629581044964811,-0.3806285846563858,9.846690160053301
3015000000.0,22.35,-0.05381031265517684,-0.101524377972046,-0.004322469714196682,-0.2195451061131511,-0.5158106198786062,9.991976378441363
3020000000.0,22.35,-0.02565477174952254,-0.05318266915376671,-0.0011923898464037378,0.34021420227284205,-0.3975004374216044,9.949301706700618
3025000000.0,22.35,0.00787774773865419,0.01971132259184786,0.0019696231910544017,0.2977330887010309,-0.5321933813549339,9.919381323729013
3030000000.0,22.35,0.022608380137805348,0.07249430889159621,0.002129301687433,-0.13910856614338563,-0.35512082291770825,9.982460211978802
3035000000.0,22.35,0.052169822312629496,0.0904933233927813,0.005099696734821358,-0.6868014602203146,0.08544787070797866,9.913593128390131
3040000000.0,22.35,0.026890457312572256,0.033790592279463114,0.004343769034017005,-0.9425462171604622,0.15382103619341037,9.790771632371417
3045000000.0,22.35,-0.01815624471825602,-0.029399060330086053,0.002320926001529047,-0.764982498799625,-0.09300045607320456,9.700225567690756
3050000000.0,22.35,-0.0578439400637773,-0.05912144392311903,0.00021291730989028094,-0.6484403483315035,-0.5591729621295296,9.69228
3055000000.0,22.35,-0.0371329340219521,-0.04660839093069484,0.001895091381748476,-0.48049273188522734,-0.2502506670719067,9.561315609904357
3060000000.0,22.35,-0.0022163487270625767,-0.034426897605865966,-0.0006813958914983491,-0.2711470923897709,-0.14557998394219984,9.467434265068542
3065000000.0,22.35,0.010465575943153302,0.002191157435719515,-0.003843408928956571,-0.17697192372841924,-0.19708331673763319,9.45684
3070000000.0,22.35,0.0016394911118699507,0.03493575175916172,-0.0024273909805002675,-0.46205308708733095,-0.6194063219222633,9.777433065980532
3075000000.0,22.35,0.011764476090715199,0.0557136445020824,0.004205416207567432,-0.9187094266810942,-0.27811057331890576,10.071438232117382
3080000000.0,22.35,0.021903940652966886,0.021000226786817865,0.004428941017193985,-1.0567336786024368,0.07416563406035634,10.237716897379569
3085000000.0,22.35,-0.018121535888621615,-0.031241027249155142,0.000723936560899982,-0.6703143638012437,-0.1737373171296732,9.992562122560022
3090000000.0,22.35,-0.04760052112634856,-0.029124922681020977,-0.0034920808223776302,-0.6529540801563409,-0.5813431808403319,9.65598089931601
3095000000.0,22.35,-0.04270254986858341,-0.023184229554644255,-0.0025338559594714877,-0.7147569606999696,-0.6016468791833688,9.633910800583308
3100000000.0,22.35,0.0038295922970048996,0.0014872036049818453,-0.00042584726783271177,-0.49834625380036257,-0.22758923016609234,9.839431505344514
3105000000.0,22.35,0.014064031100128478,0.0318576847595962,0.001682161423806045,-0.37945031751280317,-0.23033952373079525,10.06672908715069
3110000000.0,22.35,-0.001107354883791765,0.04998457633803789,0.002959735901438979,-0.4853997665282977,-0.2091488375518884,10.075850697959908
3115000000.0,22.35,-0.003683678786365064,0.022908424989066836,0.0031939525311496,-0.8900642647517427,-0.12821615545376155,9.951753592422936
3120000000.0,22.35,-0.0007665288765145504,-0.01449274627922868,-4.2612341697107706e-05,-0.8813294303638943,-0.01844207277292073,9.530215648682656
3125000000.0,22.35,-0.023967931686819165,-0.029827729616800316,-0.005057124445289332,-0.600860496920605,-0.36542559566815597,9.613801699582517
3130000000.0,22.35,-0.031169130381598686,-0.016187098611037447,-8.511928295973359e-05,-0.5997840687614407,-0.49775946079649463,9.943810588673806
3135000000.0,22.35,-0.016889955707056387,-0.015322459796164728,0.0029065034119533663,-0.4702900603405006,-0.45734183463831835,10.186018578765886
3140000000.0,22.35,0.008998398317069469,0.009036143871454128,0.005493618211019187,-0.5250321758517218,-0.13066651640776517,9.987362604333626
3145000000.0,22.35,0.0026772089998165494,0.010097871788332116,0.0018524526899427567,-0.5411193556485936,-0.23269515481125153,9.80489806694578
3150000000.0,22.35,-0.002448690300320601,0.015343269245866811,-0.0014905244616578574,-0.6533471013294709,-0.23445820459538208,9.743291755260117
3155000000.0,22.35,-0.0006600702215693857,0.006680658138708691,-0.0006600702215693857,-0.7807785741029858,-0.2503516902567169,9.819516496667164
3160000000.0,22.35,-0.013767283813774865,-0.0177704176153013,-0.003619846175173564,-0.6407876041405761,-0.3280468910336689,9.892404306896042
3165000000.0,22.35,-0.006680993502157066,-0.003795702981667662,0.00038332767851801276,-0.6577614221449142,-0.3137234311420343,9.888381715571017
3170000000.0,22.35,-0.010551662871217506,-0.00660096887879361,0.0010859238134282067,-0.6674720305593204,-0.3396226310141263,9.911043307867233
3175000000.0,22.35,-0.000751216888856359,-0.000691895882791449,0.0,-0.6347068766588688,-0.23543876658868768,9.82569501327095
3180000000.0,22.35,0.0026828732018921763,0.009794821279530325,-0.0027255329737848615,-0.6843461559091616,-0.29233923535369233,9.77076
3185000000.0,22.35,0.0033536837277455154,0.016417312184078874,-0.0022463931382188033,-0.7099496381351964,-0.22082167710951678,9.826383256783233
3190000000.0,22.35,0.0007026224850188818,0.0020080008888652898,0.0009156198992393688,-0.7975539294288393,-0.21640940550499405,9.944201667466917
3195000000.0,22.35,-0.009922626684491323,-0.029959497110491118,0.00018097043816849554,-0.6440243279335433,-0.2050283794095838,9.95450086558671
3200000000.0,22.35,-0.016193178401843047,-0.034086179107032044,-0.0017034480955742132,-0.4277151298137513,-0.4493009834957099,9.910061813531518
3205000000.0,22.35,-0.015785267730719706,-0.001923599210077554,-0.0008730001795118165,-0.3669920377467204,-0.5855583397204834,9.91565388675984
3210000000.0,22.35,0.01906774529205182,0.040080004955335445,0.0012350085121269404,-0.6417732551695325,-0.3331452306848523,9.916340275299202
3215000000.0,22.35,0.04063384909406625,0.04719952176906591,0.0027361594455994056,-0.8939858620276586,0.1421504595085046,9.86336590041986
3220000000.0,22.35,0.018063926862074482,-0.010105321957574916,0.0014053187503418629,-0.8715197120089971,0.23975477383944774,9.791164362187544
3225000000.0,22.35,-0.05118588995543248,-0.0952876604680668,-0.002342259049488477,-0.43555948979359493,-0.3472795124744952,9.836487876984577
3230000000.0,22.35,-0.08618251100120682,-0.10899517663711557,-0.003683685110391116,0.1683429878992299,-0.8840789566884896,9.877100149044502
3235000000.0,22.35,-0.026322246593524036,-0.018975951189636436,-0.0031939525311496,0.26643784059217834,-1.192407699259777,9.84345191149202
3240000000.0,22.35,0.08061820108156749,0.16945628016168995,0.0034495506930194986,-0.5054191295721913,-0.4049450944410511,9.763303581869536
3245000000.0,22.35,0.16676973491232952,0.2887289729668879,0.01066781513501609,-2.0743367908951678,0.4858894890906949,9.882203869088338
3250000000.0,22.35,0.09320798578043375,0.12197016165192592,0.007452501097789768,-2.947904179344442,0.5052150631273506,9.74623102297691
3255000000.0,22.35,-0.0377699938945152,-0.1538849931621304,-0.0015012194437549337,-2.206358185349782,0.601452301264923,9.634305492203255
3260000000.0,22.35,-0.15454589228036336,-0.3419529197472748,-0.012017714803381308,-0.43201802599938044,-1.2906303217104034,10.18788588579756
3265000000.0,22.35,-0.16265075400718065,-0.32640523311453135,-0.013104386683434879,2.2059950574051514,-1.7649921155904211,10.085850604454405
3270000000.0,22.35,0.03890380397636943,0.015617313053987697,0.001362877157348786,2.3902837032930373,-0.7704900396495004,9.996396351582664
3275000000.0,22.35,0.16469019622581443,0.35366139674260544,0.015072711859498098,-0.05887017807130168,-0.3501957532761577,9.740337676895678
3280000000.0,22.35,0.2017228397299258,0.37522534909712624,0.01683122248984125,-2.0962181291375814,1.2705885241772852,9.543964076681442
3285000000.0,22.35,0.12378270866605286,0.14619485532875792,0.007888972729428373,-3.4723458133988583,0.7150459868468599,9.630463600491437
3290000000.0,22.35,-0.06048339837741745,-0.12832786066027113,-0.003130122027966763,-2.6359364557900644,0.24740762486127627,8.884727446047474
3295000000.0,22.35,-0.14192513106764515,-0.27970378144465746,-0.007889069697828145,-1.0415172677682727,-1.0265378564321788,9.906831548152116
3300000000.0,22.35,-0.16149457784943566,-0.28485408046159516,-0.008091339455816977,0.7181053324964534,-1.910973706025437,10.553598448689785
3305000000.0,22.35,-0.01106504742893058,-0.05650744620757159,-0.0037155687418521746,1.7357779334343792,-0.9810064195659642,10.58714807160868
3310000000.0,22.35,0.10812506700404645,0.21090782784885787,0.006984193264885662,0.7416244272998442,-0.8860272415431726,10.139019877744898
3315000000.0,22.35,0.13063701599051386,0.3096515262339051,0.012541545010687919,-1.0101473545714736,0.510222800462528,9.830313847278639
3320000000.0,22.35,0.14300849900692852,0.18922963246437768,0.005450956331117822,-2.4889997776756982,0.643530196168502,10.205533525142537
3325000000.0,22.35,0.009218993392026115,-0.0415417036767635,-0.002235808826578118,-2.501047681103177,0.13341703334617033,9.697676339593764
3330000000.0,22.35,-0.08861090698349033,-0.18529107571212858,-0.0063879050622992,-1.0873356135871564,-0.17148669111306689,9.947343234062734
3335000000.0,22.35,-0.13501520002885548,-0.23380312448808957,-0.005685221445028303,-0.24887250960052504,-1.1005866854700668,10.099489666746196
3340000000.0,22.35,-0.06817848521044134,-0.13456837033365654,-0.003917908064127789,0.7632238387943384,-1.12265101533411,9.638126464482264
3345000000.0,22.35,0.05467710557847231,0.06572261959410955,-0.00022351321557881028,1.0990086473827867,-0.5051155355751554,9.537873588740137
3350000000.0,22.35,0.10897711478667657,0.21177348187726075,0.007026709692187364,0.0686602395404024,-0.05689123274801233,9.84335386986054
3355000000.0,22.35,0.14492250162838874,0.22763066181907557,0.008208450932685326,-1.353985193025252,0.5719210449945105,9.75565090566191
3360000000.0,22.35,0.06335729479991098,0.0862883589556668,0.004769572033667229,-2.205285389441254,0.3767043263198433,9.541597616832377
3365000000.0,22.35,-0.05551687751071674,-0.10507656467087226,-0.0038540786149492954,-1.6870198828631988,0.1233045756414457,9.623712217748523
3370000000.0,22.35,-0.10432893645946836,-0.2046795700429395,-0.007963574103021112,-0.7767487959718881,-0.8434685784490858,10.044262014501522
3375000000.0,22.35,-0.10066572956495459,-0.16351030253398346,-0.00612173523684074,0.149606498874865,-1.216435804459158,9.984128221108582
3380000000.0,22.35,-0.017634749286084165,-0.035108180632505544,-0.0030235442705305884,0.4995224425973244,-0.6866983586888836,10.06035106869511
3385000000.0,22.35,0.0779756625179811,0.08441051049753802,0.0049932338638587715,0.10967356451483563,-0.3152880085357801,9.975492661763527
3390000000.0,22.35,0.10844735775742456,0.16034246563870924,0.0072183255742486055,-0.39966710406187106,0.30626826584668265,9.747804797540047
3395000000.0,22.35,0.08558925936786187,0.14813958898473,0.00504640205907932,-1.3752664718082648,0.30155900433719,9.680112698472726
3400000000.0,22.35,0.02215840620941282,0.025355239714572233,-0.0014905613518100011,-1.6402307452225078,0.23740140563171405,9.323423471672635
3405000000.0,22.35,-0.024313020381409756,-0.09619746599552934,-0.00725026506793997,-1.3065873523340734,0.010196844404668448,9.335198645521587
3410000000.0,22.35,-0.074457178212869,-0.14661915137865372,-0.005812972041763356,-0.4245732233014322,-0.6643334649406346,9.683059725997698
3415000000.0,22.35,-0.06996169368530596,-0.09377031131934761,-0.0021079654774606446,0.03315872865188729,-0.6247960477120604,9.836487663322776
3420000000.0,22.35,-0.021009337375759232,-0.05513834067936189,0.0026828984979964878,0.2350513200462132,-0.25584400284724,9.894365003559049
3425000000.0,22.35,0.0085172067497323,-0.033175664873958774,0.0,0.6906237338939373,-0.23936772548487723,9.757515901261359
3430000000.0,22.35,0.010904583906659434,0.032475934645979955,0.00044717504577038093,0.5652477362164774,-0.6967057336345573,9.697578132859983
3435000000.0,22.35,0.031661464018941834,0.11050619725000352,0.0033323643818426005,-0.10330470438104705,-0.538171395781214,9.819713434577334
3440000000.0,22.35,0.0737109119997037,0.1233092287301512,0.0042586033748661,-0.8299280045361801,0.17462067271490672,10.006591865457018
3445000000.0,22.35,0.07266578765777663,0.06377977105082804,0.004141484519967342,-1.0835141654250418,0.46273415350544156,9.933213332340033
3450000000.0,22.35,-0.016931795670913144,-0.03110927245535277,0.0028745354601446816,-0.9917877164065771,-0.03237521139965212,9.891422530915225
3455000000.0,22.35,-0.064968041658182,-0.10262258243935511,-0.0002874775773135528,-0.5220853814123538,-0.3475701119492011,9.811077690706178
3460000000.0,22.35,-0.0730683392697218,-0.12484524039083521,-0.0029384144475274126,-0.09613363158733632,-0.5893848672063486,9.618900796761908
3465000000.0,22.35,-0.03979120714254564,-0.08398512407150704,0.00022359858993082157,0.4953073711242737,-0.5997835346069353,9.577798578765886
3470000000.0,22.35,0.014013163070686969,0.008946867370730686,0.003130066165736444,0.5409213105818131,-0.5968379735788798,9.75467200440352
3475000000.0,22.35,0.05172480491742762,0.10103650901071798,0.0021825415549490334,0.21679573517895737,-0.23936049011930488,9.809509432502296
3480000000.0,22.35,0.08151777450762845,0.13572121236463805,0.0030661724222928754,-0.535630393663604,0.24917467594824674,9.797050259241404
3485000000.0,22.35,0.04165443752800844,0.06517786384111389,-6.389374344357072e-05,-1.1418826461611267,0.3330471307819713,9.720532529232225
3490000000.0,22.35,-0.024441238610499183,-0.06721547782873424,-0.002129301687433,-0.9366536480312365,-0.010009657242196572,9.685217749046878
3495000000.0,22.35,-0.07352795108296756,-0.12442070971266042,-0.002129301687433,-0.20296679552836797,-0.5042367154472672,9.821380686178907
3500000000.0,22.35,-0.0767069105059704,-0.10332311531756153,-0.0021292943094025794,0.09810292328192924,-0.8927073486512734,9.9767699320167
3505000000.0,22.35,-0.03240417046201974,-0.04955161492100355,-0.0010752899635832007,0.5157146274580462,-0.5139432448636325,9.967058031919581
3510000000.0,22.35,0.040069430682654186,0.02929485959435235,0.0020654448341415332,0.4622467909347679,-0.26977329556153296,9.938118395467384
3515000000.0,22.35,0.04878479710906817,0.09392202980211901,0.0010965829593774438,0.10898657383766575,-0.11261770760547707,9.690120024858901
3520000000.0,22.35,0.04696470093568374,0.11326291900720414,0.0041308675341919,-0.5611367860243679,0.13694937766619378,9.616546321397562
3525000000.0,22.35,0.019554468187801943,0.032012226885452535,0.001224326178082066,-1.0079805811003058,0.14715,9.688356547751166
3530000000.0,22.35,-0.029953698047695473,-0.07044361460637162,-0.0019376868593760745,-0.6335268516613686,-0.08338671415036716,9.729165874264059
3535000000.0,22.35,-0.06868263964475295,-0.09948027356389423,-0.00014903621449886004,-0.17942167283271676,-0.508651589841016,9.722396631336865
3540000000.0,22.35,-0.0713665131140481,-0.06787560076779965,0.0,0.06043118148581181,-0.7200553752050538,9.604381506116715
3545000000.0,22.35,-0.014173203176950012,-0.013598336558687953,0.0029065192220185713,0.20346036400320366,-0.44115342770673427,9.70130602628846
3550000000.0,22.35,0.02599345807614146,0.03174261753279596,0.004152145773925305,0.19816186209101863,-0.16480606927426064,9.861994172226341
3555000000.0,22.35,0.03361786389609751,0.05707714391940664,0.000468416395351676,-0.004612288187022889,-0.11987806189678063,9.85247709284517
3560000000.0,22.35,0.018158976092763728,0.05684465309222163,0.0,-0.37474476594914763,-0.14361860744618607,9.78017704681017
3565000000.0,22.35,-0.005331804768362487,0.013823359868755353,0.0,-0.6351992311461925,-0.20689338472093385,9.804899076983391
3570000000.0,22.35,-0.028675576230789354,-0.04842950632628166,-0.0027468217535617434,-0.4224165890539659,-0.28331335474373354,10.029353402917135
3575000000.0,22.35,-0.04735614683213348,-0.06476573817205412,-0.0022889917778594173,0.05935418032454187,-0.4277171110413711,10.056721430559914
3580000000.0,22.35,-0.04022137854096151,-0.03204465630109833,0.00323658384492494,0.3680731470417315,-0.5171837562976376,9.931642956941928
3585000000.0,22.35,-0.016238703372237897,0.01510861601645443,0.0007239323448825987,0.28174208585082083,-0.42388919475379194,9.71268312877623
3590000000.0,22.35,0.024970045446194092,0.04440659390858202,0.0,0.04590898698248988,-0.05630640154796401,9.55199595402836
3595000000.0,22.35,0.02784738087752279,0.039508585726107166,0.0,0.0,0.003727660342876603,9.644702547428427
3600000000.0,22.35,-0.00746333168359346,0.02365258060172648,0.0,-0.078480699256807,-0.1491133285879333,9.798229118810891
3605000000.0,22.35,-0.03364993303232345,-0.014266109530410406,0.004205408829537,-0.2453494304331943,-0.3723892805471928,9.976869430433194
3610000000.0,22.35,-0.036684013130294825,-0.05251861992756177,0.00034064261052106377,0.006281064556910632,-0.2764444677215447,10.038965610359755
3615000000.0,22.35,-0.027197905507637538,-0.051702328205637936,-0.0018844396138296253,0.3300106469452065,-0.34874655325556553,9.947240987178509
3620000000.0,22.35,-0.02045871133692013,-0.011761771619236396,-0.0013201594152169962,0.4171213406283134,-0.4124126812566268,9.753885253088553
3625000000.0,22.35,-0.003996658672697381,0.016781501355358133,-0.0018631466180353822,0.2378907397181074,-0.4291875704112757,9.775665704112757
3630000000.0,22.35,0.019198099763326256,0.02867791522194161,0.002597793971097637,0.038650060340500586,-0.17755853220618528,9.95263888067629
3635000000.0,22.35,0.01001227694206735,0.018444342274748754,0.0027041978178167485,0.111933300293733,-0.18138781787167818,10.077813706055137
3640000000.0,22.35,-0.0018738468701541841,0.020752033990366646,0.0005961891261779648,-0.09025447459214475,-0.21582,9.842958984002589
3645000000.0,22.35,-0.01030588163670948,0.004529635322371901,0.000755909782730396,-0.17942482920024827,-0.2924368787972688,9.678643462802235
3650000000.0,22.35,-0.0038326507065988263,-0.008410795524982731,0.0003193875588832255,-0.14224464551564647,-0.15205322757823228,9.694242425381224
3655000000.0,22.432800868428007,-0.009550018230170333,-0.022412419926290797,0.0,-0.005688522108185212,-0.2070904488858045,9.813434564909846
3660000000.0,22.47,-0.02253997280217777,-0.026974404940110903,-0.0014479405780780628,0.16245480854884808,-0.3982874218221742,9.839037386726673
3665000000.0,22.47,-0.015208849894520732,-0.003082345445107864,1.0669685992729678e-05,0.07121903385899034,-0.4347789152470891,9.823047228811772
3670000000.0,22.47,-0.0095818575934488,-0.0020229526489398547,0.0010646508437165,0.1035947405655474,-0.34413394457583946,9.916930069280202
3675000000.0,22.47,0.008422287852728007,0.00638806000093809,0.0003726200483688332,0.18884285691232855,-0.2467208575578086,9.992466285529863
3680000000.0,22.47,0.007203198642107521,0.02202824277210627,0.0006813842974505453,0.1243898707653987,-0.3665033155100331,9.949693756683738
3685000000.0,22.47,0.006430553240144078,0.027304462184986885,0.0010646508437165,-0.1131115188778152,-0.2225862516619625,9.899368885269888
3690000000.0,22.47,0.0056213097835108635,-0.0059879234930818835,0.0004045595420601978,-0.18305409828324098,-0.08220772832617727,9.91280908669529
3695000000.0,22.47,-0.01370225900271688,-0.042880491115540764,-0.0025977792150367832,0.16020110385991104,-0.29989435552484356,9.903783312916232
3700000000.0,22.47,-0.029614809144897013,-0.023222984188599402,-0.0017034101514178035,0.2746789219790892,-0.6592346591182466,9.864935712527757
3705000000.0,22.47,-0.013538625830196521,0.015032747470456645,0.0006281518079649375,0.11742447659194477,-0.5381732896017328,9.860815943930358
3710000000.0,22.47,0.0358355540596746,0.03634344957009971,0.0010646508437165,0.0035310235016102406,-0.051596780698167755,9.806271407314714
3715000000.0,22.47,0.038714072152994376,0.0322868872342793,0.0016715096558871944,-0.04620531647825317,0.015792151695721512,9.772133544318836
3720000000.0,22.47,-0.0025575703488233473,0.006608279297427383,0.0009368770588858541,-0.14126508384805084,-0.38926462959644637,9.797051016769611
3725000000.0,22.47,-0.020139338534097745,-0.0021824635586275287,0.0005855658163764514,-0.23298786176827863,-0.6342167170609673,9.912515874719459
3730000000.0,22.47,0.010158566576749888,0.02859444015120384,0.0010646508437165,-0.35571197656471976,-0.3825863774612638,9.954010220393801
3735000000.0,22.47,0.03740802241749464,0.04266480440059242,0.0027574693054631776,-0.5714343136973432,0.22779356854413574,9.865916274521062
3740000000.0,22.47,0.013933647825161502,-0.04295575957021191,0.003151350729495874,-0.4775478215544783,0.6352965443851655,9.722885819744757
3745000000.0,22.47,-0.08129970100847841,-0.18948484683043565,-0.0022145369108708232,0.42095735664057365,-0.8494703773187038,9.748492973069029
3750000000.0,22.47,-0.10386385565957476,-0.16777711670637607,-0.0063879050622992,2.2121715345099155,-1.1673726642583266,9.756043470375735
3755000000.0,22.47,0.015031178299888398,0.058016406863998865,-0.0022144104303493256,2.26324898106229,-0.9373597225920971,9.907809565627595
3760000000.0,22.47,0.10895351122328997,0.279861355560884,0.008261785660592448,0.15459004386690056,-0.7451494876947946,9.899855364057654
3765000000.0,22.47,0.16694710611572336,0.3031137497536961,0.010401567313236049,-1.5682366920238668,0.7550794296609943,10.060456539930165
3770000000.0,22.47,0.11332196369134284,0.08135755772604686,0.0009155282008613446,-2.2406032677227326,0.9570625748118258,9.997557826850977
3775000000.0,22.47,-0.055128012749958655,-0.16666539024452684,-0.005695905887081853,-1.4680545480501455,0.5032466940632669,9.571130679516207
3780000000.0,22.47,-0.1754707188792457,-0.2853638415769911,-0.0074525559060157,-0.07062318936423184,-1.1995878721038788,10.04269599003466
3785000000.0,22.47,-0.12744489720230218,-0.20827314251614332,-0.004705708856349657,1.5335156682747566,-1.2154317979390181,9.728371683633618
3790000000.0,22.47,0.050177608473643505,0.020033360850709614,-0.0001703281562887574,1.9784663712242636,-0.10243347895903498,9.306948058669382
3795000000.0,22.47,0.08022398693773664,0.20119417269667622,0.004993284456067412,0.6581491406205915,-0.931744806974748,9.561804788600348
3800000000.0,22.47,0.10694740443207036,0.27505308143797,0.0106465084371654,-0.48855401686564026,0.16285330723363306,9.91007181678862
3805000000.0,22.47,0.12187289904666793,0.15763726121218463,0.006494289936940178,-1.823189608613396,0.7723418173529182,10.367692217857423
3810000000.0,22.47,0.017425036823276847,-0.0625468290438118,-0.003236602817003195,-1.4469657494151575,0.5681903156912033,9.71366291381753
3815000000.0,22.47,-0.10297480902416323,-0.2095987214834765,-0.007335420187047472,-0.3346119121256192,-0.8096392333835924,9.62165096407191
3820000000.0,22.47,-0.14295040016209956,-0.20307871660509985,-0.004556689505920379,0.6180374198916743,-1.7657851602166519,10.070165429338253
3825000000.0,22.47,-0.026411229925530508,-0.06412362538537841,-0.0013307732389794625,1.379779397545394,-0.523854297184143,10.441764297184143
3830000000.0,22.47,0.09465631115649181,0.10516184684070032,0.003939248490117563,1.3582865741544659,-0.4726440889574409,10.100367816752978
3835000000.0,22.47,0.06793869682001981,0.18988469447198603,0.0067498701807361455,0.31263270706592705,-0.14891177752521778,9.611548839828888
3840000000.0,22.47,0.10005029387017418,0.1678452721522437,0.006004646948068012,-1.006119790753598,0.31274533597135334,9.977160311553003
3845000000.0,22.47,0.04340799926237281,0.027944334002914614,0.004812156971251364,-1.3499489467686894,0.5060970784703709,9.72043298225623
3850000000.0,22.47,-0.040478406969449904,-0.12101306958451007,-0.0017034575816133558,-0.6297955687797556,0.07258487664104873,9.611839196506091
3855000000.0,22.47,-0.11500971329068169,-0.18463006899905854,-0.003502709402200891,0.24241251299622513,-0.935878492724985,9.733089899514999
3860000000.0,22.47,-0.08274119323980514,-0.14444567766499436,-0.00396049300171193,0.9621656247345562,-1.004926878064669,9.714253125410231
3865000000.0,22.47,0.0468795437085676,0.014699431606997364,0.0002556139719350858,0.9524504225914042,-0.20061712755457128,9.541204498540244
3870000000.0,22.47,0.061278585321077134,0.13575835162462133,0.008751405461368994,0.46616383332953837,-0.27526341326263415,9.517861732995017
3875000000.0,22.47,0.09187381311825754,0.14514516737263725,0.004524708906059514,-0.4169302687058027,0.22317742473277424,9.91055408061174
3880000000.0,22.47,0.04742435898689072,0.04316115773405041,-0.0015756996068478912,-0.8542523129766231,0.22052895072868953,9.996780214434002
3885000000.0,22.47,-0.011336470653951245,-0.05852205261078712,-0.003928586182155309,-0.5405287361560873,0.030109833006798342,9.758006245385364
3890000000.0,22.47,-0.07203060869916549,-0.1229731229690248,-0.004982516747670513,-0.16499898645778985,-0.7414427467847275,9.7450599911989
3895000000.0,22.47,-0.06688629577031924,-0.11232946239976555,0.0,0.4165345670482457,-0.9059485823793858,9.962839648688597
3900000000.0,22.47,0.02322703899515404,-0.04005081214513308,0.0014905687298404219,0.6121437727415378,-0.3708167879548679,9.900250181932302
3905000000.0,22.47,0.04872875144742608,0.07545122757764887,0.007654847798095795,0.47862542485355425,-0.18560277280192772,9.670892531301325
3910000000.0,22.47,0.06666059978085524,0.1161984228130912,0.00736733438463452,-0.10497193655881938,0.01569372158823721,9.540226898676469
3915000000.0,22.47,0.04789854228926613,0.07070698012367739,0.0017673038948613344,-0.6478533125301332,-0.1922744791164448,9.704638927028089
3920000000.0,22.47,0.0330186302006122,0.03400100079982897,0.0,-0.7989289888040899,-0.06082352282593523,9.539637085271671
3925000000.0,22.47,0.008091214029299874,0.017900737667286372,0.0,-1.0599695089005952,-0.2138573900926739,9.643231524768314
3930000000.0,22.47,-0.006238845659704732,-0.013121700398133405,0.00044717820778341835,-0.9447026183223262,-0.14165609465786094,9.831975621368557
3935000000.0,22.47,-0.00837060718593587,-0.05431345723237382,0.0023634751029654945,-0.820895908310159,-0.11428688216326882,9.933800212751002
3940000000.0,22.47,-0.030809383112929203,-0.09540238977416224,-0.0034494853447500622,-0.21581617351136173,-0.2040510611909106,9.709545446940455
3945000000.0,22.47,-0.044524653868410306,-0.07806570127119167,-0.004854774582970264,0.2233742363882424,-0.5795769455529696,9.70415094289581
3950000000.0,22.47,-0.028546171987629543,-0.02151934319295106,-0.0010646508437165,0.2668306189678062,-0.8004941586237417,9.812943997412141
3955000000.0,22.47,0.025720079102860234,0.0494224654704353,-0.0006813431912810492,0.07612283443932835,-0.5259086456997865,9.93125190728452
3960000000.0,22.47,0.07047222310075499,0.10708706949393057,0.0031939525311496,-0.28213921515769214,0.12125290761022908,9.955186846226269
3965000000.0,22.47,0.0673604138453765,0.09627250775287234,0.0031194186138349756,-0.7255497564302975,0.25751057461580573,9.80744801372338
3970000000.0,22.47,-0.0023009944337744857,0.02609762929975359,0.0019376394291805124,-0.9780566144375661,0.014713072187830722,9.646762062674922
3975000000.0,22.47,-0.039730020427837326,-0.052045323526646425,-0.0011711326867572536,-0.903987099052471,-0.22955616186896163,9.708467503724876
3980000000.0,22.47,-0.06489251118839781,-0.10793848774222736,-0.002980980413033332,-0.35315613466376133,-0.4889300907731009,9.826480181546202
3985000000.0,22.47,-0.036705170159528414,-0.0632204246638369,0.002129301687433,0.12184128365381285,-0.4565587932691879,9.753789396634593
3990000000.0,22.47,-0.01719985783158385,-0.00506651812943075,0.002193205970920033,0.2505456174778562,-0.6186149574547496,9.838841167497112
3995000000.0,22.47,0.02791164849877026,0.059932556682377694,0.005301944358718923,0.02579742887097429,-0.1654936912249369,9.810294532794245
4000000000.0,22.47,0.04900880309759679,0.08735361087559929,0.0031939356670800667,-0.33354295241762955,-0.03923844609598446,9.839428368400783
4005000000.0,22.47,0.04372150260873221,0.07258027127435991,0.0010859269754412105,-0.7025951561081515,0.15499955584639555,9.635478466361285
4010000000.0,22.47,-0.007473914198243163,0.015011809829635736,2.1284563759476488e-05,-0.8889836798993368,-0.2179812376881124,9.729558778894388
4015000000.0,22.47,-0.03435213113372357,-0.028517979928635275,-0.001032719782059902,-0.7975522201344223,-0.18756688805376887,9.845709335838693
4020000000.0,22.47,-0.04230544412430545,-0.06152870402537086,-0.0010646508437165,-0.46499126707131266,-0.3841612397572124,9.962252137004121
4025000000.0,22.47,-0.036534926323587354,-0.059815026005518634,-0.002076077629982159,-0.041198560044985566,-0.3271629527344295,9.911042530915225
4030000000.0,22.47,-0.016183569977275197,-0.017589769253214822,-0.0011285213990644626,0.10948069589080697,-0.5081595655582957,9.9081
4035000000.0,22.47,-5.3104954959798736e-05,0.036598076993967166,-7.45170532450842e-05,-0.0008839188754391769,-0.437819594624696,9.971963648625236
4040000000.0,22.47,0.037321737837697544,0.07380886763873717,0.0009794872925742942,-0.4159475312468753,-0.1067299750024997,10.030921670832916
4045000000.0,22.47,0.03175461820165358,0.05053263653288776,9.581004903932728e-05,-0.6744394642317946,0.07328203567762034,9.946358214307283
4050000000.0,22.47,0.001172596456891068,0.012459589364969138,-0.0009581942967800512,-0.6435355280016554,-0.13243696665976967,9.919871842667218
4055000000.0,22.47,-0.03625655601769334,-0.018977212988347175,0.0017779925529322887,-0.7162288088715881,-0.41015838414178385,9.90044804247298
4060000000.0,22.47,-0.03204207364487588,-0.03736554182634076,0.004003104289404704,-0.6914084845574849,-0.21699514962365152,9.760163938229939
4065000000.0,22.47,-0.022556034532501074,-0.05146603145515398,0.0014798389655999535,-0.3453088416900884,-0.06690309459153096,9.596238757718288
4070000000.0,22.47,-0.013970593753101617,-0.0349402726948186,-0.002597782377049845,-0.08338302362833025,-0.20091022298760222,9.498629888506198
4075000000.0,22.47,-0.016410492793240236,0.007876176356404661,-0.0059088379530330155,-0.2408373204956732,-0.6092046409913465,9.552978633215886
4080000000.0,22.47,0.012489860231550996,0.04712978476375923,0.0025552480316742704,-0.67022300395703,-0.2648660375447604,9.746040543480307
4085000000.0,22.47,0.039324569111706745,0.03734692378990365,0.001607596940365416,-0.8921228282320283,0.05788138038671381,10.024841380386714
4090000000.0,22.47,0.0008757326771390295,0.004389209787736881,0.00281069547092274,-0.7210330139164303,-0.061019868310198705,10.107047117773371
4095000000.0,22.47,-0.031815491082248196,-0.01766620367859504,0.0031939525311496,-0.796082693106927,-0.42389336115893367,10.034648204595381
4100000000.0,22.47,-0.04153887941164314,-0.03664159788741038,-0.0010646940578946584,-0.8475842389127424,-0.4532215221745152,9.733479133047092
4105000000.0,22.47,-0.006423137542027113,-0.026175777415248805,-0.002129301687433,-0.667470486367205,-0.2554504863672049,9.562100263448903
4110000000.0,22.47,0.0007026435651057441,6.0273394024486227e-05,-0.00046842904340381464,-0.5032518025227181,-0.4049588756272887,9.772528274786383
4115000000.0,22.47,-0.0057385287688224524,0.031814828787386326,0.00409894912058751,-0.5766329190051291,-0.3553170809948708,10.05093583801026
4120000000.0,22.47,-0.0017885526224731005,0.02808152794294655,0.0020866809137011495,-0.720055200390852,-0.20443911958309122,10.166299760182397
4125000000.0,22.47,0.010380458768202339,0.006924402362948914,0.00026615401539327194,-0.8068730608622307,-0.03433355778283556,9.800185833594858
4130000000.0,22.47,-0.010595814854082466,-0.0036624511388402862,-0.0007878503304261065,-0.6715909153738092,-0.2079744066088441,9.578286757136167
4135000000.0,22.47,-0.0215127799770047,-0.011540884878814798,-0.000287447011187515,-0.7612576063482762,-0.40623346539603467,9.702680366983103
4140000000.0,22.47,-0.023141678345199163,-0.014607018302946863,0.0,-0.5811417463204175,-0.4230068783418688,10.008164814508648
4145000000.0,22.47,-0.0007500547713106473,-0.004322360097744759,0.0015118216734694837,-0.5880125271631254,-0.3005771118135711,10.076439277953394
4150000000.0,22.47,-0.007878608704695905,0.0,0.0006387730097577593,-0.48363130721581304,-0.2687941612175416,9.962053790868438
4155000000.0,22.47,-0.0016819906751021074,0.007346178409405263,0.0,-0.5436716527060166,-0.22052815435288153,9.877296115764661
4160000000.0,22.47,-0.002257138712524499,0.004130766349774733,0.0007239713430433772,-0.6784605696361057,-0.2962632120451321,9.772328549560886
4165000000.0,22.47,-0.00817655359916779,0.0010646508437165,-0.0017886485368685896,-0.5912471628975716,-0.26447662919846626,9.79067502810115
4170000000.0,22.47,0.0023636743097868763,0.006686077621709771,-0.00038323914215299777,-0.6786576629366766,-0.2709527669807277,9.87808212897522
4175000000.0,22.47,-0.005323430237308406,-0.00495081124294392,0.0010646508437165,-0.6660978646788787,-0.27517025671690254,9.888970256716902
4180000000.0,22.47,-0.0052805712585943425,-0.005961956610049233,0.0024274215466263465,-0.6682578495318785,-0.28998392476593926,9.840999112851092
4185000000.0,22.47,-0.005089083965063243,0.0005536537267980782,0.0011817359704762286,-0.7088707625772076,-0.3535530503088305,9.807449237422793
4190000000.0,22.47,0.00178873707323362,0.008730225244039727,0.0,-0.7587059697000598,-0.2122861211997612,9.836683688314338
4195000000.0,22.47,0.0003086514706167271,-0.0060687664039504735,0.0,-0.7608632740686327,-0.19767272224262722,9.92487599631126
4200000000.0,22.47,-0.009368998253797518,-0.027698508033697535,0.0,-0.5277749815414499,-0.23151567368015674,9.925757428940274
4205000000.0,22.47,-0.015926872022346106,-0.024663987361909598,-0.0006281528619692834,-0.39995394503123943,-0.5225830288852303,9.944593853416638
4210000000.0,22.47,-0.006373773663180921,0.011544033950061226,-0.00044714447964433815,-0.474608699516187,-0.4910850837094508,9.908491418709614
4215000000.0,22.47,0.02580678499065683,0.04395505556128011,0.0,-0.7771519660806196,-0.1461665438604654,9.864641781871317
4220000000.0,22.47,0.03591736409728482,0.033114196152612296,0.001788640104833812,-0.9547089540946896,0.21660832464278326,9.819416862284069
4225000000.0,22.47,-0.0018121329977641917,-0.03755073287804269,-0.0003194486911352926,-0.7906837021644371,0.06768391193553913,9.81833907445889
4230000000.0,22.47,-0.0685365715237707,-0.1135847552773641,-0.0037688729036332753,-0.2750663199620632,-0.6033211622006116,9.912809785952097
4235000000.0,22.47,-0.07792191697028172,-0.09607968747214016,-0.0020015078765198303,0.29283220169072205,-0.9365606177402062,9.909766795142268
4240000000.0,22.47,-0.006096686357035877,0.023348924144098476,-0.0005536273766894326,0.3166638351511384,-1.1002923177781232,9.82334102350161
4245000000.0,22.47,0.10351688351105442,0.2055727607815362,0.005451119701791436,-0.7234037470015374,-0.01989393385413929,9.710329080735491
4250000000.0,22.47,0.16457581285776832,0.2790950986866057,0.012775828042672329,-2.7222945646227457,0.8485596341751962,9.888484292659843
4255000000.0,22.47,0.061211117621684574,0.08640722941027948,0.008101894255336008,-3.2454313077801134,0.7412472365238724,9.778209318731495
4260000000.0,22.47,-0.06422076045611048,-0.19558287450303474,-0.0019590293933746668,-1.930204181136342,0.6223404423320044,9.656968550996385
4265000000.0,22.47,-0.16877573163784937,-0.3640100216421749,-0.012400846903617507,-0.2441532545458326,-1.3264385149801852,10.168069142125391
4270000000.0,22.47,-0.1367836496955559,-0.24206802678769643,-0.014765404313537324,1.8921717102349174,-1.3994631658814316,9.945172925459929
4275000000.0,22.47,0.054968193086112706,0.1089243853510029,0.0009583840175623574,1.8285600854172008,-0.30559868860638684,9.53728498932285
4280000000.0,22.47,0.15012428792823918,0.357927194042707,0.01572196213897987,-0.6663133231825331,0.14874986072679852,9.273972787810328
4285000000.0,22.47,0.19506267622191625,0.33930470880875935,0.014904350302531073,-2.728668562351686,1.4818854495045546,9.510026346810864
4290000000.0,22.47,0.08310815383775726,0.0640142623609827,0.00438623486911015,-3.3681551506433522,0.6107708499843085,9.857269284269593
4295000000.0,22.47,-0.07753503211349028,-0.18288618998792905,-0.006441182873971659,-2.2701238409030386,0.35433152708491533,9.176673407718635
4300000000.0,22.47,-0.1553177298311926,-0.30146777520191365,-0.0095818575934488,-0.9947190495009905,-1.114438885121389,9.890446844295768
4305000000.0,22.47,-0.14585176407607514,-0.28788551462852574,-0.0095818575934488,0.9350102488563024,-1.682686471887465,10.120876475035665
4310000000.0,22.47,0.02339673137947724,-0.059312403696114485,-0.004322364313762145,1.7200722564971225,-0.645511394652614,10.256754348476044
4315000000.0,22.47,0.12190856487769076,0.24021713875856565,0.009386150049238304,0.33686550998365516,-0.8890634534467344,10.209842860317929
4320000000.0,22.47,0.1510503703411417,0.31480441763500694,0.01542725042875693,-1.1552437247364373,0.572124402470644,9.75075901187109
4325000000.0,22.47,0.129640742918467,0.16516757948538385,0.006920139312781596,-2.6143675202380754,0.7004276153968761,10.213181423095314
4330000000.0,22.47,-0.007645245403815216,-0.07625608252304007,-0.0025339329017887817,-2.365376098132761,0.14243934968879352,9.586334523151645
4335000000.0,22.47,-0.09377423114423095,-0.19823778182489812,-0.0078038998226598565,-1.164339890367399,-0.4014356410695564,9.919777520693476
4340000000.0,22.47,-0.1430425757104156,-0.22851676940656568,-0.007835811912238264,-0.04354518819405184,-1.1787685884084858,10.061132206531822
4345000000.0,22.47,-0.0522675258200005,-0.11611195516483433,-0.004407599537199857,0.7676303900897039,-1.0105256525040565,9.72749697163947
4350000000.0,22.47,0.0807408233942398,0.08650011418256891,0.0028746398065749175,0.42476801488168014,-0.5670109025434091,9.58240597215526
4355000000.0,22.47,0.11244761369511788,0.22427906197887307,0.008346825893226223,-0.3701428889190289,0.23456378266133787,9.61674892134549
4360000000.0,22.47,0.13400485420180075,0.2024827458133303,0.0053232542185827,-1.5990384687768846,0.6447088809237889,9.988930843113708
4365000000.0,22.47,0.037080372293920666,0.04639869274014311,0.0038859295722756763,-2.180857115110271,0.2791924304302243,9.652548228226683
4370000000.0,22.47,-0.05745896945166555,-0.11920600069749485,-0.0016609105881856866,-1.591762196681322,0.004700142035301391,9.70582314756643
4375000000.0,22.47,-0.11105963595991501,-0.20240121164839847,-0.0063879050622992,-0.6302840870665409,-0.8976206086223061,10.12146605535486
4380000000.0,22.47,-0.0882095975588636,-0.1470469864468464,-0.005365803320019034,0.21111528365975285,-1.22310501481535,10.00580794030498
4385000000.0,22.47,-0.00016021514009943727,-0.01614451854606354,-0.0006600280613955302,0.4967756744523568,-0.6642331410126314,10.07173216277382
4390000000.0,22.47,0.08667654405640941,0.09399590792138537,0.005195533133969289,0.13635431012344312,-0.3199954636318546,10.119208300803582
4395000000.0,22.47,0.10974612568791672,0.16597347056888323,0.008740792691610965,-0.5337724294798243,0.2721288877943889,9.877591668308417
4400000000.0,22.47,0.06370739573441367,0.1263399008346611,0.008517160373541045,-1.512703794759138,0.2550612819708128,9.876704923270049
4405000000.0,22.47,0.0025942089221847545,0.009041875979055682,0.0032471386444439723,-1.617862462021125,0.32058840426848406,9.540124418706643
4410000000.0,22.47,-0.029621588017044044,-0.11069756808469373,-0.0018312366364657364,-1.1975967480578678,-0.04317085271670852,9.322051199612712
4415000000.0,22.47,-0.07895050847650041,-0.13754845333974383,-0.004418254467131773,-0.39308421307374214,-0.6766932854635329,9.405044572097246
4420000000.0,22.47,-0.05607211303885651,-0.07670419501064288,0.0006814138095722442,-0.13184502634885026,-0.57290099513811,9.59025900486189
4425000000.0,22.47,-0.010433317086145154,-0.051774170195853314,0.0036197755568823427,0.09418150082021501,-0.2609446247949463,9.874255242149053
4430000000.0,22.47,0.012967325876246848,-0.0289279600249797,-0.00014906045659881395,0.6250930279051303,-0.20032476051404763,9.84374605581026
4435000000.0,22.47,0.0027256183481368743,0.03054608273654785,-0.0006494089676114227,0.5151168114475682,-0.6563877030118771,9.801072296988123
4440000000.0,22.47,0.0204885580272285,0.08880401082594899,0.0020015342266284293,-0.18090174698371747,-0.6266562456328625,9.761343866108438
4445000000.0,22.47,0.07134730877473454,0.11059766766941212,0.0010646508437165,-0.7517431491801315,0.06720152185771522,9.91457511803275
4450000000.0,22.47,0.07914986500103496,0.06710376212840856,0.0009581763787061721,-1.0320113085127132,0.3256878510762785,9.96597891356409
4455000000.0,22.47,-0.00799903599284238,-0.006711099598485779,0.0001916559342264125,-0.9331244309430443,-0.10163194613211947,9.96068194613212
4460000000.0,22.47,-0.04760370371838896,-0.07882233194105837,0.0017885758105686612,-0.6035063487116635,-0.16245637216476372,9.976767834246278
4465000000.0,22.47,-0.06675639612783814,-0.12573971333435793,-0.002129301687433,-0.04659099545490996,-0.46087501418175014,9.732596758363767
4470000000.0,22.47,-0.045450449384785666,-0.09205546741518017,-0.002129301687433,0.6370613131756132,-0.5909547472975475,9.498632423312124
4475000000.0,22.47,-0.003777302623046026,0.006178498951902518,-0.0018630918098093946,0.6155753269623533,-0.6126318054333181,9.697676456136564
4480000000.0,22.47,0.047647196689356394,0.10490092096332249,0.003279143486404801,0.349228603416886,-0.29821834378938344,9.80019
4485000000.0,22.47,0.09036579847392757,0.1407685952697944,0.00529130523885222,-0.46804006559740063,0.31715825827318256,9.79783490307405
4490000000.0,22.47,0.0485173674028413,0.07406396677274622,0.004088183520199252,-1.0053265324655654,0.41476366033693657,9.72171
4495000000.0,22.47,-0.02822086781854798,-0.05598317895131538,-0.004247947390929866,-0.7486932629212326,0.06268057409110574,9.722200936549909
4500000000.0,22.47,-0.07990114469818306,-0.11398729202957586,-0.0031939525311496,-0.08828816445088164,-0.529742709620127,9.770761311106511
4505000000.0,22.47,-0.07673913166072473,-0.09605193939087824,-0.0031939525311496,0.11566173758861738,-0.8308116126308163,9.916439812563297
4510000000.0,22.47,-0.02137454316014814,-0.03949489101308448,-6.385052926539438e-05,0.43497829084418294,-0.526205596757156,9.956365550405355
4515000000.0,22.47,0.03762040719600891,0.03191399288559918,0.0010327208360642478,0.5366078769845788,-0.16784585515705852,9.938118424603084
4520000000.0,22.47,0.049647033208722734,0.09544425121551744,0.0020867251818836264,0.1722601759725017,-0.10045387322653873,9.824517746453077
4525000000.0,22.47,0.03488549785139988,0.1061082410059086,0.0011178738471629953,-0.5233699161667993,0.10693093363930935,9.61477906636069
4530000000.0,22.47,0.01707299747110953,0.01940129574923241,6.386950134361683e-05,-0.798928687735187,0.14538446396944465,9.705426367887963
4535000000.0,22.47,-0.03454212455752151,-0.06639292487174847,-0.003960539377903139,-0.358060595653306,-0.18129197112961976,9.80313388086934
4540000000.0,22.47,-0.07068405628942126,-0.07930363956982489,-0.002299626681708728,0.028256239178062414,-0.5399456628099567,9.900252881840528
4545000000.0,22.47,-0.05896318707125779,-0.05857076983204905,-0.0001916179900699629,0.14813188281171882,-0.649324694530547,9.792046552344766
4550000000.0,22.47,-0.009584868365502014,-0.015227584977276568,0.001916390701568794,0.2540799721611997,-0.3923973486512735,9.762911823243417
4555000000.0,22.47,0.020393200387956164,0.02537588156030461,0.00402439939320764,0.20375308067213083,-0.2494671498196715,9.900645815606557
4560000000.0,22.47,0.021565967144303404,0.04764418071639651,0.0042586033748661,-0.010989325740693251,-0.11457955998459558,9.848846891419768
4565000000.0,22.47,0.017605446738478484,0.04450077657491146,0.0014798358035869159,-0.3550271807769718,0.00431746403577464,9.728477747294578
4570000000.0,22.47,-0.00035972102223337174,0.004281925449977492,-0.0016821772338712325,-0.5118869539679696,-0.06474688766766887,9.669716556166167
4575000000.0,22.47,-0.026737822381661624,-0.04921704138845705,-0.004844190271329538,-0.3379524561306245,-0.18688165523051653,9.721220122047201
4580000000.0,22.47,-0.040729807757718284,-0.06915216486995518,-0.0053232542185827,0.041990536362205344,-0.4944271136351712,9.81392488961005
4585000000.0,22.47,-0.03641779798264943,-0.030703212909599646,-0.000904904891059803,0.24633061398810613,-0.6389262796393629,9.87033194529062
4590000000.0,22.47,-0.012438011718886425,0.02217769445438374,0.004365116838037287,0.17814853013708531,-0.4561627711189277,9.975201469862915
4595000000.0,22.47,0.02619427933842025,0.04058074730111945,0.0035985004791620127,-0.057587109813771103,-0.01471053738190542,9.86925097196221
4600000000.0,22.47,0.023865515829690622,0.024717149233104047,0.0006387614157099754,-0.07651764260207643,-0.03139325089273251,9.66677203431142
4605000000.0,22.47,-0.008155041940668704,0.016026611693325567,0.0,-0.16166987335919875,-0.22160977837859777,9.561610084427201
4610000000.0,22.47,-0.03757858772476126,-0.010852060572032213,0.0,-0.3394277908743779,-0.47147101768041016,9.843553692205038
4615000000.0,22.47,-0.03301085646931402,-0.044363264930323526,0.0,-0.08043841436648413,-0.2955725211340252,10.086349582457595
4620000000.0,22.47,-0.023354521874785213,-0.04409808946293218,0.0,0.3154932792562328,-0.34492103580731037,10.126274310262042
4625000000.0,22.47,-0.01971347440219548,-0.007988835010487173,-0.0015969957646551477,0.3825896406596964,-0.40466276950522767,9.895834715112647
4630000000.0,22.47,-0.0018355224254810142,0.02605455827609965,-0.0005535989185720953,0.24210918122049183,-0.3031276510170765,9.725436630881466
4635000000.0,22.47,0.0229242617153804,0.02320541187998213,0.0007772048865333308,0.0458108093844081,-0.20757887976548878,9.79970085043971
4640000000.0,22.47,0.01065115066971583,0.023013960422598793,0.00029809245508029074,0.11026593214935931,-0.12282038886210389,9.902999611137897
4645000000.0,22.47,-0.0036092544855024023,0.012397440447965594,0.0,-0.08682165782431658,-0.30009051648300517,9.899859239105792
4650000000.0,22.47,-0.018324368813227545,0.0007451673704378659,0.0007452653928419662,-0.11085200647262006,-0.25898237422792375,9.771739464548594
4655000000.0,22.47,-0.007266113232792613,-0.013160628044310136,0.00033003194877165537,-0.10555596167115962,-0.21277899041778991,9.79616889459569
4660000000.0,22.47,-0.016663233532049813,-0.023184324415035366,-0.002171917191143237,0.04905226287272264,-0.27585801463418014,9.736227532791276
4665000000.0,22.47,-0.016646143940144187,-0.014857491187258248,-0.0010539748336977285,0.19325790612027904,-0.3435467436721674,9.751435115508253
4670000000.0,22.47,-0.01137045132209144,-0.0018523841796603225,0.0028107176050139854,0.08318680439876802,-0.4212422163823222,9.832367525673176
4675000000.0,22.47,-0.007186343920383478,5.3202977363924625e-05,0.0021825046647969597,0.09908227128772273,-0.33010477468094773,9.916439317256394
4680000000.0,22.47,0.005578928268765474,0.005749213210876061,0.0003832644382572631,0.11575754548307546,-0.30254094542030946,9.966175472710155
4685000000.0,22.47,0.00433302029769838,0.01898321203550831,0.0,0.030115698994457,-0.3175496089994961,9.952048435997984
4690000000.0,22.47,0.004620653867655081,0.01789266739791301,0.0013201868193299876,-0.10712665756196657,-0.15578043146180431,9.888871671219016
4695000000.0,22.47,-0.0029385946822705596,-0.01734363746722872,0.00018096095212938334,-0.029133602520936025,-0.2024805886738059,9.900939338363195
4700000000.0,22.47,-0.0178967351117012,-0.032169829511632615,0.0002129499840250015,0.2531010126314101,-0.41202182583721825,9.933606091291862
4705000000.0,22.47,-0.019670848358441906,-0.006139187492635152,0.0004364969277428708,0.23210222388652224,-0.6236238019465381,9.92595401722204
4710000000.0,22.47,0.009521198330161192,0.030597355952905848,0.0024700296723060883,0.047871519194615186,-0.26662857259818573,9.832561627708515
4715000000.0,22.47,0.03969647117577096,0.033667725921587816,0.0024380206143278845,-0.07131970741539707,0.03090104208391042,9.793127166332871
4720000000.0,22.47,0.01572906773519541,0.010781716978585076,0.0010646508437165,-0.051795699835957,-0.12203860032808599,9.755063083196632
4725000000.0,22.47,-0.022473951404092724,-0.008793118339947701,0.00047908291933135695,-0.048560325997103256,-0.5655522819797228,9.83060301910403
4730000000.0,22.47,-0.014614718858697497,0.007028490994089351,0.0022996857059521397,-0.1783473618677736,-0.6317603250170032,9.93831498374915
4735000000.0,22.47,0.030989722876366164,0.04977824686632659,0.003130053517684247,-0.4422381109809811,-0.1600940495851405,9.926542432113225
4740000000.0,22.47,0.04422989393316881,0.04482587858250371,0.002129301687433,-0.6694355048257551,0.47559561309215626,9.821378034830179
4745000000.0,22.47,-0.0033546497140890807,-0.07104986646754806,0.0005003558890430296,-0.32068143455951437,0.40877505022765054,9.726320423502203
4750000000.0,22.47,-0.116109511239774,-0.23222614621846133,-0.0053233343229129315,0.9319662382969625,-1.2409885270779852,9.780571291682714
4755000000.0,22.47,-0.09001648187416701,-0.17312209160461478,-0.004886657160426929,2.285543220737332,-1.2707639405168394,9.921344885402549
4760000000.0,22.47,0.04065332866674408,0.09570876701441841,0.004088339512842481,1.8964515406578155,-0.7863850403672503,10.04347892457289
4765000000.0,22.47,0.11648834388349608,0.30070332489108403,0.012528577491548787,-0.10145594707855943,-0.25964302623203017,9.73945897331059
4770000000.0,22.47,0.18213885173139277,0.2834843601378342,0.013125842566097501,-1.9461219756836197,1.114412293938923,9.876130425531704
4775000000.0,22.47,0.09517431066359365,0.030091539768431208,0.0008515596231091892,-2.306321539638115,0.9422513347378133,9.809004345713944
4780000000.0,22.47,-0.08586812004495814,-0.22336313465593988,-0.0085172067497323,-1.1128325659810256,-0.14011112559041128,9.435660705879908
4785000000.0,22.47,-0.22892951768117614,-0.33304246703445767,-0.009432826648971711,0.722332699235027,-1.8156400048015002,10.20573893182959
4790000000.0,22.47,-0.12844345494108064,-0.23870030821454213,-0.006622037371662165,2.354210219760202,-1.078095274799253,10.059754505519747
4795000000.0,22.47,0.09266886145170637,0.03228358692204872,0.0006814169715853066,1.890072861793029,-0.2788152882137529,9.415928853926488
4800000000.0,22.47,0.07392912207017097,0.2275432699990737,0.004897434354862919,0.3041016089183161,-0.62782601486386,9.252793212045132
4805000000.0,22.47,0.11662427227532648,0.26413332652105326,0.007867779864046938,-0.9449167462956675,0.4387076799052768,9.750169266449593
4810000000.0,22.47,0.10342282139863199,0.11172742294471166,0.005280587068659572,-1.961801090574111,0.7296678934284789,10.281661623431717
4815000000.0,22.47,-0.004086981886130027,-0.10401045479140222,-0.00196965481118485,-1.2409509711603097,0.4489963114777631,9.962346400706464
4820000000.0,22.47,-0.12182545262635057,-0.22864535734927777,-0.005706538682922533,-0.04904297829622978,-0.9009732439429325,9.841393872454338
4825000000.0,22.47,-0.12330613771553764,-0.1987777772795778,-0.005269991162971029,1.132583900006039,-1.488641727045117,9.778112345409024
4830000000.0,22.47,0.021966774517286396,-0.03685711991849937,-0.0010220037198759883,1.9321629645550296,-0.13205376421763765,9.69091401153944
4835000000.0,22.47,0.10527723712847187,0.14383720741840894,0.004950677384392011,0.7861694556088945,-0.6305789112177891,9.936933699045937
4840000000.0,22.47,0.0839409716221155,0.19933370680910364,0.0071544128587268455,-0.03611715794757153,0.006280938302209396,9.702491519085715
4845000000.0,22.47,0.09475912261082522,0.13111354400331096,0.0042586033748661,-1.2485202998413032,0.31716134665741347,10.173160741717908
4850000000.0,22.47,0.02876395299193423,-0.010976072736303993,0.0026615759900805473,-1.1340286519763867,0.47283766655017667,9.733480492713106
